"width","height","webaudio","browser","browser_version","mobile","os","fullscreen","vsync_rate","webcam","microphone","trial_type","trial_index","plugin_version","time_elapsed","subjID","condition","stimID","rt","url","success","value","timeout","failed_images","failed_audio","failed_video","view_history","stimulus","response","trialType","cycle","phase","trial","resp","cat","token","corr","resp_num","cat_num","ref_cat_num","paired_cat_num","time_obs","ref_cat","paired_cat","ref_prob_dist","paired_prob_dist","text_Pegmatite","text_Peridotite","time_resp","text_Andesite","text_Diorite","text_Basalt","time_fb1","time_fb2","text_Gabbro"
"2560","1279","true","chrome","131.0.0","false","Windows 10","true","86.47","true","true","browser-check","0","2.0.0","702","66311c9747a9466bf5dcf6ba","3","5","","","","","","","","","","","","","","","","","","","","","","","","","","","","","","","","","","","","",""
"","","","","","","","","","","","external-html","1","2.0.0","9924","66311c9747a9466bf5dcf6ba","3","5","9159","consent_form.html","","","","","","","","","","","","","","","","","","","","","","","","","","","","","","","","","","",""
"","","","","","","","","","","","fullscreen","2","2.0.0","13203","66311c9747a9466bf5dcf6ba","3","5","2263","","true","","","","","","","","","","","","","","","","","","","","","","","","","","","","","","","","","",""
"","","","","","","","","","","","call-function","3","2.0.0","13205","66311c9747a9466bf5dcf6ba","3","5","","","","{}","","","","","","","","","","","","","","","","","","","","","","","","","","","","","","","","",""
"","","","","","","","","","","","preload","4","2.0.0","14347","66311c9747a9466bf5dcf6ba","3","5","","","true","","false","[]","[]","[]","","","","","","","","","","","","","","","","","","","","","","","","","","","","",""
"","","","","","","","","","","","instructions","5","2.0.0","40944","66311c9747a9466bf5dcf6ba","3","5","26597","","","","","","","","[{""page_index"":0,""viewing_time"":6231},{""page_index"":1,""viewing_time"":10999},{""page_index"":2,""viewing_time"":9367}]","","","","","","","","","","","","","","","","","","","","","","","","","","","",""
"","","","","","","","","","","","html-button-response","6","2.0.0","42858","66311c9747a9466bf5dcf6ba","3","5","1913","","","","","","","","","","0","start_test","","","","","","","","","","","","","","","","","","","","","","","","",""
"","","","","","","","","","","","html-button-response","7","2.0.0","49965","66311c9747a9466bf5dcf6ba","3","5","7105","","","","","","","","","<img src= ""rock_img/I_Peridotite_16.jpg"" style=""width:8cm; height:6.989999999999999cm;""><p>What type of rock is this?</p>","6","class_response","0","test","1","Peridotite","Peridotite","16","true","7","7","","","","","","","","","","","","","","","",""
"","","","","","","","","","","","html-keyboard-response","8","2.0.0","50479","66311c9747a9466bf5dcf6ba","3","5","null","","","","","","","","","<p style='font-size: 30px;'><strong>Okay</strong></p>","null","neutral_feedback","0","test","1","","","","","","","","","","","","","","","","","","","","","",""
"","","","","","","","","","","","html-button-response","9","2.0.0","58089","66311c9747a9466bf5dcf6ba","3","5","7608","","","","","","","","","<img src= ""rock_img/I_Diorite_07.jpg"" style=""width:8cm; height:5.239999999999999cm;""><p>What type of rock is this?</p>","0","class_response","0","test","2","Andesite","Diorite","07","false","1","3","","","","","","","","","","","","","","","",""
"","","","","","","","","","","","html-keyboard-response","10","2.0.0","58594","66311c9747a9466bf5dcf6ba","3","5","null","","","","","","","","","<p style='font-size: 30px;'><strong>Okay</strong></p>","null","neutral_feedback","0","test","2","","","","","","","","","","","","","","","","","","","","","",""
"","","","","","","","","","","","html-button-response","11","2.0.0","64558","66311c9747a9466bf5dcf6ba","3","5","5964","","","","","","","","","<img src= ""rock_img/I_Andesite_11.jpg"" style=""width:8cm; height:4.92cm;""><p>What type of rock is this?</p>","1","class_response","0","test","3","Basalt","Andesite","11","false","2","1","","","","","","","","","","","","","","","",""
"","","","","","","","","","","","html-keyboard-response","12","2.0.0","65073","66311c9747a9466bf5dcf6ba","3","5","null","","","","","","","","","<p style='font-size: 30px;'><strong>Okay</strong></p>","null","neutral_feedback","0","test","3","","","","","","","","","","","","","","","","","","","","","",""
"","","","","","","","","","","","html-button-response","13","2.0.0","70848","66311c9747a9466bf5dcf6ba","3","5","5773","","","","","","","","","<img src= ""rock_img/I_Basalt_01.jpg"" style=""width:8cm; height:7.880000000000001cm;""><p>What type of rock is this?</p>","2","class_response","0","test","4","Diorite","Basalt","01","false","3","2","","","","","","","","","","","","","","","",""
"","","","","","","","","","","","html-keyboard-response","14","2.0.0","71360","66311c9747a9466bf5dcf6ba","3","5","null","","","","","","","","","<p style='font-size: 30px;'><strong>Okay</strong></p>","null","neutral_feedback","0","test","4","","","","","","","","","","","","","","","","","","","","","",""
"","","","","","","","","","","","html-button-response","15","2.0.0","78413","66311c9747a9466bf5dcf6ba","3","5","7052","","","","","","","","","<img src= ""rock_img/I_Gabbro_01.jpg"" style=""width:8cm; height:5.21cm;""><p>What type of rock is this?</p>","2","class_response","0","test","5","Diorite","Gabbro","01","false","3","4","","","","","","","","","","","","","","","",""
"","","","","","","","","","","","html-keyboard-response","16","2.0.0","78920","66311c9747a9466bf5dcf6ba","3","5","null","","","","","","","","","<p style='font-size: 30px;'><strong>Okay</strong></p>","null","neutral_feedback","0","test","5","","","","","","","","","","","","","","","","","","","","","",""
"","","","","","","","","","","","html-button-response","17","2.0.0","81085","66311c9747a9466bf5dcf6ba","3","5","2164","","","","","","","","","<img src= ""rock_img/I_Obsidian_16.jpg"" style=""width:8cm; height:9.3cm;""><p>What type of rock is this?</p>","4","class_response","0","test","6","Obsidian","Obsidian","16","true","5","5","","","","","","","","","","","","","","","",""
"","","","","","","","","","","","html-keyboard-response","18","2.0.0","81586","66311c9747a9466bf5dcf6ba","3","5","null","","","","","","","","","<p style='font-size: 30px;'><strong>Okay</strong></p>","null","neutral_feedback","0","test","6","","","","","","","","","","","","","","","","","","","","","",""
"","","","","","","","","","","","html-button-response","19","2.0.0","82705","66311c9747a9466bf5dcf6ba","3","5","1117","","","","","","","","","<img src= ""rock_img/I_Obsidian_11.jpg"" style=""width:8cm; height:6.05cm;""><p>What type of rock is this?</p>","4","class_response","0","test","7","Obsidian","Obsidian","11","true","5","5","","","","","","","","","","","","","","","",""
"","","","","","","","","","","","html-keyboard-response","20","2.0.0","83211","66311c9747a9466bf5dcf6ba","3","5","null","","","","","","","","","<p style='font-size: 30px;'><strong>Okay</strong></p>","null","neutral_feedback","0","test","7","","","","","","","","","","","","","","","","","","","","","",""
"","","","","","","","","","","","html-button-response","21","2.0.0","91035","66311c9747a9466bf5dcf6ba","3","5","7822","","","","","","","","","<img src= ""rock_img/I_Diorite_16.jpg"" style=""width:8cm; height:6.74cm;""><p>What type of rock is this?</p>","2","class_response","0","test","8","Diorite","Diorite","16","true","3","3","","","","","","","","","","","","","","","",""
"","","","","","","","","","","","html-keyboard-response","22","2.0.0","91539","66311c9747a9466bf5dcf6ba","3","5","null","","","","","","","","","<p style='font-size: 30px;'><strong>Okay</strong></p>","null","neutral_feedback","0","test","8","","","","","","","","","","","","","","","","","","","","","",""
"","","","","","","","","","","","html-button-response","23","2.0.0","94891","66311c9747a9466bf5dcf6ba","3","5","3351","","","","","","","","","<img src= ""rock_img/I_Diorite_15.jpg"" style=""width:8cm; height:5.54cm;""><p>What type of rock is this?</p>","0","class_response","0","test","9","Andesite","Diorite","15","false","1","3","","","","","","","","","","","","","","","",""
"","","","","","","","","","","","html-keyboard-response","24","2.0.0","95394","66311c9747a9466bf5dcf6ba","3","5","null","","","","","","","","","<p style='font-size: 30px;'><strong>Okay</strong></p>","null","neutral_feedback","0","test","9","","","","","","","","","","","","","","","","","","","","","",""
"","","","","","","","","","","","html-button-response","25","2.0.0","101953","66311c9747a9466bf5dcf6ba","3","5","6558","","","","","","","","","<img src= ""rock_img/I_Diorite_12.jpg"" style=""width:8cm; height:4.88cm;""><p>What type of rock is this?</p>","0","class_response","0","test","10","Andesite","Diorite","12","false","1","3","","","","","","","","","","","","","","","",""
"","","","","","","","","","","","html-keyboard-response","26","2.0.0","102463","66311c9747a9466bf5dcf6ba","3","5","null","","","","","","","","","<p style='font-size: 30px;'><strong>Okay</strong></p>","null","neutral_feedback","0","test","10","","","","","","","","","","","","","","","","","","","","","",""
"","","","","","","","","","","","html-button-response","27","2.0.0","107849","66311c9747a9466bf5dcf6ba","3","5","5386","","","","","","","","","<img src= ""rock_img/I_Andesite_09.jpg"" style=""width:8cm; height:6cm;""><p>What type of rock is this?</p>","1","class_response","0","test","11","Basalt","Andesite","09","false","2","1","","","","","","","","","","","","","","","",""
"","","","","","","","","","","","html-keyboard-response","28","2.0.0","108363","66311c9747a9466bf5dcf6ba","3","5","null","","","","","","","","","<p style='font-size: 30px;'><strong>Okay</strong></p>","null","neutral_feedback","0","test","11","","","","","","","","","","","","","","","","","","","","","",""
"","","","","","","","","","","","html-button-response","29","2.0.0","111218","66311c9747a9466bf5dcf6ba","3","5","2854","","","","","","","","","<img src= ""rock_img/I_Diorite_11.jpg"" style=""width:8cm; height:7.11cm;""><p>What type of rock is this?</p>","2","class_response","0","test","12","Diorite","Diorite","11","true","3","3","","","","","","","","","","","","","","","",""
"","","","","","","","","","","","html-keyboard-response","30","2.0.0","111726","66311c9747a9466bf5dcf6ba","3","5","null","","","","","","","","","<p style='font-size: 30px;'><strong>Okay</strong></p>","null","neutral_feedback","0","test","12","","","","","","","","","","","","","","","","","","","","","",""
"","","","","","","","","","","","html-button-response","31","2.0.0","116162","66311c9747a9466bf5dcf6ba","3","5","4436","","","","","","","","","<img src= ""rock_img/I_Basalt_12.jpg"" style=""width:8cm; height:6.010000000000001cm;""><p>What type of rock is this?</p>","1","class_response","0","test","13","Basalt","Basalt","12","true","2","2","","","","","","","","","","","","","","","",""
"","","","","","","","","","","","html-keyboard-response","32","2.0.0","116663","66311c9747a9466bf5dcf6ba","3","5","null","","","","","","","","","<p style='font-size: 30px;'><strong>Okay</strong></p>","null","neutral_feedback","0","test","13","","","","","","","","","","","","","","","","","","","","","",""
"","","","","","","","","","","","html-button-response","33","2.0.0","117811","66311c9747a9466bf5dcf6ba","3","5","1146","","","","","","","","","<img src= ""rock_img/I_Obsidian_09.jpg"" style=""width:8cm; height:5cm;""><p>What type of rock is this?</p>","4","class_response","0","test","14","Obsidian","Obsidian","09","true","5","5","","","","","","","","","","","","","","","",""
"","","","","","","","","","","","html-keyboard-response","34","2.0.0","118316","66311c9747a9466bf5dcf6ba","3","5","null","","","","","","","","","<p style='font-size: 30px;'><strong>Okay</strong></p>","null","neutral_feedback","0","test","14","","","","","","","","","","","","","","","","","","","","","",""
"","","","","","","","","","","","html-button-response","35","2.0.0","119739","66311c9747a9466bf5dcf6ba","3","5","1422","","","","","","","","","<img src= ""rock_img/I_Obsidian_05.jpg"" style=""width:8cm; height:6.33cm;""><p>What type of rock is this?</p>","4","class_response","0","test","15","Obsidian","Obsidian","05","true","5","5","","","","","","","","","","","","","","","",""
"","","","","","","","","","","","html-keyboard-response","36","2.0.0","120253","66311c9747a9466bf5dcf6ba","3","5","null","","","","","","","","","<p style='font-size: 30px;'><strong>Okay</strong></p>","null","neutral_feedback","0","test","15","","","","","","","","","","","","","","","","","","","","","",""
"","","","","","","","","","","","html-button-response","37","2.0.0","122438","66311c9747a9466bf5dcf6ba","3","5","2185","","","","","","","","","<img src= ""rock_img/I_Pegmatite_03.jpg"" style=""width:8cm; height:5.239999999999999cm;""><p>What type of rock is this?</p>","6","class_response","0","test","16","Peridotite","Pegmatite","03","false","7","6","","","","","","","","","","","","","","","",""
"","","","","","","","","","","","html-keyboard-response","38","2.0.0","122941","66311c9747a9466bf5dcf6ba","3","5","null","","","","","","","","","<p style='font-size: 30px;'><strong>Okay</strong></p>","null","neutral_feedback","0","test","16","","","","","","","","","","","","","","","","","","","","","",""
"","","","","","","","","","","","html-button-response","39","2.0.0","128992","66311c9747a9466bf5dcf6ba","3","5","6049","","","","","","","","","<img src= ""rock_img/I_Gabbro_15.jpg"" style=""width:8cm; height:6.29cm;""><p>What type of rock is this?</p>","5","class_response","0","test","17","Pegmatite","Gabbro","15","false","6","4","","","","","","","","","","","","","","","",""
"","","","","","","","","","","","html-keyboard-response","40","2.0.0","129493","66311c9747a9466bf5dcf6ba","3","5","null","","","","","","","","","<p style='font-size: 30px;'><strong>Okay</strong></p>","null","neutral_feedback","0","test","17","","","","","","","","","","","","","","","","","","","","","",""
"","","","","","","","","","","","html-button-response","41","2.0.0","133020","66311c9747a9466bf5dcf6ba","3","5","3526","","","","","","","","","<img src= ""rock_img/I_Pumice_02.jpg"" style=""width:8cm; height:7.3999999999999995cm;""><p>What type of rock is this?</p>","7","class_response","0","test","18","Pumice","Pumice","02","true","8","8","","","","","","","","","","","","","","","",""
"","","","","","","","","","","","html-keyboard-response","42","2.0.0","133535","66311c9747a9466bf5dcf6ba","3","5","null","","","","","","","","","<p style='font-size: 30px;'><strong>Okay</strong></p>","null","neutral_feedback","0","test","18","","","","","","","","","","","","","","","","","","","","","",""
"","","","","","","","","","","","html-button-response","43","2.0.0","135021","66311c9747a9466bf5dcf6ba","3","5","1485","","","","","","","","","<img src= ""rock_img/I_Pumice_10.jpg"" style=""width:8cm; height:7.609999999999999cm;""><p>What type of rock is this?</p>","2","class_response","0","test","19","Diorite","Pumice","10","false","3","8","","","","","","","","","","","","","","","",""
"","","","","","","","","","","","html-keyboard-response","44","2.0.0","135537","66311c9747a9466bf5dcf6ba","3","5","null","","","","","","","","","<p style='font-size: 30px;'><strong>Okay</strong></p>","null","neutral_feedback","0","test","19","","","","","","","","","","","","","","","","","","","","","",""
"","","","","","","","","","","","html-button-response","45","2.0.0","143213","66311c9747a9466bf5dcf6ba","3","5","7674","","","","","","","","","<img src= ""rock_img/I_Gabbro_05.jpg"" style=""width:8cm; height:6cm;""><p>What type of rock is this?</p>","5","class_response","0","test","20","Pegmatite","Gabbro","05","false","6","4","","","","","","","","","","","","","","","",""
"","","","","","","","","","","","html-keyboard-response","46","2.0.0","143728","66311c9747a9466bf5dcf6ba","3","5","null","","","","","","","","","<p style='font-size: 30px;'><strong>Okay</strong></p>","null","neutral_feedback","0","test","20","","","","","","","","","","","","","","","","","","","","","",""
"","","","","","","","","","","","html-button-response","47","2.0.0","145032","66311c9747a9466bf5dcf6ba","3","5","1303","","","","","","","","","<img src= ""rock_img/I_Peridotite_15.jpg"" style=""width:8cm; height:6cm;""><p>What type of rock is this?</p>","5","class_response","0","test","21","Pegmatite","Peridotite","15","false","6","7","","","","","","","","","","","","","","","",""
"","","","","","","","","","","","html-keyboard-response","48","2.0.0","145538","66311c9747a9466bf5dcf6ba","3","5","null","","","","","","","","","<p style='font-size: 30px;'><strong>Okay</strong></p>","null","neutral_feedback","0","test","21","","","","","","","","","","","","","","","","","","","","","",""
"","","","","","","","","","","","html-button-response","49","2.0.0","152976","66311c9747a9466bf5dcf6ba","3","5","7437","","","","","","","","","<img src= ""rock_img/I_Gabbro_08.jpg"" style=""width:8cm; height:5.15cm;""><p>What type of rock is this?</p>","1","class_response","0","test","22","Basalt","Gabbro","08","false","2","4","","","","","","","","","","","","","","","",""
"","","","","","","","","","","","html-keyboard-response","50","2.0.0","153480","66311c9747a9466bf5dcf6ba","3","5","null","","","","","","","","","<p style='font-size: 30px;'><strong>Okay</strong></p>","null","neutral_feedback","0","test","22","","","","","","","","","","","","","","","","","","","","","",""
"","","","","","","","","","","","html-button-response","51","2.0.0","155285","66311c9747a9466bf5dcf6ba","3","5","1804","","","","","","","","","<img src= ""rock_img/I_Andesite_06.jpg"" style=""width:8cm; height:6.840000000000001cm;""><p>What type of rock is this?</p>","2","class_response","0","test","23","Diorite","Andesite","06","false","3","1","","","","","","","","","","","","","","","",""
"","","","","","","","","","","","html-keyboard-response","52","2.0.0","155786","66311c9747a9466bf5dcf6ba","3","5","null","","","","","","","","","<p style='font-size: 30px;'><strong>Okay</strong></p>","null","neutral_feedback","0","test","23","","","","","","","","","","","","","","","","","","","","","",""
"","","","","","","","","","","","html-button-response","53","2.0.0","159268","66311c9747a9466bf5dcf6ba","3","5","3481","","","","","","","","","<img src= ""rock_img/I_Peridotite_06.jpg"" style=""width:8cm; height:7.53cm;""><p>What type of rock is this?</p>","6","class_response","0","test","24","Peridotite","Peridotite","06","true","7","7","","","","","","","","","","","","","","","",""
"","","","","","","","","","","","html-keyboard-response","54","2.0.0","159780","66311c9747a9466bf5dcf6ba","3","5","null","","","","","","","","","<p style='font-size: 30px;'><strong>Okay</strong></p>","null","neutral_feedback","0","test","24","","","","","","","","","","","","","","","","","","","","","",""
"","","","","","","","","","","","html-button-response","55","2.0.0","161299","66311c9747a9466bf5dcf6ba","3","5","1518","","","","","","","","","<img src= ""rock_img/I_Gabbro_16.jpg"" style=""width:8cm; height:6.44cm;""><p>What type of rock is this?</p>","0","class_response","0","test","25","Andesite","Gabbro","16","false","1","4","","","","","","","","","","","","","","","",""
"","","","","","","","","","","","html-keyboard-response","56","2.0.0","161810","66311c9747a9466bf5dcf6ba","3","5","null","","","","","","","","","<p style='font-size: 30px;'><strong>Okay</strong></p>","null","neutral_feedback","0","test","25","","","","","","","","","","","","","","","","","","","","","",""
"","","","","","","","","","","","html-button-response","57","2.0.0","164635","66311c9747a9466bf5dcf6ba","3","5","2824","","","","","","","","","<img src= ""rock_img/I_Basalt_11.jpg"" style=""width:8cm; height:5.359999999999999cm;""><p>What type of rock is this?</p>","1","class_response","0","test","26","Basalt","Basalt","11","true","2","2","","","","","","","","","","","","","","","",""
"","","","","","","","","","","","html-keyboard-response","58","2.0.0","165143","66311c9747a9466bf5dcf6ba","3","5","null","","","","","","","","","<p style='font-size: 30px;'><strong>Okay</strong></p>","null","neutral_feedback","0","test","26","","","","","","","","","","","","","","","","","","","","","",""
"","","","","","","","","","","","html-button-response","59","2.0.0","169322","66311c9747a9466bf5dcf6ba","3","5","4178","","","","","","","","","<img src= ""rock_img/I_Pumice_06.jpg"" style=""width:8cm; height:6.9399999999999995cm;""><p>What type of rock is this?</p>","7","class_response","0","test","27","Pumice","Pumice","06","true","8","8","","","","","","","","","","","","","","","",""
"","","","","","","","","","","","html-keyboard-response","60","2.0.0","169827","66311c9747a9466bf5dcf6ba","3","5","null","","","","","","","","","<p style='font-size: 30px;'><strong>Okay</strong></p>","null","neutral_feedback","0","test","27","","","","","","","","","","","","","","","","","","","","","",""
"","","","","","","","","","","","html-button-response","61","2.0.0","174027","66311c9747a9466bf5dcf6ba","3","5","4199","","","","","","","","","<img src= ""rock_img/I_Pegmatite_07.jpg"" style=""width:8cm; height:6.7cm;""><p>What type of rock is this?</p>","0","class_response","0","test","28","Andesite","Pegmatite","07","false","1","6","","","","","","","","","","","","","","","",""
"","","","","","","","","","","","html-keyboard-response","62","2.0.0","174536","66311c9747a9466bf5dcf6ba","3","5","null","","","","","","","","","<p style='font-size: 30px;'><strong>Okay</strong></p>","null","neutral_feedback","0","test","28","","","","","","","","","","","","","","","","","","","","","",""
"","","","","","","","","","","","html-button-response","63","2.0.0","183581","66311c9747a9466bf5dcf6ba","3","5","9044","","","","","","","","","<img src= ""rock_img/I_Peridotite_07.jpg"" style=""width:8cm; height:4.83cm;""><p>What type of rock is this?</p>","5","class_response","0","test","29","Pegmatite","Peridotite","07","false","6","7","","","","","","","","","","","","","","","",""
"","","","","","","","","","","","html-keyboard-response","64","2.0.0","184095","66311c9747a9466bf5dcf6ba","3","5","null","","","","","","","","","<p style='font-size: 30px;'><strong>Okay</strong></p>","null","neutral_feedback","0","test","29","","","","","","","","","","","","","","","","","","","","","",""
"","","","","","","","","","","","html-button-response","65","2.0.0","185859","66311c9747a9466bf5dcf6ba","3","5","1763","","","","","","","","","<img src= ""rock_img/I_Basalt_16.jpg"" style=""width:8cm; height:7.659999999999999cm;""><p>What type of rock is this?</p>","0","class_response","0","test","30","Andesite","Basalt","16","false","1","2","","","","","","","","","","","","","","","",""
"","","","","","","","","","","","html-keyboard-response","66","2.0.0","186362","66311c9747a9466bf5dcf6ba","3","5","null","","","","","","","","","<p style='font-size: 30px;'><strong>Okay</strong></p>","null","neutral_feedback","0","test","30","","","","","","","","","","","","","","","","","","","","","",""
"","","","","","","","","","","","html-button-response","67","2.0.0","188052","66311c9747a9466bf5dcf6ba","3","5","1689","","","","","","","","","<img src= ""rock_img/I_Pumice_09.jpg"" style=""width:8cm; height:6.44cm;""><p>What type of rock is this?</p>","2","class_response","0","test","31","Diorite","Pumice","09","false","3","8","","","","","","","","","","","","","","","",""
"","","","","","","","","","","","html-keyboard-response","68","2.0.0","188553","66311c9747a9466bf5dcf6ba","3","5","null","","","","","","","","","<p style='font-size: 30px;'><strong>Okay</strong></p>","null","neutral_feedback","0","test","31","","","","","","","","","","","","","","","","","","","","","",""
"","","","","","","","","","","","html-button-response","69","2.0.0","193092","66311c9747a9466bf5dcf6ba","3","5","4539","","","","","","","","","<img src= ""rock_img/I_Peridotite_10.jpg"" style=""width:8cm; height:5.390000000000001cm;""><p>What type of rock is this?</p>","5","class_response","0","test","32","Pegmatite","Peridotite","10","false","6","7","","","","","","","","","","","","","","","",""
"","","","","","","","","","","","html-keyboard-response","70","2.0.0","193593","66311c9747a9466bf5dcf6ba","3","5","null","","","","","","","","","<p style='font-size: 30px;'><strong>Okay</strong></p>","null","neutral_feedback","0","test","32","","","","","","","","","","","","","","","","","","","","","",""
"","","","","","","","","","","","html-button-response","71","2.0.0","194878","66311c9747a9466bf5dcf6ba","3","5","1284","","","","","","","","","<img src= ""rock_img/I_Peridotite_02.jpg"" style=""width:8cm; height:5.859999999999999cm;""><p>What type of rock is this?</p>","5","class_response","0","test","33","Pegmatite","Peridotite","02","false","6","7","","","","","","","","","","","","","","","",""
"","","","","","","","","","","","html-keyboard-response","72","2.0.0","195385","66311c9747a9466bf5dcf6ba","3","5","null","","","","","","","","","<p style='font-size: 30px;'><strong>Okay</strong></p>","null","neutral_feedback","0","test","33","","","","","","","","","","","","","","","","","","","","","",""
"","","","","","","","","","","","html-button-response","73","2.0.0","198997","66311c9747a9466bf5dcf6ba","3","5","3611","","","","","","","","","<img src= ""rock_img/I_Pegmatite_16.jpg"" style=""width:8cm; height:5.8cm;""><p>What type of rock is this?</p>","3","class_response","0","test","34","Gabbro","Pegmatite","16","false","4","6","","","","","","","","","","","","","","","",""
"","","","","","","","","","","","html-keyboard-response","74","2.0.0","199506","66311c9747a9466bf5dcf6ba","3","5","null","","","","","","","","","<p style='font-size: 30px;'><strong>Okay</strong></p>","null","neutral_feedback","0","test","34","","","","","","","","","","","","","","","","","","","","","",""
"","","","","","","","","","","","html-button-response","75","2.0.0","200798","66311c9747a9466bf5dcf6ba","3","5","1291","","","","","","","","","<img src= ""rock_img/I_Basalt_04.jpg"" style=""width:8cm; height:7.53cm;""><p>What type of rock is this?</p>","1","class_response","0","test","35","Basalt","Basalt","04","true","2","2","","","","","","","","","","","","","","","",""
"","","","","","","","","","","","html-keyboard-response","76","2.0.0","201306","66311c9747a9466bf5dcf6ba","3","5","null","","","","","","","","","<p style='font-size: 30px;'><strong>Okay</strong></p>","null","neutral_feedback","0","test","35","","","","","","","","","","","","","","","","","","","","","",""
"","","","","","","","","","","","html-button-response","77","2.0.0","204221","66311c9747a9466bf5dcf6ba","3","5","2914","","","","","","","","","<img src= ""rock_img/I_Andesite_02.jpg"" style=""width:8cm; height:8.5cm;""><p>What type of rock is this?</p>","7","class_response","0","test","36","Pumice","Andesite","02","false","8","1","","","","","","","","","","","","","","","",""
"","","","","","","","","","","","html-keyboard-response","78","2.0.0","204725","66311c9747a9466bf5dcf6ba","3","5","null","","","","","","","","","<p style='font-size: 30px;'><strong>Okay</strong></p>","null","neutral_feedback","0","test","36","","","","","","","","","","","","","","","","","","","","","",""
"","","","","","","","","","","","html-button-response","79","2.0.0","208639","66311c9747a9466bf5dcf6ba","3","5","3913","","","","","","","","","<img src= ""rock_img/I_Andesite_03.jpg"" style=""width:8cm; height:5.73cm;""><p>What type of rock is this?</p>","5","class_response","0","test","37","Pegmatite","Andesite","03","false","6","1","","","","","","","","","","","","","","","",""
"","","","","","","","","","","","html-keyboard-response","80","2.0.0","209152","66311c9747a9466bf5dcf6ba","3","5","null","","","","","","","","","<p style='font-size: 30px;'><strong>Okay</strong></p>","null","neutral_feedback","0","test","37","","","","","","","","","","","","","","","","","","","","","",""
"","","","","","","","","","","","html-button-response","81","2.0.0","210490","66311c9747a9466bf5dcf6ba","3","5","1338","","","","","","","","","<img src= ""rock_img/I_Gabbro_03.jpg"" style=""width:8cm; height:8.52cm;""><p>What type of rock is this?</p>","2","class_response","0","test","38","Diorite","Gabbro","03","false","3","4","","","","","","","","","","","","","","","",""
"","","","","","","","","","","","html-keyboard-response","82","2.0.0","210994","66311c9747a9466bf5dcf6ba","3","5","null","","","","","","","","","<p style='font-size: 30px;'><strong>Okay</strong></p>","null","neutral_feedback","0","test","38","","","","","","","","","","","","","","","","","","","","","",""
"","","","","","","","","","","","html-button-response","83","2.0.0","212458","66311c9747a9466bf5dcf6ba","3","5","1463","","","","","","","","","<img src= ""rock_img/I_Obsidian_07.jpg"" style=""width:8cm; height:4.76cm;""><p>What type of rock is this?</p>","4","class_response","0","test","39","Obsidian","Obsidian","07","true","5","5","","","","","","","","","","","","","","","",""
"","","","","","","","","","","","html-keyboard-response","84","2.0.0","212973","66311c9747a9466bf5dcf6ba","3","5","null","","","","","","","","","<p style='font-size: 30px;'><strong>Okay</strong></p>","null","neutral_feedback","0","test","39","","","","","","","","","","","","","","","","","","","","","",""
"","","","","","","","","","","","html-button-response","85","2.0.0","215990","66311c9747a9466bf5dcf6ba","3","5","3017","","","","","","","","","<img src= ""rock_img/I_Pumice_13.jpg"" style=""width:8cm; height:8.200000000000001cm;""><p>What type of rock is this?</p>","3","class_response","0","test","40","Gabbro","Pumice","13","false","4","8","","","","","","","","","","","","","","","",""
"","","","","","","","","","","","html-keyboard-response","86","2.0.0","216497","66311c9747a9466bf5dcf6ba","3","5","null","","","","","","","","","<p style='font-size: 30px;'><strong>Okay</strong></p>","null","neutral_feedback","0","test","40","","","","","","","","","","","","","","","","","","","","","",""
"","","","","","","","","","","","html-button-response","87","2.0.0","218163","66311c9747a9466bf5dcf6ba","3","5","1665","","","","","","","","","<img src= ""rock_img/I_Pumice_05.jpg"" style=""width:8cm; height:7.25cm;""><p>What type of rock is this?</p>","5","class_response","0","test","41","Pegmatite","Pumice","05","false","6","8","","","","","","","","","","","","","","","",""
"","","","","","","","","","","","html-keyboard-response","88","2.0.0","218666","66311c9747a9466bf5dcf6ba","3","5","null","","","","","","","","","<p style='font-size: 30px;'><strong>Okay</strong></p>","null","neutral_feedback","0","test","41","","","","","","","","","","","","","","","","","","","","","",""
"","","","","","","","","","","","html-button-response","89","2.0.0","221506","66311c9747a9466bf5dcf6ba","3","5","2839","","","","","","","","","<img src= ""rock_img/I_Pegmatite_11.jpg"" style=""width:8cm; height:8.14cm;""><p>What type of rock is this?</p>","0","class_response","0","test","42","Andesite","Pegmatite","11","false","1","6","","","","","","","","","","","","","","","",""
"","","","","","","","","","","","html-keyboard-response","90","2.0.0","222018","66311c9747a9466bf5dcf6ba","3","5","null","","","","","","","","","<p style='font-size: 30px;'><strong>Okay</strong></p>","null","neutral_feedback","0","test","42","","","","","","","","","","","","","","","","","","","","","",""
"","","","","","","","","","","","html-button-response","91","2.0.0","223774","66311c9747a9466bf5dcf6ba","3","5","1755","","","","","","","","","<img src= ""rock_img/I_Andesite_01.jpg"" style=""width:8cm; height:5.87cm;""><p>What type of rock is this?</p>","1","class_response","0","test","43","Basalt","Andesite","01","false","2","1","","","","","","","","","","","","","","","",""
"","","","","","","","","","","","html-keyboard-response","92","2.0.0","224285","66311c9747a9466bf5dcf6ba","3","5","null","","","","","","","","","<p style='font-size: 30px;'><strong>Okay</strong></p>","null","neutral_feedback","0","test","43","","","","","","","","","","","","","","","","","","","","","",""
"","","","","","","","","","","","html-button-response","93","2.0.0","226372","66311c9747a9466bf5dcf6ba","3","5","2087","","","","","","","","","<img src= ""rock_img/I_Pegmatite_09.jpg"" style=""width:8cm; height:4.03cm;""><p>What type of rock is this?</p>","6","class_response","0","test","44","Peridotite","Pegmatite","09","false","7","6","","","","","","","","","","","","","","","",""
"","","","","","","","","","","","html-keyboard-response","94","2.0.0","226880","66311c9747a9466bf5dcf6ba","3","5","null","","","","","","","","","<p style='font-size: 30px;'><strong>Okay</strong></p>","null","neutral_feedback","0","test","44","","","","","","","","","","","","","","","","","","","","","",""
"","","","","","","","","","","","html-button-response","95","2.0.0","228974","66311c9747a9466bf5dcf6ba","3","5","2093","","","","","","","","","<img src= ""rock_img/I_Pegmatite_12.jpg"" style=""width:8cm; height:5.7cm;""><p>What type of rock is this?</p>","2","class_response","0","test","45","Diorite","Pegmatite","12","false","3","6","","","","","","","","","","","","","","","",""
"","","","","","","","","","","","html-keyboard-response","96","2.0.0","229487","66311c9747a9466bf5dcf6ba","3","5","null","","","","","","","","","<p style='font-size: 30px;'><strong>Okay</strong></p>","null","neutral_feedback","0","test","45","","","","","","","","","","","","","","","","","","","","","",""
"","","","","","","","","","","","html-button-response","97","2.0.0","230404","66311c9747a9466bf5dcf6ba","3","5","915","","","","","","","","","<img src= ""rock_img/I_Basalt_02.jpg"" style=""width:8cm; height:6.45cm;""><p>What type of rock is this?</p>","1","class_response","0","test","46","Basalt","Basalt","02","true","2","2","","","","","","","","","","","","","","","",""
"","","","","","","","","","","","html-keyboard-response","98","2.0.0","230911","66311c9747a9466bf5dcf6ba","3","5","null","","","","","","","","","<p style='font-size: 30px;'><strong>Okay</strong></p>","null","neutral_feedback","0","test","46","","","","","","","","","","","","","","","","","","","","","",""
"","","","","","","","","","","","html-button-response","99","2.0.0","231965","66311c9747a9466bf5dcf6ba","3","5","1053","","","","","","","","","<img src= ""rock_img/I_Obsidian_10.jpg"" style=""width:8cm; height:6.260000000000001cm;""><p>What type of rock is this?</p>","4","class_response","0","test","47","Obsidian","Obsidian","10","true","5","5","","","","","","","","","","","","","","","",""
"","","","","","","","","","","","html-keyboard-response","100","2.0.0","232478","66311c9747a9466bf5dcf6ba","3","5","null","","","","","","","","","<p style='font-size: 30px;'><strong>Okay</strong></p>","null","neutral_feedback","0","test","47","","","","","","","","","","","","","","","","","","","","","",""
"","","","","","","","","","","","html-button-response","101","2.0.0","234379","66311c9747a9466bf5dcf6ba","3","5","1900","","","","","","","","","<img src= ""rock_img/I_Diorite_09.jpg"" style=""width:8cm; height:5.27cm;""><p>What type of rock is this?</p>","2","class_response","0","test","48","Diorite","Diorite","09","true","3","3","","","","","","","","","","","","","","","",""
"","","","","","","","","","","","html-keyboard-response","102","2.0.0","234889","66311c9747a9466bf5dcf6ba","3","5","null","","","","","","","","","<p style='font-size: 30px;'><strong>Okay</strong></p>","null","neutral_feedback","0","test","48","","","","","","","","","","","","","","","","","","","","","",""
"","","","","","","","","","","","instructions","103","2.0.0","249426","66311c9747a9466bf5dcf6ba","3","5","14525","","","","","","","","[{""page_index"":0,""viewing_time"":10408},{""page_index"":1,""viewing_time"":4117}]","","","","","","","","","","","","","","","","","","","","","","","","","","","",""
"","","","","","","","","","","","html-button-response","104","2.0.0","253239","66311c9747a9466bf5dcf6ba","3","5","3812","","","","","","","","","","0","start_train","","","","","","","","","","","","","","","","","","","","","","","","",""
"","","","","","","","","","","","html-button-response","106","2.0.0","255757","66311c9747a9466bf5dcf6ba","3","5","2516","","","","","","","","","<img src= ""rock_img/I_Andesite_04.jpg"" style=""width:8cm; height:5.96cm;""><p>What type of rock is this?</p>","0","class_response","1","train","1","Andesite","Andesite","04","true","1","1","","","","","","","","","","","","","","","",""
"","","","","","","","","","","","html-button-response","107","2.0.0","256800","66311c9747a9466bf5dcf6ba","3","5","1042","","","","","","","","","<img src= rock_img/I_Andesite_04.jpg style=""width:8cm; height:5.96cm;""><p style='font-size: 30px; color: green;'><strong>Correct!</strong></p><p style='font-size: 30px;'><strong>This rock is andesite</strong></p>","0","corr_feedback","1","train","1","","","","","","","","","","","","","","","","","","","","","",""
"","","","","","","","","","","","html-button-response","108","2.0.0","258436","66311c9747a9466bf5dcf6ba","3","5","1634","","","","","","","","","<img src= ""rock_img/I_Basalt_09.jpg"" style=""width:8cm; height:6.2cm;""><p>What type of rock is this?</p>","1","class_response","1","train","2","Basalt","Basalt","09","true","2","2","","","","","","","","","","","","","","","",""
"","","","","","","","","","","","html-button-response","109","2.0.0","259279","66311c9747a9466bf5dcf6ba","3","5","842","","","","","","","","","<img src= rock_img/I_Basalt_09.jpg style=""width:8cm; height:6.2cm;""><p style='font-size: 30px; color: green;'><strong>Correct!</strong></p><p style='font-size: 30px;'><strong>This rock is basalt</strong></p>","0","corr_feedback","1","train","2","","","","","","","","","","","","","","","","","","","","","",""
"","","","","","","","","","","","html-button-response","110","2.0.0","260502","66311c9747a9466bf5dcf6ba","3","5","1223","","","","","","","","","<img src= ""rock_img/I_Andesite_16.jpg"" style=""width:8cm; height:6.010000000000001cm;""><p>What type of rock is this?</p>","2","class_response","1","train","3","Diorite","Andesite","16","false","3","1","","","","","","","","","","","","","","","",""
"","","","","","","","","","","","html-button-response","111","2.0.0","262731","66311c9747a9466bf5dcf6ba","3","5","2228","","","","","","","","","<img src= rock_img/I_Andesite_16.jpg style=""width:8cm; height:6.010000000000001cm;""><p style='font-size: 30px; color: red;'><strong>Incorrect!</strong></p><p style='font-size: 30px;'><strong>This rock is andesite</strong></p>","0","corr_feedback","1","train","3","","","","","","","","","","","","","","","","","","","","","",""
"","","","","","","","","","","","html-button-response","112","2.0.0","265186","66311c9747a9466bf5dcf6ba","3","5","2454","","","","","","","","","<img src= ""rock_img/I_Gabbro_12.jpg"" style=""width:8cm; height:7.800000000000001cm;""><p>What type of rock is this?</p>","1","class_response","1","train","4","Basalt","Gabbro","12","false","2","4","","","","","","","","","","","","","","","",""
"","","","","","","","","","","","html-button-response","113","2.0.0","266712","66311c9747a9466bf5dcf6ba","3","5","1525","","","","","","","","","<img src= rock_img/I_Gabbro_12.jpg style=""width:8cm; height:7.800000000000001cm;""><p style='font-size: 30px; color: red;'><strong>Incorrect!</strong></p><p style='font-size: 30px;'><strong>This rock is gabbro</strong></p>","0","corr_feedback","1","train","4","","","","","","","","","","","","","","","","","","","","","",""
"","","","","","","","","","","","html-button-response","114","2.0.0","267773","66311c9747a9466bf5dcf6ba","3","5","1059","","","","","","","","","<img src= ""rock_img/I_Obsidian_08.jpg"" style=""width:8cm; height:7.39cm;""><p>What type of rock is this?</p>","4","class_response","1","train","5","Obsidian","Obsidian","08","true","5","5","","","","","","","","","","","","","","","",""
"","","","","","","","","","","","html-button-response","115","2.0.0","268433","66311c9747a9466bf5dcf6ba","3","5","660","","","","","","","","","<img src= rock_img/I_Obsidian_08.jpg style=""width:8cm; height:7.39cm;""><p style='font-size: 30px; color: green;'><strong>Correct!</strong></p><p style='font-size: 30px;'><strong>This rock is obsidian</strong></p>","0","corr_feedback","1","train","5","","","","","","","","","","","","","","","","","","","","","",""
"","","","","","","","","","","","html-button-response","116","2.0.0","271669","66311c9747a9466bf5dcf6ba","3","5","3235","","","","","","","","","<img src= ""rock_img/I_Pumice_15.jpg"" style=""width:8cm; height:7.86cm;""><p>What type of rock is this?</p>","7","class_response","1","train","6","Pumice","Pumice","15","true","8","8","","","","","","","","","","","","","","","",""
"","","","","","","","","","","","html-button-response","117","2.0.0","272611","66311c9747a9466bf5dcf6ba","3","5","941","","","","","","","","","<img src= rock_img/I_Pumice_15.jpg style=""width:8cm; height:7.86cm;""><p style='font-size: 30px; color: green;'><strong>Correct!</strong></p><p style='font-size: 30px;'><strong>This rock is pumice</strong></p>","0","corr_feedback","1","train","6","","","","","","","","","","","","","","","","","","","","","",""
"","","","","","","","","","","","html-button-response","118","2.0.0","273791","66311c9747a9466bf5dcf6ba","3","5","1179","","","","","","","","","<img src= ""rock_img/I_Pegmatite_13.jpg"" style=""width:8cm; height:4.95cm;""><p>What type of rock is this?</p>","7","class_response","1","train","7","Pumice","Pegmatite","13","false","8","6","","","","","","","","","","","","","","","",""
"","","","","","","","","","","","html-button-response","119","2.0.0","275155","66311c9747a9466bf5dcf6ba","3","5","1363","","","","","","","","","<img src= rock_img/I_Pegmatite_13.jpg style=""width:8cm; height:4.95cm;""><p style='font-size: 30px; color: red;'><strong>Incorrect!</strong></p><p style='font-size: 30px;'><strong>This rock is pegmatite</strong></p>","0","corr_feedback","1","train","7","","","","","","","","","","","","","","","","","","","","","",""
"","","","","","","","","","","","html-button-response","120","2.0.0","276276","66311c9747a9466bf5dcf6ba","3","5","1120","","","","","","","","","<img src= ""rock_img/I_Diorite_08.jpg"" style=""width:8cm; height:6.37cm;""><p>What type of rock is this?</p>","2","class_response","1","train","8","Diorite","Diorite","08","true","3","3","","","","","","","","","","","","","","","",""
"","","","","","","","","","","","html-button-response","121","2.0.0","277183","66311c9747a9466bf5dcf6ba","3","5","906","","","","","","","","","<img src= rock_img/I_Diorite_08.jpg style=""width:8cm; height:6.37cm;""><p style='font-size: 30px; color: green;'><strong>Correct!</strong></p><p style='font-size: 30px;'><strong>This rock is diorite</strong></p>","0","corr_feedback","1","train","8","","","","","","","","","","","","","","","","","","","","","",""
"","","","","","","","","","","","html-button-response","122","2.0.0","279353","66311c9747a9466bf5dcf6ba","3","5","2168","","","","","","","","","<img src= ""rock_img/I_Peridotite_12.jpg"" style=""width:8cm; height:4.54cm;""><p>What type of rock is this?</p>","6","class_response","1","train","9","Peridotite","Peridotite","12","true","7","7","","","","","","","","","","","","","","","",""
"","","","","","","","","","","","html-button-response","123","2.0.0","280291","66311c9747a9466bf5dcf6ba","3","5","937","","","","","","","","","<img src= rock_img/I_Peridotite_12.jpg style=""width:8cm; height:4.54cm;""><p style='font-size: 30px; color: green;'><strong>Correct!</strong></p><p style='font-size: 30px;'><strong>This rock is peridotite</strong></p>","0","corr_feedback","1","train","9","","","","","","","","","","","","","","","","","","","","","",""
"","","","","","","","","","","","html-button-response","124","2.0.0","281927","66311c9747a9466bf5dcf6ba","3","5","1635","","","","","","","","","<img src= ""rock_img/I_Gabbro_13.jpg"" style=""width:8cm; height:5.08cm;""><p>What type of rock is this?</p>","0","class_response","1","train","10","Andesite","Gabbro","13","false","1","4","","","","","","","","","","","","","","","",""
"","","","","","","","","","","","html-button-response","125","2.0.0","283137","66311c9747a9466bf5dcf6ba","3","5","1208","","","","","","","","","<img src= rock_img/I_Gabbro_13.jpg style=""width:8cm; height:5.08cm;""><p style='font-size: 30px; color: red;'><strong>Incorrect!</strong></p><p style='font-size: 30px;'><strong>This rock is gabbro</strong></p>","0","corr_feedback","1","train","10","","","","","","","","","","","","","","","","","","","","","",""
"","","","","","","","","","","","html-button-response","126","2.0.0","285434","66311c9747a9466bf5dcf6ba","3","5","2297","","","","","","","","","<img src= ""rock_img/I_Pegmatite_10.jpg"" style=""width:8cm; height:4.16cm;""><p>What type of rock is this?</p>","6","class_response","1","train","11","Peridotite","Pegmatite","10","false","7","6","","","","","","","","","","","","","","","",""
"","","","","","","","","","","","html-button-response","127","2.0.0","286554","66311c9747a9466bf5dcf6ba","3","5","1119","","","","","","","","","<img src= rock_img/I_Pegmatite_10.jpg style=""width:8cm; height:4.16cm;""><p style='font-size: 30px; color: red;'><strong>Incorrect!</strong></p><p style='font-size: 30px;'><strong>This rock is pegmatite</strong></p>","0","corr_feedback","1","train","11","","","","","","","","","","","","","","","","","","","","","",""
"","","","","","","","","","","","html-button-response","128","2.0.0","289970","66311c9747a9466bf5dcf6ba","3","5","3415","","","","","","","","","<img src= ""rock_img/I_Basalt_10.jpg"" style=""width:8cm; height:5.85cm;""><p>What type of rock is this?</p>","3","class_response","1","train","12","Gabbro","Basalt","10","false","4","2","","","","","","","","","","","","","","","",""
"","","","","","","","","","","","html-button-response","129","2.0.0","290919","66311c9747a9466bf5dcf6ba","3","5","949","","","","","","","","","<img src= rock_img/I_Basalt_10.jpg style=""width:8cm; height:5.85cm;""><p style='font-size: 30px; color: red;'><strong>Incorrect!</strong></p><p style='font-size: 30px;'><strong>This rock is basalt</strong></p>","0","corr_feedback","1","train","12","","","","","","","","","","","","","","","","","","","","","",""
"","","","","","","","","","","","instructions","130","2.0.0","412335","66311c9747a9466bf5dcf6ba","3","5","121415","","","","","","","","[{""page_index"":0,""viewing_time"":91577},{""page_index"":1,""viewing_time"":15421},{""page_index"":2,""viewing_time"":9155},{""page_index"":3,""viewing_time"":5262}]","","","","","","","","","","","","","","","","","","","","","","","","","","","",""
"","","","","","","","","","","","html-button-response","131","2.0.0","413380","66311c9747a9466bf5dcf6ba","3","5","1044","","","","","","","","","","0","start_train","","","","","","","","","","","","","","","","","","","","","","","","",""
"","","","","","","","","","","","html-button-response","132","2.0.0","419473","66311c9747a9466bf5dcf6ba","3","5","","","","","","","","","","","","cat_selection","1","train","1","","","","","","","6","7","6091.79999999702","Pegmatite","Peridotite","[0.1824324324324324,0.07432432432432431,0.10135135135135133,0.1824324324324324,0.020270270270270268,0.1824324324324324,0.12837837837837837,0.12837837837837837]","[0.2584081567067259,0.04893284397383774,0.16885368183216404,0.16587593383375612,0.05695498596954864,null,0.258974817706423,0.04199957997754466]","","","","","","","","",""
"","","","","","","","","","","","paired-cat-display","133","1.0.0","529225","66311c9747a9466bf5dcf6ba","3","5","","","","","","","","","","","","paired_cat_display","1","train","1","","","","","","","","","17576.39999999851","","","","","Has irregular black/dark colored marks across the rock's surface","Often a shade of green, usually has a grainy texture and few varying colors other than the aforementioned green","92173.20000000298","","","","","",""
"","","","","","","","","","","","html-button-response","134","2.0.0","531925","66311c9747a9466bf5dcf6ba","3","5","","","","","","","","","","","","cat_selection","1","train","2","","","","","","","1","3","2698.89999999851","Andesite","Diorite","[0.1824324324324324,0.07432432432432431,0.10135135135135133,0.1824324324324324,0.020270270270270268,0.1824324324324324,0.12837837837837837,0.12837837837837837]","[null,0.36618997258823494,0.14790688188166565,0.05448154164644045,0.059552545971136045,0.14852243731992348,0.05783289903251094,0.16551372156008848]","","","","","","","","",""
"","","","","","","","","","","","paired-cat-display","135","1.0.0","687948","66311c9747a9466bf5dcf6ba","3","5","","","","","","","","","","","","paired_cat_display","1","train","2","","","","","","","","","12402","","","","","","","143619.20000000298","Surface resembles multiple pebbles in concrete, color is usually desaturated","Has scattered black marks all over the rock's surface, somewhat resembling 'cookies and cream' ice cream, often in a pale color","","","",""
"","","","","","","","","","","","html-button-response","136","2.0.0","689621","66311c9747a9466bf5dcf6ba","3","5","","","","","","","","","","","","cat_selection","1","train","3","","","","","","","1","2","1672","Andesite","Basalt","[0.1824324324324324,0.07432432432432431,0.10135135135135133,0.1824324324324324,0.020270270270270268,0.1824324324324324,0.12837837837837837,0.12837837837837837]","[null,0.36618997258823494,0.14790688188166565,0.05448154164644045,0.059552545971136045,0.14852243731992348,0.05783289903251094,0.16551372156008848]","","","","","","","","",""
"","","","","","","","","","","","paired-cat-display","137","1.0.0","759558","66311c9747a9466bf5dcf6ba","3","5","","","","","","","","","","","","paired_cat_display","1","train","3","","","","","","","","","6058.79999999702","","","","","","","63875.79999999702","Surface resembles multiple pebbles caught in concrete, usually a desaturated color","","Surface appears chalky, and mostly monotone. Usually dark colored.","","",""
"","","","","","","","","","","","instructions","138","2.0.0","774238","66311c9747a9466bf5dcf6ba","3","5","14680","","","","","","","","[{""page_index"":0,""viewing_time"":3995},{""page_index"":1,""viewing_time"":10685}]","","","","","","","","","","","","","","","","","","","","","","","","","","","",""
"","","","","","","","","","","","html-button-response","139","2.0.0","775866","66311c9747a9466bf5dcf6ba","3","5","1627","","","","","","","","","","0","start_test","","","","","","","","","","","","","","","","","","","","","","","","",""
"","","","","","","","","","","","html-button-response","140","2.0.0","786289","66311c9747a9466bf5dcf6ba","3","5","10421","","","","","","","","","<img src= ""rock_img/I_Pegmatite_12.jpg"" style=""width:8cm; height:5.7cm;""><p>What type of rock is this?</p>","7","class_response","1","test","1","Pumice","Pegmatite","12","false","8","6","","","","","","","","","","","","","","","",""
"","","","","","","","","","","","html-keyboard-response","141","2.0.0","786794","66311c9747a9466bf5dcf6ba","3","5","null","","","","","","","","","<p style='font-size: 30px;'><strong>Okay</strong></p>","null","neutral_feedback","1","test","1","","","","","","","","","","","","","","","","","","","","","",""
"","","","","","","","","","","","html-button-response","142","2.0.0","791856","66311c9747a9466bf5dcf6ba","3","5","5060","","","","","","","","","<img src= ""rock_img/I_Pegmatite_03.jpg"" style=""width:8cm; height:5.239999999999999cm;""><p>What type of rock is this?</p>","6","class_response","1","test","2","Peridotite","Pegmatite","03","false","7","6","","","","","","","","","","","","","","","",""
"","","","","","","","","","","","html-keyboard-response","143","2.0.0","792363","66311c9747a9466bf5dcf6ba","3","5","null","","","","","","","","","<p style='font-size: 30px;'><strong>Okay</strong></p>","null","neutral_feedback","1","test","2","","","","","","","","","","","","","","","","","","","","","",""
"","","","","","","","","","","","html-button-response","144","2.0.0","794717","66311c9747a9466bf5dcf6ba","3","5","2353","","","","","","","","","<img src= ""rock_img/I_Gabbro_16.jpg"" style=""width:8cm; height:6.44cm;""><p>What type of rock is this?</p>","1","class_response","1","test","3","Basalt","Gabbro","16","false","2","4","","","","","","","","","","","","","","","",""
"","","","","","","","","","","","html-keyboard-response","145","2.0.0","795219","66311c9747a9466bf5dcf6ba","3","5","null","","","","","","","","","<p style='font-size: 30px;'><strong>Okay</strong></p>","null","neutral_feedback","1","test","3","","","","","","","","","","","","","","","","","","","","","",""
"","","","","","","","","","","","html-button-response","146","2.0.0","824448","66311c9747a9466bf5dcf6ba","3","5","29227","","","","","","","","","<img src= ""rock_img/I_Peridotite_07.jpg"" style=""width:8cm; height:4.83cm;""><p>What type of rock is this?</p>","3","class_response","1","test","4","Gabbro","Peridotite","07","false","4","7","","","","","","","","","","","","","","","",""
"","","","","","","","","","","","html-keyboard-response","147","2.0.0","824959","66311c9747a9466bf5dcf6ba","3","5","null","","","","","","","","","<p style='font-size: 30px;'><strong>Okay</strong></p>","null","neutral_feedback","1","test","4","","","","","","","","","","","","","","","","","","","","","",""
"","","","","","","","","","","","html-button-response","148","2.0.0","831713","66311c9747a9466bf5dcf6ba","3","5","6753","","","","","","","","","<img src= ""rock_img/I_Andesite_06.jpg"" style=""width:8cm; height:6.840000000000001cm;""><p>What type of rock is this?</p>","3","class_response","1","test","5","Gabbro","Andesite","06","false","4","1","","","","","","","","","","","","","","","",""
"","","","","","","","","","","","html-keyboard-response","149","2.0.0","832221","66311c9747a9466bf5dcf6ba","3","5","null","","","","","","","","","<p style='font-size: 30px;'><strong>Okay</strong></p>","null","neutral_feedback","1","test","5","","","","","","","","","","","","","","","","","","","","","",""
"","","","","","","","","","","","html-button-response","150","2.0.0","835674","66311c9747a9466bf5dcf6ba","3","5","3452","","","","","","","","","<img src= ""rock_img/I_Pumice_06.jpg"" style=""width:8cm; height:6.9399999999999995cm;""><p>What type of rock is this?</p>","1","class_response","1","test","6","Basalt","Pumice","06","false","2","8","","","","","","","","","","","","","","","",""
"","","","","","","","","","","","html-keyboard-response","151","2.0.0","836185","66311c9747a9466bf5dcf6ba","3","5","null","","","","","","","","","<p style='font-size: 30px;'><strong>Okay</strong></p>","null","neutral_feedback","1","test","6","","","","","","","","","","","","","","","","","","","","","",""
"","","","","","","","","","","","html-button-response","152","2.0.0","837964","66311c9747a9466bf5dcf6ba","3","5","1778","","","","","","","","","<img src= ""rock_img/I_Andesite_11.jpg"" style=""width:8cm; height:4.92cm;""><p>What type of rock is this?</p>","3","class_response","1","test","7","Gabbro","Andesite","11","false","4","1","","","","","","","","","","","","","","","",""
"","","","","","","","","","","","html-keyboard-response","153","2.0.0","838475","66311c9747a9466bf5dcf6ba","3","5","null","","","","","","","","","<p style='font-size: 30px;'><strong>Okay</strong></p>","null","neutral_feedback","1","test","7","","","","","","","","","","","","","","","","","","","","","",""
"","","","","","","","","","","","html-button-response","154","2.0.0","848396","66311c9747a9466bf5dcf6ba","3","5","9921","","","","","","","","","<img src= ""rock_img/I_Peridotite_06.jpg"" style=""width:8cm; height:7.53cm;""><p>What type of rock is this?</p>","6","class_response","1","test","8","Peridotite","Peridotite","06","true","7","7","","","","","","","","","","","","","","","",""
"","","","","","","","","","","","html-keyboard-response","155","2.0.0","848898","66311c9747a9466bf5dcf6ba","3","5","null","","","","","","","","","<p style='font-size: 30px;'><strong>Okay</strong></p>","null","neutral_feedback","1","test","8","","","","","","","","","","","","","","","","","","","","","",""
"","","","","","","","","","","","html-button-response","156","2.0.0","850229","66311c9747a9466bf5dcf6ba","3","5","1330","","","","","","","","","<img src= ""rock_img/I_Obsidian_05.jpg"" style=""width:8cm; height:6.33cm;""><p>What type of rock is this?</p>","4","class_response","1","test","9","Obsidian","Obsidian","05","true","5","5","","","","","","","","","","","","","","","",""
"","","","","","","","","","","","html-keyboard-response","157","2.0.0","850734","66311c9747a9466bf5dcf6ba","3","5","null","","","","","","","","","<p style='font-size: 30px;'><strong>Okay</strong></p>","null","neutral_feedback","1","test","9","","","","","","","","","","","","","","","","","","","","","",""
"","","","","","","","","","","","html-button-response","158","2.0.0","855949","66311c9747a9466bf5dcf6ba","3","5","5213","","","","","","","","","<img src= ""rock_img/I_Andesite_01.jpg"" style=""width:8cm; height:5.87cm;""><p>What type of rock is this?</p>","1","class_response","1","test","10","Basalt","Andesite","01","false","2","1","","","","","","","","","","","","","","","",""
"","","","","","","","","","","","html-keyboard-response","159","2.0.0","856451","66311c9747a9466bf5dcf6ba","3","5","null","","","","","","","","","<p style='font-size: 30px;'><strong>Okay</strong></p>","null","neutral_feedback","1","test","10","","","","","","","","","","","","","","","","","","","","","",""
"","","","","","","","","","","","html-button-response","160","2.0.0","858117","66311c9747a9466bf5dcf6ba","3","5","1665","","","","","","","","","<img src= ""rock_img/I_Diorite_07.jpg"" style=""width:8cm; height:5.239999999999999cm;""><p>What type of rock is this?</p>","2","class_response","1","test","11","Diorite","Diorite","07","true","3","3","","","","","","","","","","","","","","","",""
"","","","","","","","","","","","html-keyboard-response","161","2.0.0","858618","66311c9747a9466bf5dcf6ba","3","5","null","","","","","","","","","<p style='font-size: 30px;'><strong>Okay</strong></p>","null","neutral_feedback","1","test","11","","","","","","","","","","","","","","","","","","","","","",""
"","","","","","","","","","","","html-button-response","162","2.0.0","859985","66311c9747a9466bf5dcf6ba","3","5","1365","","","","","","","","","<img src= ""rock_img/I_Diorite_16.jpg"" style=""width:8cm; height:6.74cm;""><p>What type of rock is this?</p>","2","class_response","1","test","12","Diorite","Diorite","16","true","3","3","","","","","","","","","","","","","","","",""
"","","","","","","","","","","","html-keyboard-response","163","2.0.0","860500","66311c9747a9466bf5dcf6ba","3","5","null","","","","","","","","","<p style='font-size: 30px;'><strong>Okay</strong></p>","null","neutral_feedback","1","test","12","","","","","","","","","","","","","","","","","","","","","",""
"","","","","","","","","","","","html-button-response","164","2.0.0","867507","66311c9747a9466bf5dcf6ba","3","5","7006","","","","","","","","","<img src= ""rock_img/I_Gabbro_01.jpg"" style=""width:8cm; height:5.21cm;""><p>What type of rock is this?</p>","3","class_response","1","test","13","Gabbro","Gabbro","01","true","4","4","","","","","","","","","","","","","","","",""
"","","","","","","","","","","","html-keyboard-response","165","2.0.0","868015","66311c9747a9466bf5dcf6ba","3","5","null","","","","","","","","","<p style='font-size: 30px;'><strong>Okay</strong></p>","null","neutral_feedback","1","test","13","","","","","","","","","","","","","","","","","","","","","",""
"","","","","","","","","","","","html-button-response","166","2.0.0","869186","66311c9747a9466bf5dcf6ba","3","5","1170","","","","","","","","","<img src= ""rock_img/I_Basalt_12.jpg"" style=""width:8cm; height:6.010000000000001cm;""><p>What type of rock is this?</p>","1","class_response","1","test","14","Basalt","Basalt","12","true","2","2","","","","","","","","","","","","","","","",""
"","","","","","","","","","","","html-keyboard-response","167","2.0.0","869701","66311c9747a9466bf5dcf6ba","3","5","null","","","","","","","","","<p style='font-size: 30px;'><strong>Okay</strong></p>","null","neutral_feedback","1","test","14","","","","","","","","","","","","","","","","","","","","","",""
"","","","","","","","","","","","html-button-response","168","2.0.0","888199","66311c9747a9466bf5dcf6ba","3","5","18497","","","","","","","","","<img src= ""rock_img/I_Pegmatite_11.jpg"" style=""width:8cm; height:8.14cm;""><p>What type of rock is this?</p>","5","class_response","1","test","15","Pegmatite","Pegmatite","11","true","6","6","","","","","","","","","","","","","","","",""
"","","","","","","","","","","","html-keyboard-response","169","2.0.0","888702","66311c9747a9466bf5dcf6ba","3","5","null","","","","","","","","","<p style='font-size: 30px;'><strong>Okay</strong></p>","null","neutral_feedback","1","test","15","","","","","","","","","","","","","","","","","","","","","",""
"","","","","","","","","","","","html-button-response","170","2.0.0","889812","66311c9747a9466bf5dcf6ba","3","5","1108","","","","","","","","","<img src= ""rock_img/I_Peridotite_16.jpg"" style=""width:8cm; height:6.989999999999999cm;""><p>What type of rock is this?</p>","6","class_response","1","test","16","Peridotite","Peridotite","16","true","7","7","","","","","","","","","","","","","","","",""
"","","","","","","","","","","","html-keyboard-response","171","2.0.0","890318","66311c9747a9466bf5dcf6ba","3","5","null","","","","","","","","","<p style='font-size: 30px;'><strong>Okay</strong></p>","null","neutral_feedback","1","test","16","","","","","","","","","","","","","","","","","","","","","",""
"","","","","","","","","","","","html-button-response","172","2.0.0","891313","66311c9747a9466bf5dcf6ba","3","5","994","","","","","","","","","<img src= ""rock_img/I_Obsidian_16.jpg"" style=""width:8cm; height:9.3cm;""><p>What type of rock is this?</p>","4","class_response","1","test","17","Obsidian","Obsidian","16","true","5","5","","","","","","","","","","","","","","","",""
"","","","","","","","","","","","html-keyboard-response","173","2.0.0","891815","66311c9747a9466bf5dcf6ba","3","5","null","","","","","","","","","<p style='font-size: 30px;'><strong>Okay</strong></p>","null","neutral_feedback","1","test","17","","","","","","","","","","","","","","","","","","","","","",""
"","","","","","","","","","","","html-button-response","174","2.0.0","910494","66311c9747a9466bf5dcf6ba","3","5","18677","","","","","","","","","<img src= ""rock_img/I_Diorite_15.jpg"" style=""width:8cm; height:5.54cm;""><p>What type of rock is this?</p>","3","class_response","1","test","18","Gabbro","Diorite","15","false","4","3","","","","","","","","","","","","","","","",""
"","","","","","","","","","","","html-keyboard-response","175","2.0.0","910996","66311c9747a9466bf5dcf6ba","3","5","null","","","","","","","","","<p style='font-size: 30px;'><strong>Okay</strong></p>","null","neutral_feedback","1","test","18","","","","","","","","","","","","","","","","","","","","","",""
"","","","","","","","","","","","html-button-response","176","2.0.0","912213","66311c9747a9466bf5dcf6ba","3","5","1215","","","","","","","","","<img src= ""rock_img/I_Basalt_16.jpg"" style=""width:8cm; height:7.659999999999999cm;""><p>What type of rock is this?</p>","1","class_response","1","test","19","Basalt","Basalt","16","true","2","2","","","","","","","","","","","","","","","",""
"","","","","","","","","","","","html-keyboard-response","177","2.0.0","912714","66311c9747a9466bf5dcf6ba","3","5","null","","","","","","","","","<p style='font-size: 30px;'><strong>Okay</strong></p>","null","neutral_feedback","1","test","19","","","","","","","","","","","","","","","","","","","","","",""
"","","","","","","","","","","","html-button-response","178","2.0.0","923768","66311c9747a9466bf5dcf6ba","3","5","11052","","","","","","","","","<img src= ""rock_img/I_Gabbro_08.jpg"" style=""width:8cm; height:5.15cm;""><p>What type of rock is this?</p>","7","class_response","1","test","20","Pumice","Gabbro","08","false","8","4","","","","","","","","","","","","","","","",""
"","","","","","","","","","","","html-keyboard-response","179","2.0.0","924277","66311c9747a9466bf5dcf6ba","3","5","null","","","","","","","","","<p style='font-size: 30px;'><strong>Okay</strong></p>","null","neutral_feedback","1","test","20","","","","","","","","","","","","","","","","","","","","","",""
"","","","","","","","","","","","html-button-response","180","2.0.0","926435","66311c9747a9466bf5dcf6ba","3","5","2157","","","","","","","","","<img src= ""rock_img/I_Peridotite_10.jpg"" style=""width:8cm; height:5.390000000000001cm;""><p>What type of rock is this?</p>","6","class_response","1","test","21","Peridotite","Peridotite","10","true","7","7","","","","","","","","","","","","","","","",""
"","","","","","","","","","","","html-keyboard-response","181","2.0.0","926936","66311c9747a9466bf5dcf6ba","3","5","null","","","","","","","","","<p style='font-size: 30px;'><strong>Okay</strong></p>","null","neutral_feedback","1","test","21","","","","","","","","","","","","","","","","","","","","","",""
"","","","","","","","","","","","html-button-response","182","2.0.0","930069","66311c9747a9466bf5dcf6ba","3","5","3132","","","","","","","","","<img src= ""rock_img/I_Basalt_11.jpg"" style=""width:8cm; height:5.359999999999999cm;""><p>What type of rock is this?</p>","1","class_response","1","test","22","Basalt","Basalt","11","true","2","2","","","","","","","","","","","","","","","",""
"","","","","","","","","","","","html-keyboard-response","183","2.0.0","930569","66311c9747a9466bf5dcf6ba","3","5","null","","","","","","","","","<p style='font-size: 30px;'><strong>Okay</strong></p>","null","neutral_feedback","1","test","22","","","","","","","","","","","","","","","","","","","","","",""
"","","","","","","","","","","","html-button-response","184","2.0.0","931740","66311c9747a9466bf5dcf6ba","3","5","1170","","","","","","","","","<img src= ""rock_img/I_Obsidian_11.jpg"" style=""width:8cm; height:6.05cm;""><p>What type of rock is this?</p>","4","class_response","1","test","23","Obsidian","Obsidian","11","true","5","5","","","","","","","","","","","","","","","",""
"","","","","","","","","","","","html-keyboard-response","185","2.0.0","932247","66311c9747a9466bf5dcf6ba","3","5","null","","","","","","","","","<p style='font-size: 30px;'><strong>Okay</strong></p>","null","neutral_feedback","1","test","23","","","","","","","","","","","","","","","","","","","","","",""
"","","","","","","","","","","","html-button-response","186","2.0.0","933678","66311c9747a9466bf5dcf6ba","3","5","1429","","","","","","","","","<img src= ""rock_img/I_Pegmatite_07.jpg"" style=""width:8cm; height:6.7cm;""><p>What type of rock is this?</p>","5","class_response","1","test","24","Pegmatite","Pegmatite","07","true","6","6","","","","","","","","","","","","","","","",""
"","","","","","","","","","","","html-keyboard-response","187","2.0.0","934187","66311c9747a9466bf5dcf6ba","3","5","null","","","","","","","","","<p style='font-size: 30px;'><strong>Okay</strong></p>","null","neutral_feedback","1","test","24","","","","","","","","","","","","","","","","","","","","","",""
"","","","","","","","","","","","html-button-response","188","2.0.0","942704","66311c9747a9466bf5dcf6ba","3","5","8515","","","","","","","","","<img src= ""rock_img/I_Andesite_02.jpg"" style=""width:8cm; height:8.5cm;""><p>What type of rock is this?</p>","0","class_response","1","test","25","Andesite","Andesite","02","true","1","1","","","","","","","","","","","","","","","",""
"","","","","","","","","","","","html-keyboard-response","189","2.0.0","943209","66311c9747a9466bf5dcf6ba","3","5","null","","","","","","","","","<p style='font-size: 30px;'><strong>Okay</strong></p>","null","neutral_feedback","1","test","25","","","","","","","","","","","","","","","","","","","","","",""
"","","","","","","","","","","","html-button-response","190","2.0.0","944552","66311c9747a9466bf5dcf6ba","3","5","1342","","","","","","","","","<img src= ""rock_img/I_Diorite_11.jpg"" style=""width:8cm; height:7.11cm;""><p>What type of rock is this?</p>","2","class_response","1","test","26","Diorite","Diorite","11","true","3","3","","","","","","","","","","","","","","","",""
"","","","","","","","","","","","html-keyboard-response","191","2.0.0","945054","66311c9747a9466bf5dcf6ba","3","5","null","","","","","","","","","<p style='font-size: 30px;'><strong>Okay</strong></p>","null","neutral_feedback","1","test","26","","","","","","","","","","","","","","","","","","","","","",""
"","","","","","","","","","","","html-button-response","192","2.0.0","959024","66311c9747a9466bf5dcf6ba","3","5","13969","","","","","","","","","<img src= ""rock_img/I_Gabbro_15.jpg"" style=""width:8cm; height:6.29cm;""><p>What type of rock is this?</p>","0","class_response","1","test","27","Andesite","Gabbro","15","false","1","4","","","","","","","","","","","","","","","",""
"","","","","","","","","","","","html-keyboard-response","193","2.0.0","959528","66311c9747a9466bf5dcf6ba","3","5","null","","","","","","","","","<p style='font-size: 30px;'><strong>Okay</strong></p>","null","neutral_feedback","1","test","27","","","","","","","","","","","","","","","","","","","","","",""
"","","","","","","","","","","","html-button-response","194","2.0.0","961850","66311c9747a9466bf5dcf6ba","3","5","2321","","","","","","","","","<img src= ""rock_img/I_Peridotite_15.jpg"" style=""width:8cm; height:6cm;""><p>What type of rock is this?</p>","6","class_response","1","test","28","Peridotite","Peridotite","15","true","7","7","","","","","","","","","","","","","","","",""
"","","","","","","","","","","","html-keyboard-response","195","2.0.0","962351","66311c9747a9466bf5dcf6ba","3","5","null","","","","","","","","","<p style='font-size: 30px;'><strong>Okay</strong></p>","null","neutral_feedback","1","test","28","","","","","","","","","","","","","","","","","","","","","",""
"","","","","","","","","","","","html-button-response","196","2.0.0","968013","66311c9747a9466bf5dcf6ba","3","5","5661","","","","","","","","","<img src= ""rock_img/I_Pumice_10.jpg"" style=""width:8cm; height:7.609999999999999cm;""><p>What type of rock is this?</p>","7","class_response","1","test","29","Pumice","Pumice","10","true","8","8","","","","","","","","","","","","","","","",""
"","","","","","","","","","","","html-keyboard-response","197","2.0.0","968517","66311c9747a9466bf5dcf6ba","3","5","null","","","","","","","","","<p style='font-size: 30px;'><strong>Okay</strong></p>","null","neutral_feedback","1","test","29","","","","","","","","","","","","","","","","","","","","","",""
"","","","","","","","","","","","html-button-response","198","2.0.0","970100","66311c9747a9466bf5dcf6ba","3","5","1581","","","","","","","","","<img src= ""rock_img/I_Pegmatite_16.jpg"" style=""width:8cm; height:5.8cm;""><p>What type of rock is this?</p>","5","class_response","1","test","30","Pegmatite","Pegmatite","16","true","6","6","","","","","","","","","","","","","","","",""
"","","","","","","","","","","","html-keyboard-response","199","2.0.0","970613","66311c9747a9466bf5dcf6ba","3","5","null","","","","","","","","","<p style='font-size: 30px;'><strong>Okay</strong></p>","null","neutral_feedback","1","test","30","","","","","","","","","","","","","","","","","","","","","",""
"","","","","","","","","","","","html-button-response","200","2.0.0","974648","66311c9747a9466bf5dcf6ba","3","5","4034","","","","","","","","","<img src= ""rock_img/I_Pumice_13.jpg"" style=""width:8cm; height:8.200000000000001cm;""><p>What type of rock is this?</p>","1","class_response","1","test","31","Basalt","Pumice","13","false","2","8","","","","","","","","","","","","","","","",""
"","","","","","","","","","","","html-keyboard-response","201","2.0.0","975159","66311c9747a9466bf5dcf6ba","3","5","null","","","","","","","","","<p style='font-size: 30px;'><strong>Okay</strong></p>","null","neutral_feedback","1","test","31","","","","","","","","","","","","","","","","","","","","","",""
"","","","","","","","","","","","html-button-response","202","2.0.0","977336","66311c9747a9466bf5dcf6ba","3","5","2176","","","","","","","","","<img src= ""rock_img/I_Gabbro_03.jpg"" style=""width:8cm; height:8.52cm;""><p>What type of rock is this?</p>","2","class_response","1","test","32","Diorite","Gabbro","03","false","3","4","","","","","","","","","","","","","","","",""
"","","","","","","","","","","","html-keyboard-response","203","2.0.0","977841","66311c9747a9466bf5dcf6ba","3","5","null","","","","","","","","","<p style='font-size: 30px;'><strong>Okay</strong></p>","null","neutral_feedback","1","test","32","","","","","","","","","","","","","","","","","","","","","",""
"","","","","","","","","","","","html-button-response","204","2.0.0","978851","66311c9747a9466bf5dcf6ba","3","5","1009","","","","","","","","","<img src= ""rock_img/I_Obsidian_09.jpg"" style=""width:8cm; height:5cm;""><p>What type of rock is this?</p>","4","class_response","1","test","33","Obsidian","Obsidian","09","true","5","5","","","","","","","","","","","","","","","",""
"","","","","","","","","","","","html-keyboard-response","205","2.0.0","979365","66311c9747a9466bf5dcf6ba","3","5","null","","","","","","","","","<p style='font-size: 30px;'><strong>Okay</strong></p>","null","neutral_feedback","1","test","33","","","","","","","","","","","","","","","","","","","","","",""
"","","","","","","","","","","","html-button-response","206","2.0.0","998125","66311c9747a9466bf5dcf6ba","3","5","18759","","","","","","","","","<img src= ""rock_img/I_Diorite_12.jpg"" style=""width:8cm; height:4.88cm;""><p>What type of rock is this?</p>","3","class_response","1","test","34","Gabbro","Diorite","12","false","4","3","","","","","","","","","","","","","","","",""
"","","","","","","","","","","","html-keyboard-response","207","2.0.0","998632","66311c9747a9466bf5dcf6ba","3","5","null","","","","","","","","","<p style='font-size: 30px;'><strong>Okay</strong></p>","null","neutral_feedback","1","test","34","","","","","","","","","","","","","","","","","","","","","",""
"","","","","","","","","","","","html-button-response","208","2.0.0","1005958","66311c9747a9466bf5dcf6ba","3","5","7325","","","","","","","","","<img src= ""rock_img/I_Gabbro_05.jpg"" style=""width:8cm; height:6cm;""><p>What type of rock is this?</p>","3","class_response","1","test","35","Gabbro","Gabbro","05","true","4","4","","","","","","","","","","","","","","","",""
"","","","","","","","","","","","html-keyboard-response","209","2.0.0","1006461","66311c9747a9466bf5dcf6ba","3","5","null","","","","","","","","","<p style='font-size: 30px;'><strong>Okay</strong></p>","null","neutral_feedback","1","test","35","","","","","","","","","","","","","","","","","","","","","",""
"","","","","","","","","","","","html-button-response","210","2.0.0","1007973","66311c9747a9466bf5dcf6ba","3","5","1511","","","","","","","","","<img src= ""rock_img/I_Andesite_09.jpg"" style=""width:8cm; height:6cm;""><p>What type of rock is this?</p>","1","class_response","1","test","36","Basalt","Andesite","09","false","2","1","","","","","","","","","","","","","","","",""
"","","","","","","","","","","","html-keyboard-response","211","2.0.0","1008479","66311c9747a9466bf5dcf6ba","3","5","null","","","","","","","","","<p style='font-size: 30px;'><strong>Okay</strong></p>","null","neutral_feedback","1","test","36","","","","","","","","","","","","","","","","","","","","","",""
"","","","","","","","","","","","html-button-response","212","2.0.0","1009476","66311c9747a9466bf5dcf6ba","3","5","996","","","","","","","","","<img src= ""rock_img/I_Basalt_04.jpg"" style=""width:8cm; height:7.53cm;""><p>What type of rock is this?</p>","1","class_response","1","test","37","Basalt","Basalt","04","true","2","2","","","","","","","","","","","","","","","",""
"","","","","","","","","","","","html-keyboard-response","213","2.0.0","1009985","66311c9747a9466bf5dcf6ba","3","5","null","","","","","","","","","<p style='font-size: 30px;'><strong>Okay</strong></p>","null","neutral_feedback","1","test","37","","","","","","","","","","","","","","","","","","","","","",""
"","","","","","","","","","","","html-button-response","214","2.0.0","1024281","66311c9747a9466bf5dcf6ba","3","5","14295","","","","","","","","","<img src= ""rock_img/I_Pumice_05.jpg"" style=""width:8cm; height:7.25cm;""><p>What type of rock is this?</p>","7","class_response","1","test","38","Pumice","Pumice","05","true","8","8","","","","","","","","","","","","","","","",""
"","","","","","","","","","","","html-keyboard-response","215","2.0.0","1024790","66311c9747a9466bf5dcf6ba","3","5","null","","","","","","","","","<p style='font-size: 30px;'><strong>Okay</strong></p>","null","neutral_feedback","1","test","38","","","","","","","","","","","","","","","","","","","","","",""
"","","","","","","","","","","","html-button-response","216","2.0.0","1026022","66311c9747a9466bf5dcf6ba","3","5","1232","","","","","","","","","<img src= ""rock_img/I_Basalt_01.jpg"" style=""width:8cm; height:7.880000000000001cm;""><p>What type of rock is this?</p>","1","class_response","1","test","39","Basalt","Basalt","01","true","2","2","","","","","","","","","","","","","","","",""
"","","","","","","","","","","","html-keyboard-response","217","2.0.0","1026527","66311c9747a9466bf5dcf6ba","3","5","null","","","","","","","","","<p style='font-size: 30px;'><strong>Okay</strong></p>","null","neutral_feedback","1","test","39","","","","","","","","","","","","","","","","","","","","","",""
"","","","","","","","","","","","html-button-response","218","2.0.0","1029627","66311c9747a9466bf5dcf6ba","3","5","3099","","","","","","","","","<img src= ""rock_img/I_Peridotite_02.jpg"" style=""width:8cm; height:5.859999999999999cm;""><p>What type of rock is this?</p>","6","class_response","1","test","40","Peridotite","Peridotite","02","true","7","7","","","","","","","","","","","","","","","",""
"","","","","","","","","","","","html-keyboard-response","219","2.0.0","1030141","66311c9747a9466bf5dcf6ba","3","5","null","","","","","","","","","<p style='font-size: 30px;'><strong>Okay</strong></p>","null","neutral_feedback","1","test","40","","","","","","","","","","","","","","","","","","","","","",""
"","","","","","","","","","","","html-button-response","220","2.0.0","1031260","66311c9747a9466bf5dcf6ba","3","5","1117","","","","","","","","","<img src= ""rock_img/I_Diorite_09.jpg"" style=""width:8cm; height:5.27cm;""><p>What type of rock is this?</p>","2","class_response","1","test","41","Diorite","Diorite","09","true","3","3","","","","","","","","","","","","","","","",""
"","","","","","","","","","","","html-keyboard-response","221","2.0.0","1031770","66311c9747a9466bf5dcf6ba","3","5","null","","","","","","","","","<p style='font-size: 30px;'><strong>Okay</strong></p>","null","neutral_feedback","1","test","41","","","","","","","","","","","","","","","","","","","","","",""
"","","","","","","","","","","","html-button-response","222","2.0.0","1033796","66311c9747a9466bf5dcf6ba","3","5","2025","","","","","","","","","<img src= ""rock_img/I_Pegmatite_09.jpg"" style=""width:8cm; height:4.03cm;""><p>What type of rock is this?</p>","5","class_response","1","test","42","Pegmatite","Pegmatite","09","true","6","6","","","","","","","","","","","","","","","",""
"","","","","","","","","","","","html-keyboard-response","223","2.0.0","1034308","66311c9747a9466bf5dcf6ba","3","5","null","","","","","","","","","<p style='font-size: 30px;'><strong>Okay</strong></p>","null","neutral_feedback","1","test","42","","","","","","","","","","","","","","","","","","","","","",""
"","","","","","","","","","","","html-button-response","224","2.0.0","1035197","66311c9747a9466bf5dcf6ba","3","5","887","","","","","","","","","<img src= ""rock_img/I_Basalt_02.jpg"" style=""width:8cm; height:6.45cm;""><p>What type of rock is this?</p>","1","class_response","1","test","43","Basalt","Basalt","02","true","2","2","","","","","","","","","","","","","","","",""
"","","","","","","","","","","","html-keyboard-response","225","2.0.0","1035710","66311c9747a9466bf5dcf6ba","3","5","null","","","","","","","","","<p style='font-size: 30px;'><strong>Okay</strong></p>","null","neutral_feedback","1","test","43","","","","","","","","","","","","","","","","","","","","","",""
"","","","","","","","","","","","html-button-response","226","2.0.0","1036608","66311c9747a9466bf5dcf6ba","3","5","897","","","","","","","","","<img src= ""rock_img/I_Obsidian_10.jpg"" style=""width:8cm; height:6.260000000000001cm;""><p>What type of rock is this?</p>","4","class_response","1","test","44","Obsidian","Obsidian","10","true","5","5","","","","","","","","","","","","","","","",""
"","","","","","","","","","","","html-keyboard-response","227","2.0.0","1037121","66311c9747a9466bf5dcf6ba","3","5","null","","","","","","","","","<p style='font-size: 30px;'><strong>Okay</strong></p>","null","neutral_feedback","1","test","44","","","","","","","","","","","","","","","","","","","","","",""
"","","","","","","","","","","","html-button-response","228","2.0.0","1047502","66311c9747a9466bf5dcf6ba","3","5","10379","","","","","","","","","<img src= ""rock_img/I_Pumice_09.jpg"" style=""width:8cm; height:6.44cm;""><p>What type of rock is this?</p>","7","class_response","1","test","45","Pumice","Pumice","09","true","8","8","","","","","","","","","","","","","","","",""
"","","","","","","","","","","","html-keyboard-response","229","2.0.0","1048002","66311c9747a9466bf5dcf6ba","3","5","null","","","","","","","","","<p style='font-size: 30px;'><strong>Okay</strong></p>","null","neutral_feedback","1","test","45","","","","","","","","","","","","","","","","","","","","","",""
"","","","","","","","","","","","html-button-response","230","2.0.0","1051074","66311c9747a9466bf5dcf6ba","3","5","3070","","","","","","","","","<img src= ""rock_img/I_Obsidian_07.jpg"" style=""width:8cm; height:4.76cm;""><p>What type of rock is this?</p>","4","class_response","1","test","46","Obsidian","Obsidian","07","true","5","5","","","","","","","","","","","","","","","",""
"","","","","","","","","","","","html-keyboard-response","231","2.0.0","1051575","66311c9747a9466bf5dcf6ba","3","5","null","","","","","","","","","<p style='font-size: 30px;'><strong>Okay</strong></p>","null","neutral_feedback","1","test","46","","","","","","","","","","","","","","","","","","","","","",""
"","","","","","","","","","","","html-button-response","232","2.0.0","1052661","66311c9747a9466bf5dcf6ba","3","5","1085","","","","","","","","","<img src= ""rock_img/I_Andesite_03.jpg"" style=""width:8cm; height:5.73cm;""><p>What type of rock is this?</p>","1","class_response","1","test","47","Basalt","Andesite","03","false","2","1","","","","","","","","","","","","","","","",""
"","","","","","","","","","","","html-keyboard-response","233","2.0.0","1053164","66311c9747a9466bf5dcf6ba","3","5","null","","","","","","","","","<p style='font-size: 30px;'><strong>Okay</strong></p>","null","neutral_feedback","1","test","47","","","","","","","","","","","","","","","","","","","","","",""
"","","","","","","","","","","","html-button-response","234","2.0.0","1055393","66311c9747a9466bf5dcf6ba","3","5","2228","","","","","","","","","<img src= ""rock_img/I_Pumice_02.jpg"" style=""width:8cm; height:7.3999999999999995cm;""><p>What type of rock is this?</p>","7","class_response","1","test","48","Pumice","Pumice","02","true","8","8","","","","","","","","","","","","","","","",""
"","","","","","","","","","","","html-keyboard-response","235","2.0.0","1055909","66311c9747a9466bf5dcf6ba","3","5","null","","","","","","","","","<p style='font-size: 30px;'><strong>Okay</strong></p>","null","neutral_feedback","1","test","48","","","","","","","","","","","","","","","","","","","","","",""
"","","","","","","","","","","","html-button-response","236","2.0.0","1080971","66311c9747a9466bf5dcf6ba","3","5","","","","","","","","","","","","cycle_feedback","","","","","","","","","","","","","","","","","","","","","","","12966.40000000596","12092.79999999702",""
"","","","","","","","","","","","html-button-response","238","2.0.0","1082856","66311c9747a9466bf5dcf6ba","3","5","1884","","","","","","","","","","0","start_train","","","","","","","","","","","","","","","","","","","","","","","","",""
"","","","","","","","","","","","html-button-response","240","2.0.0","1084217","66311c9747a9466bf5dcf6ba","3","5","1360","","","","","","","","","<img src= ""rock_img/I_Basalt_10.jpg"" style=""width:8cm; height:5.85cm;""><p>What type of rock is this?</p>","1","class_response","2","train","1","Basalt","Basalt","10","true","2","2","","","","","","","","","","","","","","","",""
"","","","","","","","","","","","html-button-response","241","2.0.0","1085159","66311c9747a9466bf5dcf6ba","3","5","941","","","","","","","","","<img src= rock_img/I_Basalt_10.jpg style=""width:8cm; height:5.85cm;""><p style='font-size: 30px; color: green;'><strong>Correct!</strong></p><p style='font-size: 30px;'><strong>This rock is basalt</strong></p>","0","corr_feedback","2","train","1","","","","","","","","","","","","","","","","","","","","","",""
"","","","","","","","","","","","html-button-response","242","2.0.0","1091962","66311c9747a9466bf5dcf6ba","3","5","6802","","","","","","","","","<img src= ""rock_img/I_Peridotite_04.jpg"" style=""width:8cm; height:6.680000000000001cm;""><p>What type of rock is this?</p>","5","class_response","2","train","2","Pegmatite","Peridotite","04","false","6","7","","","","","","","","","","","","","","","",""
"","","","","","","","","","","","html-button-response","243","2.0.0","1093482","66311c9747a9466bf5dcf6ba","3","5","1519","","","","","","","","","<img src= rock_img/I_Peridotite_04.jpg style=""width:8cm; height:6.680000000000001cm;""><p style='font-size: 30px; color: red;'><strong>Incorrect!</strong></p><p style='font-size: 30px;'><strong>This rock is peridotite</strong></p>","0","corr_feedback","2","train","2","","","","","","","","","","","","","","","","","","","","","",""
"","","","","","","","","","","","html-button-response","244","2.0.0","1097529","66311c9747a9466bf5dcf6ba","3","5","4047","","","","","","","","","<img src= ""rock_img/I_Andesite_16.jpg"" style=""width:8cm; height:6.010000000000001cm;""><p>What type of rock is this?</p>","0","class_response","2","train","3","Andesite","Andesite","16","true","1","1","","","","","","","","","","","","","","","",""
"","","","","","","","","","","","html-button-response","245","2.0.0","1098207","66311c9747a9466bf5dcf6ba","3","5","677","","","","","","","","","<img src= rock_img/I_Andesite_16.jpg style=""width:8cm; height:6.010000000000001cm;""><p style='font-size: 30px; color: green;'><strong>Correct!</strong></p><p style='font-size: 30px;'><strong>This rock is andesite</strong></p>","0","corr_feedback","2","train","3","","","","","","","","","","","","","","","","","","","","","",""
"","","","","","","","","","","","html-button-response","246","2.0.0","1100675","66311c9747a9466bf5dcf6ba","3","5","2466","","","","","","","","","<img src= ""rock_img/I_Pumice_15.jpg"" style=""width:8cm; height:7.86cm;""><p>What type of rock is this?</p>","3","class_response","2","train","4","Gabbro","Pumice","15","false","4","8","","","","","","","","","","","","","","","",""
"","","","","","","","","","","","html-button-response","247","2.0.0","1101400","66311c9747a9466bf5dcf6ba","3","5","724","","","","","","","","","<img src= rock_img/I_Pumice_15.jpg style=""width:8cm; height:7.86cm;""><p style='font-size: 30px; color: red;'><strong>Incorrect!</strong></p><p style='font-size: 30px;'><strong>This rock is pumice</strong></p>","0","corr_feedback","2","train","4","","","","","","","","","","","","","","","","","","","","","",""
"","","","","","","","","","","","html-button-response","248","2.0.0","1104153","66311c9747a9466bf5dcf6ba","3","5","2753","","","","","","","","","<img src= ""rock_img/I_Pegmatite_10.jpg"" style=""width:8cm; height:4.16cm;""><p>What type of rock is this?</p>","6","class_response","2","train","5","Peridotite","Pegmatite","10","false","7","6","","","","","","","","","","","","","","","",""
"","","","","","","","","","","","html-button-response","249","2.0.0","1104997","66311c9747a9466bf5dcf6ba","3","5","843","","","","","","","","","<img src= rock_img/I_Pegmatite_10.jpg style=""width:8cm; height:4.16cm;""><p style='font-size: 30px; color: red;'><strong>Incorrect!</strong></p><p style='font-size: 30px;'><strong>This rock is pegmatite</strong></p>","0","corr_feedback","2","train","5","","","","","","","","","","","","","","","","","","","","","",""
"","","","","","","","","","","","html-button-response","250","2.0.0","1106167","66311c9747a9466bf5dcf6ba","3","5","1168","","","","","","","","","<img src= ""rock_img/I_Diorite_02.jpg"" style=""width:8cm; height:6.27cm;""><p>What type of rock is this?</p>","2","class_response","2","train","6","Diorite","Diorite","02","true","3","3","","","","","","","","","","","","","","","",""
"","","","","","","","","","","","html-button-response","251","2.0.0","1106723","66311c9747a9466bf5dcf6ba","3","5","555","","","","","","","","","<img src= rock_img/I_Diorite_02.jpg style=""width:8cm; height:6.27cm;""><p style='font-size: 30px; color: green;'><strong>Correct!</strong></p><p style='font-size: 30px;'><strong>This rock is diorite</strong></p>","0","corr_feedback","2","train","6","","","","","","","","","","","","","","","","","","","","","",""
"","","","","","","","","","","","html-button-response","252","2.0.0","1108904","66311c9747a9466bf5dcf6ba","3","5","2179","","","","","","","","","<img src= ""rock_img/I_Pumice_16.jpg"" style=""width:8cm; height:6.79cm;""><p>What type of rock is this?</p>","7","class_response","2","train","7","Pumice","Pumice","16","true","8","8","","","","","","","","","","","","","","","",""
"","","","","","","","","","","","html-button-response","253","2.0.0","1109417","66311c9747a9466bf5dcf6ba","3","5","512","","","","","","","","","<img src= rock_img/I_Pumice_16.jpg style=""width:8cm; height:6.79cm;""><p style='font-size: 30px; color: green;'><strong>Correct!</strong></p><p style='font-size: 30px;'><strong>This rock is pumice</strong></p>","0","corr_feedback","2","train","7","","","","","","","","","","","","","","","","","","","","","",""
"","","","","","","","","","","","html-button-response","254","2.0.0","1111044","66311c9747a9466bf5dcf6ba","3","5","1627","","","","","","","","","<img src= ""rock_img/I_Peridotite_12.jpg"" style=""width:8cm; height:4.54cm;""><p>What type of rock is this?</p>","0","class_response","2","train","8","Andesite","Peridotite","12","false","1","7","","","","","","","","","","","","","","","",""
"","","","","","","","","","","","html-button-response","255","2.0.0","1112007","66311c9747a9466bf5dcf6ba","3","5","962","","","","","","","","","<img src= rock_img/I_Peridotite_12.jpg style=""width:8cm; height:4.54cm;""><p style='font-size: 30px; color: red;'><strong>Incorrect!</strong></p><p style='font-size: 30px;'><strong>This rock is peridotite</strong></p>","0","corr_feedback","2","train","8","","","","","","","","","","","","","","","","","","","","","",""
"","","","","","","","","","","","html-button-response","256","2.0.0","1112974","66311c9747a9466bf5dcf6ba","3","5","965","","","","","","","","","<img src= ""rock_img/I_Obsidian_08.jpg"" style=""width:8cm; height:7.39cm;""><p>What type of rock is this?</p>","4","class_response","2","train","9","Obsidian","Obsidian","08","true","5","5","","","","","","","","","","","","","","","",""
"","","","","","","","","","","","html-button-response","257","2.0.0","1113356","66311c9747a9466bf5dcf6ba","3","5","381","","","","","","","","","<img src= rock_img/I_Obsidian_08.jpg style=""width:8cm; height:7.39cm;""><p style='font-size: 30px; color: green;'><strong>Correct!</strong></p><p style='font-size: 30px;'><strong>This rock is obsidian</strong></p>","0","corr_feedback","2","train","9","","","","","","","","","","","","","","","","","","","","","",""
"","","","","","","","","","","","html-button-response","258","2.0.0","1114528","66311c9747a9466bf5dcf6ba","3","5","1171","","","","","","","","","<img src= ""rock_img/I_Diorite_08.jpg"" style=""width:8cm; height:6.37cm;""><p>What type of rock is this?</p>","2","class_response","2","train","10","Diorite","Diorite","08","true","3","3","","","","","","","","","","","","","","","",""
"","","","","","","","","","","","html-button-response","259","2.0.0","1114952","66311c9747a9466bf5dcf6ba","3","5","424","","","","","","","","","<img src= rock_img/I_Diorite_08.jpg style=""width:8cm; height:6.37cm;""><p style='font-size: 30px; color: green;'><strong>Correct!</strong></p><p style='font-size: 30px;'><strong>This rock is diorite</strong></p>","0","corr_feedback","2","train","10","","","","","","","","","","","","","","","","","","","","","",""
"","","","","","","","","","","","html-button-response","260","2.0.0","1115948","66311c9747a9466bf5dcf6ba","3","5","995","","","","","","","","","<img src= ""rock_img/I_Gabbro_12.jpg"" style=""width:8cm; height:7.800000000000001cm;""><p>What type of rock is this?</p>","1","class_response","2","train","11","Basalt","Gabbro","12","false","2","4","","","","","","","","","","","","","","","",""
"","","","","","","","","","","","html-button-response","261","2.0.0","1116972","66311c9747a9466bf5dcf6ba","3","5","1023","","","","","","","","","<img src= rock_img/I_Gabbro_12.jpg style=""width:8cm; height:7.800000000000001cm;""><p style='font-size: 30px; color: red;'><strong>Incorrect!</strong></p><p style='font-size: 30px;'><strong>This rock is gabbro</strong></p>","0","corr_feedback","2","train","11","","","","","","","","","","","","","","","","","","","","","",""
"","","","","","","","","","","","html-button-response","262","2.0.0","1118063","66311c9747a9466bf5dcf6ba","3","5","1090","","","","","","","","","<img src= ""rock_img/I_Obsidian_02.jpg"" style=""width:8cm; height:7.51cm;""><p>What type of rock is this?</p>","4","class_response","2","train","12","Obsidian","Obsidian","02","true","5","5","","","","","","","","","","","","","","","",""
"","","","","","","","","","","","html-button-response","263","2.0.0","1118492","66311c9747a9466bf5dcf6ba","3","5","429","","","","","","","","","<img src= rock_img/I_Obsidian_02.jpg style=""width:8cm; height:7.51cm;""><p style='font-size: 30px; color: green;'><strong>Correct!</strong></p><p style='font-size: 30px;'><strong>This rock is obsidian</strong></p>","0","corr_feedback","2","train","12","","","","","","","","","","","","","","","","","","","","","",""
"","","","","","","","","","","","html-button-response","265","2.0.0","1119294","66311c9747a9466bf5dcf6ba","3","5","801","","","","","","","","","","0","start_train","","","","","","","","","","","","","","","","","","","","","","","","",""
"","","","","","","","","","","","html-button-response","266","2.0.0","1121528","66311c9747a9466bf5dcf6ba","3","5","","","","","","","","","","","","cat_selection","2","train","1","","","","","","","1","2","2232.60000000149","Andesite","Basalt","[0.22150584882596788,0.054407524528397706,0.11305817260544565,0.19900442615576072,0.027111919055130565,0.15400158081534635,0.10420455267187202,0.12670597534207922]","[null,0.4846101667044789,0.0729949465064172,0.229479865550298,0.029390349199315248,0.07329873518558978,0.028541669714642642,0.08168426713925822]","","","","","","","","",""
"","","","","","","","","","","","paired-cat-display","267","1.0.0","1226294","66311c9747a9466bf5dcf6ba","3","5","","","","","","","","","","","","paired_cat_display","2","train","1","","","","","","","","","6574.5","","","","","","","98189.10000000149","Surface looks as though it has multiple pebbles jutting out, somewhat resembles the rocks used for paths and walkways","","Color is mostly one tone, shape tends to be more ""regular"" compared to other rocks","","",""
"","","","","","","","","","","","html-button-response","268","2.0.0","1227743","66311c9747a9466bf5dcf6ba","3","5","","","","","","","","","","","","cat_selection","2","train","2","","","","","","","3","4","1449","Diorite","Gabbro","[0.22150584882596788,0.054407524528397706,0.11305817260544565,0.19900442615576072,0.027111919055130565,0.15400158081534635,0.10420455267187202,0.12670597534207922]","[0.33177656486685025,0.024363151014295644,null,0.5383101952714291,0.029067196913261206,0.03186787163923492,0.025265892770628916,0.019349127524299976]","","","","","","","","",""
"","","","","","","","","","","","paired-cat-display","269","1.0.0","1306935","66311c9747a9466bf5dcf6ba","3","5","","","","","","","","","","","","paired_cat_display","2","train","2","","","","","","","","","6205.89999999851","","","","","","","72983.59999999404","","Has a very scattered black pattern on a pale coloring","","","","Surface is mostly one color, with a very rough surface"
"","","","","","","","","","","","html-button-response","270","2.0.0","1308436","66311c9747a9466bf5dcf6ba","3","5","","","","","","","","","","","","cat_selection","2","train","3","","","","","","","6","7","1500.9000000059605","Pegmatite","Peridotite","[0.22150584882596788,0.054407524528397706,0.11305817260544565,0.19900442615576072,0.027111919055130565,0.15400158081534635,0.10420455267187202,0.12670597534207922]","[0.12752949244593262,0.024149318022503093,0.0833326030266226,0.08186302599891351,0.028108402403122356,null,0.38104934628873416,0.2739678118141717]","","","","","","","","",""
"","","","","","","","","","","","paired-cat-display","271","1.0.0","1366226","66311c9747a9466bf5dcf6ba","3","5","","","","","","","","","","","","paired_cat_display","2","train","3","","","","","","","","","6668.10000000149","","","","","Has some irregular black marking that is more concentrated than the markings found on diorite, the rock's actual color varies","Often a shade of green, with a rough surface and some discoloration","51119.29999999702","","","","","",""
"","","","","","","","","","","","html-button-response","273","2.0.0","1368157","66311c9747a9466bf5dcf6ba","3","5","1930","","","","","","","","","","0","start_test","","","","","","","","","","","","","","","","","","","","","","","","",""
"","","","","","","","","","","","html-button-response","274","2.0.0","1369365","66311c9747a9466bf5dcf6ba","3","5","1207","","","","","","","","","<img src= ""rock_img/I_Diorite_09.jpg"" style=""width:8cm; height:5.27cm;""><p>What type of rock is this?</p>","2","class_response","2","test","1","Diorite","Diorite","09","true","3","3","","","","","","","","","","","","","","","",""
"","","","","","","","","","","","html-keyboard-response","275","2.0.0","1369877","66311c9747a9466bf5dcf6ba","3","5","null","","","","","","","","","<p style='font-size: 30px;'><strong>Okay</strong></p>","null","neutral_feedback","2","test","1","","","","","","","","","","","","","","","","","","","","","",""
"","","","","","","","","","","","html-button-response","276","2.0.0","1381934","66311c9747a9466bf5dcf6ba","3","5","12056","","","","","","","","","<img src= ""rock_img/I_Diorite_11.jpg"" style=""width:8cm; height:7.11cm;""><p>What type of rock is this?</p>","3","class_response","2","test","2","Gabbro","Diorite","11","false","4","3","","","","","","","","","","","","","","","",""
