"width","height","webaudio","browser","browser_version","mobile","os","fullscreen","vsync_rate","webcam","microphone","trial_type","trial_index","plugin_version","time_elapsed","subjID","condition","stimID","rt","url","success","value","timeout","failed_images","failed_audio","failed_video","view_history","stimulus","response","trialType","cycle","phase","trial","resp","cat","token","corr","resp_num","cat_num","ref_cat_num","paired_cat_num","time_obs","ref_cat","paired_cat","ref_prob_dist","paired_prob_dist","text_Basalt","text_Gabbro","time_resp","text_Andesite","text_Peridotite","text_Pumice","time_fb1","time_fb2"
"1280","631","true","chrome","130.0.0","false","Windows 10","true","60.62","true","true","browser-check","0","2.0.0","1001","667f52753697ee3c2bdb9976","3","14","","","","","","","","","","","","","","","","","","","","","","","","","","","","","","","","","","","",""
"","","","","","","","","","","","external-html","1","2.0.0","6476","667f52753697ee3c2bdb9976","3","14","5380","consent_form.html","","","","","","","","","","","","","","","","","","","","","","","","","","","","","","","","","",""
"","","","","","","","","","","","fullscreen","2","2.0.0","11364","667f52753697ee3c2bdb9976","3","14","3881","","true","","","","","","","","","","","","","","","","","","","","","","","","","","","","","","","","",""
"","","","","","","","","","","","call-function","3","2.0.0","11366","667f52753697ee3c2bdb9976","3","14","","","","{}","","","","","","","","","","","","","","","","","","","","","","","","","","","","","","","",""
"","","","","","","","","","","","preload","4","2.0.0","14997","667f52753697ee3c2bdb9976","3","14","","","true","","false","[]","[]","[]","","","","","","","","","","","","","","","","","","","","","","","","","","","",""
"","","","","","","","","","","","instructions","5","2.0.0","82902","667f52753697ee3c2bdb9976","3","14","67903","","","","","","","","[{""page_index"":0,""viewing_time"":25470},{""page_index"":1,""viewing_time"":29512},{""page_index"":2,""viewing_time"":12921}]","","","","","","","","","","","","","","","","","","","","","","","","","","",""
"","","","","","","","","","","","html-button-response","6","2.0.0","85357","667f52753697ee3c2bdb9976","3","14","2453","","","","","","","","","","0","start_test","","","","","","","","","","","","","","","","","","","","","","","",""
"","","","","","","","","","","","html-button-response","7","2.0.0","117030","667f52753697ee3c2bdb9976","3","14","31673","","","","","","","","","<img src= ""rock_img/I_Basalt_02.jpg"" style=""width:8cm; height:6.45cm;""><p>What type of rock is this?</p>","1","class_response","0","test","1","Basalt","Basalt","02","true","2","2","","","","","","","","","","","","","","",""
"","","","","","","","","","","","html-keyboard-response","8","2.0.0","117534","667f52753697ee3c2bdb9976","3","14","null","","","","","","","","","<p style='font-size: 30px;'><strong>Okay</strong></p>","null","neutral_feedback","0","test","1","","","","","","","","","","","","","","","","","","","","",""
"","","","","","","","","","","","html-button-response","9","2.0.0","148307","667f52753697ee3c2bdb9976","3","14","30772","","","","","","","","","<img src= ""rock_img/I_Obsidian_10.jpg"" style=""width:8cm; height:6.260000000000001cm;""><p>What type of rock is this?</p>","4","class_response","0","test","2","Obsidian","Obsidian","10","true","5","5","","","","","","","","","","","","","","",""
"","","","","","","","","","","","html-keyboard-response","10","2.0.0","148809","667f52753697ee3c2bdb9976","3","14","null","","","","","","","","","<p style='font-size: 30px;'><strong>Okay</strong></p>","null","neutral_feedback","0","test","2","","","","","","","","","","","","","","","","","","","","",""
"","","","","","","","","","","","html-button-response","11","2.0.0","172149","667f52753697ee3c2bdb9976","3","14","23338","","","","","","","","","<img src= ""rock_img/I_Pumice_04.jpg"" style=""width:8cm; height:6.819999999999999cm;""><p>What type of rock is this?</p>","7","class_response","0","test","3","Pumice","Pumice","04","true","8","8","","","","","","","","","","","","","","",""
"","","","","","","","","","","","html-keyboard-response","12","2.0.0","172652","667f52753697ee3c2bdb9976","3","14","null","","","","","","","","","<p style='font-size: 30px;'><strong>Okay</strong></p>","null","neutral_feedback","0","test","3","","","","","","","","","","","","","","","","","","","","",""
"","","","","","","","","","","","html-button-response","13","2.0.0","202717","667f52753697ee3c2bdb9976","3","14","30063","","","","","","","","","<img src= ""rock_img/I_Peridotite_15.jpg"" style=""width:8cm; height:6cm;""><p>What type of rock is this?</p>","6","class_response","0","test","4","Peridotite","Peridotite","15","true","7","7","","","","","","","","","","","","","","",""
"","","","","","","","","","","","html-keyboard-response","14","2.0.0","203225","667f52753697ee3c2bdb9976","3","14","null","","","","","","","","","<p style='font-size: 30px;'><strong>Okay</strong></p>","null","neutral_feedback","0","test","4","","","","","","","","","","","","","","","","","","","","",""
"","","","","","","","","","","","html-button-response","15","2.0.0","229843","667f52753697ee3c2bdb9976","3","14","26616","","","","","","","","","<img src= ""rock_img/I_Peridotite_13.jpg"" style=""width:8cm; height:7.58cm;""><p>What type of rock is this?</p>","6","class_response","0","test","5","Peridotite","Peridotite","13","true","7","7","","","","","","","","","","","","","","",""
"","","","","","","","","","","","html-keyboard-response","16","2.0.0","230345","667f52753697ee3c2bdb9976","3","14","null","","","","","","","","","<p style='font-size: 30px;'><strong>Okay</strong></p>","null","neutral_feedback","0","test","5","","","","","","","","","","","","","","","","","","","","",""
"","","","","","","","","","","","html-button-response","17","2.0.0","260454","667f52753697ee3c2bdb9976","3","14","30108","","","","","","","","","<img src= ""rock_img/I_Basalt_16.jpg"" style=""width:8cm; height:7.659999999999999cm;""><p>What type of rock is this?</p>","0","class_response","0","test","6","Andesite","Basalt","16","false","1","2","","","","","","","","","","","","","","",""
"","","","","","","","","","","","html-keyboard-response","18","2.0.0","260965","667f52753697ee3c2bdb9976","3","14","null","","","","","","","","","<p style='font-size: 30px;'><strong>Okay</strong></p>","null","neutral_feedback","0","test","6","","","","","","","","","","","","","","","","","","","","",""
"","","","","","","","","","","","html-button-response","19","2.0.0","287264","667f52753697ee3c2bdb9976","3","14","26298","","","","","","","","","<img src= ""rock_img/I_Pegmatite_16.jpg"" style=""width:8cm; height:5.8cm;""><p>What type of rock is this?</p>","5","class_response","0","test","7","Pegmatite","Pegmatite","16","true","6","6","","","","","","","","","","","","","","",""
"","","","","","","","","","","","html-keyboard-response","20","2.0.0","287778","667f52753697ee3c2bdb9976","3","14","null","","","","","","","","","<p style='font-size: 30px;'><strong>Okay</strong></p>","null","neutral_feedback","0","test","7","","","","","","","","","","","","","","","","","","","","",""
"","","","","","","","","","","","html-button-response","21","2.0.0","324746","667f52753697ee3c2bdb9976","3","14","36967","","","","","","","","","<img src= ""rock_img/I_Diorite_11.jpg"" style=""width:8cm; height:7.11cm;""><p>What type of rock is this?</p>","2","class_response","0","test","8","Diorite","Diorite","11","true","3","3","","","","","","","","","","","","","","",""
"","","","","","","","","","","","html-keyboard-response","22","2.0.0","325250","667f52753697ee3c2bdb9976","3","14","null","","","","","","","","","<p style='font-size: 30px;'><strong>Okay</strong></p>","null","neutral_feedback","0","test","8","","","","","","","","","","","","","","","","","","","","",""
"","","","","","","","","","","","html-button-response","23","2.0.0","350739","667f52753697ee3c2bdb9976","3","14","25488","","","","","","","","","<img src= ""rock_img/I_Andesite_11.jpg"" style=""width:8cm; height:4.92cm;""><p>What type of rock is this?</p>","0","class_response","0","test","9","Andesite","Andesite","11","true","1","1","","","","","","","","","","","","","","",""
"","","","","","","","","","","","html-keyboard-response","24","2.0.0","351246","667f52753697ee3c2bdb9976","3","14","null","","","","","","","","","<p style='font-size: 30px;'><strong>Okay</strong></p>","null","neutral_feedback","0","test","9","","","","","","","","","","","","","","","","","","","","",""
"","","","","","","","","","","","html-button-response","25","2.0.0","397254","667f52753697ee3c2bdb9976","3","14","46007","","","","","","","","","<img src= ""rock_img/I_Peridotite_10.jpg"" style=""width:8cm; height:5.390000000000001cm;""><p>What type of rock is this?</p>","6","class_response","0","test","10","Peridotite","Peridotite","10","true","7","7","","","","","","","","","","","","","","",""
"","","","","","","","","","","","html-keyboard-response","26","2.0.0","397765","667f52753697ee3c2bdb9976","3","14","null","","","","","","","","","<p style='font-size: 30px;'><strong>Okay</strong></p>","null","neutral_feedback","0","test","10","","","","","","","","","","","","","","","","","","","","",""
"","","","","","","","","","","","html-button-response","27","2.0.0","430039","667f52753697ee3c2bdb9976","3","14","32274","","","","","","","","","<img src= ""rock_img/I_Peridotite_05.jpg"" style=""width:8cm; height:7.1499999999999995cm;""><p>What type of rock is this?</p>","6","class_response","0","test","11","Peridotite","Peridotite","05","true","7","7","","","","","","","","","","","","","","",""
"","","","","","","","","","","","html-keyboard-response","28","2.0.0","430549","667f52753697ee3c2bdb9976","3","14","null","","","","","","","","","<p style='font-size: 30px;'><strong>Okay</strong></p>","null","neutral_feedback","0","test","11","","","","","","","","","","","","","","","","","","","","",""
"","","","","","","","","","","","html-button-response","29","2.0.0","471891","667f52753697ee3c2bdb9976","3","14","41341","","","","","","","","","<img src= ""rock_img/I_Pegmatite_09.jpg"" style=""width:8cm; height:4.03cm;""><p>What type of rock is this?</p>","5","class_response","0","test","12","Pegmatite","Pegmatite","09","true","6","6","","","","","","","","","","","","","","",""
"","","","","","","","","","","","html-keyboard-response","30","2.0.0","472402","667f52753697ee3c2bdb9976","3","14","null","","","","","","","","","<p style='font-size: 30px;'><strong>Okay</strong></p>","null","neutral_feedback","0","test","12","","","","","","","","","","","","","","","","","","","","",""
"","","","","","","","","","","","html-button-response","31","2.0.0","499420","667f52753697ee3c2bdb9976","3","14","27016","","","","","","","","","<img src= ""rock_img/I_Gabbro_16.jpg"" style=""width:8cm; height:6.44cm;""><p>What type of rock is this?</p>","1","class_response","0","test","13","Basalt","Gabbro","16","false","2","4","","","","","","","","","","","","","","",""
"","","","","","","","","","","","html-keyboard-response","32","2.0.0","499928","667f52753697ee3c2bdb9976","3","14","null","","","","","","","","","<p style='font-size: 30px;'><strong>Okay</strong></p>","null","neutral_feedback","0","test","13","","","","","","","","","","","","","","","","","","","","",""
"","","","","","","","","","","","html-button-response","33","2.0.0","533735","667f52753697ee3c2bdb9976","3","14","33806","","","","","","","","","<img src= ""rock_img/I_Gabbro_10.jpg"" style=""width:8cm; height:5.680000000000001cm;""><p>What type of rock is this?</p>","1","class_response","0","test","14","Basalt","Gabbro","10","false","2","4","","","","","","","","","","","","","","",""
"","","","","","","","","","","","html-keyboard-response","34","2.0.0","534245","667f52753697ee3c2bdb9976","3","14","null","","","","","","","","","<p style='font-size: 30px;'><strong>Okay</strong></p>","null","neutral_feedback","0","test","14","","","","","","","","","","","","","","","","","","","","",""
"","","","","","","","","","","","html-button-response","35","2.0.0","559150","667f52753697ee3c2bdb9976","3","14","24904","","","","","","","","","<img src= ""rock_img/I_Pumice_09.jpg"" style=""width:8cm; height:6.44cm;""><p>What type of rock is this?</p>","7","class_response","0","test","15","Pumice","Pumice","09","true","8","8","","","","","","","","","","","","","","",""
"","","","","","","","","","","","html-keyboard-response","36","2.0.0","559665","667f52753697ee3c2bdb9976","3","14","null","","","","","","","","","<p style='font-size: 30px;'><strong>Okay</strong></p>","null","neutral_feedback","0","test","15","","","","","","","","","","","","","","","","","","","","",""
"","","","","","","","","","","","html-button-response","37","2.0.0","629085","667f52753697ee3c2bdb9976","3","14","69420","","","","","","","","","<img src= ""rock_img/I_Basalt_08.jpg"" style=""width:8cm; height:10.44cm;""><p>What type of rock is this?</p>","1","class_response","0","test","16","Basalt","Basalt","08","true","2","2","","","","","","","","","","","","","","",""
"","","","","","","","","","","","html-keyboard-response","38","2.0.0","629594","667f52753697ee3c2bdb9976","3","14","null","","","","","","","","","<p style='font-size: 30px;'><strong>Okay</strong></p>","null","neutral_feedback","0","test","16","","","","","","","","","","","","","","","","","","","","",""
"","","","","","","","","","","","html-button-response","39","2.0.0","642455","667f52753697ee3c2bdb9976","3","14","12860","","","","","","","","","<img src= ""rock_img/I_Diorite_16.jpg"" style=""width:8cm; height:6.74cm;""><p>What type of rock is this?</p>","2","class_response","0","test","17","Diorite","Diorite","16","true","3","3","","","","","","","","","","","","","","",""
"","","","","","","","","","","","html-keyboard-response","40","2.0.0","642961","667f52753697ee3c2bdb9976","3","14","null","","","","","","","","","<p style='font-size: 30px;'><strong>Okay</strong></p>","null","neutral_feedback","0","test","17","","","","","","","","","","","","","","","","","","","","",""
"","","","","","","","","","","","html-button-response","41","2.0.0","685368","667f52753697ee3c2bdb9976","3","14","42406","","","","","","","","","<img src= ""rock_img/I_Obsidian_05.jpg"" style=""width:8cm; height:6.33cm;""><p>What type of rock is this?</p>","4","class_response","0","test","18","Obsidian","Obsidian","05","true","5","5","","","","","","","","","","","","","","",""
"","","","","","","","","","","","html-keyboard-response","42","2.0.0","685878","667f52753697ee3c2bdb9976","3","14","null","","","","","","","","","<p style='font-size: 30px;'><strong>Okay</strong></p>","null","neutral_feedback","0","test","18","","","","","","","","","","","","","","","","","","","","",""
"","","","","","","","","","","","html-button-response","43","2.0.0","725620","667f52753697ee3c2bdb9976","3","14","39742","","","","","","","","","<img src= ""rock_img/I_Obsidian_02.jpg"" style=""width:8cm; height:7.51cm;""><p>What type of rock is this?</p>","4","class_response","0","test","19","Obsidian","Obsidian","02","true","5","5","","","","","","","","","","","","","","",""
"","","","","","","","","","","","html-keyboard-response","44","2.0.0","726130","667f52753697ee3c2bdb9976","3","14","null","","","","","","","","","<p style='font-size: 30px;'><strong>Okay</strong></p>","null","neutral_feedback","0","test","19","","","","","","","","","","","","","","","","","","","","",""
"","","","","","","","","","","","html-button-response","45","2.0.0","762190","667f52753697ee3c2bdb9976","3","14","36058","","","","","","","","","<img src= ""rock_img/I_Diorite_06.jpg"" style=""width:8cm; height:6.03cm;""><p>What type of rock is this?</p>","2","class_response","0","test","20","Diorite","Diorite","06","true","3","3","","","","","","","","","","","","","","",""
"","","","","","","","","","","","html-keyboard-response","46","2.0.0","762704","667f52753697ee3c2bdb9976","3","14","null","","","","","","","","","<p style='font-size: 30px;'><strong>Okay</strong></p>","null","neutral_feedback","0","test","20","","","","","","","","","","","","","","","","","","","","",""
"","","","","","","","","","","","html-button-response","47","2.0.0","802380","667f52753697ee3c2bdb9976","3","14","39675","","","","","","","","","<img src= ""rock_img/I_Peridotite_16.jpg"" style=""width:8cm; height:6.989999999999999cm;""><p>What type of rock is this?</p>","6","class_response","0","test","21","Peridotite","Peridotite","16","true","7","7","","","","","","","","","","","","","","",""
"","","","","","","","","","","","html-keyboard-response","48","2.0.0","802892","667f52753697ee3c2bdb9976","3","14","null","","","","","","","","","<p style='font-size: 30px;'><strong>Okay</strong></p>","null","neutral_feedback","0","test","21","","","","","","","","","","","","","","","","","","","","",""
"","","","","","","","","","","","html-button-response","49","2.0.0","836617","667f52753697ee3c2bdb9976","3","14","33724","","","","","","","","","<img src= ""rock_img/I_Andesite_14.jpg"" style=""width:8cm; height:5.449999999999999cm;""><p>What type of rock is this?</p>","0","class_response","0","test","22","Andesite","Andesite","14","true","1","1","","","","","","","","","","","","","","",""
"","","","","","","","","","","","html-keyboard-response","50","2.0.0","837117","667f52753697ee3c2bdb9976","3","14","null","","","","","","","","","<p style='font-size: 30px;'><strong>Okay</strong></p>","null","neutral_feedback","0","test","22","","","","","","","","","","","","","","","","","","","","",""
"","","","","","","","","","","","html-button-response","51","2.0.0","846882","667f52753697ee3c2bdb9976","3","14","9763","","","","","","","","","<img src= ""rock_img/I_Pumice_05.jpg"" style=""width:8cm; height:7.25cm;""><p>What type of rock is this?</p>","7","class_response","0","test","23","Pumice","Pumice","05","true","8","8","","","","","","","","","","","","","","",""
"","","","","","","","","","","","html-keyboard-response","52","2.0.0","847386","667f52753697ee3c2bdb9976","3","14","null","","","","","","","","","<p style='font-size: 30px;'><strong>Okay</strong></p>","null","neutral_feedback","0","test","23","","","","","","","","","","","","","","","","","","","","",""
"","","","","","","","","","","","html-button-response","53","2.0.0","853623","667f52753697ee3c2bdb9976","3","14","6236","","","","","","","","","<img src= ""rock_img/I_Gabbro_05.jpg"" style=""width:8cm; height:6cm;""><p>What type of rock is this?</p>","1","class_response","0","test","24","Basalt","Gabbro","05","false","2","4","","","","","","","","","","","","","","",""
"","","","","","","","","","","","html-keyboard-response","54","2.0.0","854147","667f52753697ee3c2bdb9976","3","14","null","","","","","","","","","<p style='font-size: 30px;'><strong>Okay</strong></p>","null","neutral_feedback","0","test","24","","","","","","","","","","","","","","","","","","","","",""
"","","","","","","","","","","","html-button-response","55","2.0.0","874104","667f52753697ee3c2bdb9976","3","14","19955","","","","","","","","","<img src= ""rock_img/I_Pegmatite_08.jpg"" style=""width:8cm; height:7.68cm;""><p>What type of rock is this?</p>","5","class_response","0","test","25","Pegmatite","Pegmatite","08","true","6","6","","","","","","","","","","","","","","",""
"","","","","","","","","","","","html-keyboard-response","56","2.0.0","874606","667f52753697ee3c2bdb9976","3","14","null","","","","","","","","","<p style='font-size: 30px;'><strong>Okay</strong></p>","null","neutral_feedback","0","test","25","","","","","","","","","","","","","","","","","","","","",""
"","","","","","","","","","","","html-button-response","57","2.0.0","889657","667f52753697ee3c2bdb9976","3","14","15050","","","","","","","","","<img src= ""rock_img/I_Pumice_16.jpg"" style=""width:8cm; height:6.79cm;""><p>What type of rock is this?</p>","0","class_response","0","test","26","Andesite","Pumice","16","false","1","8","","","","","","","","","","","","","","",""
"","","","","","","","","","","","html-keyboard-response","58","2.0.0","890164","667f52753697ee3c2bdb9976","3","14","null","","","","","","","","","<p style='font-size: 30px;'><strong>Okay</strong></p>","null","neutral_feedback","0","test","26","","","","","","","","","","","","","","","","","","","","",""
"","","","","","","","","","","","html-button-response","59","2.0.0","906801","667f52753697ee3c2bdb9976","3","14","16634","","","","","","","","","<img src= ""rock_img/I_Gabbro_08.jpg"" style=""width:8cm; height:5.15cm;""><p>What type of rock is this?</p>","6","class_response","0","test","27","Peridotite","Gabbro","08","false","7","4","","","","","","","","","","","","","","",""
"","","","","","","","","","","","html-keyboard-response","60","2.0.0","907305","667f52753697ee3c2bdb9976","3","14","null","","","","","","","","","<p style='font-size: 30px;'><strong>Okay</strong></p>","null","neutral_feedback","0","test","27","","","","","","","","","","","","","","","","","","","","",""
"","","","","","","","","","","","html-button-response","61","2.0.0","942176","667f52753697ee3c2bdb9976","3","14","34870","","","","","","","","","<img src= ""rock_img/I_Andesite_02.jpg"" style=""width:8cm; height:8.5cm;""><p>What type of rock is this?</p>","0","class_response","0","test","28","Andesite","Andesite","02","true","1","1","","","","","","","","","","","","","","",""
"","","","","","","","","","","","html-keyboard-response","62","2.0.0","942681","667f52753697ee3c2bdb9976","3","14","null","","","","","","","","","<p style='font-size: 30px;'><strong>Okay</strong></p>","null","neutral_feedback","0","test","28","","","","","","","","","","","","","","","","","","","","",""
"","","","","","","","","","","","html-button-response","63","2.0.0","983590","667f52753697ee3c2bdb9976","3","14","40908","","","","","","","","","<img src= ""rock_img/I_Diorite_12.jpg"" style=""width:8cm; height:4.88cm;""><p>What type of rock is this?</p>","2","class_response","0","test","29","Diorite","Diorite","12","true","3","3","","","","","","","","","","","","","","",""
"","","","","","","","","","","","html-keyboard-response","64","2.0.0","984096","667f52753697ee3c2bdb9976","3","14","null","","","","","","","","","<p style='font-size: 30px;'><strong>Okay</strong></p>","null","neutral_feedback","0","test","29","","","","","","","","","","","","","","","","","","","","",""
"","","","","","","","","","","","html-button-response","65","2.0.0","1011735","667f52753697ee3c2bdb9976","3","14","27638","","","","","","","","","<img src= ""rock_img/I_Obsidian_07.jpg"" style=""width:8cm; height:4.76cm;""><p>What type of rock is this?</p>","4","class_response","0","test","30","Obsidian","Obsidian","07","true","5","5","","","","","","","","","","","","","","",""
"","","","","","","","","","","","html-keyboard-response","66","2.0.0","1012239","667f52753697ee3c2bdb9976","3","14","null","","","","","","","","","<p style='font-size: 30px;'><strong>Okay</strong></p>","null","neutral_feedback","0","test","30","","","","","","","","","","","","","","","","","","","","",""
"","","","","","","","","","","","html-button-response","67","2.0.0","1069619","667f52753697ee3c2bdb9976","3","14","57379","","","","","","","","","<img src= ""rock_img/I_Basalt_09.jpg"" style=""width:8cm; height:6.2cm;""><p>What type of rock is this?</p>","1","class_response","0","test","31","Basalt","Basalt","09","true","2","2","","","","","","","","","","","","","","",""
"","","","","","","","","","","","html-keyboard-response","68","2.0.0","1070140","667f52753697ee3c2bdb9976","3","14","null","","","","","","","","","<p style='font-size: 30px;'><strong>Okay</strong></p>","null","neutral_feedback","0","test","31","","","","","","","","","","","","","","","","","","","","",""
"","","","","","","","","","","","html-button-response","69","2.0.0","1078425","667f52753697ee3c2bdb9976","3","14","8284","","","","","","","","","<img src= ""rock_img/I_Pumice_15.jpg"" style=""width:8cm; height:7.86cm;""><p>What type of rock is this?</p>","0","class_response","0","test","32","Andesite","Pumice","15","false","1","8","","","","","","","","","","","","","","",""
"","","","","","","","","","","","html-keyboard-response","70","2.0.0","1078939","667f52753697ee3c2bdb9976","3","14","null","","","","","","","","","<p style='font-size: 30px;'><strong>Okay</strong></p>","null","neutral_feedback","0","test","32","","","","","","","","","","","","","","","","","","","","",""
"","","","","","","","","","","","html-button-response","71","2.0.0","1134717","667f52753697ee3c2bdb9976","3","14","55776","","","","","","","","","<img src= ""rock_img/I_Peridotite_14.jpg"" style=""width:8cm; height:5.3cm;""><p>What type of rock is this?</p>","6","class_response","0","test","33","Peridotite","Peridotite","14","true","7","7","","","","","","","","","","","","","","",""
"","","","","","","","","","","","html-keyboard-response","72","2.0.0","1135239","667f52753697ee3c2bdb9976","3","14","null","","","","","","","","","<p style='font-size: 30px;'><strong>Okay</strong></p>","null","neutral_feedback","0","test","33","","","","","","","","","","","","","","","","","","","","",""
"","","","","","","","","","","","html-button-response","73","2.0.0","1157271","667f52753697ee3c2bdb9976","3","14","22030","","","","","","","","","<img src= ""rock_img/I_Pegmatite_03.jpg"" style=""width:8cm; height:5.239999999999999cm;""><p>What type of rock is this?</p>","5","class_response","0","test","34","Pegmatite","Pegmatite","03","true","6","6","","","","","","","","","","","","","","",""
"","","","","","","","","","","","html-keyboard-response","74","2.0.0","1157789","667f52753697ee3c2bdb9976","3","14","null","","","","","","","","","<p style='font-size: 30px;'><strong>Okay</strong></p>","null","neutral_feedback","0","test","34","","","","","","","","","","","","","","","","","","","","",""
"","","","","","","","","","","","html-button-response","75","2.0.0","1160755","667f52753697ee3c2bdb9976","3","14","2964","","","","","","","","","<img src= ""rock_img/I_Obsidian_12.jpg"" style=""width:8cm; height:6.53cm;""><p>What type of rock is this?</p>","4","class_response","0","test","35","Obsidian","Obsidian","12","true","5","5","","","","","","","","","","","","","","",""
"","","","","","","","","","","","html-keyboard-response","76","2.0.0","1161261","667f52753697ee3c2bdb9976","3","14","null","","","","","","","","","<p style='font-size: 30px;'><strong>Okay</strong></p>","null","neutral_feedback","0","test","35","","","","","","","","","","","","","","","","","","","","",""
"","","","","","","","","","","","html-button-response","77","2.0.0","1167591","667f52753697ee3c2bdb9976","3","14","6329","","","","","","","","","<img src= ""rock_img/I_Andesite_05.jpg"" style=""width:8cm; height:4.12cm;""><p>What type of rock is this?</p>","6","class_response","0","test","36","Peridotite","Andesite","05","false","7","1","","","","","","","","","","","","","","",""
"","","","","","","","","","","","html-keyboard-response","78","2.0.0","1168105","667f52753697ee3c2bdb9976","3","14","null","","","","","","","","","<p style='font-size: 30px;'><strong>Okay</strong></p>","null","neutral_feedback","0","test","36","","","","","","","","","","","","","","","","","","","","",""
"","","","","","","","","","","","html-button-response","79","2.0.0","1178665","667f52753697ee3c2bdb9976","3","14","10559","","","","","","","","","<img src= ""rock_img/I_Basalt_06.jpg"" style=""width:8cm; height:7.06cm;""><p>What type of rock is this?</p>","1","class_response","0","test","37","Basalt","Basalt","06","true","2","2","","","","","","","","","","","","","","",""
"","","","","","","","","","","","html-keyboard-response","80","2.0.0","1179170","667f52753697ee3c2bdb9976","3","14","null","","","","","","","","","<p style='font-size: 30px;'><strong>Okay</strong></p>","null","neutral_feedback","0","test","37","","","","","","","","","","","","","","","","","","","","",""
"","","","","","","","","","","","html-button-response","81","2.0.0","1195479","667f52753697ee3c2bdb9976","3","14","16308","","","","","","","","","<img src= ""rock_img/I_Basalt_10.jpg"" style=""width:8cm; height:5.85cm;""><p>What type of rock is this?</p>","1","class_response","0","test","38","Basalt","Basalt","10","true","2","2","","","","","","","","","","","","","","",""
"","","","","","","","","","","","html-keyboard-response","82","2.0.0","1195989","667f52753697ee3c2bdb9976","3","14","null","","","","","","","","","<p style='font-size: 30px;'><strong>Okay</strong></p>","null","neutral_feedback","0","test","38","","","","","","","","","","","","","","","","","","","","",""
"","","","","","","","","","","","html-button-response","83","2.0.0","1241356","667f52753697ee3c2bdb9976","3","14","45366","","","","","","","","","<img src= ""rock_img/I_Gabbro_14.jpg"" style=""width:8cm; height:8.48cm;""><p>What type of rock is this?</p>","3","class_response","0","test","39","Gabbro","Gabbro","14","true","4","4","","","","","","","","","","","","","","",""
"","","","","","","","","","","","html-keyboard-response","84","2.0.0","1241861","667f52753697ee3c2bdb9976","3","14","null","","","","","","","","","<p style='font-size: 30px;'><strong>Okay</strong></p>","null","neutral_feedback","0","test","39","","","","","","","","","","","","","","","","","","","","",""
"","","","","","","","","","","","html-button-response","85","2.0.0","1267237","667f52753697ee3c2bdb9976","3","14","25375","","","","","","","","","<img src= ""rock_img/I_Pegmatite_13.jpg"" style=""width:8cm; height:4.95cm;""><p>What type of rock is this?</p>","5","class_response","0","test","40","Pegmatite","Pegmatite","13","true","6","6","","","","","","","","","","","","","","",""
"","","","","","","","","","","","html-keyboard-response","86","2.0.0","1267746","667f52753697ee3c2bdb9976","3","14","null","","","","","","","","","<p style='font-size: 30px;'><strong>Okay</strong></p>","null","neutral_feedback","0","test","40","","","","","","","","","","","","","","","","","","","","",""
"","","","","","","","","","","","html-button-response","87","2.0.0","1292281","667f52753697ee3c2bdb9976","3","14","24533","","","","","","","","","<img src= ""rock_img/I_Diorite_14.jpg"" style=""width:8cm; height:5.71cm;""><p>What type of rock is this?</p>","2","class_response","0","test","41","Diorite","Diorite","14","true","3","3","","","","","","","","","","","","","","",""
"","","","","","","","","","","","html-keyboard-response","88","2.0.0","1292790","667f52753697ee3c2bdb9976","3","14","null","","","","","","","","","<p style='font-size: 30px;'><strong>Okay</strong></p>","null","neutral_feedback","0","test","41","","","","","","","","","","","","","","","","","","","","",""
"","","","","","","","","","","","html-button-response","89","2.0.0","1294970","667f52753697ee3c2bdb9976","3","14","2179","","","","","","","","","<img src= ""rock_img/I_Pumice_06.jpg"" style=""width:8cm; height:6.9399999999999995cm;""><p>What type of rock is this?</p>","7","class_response","0","test","42","Pumice","Pumice","06","true","8","8","","","","","","","","","","","","","","",""
"","","","","","","","","","","","html-keyboard-response","90","2.0.0","1295471","667f52753697ee3c2bdb9976","3","14","null","","","","","","","","","<p style='font-size: 30px;'><strong>Okay</strong></p>","null","neutral_feedback","0","test","42","","","","","","","","","","","","","","","","","","","","",""
"","","","","","","","","","","","html-button-response","91","2.0.0","1302557","667f52753697ee3c2bdb9976","3","14","7085","","","","","","","","","<img src= ""rock_img/I_Gabbro_12.jpg"" style=""width:8cm; height:7.800000000000001cm;""><p>What type of rock is this?</p>","1","class_response","0","test","43","Basalt","Gabbro","12","false","2","4","","","","","","","","","","","","","","",""
"","","","","","","","","","","","html-keyboard-response","92","2.0.0","1303070","667f52753697ee3c2bdb9976","3","14","null","","","","","","","","","<p style='font-size: 30px;'><strong>Okay</strong></p>","null","neutral_feedback","0","test","43","","","","","","","","","","","","","","","","","","","","",""
"","","","","","","","","","","","html-button-response","93","2.0.0","1350073","667f52753697ee3c2bdb9976","3","14","47001","","","","","","","","","<img src= ""rock_img/I_Pegmatite_05.jpg"" style=""width:8cm; height:7.300000000000001cm;""><p>What type of rock is this?</p>","5","class_response","0","test","44","Pegmatite","Pegmatite","05","true","6","6","","","","","","","","","","","","","","",""
"","","","","","","","","","","","html-keyboard-response","94","2.0.0","1350586","667f52753697ee3c2bdb9976","3","14","null","","","","","","","","","<p style='font-size: 30px;'><strong>Okay</strong></p>","null","neutral_feedback","0","test","44","","","","","","","","","","","","","","","","","","","","",""
"","","","","","","","","","","","html-button-response","95","2.0.0","1352676","667f52753697ee3c2bdb9976","3","14","2089","","","","","","","","","<img src= ""rock_img/I_Obsidian_09.jpg"" style=""width:8cm; height:5cm;""><p>What type of rock is this?</p>","4","class_response","0","test","45","Obsidian","Obsidian","09","true","5","5","","","","","","","","","","","","","","",""
"","","","","","","","","","","","html-keyboard-response","96","2.0.0","1353180","667f52753697ee3c2bdb9976","3","14","null","","","","","","","","","<p style='font-size: 30px;'><strong>Okay</strong></p>","null","neutral_feedback","0","test","45","","","","","","","","","","","","","","","","","","","","",""
"","","","","","","","","","","","html-button-response","97","2.0.0","1359277","667f52753697ee3c2bdb9976","3","14","6095","","","","","","","","","<img src= ""rock_img/I_Andesite_03.jpg"" style=""width:8cm; height:5.73cm;""><p>What type of rock is this?</p>","6","class_response","0","test","46","Peridotite","Andesite","03","false","7","1","","","","","","","","","","","","","","",""
"","","","","","","","","","","","html-keyboard-response","98","2.0.0","1359790","667f52753697ee3c2bdb9976","3","14","null","","","","","","","","","<p style='font-size: 30px;'><strong>Okay</strong></p>","null","neutral_feedback","0","test","46","","","","","","","","","","","","","","","","","","","","",""
"","","","","","","","","","","","html-button-response","99","2.0.0","1367542","667f52753697ee3c2bdb9976","3","14","7752","","","","","","","","","<img src= ""rock_img/I_Diorite_10.jpg"" style=""width:8cm; height:5.949999999999999cm;""><p>What type of rock is this?</p>","0","class_response","0","test","47","Andesite","Diorite","10","false","1","3","","","","","","","","","","","","","","",""
"","","","","","","","","","","","html-keyboard-response","100","2.0.0","1368055","667f52753697ee3c2bdb9976","3","14","null","","","","","","","","","<p style='font-size: 30px;'><strong>Okay</strong></p>","null","neutral_feedback","0","test","47","","","","","","","","","","","","","","","","","","","","",""
"","","","","","","","","","","","html-button-response","101","2.0.0","1372972","667f52753697ee3c2bdb9976","3","14","4916","","","","","","","","","<img src= ""rock_img/I_Andesite_16.jpg"" style=""width:8cm; height:6.010000000000001cm;""><p>What type of rock is this?</p>","6","class_response","0","test","48","Peridotite","Andesite","16","false","7","1","","","","","","","","","","","","","","",""
"","","","","","","","","","","","html-keyboard-response","102","2.0.0","1373489","667f52753697ee3c2bdb9976","3","14","null","","","","","","","","","<p style='font-size: 30px;'><strong>Okay</strong></p>","null","neutral_feedback","0","test","48","","","","","","","","","","","","","","","","","","","","",""
"","","","","","","","","","","","instructions","103","2.0.0","1395052","667f52753697ee3c2bdb9976","3","14","21546","","","","","","","","[{""page_index"":0,""viewing_time"":18331},{""page_index"":1,""viewing_time"":3215}]","","","","","","","","","","","","","","","","","","","","","","","","","","",""
"","","","","","","","","","","","html-button-response","104","2.0.0","1397556","667f52753697ee3c2bdb9976","3","14","2503","","","","","","","","","","0","start_train","","","","","","","","","","","","","","","","","","","","","","","",""
"","","","","","","","","","","","html-button-response","106","2.0.0","1448838","667f52753697ee3c2bdb9976","3","14","51281","","","","","","","","","<img src= ""rock_img/I_Gabbro_03.jpg"" style=""width:8cm; height:8.52cm;""><p>What type of rock is this?</p>","2","class_response","1","train","1","Diorite","Gabbro","03","false","3","4","","","","","","","","","","","","","","",""
"","","","","","","","","","","","html-button-response","107","2.0.0","1478367","667f52753697ee3c2bdb9976","3","14","29527","","","","","","","","","<img src= rock_img/I_Gabbro_03.jpg style=""width:8cm; height:8.52cm;""><p style='font-size: 30px; color: red;'><strong>Incorrect!</strong></p><p style='font-size: 30px;'><strong>This rock is gabbro</strong></p>","0","corr_feedback","1","train","1","","","","","","","","","","","","","","","","","","","","",""
"","","","","","","","","","","","html-button-response","108","2.0.0","1506175","667f52753697ee3c2bdb9976","3","14","27808","","","","","","","","","<img src= ""rock_img/I_Pegmatite_07.jpg"" style=""width:8cm; height:6.7cm;""><p>What type of rock is this?</p>","5","class_response","1","train","2","Pegmatite","Pegmatite","07","true","6","6","","","","","","","","","","","","","","",""
"","","","","","","","","","","","html-button-response","109","2.0.0","1508131","667f52753697ee3c2bdb9976","3","14","1955","","","","","","","","","<img src= rock_img/I_Pegmatite_07.jpg style=""width:8cm; height:6.7cm;""><p style='font-size: 30px; color: green;'><strong>Correct!</strong></p><p style='font-size: 30px;'><strong>This rock is pegmatite</strong></p>","0","corr_feedback","1","train","2","","","","","","","","","","","","","","","","","","","","",""
"","","","","","","","","","","","html-button-response","110","2.0.0","1513361","667f52753697ee3c2bdb9976","3","14","5229","","","","","","","","","<img src= ""rock_img/I_Basalt_05.jpg"" style=""width:8cm; height:8.18cm;""><p>What type of rock is this?</p>","4","class_response","1","train","3","Obsidian","Basalt","05","false","5","2","","","","","","","","","","","","","","",""
"","","","","","","","","","","","html-button-response","111","2.0.0","1519391","667f52753697ee3c2bdb9976","3","14","6029","","","","","","","","","<img src= rock_img/I_Basalt_05.jpg style=""width:8cm; height:8.18cm;""><p style='font-size: 30px; color: red;'><strong>Incorrect!</strong></p><p style='font-size: 30px;'><strong>This rock is basalt</strong></p>","0","corr_feedback","1","train","3","","","","","","","","","","","","","","","","","","","","",""
"","","","","","","","","","","","html-button-response","112","2.0.0","1548836","667f52753697ee3c2bdb9976","3","14","29444","","","","","","","","","<img src= ""rock_img/I_Andesite_09.jpg"" style=""width:8cm; height:6cm;""><p>What type of rock is this?</p>","0","class_response","1","train","4","Andesite","Andesite","09","true","1","1","","","","","","","","","","","","","","",""
"","","","","","","","","","","","html-button-response","113","2.0.0","1550203","667f52753697ee3c2bdb9976","3","14","1366","","","","","","","","","<img src= rock_img/I_Andesite_09.jpg style=""width:8cm; height:6cm;""><p style='font-size: 30px; color: green;'><strong>Correct!</strong></p><p style='font-size: 30px;'><strong>This rock is andesite</strong></p>","0","corr_feedback","1","train","4","","","","","","","","","","","","","","","","","","","","",""
"","","","","","","","","","","","html-button-response","114","2.0.0","1580699","667f52753697ee3c2bdb9976","3","14","30495","","","","","","","","","<img src= ""rock_img/I_Diorite_09.jpg"" style=""width:8cm; height:5.27cm;""><p>What type of rock is this?</p>","2","class_response","1","train","5","Diorite","Diorite","09","true","3","3","","","","","","","","","","","","","","",""
"","","","","","","","","","","","html-button-response","115","2.0.0","1581720","667f52753697ee3c2bdb9976","3","14","1020","","","","","","","","","<img src= rock_img/I_Diorite_09.jpg style=""width:8cm; height:5.27cm;""><p style='font-size: 30px; color: green;'><strong>Correct!</strong></p><p style='font-size: 30px;'><strong>This rock is diorite</strong></p>","0","corr_feedback","1","train","5","","","","","","","","","","","","","","","","","","","","",""
"","","","","","","","","","","","html-button-response","116","2.0.0","1610150","667f52753697ee3c2bdb9976","3","14","28429","","","","","","","","","<img src= ""rock_img/I_Basalt_04.jpg"" style=""width:8cm; height:7.53cm;""><p>What type of rock is this?</p>","1","class_response","1","train","6","Basalt","Basalt","04","true","2","2","","","","","","","","","","","","","","",""
"","","","","","","","","","","","html-button-response","117","2.0.0","1611044","667f52753697ee3c2bdb9976","3","14","893","","","","","","","","","<img src= rock_img/I_Basalt_04.jpg style=""width:8cm; height:7.53cm;""><p style='font-size: 30px; color: green;'><strong>Correct!</strong></p><p style='font-size: 30px;'><strong>This rock is basalt</strong></p>","0","corr_feedback","1","train","6","","","","","","","","","","","","","","","","","","","","",""
"","","","","","","","","","","","html-button-response","118","2.0.0","1638752","667f52753697ee3c2bdb9976","3","14","27707","","","","","","","","","<img src= ""rock_img/I_Peridotite_04.jpg"" style=""width:8cm; height:6.680000000000001cm;""><p>What type of rock is this?</p>","6","class_response","1","train","7","Peridotite","Peridotite","04","true","7","7","","","","","","","","","","","","","","",""
"","","","","","","","","","","","html-button-response","119","2.0.0","1639532","667f52753697ee3c2bdb9976","3","14","780","","","","","","","","","<img src= rock_img/I_Peridotite_04.jpg style=""width:8cm; height:6.680000000000001cm;""><p style='font-size: 30px; color: green;'><strong>Correct!</strong></p><p style='font-size: 30px;'><strong>This rock is peridotite</strong></p>","0","corr_feedback","1","train","7","","","","","","","","","","","","","","","","","","","","",""
"","","","","","","","","","","","html-button-response","120","2.0.0","1669047","667f52753697ee3c2bdb9976","3","14","29514","","","","","","","","","<img src= ""rock_img/I_Obsidian_06.jpg"" style=""width:8cm; height:6.8cm;""><p>What type of rock is this?</p>","4","class_response","1","train","8","Obsidian","Obsidian","06","true","5","5","","","","","","","","","","","","","","",""
"","","","","","","","","","","","html-button-response","121","2.0.0","1669949","667f52753697ee3c2bdb9976","3","14","901","","","","","","","","","<img src= rock_img/I_Obsidian_06.jpg style=""width:8cm; height:6.8cm;""><p style='font-size: 30px; color: green;'><strong>Correct!</strong></p><p style='font-size: 30px;'><strong>This rock is obsidian</strong></p>","0","corr_feedback","1","train","8","","","","","","","","","","","","","","","","","","","","",""
"","","","","","","","","","","","html-button-response","122","2.0.0","1701855","667f52753697ee3c2bdb9976","3","14","31905","","","","","","","","","<img src= ""rock_img/I_Gabbro_15.jpg"" style=""width:8cm; height:6.29cm;""><p>What type of rock is this?</p>","2","class_response","1","train","9","Diorite","Gabbro","15","false","3","4","","","","","","","","","","","","","","",""
"","","","","","","","","","","","html-button-response","123","2.0.0","1722883","667f52753697ee3c2bdb9976","3","14","21028","","","","","","","","","<img src= rock_img/I_Gabbro_15.jpg style=""width:8cm; height:6.29cm;""><p style='font-size: 30px; color: red;'><strong>Incorrect!</strong></p><p style='font-size: 30px;'><strong>This rock is gabbro</strong></p>","0","corr_feedback","1","train","9","","","","","","","","","","","","","","","","","","","","",""
"","","","","","","","","","","","html-button-response","124","2.0.0","1734117","667f52753697ee3c2bdb9976","3","14","11233","","","","","","","","","<img src= ""rock_img/I_Andesite_04.jpg"" style=""width:8cm; height:5.96cm;""><p>What type of rock is this?</p>","0","class_response","1","train","10","Andesite","Andesite","04","true","1","1","","","","","","","","","","","","","","",""
"","","","","","","","","","","","html-button-response","125","2.0.0","1735288","667f52753697ee3c2bdb9976","3","14","1170","","","","","","","","","<img src= rock_img/I_Andesite_04.jpg style=""width:8cm; height:5.96cm;""><p style='font-size: 30px; color: green;'><strong>Correct!</strong></p><p style='font-size: 30px;'><strong>This rock is andesite</strong></p>","0","corr_feedback","1","train","10","","","","","","","","","","","","","","","","","","","","",""
"","","","","","","","","","","","html-button-response","126","2.0.0","1742623","667f52753697ee3c2bdb9976","3","14","7334","","","","","","","","","<img src= ""rock_img/I_Pegmatite_12.jpg"" style=""width:8cm; height:5.7cm;""><p>What type of rock is this?</p>","5","class_response","1","train","11","Pegmatite","Pegmatite","12","true","6","6","","","","","","","","","","","","","","",""
"","","","","","","","","","","","html-button-response","127","2.0.0","1743589","667f52753697ee3c2bdb9976","3","14","965","","","","","","","","","<img src= rock_img/I_Pegmatite_12.jpg style=""width:8cm; height:5.7cm;""><p style='font-size: 30px; color: green;'><strong>Correct!</strong></p><p style='font-size: 30px;'><strong>This rock is pegmatite</strong></p>","0","corr_feedback","1","train","11","","","","","","","","","","","","","","","","","","","","",""
"","","","","","","","","","","","html-button-response","128","2.0.0","1745809","667f52753697ee3c2bdb9976","3","14","2219","","","","","","","","","<img src= ""rock_img/I_Pumice_03.jpg"" style=""width:8cm; height:6.64cm;""><p>What type of rock is this?</p>","7","class_response","1","train","12","Pumice","Pumice","03","true","8","8","","","","","","","","","","","","","","",""
"","","","","","","","","","","","html-button-response","129","2.0.0","1746878","667f52753697ee3c2bdb9976","3","14","1068","","","","","","","","","<img src= rock_img/I_Pumice_03.jpg style=""width:8cm; height:6.64cm;""><p style='font-size: 30px; color: green;'><strong>Correct!</strong></p><p style='font-size: 30px;'><strong>This rock is pumice</strong></p>","0","corr_feedback","1","train","12","","","","","","","","","","","","","","","","","","","","",""
"","","","","","","","","","","","instructions","130","2.0.0","1787901","667f52753697ee3c2bdb9976","3","14","41023","","","","","","","","[{""page_index"":0,""viewing_time"":1878},{""page_index"":1,""viewing_time"":14661},{""page_index"":2,""viewing_time"":17592},{""page_index"":3,""viewing_time"":6892}]","","","","","","","","","","","","","","","","","","","","","","","","","","",""
"","","","","","","","","","","","html-button-response","131","2.0.0","1789126","667f52753697ee3c2bdb9976","3","14","1224","","","","","","","","","","0","start_train","","","","","","","","","","","","","","","","","","","","","","","",""
"","","","","","","","","","","","html-button-response","132","2.0.0","1813484","667f52753697ee3c2bdb9976","3","14","","","","","","","","","","","","cat_selection","1","train","1","","","","","","","2","4","24356.799999952316","Basalt","Gabbro","[0.20833333333333334,0.09722222222222221,0.09722222222222221,0.3194444444444445,0.041666666666666664,0.041666666666666664,0.041666666666666664,0.1527777777777778]","[0.6795609488510054,null,0.045478266145457004,0.05546724245954846,0.059487196342048666,0.04470675984477515,0.05785282115244631,0.05744676520471901]","","","","","","","",""
"","","","","","","","","","","","paired-cat-display","133","1.0.0","2028051","667f52753697ee3c2bdb9976","3","14","","","","","","","","","","","","paired_cat_display","1","train","1","","","","","","","","","36740.39999997616","","","","","Fine grain texture, dark gray to black, dense","course grain texture, dark color, crystalline","177824","","","","",""
"","","","","","","","","","","","html-button-response","134","2.0.0","2037522","667f52753697ee3c2bdb9976","3","14","","","","","","","","","","","","cat_selection","1","train","2","","","","","","","1","7","9469.399999976158","Andesite","Peridotite","[0.20833333333333334,0.09722222222222221,0.09722222222222221,0.3194444444444445,0.041666666666666664,0.041666666666666664,0.041666666666666664,0.1527777777777778]","[null,0.05496030698730767,0.044163660014689896,0.05448154164644045,0.059552545971136045,0.04477921545294773,0.6802922302343655,0.06177049969311272]","","","","","","","",""
"","","","","","","","","","","","paired-cat-display","135","1.0.0","2237639","667f52753697ee3c2bdb9976","3","14","","","","","","","","","","","","paired_cat_display","1","train","2","","","","","","","","","18219.30000001192","","","","","","","181895.19999998808","fine grain, gray to black, large crystals","dark gray to black, course grain, ","","",""
"","","","","","","","","","","","html-button-response","136","2.0.0","2241591","667f52753697ee3c2bdb9976","3","14","","","","","","","","","","","","cat_selection","1","train","3","","","","","","","1","8","3951.099999964237","Andesite","Pumice","[0.20833333333333334,0.09722222222222221,0.09722222222222221,0.3194444444444445,0.041666666666666664,0.041666666666666664,0.041666666666666664,0.1527777777777778]","[null,0.05496030698730767,0.044163660014689896,0.05448154164644045,0.059552545971136045,0.04477921545294773,0.6802922302343655,0.06177049969311272]","","","","","","","",""
"","","","","","","","","","","","paired-cat-display","137","1.0.0","2370858","667f52753697ee3c2bdb9976","3","14","","","","","","","","","","","","paired_cat_display","1","train","3","","","","","","","","","24344.5","","","","","","","104920.5","fine grain. light to dark gray ","","vesicular texture, light color, bubbles ","",""
"","","","","","","","","","","","instructions","138","2.0.0","2396396","667f52753697ee3c2bdb9976","3","14","25537","","","","","","","","[{""page_index"":0,""viewing_time"":10287},{""page_index"":1,""viewing_time"":15250}]","","","","","","","","","","","","","","","","","","","","","","","","","","",""
"","","","","","","","","","","","html-button-response","139","2.0.0","2397706","667f52753697ee3c2bdb9976","3","14","1310","","","","","","","","","","0","start_test","","","","","","","","","","","","","","","","","","","","","","","",""
"","","","","","","","","","","","html-button-response","140","2.0.0","2433836","667f52753697ee3c2bdb9976","3","14","36129","","","","","","","","","<img src= ""rock_img/I_Basalt_10.jpg"" style=""width:8cm; height:5.85cm;""><p>What type of rock is this?</p>","1","class_response","1","test","1","Basalt","Basalt","10","true","2","2","","","","","","","","","","","","","","",""
"","","","","","","","","","","","html-keyboard-response","141","2.0.0","2434338","667f52753697ee3c2bdb9976","3","14","null","","","","","","","","","<p style='font-size: 30px;'><strong>Okay</strong></p>","null","neutral_feedback","1","test","1","","","","","","","","","","","","","","","","","","","","",""
"","","","","","","","","","","","html-button-response","142","2.0.0","2472675","667f52753697ee3c2bdb9976","3","14","38337","","","","","","","","","<img src= ""rock_img/I_Pegmatite_03.jpg"" style=""width:8cm; height:5.239999999999999cm;""><p>What type of rock is this?</p>","5","class_response","1","test","2","Pegmatite","Pegmatite","03","true","6","6","","","","","","","","","","","","","","",""
"","","","","","","","","","","","html-keyboard-response","143","2.0.0","2473187","667f52753697ee3c2bdb9976","3","14","null","","","","","","","","","<p style='font-size: 30px;'><strong>Okay</strong></p>","null","neutral_feedback","1","test","2","","","","","","","","","","","","","","","","","","","","",""
"","","","","","","","","","","","html-button-response","144","2.0.0","2482942","667f52753697ee3c2bdb9976","3","14","9754","","","","","","","","","<img src= ""rock_img/I_Gabbro_14.jpg"" style=""width:8cm; height:8.48cm;""><p>What type of rock is this?</p>","3","class_response","1","test","3","Gabbro","Gabbro","14","true","4","4","","","","","","","","","","","","","","",""
"","","","","","","","","","","","html-keyboard-response","145","2.0.0","2483457","667f52753697ee3c2bdb9976","3","14","null","","","","","","","","","<p style='font-size: 30px;'><strong>Okay</strong></p>","null","neutral_feedback","1","test","3","","","","","","","","","","","","","","","","","","","","",""
"","","","","","","","","","","","html-button-response","146","2.0.0","2485991","667f52753697ee3c2bdb9976","3","14","2533","","","","","","","","","<img src= ""rock_img/I_Pumice_05.jpg"" style=""width:8cm; height:7.25cm;""><p>What type of rock is this?</p>","7","class_response","1","test","4","Pumice","Pumice","05","true","8","8","","","","","","","","","","","","","","",""
"","","","","","","","","","","","html-keyboard-response","147","2.0.0","2486504","667f52753697ee3c2bdb9976","3","14","null","","","","","","","","","<p style='font-size: 30px;'><strong>Okay</strong></p>","null","neutral_feedback","1","test","4","","","","","","","","","","","","","","","","","","","","",""
"","","","","","","","","","","","html-button-response","148","2.0.0","2497165","667f52753697ee3c2bdb9976","3","14","10660","","","","","","","","","<img src= ""rock_img/I_Basalt_06.jpg"" style=""width:8cm; height:7.06cm;""><p>What type of rock is this?</p>","1","class_response","1","test","5","Basalt","Basalt","06","true","2","2","","","","","","","","","","","","","","",""
"","","","","","","","","","","","html-keyboard-response","149","2.0.0","2497672","667f52753697ee3c2bdb9976","3","14","null","","","","","","","","","<p style='font-size: 30px;'><strong>Okay</strong></p>","null","neutral_feedback","1","test","5","","","","","","","","","","","","","","","","","","","","",""
"","","","","","","","","","","","html-button-response","150","2.0.0","2514531","667f52753697ee3c2bdb9976","3","14","16858","","","","","","","","","<img src= ""rock_img/I_Peridotite_14.jpg"" style=""width:8cm; height:5.3cm;""><p>What type of rock is this?</p>","6","class_response","1","test","6","Peridotite","Peridotite","14","true","7","7","","","","","","","","","","","","","","",""
"","","","","","","","","","","","html-keyboard-response","151","2.0.0","2515038","667f52753697ee3c2bdb9976","3","14","null","","","","","","","","","<p style='font-size: 30px;'><strong>Okay</strong></p>","null","neutral_feedback","1","test","6","","","","","","","","","","","","","","","","","","","","",""
"","","","","","","","","","","","html-button-response","152","2.0.0","2532265","667f52753697ee3c2bdb9976","3","14","17226","","","","","","","","","<img src= ""rock_img/I_Basalt_16.jpg"" style=""width:8cm; height:7.659999999999999cm;""><p>What type of rock is this?</p>","0","class_response","1","test","7","Andesite","Basalt","16","false","1","2","","","","","","","","","","","","","","",""
"","","","","","","","","","","","html-keyboard-response","153","2.0.0","2532771","667f52753697ee3c2bdb9976","3","14","null","","","","","","","","","<p style='font-size: 30px;'><strong>Okay</strong></p>","null","neutral_feedback","1","test","7","","","","","","","","","","","","","","","","","","","","",""
"","","","","","","","","","","","html-button-response","154","2.0.0","2536018","667f52753697ee3c2bdb9976","3","14","3246","","","","","","","","","<img src= ""rock_img/I_Pumice_06.jpg"" style=""width:8cm; height:6.9399999999999995cm;""><p>What type of rock is this?</p>","7","class_response","1","test","8","Pumice","Pumice","06","true","8","8","","","","","","","","","","","","","","",""
"","","","","","","","","","","","html-keyboard-response","155","2.0.0","2536522","667f52753697ee3c2bdb9976","3","14","null","","","","","","","","","<p style='font-size: 30px;'><strong>Okay</strong></p>","null","neutral_feedback","1","test","8","","","","","","","","","","","","","","","","","","","","",""
"","","","","","","","","","","","html-button-response","156","2.0.0","2551592","667f52753697ee3c2bdb9976","3","14","15069","","","","","","","","","<img src= ""rock_img/I_Obsidian_07.jpg"" style=""width:8cm; height:4.76cm;""><p>What type of rock is this?</p>","4","class_response","1","test","9","Obsidian","Obsidian","07","true","5","5","","","","","","","","","","","","","","",""
"","","","","","","","","","","","html-keyboard-response","157","2.0.0","2552104","667f52753697ee3c2bdb9976","3","14","null","","","","","","","","","<p style='font-size: 30px;'><strong>Okay</strong></p>","null","neutral_feedback","1","test","9","","","","","","","","","","","","","","","","","","","","",""
"","","","","","","","","","","","html-button-response","158","2.0.0","2567834","667f52753697ee3c2bdb9976","3","14","15729","","","","","","","","","<img src= ""rock_img/I_Gabbro_05.jpg"" style=""width:8cm; height:6cm;""><p>What type of rock is this?</p>","2","class_response","1","test","10","Diorite","Gabbro","05","false","3","4","","","","","","","","","","","","","","",""
"","","","","","","","","","","","html-keyboard-response","159","2.0.0","2568338","667f52753697ee3c2bdb9976","3","14","null","","","","","","","","","<p style='font-size: 30px;'><strong>Okay</strong></p>","null","neutral_feedback","1","test","10","","","","","","","","","","","","","","","","","","","","",""
"","","","","","","","","","","","html-button-response","160","2.0.0","2583389","667f52753697ee3c2bdb9976","3","14","15050","","","","","","","","","<img src= ""rock_img/I_Pegmatite_13.jpg"" style=""width:8cm; height:4.95cm;""><p>What type of rock is this?</p>","5","class_response","1","test","11","Pegmatite","Pegmatite","13","true","6","6","","","","","","","","","","","","","","",""
"","","","","","","","","","","","html-keyboard-response","161","2.0.0","2583904","667f52753697ee3c2bdb9976","3","14","null","","","","","","","","","<p style='font-size: 30px;'><strong>Okay</strong></p>","null","neutral_feedback","1","test","11","","","","","","","","","","","","","","","","","","","","",""
"","","","","","","","","","","","html-button-response","162","2.0.0","2613597","667f52753697ee3c2bdb9976","3","14","29692","","","","","","","","","<img src= ""rock_img/I_Pegmatite_08.jpg"" style=""width:8cm; height:7.68cm;""><p>What type of rock is this?</p>","5","class_response","1","test","12","Pegmatite","Pegmatite","08","true","6","6","","","","","","","","","","","","","","",""
"","","","","","","","","","","","html-keyboard-response","163","2.0.0","2614104","667f52753697ee3c2bdb9976","3","14","null","","","","","","","","","<p style='font-size: 30px;'><strong>Okay</strong></p>","null","neutral_feedback","1","test","12","","","","","","","","","","","","","","","","","","","","",""
"","","","","","","","","","","","html-button-response","164","2.0.0","2627705","667f52753697ee3c2bdb9976","3","14","13599","","","","","","","","","<img src= ""rock_img/I_Basalt_02.jpg"" style=""width:8cm; height:6.45cm;""><p>What type of rock is this?</p>","1","class_response","1","test","13","Basalt","Basalt","02","true","2","2","","","","","","","","","","","","","","",""
"","","","","","","","","","","","html-keyboard-response","165","2.0.0","2628220","667f52753697ee3c2bdb9976","3","14","null","","","","","","","","","<p style='font-size: 30px;'><strong>Okay</strong></p>","null","neutral_feedback","1","test","13","","","","","","","","","","","","","","","","","","","","",""
"","","","","","","","","","","","html-button-response","166","2.0.0","2690578","667f52753697ee3c2bdb9976","3","14","62356","","","","","","","","","<img src= ""rock_img/I_Pegmatite_09.jpg"" style=""width:8cm; height:4.03cm;""><p>What type of rock is this?</p>","5","class_response","1","test","14","Pegmatite","Pegmatite","09","true","6","6","","","","","","","","","","","","","","",""
"","","","","","","","","","","","html-keyboard-response","167","2.0.0","2691088","667f52753697ee3c2bdb9976","3","14","null","","","","","","","","","<p style='font-size: 30px;'><strong>Okay</strong></p>","null","neutral_feedback","1","test","14","","","","","","","","","","","","","","","","","","","","",""
"","","","","","","","","","","","html-button-response","168","2.0.0","2740130","667f52753697ee3c2bdb9976","3","14","49040","","","","","","","","","<img src= ""rock_img/I_Diorite_11.jpg"" style=""width:8cm; height:7.11cm;""><p>What type of rock is this?</p>","2","class_response","1","test","15","Diorite","Diorite","11","true","3","3","","","","","","","","","","","","","","",""
"","","","","","","","","","","","html-keyboard-response","169","2.0.0","2740639","667f52753697ee3c2bdb9976","3","14","null","","","","","","","","","<p style='font-size: 30px;'><strong>Okay</strong></p>","null","neutral_feedback","1","test","15","","","","","","","","","","","","","","","","","","","","",""
"","","","","","","","","","","","html-button-response","170","2.0.0","2742469","667f52753697ee3c2bdb9976","3","14","1829","","","","","","","","","<img src= ""rock_img/I_Obsidian_12.jpg"" style=""width:8cm; height:6.53cm;""><p>What type of rock is this?</p>","4","class_response","1","test","16","Obsidian","Obsidian","12","true","5","5","","","","","","","","","","","","","","",""
"","","","","","","","","","","","html-keyboard-response","171","2.0.0","2742971","667f52753697ee3c2bdb9976","3","14","null","","","","","","","","","<p style='font-size: 30px;'><strong>Okay</strong></p>","null","neutral_feedback","1","test","16","","","","","","","","","","","","","","","","","","","","",""
"","","","","","","","","","","","html-button-response","172","2.0.0","2760864","667f52753697ee3c2bdb9976","3","14","17893","","","","","","","","","<img src= ""rock_img/I_Peridotite_10.jpg"" style=""width:8cm; height:5.390000000000001cm;""><p>What type of rock is this?</p>","6","class_response","1","test","17","Peridotite","Peridotite","10","true","7","7","","","","","","","","","","","","","","",""
"","","","","","","","","","","","html-keyboard-response","173","2.0.0","2761371","667f52753697ee3c2bdb9976","3","14","null","","","","","","","","","<p style='font-size: 30px;'><strong>Okay</strong></p>","null","neutral_feedback","1","test","17","","","","","","","","","","","","","","","","","","","","",""
"","","","","","","","","","","","html-button-response","174","2.0.0","2789232","667f52753697ee3c2bdb9976","3","14","27860","","","","","","","","","<img src= ""rock_img/I_Diorite_12.jpg"" style=""width:8cm; height:4.88cm;""><p>What type of rock is this?</p>","2","class_response","1","test","18","Diorite","Diorite","12","true","3","3","","","","","","","","","","","","","","",""
"","","","","","","","","","","","html-keyboard-response","175","2.0.0","2789737","667f52753697ee3c2bdb9976","3","14","null","","","","","","","","","<p style='font-size: 30px;'><strong>Okay</strong></p>","null","neutral_feedback","1","test","18","","","","","","","","","","","","","","","","","","","","",""
"","","","","","","","","","","","html-button-response","176","2.0.0","2792160","667f52753697ee3c2bdb9976","3","14","2422","","","","","","","","","<img src= ""rock_img/I_Obsidian_09.jpg"" style=""width:8cm; height:5cm;""><p>What type of rock is this?</p>","4","class_response","1","test","19","Obsidian","Obsidian","09","true","5","5","","","","","","","","","","","","","","",""
"","","","","","","","","","","","html-keyboard-response","177","2.0.0","2792669","667f52753697ee3c2bdb9976","3","14","null","","","","","","","","","<p style='font-size: 30px;'><strong>Okay</strong></p>","null","neutral_feedback","1","test","19","","","","","","","","","","","","","","","","","","","","",""
"","","","","","","","","","","","html-button-response","178","2.0.0","2794083","667f52753697ee3c2bdb9976","3","14","1412","","","","","","","","","<img src= ""rock_img/I_Pumice_09.jpg"" style=""width:8cm; height:6.44cm;""><p>What type of rock is this?</p>","7","class_response","1","test","20","Pumice","Pumice","09","true","8","8","","","","","","","","","","","","","","",""
"","","","","","","","","","","","html-keyboard-response","179","2.0.0","2794588","667f52753697ee3c2bdb9976","3","14","null","","","","","","","","","<p style='font-size: 30px;'><strong>Okay</strong></p>","null","neutral_feedback","1","test","20","","","","","","","","","","","","","","","","","","","","",""
"","","","","","","","","","","","html-button-response","180","2.0.0","2804923","667f52753697ee3c2bdb9976","3","14","10334","","","","","","","","","<img src= ""rock_img/I_Diorite_16.jpg"" style=""width:8cm; height:6.74cm;""><p>What type of rock is this?</p>","2","class_response","1","test","21","Diorite","Diorite","16","true","3","3","","","","","","","","","","","","","","",""
"","","","","","","","","","","","html-keyboard-response","181","2.0.0","2805436","667f52753697ee3c2bdb9976","3","14","null","","","","","","","","","<p style='font-size: 30px;'><strong>Okay</strong></p>","null","neutral_feedback","1","test","21","","","","","","","","","","","","","","","","","","","","",""
"","","","","","","","","","","","html-button-response","182","2.0.0","2827517","667f52753697ee3c2bdb9976","3","14","22080","","","","","","","","","<img src= ""rock_img/I_Diorite_10.jpg"" style=""width:8cm; height:5.949999999999999cm;""><p>What type of rock is this?</p>","6","class_response","1","test","22","Peridotite","Diorite","10","false","7","3","","","","","","","","","","","","","","",""
"","","","","","","","","","","","html-keyboard-response","183","2.0.0","2828021","667f52753697ee3c2bdb9976","3","14","null","","","","","","","","","<p style='font-size: 30px;'><strong>Okay</strong></p>","null","neutral_feedback","1","test","22","","","","","","","","","","","","","","","","","","","","",""
"","","","","","","","","","","","html-button-response","184","2.0.0","2848434","667f52753697ee3c2bdb9976","3","14","20412","","","","","","","","","<img src= ""rock_img/I_Andesite_14.jpg"" style=""width:8cm; height:5.449999999999999cm;""><p>What type of rock is this?</p>","0","class_response","1","test","23","Andesite","Andesite","14","true","1","1","","","","","","","","","","","","","","",""
"","","","","","","","","","","","html-keyboard-response","185","2.0.0","2848937","667f52753697ee3c2bdb9976","3","14","null","","","","","","","","","<p style='font-size: 30px;'><strong>Okay</strong></p>","null","neutral_feedback","1","test","23","","","","","","","","","","","","","","","","","","","","",""
"","","","","","","","","","","","html-button-response","186","2.0.0","2862291","667f52753697ee3c2bdb9976","3","14","13353","","","","","","","","","<img src= ""rock_img/I_Pegmatite_16.jpg"" style=""width:8cm; height:5.8cm;""><p>What type of rock is this?</p>","5","class_response","1","test","24","Pegmatite","Pegmatite","16","true","6","6","","","","","","","","","","","","","","",""
"","","","","","","","","","","","html-keyboard-response","187","2.0.0","2862807","667f52753697ee3c2bdb9976","3","14","null","","","","","","","","","<p style='font-size: 30px;'><strong>Okay</strong></p>","null","neutral_feedback","1","test","24","","","","","","","","","","","","","","","","","","","","",""
"","","","","","","","","","","","html-button-response","188","2.0.0","2919931","667f52753697ee3c2bdb9976","3","14","57124","","","","","","","","","<img src= ""rock_img/I_Pumice_15.jpg"" style=""width:8cm; height:7.86cm;""><p>What type of rock is this?</p>","7","class_response","1","test","25","Pumice","Pumice","15","true","8","8","","","","","","","","","","","","","","",""
"","","","","","","","","","","","html-keyboard-response","189","2.0.0","2920437","667f52753697ee3c2bdb9976","3","14","null","","","","","","","","","<p style='font-size: 30px;'><strong>Okay</strong></p>","null","neutral_feedback","1","test","25","","","","","","","","","","","","","","","","","","","","",""
"","","","","","","","","","","","html-button-response","190","2.0.0","2945316","667f52753697ee3c2bdb9976","3","14","24878","","","","","","","","","<img src= ""rock_img/I_Gabbro_16.jpg"" style=""width:8cm; height:6.44cm;""><p>What type of rock is this?</p>","1","class_response","1","test","26","Basalt","Gabbro","16","false","2","4","","","","","","","","","","","","","","",""
"","","","","","","","","","","","html-keyboard-response","191","2.0.0","2945822","667f52753697ee3c2bdb9976","3","14","null","","","","","","","","","<p style='font-size: 30px;'><strong>Okay</strong></p>","null","neutral_feedback","1","test","26","","","","","","","","","","","","","","","","","","","","",""
"","","","","","","","","","","","html-button-response","192","2.0.0","2954315","667f52753697ee3c2bdb9976","3","14","8492","","","","","","","","","<img src= ""rock_img/I_Andesite_16.jpg"" style=""width:8cm; height:6.010000000000001cm;""><p>What type of rock is this?</p>","6","class_response","1","test","27","Peridotite","Andesite","16","false","7","1","","","","","","","","","","","","","","",""
"","","","","","","","","","","","html-keyboard-response","193","2.0.0","2954820","667f52753697ee3c2bdb9976","3","14","null","","","","","","","","","<p style='font-size: 30px;'><strong>Okay</strong></p>","null","neutral_feedback","1","test","27","","","","","","","","","","","","","","","","","","","","",""
"","","","","","","","","","","","html-button-response","194","2.0.0","2963156","667f52753697ee3c2bdb9976","3","14","8334","","","","","","","","","<img src= ""rock_img/I_Gabbro_08.jpg"" style=""width:8cm; height:5.15cm;""><p>What type of rock is this?</p>","6","class_response","1","test","28","Peridotite","Gabbro","08","false","7","4","","","","","","","","","","","","","","",""
"","","","","","","","","","","","html-keyboard-response","195","2.0.0","2963671","667f52753697ee3c2bdb9976","3","14","null","","","","","","","","","<p style='font-size: 30px;'><strong>Okay</strong></p>","null","neutral_feedback","1","test","28","","","","","","","","","","","","","","","","","","","","",""
"","","","","","","","","","","","html-button-response","196","2.0.0","2972944","667f52753697ee3c2bdb9976","3","14","9272","","","","","","","","","<img src= ""rock_img/I_Peridotite_15.jpg"" style=""width:8cm; height:6cm;""><p>What type of rock is this?</p>","6","class_response","1","test","29","Peridotite","Peridotite","15","true","7","7","","","","","","","","","","","","","","",""
"","","","","","","","","","","","html-keyboard-response","197","2.0.0","2973454","667f52753697ee3c2bdb9976","3","14","null","","","","","","","","","<p style='font-size: 30px;'><strong>Okay</strong></p>","null","neutral_feedback","1","test","29","","","","","","","","","","","","","","","","","","","","",""
"","","","","","","","","","","","html-button-response","198","2.0.0","2983280","667f52753697ee3c2bdb9976","3","14","9825","","","","","","","","","<img src= ""rock_img/I_Basalt_09.jpg"" style=""width:8cm; height:6.2cm;""><p>What type of rock is this?</p>","1","class_response","1","test","30","Basalt","Basalt","09","true","2","2","","","","","","","","","","","","","","",""
"","","","","","","","","","","","html-keyboard-response","199","2.0.0","2983787","667f52753697ee3c2bdb9976","3","14","null","","","","","","","","","<p style='font-size: 30px;'><strong>Okay</strong></p>","null","neutral_feedback","1","test","30","","","","","","","","","","","","","","","","","","","","",""
"","","","","","","","","","","","html-button-response","200","2.0.0","3000008","667f52753697ee3c2bdb9976","3","14","16220","","","","","","","","","<img src= ""rock_img/I_Peridotite_16.jpg"" style=""width:8cm; height:6.989999999999999cm;""><p>What type of rock is this?</p>","6","class_response","1","test","31","Peridotite","Peridotite","16","true","7","7","","","","","","","","","","","","","","",""
"","","","","","","","","","","","html-keyboard-response","201","2.0.0","3000519","667f52753697ee3c2bdb9976","3","14","null","","","","","","","","","<p style='font-size: 30px;'><strong>Okay</strong></p>","null","neutral_feedback","1","test","31","","","","","","","","","","","","","","","","","","","","",""
"","","","","","","","","","","","html-button-response","202","2.0.0","3002615","667f52753697ee3c2bdb9976","3","14","2094","","","","","","","","","<img src= ""rock_img/I_Pumice_04.jpg"" style=""width:8cm; height:6.819999999999999cm;""><p>What type of rock is this?</p>","7","class_response","1","test","32","Pumice","Pumice","04","true","8","8","","","","","","","","","","","","","","",""
"","","","","","","","","","","","html-keyboard-response","203","2.0.0","3003120","667f52753697ee3c2bdb9976","3","14","null","","","","","","","","","<p style='font-size: 30px;'><strong>Okay</strong></p>","null","neutral_feedback","1","test","32","","","","","","","","","","","","","","","","","","","","",""
"","","","","","","","","","","","html-button-response","204","2.0.0","3011336","667f52753697ee3c2bdb9976","3","14","8215","","","","","","","","","<img src= ""rock_img/I_Andesite_02.jpg"" style=""width:8cm; height:8.5cm;""><p>What type of rock is this?</p>","0","class_response","1","test","33","Andesite","Andesite","02","true","1","1","","","","","","","","","","","","","","",""
"","","","","","","","","","","","html-keyboard-response","205","2.0.0","3011837","667f52753697ee3c2bdb9976","3","14","null","","","","","","","","","<p style='font-size: 30px;'><strong>Okay</strong></p>","null","neutral_feedback","1","test","33","","","","","","","","","","","","","","","","","","","","",""
"","","","","","","","","","","","html-button-response","206","2.0.0","3026343","667f52753697ee3c2bdb9976","3","14","14504","","","","","","","","","<img src= ""rock_img/I_Basalt_08.jpg"" style=""width:8cm; height:10.44cm;""><p>What type of rock is this?</p>","1","class_response","1","test","34","Basalt","Basalt","08","true","2","2","","","","","","","","","","","","","","",""
"","","","","","","","","","","","html-keyboard-response","207","2.0.0","3026854","667f52753697ee3c2bdb9976","3","14","null","","","","","","","","","<p style='font-size: 30px;'><strong>Okay</strong></p>","null","neutral_feedback","1","test","34","","","","","","","","","","","","","","","","","","","","",""
"","","","","","","","","","","","html-button-response","208","2.0.0","3039695","667f52753697ee3c2bdb9976","3","14","12840","","","","","","","","","<img src= ""rock_img/I_Andesite_05.jpg"" style=""width:8cm; height:4.12cm;""><p>What type of rock is this?</p>","3","class_response","1","test","35","Gabbro","Andesite","05","false","4","1","","","","","","","","","","","","","","",""
"","","","","","","","","","","","html-keyboard-response","209","2.0.0","3040207","667f52753697ee3c2bdb9976","3","14","null","","","","","","","","","<p style='font-size: 30px;'><strong>Okay</strong></p>","null","neutral_feedback","1","test","35","","","","","","","","","","","","","","","","","","","","",""
"","","","","","","","","","","","html-button-response","210","2.0.0","3059788","667f52753697ee3c2bdb9976","3","14","19580","","","","","","","","","<img src= ""rock_img/I_Diorite_14.jpg"" style=""width:8cm; height:5.71cm;""><p>What type of rock is this?</p>","0","class_response","1","test","36","Andesite","Diorite","14","false","1","3","","","","","","","","","","","","","","",""
"","","","","","","","","","","","html-keyboard-response","211","2.0.0","3060303","667f52753697ee3c2bdb9976","3","14","null","","","","","","","","","<p style='font-size: 30px;'><strong>Okay</strong></p>","null","neutral_feedback","1","test","36","","","","","","","","","","","","","","","","","","","","",""
"","","","","","","","","","","","html-button-response","212","2.0.0","3087871","667f52753697ee3c2bdb9976","3","14","27567","","","","","","","","","<img src= ""rock_img/I_Andesite_11.jpg"" style=""width:8cm; height:4.92cm;""><p>What type of rock is this?</p>","0","class_response","1","test","37","Andesite","Andesite","11","true","1","1","","","","","","","","","","","","","","",""
"","","","","","","","","","","","html-keyboard-response","213","2.0.0","3088385","667f52753697ee3c2bdb9976","3","14","null","","","","","","","","","<p style='font-size: 30px;'><strong>Okay</strong></p>","null","neutral_feedback","1","test","37","","","","","","","","","","","","","","","","","","","","",""
"","","","","","","","","","","","html-button-response","214","2.0.0","3098276","667f52753697ee3c2bdb9976","3","14","9890","","","","","","","","","<img src= ""rock_img/I_Diorite_06.jpg"" style=""width:8cm; height:6.03cm;""><p>What type of rock is this?</p>","2","class_response","1","test","38","Diorite","Diorite","06","true","3","3","","","","","","","","","","","","","","",""
"","","","","","","","","","","","html-keyboard-response","215","2.0.0","3098786","667f52753697ee3c2bdb9976","3","14","null","","","","","","","","","<p style='font-size: 30px;'><strong>Okay</strong></p>","null","neutral_feedback","1","test","38","","","","","","","","","","","","","","","","","","","","",""
"","","","","","","","","","","","html-button-response","216","2.0.0","3118972","667f52753697ee3c2bdb9976","3","14","20185","","","","","","","","","<img src= ""rock_img/I_Peridotite_05.jpg"" style=""width:8cm; height:7.1499999999999995cm;""><p>What type of rock is this?</p>","6","class_response","1","test","39","Peridotite","Peridotite","05","true","7","7","","","","","","","","","","","","","","",""
"","","","","","","","","","","","html-keyboard-response","217","2.0.0","3119486","667f52753697ee3c2bdb9976","3","14","null","","","","","","","","","<p style='font-size: 30px;'><strong>Okay</strong></p>","null","neutral_feedback","1","test","39","","","","","","","","","","","","","","","","","","","","",""
"","","","","","","","","","","","html-button-response","218","2.0.0","3125291","667f52753697ee3c2bdb9976","3","14","5805","","","","","","","","","<img src= ""rock_img/I_Andesite_03.jpg"" style=""width:8cm; height:5.73cm;""><p>What type of rock is this?</p>","0","class_response","1","test","40","Andesite","Andesite","03","true","1","1","","","","","","","","","","","","","","",""
"","","","","","","","","","","","html-keyboard-response","219","2.0.0","3125802","667f52753697ee3c2bdb9976","3","14","null","","","","","","","","","<p style='font-size: 30px;'><strong>Okay</strong></p>","null","neutral_feedback","1","test","40","","","","","","","","","","","","","","","","","","","","",""
"","","","","","","","","","","","html-button-response","220","2.0.0","3131235","667f52753697ee3c2bdb9976","3","14","5432","","","","","","","","","<img src= ""rock_img/I_Peridotite_13.jpg"" style=""width:8cm; height:7.58cm;""><p>What type of rock is this?</p>","6","class_response","1","test","41","Peridotite","Peridotite","13","true","7","7","","","","","","","","","","","","","","",""
"","","","","","","","","","","","html-keyboard-response","221","2.0.0","3131737","667f52753697ee3c2bdb9976","3","14","null","","","","","","","","","<p style='font-size: 30px;'><strong>Okay</strong></p>","null","neutral_feedback","1","test","41","","","","","","","","","","","","","","","","","","","","",""
"","","","","","","","","","","","html-button-response","222","2.0.0","3146227","667f52753697ee3c2bdb9976","3","14","14489","","","","","","","","","<img src= ""rock_img/I_Obsidian_05.jpg"" style=""width:8cm; height:6.33cm;""><p>What type of rock is this?</p>","4","class_response","1","test","42","Obsidian","Obsidian","05","true","5","5","","","","","","","","","","","","","","",""
"","","","","","","","","","","","html-keyboard-response","223","2.0.0","3146736","667f52753697ee3c2bdb9976","3","14","null","","","","","","","","","<p style='font-size: 30px;'><strong>Okay</strong></p>","null","neutral_feedback","1","test","42","","","","","","","","","","","","","","","","","","","","",""
"","","","","","","","","","","","html-button-response","224","2.0.0","3158871","667f52753697ee3c2bdb9976","3","14","12134","","","","","","","","","<img src= ""rock_img/I_Pegmatite_05.jpg"" style=""width:8cm; height:7.300000000000001cm;""><p>What type of rock is this?</p>","5","class_response","1","test","43","Pegmatite","Pegmatite","05","true","6","6","","","","","","","","","","","","","","",""
"","","","","","","","","","","","html-keyboard-response","225","2.0.0","3159372","667f52753697ee3c2bdb9976","3","14","null","","","","","","","","","<p style='font-size: 30px;'><strong>Okay</strong></p>","null","neutral_feedback","1","test","43","","","","","","","","","","","","","","","","","","","","",""
"","","","","","","","","","","","html-button-response","226","2.0.0","3173088","667f52753697ee3c2bdb9976","3","14","13715","","","","","","","","","<img src= ""rock_img/I_Gabbro_12.jpg"" style=""width:8cm; height:7.800000000000001cm;""><p>What type of rock is this?</p>","2","class_response","1","test","44","Diorite","Gabbro","12","false","3","4","","","","","","","","","","","","","","",""
"","","","","","","","","","","","html-keyboard-response","227","2.0.0","3173602","667f52753697ee3c2bdb9976","3","14","null","","","","","","","","","<p style='font-size: 30px;'><strong>Okay</strong></p>","null","neutral_feedback","1","test","44","","","","","","","","","","","","","","","","","","","","",""
"","","","","","","","","","","","html-button-response","228","2.0.0","3193113","667f52753697ee3c2bdb9976","3","14","19510","","","","","","","","","<img src= ""rock_img/I_Pumice_16.jpg"" style=""width:8cm; height:6.79cm;""><p>What type of rock is this?</p>","7","class_response","1","test","45","Pumice","Pumice","16","true","8","8","","","","","","","","","","","","","","",""
"","","","","","","","","","","","html-keyboard-response","229","2.0.0","3193620","667f52753697ee3c2bdb9976","3","14","null","","","","","","","","","<p style='font-size: 30px;'><strong>Okay</strong></p>","null","neutral_feedback","1","test","45","","","","","","","","","","","","","","","","","","","","",""
"","","","","","","","","","","","html-button-response","230","2.0.0","3195145","667f52753697ee3c2bdb9976","3","14","1524","","","","","","","","","<img src= ""rock_img/I_Obsidian_10.jpg"" style=""width:8cm; height:6.260000000000001cm;""><p>What type of rock is this?</p>","4","class_response","1","test","46","Obsidian","Obsidian","10","true","5","5","","","","","","","","","","","","","","",""
"","","","","","","","","","","","html-keyboard-response","231","2.0.0","3195654","667f52753697ee3c2bdb9976","3","14","null","","","","","","","","","<p style='font-size: 30px;'><strong>Okay</strong></p>","null","neutral_feedback","1","test","46","","","","","","","","","","","","","","","","","","","","",""
"","","","","","","","","","","","html-button-response","232","2.0.0","3196424","667f52753697ee3c2bdb9976","3","14","769","","","","","","","","","<img src= ""rock_img/I_Obsidian_02.jpg"" style=""width:8cm; height:7.51cm;""><p>What type of rock is this?</p>","4","class_response","1","test","47","Obsidian","Obsidian","02","true","5","5","","","","","","","","","","","","","","",""
"","","","","","","","","","","","html-keyboard-response","233","2.0.0","3196937","667f52753697ee3c2bdb9976","3","14","null","","","","","","","","","<p style='font-size: 30px;'><strong>Okay</strong></p>","null","neutral_feedback","1","test","47","","","","","","","","","","","","","","","","","","","","",""
"","","","","","","","","","","","html-button-response","234","2.0.0","3200410","667f52753697ee3c2bdb9976","3","14","3472","","","","","","","","","<img src= ""rock_img/I_Gabbro_10.jpg"" style=""width:8cm; height:5.680000000000001cm;""><p>What type of rock is this?</p>","1","class_response","1","test","48","Basalt","Gabbro","10","false","2","4","","","","","","","","","","","","","","",""
"","","","","","","","","","","","html-keyboard-response","235","2.0.0","3200920","667f52753697ee3c2bdb9976","3","14","null","","","","","","","","","<p style='font-size: 30px;'><strong>Okay</strong></p>","null","neutral_feedback","1","test","48","","","","","","","","","","","","","","","","","","","","",""
"","","","","","","","","","","","html-button-response","236","2.0.0","3224805","667f52753697ee3c2bdb9976","3","14","","","","","","","","","","","","cycle_feedback","","","","","","","","","","","","","","","","","","","","","","","10984.699999988079","12895.899999976158"
"","","","","","","","","","","","html-button-response","238","2.0.0","3227873","667f52753697ee3c2bdb9976","3","14","3067","","","","","","","","","","0","start_train","","","","","","","","","","","","","","","","","","","","","","","",""
"","","","","","","","","","","","html-button-response","240","2.0.0","3230221","667f52753697ee3c2bdb9976","3","14","2347","","","","","","","","","<img src= ""rock_img/I_Obsidian_06.jpg"" style=""width:8cm; height:6.8cm;""><p>What type of rock is this?</p>","4","class_response","2","train","1","Obsidian","Obsidian","06","true","5","5","","","","","","","","","","","","","","",""
"","","","","","","","","","","","html-button-response","241","2.0.0","3231619","667f52753697ee3c2bdb9976","3","14","1397","","","","","","","","","<img src= rock_img/I_Obsidian_06.jpg style=""width:8cm; height:6.8cm;""><p style='font-size: 30px; color: green;'><strong>Correct!</strong></p><p style='font-size: 30px;'><strong>This rock is obsidian</strong></p>","0","corr_feedback","2","train","1","","","","","","","","","","","","","","","","","","","","",""
"","","","","","","","","","","","html-button-response","242","2.0.0","3260805","667f52753697ee3c2bdb9976","3","14","29186","","","","","","","","","<img src= ""rock_img/I_Peridotite_07.jpg"" style=""width:8cm; height:4.83cm;""><p>What type of rock is this?</p>","6","class_response","2","train","2","Peridotite","Peridotite","07","true","7","7","","","","","","","","","","","","","","",""
"","","","","","","","","","","","html-button-response","243","2.0.0","3261618","667f52753697ee3c2bdb9976","3","14","812","","","","","","","","","<img src= rock_img/I_Peridotite_07.jpg style=""width:8cm; height:4.83cm;""><p style='font-size: 30px; color: green;'><strong>Correct!</strong></p><p style='font-size: 30px;'><strong>This rock is peridotite</strong></p>","0","corr_feedback","2","train","2","","","","","","","","","","","","","","","","","","","","",""
"","","","","","","","","","","","html-button-response","244","2.0.0","3292829","667f52753697ee3c2bdb9976","3","14","31210","","","","","","","","","<img src= ""rock_img/I_Gabbro_15.jpg"" style=""width:8cm; height:6.29cm;""><p>What type of rock is this?</p>","2","class_response","2","train","3","Diorite","Gabbro","15","false","3","4","","","","","","","","","","","","","","",""
"","","","","","","","","","","","html-button-response","245","2.0.0","3294242","667f52753697ee3c2bdb9976","3","14","1413","","","","","","","","","<img src= rock_img/I_Gabbro_15.jpg style=""width:8cm; height:6.29cm;""><p style='font-size: 30px; color: red;'><strong>Incorrect!</strong></p><p style='font-size: 30px;'><strong>This rock is gabbro</strong></p>","0","corr_feedback","2","train","3","","","","","","","","","","","","","","","","","","","","",""
"","","","","","","","","","","","html-button-response","246","2.0.0","3303717","667f52753697ee3c2bdb9976","3","14","9474","","","","","","","","","<img src= ""rock_img/I_Andesite_09.jpg"" style=""width:8cm; height:6cm;""><p>What type of rock is this?</p>","1","class_response","2","train","4","Basalt","Andesite","09","false","2","1","","","","","","","","","","","","","","",""
"","","","","","","","","","","","html-button-response","247","2.0.0","3304736","667f52753697ee3c2bdb9976","3","14","1019","","","","","","","","","<img src= rock_img/I_Andesite_09.jpg style=""width:8cm; height:6cm;""><p style='font-size: 30px; color: red;'><strong>Incorrect!</strong></p><p style='font-size: 30px;'><strong>This rock is andesite</strong></p>","0","corr_feedback","2","train","4","","","","","","","","","","","","","","","","","","","","",""
"","","","","","","","","","","","html-button-response","248","2.0.0","3305972","667f52753697ee3c2bdb9976","3","14","1235","","","","","","","","","<img src= ""rock_img/I_Obsidian_16.jpg"" style=""width:8cm; height:9.3cm;""><p>What type of rock is this?</p>","4","class_response","2","train","5","Obsidian","Obsidian","16","true","5","5","","","","","","","","","","","","","","",""
"","","","","","","","","","","","html-button-response","249","2.0.0","3306894","667f52753697ee3c2bdb9976","3","14","921","","","","","","","","","<img src= rock_img/I_Obsidian_16.jpg style=""width:8cm; height:9.3cm;""><p style='font-size: 30px; color: green;'><strong>Correct!</strong></p><p style='font-size: 30px;'><strong>This rock is obsidian</strong></p>","0","corr_feedback","2","train","5","","","","","","","","","","","","","","","","","","","","",""
"","","","","","","","","","","","html-button-response","250","2.0.0","3309010","667f52753697ee3c2bdb9976","3","14","2115","","","","","","","","","<img src= ""rock_img/I_Pumice_03.jpg"" style=""width:8cm; height:6.64cm;""><p>What type of rock is this?</p>","7","class_response","2","train","6","Pumice","Pumice","03","true","8","8","","","","","","","","","","","","","","",""
"","","","","","","","","","","","html-button-response","251","2.0.0","3309783","667f52753697ee3c2bdb9976","3","14","771","","","","","","","","","<img src= rock_img/I_Pumice_03.jpg style=""width:8cm; height:6.64cm;""><p style='font-size: 30px; color: green;'><strong>Correct!</strong></p><p style='font-size: 30px;'><strong>This rock is pumice</strong></p>","0","corr_feedback","2","train","6","","","","","","","","","","","","","","","","","","","","",""
"","","","","","","","","","","","html-button-response","252","2.0.0","3318890","667f52753697ee3c2bdb9976","3","14","9107","","","","","","","","","<img src= ""rock_img/I_Peridotite_04.jpg"" style=""width:8cm; height:6.680000000000001cm;""><p>What type of rock is this?</p>","6","class_response","2","train","7","Peridotite","Peridotite","04","true","7","7","","","","","","","","","","","","","","",""
"","","","","","","","","","","","html-button-response","253","2.0.0","3319604","667f52753697ee3c2bdb9976","3","14","713","","","","","","","","","<img src= rock_img/I_Peridotite_04.jpg style=""width:8cm; height:6.680000000000001cm;""><p style='font-size: 30px; color: green;'><strong>Correct!</strong></p><p style='font-size: 30px;'><strong>This rock is peridotite</strong></p>","0","corr_feedback","2","train","7","","","","","","","","","","","","","","","","","","","","",""
"","","","","","","","","","","","html-button-response","254","2.0.0","3339190","667f52753697ee3c2bdb9976","3","14","19585","","","","","","","","","<img src= ""rock_img/I_Basalt_04.jpg"" style=""width:8cm; height:7.53cm;""><p>What type of rock is this?</p>","3","class_response","2","train","8","Gabbro","Basalt","04","false","4","2","","","","","","","","","","","","","","",""
"","","","","","","","","","","","html-button-response","255","2.0.0","3340196","667f52753697ee3c2bdb9976","3","14","1005","","","","","","","","","<img src= rock_img/I_Basalt_04.jpg style=""width:8cm; height:7.53cm;""><p style='font-size: 30px; color: red;'><strong>Incorrect!</strong></p><p style='font-size: 30px;'><strong>This rock is basalt</strong></p>","0","corr_feedback","2","train","8","","","","","","","","","","","","","","","","","","","","",""
"","","","","","","","","","","","html-button-response","256","2.0.0","3356705","667f52753697ee3c2bdb9976","3","14","16508","","","","","","","","","<img src= ""rock_img/I_Diorite_08.jpg"" style=""width:8cm; height:6.37cm;""><p>What type of rock is this?</p>","0","class_response","2","train","9","Andesite","Diorite","08","false","1","3","","","","","","","","","","","","","","",""
"","","","","","","","","","","","html-button-response","257","2.0.0","3357730","667f52753697ee3c2bdb9976","3","14","1025","","","","","","","","","<img src= rock_img/I_Diorite_08.jpg style=""width:8cm; height:6.37cm;""><p style='font-size: 30px; color: red;'><strong>Incorrect!</strong></p><p style='font-size: 30px;'><strong>This rock is diorite</strong></p>","0","corr_feedback","2","train","9","","","","","","","","","","","","","","","","","","","","",""
"","","","","","","","","","","","html-button-response","258","2.0.0","3359113","667f52753697ee3c2bdb9976","3","14","1382","","","","","","","","","<img src= ""rock_img/I_Pumice_14.jpg"" style=""width:8cm; height:6.39cm;""><p>What type of rock is this?</p>","7","class_response","2","train","10","Pumice","Pumice","14","true","8","8","","","","","","","","","","","","","","",""
"","","","","","","","","","","","html-button-response","259","2.0.0","3359927","667f52753697ee3c2bdb9976","3","14","814","","","","","","","","","<img src= rock_img/I_Pumice_14.jpg style=""width:8cm; height:6.39cm;""><p style='font-size: 30px; color: green;'><strong>Correct!</strong></p><p style='font-size: 30px;'><strong>This rock is pumice</strong></p>","0","corr_feedback","2","train","10","","","","","","","","","","","","","","","","","","","","",""
"","","","","","","","","","","","html-button-response","260","2.0.0","3379397","667f52753697ee3c2bdb9976","3","14","19469","","","","","","","","","<img src= ""rock_img/I_Pegmatite_12.jpg"" style=""width:8cm; height:5.7cm;""><p>What type of rock is this?</p>","5","class_response","2","train","11","Pegmatite","Pegmatite","12","true","6","6","","","","","","","","","","","","","","",""
"","","","","","","","","","","","html-button-response","261","2.0.0","3380136","667f52753697ee3c2bdb9976","3","14","737","","","","","","","","","<img src= rock_img/I_Pegmatite_12.jpg style=""width:8cm; height:5.7cm;""><p style='font-size: 30px; color: green;'><strong>Correct!</strong></p><p style='font-size: 30px;'><strong>This rock is pegmatite</strong></p>","0","corr_feedback","2","train","11","","","","","","","","","","","","","","","","","","","","",""
"","","","","","","","","","","","html-button-response","262","2.0.0","3385798","667f52753697ee3c2bdb9976","3","14","5662","","","","","","","","","<img src= ""rock_img/I_Diorite_09.jpg"" style=""width:8cm; height:5.27cm;""><p>What type of rock is this?</p>","2","class_response","2","train","12","Diorite","Diorite","09","true","3","3","","","","","","","","","","","","","","",""
"","","","","","","","","","","","html-button-response","263","2.0.0","3386491","667f52753697ee3c2bdb9976","3","14","691","","","","","","","","","<img src= rock_img/I_Diorite_09.jpg style=""width:8cm; height:5.27cm;""><p style='font-size: 30px; color: green;'><strong>Correct!</strong></p><p style='font-size: 30px;'><strong>This rock is diorite</strong></p>","0","corr_feedback","2","train","12","","","","","","","","","","","","","","","","","","","","",""
"","","","","","","","","","","","html-button-response","265","2.0.0","3387896","667f52753697ee3c2bdb9976","3","14","1405","","","","","","","","","","0","start_train","","","","","","","","","","","","","","","","","","","","","","","",""
"","","","","","","","","","","","html-button-response","266","2.0.0","3391012","667f52753697ee3c2bdb9976","3","14","","","","","","","","","","","","cat_selection","2","train","1","","","","","","","2","4","3114.300000011921","Basalt","Gabbro","[0.18666221940566405,0.10444592686477865,0.14159640788364034,0.3431794739842728,0.04476254008490514,0.04476254008490514,0.04476254008490514,0.08982835160692884]","[0.841857044786451,null,0.022444416123572838,0.027374171807857582,0.02935809787592339,0.022063662635762225,0.028551501671482495,0.028351105098950592]","","","","","","","",""
"","","","","","","","","","","","paired-cat-display","267","1.0.0","3657957","667f52753697ee3c2bdb9976","3","14","","","","","","","","","","","","paired_cat_display","2","train","1","","","","","","","","","6400.100000023842","","","","","fine grain, dark gray to black , small air pockets","black to dark green, coarse grain , mottled appearance ","260547.09999996424","","","","",""
"","","","","","","","","","","","html-button-response","268","2.0.0","3661191","667f52753697ee3c2bdb9976","3","14","","","","","","","","","","","","cat_selection","2","train","2","","","","","","","1","7","3233.099999964237","Andesite","Peridotite","[0.18666221940566405,0.10444592686477865,0.14159640788364034,0.3431794739842728,0.04476254008490514,0.04476254008490514,0.04476254008490514,0.08982835160692884]","[null,0.027123989211837285,0.021795632220000808,0.2801279046558634,0.029390349199315248,0.02209942089917338,0.588977750960968,0.030484952852841835]","","","","","","","",""
"","","","","","","","","","","","paired-cat-display","269","1.0.0","3782459","667f52753697ee3c2bdb9976","3","14","","","","","","","","","","","","paired_cat_display","2","train","2","","","","","","","","","6931.100000023842","","","","","","","114330.60000002384","gray to light gray, fine grain, crystals","green to dark green, coarse grain, ","","",""
"","","","","","","","","","","","html-button-response","270","2.0.0","3784522","667f52753697ee3c2bdb9976","3","14","","","","","","","","","","","","cat_selection","2","train","3","","","","","","","1","2","2061.7000000476837","Andesite","Basalt","[0.18666221940566405,0.10444592686477865,0.14159640788364034,0.3431794739842728,0.04476254008490514,0.04476254008490514,0.04476254008490514,0.08982835160692884]","[null,0.027123989211837285,0.021795632220000808,0.2801279046558634,0.029390349199315248,0.02209942089917338,0.588977750960968,0.030484952852841835]","","","","","","","",""
"","","","","","","","","","","","paired-cat-display","271","1.0.0","3976286","667f52753697ee3c2bdb9976","3","14","","","","","","","","","","","","paired_cat_display","2","train","3","","","","","","","","","6124.699999988079","","","","","dark color, fine grain, bubbles","","185638.09999996424","gray to light gray, fine grain, ","","","",""
"","","","","","","","","","","","html-button-response","273","2.0.0","3978936","667f52753697ee3c2bdb9976","3","14","2649","","","","","","","","","","0","start_test","","","","","","","","","","","","","","","","","","","","","","","",""
"","","","","","","","","","","","html-button-response","274","2.0.0","4018410","667f52753697ee3c2bdb9976","3","14","39473","","","","","","","","","<img src= ""rock_img/I_Gabbro_16.jpg"" style=""width:8cm; height:6.44cm;""><p>What type of rock is this?</p>","1","class_response","2","test","1","Basalt","Gabbro","16","false","2","4","","","","","","","","","","","","","","",""
"","","","","","","","","","","","html-keyboard-response","275","2.0.0","4018912","667f52753697ee3c2bdb9976","3","14","null","","","","","","","","","<p style='font-size: 30px;'><strong>Okay</strong></p>","null","neutral_feedback","2","test","1","","","","","","","","","","","","","","","","","","","","",""
"","","","","","","","","","","","html-button-response","276","2.0.0","4020171","667f52753697ee3c2bdb9976","3","14","1258","","","","","","","","","<img src= ""rock_img/I_Obsidian_10.jpg"" style=""width:8cm; height:6.260000000000001cm;""><p>What type of rock is this?</p>","4","class_response","2","test","2","Obsidian","Obsidian","10","true","5","5","","","","","","","","","","","","","","",""
"","","","","","","","","","","","html-keyboard-response","277","2.0.0","4020683","667f52753697ee3c2bdb9976","3","14","null","","","","","","","","","<p style='font-size: 30px;'><strong>Okay</strong></p>","null","neutral_feedback","2","test","2","","","","","","","","","","","","","","","","","","","","",""
"","","","","","","","","","","","html-button-response","278","2.0.0","4030695","667f52753697ee3c2bdb9976","3","14","10011","","","","","","","","","<img src= ""rock_img/I_Peridotite_16.jpg"" style=""width:8cm; height:6.989999999999999cm;""><p>What type of rock is this?</p>","6","class_response","2","test","3","Peridotite","Peridotite","16","true","7","7","","","","","","","","","","","","","","",""
"","","","","","","","","","","","html-keyboard-response","279","2.0.0","4031201","667f52753697ee3c2bdb9976","3","14","null","","","","","","","","","<p style='font-size: 30px;'><strong>Okay</strong></p>","null","neutral_feedback","2","test","3","","","","","","","","","","","","","","","","","","","","",""
