width,height,webaudio,browser,browser_version,mobile,os,fullscreen,vsync_rate,webcam,microphone,trial_type,trial_index,plugin_version,time_elapsed,subjID,condition,stimID,rt,url,success,value,timeout,failed_images,failed_audio,failed_video,view_history,stimulus,response,trialType,cycle,phase,trial,resp,cat,token,corr,resp_num,cat_num,time_fb1,time_fb2
1003,527,TRUE,firefox,115.0.0,FALSE,Mac OS,TRUE,60.61,TRUE,TRUE,browser-check,0,2.0.0,13021,5ba5d8b960f3d50001697104,2,9,,,,,,,,,,,,,,,,,,,,,,,
,,,,,,,,,,,external-html,1,2.0.0,111332,5ba5d8b960f3d50001697104,2,9,98205,consent_form.html,,,,,,,,,,,,,,,,,,,,,
,,,,,,,,,,,fullscreen,2,2.0.0,140311,5ba5d8b960f3d50001697104,2,9,27968,,TRUE,,,,,,,,,,,,,,,,,,,,
,,,,,,,,,,,call-function,3,2.0.0,140315,5ba5d8b960f3d50001697104,2,9,,,,{},,,,,,,,,,,,,,,,,,,
,,,,,,,,,,,preload,4,2.0.0,196649,5ba5d8b960f3d50001697104,2,9,,,TRUE,,FALSE,[],[],[],,,,,,,,,,,,,,,
,,,,,,,,,,,instructions,5,2.0.0,297629,5ba5d8b960f3d50001697104,2,9,100977,,,,,,,,"[{""page_index"":0,""viewing_time"":33352},{""page_index"":1,""viewing_time"":46175},{""page_index"":2,""viewing_time"":21450}]",,,,,,,,,,,,,,
,,,,,,,,,,,html-button-response,6,2.0.0,304282,5ba5d8b960f3d50001697104,2,9,6651,,,,,,,,,,0,start_test,,,,,,,,,,,
,,,,,,,,,,,html-button-response,7,2.0.0,335616,5ba5d8b960f3d50001697104,2,9,31329,,,,,,,,,"<img src= ""rock_img/I_Andesite_06.jpg"" style=""width:8cm; height:6.840000000000001cm;""><p>What type of rock is this?</p>",2,class_response,0,test,1,Diorite,Andesite,6,FALSE,3,1,,
,,,,,,,,,,,html-keyboard-response,8,2.0.0,336122,5ba5d8b960f3d50001697104,2,9,null,,,,,,,,,<p style='font-size: 30px;'><strong>Okay</strong></p>,null,neutral_feedback,0,test,1,,,,,,,,
,,,,,,,,,,,html-button-response,9,2.0.0,362253,5ba5d8b960f3d50001697104,2,9,26128,,,,,,,,,"<img src= ""rock_img/I_Obsidian_02.jpg"" style=""width:8cm; height:7.51cm;""><p>What type of rock is this?</p>",4,class_response,0,test,2,Obsidian,Obsidian,2,TRUE,5,5,,
,,,,,,,,,,,html-keyboard-response,10,2.0.0,362756,5ba5d8b960f3d50001697104,2,9,null,,,,,,,,,<p style='font-size: 30px;'><strong>Okay</strong></p>,null,neutral_feedback,0,test,2,,,,,,,,
,,,,,,,,,,,html-button-response,11,2.0.0,386119,5ba5d8b960f3d50001697104,2,9,23360,,,,,,,,,"<img src= ""rock_img/I_Obsidian_06.jpg"" style=""width:8cm; height:6.8cm;""><p>What type of rock is this?</p>",0,class_response,0,test,3,Andesite,Obsidian,6,FALSE,1,5,,
,,,,,,,,,,,html-keyboard-response,12,2.0.0,386627,5ba5d8b960f3d50001697104,2,9,null,,,,,,,,,<p style='font-size: 30px;'><strong>Okay</strong></p>,null,neutral_feedback,0,test,3,,,,,,,,
,,,,,,,,,,,html-button-response,13,2.0.0,403748,5ba5d8b960f3d50001697104,2,9,17119,,,,,,,,,"<img src= ""rock_img/I_Diorite_02.jpg"" style=""width:8cm; height:6.27cm;""><p>What type of rock is this?</p>",1,class_response,0,test,4,Basalt,Diorite,2,FALSE,2,3,,
,,,,,,,,,,,html-keyboard-response,14,2.0.0,404253,5ba5d8b960f3d50001697104,2,9,null,,,,,,,,,<p style='font-size: 30px;'><strong>Okay</strong></p>,null,neutral_feedback,0,test,4,,,,,,,,
,,,,,,,,,,,html-button-response,15,2.0.0,422162,5ba5d8b960f3d50001697104,2,9,17906,,,,,,,,,"<img src= ""rock_img/I_Pegmatite_03.jpg"" style=""width:8cm; height:5.239999999999999cm;""><p>What type of rock is this?</p>",5,class_response,0,test,5,Pegmatite,Pegmatite,3,TRUE,6,6,,
,,,,,,,,,,,html-keyboard-response,16,2.0.0,422667,5ba5d8b960f3d50001697104,2,9,null,,,,,,,,,<p style='font-size: 30px;'><strong>Okay</strong></p>,null,neutral_feedback,0,test,5,,,,,,,,
,,,,,,,,,,,html-button-response,17,2.0.0,438592,5ba5d8b960f3d50001697104,2,9,15922,,,,,,,,,"<img src= ""rock_img/I_Pumice_16.jpg"" style=""width:8cm; height:6.79cm;""><p>What type of rock is this?</p>",7,class_response,0,test,6,Pumice,Pumice,16,TRUE,8,8,,
,,,,,,,,,,,html-keyboard-response,18,2.0.0,439097,5ba5d8b960f3d50001697104,2,9,null,,,,,,,,,<p style='font-size: 30px;'><strong>Okay</strong></p>,null,neutral_feedback,0,test,6,,,,,,,,
,,,,,,,,,,,html-button-response,19,2.0.0,449085,5ba5d8b960f3d50001697104,2,9,9986,,,,,,,,,"<img src= ""rock_img/I_Andesite_07.jpg"" style=""width:8cm; height:5.93cm;""><p>What type of rock is this?</p>",6,class_response,0,test,7,Peridotite,Andesite,7,FALSE,7,1,,
,,,,,,,,,,,html-keyboard-response,20,2.0.0,449589,5ba5d8b960f3d50001697104,2,9,null,,,,,,,,,<p style='font-size: 30px;'><strong>Okay</strong></p>,null,neutral_feedback,0,test,7,,,,,,,,
,,,,,,,,,,,html-button-response,21,2.0.0,469725,5ba5d8b960f3d50001697104,2,9,20133,,,,,,,,,"<img src= ""rock_img/I_Andesite_11.jpg"" style=""width:8cm; height:4.92cm;""><p>What type of rock is this?</p>",3,class_response,0,test,8,Gabbro,Andesite,11,FALSE,4,1,,
,,,,,,,,,,,html-keyboard-response,22,2.0.0,470226,5ba5d8b960f3d50001697104,2,9,null,,,,,,,,,<p style='font-size: 30px;'><strong>Okay</strong></p>,null,neutral_feedback,0,test,8,,,,,,,,
,,,,,,,,,,,html-button-response,23,2.0.0,492212,5ba5d8b960f3d50001697104,2,9,21983,,,,,,,,,"<img src= ""rock_img/I_Pegmatite_16.jpg"" style=""width:8cm; height:5.8cm;""><p>What type of rock is this?</p>",6,class_response,0,test,9,Peridotite,Pegmatite,16,FALSE,7,6,,
,,,,,,,,,,,html-keyboard-response,24,2.0.0,492718,5ba5d8b960f3d50001697104,2,9,null,,,,,,,,,<p style='font-size: 30px;'><strong>Okay</strong></p>,null,neutral_feedback,0,test,9,,,,,,,,
,,,,,,,,,,,html-button-response,25,2.0.0,511911,5ba5d8b960f3d50001697104,2,9,19192,,,,,,,,,"<img src= ""rock_img/I_Pegmatite_05.jpg"" style=""width:8cm; height:7.300000000000001cm;""><p>What type of rock is this?</p>",5,class_response,0,test,10,Pegmatite,Pegmatite,5,TRUE,6,6,,
,,,,,,,,,,,html-keyboard-response,26,2.0.0,512414,5ba5d8b960f3d50001697104,2,9,null,,,,,,,,,<p style='font-size: 30px;'><strong>Okay</strong></p>,null,neutral_feedback,0,test,10,,,,,,,,
,,,,,,,,,,,html-button-response,27,2.0.0,528641,5ba5d8b960f3d50001697104,2,9,16226,,,,,,,,,"<img src= ""rock_img/I_Diorite_10.jpg"" style=""width:8cm; height:5.949999999999999cm;""><p>What type of rock is this?</p>",1,class_response,0,test,11,Basalt,Diorite,10,FALSE,2,3,,
,,,,,,,,,,,html-keyboard-response,28,2.0.0,529147,5ba5d8b960f3d50001697104,2,9,null,,,,,,,,,<p style='font-size: 30px;'><strong>Okay</strong></p>,null,neutral_feedback,0,test,11,,,,,,,,
,,,,,,,,,,,html-button-response,29,2.0.0,537736,5ba5d8b960f3d50001697104,2,9,8587,,,,,,,,,"<img src= ""rock_img/I_Pumice_03.jpg"" style=""width:8cm; height:6.64cm;""><p>What type of rock is this?</p>",7,class_response,0,test,12,Pumice,Pumice,3,TRUE,8,8,,
,,,,,,,,,,,html-keyboard-response,30,2.0.0,538238,5ba5d8b960f3d50001697104,2,9,null,,,,,,,,,<p style='font-size: 30px;'><strong>Okay</strong></p>,null,neutral_feedback,0,test,12,,,,,,,,
,,,,,,,,,,,html-button-response,31,2.0.0,551760,5ba5d8b960f3d50001697104,2,9,13521,,,,,,,,,"<img src= ""rock_img/I_Gabbro_13.jpg"" style=""width:8cm; height:5.08cm;""><p>What type of rock is this?</p>",0,class_response,0,test,13,Andesite,Gabbro,13,FALSE,1,4,,
,,,,,,,,,,,html-keyboard-response,32,2.0.0,552263,5ba5d8b960f3d50001697104,2,9,null,,,,,,,,,<p style='font-size: 30px;'><strong>Okay</strong></p>,null,neutral_feedback,0,test,13,,,,,,,,
,,,,,,,,,,,html-button-response,33,2.0.0,580594,5ba5d8b960f3d50001697104,2,9,28329,,,,,,,,,"<img src= ""rock_img/I_Pumice_10.jpg"" style=""width:8cm; height:7.609999999999999cm;""><p>What type of rock is this?</p>",7,class_response,0,test,14,Pumice,Pumice,10,TRUE,8,8,,
,,,,,,,,,,,html-keyboard-response,34,2.0.0,581100,5ba5d8b960f3d50001697104,2,9,null,,,,,,,,,<p style='font-size: 30px;'><strong>Okay</strong></p>,null,neutral_feedback,0,test,14,,,,,,,,
,,,,,,,,,,,html-button-response,35,2.0.0,609038,5ba5d8b960f3d50001697104,2,9,27936,,,,,,,,,"<img src= ""rock_img/I_Basalt_10.jpg"" style=""width:8cm; height:5.85cm;""><p>What type of rock is this?</p>",1,class_response,0,test,15,Basalt,Basalt,10,TRUE,2,2,,
,,,,,,,,,,,html-keyboard-response,36,2.0.0,609542,5ba5d8b960f3d50001697104,2,9,null,,,,,,,,,<p style='font-size: 30px;'><strong>Okay</strong></p>,null,neutral_feedback,0,test,15,,,,,,,,
,,,,,,,,,,,html-button-response,37,2.0.0,628902,5ba5d8b960f3d50001697104,2,9,19359,,,,,,,,,"<img src= ""rock_img/I_Peridotite_08.jpg"" style=""width:8cm; height:6.7cm;""><p>What type of rock is this?</p>",6,class_response,0,test,16,Peridotite,Peridotite,8,TRUE,7,7,,
,,,,,,,,,,,html-keyboard-response,38,2.0.0,629407,5ba5d8b960f3d50001697104,2,9,null,,,,,,,,,<p style='font-size: 30px;'><strong>Okay</strong></p>,null,neutral_feedback,0,test,16,,,,,,,,
,,,,,,,,,,,html-button-response,39,2.0.0,650700,5ba5d8b960f3d50001697104,2,9,21293,,,,,,,,,"<img src= ""rock_img/I_Peridotite_02.jpg"" style=""width:8cm; height:5.859999999999999cm;""><p>What type of rock is this?</p>",2,class_response,0,test,17,Diorite,Peridotite,2,FALSE,3,7,,
,,,,,,,,,,,html-keyboard-response,40,2.0.0,651203,5ba5d8b960f3d50001697104,2,9,null,,,,,,,,,<p style='font-size: 30px;'><strong>Okay</strong></p>,null,neutral_feedback,0,test,17,,,,,,,,
,,,,,,,,,,,html-button-response,41,2.0.0,657078,5ba5d8b960f3d50001697104,2,9,5874,,,,,,,,,"<img src= ""rock_img/I_Pegmatite_10.jpg"" style=""width:8cm; height:4.16cm;""><p>What type of rock is this?</p>",6,class_response,0,test,18,Peridotite,Pegmatite,10,FALSE,7,6,,
,,,,,,,,,,,html-keyboard-response,42,2.0.0,657581,5ba5d8b960f3d50001697104,2,9,null,,,,,,,,,<p style='font-size: 30px;'><strong>Okay</strong></p>,null,neutral_feedback,0,test,18,,,,,,,,
,,,,,,,,,,,html-button-response,43,2.0.0,675301,5ba5d8b960f3d50001697104,2,9,17719,,,,,,,,,"<img src= ""rock_img/I_Pegmatite_15.jpg"" style=""width:8cm; height:6cm;""><p>What type of rock is this?</p>",5,class_response,0,test,19,Pegmatite,Pegmatite,15,TRUE,6,6,,
,,,,,,,,,,,html-keyboard-response,44,2.0.0,675804,5ba5d8b960f3d50001697104,2,9,null,,,,,,,,,<p style='font-size: 30px;'><strong>Okay</strong></p>,null,neutral_feedback,0,test,19,,,,,,,,
,,,,,,,,,,,html-button-response,45,2.0.0,691695,5ba5d8b960f3d50001697104,2,9,15889,,,,,,,,,"<img src= ""rock_img/I_Basalt_12.jpg"" style=""width:8cm; height:6.010000000000001cm;""><p>What type of rock is this?</p>",7,class_response,0,test,20,Pumice,Basalt,12,FALSE,8,2,,
,,,,,,,,,,,html-keyboard-response,46,2.0.0,692197,5ba5d8b960f3d50001697104,2,9,null,,,,,,,,,<p style='font-size: 30px;'><strong>Okay</strong></p>,null,neutral_feedback,0,test,20,,,,,,,,
,,,,,,,,,,,html-button-response,47,2.0.0,702812,5ba5d8b960f3d50001697104,2,9,10614,,,,,,,,,"<img src= ""rock_img/I_Andesite_14.jpg"" style=""width:8cm; height:5.449999999999999cm;""><p>What type of rock is this?</p>",5,class_response,0,test,21,Pegmatite,Andesite,14,FALSE,6,1,,
,,,,,,,,,,,html-keyboard-response,48,2.0.0,703315,5ba5d8b960f3d50001697104,2,9,null,,,,,,,,,<p style='font-size: 30px;'><strong>Okay</strong></p>,null,neutral_feedback,0,test,21,,,,,,,,
,,,,,,,,,,,html-button-response,49,2.0.0,723403,5ba5d8b960f3d50001697104,2,9,20086,,,,,,,,,"<img src= ""rock_img/I_Basalt_06.jpg"" style=""width:8cm; height:7.06cm;""><p>What type of rock is this?</p>",1,class_response,0,test,22,Basalt,Basalt,6,TRUE,2,2,,
,,,,,,,,,,,html-keyboard-response,50,2.0.0,723905,5ba5d8b960f3d50001697104,2,9,null,,,,,,,,,<p style='font-size: 30px;'><strong>Okay</strong></p>,null,neutral_feedback,0,test,22,,,,,,,,
,,,,,,,,,,,html-button-response,51,2.0.0,750534,5ba5d8b960f3d50001697104,2,9,26628,,,,,,,,,"<img src= ""rock_img/I_Basalt_04.jpg"" style=""width:8cm; height:7.53cm;""><p>What type of rock is this?</p>",0,class_response,0,test,23,Andesite,Basalt,4,FALSE,1,2,,
,,,,,,,,,,,html-keyboard-response,52,2.0.0,751035,5ba5d8b960f3d50001697104,2,9,null,,,,,,,,,<p style='font-size: 30px;'><strong>Okay</strong></p>,null,neutral_feedback,0,test,23,,,,,,,,
,,,,,,,,,,,html-button-response,53,2.0.0,775831,5ba5d8b960f3d50001697104,2,9,24794,,,,,,,,,"<img src= ""rock_img/I_Basalt_08.jpg"" style=""width:8cm; height:10.44cm;""><p>What type of rock is this?</p>",1,class_response,0,test,24,Basalt,Basalt,8,TRUE,2,2,,
,,,,,,,,,,,html-keyboard-response,54,2.0.0,776337,5ba5d8b960f3d50001697104,2,9,null,,,,,,,,,<p style='font-size: 30px;'><strong>Okay</strong></p>,null,neutral_feedback,0,test,24,,,,,,,,
,,,,,,,,,,,html-button-response,55,2.0.0,795214,5ba5d8b960f3d50001697104,2,9,18875,,,,,,,,,"<img src= ""rock_img/I_Obsidian_07.jpg"" style=""width:8cm; height:4.76cm;""><p>What type of rock is this?</p>",4,class_response,0,test,25,Obsidian,Obsidian,7,TRUE,5,5,,
,,,,,,,,,,,html-keyboard-response,56,2.0.0,795718,5ba5d8b960f3d50001697104,2,9,null,,,,,,,,,<p style='font-size: 30px;'><strong>Okay</strong></p>,null,neutral_feedback,0,test,25,,,,,,,,
,,,,,,,,,,,html-button-response,57,2.0.0,819894,5ba5d8b960f3d50001697104,2,9,24176,,,,,,,,,"<img src= ""rock_img/I_Gabbro_01.jpg"" style=""width:8cm; height:5.21cm;""><p>What type of rock is this?</p>",2,class_response,0,test,26,Diorite,Gabbro,1,FALSE,3,4,,
,,,,,,,,,,,html-keyboard-response,58,2.0.0,820396,5ba5d8b960f3d50001697104,2,9,null,,,,,,,,,<p style='font-size: 30px;'><strong>Okay</strong></p>,null,neutral_feedback,0,test,26,,,,,,,,
,,,,,,,,,,,html-button-response,59,2.0.0,834345,5ba5d8b960f3d50001697104,2,9,13947,,,,,,,,,"<img src= ""rock_img/I_Andesite_04.jpg"" style=""width:8cm; height:5.96cm;""><p>What type of rock is this?</p>",3,class_response,0,test,27,Gabbro,Andesite,4,FALSE,4,1,,
,,,,,,,,,,,html-keyboard-response,60,2.0.0,834848,5ba5d8b960f3d50001697104,2,9,null,,,,,,,,,<p style='font-size: 30px;'><strong>Okay</strong></p>,null,neutral_feedback,0,test,27,,,,,,,,
,,,,,,,,,,,html-button-response,61,2.0.0,853793,5ba5d8b960f3d50001697104,2,9,18944,,,,,,,,,"<img src= ""rock_img/I_Gabbro_11.jpg"" style=""width:8cm; height:6.2cm;""><p>What type of rock is this?</p>",1,class_response,0,test,28,Basalt,Gabbro,11,FALSE,2,4,,
,,,,,,,,,,,html-keyboard-response,62,2.0.0,854295,5ba5d8b960f3d50001697104,2,9,null,,,,,,,,,<p style='font-size: 30px;'><strong>Okay</strong></p>,null,neutral_feedback,0,test,28,,,,,,,,
,,,,,,,,,,,html-button-response,63,2.0.0,867058,5ba5d8b960f3d50001697104,2,9,12761,,,,,,,,,"<img src= ""rock_img/I_Peridotite_06.jpg"" style=""width:8cm; height:7.53cm;""><p>What type of rock is this?</p>",6,class_response,0,test,29,Peridotite,Peridotite,6,TRUE,7,7,,
,,,,,,,,,,,html-keyboard-response,64,2.0.0,867561,5ba5d8b960f3d50001697104,2,9,null,,,,,,,,,<p style='font-size: 30px;'><strong>Okay</strong></p>,null,neutral_feedback,0,test,29,,,,,,,,
,,,,,,,,,,,html-button-response,65,2.0.0,887933,5ba5d8b960f3d50001697104,2,9,20369,,,,,,,,,"<img src= ""rock_img/I_Diorite_08.jpg"" style=""width:8cm; height:6.37cm;""><p>What type of rock is this?</p>",5,class_response,0,test,30,Pegmatite,Diorite,8,FALSE,6,3,,
,,,,,,,,,,,html-keyboard-response,66,2.0.0,888436,5ba5d8b960f3d50001697104,2,9,null,,,,,,,,,<p style='font-size: 30px;'><strong>Okay</strong></p>,null,neutral_feedback,0,test,30,,,,,,,,
,,,,,,,,,,,html-button-response,67,2.0.0,902960,5ba5d8b960f3d50001697104,2,9,14521,,,,,,,,,"<img src= ""rock_img/I_Andesite_10.jpg"" style=""width:8cm; height:4.16cm;""><p>What type of rock is this?</p>",7,class_response,0,test,31,Pumice,Andesite,10,FALSE,8,1,,
,,,,,,,,,,,html-keyboard-response,68,2.0.0,903464,5ba5d8b960f3d50001697104,2,9,null,,,,,,,,,<p style='font-size: 30px;'><strong>Okay</strong></p>,null,neutral_feedback,0,test,31,,,,,,,,
,,,,,,,,,,,html-button-response,69,2.0.0,912708,5ba5d8b960f3d50001697104,2,9,9243,,,,,,,,,"<img src= ""rock_img/I_Obsidian_04.jpg"" style=""width:8cm; height:6.930000000000001cm;""><p>What type of rock is this?</p>",4,class_response,0,test,32,Obsidian,Obsidian,4,TRUE,5,5,,
,,,,,,,,,,,html-keyboard-response,70,2.0.0,913211,5ba5d8b960f3d50001697104,2,9,null,,,,,,,,,<p style='font-size: 30px;'><strong>Okay</strong></p>,null,neutral_feedback,0,test,32,,,,,,,,
,,,,,,,,,,,html-button-response,71,2.0.0,963856,5ba5d8b960f3d50001697104,2,9,50622,,,,,,,,,"<img src= ""rock_img/I_Gabbro_08.jpg"" style=""width:8cm; height:5.15cm;""><p>What type of rock is this?</p>",0,class_response,0,test,33,Andesite,Gabbro,8,FALSE,1,4,,
,,,,,,,,,,,html-keyboard-response,72,2.0.0,964363,5ba5d8b960f3d50001697104,2,9,null,,,,,,,,,<p style='font-size: 30px;'><strong>Okay</strong></p>,null,neutral_feedback,0,test,33,,,,,,,,
,,,,,,,,,,,html-button-response,73,2.0.0,976829,5ba5d8b960f3d50001697104,2,9,12453,,,,,,,,,"<img src= ""rock_img/I_Peridotite_07.jpg"" style=""width:8cm; height:4.83cm;""><p>What type of rock is this?</p>",6,class_response,0,test,34,Peridotite,Peridotite,7,TRUE,7,7,,
,,,,,,,,,,,html-keyboard-response,74,2.0.0,977330,5ba5d8b960f3d50001697104,2,9,null,,,,,,,,,<p style='font-size: 30px;'><strong>Okay</strong></p>,null,neutral_feedback,0,test,34,,,,,,,,
,,,,,,,,,,,html-button-response,75,2.0.0,981655,5ba5d8b960f3d50001697104,2,9,4321,,,,,,,,,"<img src= ""rock_img/I_Pumice_09.jpg"" style=""width:8cm; height:6.44cm;""><p>What type of rock is this?</p>",7,class_response,0,test,35,Pumice,Pumice,9,TRUE,8,8,,
,,,,,,,,,,,html-keyboard-response,76,2.0.0,982160,5ba5d8b960f3d50001697104,2,9,null,,,,,,,,,<p style='font-size: 30px;'><strong>Okay</strong></p>,null,neutral_feedback,0,test,35,,,,,,,,
,,,,,,,,,,,html-button-response,77,2.0.0,1001156,5ba5d8b960f3d50001697104,2,9,18990,,,,,,,,,"<img src= ""rock_img/I_Diorite_16.jpg"" style=""width:8cm; height:6.74cm;""><p>What type of rock is this?</p>",2,class_response,0,test,36,Diorite,Diorite,16,TRUE,3,3,,
,,,,,,,,,,,html-keyboard-response,78,2.0.0,1001662,5ba5d8b960f3d50001697104,2,9,null,,,,,,,,,<p style='font-size: 30px;'><strong>Okay</strong></p>,null,neutral_feedback,0,test,36,,,,,,,,
,,,,,,,,,,,html-button-response,79,2.0.0,1005851,5ba5d8b960f3d50001697104,2,9,4186,,,,,,,,,"<img src= ""rock_img/I_Pumice_08.jpg"" style=""width:8cm; height:6.67cm;""><p>What type of rock is this?</p>",7,class_response,0,test,37,Pumice,Pumice,8,TRUE,8,8,,
,,,,,,,,,,,html-keyboard-response,80,2.0.0,1006353,5ba5d8b960f3d50001697104,2,9,null,,,,,,,,,<p style='font-size: 30px;'><strong>Okay</strong></p>,null,neutral_feedback,0,test,37,,,,,,,,
,,,,,,,,,,,html-button-response,81,2.0.0,1011491,5ba5d8b960f3d50001697104,2,9,5137,,,,,,,,,"<img src= ""rock_img/I_Peridotite_13.jpg"" style=""width:8cm; height:7.58cm;""><p>What type of rock is this?</p>",6,class_response,0,test,38,Peridotite,Peridotite,13,TRUE,7,7,,
,,,,,,,,,,,html-keyboard-response,82,2.0.0,1011997,5ba5d8b960f3d50001697104,2,9,null,,,,,,,,,<p style='font-size: 30px;'><strong>Okay</strong></p>,null,neutral_feedback,0,test,38,,,,,,,,
,,,,,,,,,,,html-button-response,83,2.0.0,1026725,5ba5d8b960f3d50001697104,2,9,14725,,,,,,,,,"<img src= ""rock_img/I_Pumice_14.jpg"" style=""width:8cm; height:6.39cm;""><p>What type of rock is this?</p>",7,class_response,0,test,39,Pumice,Pumice,14,TRUE,8,8,,
,,,,,,,,,,,html-keyboard-response,84,2.0.0,1027230,5ba5d8b960f3d50001697104,2,9,null,,,,,,,,,<p style='font-size: 30px;'><strong>Okay</strong></p>,null,neutral_feedback,0,test,39,,,,,,,,
,,,,,,,,,,,html-button-response,85,2.0.0,1030325,5ba5d8b960f3d50001697104,2,9,3094,,,,,,,,,"<img src= ""rock_img/I_Obsidian_12.jpg"" style=""width:8cm; height:6.53cm;""><p>What type of rock is this?</p>",4,class_response,0,test,40,Obsidian,Obsidian,12,TRUE,5,5,,
,,,,,,,,,,,html-keyboard-response,86,2.0.0,1030829,5ba5d8b960f3d50001697104,2,9,null,,,,,,,,,<p style='font-size: 30px;'><strong>Okay</strong></p>,null,neutral_feedback,0,test,40,,,,,,,,
,,,,,,,,,,,html-button-response,87,2.0.0,1058922,5ba5d8b960f3d50001697104,2,9,28090,,,,,,,,,"<img src= ""rock_img/I_Basalt_16.jpg"" style=""width:8cm; height:7.659999999999999cm;""><p>What type of rock is this?</p>",5,class_response,0,test,41,Pegmatite,Basalt,16,FALSE,6,2,,
,,,,,,,,,,,html-keyboard-response,88,2.0.0,1059426,5ba5d8b960f3d50001697104,2,9,null,,,,,,,,,<p style='font-size: 30px;'><strong>Okay</strong></p>,null,neutral_feedback,0,test,41,,,,,,,,
,,,,,,,,,,,html-button-response,89,2.0.0,1063133,5ba5d8b960f3d50001697104,2,9,3706,,,,,,,,,"<img src= ""rock_img/I_Peridotite_15.jpg"" style=""width:8cm; height:6cm;""><p>What type of rock is this?</p>",6,class_response,0,test,42,Peridotite,Peridotite,15,TRUE,7,7,,
,,,,,,,,,,,html-keyboard-response,90,2.0.0,1063639,5ba5d8b960f3d50001697104,2,9,null,,,,,,,,,<p style='font-size: 30px;'><strong>Okay</strong></p>,null,neutral_feedback,0,test,42,,,,,,,,
,,,,,,,,,,,html-button-response,91,2.0.0,1078567,5ba5d8b960f3d50001697104,2,9,14924,,,,,,,,,"<img src= ""rock_img/I_Gabbro_03.jpg"" style=""width:8cm; height:8.52cm;""><p>What type of rock is this?</p>",1,class_response,0,test,43,Basalt,Gabbro,3,FALSE,2,4,,
,,,,,,,,,,,html-keyboard-response,92,2.0.0,1079069,5ba5d8b960f3d50001697104,2,9,null,,,,,,,,,<p style='font-size: 30px;'><strong>Okay</strong></p>,null,neutral_feedback,0,test,43,,,,,,,,
,,,,,,,,,,,html-button-response,93,2.0.0,1087973,5ba5d8b960f3d50001697104,2,9,8902,,,,,,,,,"<img src= ""rock_img/I_Diorite_11.jpg"" style=""width:8cm; height:7.11cm;""><p>What type of rock is this?</p>",0,class_response,0,test,44,Andesite,Diorite,11,FALSE,1,3,,
,,,,,,,,,,,html-keyboard-response,94,2.0.0,1088480,5ba5d8b960f3d50001697104,2,9,null,,,,,,,,,<p style='font-size: 30px;'><strong>Okay</strong></p>,null,neutral_feedback,0,test,44,,,,,,,,
,,,,,,,,,,,html-button-response,95,2.0.0,1110016,5ba5d8b960f3d50001697104,2,9,21534,,,,,,,,,"<img src= ""rock_img/I_Obsidian_14.jpg"" style=""width:8cm; height:7.64cm;""><p>What type of rock is this?</p>",4,class_response,0,test,45,Obsidian,Obsidian,14,TRUE,5,5,,
,,,,,,,,,,,html-keyboard-response,96,2.0.0,1110523,5ba5d8b960f3d50001697104,2,9,null,,,,,,,,,<p style='font-size: 30px;'><strong>Okay</strong></p>,null,neutral_feedback,0,test,45,,,,,,,,
,,,,,,,,,,,html-button-response,97,2.0.0,1132413,5ba5d8b960f3d50001697104,2,9,21888,,,,,,,,,"<img src= ""rock_img/I_Gabbro_14.jpg"" style=""width:8cm; height:8.48cm;""><p>What type of rock is this?</p>",3,class_response,0,test,46,Gabbro,Gabbro,14,TRUE,4,4,,
,,,,,,,,,,,html-keyboard-response,98,2.0.0,1132919,5ba5d8b960f3d50001697104,2,9,null,,,,,,,,,<p style='font-size: 30px;'><strong>Okay</strong></p>,null,neutral_feedback,0,test,46,,,,,,,,
,,,,,,,,,,,html-button-response,99,2.0.0,1156865,5ba5d8b960f3d50001697104,2,9,23942,,,,,,,,,"<img src= ""rock_img/I_Pegmatite_07.jpg"" style=""width:8cm; height:6.7cm;""><p>What type of rock is this?</p>",5,class_response,0,test,47,Pegmatite,Pegmatite,7,TRUE,6,6,,
,,,,,,,,,,,html-keyboard-response,100,2.0.0,1157370,5ba5d8b960f3d50001697104,2,9,null,,,,,,,,,<p style='font-size: 30px;'><strong>Okay</strong></p>,null,neutral_feedback,0,test,47,,,,,,,,
,,,,,,,,,,,html-button-response,101,2.0.0,1170611,5ba5d8b960f3d50001697104,2,9,13240,,,,,,,,,"<img src= ""rock_img/I_Diorite_07.jpg"" style=""width:8cm; height:5.239999999999999cm;""><p>What type of rock is this?</p>",0,class_response,0,test,48,Andesite,Diorite,7,FALSE,1,3,,
,,,,,,,,,,,html-keyboard-response,102,2.0.0,1171117,5ba5d8b960f3d50001697104,2,9,null,,,,,,,,,<p style='font-size: 30px;'><strong>Okay</strong></p>,null,neutral_feedback,0,test,48,,,,,,,,
,,,,,,,,,,,instructions,103,2.0.0,1229852,5ba5d8b960f3d50001697104,2,9,58676,,,,,,,,"[{""page_index"":0,""viewing_time"":38696},{""page_index"":1,""viewing_time"":12746},{""page_index"":2,""viewing_time"":7234}]",,,,,,,,,,,,,,
,,,,,,,,,,,html-button-response,104,2.0.0,1233575,5ba5d8b960f3d50001697104,2,9,3720,,,,,,,,,,0,start_train,,,,,,,,,,,
,,,,,,,,,,,html-button-response,105,2.0.0,1257526,5ba5d8b960f3d50001697104,2,9,23948,,,,,,,,,"<img src= ""rock_img/I_Diorite_09.jpg"" style=""width:8cm; height:5.27cm;""><p>What type of rock is this?</p>",2,class_response,1,train,1,Diorite,Diorite,9,TRUE,3,3,,
,,,,,,,,,,,html-button-response,106,2.0.0,1270280,5ba5d8b960f3d50001697104,2,9,12751,,,,,,,,,"<img src= rock_img/I_Diorite_09.jpg style=""width:8cm; height:5.27cm;""><p style='font-size: 30px; color: green;'><strong>Correct!</strong></p><p style='font-size: 30px;'><strong>This rock is diorite</strong></p>",0,corr_feedback,1,train,1,,,,,,,,
,,,,,,,,,,,html-button-response,107,2.0.0,1293672,5ba5d8b960f3d50001697104,2,9,23389,,,,,,,,,"<img src= ""rock_img/I_Gabbro_09.jpg"" style=""width:8cm; height:7.279999999999999cm;""><p>What type of rock is this?</p>",0,class_response,1,train,2,Andesite,Gabbro,9,FALSE,1,4,,
,,,,,,,,,,,html-button-response,108,2.0.0,1310229,5ba5d8b960f3d50001697104,2,9,16555,,,,,,,,,"<img src= rock_img/I_Gabbro_09.jpg style=""width:8cm; height:7.279999999999999cm;""><p style='font-size: 30px; color: red;'><strong>Incorrect!</strong></p><p style='font-size: 30px;'><strong>This rock is gabbro</strong></p>",0,corr_feedback,1,train,2,,,,,,,,
,,,,,,,,,,,html-button-response,109,2.0.0,1314028,5ba5d8b960f3d50001697104,2,9,3797,,,,,,,,,"<img src= ""rock_img/I_Pegmatite_09.jpg"" style=""width:8cm; height:4.03cm;""><p>What type of rock is this?</p>",6,class_response,1,train,3,Peridotite,Pegmatite,9,FALSE,7,6,,
,,,,,,,,,,,html-button-response,110,2.0.0,1336261,5ba5d8b960f3d50001697104,2,9,22231,,,,,,,,,"<img src= rock_img/I_Pegmatite_09.jpg style=""width:8cm; height:4.03cm;""><p style='font-size: 30px; color: red;'><strong>Incorrect!</strong></p><p style='font-size: 30px;'><strong>This rock is pegmatite</strong></p>",0,corr_feedback,1,train,3,,,,,,,,
,,,,,,,,,,,html-button-response,111,2.0.0,1351064,5ba5d8b960f3d50001697104,2,9,14800,,,,,,,,,"<img src= ""rock_img/I_Gabbro_16.jpg"" style=""width:8cm; height:6.44cm;""><p>What type of rock is this?</p>",1,class_response,1,train,4,Basalt,Gabbro,16,FALSE,2,4,,
,,,,,,,,,,,html-button-response,112,2.0.0,1364297,5ba5d8b960f3d50001697104,2,9,13231,,,,,,,,,"<img src= rock_img/I_Gabbro_16.jpg style=""width:8cm; height:6.44cm;""><p style='font-size: 30px; color: red;'><strong>Incorrect!</strong></p><p style='font-size: 30px;'><strong>This rock is gabbro</strong></p>",0,corr_feedback,1,train,4,,,,,,,,
,,,,,,,,,,,html-button-response,113,2.0.0,1376117,5ba5d8b960f3d50001697104,2,9,11817,,,,,,,,,"<img src= ""rock_img/I_Pumice_15.jpg"" style=""width:8cm; height:7.86cm;""><p>What type of rock is this?</p>",7,class_response,1,train,5,Pumice,Pumice,15,TRUE,8,8,,
,,,,,,,,,,,html-button-response,114,2.0.0,1378576,5ba5d8b960f3d50001697104,2,9,2456,,,,,,,,,"<img src= rock_img/I_Pumice_15.jpg style=""width:8cm; height:7.86cm;""><p style='font-size: 30px; color: green;'><strong>Correct!</strong></p><p style='font-size: 30px;'><strong>This rock is pumice</strong></p>",0,corr_feedback,1,train,5,,,,,,,,
,,,,,,,,,,,html-button-response,115,2.0.0,1408283,5ba5d8b960f3d50001697104,2,9,29704,,,,,,,,,"<img src= ""rock_img/I_Gabbro_09.jpg"" style=""width:8cm; height:7.279999999999999cm;""><p>What type of rock is this?</p>",3,class_response,1,train,6,Gabbro,Gabbro,9,TRUE,4,4,,
,,,,,,,,,,,html-button-response,116,2.0.0,1413055,5ba5d8b960f3d50001697104,2,9,4771,,,,,,,,,"<img src= rock_img/I_Gabbro_09.jpg style=""width:8cm; height:7.279999999999999cm;""><p style='font-size: 30px; color: green;'><strong>Correct!</strong></p><p style='font-size: 30px;'><strong>This rock is gabbro</strong></p>",0,corr_feedback,1,train,6,,,,,,,,
,,,,,,,,,,,html-button-response,117,2.0.0,1432465,5ba5d8b960f3d50001697104,2,9,19408,,,,,,,,,"<img src= ""rock_img/I_Basalt_01.jpg"" style=""width:8cm; height:7.880000000000001cm;""><p>What type of rock is this?</p>",1,class_response,1,train,7,Basalt,Basalt,1,TRUE,2,2,,
,,,,,,,,,,,html-button-response,118,2.0.0,1444175,5ba5d8b960f3d50001697104,2,9,11706,,,,,,,,,"<img src= rock_img/I_Basalt_01.jpg style=""width:8cm; height:7.880000000000001cm;""><p style='font-size: 30px; color: green;'><strong>Correct!</strong></p><p style='font-size: 30px;'><strong>This rock is basalt</strong></p>",0,corr_feedback,1,train,7,,,,,,,,
,,,,,,,,,,,html-button-response,119,2.0.0,1489632,5ba5d8b960f3d50001697104,2,9,45454,,,,,,,,,"<img src= ""rock_img/I_Diorite_06.jpg"" style=""width:8cm; height:6.03cm;""><p>What type of rock is this?</p>",2,class_response,1,train,8,Diorite,Diorite,6,TRUE,3,3,,
,,,,,,,,,,,html-button-response,120,2.0.0,1495210,5ba5d8b960f3d50001697104,2,9,5577,,,,,,,,,"<img src= rock_img/I_Diorite_06.jpg style=""width:8cm; height:6.03cm;""><p style='font-size: 30px; color: green;'><strong>Correct!</strong></p><p style='font-size: 30px;'><strong>This rock is diorite</strong></p>",0,corr_feedback,1,train,8,,,,,,,,
,,,,,,,,,,,html-button-response,121,2.0.0,1507273,5ba5d8b960f3d50001697104,2,9,12059,,,,,,,,,"<img src= ""rock_img/I_Gabbro_10.jpg"" style=""width:8cm; height:5.680000000000001cm;""><p>What type of rock is this?</p>",3,class_response,1,train,9,Gabbro,Gabbro,10,TRUE,4,4,,
,,,,,,,,,,,html-button-response,122,2.0.0,1510165,5ba5d8b960f3d50001697104,2,9,2891,,,,,,,,,"<img src= rock_img/I_Gabbro_10.jpg style=""width:8cm; height:5.680000000000001cm;""><p style='font-size: 30px; color: green;'><strong>Correct!</strong></p><p style='font-size: 30px;'><strong>This rock is gabbro</strong></p>",0,corr_feedback,1,train,9,,,,,,,,
,,,,,,,,,,,html-button-response,123,2.0.0,1518034,5ba5d8b960f3d50001697104,2,9,7866,,,,,,,,,"<img src= ""rock_img/I_Basalt_11.jpg"" style=""width:8cm; height:5.359999999999999cm;""><p>What type of rock is this?</p>",7,class_response,1,train,10,Pumice,Basalt,11,FALSE,8,2,,
,,,,,,,,,,,html-button-response,124,2.0.0,1531831,5ba5d8b960f3d50001697104,2,9,13794,,,,,,,,,"<img src= rock_img/I_Basalt_11.jpg style=""width:8cm; height:5.359999999999999cm;""><p style='font-size: 30px; color: red;'><strong>Incorrect!</strong></p><p style='font-size: 30px;'><strong>This rock is basalt</strong></p>",0,corr_feedback,1,train,10,,,,,,,,
,,,,,,,,,,,html-button-response,125,2.0.0,1558022,5ba5d8b960f3d50001697104,2,9,26187,,,,,,,,,"<img src= ""rock_img/I_Diorite_13.jpg"" style=""width:8cm; height:6.29cm;""><p>What type of rock is this?</p>",0,class_response,1,train,11,Andesite,Diorite,13,FALSE,1,3,,
,,,,,,,,,,,html-button-response,126,2.0.0,1572605,5ba5d8b960f3d50001697104,2,9,14579,,,,,,,,,"<img src= rock_img/I_Diorite_13.jpg style=""width:8cm; height:6.29cm;""><p style='font-size: 30px; color: red;'><strong>Incorrect!</strong></p><p style='font-size: 30px;'><strong>This rock is diorite</strong></p>",0,corr_feedback,1,train,11,,,,,,,,
,,,,,,,,,,,html-button-response,127,2.0.0,1602981,5ba5d8b960f3d50001697104,2,9,30372,,,,,,,,,"<img src= ""rock_img/I_Andesite_05.jpg"" style=""width:8cm; height:4.12cm;""><p>What type of rock is this?</p>",6,class_response,1,train,12,Peridotite,Andesite,5,FALSE,7,1,,
,,,,,,,,,,,html-button-response,128,2.0.0,1615068,5ba5d8b960f3d50001697104,2,9,12084,,,,,,,,,"<img src= rock_img/I_Andesite_05.jpg style=""width:8cm; height:4.12cm;""><p style='font-size: 30px; color: red;'><strong>Incorrect!</strong></p><p style='font-size: 30px;'><strong>This rock is andesite</strong></p>",0,corr_feedback,1,train,12,,,,,,,,
,,,,,,,,,,,html-button-response,129,2.0.0,1656695,5ba5d8b960f3d50001697104,2,9,41623,,,,,,,,,"<img src= ""rock_img/I_Pegmatite_13.jpg"" style=""width:8cm; height:4.95cm;""><p>What type of rock is this?</p>",2,class_response,1,train,13,Diorite,Pegmatite,13,FALSE,3,6,,
,,,,,,,,,,,html-button-response,130,2.0.0,1672100,5ba5d8b960f3d50001697104,2,9,15402,,,,,,,,,"<img src= rock_img/I_Pegmatite_13.jpg style=""width:8cm; height:4.95cm;""><p style='font-size: 30px; color: red;'><strong>Incorrect!</strong></p><p style='font-size: 30px;'><strong>This rock is pegmatite</strong></p>",0,corr_feedback,1,train,13,,,,,,,,
,,,,,,,,,,,html-button-response,131,2.0.0,1705207,5ba5d8b960f3d50001697104,2,9,33104,,,,,,,,,"<img src= ""rock_img/I_Andesite_16.jpg"" style=""width:8cm; height:6.010000000000001cm;""><p>What type of rock is this?</p>",0,class_response,1,train,14,Andesite,Andesite,16,TRUE,1,1,,
,,,,,,,,,,,html-button-response,132,2.0.0,1710039,5ba5d8b960f3d50001697104,2,9,4831,,,,,,,,,"<img src= rock_img/I_Andesite_16.jpg style=""width:8cm; height:6.010000000000001cm;""><p style='font-size: 30px; color: green;'><strong>Correct!</strong></p><p style='font-size: 30px;'><strong>This rock is andesite</strong></p>",0,corr_feedback,1,train,14,,,,,,,,
,,,,,,,,,,,html-button-response,133,2.0.0,1725459,5ba5d8b960f3d50001697104,2,9,15418,,,,,,,,,"<img src= ""rock_img/I_Andesite_16.jpg"" style=""width:8cm; height:6.010000000000001cm;""><p>What type of rock is this?</p>",0,class_response,1,train,15,Andesite,Andesite,16,TRUE,1,1,,
,,,,,,,,,,,html-button-response,134,2.0.0,1728108,5ba5d8b960f3d50001697104,2,9,2647,,,,,,,,,"<img src= rock_img/I_Andesite_16.jpg style=""width:8cm; height:6.010000000000001cm;""><p style='font-size: 30px; color: green;'><strong>Correct!</strong></p><p style='font-size: 30px;'><strong>This rock is andesite</strong></p>",0,corr_feedback,1,train,15,,,,,,,,
,,,,,,,,,,,html-button-response,135,2.0.0,1750992,5ba5d8b960f3d50001697104,2,9,22881,,,,,,,,,"<img src= ""rock_img/I_Basalt_02.jpg"" style=""width:8cm; height:6.45cm;""><p>What type of rock is this?</p>",1,class_response,1,train,16,Basalt,Basalt,2,TRUE,2,2,,
,,,,,,,,,,,html-button-response,136,2.0.0,1754043,5ba5d8b960f3d50001697104,2,9,3049,,,,,,,,,"<img src= rock_img/I_Basalt_02.jpg style=""width:8cm; height:6.45cm;""><p style='font-size: 30px; color: green;'><strong>Correct!</strong></p><p style='font-size: 30px;'><strong>This rock is basalt</strong></p>",0,corr_feedback,1,train,16,,,,,,,,
,,,,,,,,,,,html-button-response,137,2.0.0,1775057,5ba5d8b960f3d50001697104,2,9,21011,,,,,,,,,"<img src= ""rock_img/I_Diorite_12.jpg"" style=""width:8cm; height:4.88cm;""><p>What type of rock is this?</p>",2,class_response,1,train,17,Diorite,Diorite,12,TRUE,3,3,,
,,,,,,,,,,,html-button-response,138,2.0.0,1783882,5ba5d8b960f3d50001697104,2,9,8823,,,,,,,,,"<img src= rock_img/I_Diorite_12.jpg style=""width:8cm; height:4.88cm;""><p style='font-size: 30px; color: green;'><strong>Correct!</strong></p><p style='font-size: 30px;'><strong>This rock is diorite</strong></p>",0,corr_feedback,1,train,17,,,,,,,,
,,,,,,,,,,,html-button-response,139,2.0.0,1846712,5ba5d8b960f3d50001697104,2,9,62826,,,,,,,,,"<img src= ""rock_img/I_Gabbro_15.jpg"" style=""width:8cm; height:6.29cm;""><p>What type of rock is this?</p>",5,class_response,1,train,18,Pegmatite,Gabbro,15,FALSE,6,4,,
,,,,,,,,,,,html-button-response,140,2.0.0,1857031,5ba5d8b960f3d50001697104,2,9,10316,,,,,,,,,"<img src= rock_img/I_Gabbro_15.jpg style=""width:8cm; height:6.29cm;""><p style='font-size: 30px; color: red;'><strong>Incorrect!</strong></p><p style='font-size: 30px;'><strong>This rock is gabbro</strong></p>",0,corr_feedback,1,train,18,,,,,,,,
,,,,,,,,,,,html-button-response,141,2.0.0,1927890,5ba5d8b960f3d50001697104,2,9,70855,,,,,,,,,"<img src= ""rock_img/I_Pegmatite_11.jpg"" style=""width:8cm; height:8.14cm;""><p>What type of rock is this?</p>",5,class_response,1,train,19,Pegmatite,Pegmatite,11,TRUE,6,6,,
,,,,,,,,,,,html-button-response,142,2.0.0,1935175,5ba5d8b960f3d50001697104,2,9,7283,,,,,,,,,"<img src= rock_img/I_Pegmatite_11.jpg style=""width:8cm; height:8.14cm;""><p style='font-size: 30px; color: green;'><strong>Correct!</strong></p><p style='font-size: 30px;'><strong>This rock is pegmatite</strong></p>",0,corr_feedback,1,train,19,,,,,,,,
,,,,,,,,,,,html-button-response,143,2.0.0,1941145,5ba5d8b960f3d50001697104,2,9,5968,,,,,,,,,"<img src= ""rock_img/I_Pumice_06.jpg"" style=""width:8cm; height:6.9399999999999995cm;""><p>What type of rock is this?</p>",7,class_response,1,train,20,Pumice,Pumice,6,TRUE,8,8,,
,,,,,,,,,,,html-button-response,144,2.0.0,1943582,5ba5d8b960f3d50001697104,2,9,2434,,,,,,,,,"<img src= rock_img/I_Pumice_06.jpg style=""width:8cm; height:6.9399999999999995cm;""><p style='font-size: 30px; color: green;'><strong>Correct!</strong></p><p style='font-size: 30px;'><strong>This rock is pumice</strong></p>",0,corr_feedback,1,train,20,,,,,,,,
,,,,,,,,,,,html-button-response,145,2.0.0,1976505,5ba5d8b960f3d50001697104,2,9,32920,,,,,,,,,"<img src= ""rock_img/I_Andesite_03.jpg"" style=""width:8cm; height:5.73cm;""><p>What type of rock is this?</p>",2,class_response,1,train,21,Diorite,Andesite,3,FALSE,3,1,,
,,,,,,,,,,,html-button-response,146,2.0.0,1981824,5ba5d8b960f3d50001697104,2,9,5317,,,,,,,,,"<img src= rock_img/I_Andesite_03.jpg style=""width:8cm; height:5.73cm;""><p style='font-size: 30px; color: red;'><strong>Incorrect!</strong></p><p style='font-size: 30px;'><strong>This rock is andesite</strong></p>",0,corr_feedback,1,train,21,,,,,,,,
,,,,,,,,,,,html-button-response,147,2.0.0,1997165,5ba5d8b960f3d50001697104,2,9,15339,,,,,,,,,"<img src= ""rock_img/I_Gabbro_10.jpg"" style=""width:8cm; height:5.680000000000001cm;""><p>What type of rock is this?</p>",3,class_response,1,train,22,Gabbro,Gabbro,10,TRUE,4,4,,
,,,,,,,,,,,html-button-response,148,2.0.0,1999997,5ba5d8b960f3d50001697104,2,9,2830,,,,,,,,,"<img src= rock_img/I_Gabbro_10.jpg style=""width:8cm; height:5.680000000000001cm;""><p style='font-size: 30px; color: green;'><strong>Correct!</strong></p><p style='font-size: 30px;'><strong>This rock is gabbro</strong></p>",0,corr_feedback,1,train,22,,,,,,,,
,,,,,,,,,,,html-button-response,149,2.0.0,2056552,5ba5d8b960f3d50001697104,2,9,56543,,,,,,,,,"<img src= ""rock_img/I_Basalt_14.jpg"" style=""width:8cm; height:5.82cm;""><p>What type of rock is this?</p>",2,class_response,1,train,23,Diorite,Basalt,14,FALSE,3,2,,
,,,,,,,,,,,html-button-response,150,2.0.0,2060473,5ba5d8b960f3d50001697104,2,9,3919,,,,,,,,,"<img src= rock_img/I_Basalt_14.jpg style=""width:8cm; height:5.82cm;""><p style='font-size: 30px; color: red;'><strong>Incorrect!</strong></p><p style='font-size: 30px;'><strong>This rock is basalt</strong></p>",0,corr_feedback,1,train,23,,,,,,,,
,,,,,,,,,,,html-button-response,151,2.0.0,2086987,5ba5d8b960f3d50001697104,2,9,26510,,,,,,,,,"<img src= ""rock_img/I_Diorite_15.jpg"" style=""width:8cm; height:5.54cm;""><p>What type of rock is this?</p>",0,class_response,1,train,24,Andesite,Diorite,15,FALSE,1,3,,
,,,,,,,,,,,html-button-response,152,2.0.0,2089905,5ba5d8b960f3d50001697104,2,9,2916,,,,,,,,,"<img src= rock_img/I_Diorite_15.jpg style=""width:8cm; height:5.54cm;""><p style='font-size: 30px; color: red;'><strong>Incorrect!</strong></p><p style='font-size: 30px;'><strong>This rock is diorite</strong></p>",0,corr_feedback,1,train,24,,,,,,,,
,,,,,,,,,,,html-button-response,153,2.0.0,2110725,5ba5d8b960f3d50001697104,2,9,20816,,,,,,,,,"<img src= ""rock_img/I_Peridotite_04.jpg"" style=""width:8cm; height:6.680000000000001cm;""><p>What type of rock is this?</p>",6,class_response,1,train,25,Peridotite,Peridotite,4,TRUE,7,7,,
,,,,,,,,,,,html-button-response,154,2.0.0,2113567,5ba5d8b960f3d50001697104,2,9,2839,,,,,,,,,"<img src= rock_img/I_Peridotite_04.jpg style=""width:8cm; height:6.680000000000001cm;""><p style='font-size: 30px; color: green;'><strong>Correct!</strong></p><p style='font-size: 30px;'><strong>This rock is peridotite</strong></p>",0,corr_feedback,1,train,25,,,,,,,,
,,,,,,,,,,,html-button-response,155,2.0.0,2131356,5ba5d8b960f3d50001697104,2,9,17786,,,,,,,,,"<img src= ""rock_img/I_Peridotite_05.jpg"" style=""width:8cm; height:7.1499999999999995cm;""><p>What type of rock is this?</p>",5,class_response,1,train,26,Pegmatite,Peridotite,5,FALSE,6,7,,
,,,,,,,,,,,html-button-response,156,2.0.0,2134506,5ba5d8b960f3d50001697104,2,9,3148,,,,,,,,,"<img src= rock_img/I_Peridotite_05.jpg style=""width:8cm; height:7.1499999999999995cm;""><p style='font-size: 30px; color: red;'><strong>Incorrect!</strong></p><p style='font-size: 30px;'><strong>This rock is peridotite</strong></p>",0,corr_feedback,1,train,26,,,,,,,,
,,,,,,,,,,,html-button-response,157,2.0.0,2149222,5ba5d8b960f3d50001697104,2,9,14715,,,,,,,,,"<img src= ""rock_img/I_Gabbro_05.jpg"" style=""width:8cm; height:6cm;""><p>What type of rock is this?</p>",5,class_response,1,train,27,Pegmatite,Gabbro,5,FALSE,6,4,,
,,,,,,,,,,,html-button-response,158,2.0.0,2153303,5ba5d8b960f3d50001697104,2,9,4080,,,,,,,,,"<img src= rock_img/I_Gabbro_05.jpg style=""width:8cm; height:6cm;""><p style='font-size: 30px; color: red;'><strong>Incorrect!</strong></p><p style='font-size: 30px;'><strong>This rock is gabbro</strong></p>",0,corr_feedback,1,train,27,,,,,,,,
,,,,,,,,,,,html-button-response,159,2.0.0,2168507,5ba5d8b960f3d50001697104,2,9,15200,,,,,,,,,"<img src= ""rock_img/I_Andesite_02.jpg"" style=""width:8cm; height:8.5cm;""><p>What type of rock is this?</p>",2,class_response,1,train,28,Diorite,Andesite,2,FALSE,3,1,,
,,,,,,,,,,,html-button-response,160,2.0.0,2173383,5ba5d8b960f3d50001697104,2,9,4874,,,,,,,,,"<img src= rock_img/I_Andesite_02.jpg style=""width:8cm; height:8.5cm;""><p style='font-size: 30px; color: red;'><strong>Incorrect!</strong></p><p style='font-size: 30px;'><strong>This rock is andesite</strong></p>",0,corr_feedback,1,train,28,,,,,,,,
,,,,,,,,,,,html-button-response,161,2.0.0,2184639,5ba5d8b960f3d50001697104,2,9,11253,,,,,,,,,"<img src= ""rock_img/I_Andesite_01.jpg"" style=""width:8cm; height:5.87cm;""><p>What type of rock is this?</p>",0,class_response,1,train,29,Andesite,Andesite,1,TRUE,1,1,,
,,,,,,,,,,,html-button-response,162,2.0.0,2189726,5ba5d8b960f3d50001697104,2,9,5085,,,,,,,,,"<img src= rock_img/I_Andesite_01.jpg style=""width:8cm; height:5.87cm;""><p style='font-size: 30px; color: green;'><strong>Correct!</strong></p><p style='font-size: 30px;'><strong>This rock is andesite</strong></p>",0,corr_feedback,1,train,29,,,,,,,,
,,,,,,,,,,,html-button-response,163,2.0.0,2205472,5ba5d8b960f3d50001697104,2,9,15744,,,,,,,,,"<img src= ""rock_img/I_Diorite_15.jpg"" style=""width:8cm; height:5.54cm;""><p>What type of rock is this?</p>",2,class_response,1,train,30,Diorite,Diorite,15,TRUE,3,3,,
,,,,,,,,,,,html-button-response,164,2.0.0,2209860,5ba5d8b960f3d50001697104,2,9,4386,,,,,,,,,"<img src= rock_img/I_Diorite_15.jpg style=""width:8cm; height:5.54cm;""><p style='font-size: 30px; color: green;'><strong>Correct!</strong></p><p style='font-size: 30px;'><strong>This rock is diorite</strong></p>",0,corr_feedback,1,train,30,,,,,,,,
,,,,,,,,,,,html-button-response,165,2.0.0,2255530,5ba5d8b960f3d50001697104,2,9,45666,,,,,,,,,"<img src= ""rock_img/I_Pegmatite_12.jpg"" style=""width:8cm; height:5.7cm;""><p>What type of rock is this?</p>",2,class_response,1,train,31,Diorite,Pegmatite,12,FALSE,3,6,,
,,,,,,,,,,,html-button-response,166,2.0.0,2269022,5ba5d8b960f3d50001697104,2,9,13490,,,,,,,,,"<img src= rock_img/I_Pegmatite_12.jpg style=""width:8cm; height:5.7cm;""><p style='font-size: 30px; color: red;'><strong>Incorrect!</strong></p><p style='font-size: 30px;'><strong>This rock is pegmatite</strong></p>",0,corr_feedback,1,train,31,,,,,,,,
,,,,,,,,,,,html-button-response,167,2.0.0,2272639,5ba5d8b960f3d50001697104,2,9,3615,,,,,,,,,"<img src= ""rock_img/I_Obsidian_11.jpg"" style=""width:8cm; height:6.05cm;""><p>What type of rock is this?</p>",4,class_response,1,train,32,Obsidian,Obsidian,11,TRUE,5,5,,
,,,,,,,,,,,html-button-response,168,2.0.0,2273810,5ba5d8b960f3d50001697104,2,9,1168,,,,,,,,,"<img src= rock_img/I_Obsidian_11.jpg style=""width:8cm; height:6.05cm;""><p style='font-size: 30px; color: green;'><strong>Correct!</strong></p><p style='font-size: 30px;'><strong>This rock is obsidian</strong></p>",0,corr_feedback,1,train,32,,,,,,,,
,,,,,,,,,,,html-button-response,169,2.0.0,2289513,5ba5d8b960f3d50001697104,2,9,15700,,,,,,,,,"<img src= ""rock_img/I_Basalt_05.jpg"" style=""width:8cm; height:8.18cm;""><p>What type of rock is this?</p>",1,class_response,1,train,33,Basalt,Basalt,5,TRUE,2,2,,
,,,,,,,,,,,html-button-response,170,2.0.0,2292076,5ba5d8b960f3d50001697104,2,9,2562,,,,,,,,,"<img src= rock_img/I_Basalt_05.jpg style=""width:8cm; height:8.18cm;""><p style='font-size: 30px; color: green;'><strong>Correct!</strong></p><p style='font-size: 30px;'><strong>This rock is basalt</strong></p>",0,corr_feedback,1,train,33,,,,,,,,
,,,,,,,,,,,html-button-response,171,2.0.0,2303219,5ba5d8b960f3d50001697104,2,9,11141,,,,,,,,,"<img src= ""rock_img/I_Gabbro_05.jpg"" style=""width:8cm; height:6cm;""><p>What type of rock is this?</p>",3,class_response,1,train,34,Gabbro,Gabbro,5,TRUE,4,4,,
,,,,,,,,,,,html-button-response,172,2.0.0,2305534,5ba5d8b960f3d50001697104,2,9,2314,,,,,,,,,"<img src= rock_img/I_Gabbro_05.jpg style=""width:8cm; height:6cm;""><p style='font-size: 30px; color: green;'><strong>Correct!</strong></p><p style='font-size: 30px;'><strong>This rock is gabbro</strong></p>",0,corr_feedback,1,train,34,,,,,,,,
,,,,,,,,,,,html-button-response,173,2.0.0,2310840,5ba5d8b960f3d50001697104,2,9,5303,,,,,,,,,"<img src= ""rock_img/I_Andesite_01.jpg"" style=""width:8cm; height:5.87cm;""><p>What type of rock is this?</p>",0,class_response,1,train,35,Andesite,Andesite,1,TRUE,1,1,,
,,,,,,,,,,,html-button-response,174,2.0.0,2313015,5ba5d8b960f3d50001697104,2,9,2174,,,,,,,,,"<img src= rock_img/I_Andesite_01.jpg style=""width:8cm; height:5.87cm;""><p style='font-size: 30px; color: green;'><strong>Correct!</strong></p><p style='font-size: 30px;'><strong>This rock is andesite</strong></p>",0,corr_feedback,1,train,35,,,,,,,,
,,,,,,,,,,,html-button-response,175,2.0.0,2321811,5ba5d8b960f3d50001697104,2,9,8791,,,,,,,,,"<img src= ""rock_img/I_Gabbro_12.jpg"" style=""width:8cm; height:7.800000000000001cm;""><p>What type of rock is this?</p>",1,class_response,1,train,36,Basalt,Gabbro,12,FALSE,2,4,,
,,,,,,,,,,,html-button-response,176,2.0.0,2329099,5ba5d8b960f3d50001697104,2,9,7287,,,,,,,,,"<img src= rock_img/I_Gabbro_12.jpg style=""width:8cm; height:7.800000000000001cm;""><p style='font-size: 30px; color: red;'><strong>Incorrect!</strong></p><p style='font-size: 30px;'><strong>This rock is gabbro</strong></p>",0,corr_feedback,1,train,36,,,,,,,,
,,,,,,,,,,,html-button-response,177,2.0.0,2338733,5ba5d8b960f3d50001697104,2,9,9631,,,,,,,,,"<img src= ""rock_img/I_Diorite_12.jpg"" style=""width:8cm; height:4.88cm;""><p>What type of rock is this?</p>",0,class_response,1,train,37,Andesite,Diorite,12,FALSE,1,3,,
,,,,,,,,,,,html-button-response,178,2.0.0,2344168,5ba5d8b960f3d50001697104,2,9,5434,,,,,,,,,"<img src= rock_img/I_Diorite_12.jpg style=""width:8cm; height:4.88cm;""><p style='font-size: 30px; color: red;'><strong>Incorrect!</strong></p><p style='font-size: 30px;'><strong>This rock is diorite</strong></p>",0,corr_feedback,1,train,37,,,,,,,,
,,,,,,,,,,,html-button-response,179,2.0.0,2363045,5ba5d8b960f3d50001697104,2,9,18874,,,,,,,,,"<img src= ""rock_img/I_Basalt_09.jpg"" style=""width:8cm; height:6.2cm;""><p>What type of rock is this?</p>",1,class_response,1,train,38,Basalt,Basalt,9,TRUE,2,2,,
,,,,,,,,,,,html-button-response,180,2.0.0,2367001,5ba5d8b960f3d50001697104,2,9,3954,,,,,,,,,"<img src= rock_img/I_Basalt_09.jpg style=""width:8cm; height:6.2cm;""><p style='font-size: 30px; color: green;'><strong>Correct!</strong></p><p style='font-size: 30px;'><strong>This rock is basalt</strong></p>",0,corr_feedback,1,train,38,,,,,,,,
,,,,,,,,,,,html-button-response,181,2.0.0,2373121,5ba5d8b960f3d50001697104,2,9,6118,,,,,,,,,"<img src= ""rock_img/I_Pegmatite_08.jpg"" style=""width:8cm; height:7.68cm;""><p>What type of rock is this?</p>",5,class_response,1,train,39,Pegmatite,Pegmatite,8,TRUE,6,6,,
,,,,,,,,,,,html-button-response,182,2.0.0,2376666,5ba5d8b960f3d50001697104,2,9,3543,,,,,,,,,"<img src= rock_img/I_Pegmatite_08.jpg style=""width:8cm; height:7.68cm;""><p style='font-size: 30px; color: green;'><strong>Correct!</strong></p><p style='font-size: 30px;'><strong>This rock is pegmatite</strong></p>",0,corr_feedback,1,train,39,,,,,,,,
,,,,,,,,,,,html-button-response,183,2.0.0,2401388,5ba5d8b960f3d50001697104,2,9,24718,,,,,,,,,"<img src= ""rock_img/I_Andesite_09.jpg"" style=""width:8cm; height:6cm;""><p>What type of rock is this?</p>",0,class_response,1,train,40,Andesite,Andesite,9,TRUE,1,1,,
,,,,,,,,,,,html-button-response,184,2.0.0,2403976,5ba5d8b960f3d50001697104,2,9,2586,,,,,,,,,"<img src= rock_img/I_Andesite_09.jpg style=""width:8cm; height:6cm;""><p style='font-size: 30px; color: green;'><strong>Correct!</strong></p><p style='font-size: 30px;'><strong>This rock is andesite</strong></p>",0,corr_feedback,1,train,40,,,,,,,,
,,,,,,,,,,,html-button-response,185,2.0.0,2428583,5ba5d8b960f3d50001697104,2,9,24604,,,,,,,,,"<img src= ""rock_img/I_Peridotite_12.jpg"" style=""width:8cm; height:4.54cm;""><p>What type of rock is this?</p>",5,class_response,1,train,41,Pegmatite,Peridotite,12,FALSE,6,7,,
,,,,,,,,,,,html-button-response,186,2.0.0,2431880,5ba5d8b960f3d50001697104,2,9,3295,,,,,,,,,"<img src= rock_img/I_Peridotite_12.jpg style=""width:8cm; height:4.54cm;""><p style='font-size: 30px; color: red;'><strong>Incorrect!</strong></p><p style='font-size: 30px;'><strong>This rock is peridotite</strong></p>",0,corr_feedback,1,train,41,,,,,,,,
,,,,,,,,,,,html-button-response,187,2.0.0,2443353,5ba5d8b960f3d50001697104,2,9,11471,,,,,,,,,"<img src= ""rock_img/I_Andesite_05.jpg"" style=""width:8cm; height:4.12cm;""><p>What type of rock is this?</p>",0,class_response,1,train,42,Andesite,Andesite,5,TRUE,1,1,,
,,,,,,,,,,,html-button-response,188,2.0.0,2446312,5ba5d8b960f3d50001697104,2,9,2957,,,,,,,,,"<img src= rock_img/I_Andesite_05.jpg style=""width:8cm; height:4.12cm;""><p style='font-size: 30px; color: green;'><strong>Correct!</strong></p><p style='font-size: 30px;'><strong>This rock is andesite</strong></p>",0,corr_feedback,1,train,42,,,,,,,,
,,,,,,,,,,,html-button-response,189,2.0.0,2453266,5ba5d8b960f3d50001697104,2,9,6951,,,,,,,,,"<img src= ""rock_img/I_Andesite_03.jpg"" style=""width:8cm; height:5.73cm;""><p>What type of rock is this?</p>",0,class_response,1,train,43,Andesite,Andesite,3,TRUE,1,1,,
,,,,,,,,,,,html-button-response,190,2.0.0,2455575,5ba5d8b960f3d50001697104,2,9,2308,,,,,,,,,"<img src= rock_img/I_Andesite_03.jpg style=""width:8cm; height:5.73cm;""><p style='font-size: 30px; color: green;'><strong>Correct!</strong></p><p style='font-size: 30px;'><strong>This rock is andesite</strong></p>",0,corr_feedback,1,train,43,,,,,,,,
,,,,,,,,,,,html-button-response,191,2.0.0,2461909,5ba5d8b960f3d50001697104,2,9,6333,,,,,,,,,"<img src= ""rock_img/I_Diorite_13.jpg"" style=""width:8cm; height:6.29cm;""><p>What type of rock is this?</p>",2,class_response,1,train,44,Diorite,Diorite,13,TRUE,3,3,,
,,,,,,,,,,,html-button-response,192,2.0.0,2467185,5ba5d8b960f3d50001697104,2,9,5273,,,,,,,,,"<img src= rock_img/I_Diorite_13.jpg style=""width:8cm; height:6.29cm;""><p style='font-size: 30px; color: green;'><strong>Correct!</strong></p><p style='font-size: 30px;'><strong>This rock is diorite</strong></p>",0,corr_feedback,1,train,44,,,,,,,,
,,,,,,,,,,,html-button-response,193,2.0.0,2470551,5ba5d8b960f3d50001697104,2,9,3364,,,,,,,,,"<img src= ""rock_img/I_Obsidian_08.jpg"" style=""width:8cm; height:7.39cm;""><p>What type of rock is this?</p>",4,class_response,1,train,45,Obsidian,Obsidian,8,TRUE,5,5,,
,,,,,,,,,,,html-button-response,194,2.0.0,2473287,5ba5d8b960f3d50001697104,2,9,2735,,,,,,,,,"<img src= rock_img/I_Obsidian_08.jpg style=""width:8cm; height:7.39cm;""><p style='font-size: 30px; color: green;'><strong>Correct!</strong></p><p style='font-size: 30px;'><strong>This rock is obsidian</strong></p>",0,corr_feedback,1,train,45,,,,,,,,
,,,,,,,,,,,html-button-response,195,2.0.0,2484559,5ba5d8b960f3d50001697104,2,9,11269,,,,,,,,,"<img src= ""rock_img/I_Diorite_14.jpg"" style=""width:8cm; height:5.71cm;""><p>What type of rock is this?</p>",0,class_response,1,train,46,Andesite,Diorite,14,FALSE,1,3,,
,,,,,,,,,,,html-button-response,196,2.0.0,2490128,5ba5d8b960f3d50001697104,2,9,5567,,,,,,,,,"<img src= rock_img/I_Diorite_14.jpg style=""width:8cm; height:5.71cm;""><p style='font-size: 30px; color: red;'><strong>Incorrect!</strong></p><p style='font-size: 30px;'><strong>This rock is diorite</strong></p>",0,corr_feedback,1,train,46,,,,,,,,
,,,,,,,,,,,html-button-response,197,2.0.0,2493701,5ba5d8b960f3d50001697104,2,9,3569,,,,,,,,,"<img src= ""rock_img/I_Obsidian_09.jpg"" style=""width:8cm; height:5cm;""><p>What type of rock is this?</p>",4,class_response,1,train,47,Obsidian,Obsidian,9,TRUE,5,5,,
,,,,,,,,,,,html-button-response,198,2.0.0,2495908,5ba5d8b960f3d50001697104,2,9,2205,,,,,,,,,"<img src= rock_img/I_Obsidian_09.jpg style=""width:8cm; height:5cm;""><p style='font-size: 30px; color: green;'><strong>Correct!</strong></p><p style='font-size: 30px;'><strong>This rock is obsidian</strong></p>",0,corr_feedback,1,train,47,,,,,,,,
,,,,,,,,,,,html-button-response,199,2.0.0,2509444,5ba5d8b960f3d50001697104,2,9,13533,,,,,,,,,"<img src= ""rock_img/I_Andesite_02.jpg"" style=""width:8cm; height:8.5cm;""><p>What type of rock is this?</p>",2,class_response,1,train,48,Diorite,Andesite,2,FALSE,3,1,,
,,,,,,,,,,,html-button-response,200,2.0.0,2512757,5ba5d8b960f3d50001697104,2,9,3311,,,,,,,,,"<img src= rock_img/I_Andesite_02.jpg style=""width:8cm; height:8.5cm;""><p style='font-size: 30px; color: red;'><strong>Incorrect!</strong></p><p style='font-size: 30px;'><strong>This rock is andesite</strong></p>",0,corr_feedback,1,train,48,,,,,,,,
,,,,,,,,,,,instructions,203,2.0.0,2551340,5ba5d8b960f3d50001697104,2,9,38579,,,,,,,,"[{""page_index"":0,""viewing_time"":16437},{""page_index"":1,""viewing_time"":22142}]",,,,,,,,,,,,,,
,,,,,,,,,,,html-button-response,204,2.0.0,2555642,5ba5d8b960f3d50001697104,2,9,4301,,,,,,,,,,0,start_test,,,,,,,,,,,
,,,,,,,,,,,html-button-response,205,2.0.0,2563829,5ba5d8b960f3d50001697104,2,9,8184,,,,,,,,,"<img src= ""rock_img/I_Andesite_04.jpg"" style=""width:8cm; height:5.96cm;""><p>What type of rock is this?</p>",0,class_response,1,test,1,Andesite,Andesite,4,TRUE,1,1,,
,,,,,,,,,,,html-keyboard-response,206,2.0.0,2564334,5ba5d8b960f3d50001697104,2,9,null,,,,,,,,,<p style='font-size: 30px;'><strong>Okay</strong></p>,null,neutral_feedback,1,test,1,,,,,,,,
,,,,,,,,,,,html-button-response,207,2.0.0,2575614,5ba5d8b960f3d50001697104,2,9,11278,,,,,,,,,"<img src= ""rock_img/I_Basalt_04.jpg"" style=""width:8cm; height:7.53cm;""><p>What type of rock is this?</p>",1,class_response,1,test,2,Basalt,Basalt,4,TRUE,2,2,,
,,,,,,,,,,,html-keyboard-response,208,2.0.0,2576120,5ba5d8b960f3d50001697104,2,9,null,,,,,,,,,<p style='font-size: 30px;'><strong>Okay</strong></p>,null,neutral_feedback,1,test,2,,,,,,,,
,,,,,,,,,,,html-button-response,209,2.0.0,2613485,5ba5d8b960f3d50001697104,2,9,37362,,,,,,,,,"<img src= ""rock_img/I_Basalt_06.jpg"" style=""width:8cm; height:7.06cm;""><p>What type of rock is this?</p>",1,class_response,1,test,3,Basalt,Basalt,6,TRUE,2,2,,
,,,,,,,,,,,html-keyboard-response,210,2.0.0,2613987,5ba5d8b960f3d50001697104,2,9,null,,,,,,,,,<p style='font-size: 30px;'><strong>Okay</strong></p>,null,neutral_feedback,1,test,3,,,,,,,,
,,,,,,,,,,,html-button-response,211,2.0.0,2618962,5ba5d8b960f3d50001697104,2,9,4973,,,,,,,,,"<img src= ""rock_img/I_Pegmatite_07.jpg"" style=""width:8cm; height:6.7cm;""><p>What type of rock is this?</p>",5,class_response,1,test,4,Pegmatite,Pegmatite,7,TRUE,6,6,,
,,,,,,,,,,,html-keyboard-response,212,2.0.0,2619468,5ba5d8b960f3d50001697104,2,9,null,,,,,,,,,<p style='font-size: 30px;'><strong>Okay</strong></p>,null,neutral_feedback,1,test,4,,,,,,,,
,,,,,,,,,,,html-button-response,213,2.0.0,2630528,5ba5d8b960f3d50001697104,2,9,11058,,,,,,,,,"<img src= ""rock_img/I_Andesite_11.jpg"" style=""width:8cm; height:4.92cm;""><p>What type of rock is this?</p>",7,class_response,1,test,5,Pumice,Andesite,11,FALSE,8,1,,
,,,,,,,,,,,html-keyboard-response,214,2.0.0,2631031,5ba5d8b960f3d50001697104,2,9,null,,,,,,,,,<p style='font-size: 30px;'><strong>Okay</strong></p>,null,neutral_feedback,1,test,5,,,,,,,,
,,,,,,,,,,,html-button-response,215,2.0.0,2644734,5ba5d8b960f3d50001697104,2,9,13700,,,,,,,,,"<img src= ""rock_img/I_Peridotite_08.jpg"" style=""width:8cm; height:6.7cm;""><p>What type of rock is this?</p>",6,class_response,1,test,6,Peridotite,Peridotite,8,TRUE,7,7,,
,,,,,,,,,,,html-keyboard-response,216,2.0.0,2645237,5ba5d8b960f3d50001697104,2,9,null,,,,,,,,,<p style='font-size: 30px;'><strong>Okay</strong></p>,null,neutral_feedback,1,test,6,,,,,,,,
,,,,,,,,,,,html-button-response,217,2.0.0,2652453,5ba5d8b960f3d50001697104,2,9,7214,,,,,,,,,"<img src= ""rock_img/I_Diorite_02.jpg"" style=""width:8cm; height:6.27cm;""><p>What type of rock is this?</p>",2,class_response,1,test,7,Diorite,Diorite,2,TRUE,3,3,,
,,,,,,,,,,,html-keyboard-response,218,2.0.0,2652957,5ba5d8b960f3d50001697104,2,9,null,,,,,,,,,<p style='font-size: 30px;'><strong>Okay</strong></p>,null,neutral_feedback,1,test,7,,,,,,,,
,,,,,,,,,,,html-button-response,219,2.0.0,2657898,5ba5d8b960f3d50001697104,2,9,4939,,,,,,,,,"<img src= ""rock_img/I_Diorite_08.jpg"" style=""width:8cm; height:6.37cm;""><p>What type of rock is this?</p>",2,class_response,1,test,8,Diorite,Diorite,8,TRUE,3,3,,
,,,,,,,,,,,html-keyboard-response,220,2.0.0,2658400,5ba5d8b960f3d50001697104,2,9,null,,,,,,,,,<p style='font-size: 30px;'><strong>Okay</strong></p>,null,neutral_feedback,1,test,8,,,,,,,,
,,,,,,,,,,,html-button-response,221,2.0.0,2672103,5ba5d8b960f3d50001697104,2,9,13700,,,,,,,,,"<img src= ""rock_img/I_Gabbro_14.jpg"" style=""width:8cm; height:8.48cm;""><p>What type of rock is this?</p>",3,class_response,1,test,9,Gabbro,Gabbro,14,TRUE,4,4,,
,,,,,,,,,,,html-keyboard-response,222,2.0.0,2672608,5ba5d8b960f3d50001697104,2,9,null,,,,,,,,,<p style='font-size: 30px;'><strong>Okay</strong></p>,null,neutral_feedback,1,test,9,,,,,,,,
,,,,,,,,,,,html-button-response,223,2.0.0,2674256,5ba5d8b960f3d50001697104,2,9,1647,,,,,,,,,"<img src= ""rock_img/I_Obsidian_02.jpg"" style=""width:8cm; height:7.51cm;""><p>What type of rock is this?</p>",4,class_response,1,test,10,Obsidian,Obsidian,2,TRUE,5,5,,
,,,,,,,,,,,html-keyboard-response,224,2.0.0,2674759,5ba5d8b960f3d50001697104,2,9,null,,,,,,,,,<p style='font-size: 30px;'><strong>Okay</strong></p>,null,neutral_feedback,1,test,10,,,,,,,,
,,,,,,,,,,,html-button-response,225,2.0.0,2695159,5ba5d8b960f3d50001697104,2,9,20398,,,,,,,,,"<img src= ""rock_img/I_Diorite_16.jpg"" style=""width:8cm; height:6.74cm;""><p>What type of rock is this?</p>",2,class_response,1,test,11,Diorite,Diorite,16,TRUE,3,3,,
,,,,,,,,,,,html-keyboard-response,226,2.0.0,2695661,5ba5d8b960f3d50001697104,2,9,null,,,,,,,,,<p style='font-size: 30px;'><strong>Okay</strong></p>,null,neutral_feedback,1,test,11,,,,,,,,
,,,,,,,,,,,html-button-response,227,2.0.0,2697908,5ba5d8b960f3d50001697104,2,9,2245,,,,,,,,,"<img src= ""rock_img/I_Pumice_08.jpg"" style=""width:8cm; height:6.67cm;""><p>What type of rock is this?</p>",7,class_response,1,test,12,Pumice,Pumice,8,TRUE,8,8,,
,,,,,,,,,,,html-keyboard-response,228,2.0.0,2698413,5ba5d8b960f3d50001697104,2,9,null,,,,,,,,,<p style='font-size: 30px;'><strong>Okay</strong></p>,null,neutral_feedback,1,test,12,,,,,,,,
,,,,,,,,,,,html-button-response,229,2.0.0,2722909,5ba5d8b960f3d50001697104,2,9,24493,,,,,,,,,"<img src= ""rock_img/I_Peridotite_06.jpg"" style=""width:8cm; height:7.53cm;""><p>What type of rock is this?</p>",6,class_response,1,test,13,Peridotite,Peridotite,6,TRUE,7,7,,
,,,,,,,,,,,html-keyboard-response,230,2.0.0,2723414,5ba5d8b960f3d50001697104,2,9,null,,,,,,,,,<p style='font-size: 30px;'><strong>Okay</strong></p>,null,neutral_feedback,1,test,13,,,,,,,,
,,,,,,,,,,,html-button-response,231,2.0.0,2725222,5ba5d8b960f3d50001697104,2,9,1806,,,,,,,,,"<img src= ""rock_img/I_Pumice_14.jpg"" style=""width:8cm; height:6.39cm;""><p>What type of rock is this?</p>",7,class_response,1,test,14,Pumice,Pumice,14,TRUE,8,8,,
,,,,,,,,,,,html-keyboard-response,232,2.0.0,2725723,5ba5d8b960f3d50001697104,2,9,null,,,,,,,,,<p style='font-size: 30px;'><strong>Okay</strong></p>,null,neutral_feedback,1,test,14,,,,,,,,
,,,,,,,,,,,html-button-response,233,2.0.0,2736097,5ba5d8b960f3d50001697104,2,9,10371,,,,,,,,,"<img src= ""rock_img/I_Gabbro_01.jpg"" style=""width:8cm; height:5.21cm;""><p>What type of rock is this?</p>",3,class_response,1,test,15,Gabbro,Gabbro,1,TRUE,4,4,,
,,,,,,,,,,,html-keyboard-response,234,2.0.0,2736604,5ba5d8b960f3d50001697104,2,9,null,,,,,,,,,<p style='font-size: 30px;'><strong>Okay</strong></p>,null,neutral_feedback,1,test,15,,,,,,,,
,,,,,,,,,,,html-button-response,235,2.0.0,2743133,5ba5d8b960f3d50001697104,2,9,6526,,,,,,,,,"<img src= ""rock_img/I_Basalt_10.jpg"" style=""width:8cm; height:5.85cm;""><p>What type of rock is this?</p>",1,class_response,1,test,16,Basalt,Basalt,10,TRUE,2,2,,
,,,,,,,,,,,html-keyboard-response,236,2.0.0,2743639,5ba5d8b960f3d50001697104,2,9,null,,,,,,,,,<p style='font-size: 30px;'><strong>Okay</strong></p>,null,neutral_feedback,1,test,16,,,,,,,,
,,,,,,,,,,,html-button-response,237,2.0.0,2752088,5ba5d8b960f3d50001697104,2,9,8448,,,,,,,,,"<img src= ""rock_img/I_Peridotite_13.jpg"" style=""width:8cm; height:7.58cm;""><p>What type of rock is this?</p>",5,class_response,1,test,17,Pegmatite,Peridotite,13,FALSE,6,7,,
,,,,,,,,,,,html-keyboard-response,238,2.0.0,2752591,5ba5d8b960f3d50001697104,2,9,null,,,,,,,,,<p style='font-size: 30px;'><strong>Okay</strong></p>,null,neutral_feedback,1,test,17,,,,,,,,
,,,,,,,,,,,html-button-response,239,2.0.0,2754086,5ba5d8b960f3d50001697104,2,9,1494,,,,,,,,,"<img src= ""rock_img/I_Obsidian_04.jpg"" style=""width:8cm; height:6.930000000000001cm;""><p>What type of rock is this?</p>",4,class_response,1,test,18,Obsidian,Obsidian,4,TRUE,5,5,,
,,,,,,,,,,,html-keyboard-response,240,2.0.0,2754589,5ba5d8b960f3d50001697104,2,9,null,,,,,,,,,<p style='font-size: 30px;'><strong>Okay</strong></p>,null,neutral_feedback,1,test,18,,,,,,,,
,,,,,,,,,,,html-button-response,241,2.0.0,2768127,5ba5d8b960f3d50001697104,2,9,13535,,,,,,,,,"<img src= ""rock_img/I_Basalt_16.jpg"" style=""width:8cm; height:7.659999999999999cm;""><p>What type of rock is this?</p>",3,class_response,1,test,19,Gabbro,Basalt,16,FALSE,4,2,,
,,,,,,,,,,,html-keyboard-response,242,2.0.0,2768632,5ba5d8b960f3d50001697104,2,9,null,,,,,,,,,<p style='font-size: 30px;'><strong>Okay</strong></p>,null,neutral_feedback,1,test,19,,,,,,,,
,,,,,,,,,,,html-button-response,243,2.0.0,2789171,5ba5d8b960f3d50001697104,2,9,20537,,,,,,,,,"<img src= ""rock_img/I_Diorite_11.jpg"" style=""width:8cm; height:7.11cm;""><p>What type of rock is this?</p>",0,class_response,1,test,20,Andesite,Diorite,11,FALSE,1,3,,
,,,,,,,,,,,html-keyboard-response,244,2.0.0,2789676,5ba5d8b960f3d50001697104,2,9,null,,,,,,,,,<p style='font-size: 30px;'><strong>Okay</strong></p>,null,neutral_feedback,1,test,20,,,,,,,,
,,,,,,,,,,,html-button-response,245,2.0.0,2792319,5ba5d8b960f3d50001697104,2,9,2642,,,,,,,,,"<img src= ""rock_img/I_Pumice_09.jpg"" style=""width:8cm; height:6.44cm;""><p>What type of rock is this?</p>",7,class_response,1,test,21,Pumice,Pumice,9,TRUE,8,8,,
,,,,,,,,,,,html-keyboard-response,246,2.0.0,2792821,5ba5d8b960f3d50001697104,2,9,null,,,,,,,,,<p style='font-size: 30px;'><strong>Okay</strong></p>,null,neutral_feedback,1,test,21,,,,,,,,
,,,,,,,,,,,html-button-response,247,2.0.0,2794141,5ba5d8b960f3d50001697104,2,9,1317,,,,,,,,,"<img src= ""rock_img/I_Obsidian_12.jpg"" style=""width:8cm; height:6.53cm;""><p>What type of rock is this?</p>",4,class_response,1,test,22,Obsidian,Obsidian,12,TRUE,5,5,,
,,,,,,,,,,,html-keyboard-response,248,2.0.0,2794645,5ba5d8b960f3d50001697104,2,9,null,,,,,,,,,<p style='font-size: 30px;'><strong>Okay</strong></p>,null,neutral_feedback,1,test,22,,,,,,,,
,,,,,,,,,,,html-button-response,249,2.0.0,2821914,5ba5d8b960f3d50001697104,2,9,27267,,,,,,,,,"<img src= ""rock_img/I_Obsidian_07.jpg"" style=""width:8cm; height:4.76cm;""><p>What type of rock is this?</p>",3,class_response,1,test,23,Gabbro,Obsidian,7,FALSE,4,5,,
,,,,,,,,,,,html-keyboard-response,250,2.0.0,2822417,5ba5d8b960f3d50001697104,2,9,null,,,,,,,,,<p style='font-size: 30px;'><strong>Okay</strong></p>,null,neutral_feedback,1,test,23,,,,,,,,
,,,,,,,,,,,html-button-response,251,2.0.0,2833501,5ba5d8b960f3d50001697104,2,9,11083,,,,,,,,,"<img src= ""rock_img/I_Diorite_10.jpg"" style=""width:8cm; height:5.949999999999999cm;""><p>What type of rock is this?</p>",0,class_response,1,test,24,Andesite,Diorite,10,FALSE,1,3,,
,,,,,,,,,,,html-keyboard-response,252,2.0.0,2834009,5ba5d8b960f3d50001697104,2,9,null,,,,,,,,,<p style='font-size: 30px;'><strong>Okay</strong></p>,null,neutral_feedback,1,test,24,,,,,,,,
,,,,,,,,,,,html-button-response,253,2.0.0,2838705,5ba5d8b960f3d50001697104,2,9,4694,,,,,,,,,"<img src= ""rock_img/I_Pegmatite_05.jpg"" style=""width:8cm; height:7.300000000000001cm;""><p>What type of rock is this?</p>",5,class_response,1,test,25,Pegmatite,Pegmatite,5,TRUE,6,6,,
,,,,,,,,,,,html-keyboard-response,254,2.0.0,2839211,5ba5d8b960f3d50001697104,2,9,null,,,,,,,,,<p style='font-size: 30px;'><strong>Okay</strong></p>,null,neutral_feedback,1,test,25,,,,,,,,
,,,,,,,,,,,html-button-response,255,2.0.0,2845518,5ba5d8b960f3d50001697104,2,9,6305,,,,,,,,,"<img src= ""rock_img/I_Gabbro_03.jpg"" style=""width:8cm; height:8.52cm;""><p>What type of rock is this?</p>",3,class_response,1,test,26,Gabbro,Gabbro,3,TRUE,4,4,,
,,,,,,,,,,,html-keyboard-response,256,2.0.0,2846022,5ba5d8b960f3d50001697104,2,9,null,,,,,,,,,<p style='font-size: 30px;'><strong>Okay</strong></p>,null,neutral_feedback,1,test,26,,,,,,,,
,,,,,,,,,,,html-button-response,257,2.0.0,2850350,5ba5d8b960f3d50001697104,2,9,4326,,,,,,,,,"<img src= ""rock_img/I_Andesite_07.jpg"" style=""width:8cm; height:5.93cm;""><p>What type of rock is this?</p>",0,class_response,1,test,27,Andesite,Andesite,7,TRUE,1,1,,
,,,,,,,,,,,html-keyboard-response,258,2.0.0,2850856,5ba5d8b960f3d50001697104,2,9,null,,,,,,,,,<p style='font-size: 30px;'><strong>Okay</strong></p>,null,neutral_feedback,1,test,27,,,,,,,,
,,,,,,,,,,,html-button-response,259,2.0.0,2852982,5ba5d8b960f3d50001697104,2,9,2125,,,,,,,,,"<img src= ""rock_img/I_Pumice_03.jpg"" style=""width:8cm; height:6.64cm;""><p>What type of rock is this?</p>",7,class_response,1,test,28,Pumice,Pumice,3,TRUE,8,8,,
,,,,,,,,,,,html-keyboard-response,260,2.0.0,2853486,5ba5d8b960f3d50001697104,2,9,null,,,,,,,,,<p style='font-size: 30px;'><strong>Okay</strong></p>,null,neutral_feedback,1,test,28,,,,,,,,
,,,,,,,,,,,html-button-response,261,2.0.0,2874980,5ba5d8b960f3d50001697104,2,9,21492,,,,,,,,,"<img src= ""rock_img/I_Basalt_12.jpg"" style=""width:8cm; height:6.010000000000001cm;""><p>What type of rock is this?</p>",7,class_response,1,test,29,Pumice,Basalt,12,FALSE,8,2,,
,,,,,,,,,,,html-keyboard-response,262,2.0.0,2875486,5ba5d8b960f3d50001697104,2,9,null,,,,,,,,,<p style='font-size: 30px;'><strong>Okay</strong></p>,null,neutral_feedback,1,test,29,,,,,,,,
,,,,,,,,,,,html-button-response,263,2.0.0,2883179,5ba5d8b960f3d50001697104,2,9,7691,,,,,,,,,"<img src= ""rock_img/I_Pegmatite_16.jpg"" style=""width:8cm; height:5.8cm;""><p>What type of rock is this?</p>",5,class_response,1,test,30,Pegmatite,Pegmatite,16,TRUE,6,6,,
,,,,,,,,,,,html-keyboard-response,264,2.0.0,2883684,5ba5d8b960f3d50001697104,2,9,null,,,,,,,,,<p style='font-size: 30px;'><strong>Okay</strong></p>,null,neutral_feedback,1,test,30,,,,,,,,
,,,,,,,,,,,html-button-response,265,2.0.0,2887851,5ba5d8b960f3d50001697104,2,9,4166,,,,,,,,,"<img src= ""rock_img/I_Gabbro_08.jpg"" style=""width:8cm; height:5.15cm;""><p>What type of rock is this?</p>",3,class_response,1,test,31,Gabbro,Gabbro,8,TRUE,4,4,,
,,,,,,,,,,,html-keyboard-response,266,2.0.0,2888357,5ba5d8b960f3d50001697104,2,9,null,,,,,,,,,<p style='font-size: 30px;'><strong>Okay</strong></p>,null,neutral_feedback,1,test,31,,,,,,,,
,,,,,,,,,,,html-button-response,267,2.0.0,2891162,5ba5d8b960f3d50001697104,2,9,2804,,,,,,,,,"<img src= ""rock_img/I_Pegmatite_15.jpg"" style=""width:8cm; height:6cm;""><p>What type of rock is this?</p>",5,class_response,1,test,32,Pegmatite,Pegmatite,15,TRUE,6,6,,
,,,,,,,,,,,html-keyboard-response,268,2.0.0,2891666,5ba5d8b960f3d50001697104,2,9,null,,,,,,,,,<p style='font-size: 30px;'><strong>Okay</strong></p>,null,neutral_feedback,1,test,32,,,,,,,,
,,,,,,,,,,,html-button-response,269,2.0.0,2894772,5ba5d8b960f3d50001697104,2,9,3104,,,,,,,,,"<img src= ""rock_img/I_Andesite_06.jpg"" style=""width:8cm; height:6.840000000000001cm;""><p>What type of rock is this?</p>",0,class_response,1,test,33,Andesite,Andesite,6,TRUE,1,1,,
,,,,,,,,,,,html-keyboard-response,270,2.0.0,2895277,5ba5d8b960f3d50001697104,2,9,null,,,,,,,,,<p style='font-size: 30px;'><strong>Okay</strong></p>,null,neutral_feedback,1,test,33,,,,,,,,
,,,,,,,,,,,html-button-response,271,2.0.0,2912788,5ba5d8b960f3d50001697104,2,9,17500,,,,,,,,,"<img src= ""rock_img/I_Peridotite_07.jpg"" style=""width:8cm; height:4.83cm;""><p>What type of rock is this?</p>",3,class_response,1,test,34,Gabbro,Peridotite,7,FALSE,4,7,,
,,,,,,,,,,,html-keyboard-response,272,2.0.0,2913292,5ba5d8b960f3d50001697104,2,9,null,,,,,,,,,<p style='font-size: 30px;'><strong>Okay</strong></p>,null,neutral_feedback,1,test,34,,,,,,,,
,,,,,,,,,,,html-button-response,273,2.0.0,2938201,5ba5d8b960f3d50001697104,2,9,24900,,,,,,,,,"<img src= ""rock_img/I_Peridotite_02.jpg"" style=""width:8cm; height:5.859999999999999cm;""><p>What type of rock is this?</p>",5,class_response,1,test,35,Pegmatite,Peridotite,2,FALSE,6,7,,
,,,,,,,,,,,html-keyboard-response,274,2.0.0,2938707,5ba5d8b960f3d50001697104,2,9,null,,,,,,,,,<p style='font-size: 30px;'><strong>Okay</strong></p>,null,neutral_feedback,1,test,35,,,,,,,,
,,,,,,,,,,,html-button-response,275,2.0.0,2961671,5ba5d8b960f3d50001697104,2,9,22960,,,,,,,,,"<img src= ""rock_img/I_Pumice_16.jpg"" style=""width:8cm; height:6.79cm;""><p>What type of rock is this?</p>",3,class_response,1,test,36,Gabbro,Pumice,16,FALSE,4,8,,
,,,,,,,,,,,html-keyboard-response,276,2.0.0,2962175,5ba5d8b960f3d50001697104,2,9,null,,,,,,,,,<p style='font-size: 30px;'><strong>Okay</strong></p>,null,neutral_feedback,1,test,36,,,,,,,,
,,,,,,,,,,,html-button-response,277,2.0.0,2976037,5ba5d8b960f3d50001697104,2,9,13860,,,,,,,,,"<img src= ""rock_img/I_Obsidian_06.jpg"" style=""width:8cm; height:6.8cm;""><p>What type of rock is this?</p>",4,class_response,1,test,37,Obsidian,Obsidian,6,TRUE,5,5,,
,,,,,,,,,,,html-keyboard-response,278,2.0.0,2976543,5ba5d8b960f3d50001697104,2,9,null,,,,,,,,,<p style='font-size: 30px;'><strong>Okay</strong></p>,null,neutral_feedback,1,test,37,,,,,,,,
,,,,,,,,,,,html-button-response,279,2.0.0,2982128,5ba5d8b960f3d50001697104,2,9,5584,,,,,,,,,"<img src= ""rock_img/I_Pegmatite_10.jpg"" style=""width:8cm; height:4.16cm;""><p>What type of rock is this?</p>",5,class_response,1,test,38,Pegmatite,Pegmatite,10,TRUE,6,6,,
,,,,,,,,,,,html-keyboard-response,280,2.0.0,2982632,5ba5d8b960f3d50001697104,2,9,null,,,,,,,,,<p style='font-size: 30px;'><strong>Okay</strong></p>,null,neutral_feedback,1,test,38,,,,,,,,
,,,,,,,,,,,html-button-response,281,2.0.0,3014610,5ba5d8b960f3d50001697104,2,9,31974,,,,,,,,,"<img src= ""rock_img/I_Pegmatite_03.jpg"" style=""width:8cm; height:5.239999999999999cm;""><p>What type of rock is this?</p>",2,class_response,1,test,39,Diorite,Pegmatite,3,FALSE,3,6,,
,,,,,,,,,,,html-keyboard-response,282,2.0.0,3015117,5ba5d8b960f3d50001697104,2,9,null,,,,,,,,,<p style='font-size: 30px;'><strong>Okay</strong></p>,null,neutral_feedback,1,test,39,,,,,,,,
,,,,,,,,,,,html-button-response,283,2.0.0,3027217,5ba5d8b960f3d50001697104,2,9,12099,,,,,,,,,"<img src= ""rock_img/I_Gabbro_11.jpg"" style=""width:8cm; height:6.2cm;""><p>What type of rock is this?</p>",3,class_response,1,test,40,Gabbro,Gabbro,11,TRUE,4,4,,
,,,,,,,,,,,html-keyboard-response,284,2.0.0,3027722,5ba5d8b960f3d50001697104,2,9,null,,,,,,,,,<p style='font-size: 30px;'><strong>Okay</strong></p>,null,neutral_feedback,1,test,40,,,,,,,,
,,,,,,,,,,,html-button-response,285,2.0.0,3040482,5ba5d8b960f3d50001697104,2,9,12758,,,,,,,,,"<img src= ""rock_img/I_Gabbro_13.jpg"" style=""width:8cm; height:5.08cm;""><p>What type of rock is this?</p>",3,class_response,1,test,41,Gabbro,Gabbro,13,TRUE,4,4,,
,,,,,,,,,,,html-keyboard-response,286,2.0.0,3040986,5ba5d8b960f3d50001697104,2,9,null,,,,,,,,,<p style='font-size: 30px;'><strong>Okay</strong></p>,null,neutral_feedback,1,test,41,,,,,,,,
,,,,,,,,,,,html-button-response,287,2.0.0,3053687,5ba5d8b960f3d50001697104,2,9,12699,,,,,,,,,"<img src= ""rock_img/I_Andesite_14.jpg"" style=""width:8cm; height:5.449999999999999cm;""><p>What type of rock is this?</p>",2,class_response,1,test,42,Diorite,Andesite,14,FALSE,3,1,,
,,,,,,,,,,,html-keyboard-response,288,2.0.0,3054189,5ba5d8b960f3d50001697104,2,9,null,,,,,,,,,<p style='font-size: 30px;'><strong>Okay</strong></p>,null,neutral_feedback,1,test,42,,,,,,,,
,,,,,,,,,,,html-button-response,289,2.0.0,3067431,5ba5d8b960f3d50001697104,2,9,13240,,,,,,,,,"<img src= ""rock_img/I_Andesite_10.jpg"" style=""width:8cm; height:4.16cm;""><p>What type of rock is this?</p>",0,class_response,1,test,43,Andesite,Andesite,10,TRUE,1,1,,
,,,,,,,,,,,html-keyboard-response,290,2.0.0,3067935,5ba5d8b960f3d50001697104,2,9,null,,,,,,,,,<p style='font-size: 30px;'><strong>Okay</strong></p>,null,neutral_feedback,1,test,43,,,,,,,,
,,,,,,,,,,,html-button-response,291,2.0.0,3079177,5ba5d8b960f3d50001697104,2,9,11239,,,,,,,,,"<img src= ""rock_img/I_Peridotite_15.jpg"" style=""width:8cm; height:6cm;""><p>What type of rock is this?</p>",6,class_response,1,test,44,Peridotite,Peridotite,15,TRUE,7,7,,
,,,,,,,,,,,html-keyboard-response,292,2.0.0,3079683,5ba5d8b960f3d50001697104,2,9,null,,,,,,,,,<p style='font-size: 30px;'><strong>Okay</strong></p>,null,neutral_feedback,1,test,44,,,,,,,,
,,,,,,,,,,,html-button-response,293,2.0.0,3083992,5ba5d8b960f3d50001697104,2,9,4309,,,,,,,,,"<img src= ""rock_img/I_Diorite_07.jpg"" style=""width:8cm; height:5.239999999999999cm;""><p>What type of rock is this?</p>",2,class_response,1,test,45,Diorite,Diorite,7,TRUE,3,3,,
,,,,,,,,,,,html-keyboard-response,294,2.0.0,3084494,5ba5d8b960f3d50001697104,2,9,null,,,,,,,,,<p style='font-size: 30px;'><strong>Okay</strong></p>,null,neutral_feedback,1,test,45,,,,,,,,
,,,,,,,,,,,html-button-response,295,2.0.0,3088751,5ba5d8b960f3d50001697104,2,9,4255,,,,,,,,,"<img src= ""rock_img/I_Pumice_10.jpg"" style=""width:8cm; height:7.609999999999999cm;""><p>What type of rock is this?</p>",7,class_response,1,test,46,Pumice,Pumice,10,TRUE,8,8,,
,,,,,,,,,,,html-keyboard-response,296,2.0.0,3089256,5ba5d8b960f3d50001697104,2,9,null,,,,,,,,,<p style='font-size: 30px;'><strong>Okay</strong></p>,null,neutral_feedback,1,test,46,,,,,,,,
,,,,,,,,,,,html-button-response,297,2.0.0,3099474,5ba5d8b960f3d50001697104,2,9,10216,,,,,,,,,"<img src= ""rock_img/I_Basalt_08.jpg"" style=""width:8cm; height:10.44cm;""><p>What type of rock is this?</p>",1,class_response,1,test,47,Basalt,Basalt,8,TRUE,2,2,,
,,,,,,,,,,,html-keyboard-response,298,2.0.0,3099978,5ba5d8b960f3d50001697104,2,9,null,,,,,,,,,<p style='font-size: 30px;'><strong>Okay</strong></p>,null,neutral_feedback,1,test,47,,,,,,,,
,,,,,,,,,,,html-button-response,299,2.0.0,3106417,5ba5d8b960f3d50001697104,2,9,6437,,,,,,,,,"<img src= ""rock_img/I_Obsidian_14.jpg"" style=""width:8cm; height:7.64cm;""><p>What type of rock is this?</p>",4,class_response,1,test,48,Obsidian,Obsidian,14,TRUE,5,5,,
,,,,,,,,,,,html-keyboard-response,300,2.0.0,3106920,5ba5d8b960f3d50001697104,2,9,null,,,,,,,,,<p style='font-size: 30px;'><strong>Okay</strong></p>,null,neutral_feedback,1,test,48,,,,,,,,
,,,,,,,,,,,html-button-response,301,2.0.0,3153471,5ba5d8b960f3d50001697104,2,9,,,,,,,,,,,,cycle_feedback,,,,,,,,,,25098,21440
,,,,,,,,,,,html-button-response,303,2.0.0,3156971,5ba5d8b960f3d50001697104,2,9,3497,,,,,,,,,,0,start_train,,,,,,,,,,,
,,,,,,,,,,,html-button-response,304,2.0.0,3173614,5ba5d8b960f3d50001697104,2,9,16640,,,,,,,,,"<img src= ""rock_img/I_Pumice_02.jpg"" style=""width:8cm; height:7.3999999999999995cm;""><p>What type of rock is this?</p>",7,class_response,2,train,1,Pumice,Pumice,2,TRUE,8,8,,
,,,,,,,,,,,html-button-response,305,2.0.0,3175773,5ba5d8b960f3d50001697104,2,9,2157,,,,,,,,,"<img src= rock_img/I_Pumice_02.jpg style=""width:8cm; height:7.3999999999999995cm;""><p style='font-size: 30px; color: green;'><strong>Correct!</strong></p><p style='font-size: 30px;'><strong>This rock is pumice</strong></p>",0,corr_feedback,2,train,1,,,,,,,,
,,,,,,,,,,,html-button-response,306,2.0.0,3188299,5ba5d8b960f3d50001697104,2,9,12521,,,,,,,,,"<img src= ""rock_img/I_Basalt_14.jpg"" style=""width:8cm; height:5.82cm;""><p>What type of rock is this?</p>",3,class_response,2,train,2,Gabbro,Basalt,14,FALSE,4,2,,
,,,,,,,,,,,html-button-response,307,2.0.0,3202888,5ba5d8b960f3d50001697104,2,9,14586,,,,,,,,,"<img src= rock_img/I_Basalt_14.jpg style=""width:8cm; height:5.82cm;""><p style='font-size: 30px; color: red;'><strong>Incorrect!</strong></p><p style='font-size: 30px;'><strong>This rock is basalt</strong></p>",0,corr_feedback,2,train,2,,,,,,,,
,,,,,,,,,,,html-button-response,308,2.0.0,3204950,5ba5d8b960f3d50001697104,2,9,2060,,,,,,,,,"<img src= ""rock_img/I_Obsidian_16.jpg"" style=""width:8cm; height:9.3cm;""><p>What type of rock is this?</p>",4,class_response,2,train,3,Obsidian,Obsidian,16,TRUE,5,5,,
,,,,,,,,,,,html-button-response,309,2.0.0,3205984,5ba5d8b960f3d50001697104,2,9,1031,,,,,,,,,"<img src= rock_img/I_Obsidian_16.jpg style=""width:8cm; height:9.3cm;""><p style='font-size: 30px; color: green;'><strong>Correct!</strong></p><p style='font-size: 30px;'><strong>This rock is obsidian</strong></p>",0,corr_feedback,2,train,3,,,,,,,,
,,,,,,,,,,,html-button-response,310,2.0.0,3211876,5ba5d8b960f3d50001697104,2,9,5891,,,,,,,,,"<img src= ""rock_img/I_Diorite_14.jpg"" style=""width:8cm; height:5.71cm;""><p>What type of rock is this?</p>",2,class_response,2,train,4,Diorite,Diorite,14,TRUE,3,3,,
,,,,,,,,,,,html-button-response,311,2.0.0,3214060,5ba5d8b960f3d50001697104,2,9,2181,,,,,,,,,"<img src= rock_img/I_Diorite_14.jpg style=""width:8cm; height:5.71cm;""><p style='font-size: 30px; color: green;'><strong>Correct!</strong></p><p style='font-size: 30px;'><strong>This rock is diorite</strong></p>",0,corr_feedback,2,train,4,,,,,,,,
,,,,,,,,,,,html-button-response,312,2.0.0,3221759,5ba5d8b960f3d50001697104,2,9,7696,,,,,,,,,"<img src= ""rock_img/I_Peridotite_14.jpg"" style=""width:8cm; height:5.3cm;""><p>What type of rock is this?</p>",5,class_response,2,train,5,Pegmatite,Peridotite,14,FALSE,6,7,,
,,,,,,,,,,,html-button-response,313,2.0.0,3224661,5ba5d8b960f3d50001697104,2,9,2899,,,,,,,,,"<img src= rock_img/I_Peridotite_14.jpg style=""width:8cm; height:5.3cm;""><p style='font-size: 30px; color: red;'><strong>Incorrect!</strong></p><p style='font-size: 30px;'><strong>This rock is peridotite</strong></p>",0,corr_feedback,2,train,5,,,,,,,,
,,,,,,,,,,,html-button-response,314,2.0.0,3241397,5ba5d8b960f3d50001697104,2,9,16735,,,,,,,,,"<img src= ""rock_img/I_Peridotite_16.jpg"" style=""width:8cm; height:6.989999999999999cm;""><p>What type of rock is this?</p>",5,class_response,2,train,6,Pegmatite,Peridotite,16,FALSE,6,7,,
,,,,,,,,,,,html-button-response,315,2.0.0,3243529,5ba5d8b960f3d50001697104,2,9,2131,,,,,,,,,"<img src= rock_img/I_Peridotite_16.jpg style=""width:8cm; height:6.989999999999999cm;""><p style='font-size: 30px; color: red;'><strong>Incorrect!</strong></p><p style='font-size: 30px;'><strong>This rock is peridotite</strong></p>",0,corr_feedback,2,train,6,,,,,,,,
,,,,,,,,,,,html-button-response,316,2.0.0,3250961,5ba5d8b960f3d50001697104,2,9,7429,,,,,,,,,"<img src= ""rock_img/I_Basalt_11.jpg"" style=""width:8cm; height:5.359999999999999cm;""><p>What type of rock is this?</p>",7,class_response,2,train,7,Pumice,Basalt,11,FALSE,8,2,,
,,,,,,,,,,,html-button-response,317,2.0.0,3258198,5ba5d8b960f3d50001697104,2,9,7235,,,,,,,,,"<img src= rock_img/I_Basalt_11.jpg style=""width:8cm; height:5.359999999999999cm;""><p style='font-size: 30px; color: red;'><strong>Incorrect!</strong></p><p style='font-size: 30px;'><strong>This rock is basalt</strong></p>",0,corr_feedback,2,train,7,,,,,,,,
,,,,,,,,,,,html-button-response,318,2.0.0,3265453,5ba5d8b960f3d50001697104,2,9,7253,,,,,,,,,"<img src= ""rock_img/I_Pegmatite_12.jpg"" style=""width:8cm; height:5.7cm;""><p>What type of rock is this?</p>",5,class_response,2,train,8,Pegmatite,Pegmatite,12,TRUE,6,6,,
,,,,,,,,,,,html-button-response,319,2.0.0,3266565,5ba5d8b960f3d50001697104,2,9,1110,,,,,,,,,"<img src= rock_img/I_Pegmatite_12.jpg style=""width:8cm; height:5.7cm;""><p style='font-size: 30px; color: green;'><strong>Correct!</strong></p><p style='font-size: 30px;'><strong>This rock is pegmatite</strong></p>",0,corr_feedback,2,train,8,,,,,,,,
,,,,,,,,,,,html-button-response,320,2.0.0,3287151,5ba5d8b960f3d50001697104,2,9,20584,,,,,,,,,"<img src= ""rock_img/I_Basalt_02.jpg"" style=""width:8cm; height:6.45cm;""><p>What type of rock is this?</p>",1,class_response,2,train,9,Basalt,Basalt,2,TRUE,2,2,,
,,,,,,,,,,,html-button-response,321,2.0.0,3288491,5ba5d8b960f3d50001697104,2,9,1337,,,,,,,,,"<img src= rock_img/I_Basalt_02.jpg style=""width:8cm; height:6.45cm;""><p style='font-size: 30px; color: green;'><strong>Correct!</strong></p><p style='font-size: 30px;'><strong>This rock is basalt</strong></p>",0,corr_feedback,2,train,9,,,,,,,,
,,,,,,,,,,,html-button-response,322,2.0.0,3295216,5ba5d8b960f3d50001697104,2,9,6723,,,,,,,,,"<img src= ""rock_img/I_Gabbro_12.jpg"" style=""width:8cm; height:7.800000000000001cm;""><p>What type of rock is this?</p>",3,class_response,2,train,10,Gabbro,Gabbro,12,TRUE,4,4,,
,,,,,,,,,,,html-button-response,323,2.0.0,3296411,5ba5d8b960f3d50001697104,2,9,1192,,,,,,,,,"<img src= rock_img/I_Gabbro_12.jpg style=""width:8cm; height:7.800000000000001cm;""><p style='font-size: 30px; color: green;'><strong>Correct!</strong></p><p style='font-size: 30px;'><strong>This rock is gabbro</strong></p>",0,corr_feedback,2,train,10,,,,,,,,
,,,,,,,,,,,html-button-response,324,2.0.0,3315179,5ba5d8b960f3d50001697104,2,9,18766,,,,,,,,,"<img src= ""rock_img/I_Peridotite_04.jpg"" style=""width:8cm; height:6.680000000000001cm;""><p>What type of rock is this?</p>",6,class_response,2,train,11,Peridotite,Peridotite,4,TRUE,7,7,,
,,,,,,,,,,,html-button-response,325,2.0.0,3321646,5ba5d8b960f3d50001697104,2,9,6463,,,,,,,,,"<img src= rock_img/I_Peridotite_04.jpg style=""width:8cm; height:6.680000000000001cm;""><p style='font-size: 30px; color: green;'><strong>Correct!</strong></p><p style='font-size: 30px;'><strong>This rock is peridotite</strong></p>",0,corr_feedback,2,train,11,,,,,,,,
,,,,,,,,,,,html-button-response,326,2.0.0,3323848,5ba5d8b960f3d50001697104,2,9,2199,,,,,,,,,"<img src= ""rock_img/I_Pegmatite_11.jpg"" style=""width:8cm; height:8.14cm;""><p>What type of rock is this?</p>",5,class_response,2,train,12,Pegmatite,Pegmatite,11,TRUE,6,6,,
,,,,,,,,,,,html-button-response,327,2.0.0,3324843,5ba5d8b960f3d50001697104,2,9,994,,,,,,,,,"<img src= rock_img/I_Pegmatite_11.jpg style=""width:8cm; height:8.14cm;""><p style='font-size: 30px; color: green;'><strong>Correct!</strong></p><p style='font-size: 30px;'><strong>This rock is pegmatite</strong></p>",0,corr_feedback,2,train,12,,,,,,,,
,,,,,,,,,,,html-button-response,328,2.0.0,3340490,5ba5d8b960f3d50001697104,2,9,15644,,,,,,,,,"<img src= ""rock_img/I_Gabbro_16.jpg"" style=""width:8cm; height:6.44cm;""><p>What type of rock is this?</p>",1,class_response,2,train,13,Basalt,Gabbro,16,FALSE,2,4,,
,,,,,,,,,,,html-button-response,329,2.0.0,3343418,5ba5d8b960f3d50001697104,2,9,2925,,,,,,,,,"<img src= rock_img/I_Gabbro_16.jpg style=""width:8cm; height:6.44cm;""><p style='font-size: 30px; color: red;'><strong>Incorrect!</strong></p><p style='font-size: 30px;'><strong>This rock is gabbro</strong></p>",0,corr_feedback,2,train,13,,,,,,,,
,,,,,,,,,,,html-button-response,330,2.0.0,3346849,5ba5d8b960f3d50001697104,2,9,3428,,,,,,,,,"<img src= ""rock_img/I_Diorite_12.jpg"" style=""width:8cm; height:4.88cm;""><p>What type of rock is this?</p>",2,class_response,2,train,14,Diorite,Diorite,12,TRUE,3,3,,
,,,,,,,,,,,html-button-response,331,2.0.0,3347974,5ba5d8b960f3d50001697104,2,9,1124,,,,,,,,,"<img src= rock_img/I_Diorite_12.jpg style=""width:8cm; height:4.88cm;""><p style='font-size: 30px; color: green;'><strong>Correct!</strong></p><p style='font-size: 30px;'><strong>This rock is diorite</strong></p>",0,corr_feedback,2,train,14,,,,,,,,
,,,,,,,,,,,html-button-response,332,2.0.0,3351737,5ba5d8b960f3d50001697104,2,9,3761,,,,,,,,,"<img src= ""rock_img/I_Andesite_09.jpg"" style=""width:8cm; height:6cm;""><p>What type of rock is this?</p>",0,class_response,2,train,15,Andesite,Andesite,9,TRUE,1,1,,
,,,,,,,,,,,html-button-response,333,2.0.0,3353039,5ba5d8b960f3d50001697104,2,9,1300,,,,,,,,,"<img src= rock_img/I_Andesite_09.jpg style=""width:8cm; height:6cm;""><p style='font-size: 30px; color: green;'><strong>Correct!</strong></p><p style='font-size: 30px;'><strong>This rock is andesite</strong></p>",0,corr_feedback,2,train,15,,,,,,,,
,,,,,,,,,,,html-button-response,334,2.0.0,3358186,5ba5d8b960f3d50001697104,2,9,5144,,,,,,,,,"<img src= ""rock_img/I_Gabbro_10.jpg"" style=""width:8cm; height:5.680000000000001cm;""><p>What type of rock is this?</p>",3,class_response,2,train,16,Gabbro,Gabbro,10,TRUE,4,4,,
,,,,,,,,,,,html-button-response,335,2.0.0,3359236,5ba5d8b960f3d50001697104,2,9,1047,,,,,,,,,"<img src= rock_img/I_Gabbro_10.jpg style=""width:8cm; height:5.680000000000001cm;""><p style='font-size: 30px; color: green;'><strong>Correct!</strong></p><p style='font-size: 30px;'><strong>This rock is gabbro</strong></p>",0,corr_feedback,2,train,16,,,,,,,,
,,,,,,,,,,,html-button-response,336,2.0.0,3362934,5ba5d8b960f3d50001697104,2,9,3696,,,,,,,,,"<img src= ""rock_img/I_Diorite_13.jpg"" style=""width:8cm; height:6.29cm;""><p>What type of rock is this?</p>",2,class_response,2,train,17,Diorite,Diorite,13,TRUE,3,3,,
,,,,,,,,,,,html-button-response,337,2.0.0,3364452,5ba5d8b960f3d50001697104,2,9,1516,,,,,,,,,"<img src= rock_img/I_Diorite_13.jpg style=""width:8cm; height:6.29cm;""><p style='font-size: 30px; color: green;'><strong>Correct!</strong></p><p style='font-size: 30px;'><strong>This rock is diorite</strong></p>",0,corr_feedback,2,train,17,,,,,,,,
,,,,,,,,,,,html-button-response,338,2.0.0,3373363,5ba5d8b960f3d50001697104,2,9,8908,,,,,,,,,"<img src= ""rock_img/I_Peridotite_10.jpg"" style=""width:8cm; height:5.390000000000001cm;""><p>What type of rock is this?</p>",6,class_response,2,train,18,Peridotite,Peridotite,10,TRUE,7,7,,
,,,,,,,,,,,html-button-response,339,2.0.0,3374442,5ba5d8b960f3d50001697104,2,9,1076,,,,,,,,,"<img src= rock_img/I_Peridotite_10.jpg style=""width:8cm; height:5.390000000000001cm;""><p style='font-size: 30px; color: green;'><strong>Correct!</strong></p><p style='font-size: 30px;'><strong>This rock is peridotite</strong></p>",0,corr_feedback,2,train,18,,,,,,,,
,,,,,,,,,,,html-button-response,340,2.0.0,3383298,5ba5d8b960f3d50001697104,2,9,8853,,,,,,,,,"<img src= ""rock_img/I_Gabbro_15.jpg"" style=""width:8cm; height:6.29cm;""><p>What type of rock is this?</p>",2,class_response,2,train,19,Diorite,Gabbro,15,FALSE,3,4,,
,,,,,,,,,,,html-button-response,341,2.0.0,3385129,5ba5d8b960f3d50001697104,2,9,1830,,,,,,,,,"<img src= rock_img/I_Gabbro_15.jpg style=""width:8cm; height:6.29cm;""><p style='font-size: 30px; color: red;'><strong>Incorrect!</strong></p><p style='font-size: 30px;'><strong>This rock is gabbro</strong></p>",0,corr_feedback,2,train,19,,,,,,,,
,,,,,,,,,,,html-button-response,342,2.0.0,3410900,5ba5d8b960f3d50001697104,2,9,25768,,,,,,,,,"<img src= ""rock_img/I_Diorite_06.jpg"" style=""width:8cm; height:6.03cm;""><p>What type of rock is this?</p>",2,class_response,2,train,20,Diorite,Diorite,6,TRUE,3,3,,
,,,,,,,,,,,html-button-response,343,2.0.0,3411934,5ba5d8b960f3d50001697104,2,9,1030,,,,,,,,,"<img src= rock_img/I_Diorite_06.jpg style=""width:8cm; height:6.03cm;""><p style='font-size: 30px; color: green;'><strong>Correct!</strong></p><p style='font-size: 30px;'><strong>This rock is diorite</strong></p>",0,corr_feedback,2,train,20,,,,,,,,
,,,,,,,,,,,html-button-response,344,2.0.0,3415422,5ba5d8b960f3d50001697104,2,9,3486,,,,,,,,,"<img src= ""rock_img/I_Andesite_01.jpg"" style=""width:8cm; height:5.87cm;""><p>What type of rock is this?</p>",0,class_response,2,train,21,Andesite,Andesite,1,TRUE,1,1,,
,,,,,,,,,,,html-button-response,345,2.0.0,3416725,5ba5d8b960f3d50001697104,2,9,1301,,,,,,,,,"<img src= rock_img/I_Andesite_01.jpg style=""width:8cm; height:5.87cm;""><p style='font-size: 30px; color: green;'><strong>Correct!</strong></p><p style='font-size: 30px;'><strong>This rock is andesite</strong></p>",0,corr_feedback,2,train,21,,,,,,,,
,,,,,,,,,,,html-button-response,346,2.0.0,3424807,5ba5d8b960f3d50001697104,2,9,8079,,,,,,,,,"<img src= ""rock_img/I_Andesite_02.jpg"" style=""width:8cm; height:8.5cm;""><p>What type of rock is this?</p>",2,class_response,2,train,22,Diorite,Andesite,2,FALSE,3,1,,
,,,,,,,,,,,html-button-response,347,2.0.0,3429517,5ba5d8b960f3d50001697104,2,9,4708,,,,,,,,,"<img src= rock_img/I_Andesite_02.jpg style=""width:8cm; height:8.5cm;""><p style='font-size: 30px; color: red;'><strong>Incorrect!</strong></p><p style='font-size: 30px;'><strong>This rock is andesite</strong></p>",0,corr_feedback,2,train,22,,,,,,,,
,,,,,,,,,,,html-button-response,348,2.0.0,3432057,5ba5d8b960f3d50001697104,2,9,2539,,,,,,,,,"<img src= ""rock_img/I_Andesite_05.jpg"" style=""width:8cm; height:4.12cm;""><p>What type of rock is this?</p>",0,class_response,2,train,23,Andesite,Andesite,5,TRUE,1,1,,
,,,,,,,,,,,html-button-response,349,2.0.0,3433032,5ba5d8b960f3d50001697104,2,9,974,,,,,,,,,"<img src= rock_img/I_Andesite_05.jpg style=""width:8cm; height:4.12cm;""><p style='font-size: 30px; color: green;'><strong>Correct!</strong></p><p style='font-size: 30px;'><strong>This rock is andesite</strong></p>",0,corr_feedback,2,train,23,,,,,,,,
,,,,,,,,,,,html-button-response,350,2.0.0,3437576,5ba5d8b960f3d50001697104,2,9,4540,,,,,,,,,"<img src= ""rock_img/I_Andesite_09.jpg"" style=""width:8cm; height:6cm;""><p>What type of rock is this?</p>",0,class_response,2,train,24,Andesite,Andesite,9,TRUE,1,1,,
,,,,,,,,,,,html-button-response,351,2.0.0,3438701,5ba5d8b960f3d50001697104,2,9,1124,,,,,,,,,"<img src= rock_img/I_Andesite_09.jpg style=""width:8cm; height:6cm;""><p style='font-size: 30px; color: green;'><strong>Correct!</strong></p><p style='font-size: 30px;'><strong>This rock is andesite</strong></p>",0,corr_feedback,2,train,24,,,,,,,,
,,,,,,,,,,,html-button-response,352,2.0.0,3444750,5ba5d8b960f3d50001697104,2,9,6047,,,,,,,,,"<img src= ""rock_img/I_Andesite_01.jpg"" style=""width:8cm; height:5.87cm;""><p>What type of rock is this?</p>",0,class_response,2,train,25,Andesite,Andesite,1,TRUE,1,1,,
,,,,,,,,,,,html-button-response,353,2.0.0,3446007,5ba5d8b960f3d50001697104,2,9,1254,,,,,,,,,"<img src= rock_img/I_Andesite_01.jpg style=""width:8cm; height:5.87cm;""><p style='font-size: 30px; color: green;'><strong>Correct!</strong></p><p style='font-size: 30px;'><strong>This rock is andesite</strong></p>",0,corr_feedback,2,train,25,,,,,,,,
,,,,,,,,,,,html-button-response,354,2.0.0,3457770,5ba5d8b960f3d50001697104,2,9,11761,,,,,,,,,"<img src= ""rock_img/I_Peridotite_12.jpg"" style=""width:8cm; height:4.54cm;""><p>What type of rock is this?</p>",6,class_response,2,train,26,Peridotite,Peridotite,12,TRUE,7,7,,
,,,,,,,,,,,html-button-response,355,2.0.0,3461436,5ba5d8b960f3d50001697104,2,9,3665,,,,,,,,,"<img src= rock_img/I_Peridotite_12.jpg style=""width:8cm; height:4.54cm;""><p style='font-size: 30px; color: green;'><strong>Correct!</strong></p><p style='font-size: 30px;'><strong>This rock is peridotite</strong></p>",0,corr_feedback,2,train,26,,,,,,,,
,,,,,,,,,,,html-button-response,356,2.0.0,3467199,5ba5d8b960f3d50001697104,2,9,5761,,,,,,,,,"<img src= ""rock_img/I_Basalt_01.jpg"" style=""width:8cm; height:7.880000000000001cm;""><p>What type of rock is this?</p>",1,class_response,2,train,27,Basalt,Basalt,1,TRUE,2,2,,
,,,,,,,,,,,html-button-response,357,2.0.0,3468292,5ba5d8b960f3d50001697104,2,9,1091,,,,,,,,,"<img src= rock_img/I_Basalt_01.jpg style=""width:8cm; height:7.880000000000001cm;""><p style='font-size: 30px; color: green;'><strong>Correct!</strong></p><p style='font-size: 30px;'><strong>This rock is basalt</strong></p>",0,corr_feedback,2,train,27,,,,,,,,
,,,,,,,,,,,html-button-response,358,2.0.0,3470488,5ba5d8b960f3d50001697104,2,9,2194,,,,,,,,,"<img src= ""rock_img/I_Basalt_01.jpg"" style=""width:8cm; height:7.880000000000001cm;""><p>What type of rock is this?</p>",1,class_response,2,train,28,Basalt,Basalt,1,TRUE,2,2,,
,,,,,,,,,,,html-button-response,359,2.0.0,3471398,5ba5d8b960f3d50001697104,2,9,908,,,,,,,,,"<img src= rock_img/I_Basalt_01.jpg style=""width:8cm; height:7.880000000000001cm;""><p style='font-size: 30px; color: green;'><strong>Correct!</strong></p><p style='font-size: 30px;'><strong>This rock is basalt</strong></p>",0,corr_feedback,2,train,28,,,,,,,,
,,,,,,,,,,,html-button-response,360,2.0.0,3480090,5ba5d8b960f3d50001697104,2,9,8690,,,,,,,,,"<img src= ""rock_img/I_Diorite_09.jpg"" style=""width:8cm; height:5.27cm;""><p>What type of rock is this?</p>",2,class_response,2,train,29,Diorite,Diorite,9,TRUE,3,3,,
,,,,,,,,,,,html-button-response,361,2.0.0,3481182,5ba5d8b960f3d50001697104,2,9,1091,,,,,,,,,"<img src= rock_img/I_Diorite_09.jpg style=""width:8cm; height:5.27cm;""><p style='font-size: 30px; color: green;'><strong>Correct!</strong></p><p style='font-size: 30px;'><strong>This rock is diorite</strong></p>",0,corr_feedback,2,train,29,,,,,,,,
,,,,,,,,,,,html-button-response,362,2.0.0,3499124,5ba5d8b960f3d50001697104,2,9,17939,,,,,,,,,"<img src= ""rock_img/I_Pumice_13.jpg"" style=""width:8cm; height:8.200000000000001cm;""><p>What type of rock is this?</p>",3,class_response,2,train,30,Gabbro,Pumice,13,FALSE,4,8,,
,,,,,,,,,,,html-button-response,363,2.0.0,3506030,5ba5d8b960f3d50001697104,2,9,6903,,,,,,,,,"<img src= rock_img/I_Pumice_13.jpg style=""width:8cm; height:8.200000000000001cm;""><p style='font-size: 30px; color: red;'><strong>Incorrect!</strong></p><p style='font-size: 30px;'><strong>This rock is pumice</strong></p>",0,corr_feedback,2,train,30,,,,,,,,
,,,,,,,,,,,html-button-response,364,2.0.0,3510462,5ba5d8b960f3d50001697104,2,9,4430,,,,,,,,,"<img src= ""rock_img/I_Pegmatite_08.jpg"" style=""width:8cm; height:7.68cm;""><p>What type of rock is this?</p>",5,class_response,2,train,31,Pegmatite,Pegmatite,8,TRUE,6,6,,
,,,,,,,,,,,html-button-response,365,2.0.0,3511512,5ba5d8b960f3d50001697104,2,9,1047,,,,,,,,,"<img src= rock_img/I_Pegmatite_08.jpg style=""width:8cm; height:7.68cm;""><p style='font-size: 30px; color: green;'><strong>Correct!</strong></p><p style='font-size: 30px;'><strong>This rock is pegmatite</strong></p>",0,corr_feedback,2,train,31,,,,,,,,
,,,,,,,,,,,html-button-response,366,2.0.0,3521541,5ba5d8b960f3d50001697104,2,9,10027,,,,,,,,,"<img src= ""rock_img/I_Obsidian_05.jpg"" style=""width:8cm; height:6.33cm;""><p>What type of rock is this?</p>",4,class_response,2,train,32,Obsidian,Obsidian,5,TRUE,5,5,,
,,,,,,,,,,,html-button-response,367,2.0.0,3524799,5ba5d8b960f3d50001697104,2,9,3254,,,,,,,,,"<img src= rock_img/I_Obsidian_05.jpg style=""width:8cm; height:6.33cm;""><p style='font-size: 30px; color: green;'><strong>Correct!</strong></p><p style='font-size: 30px;'><strong>This rock is obsidian</strong></p>",0,corr_feedback,2,train,32,,,,,,,,
,,,,,,,,,,,html-button-response,368,2.0.0,3540091,5ba5d8b960f3d50001697104,2,9,15290,,,,,,,,,"<img src= ""rock_img/I_Peridotite_14.jpg"" style=""width:8cm; height:5.3cm;""><p>What type of rock is this?</p>",6,class_response,2,train,33,Peridotite,Peridotite,14,TRUE,7,7,,
,,,,,,,,,,,html-button-response,369,2.0.0,3540917,5ba5d8b960f3d50001697104,2,9,825,,,,,,,,,"<img src= rock_img/I_Peridotite_14.jpg style=""width:8cm; height:5.3cm;""><p style='font-size: 30px; color: green;'><strong>Correct!</strong></p><p style='font-size: 30px;'><strong>This rock is peridotite</strong></p>",0,corr_feedback,2,train,33,,,,,,,,
,,,,,,,,,,,html-button-response,370,2.0.0,3551896,5ba5d8b960f3d50001697104,2,9,10975,,,,,,,,,"<img src= ""rock_img/I_Basalt_09.jpg"" style=""width:8cm; height:6.2cm;""><p>What type of rock is this?</p>",1,class_response,2,train,34,Basalt,Basalt,9,TRUE,2,2,,
,,,,,,,,,,,html-button-response,371,2.0.0,3552730,5ba5d8b960f3d50001697104,2,9,832,,,,,,,,,"<img src= rock_img/I_Basalt_09.jpg style=""width:8cm; height:6.2cm;""><p style='font-size: 30px; color: green;'><strong>Correct!</strong></p><p style='font-size: 30px;'><strong>This rock is basalt</strong></p>",0,corr_feedback,2,train,34,,,,,,,,
,,,,,,,,,,,html-button-response,372,2.0.0,3554394,5ba5d8b960f3d50001697104,2,9,1661,,,,,,,,,"<img src= ""rock_img/I_Obsidian_09.jpg"" style=""width:8cm; height:5cm;""><p>What type of rock is this?</p>",4,class_response,2,train,35,Obsidian,Obsidian,9,TRUE,5,5,,
,,,,,,,,,,,html-button-response,373,2.0.0,3555267,5ba5d8b960f3d50001697104,2,9,869,,,,,,,,,"<img src= rock_img/I_Obsidian_09.jpg style=""width:8cm; height:5cm;""><p style='font-size: 30px; color: green;'><strong>Correct!</strong></p><p style='font-size: 30px;'><strong>This rock is obsidian</strong></p>",0,corr_feedback,2,train,35,,,,,,,,
,,,,,,,,,,,html-button-response,374,2.0.0,3560227,5ba5d8b960f3d50001697104,2,9,4959,,,,,,,,,"<img src= ""rock_img/I_Gabbro_15.jpg"" style=""width:8cm; height:6.29cm;""><p>What type of rock is this?</p>",2,class_response,2,train,36,Diorite,Gabbro,15,FALSE,3,4,,
,,,,,,,,,,,html-button-response,375,2.0.0,3563112,5ba5d8b960f3d50001697104,2,9,2883,,,,,,,,,"<img src= rock_img/I_Gabbro_15.jpg style=""width:8cm; height:6.29cm;""><p style='font-size: 30px; color: red;'><strong>Incorrect!</strong></p><p style='font-size: 30px;'><strong>This rock is gabbro</strong></p>",0,corr_feedback,2,train,36,,,,,,,,
,,,,,,,,,,,html-button-response,376,2.0.0,3568052,5ba5d8b960f3d50001697104,2,9,4937,,,,,,,,,"<img src= ""rock_img/I_Obsidian_10.jpg"" style=""width:8cm; height:6.260000000000001cm;""><p>What type of rock is this?</p>",4,class_response,2,train,37,Obsidian,Obsidian,10,TRUE,5,5,,
,,,,,,,,,,,html-button-response,377,2.0.0,3570959,5ba5d8b960f3d50001697104,2,9,2904,,,,,,,,,"<img src= rock_img/I_Obsidian_10.jpg style=""width:8cm; height:6.260000000000001cm;""><p style='font-size: 30px; color: green;'><strong>Correct!</strong></p><p style='font-size: 30px;'><strong>This rock is obsidian</strong></p>",0,corr_feedback,2,train,37,,,,,,,,
,,,,,,,,,,,html-button-response,378,2.0.0,3573813,5ba5d8b960f3d50001697104,2,9,2851,,,,,,,,,"<img src= ""rock_img/I_Andesite_16.jpg"" style=""width:8cm; height:6.010000000000001cm;""><p>What type of rock is this?</p>",0,class_response,2,train,38,Andesite,Andesite,16,TRUE,1,1,,
,,,,,,,,,,,html-button-response,379,2.0.0,3574899,5ba5d8b960f3d50001697104,2,9,1084,,,,,,,,,"<img src= rock_img/I_Andesite_16.jpg style=""width:8cm; height:6.010000000000001cm;""><p style='font-size: 30px; color: green;'><strong>Correct!</strong></p><p style='font-size: 30px;'><strong>This rock is andesite</strong></p>",0,corr_feedback,2,train,38,,,,,,,,
,,,,,,,,,,,html-button-response,380,2.0.0,3577458,5ba5d8b960f3d50001697104,2,9,2557,,,,,,,,,"<img src= ""rock_img/I_Andesite_05.jpg"" style=""width:8cm; height:4.12cm;""><p>What type of rock is this?</p>",0,class_response,2,train,39,Andesite,Andesite,5,TRUE,1,1,,
,,,,,,,,,,,html-button-response,381,2.0.0,3578200,5ba5d8b960f3d50001697104,2,9,740,,,,,,,,,"<img src= rock_img/I_Andesite_05.jpg style=""width:8cm; height:4.12cm;""><p style='font-size: 30px; color: green;'><strong>Correct!</strong></p><p style='font-size: 30px;'><strong>This rock is andesite</strong></p>",0,corr_feedback,2,train,39,,,,,,,,
,,,,,,,,,,,html-button-response,382,2.0.0,3582828,5ba5d8b960f3d50001697104,2,9,4625,,,,,,,,,"<img src= ""rock_img/I_Diorite_14.jpg"" style=""width:8cm; height:5.71cm;""><p>What type of rock is this?</p>",2,class_response,2,train,40,Diorite,Diorite,14,TRUE,3,3,,
,,,,,,,,,,,html-button-response,383,2.0.0,3583654,5ba5d8b960f3d50001697104,2,9,824,,,,,,,,,"<img src= rock_img/I_Diorite_14.jpg style=""width:8cm; height:5.71cm;""><p style='font-size: 30px; color: green;'><strong>Correct!</strong></p><p style='font-size: 30px;'><strong>This rock is diorite</strong></p>",0,corr_feedback,2,train,40,,,,,,,,
,,,,,,,,,,,html-button-response,384,2.0.0,3592372,5ba5d8b960f3d50001697104,2,9,8715,,,,,,,,,"<img src= ""rock_img/I_Pumice_04.jpg"" style=""width:8cm; height:6.819999999999999cm;""><p>What type of rock is this?</p>",7,class_response,2,train,41,Pumice,Pumice,4,TRUE,8,8,,
