"width","height","webaudio","browser","browser_version","mobile","os","fullscreen","vsync_rate","webcam","microphone","trial_type","trial_index","plugin_version","time_elapsed","subjID","condition","stimID","rt","url","success","value","timeout","failed_images","failed_audio","failed_video","view_history","stimulus","response","trialType","cycle","phase","trial","resp","cat","token","corr","resp_num","cat_num","time_fb1","time_fb2"
"1366","633","true","chrome","125.0.0","false","Chrome OS","true","60.58","true","true","browser-check","0","2.0.0","1030","60c57903a2db0249ed2779b1","2","38","","","","","","","","","","","","","","","","","","","","","","",""
"","","","","","","","","","","","external-html","1","2.0.0","115759","60c57903a2db0249ed2779b1","2","38","114623","consent_form.html","","","","","","","","","","","","","","","","","","","","",""
"","","","","","","","","","","","fullscreen","2","2.0.0","118873","60c57903a2db0249ed2779b1","2","38","2104","","true","","","","","","","","","","","","","","","","","","","",""
"","","","","","","","","","","","call-function","3","2.0.0","118878","60c57903a2db0249ed2779b1","2","38","","","","{}","","","","","","","","","","","","","","","","","","",""
"","","","","","","","","","","","preload","4","2.0.0","124509","60c57903a2db0249ed2779b1","2","38","","","true","","false","[]","[]","[]","","","","","","","","","","","","","","",""
"","","","","","","","","","","","instructions","5","2.0.0","142528","60c57903a2db0249ed2779b1","2","38","18016","","","","","","","","[{""page_index"":0,""viewing_time"":1749},{""page_index"":1,""viewing_time"":8316},{""page_index"":2,""viewing_time"":7950}]","","","","","","","","","","","","","",""
"","","","","","","","","","","","html-button-response","6","2.0.0","144353","60c57903a2db0249ed2779b1","2","38","1820","","","","","","","","","","0","start_test","","","","","","","","","","",""
"","","","","","","","","","","","html-button-response","7","2.0.0","161102","60c57903a2db0249ed2779b1","2","38","16742","","","","","","","","","<img src= ""rock_img/I_Basalt_06.jpg"" style=""width:8cm; height:7.06cm;""><p>What type of rock is this?</p>","1","class_response","0","test","1","Basalt","Basalt","06","true","2","2","",""
"","","","","","","","","","","","html-keyboard-response","8","2.0.0","161606","60c57903a2db0249ed2779b1","2","38","null","","","","","","","","","<p style='font-size: 30px;'><strong>Okay</strong></p>","null","neutral_feedback","0","test","1","","","","","","","",""
"","","","","","","","","","","","html-button-response","9","2.0.0","171527","60c57903a2db0249ed2779b1","2","38","9916","","","","","","","","","<img src= ""rock_img/I_Diorite_14.jpg"" style=""width:8cm; height:5.71cm;""><p>What type of rock is this?</p>","2","class_response","0","test","2","Diorite","Diorite","14","true","3","3","",""
"","","","","","","","","","","","html-keyboard-response","10","2.0.0","172032","60c57903a2db0249ed2779b1","2","38","null","","","","","","","","","<p style='font-size: 30px;'><strong>Okay</strong></p>","null","neutral_feedback","0","test","2","","","","","","","",""
"","","","","","","","","","","","html-button-response","11","2.0.0","248338","60c57903a2db0249ed2779b1","2","38","76300","","","","","","","","","<img src= ""rock_img/I_Pegmatite_07.jpg"" style=""width:8cm; height:6.7cm;""><p>What type of rock is this?</p>","6","class_response","0","test","3","Peridotite","Pegmatite","07","false","7","6","",""
"","","","","","","","","","","","html-keyboard-response","12","2.0.0","248842","60c57903a2db0249ed2779b1","2","38","null","","","","","","","","","<p style='font-size: 30px;'><strong>Okay</strong></p>","null","neutral_feedback","0","test","3","","","","","","","",""
"","","","","","","","","","","","html-button-response","13","2.0.0","280148","60c57903a2db0249ed2779b1","2","38","31300","","","","","","","","","<img src= ""rock_img/I_Gabbro_09.jpg"" style=""width:8cm; height:7.279999999999999cm;""><p>What type of rock is this?</p>","4","class_response","0","test","4","Obsidian","Gabbro","09","false","5","4","",""
"","","","","","","","","","","","html-keyboard-response","14","2.0.0","280650","60c57903a2db0249ed2779b1","2","38","null","","","","","","","","","<p style='font-size: 30px;'><strong>Okay</strong></p>","null","neutral_feedback","0","test","4","","","","","","","",""
"","","","","","","","","","","","html-button-response","15","2.0.0","337532","60c57903a2db0249ed2779b1","2","38","56877","","","","","","","","","<img src= ""rock_img/I_Peridotite_06.jpg"" style=""width:8cm; height:7.53cm;""><p>What type of rock is this?</p>","4","class_response","0","test","5","Obsidian","Peridotite","06","false","5","7","",""
"","","","","","","","","","","","html-keyboard-response","16","2.0.0","338037","60c57903a2db0249ed2779b1","2","38","null","","","","","","","","","<p style='font-size: 30px;'><strong>Okay</strong></p>","null","neutral_feedback","0","test","5","","","","","","","",""
"","","","","","","","","","","","html-button-response","17","2.0.0","369938","60c57903a2db0249ed2779b1","2","38","31897","","","","","","","","","<img src= ""rock_img/I_Pegmatite_10.jpg"" style=""width:8cm; height:4.16cm;""><p>What type of rock is this?</p>","3","class_response","0","test","6","Gabbro","Pegmatite","10","false","4","6","",""
"","","","","","","","","","","","html-keyboard-response","18","2.0.0","370441","60c57903a2db0249ed2779b1","2","38","null","","","","","","","","","<p style='font-size: 30px;'><strong>Okay</strong></p>","null","neutral_feedback","0","test","6","","","","","","","",""
"","","","","","","","","","","","html-button-response","19","2.0.0","385800","60c57903a2db0249ed2779b1","2","38","15355","","","","","","","","","<img src= ""rock_img/I_Gabbro_11.jpg"" style=""width:8cm; height:6.2cm;""><p>What type of rock is this?</p>","7","class_response","0","test","7","Pumice","Gabbro","11","false","8","4","",""
"","","","","","","","","","","","html-keyboard-response","20","2.0.0","386303","60c57903a2db0249ed2779b1","2","38","null","","","","","","","","","<p style='font-size: 30px;'><strong>Okay</strong></p>","null","neutral_feedback","0","test","7","","","","","","","",""
"","","","","","","","","","","","html-button-response","21","2.0.0","403572","60c57903a2db0249ed2779b1","2","38","17264","","","","","","","","","<img src= ""rock_img/I_Gabbro_12.jpg"" style=""width:8cm; height:7.800000000000001cm;""><p>What type of rock is this?</p>","3","class_response","0","test","8","Gabbro","Gabbro","12","true","4","4","",""
"","","","","","","","","","","","html-keyboard-response","22","2.0.0","404076","60c57903a2db0249ed2779b1","2","38","null","","","","","","","","","<p style='font-size: 30px;'><strong>Okay</strong></p>","null","neutral_feedback","0","test","8","","","","","","","",""
"","","","","","","","","","","","html-button-response","23","2.0.0","431990","60c57903a2db0249ed2779b1","2","38","27911","","","","","","","","","<img src= ""rock_img/I_Andesite_11.jpg"" style=""width:8cm; height:4.92cm;""><p>What type of rock is this?</p>","2","class_response","0","test","9","Diorite","Andesite","11","false","3","1","",""
"","","","","","","","","","","","html-keyboard-response","24","2.0.0","432493","60c57903a2db0249ed2779b1","2","38","null","","","","","","","","","<p style='font-size: 30px;'><strong>Okay</strong></p>","null","neutral_feedback","0","test","9","","","","","","","",""
"","","","","","","","","","","","html-button-response","25","2.0.0","435472","60c57903a2db0249ed2779b1","2","38","2975","","","","","","","","","<img src= ""rock_img/I_Pumice_10.jpg"" style=""width:8cm; height:7.609999999999999cm;""><p>What type of rock is this?</p>","7","class_response","0","test","10","Pumice","Pumice","10","true","8","8","",""
"","","","","","","","","","","","html-keyboard-response","26","2.0.0","435975","60c57903a2db0249ed2779b1","2","38","null","","","","","","","","","<p style='font-size: 30px;'><strong>Okay</strong></p>","null","neutral_feedback","0","test","10","","","","","","","",""
"","","","","","","","","","","","html-button-response","27","2.0.0","438706","60c57903a2db0249ed2779b1","2","38","2727","","","","","","","","","<img src= ""rock_img/I_Obsidian_08.jpg"" style=""width:8cm; height:7.39cm;""><p>What type of rock is this?</p>","4","class_response","0","test","11","Obsidian","Obsidian","08","true","5","5","",""
"","","","","","","","","","","","html-keyboard-response","28","2.0.0","439208","60c57903a2db0249ed2779b1","2","38","null","","","","","","","","","<p style='font-size: 30px;'><strong>Okay</strong></p>","null","neutral_feedback","0","test","11","","","","","","","",""
"","","","","","","","","","","","html-button-response","29","2.0.0","448533","60c57903a2db0249ed2779b1","2","38","9321","","","","","","","","","<img src= ""rock_img/I_Basalt_11.jpg"" style=""width:8cm; height:5.359999999999999cm;""><p>What type of rock is this?</p>","1","class_response","0","test","12","Basalt","Basalt","11","true","2","2","",""
"","","","","","","","","","","","html-keyboard-response","30","2.0.0","449036","60c57903a2db0249ed2779b1","2","38","null","","","","","","","","","<p style='font-size: 30px;'><strong>Okay</strong></p>","null","neutral_feedback","0","test","12","","","","","","","",""
"","","","","","","","","","","","html-button-response","31","2.0.0","456454","60c57903a2db0249ed2779b1","2","38","7413","","","","","","","","","<img src= ""rock_img/I_Andesite_04.jpg"" style=""width:8cm; height:5.96cm;""><p>What type of rock is this?</p>","0","class_response","0","test","13","Andesite","Andesite","04","true","1","1","",""
"","","","","","","","","","","","html-keyboard-response","32","2.0.0","456958","60c57903a2db0249ed2779b1","2","38","null","","","","","","","","","<p style='font-size: 30px;'><strong>Okay</strong></p>","null","neutral_feedback","0","test","13","","","","","","","",""
"","","","","","","","","","","","html-button-response","33","2.0.0","463199","60c57903a2db0249ed2779b1","2","38","6238","","","","","","","","","<img src= ""rock_img/I_Obsidian_06.jpg"" style=""width:8cm; height:6.8cm;""><p>What type of rock is this?</p>","4","class_response","0","test","14","Obsidian","Obsidian","06","true","5","5","",""
"","","","","","","","","","","","html-keyboard-response","34","2.0.0","463702","60c57903a2db0249ed2779b1","2","38","null","","","","","","","","","<p style='font-size: 30px;'><strong>Okay</strong></p>","null","neutral_feedback","0","test","14","","","","","","","",""
"","","","","","","","","","","","html-button-response","35","2.0.0","475191","60c57903a2db0249ed2779b1","2","38","11485","","","","","","","","","<img src= ""rock_img/I_Pegmatite_03.jpg"" style=""width:8cm; height:5.239999999999999cm;""><p>What type of rock is this?</p>","3","class_response","0","test","15","Gabbro","Pegmatite","03","false","4","6","",""
"","","","","","","","","","","","html-keyboard-response","36","2.0.0","475695","60c57903a2db0249ed2779b1","2","38","null","","","","","","","","","<p style='font-size: 30px;'><strong>Okay</strong></p>","null","neutral_feedback","0","test","15","","","","","","","",""
"","","","","","","","","","","","html-button-response","37","2.0.0","488742","60c57903a2db0249ed2779b1","2","38","13044","","","","","","","","","<img src= ""rock_img/I_Basalt_14.jpg"" style=""width:8cm; height:5.82cm;""><p>What type of rock is this?</p>","1","class_response","0","test","16","Basalt","Basalt","14","true","2","2","",""
"","","","","","","","","","","","html-keyboard-response","38","2.0.0","489245","60c57903a2db0249ed2779b1","2","38","null","","","","","","","","","<p style='font-size: 30px;'><strong>Okay</strong></p>","null","neutral_feedback","0","test","16","","","","","","","",""
"","","","","","","","","","","","html-button-response","39","2.0.0","514436","60c57903a2db0249ed2779b1","2","38","25186","","","","","","","","","<img src= ""rock_img/I_Pumice_13.jpg"" style=""width:8cm; height:8.200000000000001cm;""><p>What type of rock is this?</p>","7","class_response","0","test","17","Pumice","Pumice","13","true","8","8","",""
"","","","","","","","","","","","html-keyboard-response","40","2.0.0","514938","60c57903a2db0249ed2779b1","2","38","null","","","","","","","","","<p style='font-size: 30px;'><strong>Okay</strong></p>","null","neutral_feedback","0","test","17","","","","","","","",""
"","","","","","","","","","","","html-button-response","41","2.0.0","534899","60c57903a2db0249ed2779b1","2","38","19957","","","","","","","","","<img src= ""rock_img/I_Diorite_06.jpg"" style=""width:8cm; height:6.03cm;""><p>What type of rock is this?</p>","6","class_response","0","test","18","Peridotite","Diorite","06","false","7","3","",""
"","","","","","","","","","","","html-keyboard-response","42","2.0.0","535402","60c57903a2db0249ed2779b1","2","38","null","","","","","","","","","<p style='font-size: 30px;'><strong>Okay</strong></p>","null","neutral_feedback","0","test","18","","","","","","","",""
"","","","","","","","","","","","html-button-response","43","2.0.0","560524","60c57903a2db0249ed2779b1","2","38","25119","","","","","","","","","<img src= ""rock_img/I_Diorite_02.jpg"" style=""width:8cm; height:6.27cm;""><p>What type of rock is this?</p>","2","class_response","0","test","19","Diorite","Diorite","02","true","3","3","",""
"","","","","","","","","","","","html-keyboard-response","44","2.0.0","561027","60c57903a2db0249ed2779b1","2","38","null","","","","","","","","","<p style='font-size: 30px;'><strong>Okay</strong></p>","null","neutral_feedback","0","test","19","","","","","","","",""
"","","","","","","","","","","","html-button-response","45","2.0.0","568966","60c57903a2db0249ed2779b1","2","38","7935","","","","","","","","","<img src= ""rock_img/I_Diorite_13.jpg"" style=""width:8cm; height:6.29cm;""><p>What type of rock is this?</p>","2","class_response","0","test","20","Diorite","Diorite","13","true","3","3","",""
"","","","","","","","","","","","html-keyboard-response","46","2.0.0","569469","60c57903a2db0249ed2779b1","2","38","null","","","","","","","","","<p style='font-size: 30px;'><strong>Okay</strong></p>","null","neutral_feedback","0","test","20","","","","","","","",""
"","","","","","","","","","","","html-button-response","47","2.0.0","577457","60c57903a2db0249ed2779b1","2","38","7983","","","","","","","","","<img src= ""rock_img/I_Pumice_04.jpg"" style=""width:8cm; height:6.819999999999999cm;""><p>What type of rock is this?</p>","7","class_response","0","test","21","Pumice","Pumice","04","true","8","8","",""
"","","","","","","","","","","","html-keyboard-response","48","2.0.0","577960","60c57903a2db0249ed2779b1","2","38","null","","","","","","","","","<p style='font-size: 30px;'><strong>Okay</strong></p>","null","neutral_feedback","0","test","21","","","","","","","",""
"","","","","","","","","","","","html-button-response","49","2.0.0","603866","60c57903a2db0249ed2779b1","2","38","25902","","","","","","","","","<img src= ""rock_img/I_Gabbro_14.jpg"" style=""width:8cm; height:8.48cm;""><p>What type of rock is this?</p>","6","class_response","0","test","22","Peridotite","Gabbro","14","false","7","4","",""
"","","","","","","","","","","","html-keyboard-response","50","2.0.0","604369","60c57903a2db0249ed2779b1","2","38","null","","","","","","","","","<p style='font-size: 30px;'><strong>Okay</strong></p>","null","neutral_feedback","0","test","22","","","","","","","",""
"","","","","","","","","","","","html-button-response","51","2.0.0","616698","60c57903a2db0249ed2779b1","2","38","12326","","","","","","","","","<img src= ""rock_img/I_Pegmatite_06.jpg"" style=""width:8cm; height:5.17cm;""><p>What type of rock is this?</p>","0","class_response","0","test","23","Andesite","Pegmatite","06","false","1","6","",""
"","","","","","","","","","","","html-keyboard-response","52","2.0.0","617201","60c57903a2db0249ed2779b1","2","38","null","","","","","","","","","<p style='font-size: 30px;'><strong>Okay</strong></p>","null","neutral_feedback","0","test","23","","","","","","","",""
"","","","","","","","","","","","html-button-response","53","2.0.0","624869","60c57903a2db0249ed2779b1","2","38","7664","","","","","","","","","<img src= ""rock_img/I_Pumice_09.jpg"" style=""width:8cm; height:6.44cm;""><p>What type of rock is this?</p>","7","class_response","0","test","24","Pumice","Pumice","09","true","8","8","",""
"","","","","","","","","","","","html-keyboard-response","54","2.0.0","625372","60c57903a2db0249ed2779b1","2","38","null","","","","","","","","","<p style='font-size: 30px;'><strong>Okay</strong></p>","null","neutral_feedback","0","test","24","","","","","","","",""
"","","","","","","","","","","","html-button-response","55","2.0.0","634527","60c57903a2db0249ed2779b1","2","38","9151","","","","","","","","","<img src= ""rock_img/I_Gabbro_05.jpg"" style=""width:8cm; height:6cm;""><p>What type of rock is this?</p>","3","class_response","0","test","25","Gabbro","Gabbro","05","true","4","4","",""
"","","","","","","","","","","","html-keyboard-response","56","2.0.0","635030","60c57903a2db0249ed2779b1","2","38","null","","","","","","","","","<p style='font-size: 30px;'><strong>Okay</strong></p>","null","neutral_feedback","0","test","25","","","","","","","",""
"","","","","","","","","","","","html-button-response","57","2.0.0","642118","60c57903a2db0249ed2779b1","2","38","7084","","","","","","","","","<img src= ""rock_img/I_Obsidian_14.jpg"" style=""width:8cm; height:7.64cm;""><p>What type of rock is this?</p>","4","class_response","0","test","26","Obsidian","Obsidian","14","true","5","5","",""
"","","","","","","","","","","","html-keyboard-response","58","2.0.0","642621","60c57903a2db0249ed2779b1","2","38","null","","","","","","","","","<p style='font-size: 30px;'><strong>Okay</strong></p>","null","neutral_feedback","0","test","26","","","","","","","",""
"","","","","","","","","","","","html-button-response","59","2.0.0","652155","60c57903a2db0249ed2779b1","2","38","9530","","","","","","","","","<img src= ""rock_img/I_Andesite_09.jpg"" style=""width:8cm; height:6cm;""><p>What type of rock is this?</p>","0","class_response","0","test","27","Andesite","Andesite","09","true","1","1","",""
"","","","","","","","","","","","html-keyboard-response","60","2.0.0","652658","60c57903a2db0249ed2779b1","2","38","null","","","","","","","","","<p style='font-size: 30px;'><strong>Okay</strong></p>","null","neutral_feedback","0","test","27","","","","","","","",""
"","","","","","","","","","","","html-button-response","61","2.0.0","674353","60c57903a2db0249ed2779b1","2","38","21691","","","","","","","","","<img src= ""rock_img/I_Andesite_14.jpg"" style=""width:8cm; height:5.449999999999999cm;""><p>What type of rock is this?</p>","6","class_response","0","test","28","Peridotite","Andesite","14","false","7","1","",""
"","","","","","","","","","","","html-keyboard-response","62","2.0.0","674856","60c57903a2db0249ed2779b1","2","38","null","","","","","","","","","<p style='font-size: 30px;'><strong>Okay</strong></p>","null","neutral_feedback","0","test","28","","","","","","","",""
"","","","","","","","","","","","html-button-response","63","2.0.0","685068","60c57903a2db0249ed2779b1","2","38","10207","","","","","","","","","<img src= ""rock_img/I_Peridotite_10.jpg"" style=""width:8cm; height:5.390000000000001cm;""><p>What type of rock is this?</p>","5","class_response","0","test","29","Pegmatite","Peridotite","10","false","6","7","",""
"","","","","","","","","","","","html-keyboard-response","64","2.0.0","685572","60c57903a2db0249ed2779b1","2","38","null","","","","","","","","","<p style='font-size: 30px;'><strong>Okay</strong></p>","null","neutral_feedback","0","test","29","","","","","","","",""
"","","","","","","","","","","","html-button-response","65","2.0.0","693757","60c57903a2db0249ed2779b1","2","38","8181","","","","","","","","","<img src= ""rock_img/I_Andesite_07.jpg"" style=""width:8cm; height:5.93cm;""><p>What type of rock is this?</p>","0","class_response","0","test","30","Andesite","Andesite","07","true","1","1","",""
"","","","","","","","","","","","html-keyboard-response","66","2.0.0","694259","60c57903a2db0249ed2779b1","2","38","null","","","","","","","","","<p style='font-size: 30px;'><strong>Okay</strong></p>","null","neutral_feedback","0","test","30","","","","","","","",""
"","","","","","","","","","","","html-button-response","67","2.0.0","700616","60c57903a2db0249ed2779b1","2","38","6352","","","","","","","","","<img src= ""rock_img/I_Basalt_12.jpg"" style=""width:8cm; height:6.010000000000001cm;""><p>What type of rock is this?</p>","7","class_response","0","test","31","Pumice","Basalt","12","false","8","2","",""
"","","","","","","","","","","","html-keyboard-response","68","2.0.0","701118","60c57903a2db0249ed2779b1","2","38","null","","","","","","","","","<p style='font-size: 30px;'><strong>Okay</strong></p>","null","neutral_feedback","0","test","31","","","","","","","",""
"","","","","","","","","","","","html-button-response","69","2.0.0","708281","60c57903a2db0249ed2779b1","2","38","7158","","","","","","","","","<img src= ""rock_img/I_Pegmatite_13.jpg"" style=""width:8cm; height:4.95cm;""><p>What type of rock is this?</p>","5","class_response","0","test","32","Pegmatite","Pegmatite","13","true","6","6","",""
"","","","","","","","","","","","html-keyboard-response","70","2.0.0","708783","60c57903a2db0249ed2779b1","2","38","null","","","","","","","","","<p style='font-size: 30px;'><strong>Okay</strong></p>","null","neutral_feedback","0","test","32","","","","","","","",""
"","","","","","","","","","","","html-button-response","71","2.0.0","721091","60c57903a2db0249ed2779b1","2","38","12304","","","","","","","","","<img src= ""rock_img/I_Andesite_10.jpg"" style=""width:8cm; height:4.16cm;""><p>What type of rock is this?</p>","7","class_response","0","test","33","Pumice","Andesite","10","false","8","1","",""
"","","","","","","","","","","","html-keyboard-response","72","2.0.0","721594","60c57903a2db0249ed2779b1","2","38","null","","","","","","","","","<p style='font-size: 30px;'><strong>Okay</strong></p>","null","neutral_feedback","0","test","33","","","","","","","",""
"","","","","","","","","","","","html-button-response","73","2.0.0","754190","60c57903a2db0249ed2779b1","2","38","32592","","","","","","","","","<img src= ""rock_img/I_Peridotite_16.jpg"" style=""width:8cm; height:6.989999999999999cm;""><p>What type of rock is this?</p>","6","class_response","0","test","34","Peridotite","Peridotite","16","true","7","7","",""
"","","","","","","","","","","","html-keyboard-response","74","2.0.0","754693","60c57903a2db0249ed2779b1","2","38","null","","","","","","","","","<p style='font-size: 30px;'><strong>Okay</strong></p>","null","neutral_feedback","0","test","34","","","","","","","",""
"","","","","","","","","","","","html-button-response","75","2.0.0","765444","60c57903a2db0249ed2779b1","2","38","10747","","","","","","","","","<img src= ""rock_img/I_Gabbro_01.jpg"" style=""width:8cm; height:5.21cm;""><p>What type of rock is this?</p>","5","class_response","0","test","35","Pegmatite","Gabbro","01","false","6","4","",""
"","","","","","","","","","","","html-keyboard-response","76","2.0.0","765946","60c57903a2db0249ed2779b1","2","38","null","","","","","","","","","<p style='font-size: 30px;'><strong>Okay</strong></p>","null","neutral_feedback","0","test","35","","","","","","","",""
"","","","","","","","","","","","html-button-response","77","2.0.0","774523","60c57903a2db0249ed2779b1","2","38","8573","","","","","","","","","<img src= ""rock_img/I_Diorite_10.jpg"" style=""width:8cm; height:5.949999999999999cm;""><p>What type of rock is this?</p>","2","class_response","0","test","36","Diorite","Diorite","10","true","3","3","",""
"","","","","","","","","","","","html-keyboard-response","78","2.0.0","775026","60c57903a2db0249ed2779b1","2","38","null","","","","","","","","","<p style='font-size: 30px;'><strong>Okay</strong></p>","null","neutral_feedback","0","test","36","","","","","","","",""
"","","","","","","","","","","","html-button-response","79","2.0.0","788961","60c57903a2db0249ed2779b1","2","38","13931","","","","","","","","","<img src= ""rock_img/I_Basalt_08.jpg"" style=""width:8cm; height:10.44cm;""><p>What type of rock is this?</p>","4","class_response","0","test","37","Obsidian","Basalt","08","false","5","2","",""
"","","","","","","","","","","","html-keyboard-response","80","2.0.0","789464","60c57903a2db0249ed2779b1","2","38","null","","","","","","","","","<p style='font-size: 30px;'><strong>Okay</strong></p>","null","neutral_feedback","0","test","37","","","","","","","",""
"","","","","","","","","","","","html-button-response","81","2.0.0","797999","60c57903a2db0249ed2779b1","2","38","8532","","","","","","","","","<img src= ""rock_img/I_Pumice_15.jpg"" style=""width:8cm; height:7.86cm;""><p>What type of rock is this?</p>","7","class_response","0","test","38","Pumice","Pumice","15","true","8","8","",""
"","","","","","","","","","","","html-keyboard-response","82","2.0.0","798501","60c57903a2db0249ed2779b1","2","38","null","","","","","","","","","<p style='font-size: 30px;'><strong>Okay</strong></p>","null","neutral_feedback","0","test","38","","","","","","","",""
"","","","","","","","","","","","html-button-response","83","2.0.0","808736","60c57903a2db0249ed2779b1","2","38","10230","","","","","","","","","<img src= ""rock_img/I_Diorite_09.jpg"" style=""width:8cm; height:5.27cm;""><p>What type of rock is this?</p>","0","class_response","0","test","39","Andesite","Diorite","09","false","1","3","",""
"","","","","","","","","","","","html-keyboard-response","84","2.0.0","809238","60c57903a2db0249ed2779b1","2","38","null","","","","","","","","","<p style='font-size: 30px;'><strong>Okay</strong></p>","null","neutral_feedback","0","test","39","","","","","","","",""
"","","","","","","","","","","","html-button-response","85","2.0.0","842744","60c57903a2db0249ed2779b1","2","38","33502","","","","","","","","","<img src= ""rock_img/I_Basalt_05.jpg"" style=""width:8cm; height:8.18cm;""><p>What type of rock is this?</p>","1","class_response","0","test","40","Basalt","Basalt","05","true","2","2","",""
"","","","","","","","","","","","html-keyboard-response","86","2.0.0","843247","60c57903a2db0249ed2779b1","2","38","null","","","","","","","","","<p style='font-size: 30px;'><strong>Okay</strong></p>","null","neutral_feedback","0","test","40","","","","","","","",""
"","","","","","","","","","","","html-button-response","87","2.0.0","845397","60c57903a2db0249ed2779b1","2","38","2145","","","","","","","","","<img src= ""rock_img/I_Obsidian_04.jpg"" style=""width:8cm; height:6.930000000000001cm;""><p>What type of rock is this?</p>","4","class_response","0","test","41","Obsidian","Obsidian","04","true","5","5","",""
"","","","","","","","","","","","html-keyboard-response","88","2.0.0","845900","60c57903a2db0249ed2779b1","2","38","null","","","","","","","","","<p style='font-size: 30px;'><strong>Okay</strong></p>","null","neutral_feedback","0","test","41","","","","","","","",""
"","","","","","","","","","","","html-button-response","89","2.0.0","847573","60c57903a2db0249ed2779b1","2","38","1669","","","","","","","","","<img src= ""rock_img/I_Pumice_06.jpg"" style=""width:8cm; height:6.9399999999999995cm;""><p>What type of rock is this?</p>","7","class_response","0","test","42","Pumice","Pumice","06","true","8","8","",""
"","","","","","","","","","","","html-keyboard-response","90","2.0.0","848075","60c57903a2db0249ed2779b1","2","38","null","","","","","","","","","<p style='font-size: 30px;'><strong>Okay</strong></p>","null","neutral_feedback","0","test","42","","","","","","","",""
"","","","","","","","","","","","html-button-response","91","2.0.0","849687","60c57903a2db0249ed2779b1","2","38","1608","","","","","","","","","<img src= ""rock_img/I_Obsidian_16.jpg"" style=""width:8cm; height:9.3cm;""><p>What type of rock is this?</p>","4","class_response","0","test","43","Obsidian","Obsidian","16","true","5","5","",""
"","","","","","","","","","","","html-keyboard-response","92","2.0.0","850190","60c57903a2db0249ed2779b1","2","38","null","","","","","","","","","<p style='font-size: 30px;'><strong>Okay</strong></p>","null","neutral_feedback","0","test","43","","","","","","","",""
"","","","","","","","","","","","html-button-response","93","2.0.0","865958","60c57903a2db0249ed2779b1","2","38","15764","","","","","","","","","<img src= ""rock_img/I_Pegmatite_08.jpg"" style=""width:8cm; height:7.68cm;""><p>What type of rock is this?</p>","3","class_response","0","test","44","Gabbro","Pegmatite","08","false","4","6","",""
"","","","","","","","","","","","html-keyboard-response","94","2.0.0","866461","60c57903a2db0249ed2779b1","2","38","null","","","","","","","","","<p style='font-size: 30px;'><strong>Okay</strong></p>","null","neutral_feedback","0","test","44","","","","","","","",""
"","","","","","","","","","","","html-button-response","95","2.0.0","878047","60c57903a2db0249ed2779b1","2","38","11582","","","","","","","","","<img src= ""rock_img/I_Peridotite_02.jpg"" style=""width:8cm; height:5.859999999999999cm;""><p>What type of rock is this?</p>","2","class_response","0","test","45","Diorite","Peridotite","02","false","3","7","",""
"","","","","","","","","","","","html-keyboard-response","96","2.0.0","878549","60c57903a2db0249ed2779b1","2","38","null","","","","","","","","","<p style='font-size: 30px;'><strong>Okay</strong></p>","null","neutral_feedback","0","test","45","","","","","","","",""
"","","","","","","","","","","","html-button-response","97","2.0.0","880270","60c57903a2db0249ed2779b1","2","38","1717","","","","","","","","","<img src= ""rock_img/I_Obsidian_09.jpg"" style=""width:8cm; height:5cm;""><p>What type of rock is this?</p>","4","class_response","0","test","46","Obsidian","Obsidian","09","true","5","5","",""
"","","","","","","","","","","","html-keyboard-response","98","2.0.0","880773","60c57903a2db0249ed2779b1","2","38","null","","","","","","","","","<p style='font-size: 30px;'><strong>Okay</strong></p>","null","neutral_feedback","0","test","46","","","","","","","",""
"","","","","","","","","","","","html-button-response","99","2.0.0","884001","60c57903a2db0249ed2779b1","2","38","3224","","","","","","","","","<img src= ""rock_img/I_Peridotite_04.jpg"" style=""width:8cm; height:6.680000000000001cm;""><p>What type of rock is this?</p>","2","class_response","0","test","47","Diorite","Peridotite","04","false","3","7","",""
"","","","","","","","","","","","html-keyboard-response","100","2.0.0","884504","60c57903a2db0249ed2779b1","2","38","null","","","","","","","","","<p style='font-size: 30px;'><strong>Okay</strong></p>","null","neutral_feedback","0","test","47","","","","","","","",""
"","","","","","","","","","","","html-button-response","101","2.0.0","892542","60c57903a2db0249ed2779b1","2","38","8034","","","","","","","","","<img src= ""rock_img/I_Peridotite_14.jpg"" style=""width:8cm; height:5.3cm;""><p>What type of rock is this?</p>","0","class_response","0","test","48","Andesite","Peridotite","14","false","1","7","",""
"","","","","","","","","","","","html-keyboard-response","102","2.0.0","893045","60c57903a2db0249ed2779b1","2","38","null","","","","","","","","","<p style='font-size: 30px;'><strong>Okay</strong></p>","null","neutral_feedback","0","test","48","","","","","","","",""
"","","","","","","","","","","","instructions","103","2.0.0","992963","60c57903a2db0249ed2779b1","2","38","99849","","","","","","","","[{""page_index"":0,""viewing_time"":72529},{""page_index"":1,""viewing_time"":4157},{""page_index"":2,""viewing_time"":23164}]","","","","","","","","","","","","","",""
"","","","","","","","","","","","html-button-response","104","2.0.0","1006624","60c57903a2db0249ed2779b1","2","38","13657","","","","","","","","","","0","start_train","","","","","","","","","","",""
"","","","","","","","","","","","html-button-response","105","2.0.0","1030556","60c57903a2db0249ed2779b1","2","38","23927","","","","","","","","","<img src= ""rock_img/I_Obsidian_05.jpg"" style=""width:8cm; height:6.33cm;""><p>What type of rock is this?</p>","4","class_response","1","train","1","Obsidian","Obsidian","05","true","5","5","",""
"","","","","","","","","","","","html-button-response","106","2.0.0","1036958","60c57903a2db0249ed2779b1","2","38","6396","","","","","","","","","<img src= rock_img/I_Obsidian_05.jpg style=""width:8cm; height:6.33cm;""><p style='font-size: 30px; color: green;'><strong>Correct!</strong></p><p style='font-size: 30px;'><strong>This rock is obsidian</strong></p>","0","corr_feedback","1","train","1","","","","","","","",""
"","","","","","","","","","","","html-button-response","107","2.0.0","1069354","60c57903a2db0249ed2779b1","2","38","32392","","","","","","","","","<img src= ""rock_img/I_Gabbro_13.jpg"" style=""width:8cm; height:5.08cm;""><p>What type of rock is this?</p>","2","class_response","1","train","2","Diorite","Gabbro","13","false","3","4","",""
"","","","","","","","","","","","html-button-response","108","2.0.0","1077565","60c57903a2db0249ed2779b1","2","38","8207","","","","","","","","","<img src= rock_img/I_Gabbro_13.jpg style=""width:8cm; height:5.08cm;""><p style='font-size: 30px; color: red;'><strong>Incorrect!</strong></p><p style='font-size: 30px;'><strong>This rock is gabbro</strong></p>","0","corr_feedback","1","train","2","","","","","","","",""
"","","","","","","","","","","","html-button-response","109","2.0.0","1099791","60c57903a2db0249ed2779b1","2","38","22222","","","","","","","","","<img src= ""rock_img/I_Gabbro_15.jpg"" style=""width:8cm; height:6.29cm;""><p>What type of rock is this?</p>","3","class_response","1","train","3","Gabbro","Gabbro","15","true","4","4","",""
"","","","","","","","","","","","html-button-response","110","2.0.0","1106934","60c57903a2db0249ed2779b1","2","38","7139","","","","","","","","","<img src= rock_img/I_Gabbro_15.jpg style=""width:8cm; height:6.29cm;""><p style='font-size: 30px; color: green;'><strong>Correct!</strong></p><p style='font-size: 30px;'><strong>This rock is gabbro</strong></p>","0","corr_feedback","1","train","3","","","","","","","",""
"","","","","","","","","","","","html-button-response","111","2.0.0","1164200","60c57903a2db0249ed2779b1","2","38","57262","","","","","","","","","<img src= ""rock_img/I_Pegmatite_15.jpg"" style=""width:8cm; height:6cm;""><p>What type of rock is this?</p>","0","class_response","1","train","4","Andesite","Pegmatite","15","false","1","6","",""
"","","","","","","","","","","","html-button-response","112","2.0.0","1169654","60c57903a2db0249ed2779b1","2","38","5450","","","","","","","","","<img src= rock_img/I_Pegmatite_15.jpg style=""width:8cm; height:6cm;""><p style='font-size: 30px; color: red;'><strong>Incorrect!</strong></p><p style='font-size: 30px;'><strong>This rock is pegmatite</strong></p>","0","corr_feedback","1","train","4","","","","","","","",""
"","","","","","","","","","","","html-button-response","113","2.0.0","1192355","60c57903a2db0249ed2779b1","2","38","22697","","","","","","","","","<img src= ""rock_img/I_Andesite_03.jpg"" style=""width:8cm; height:5.73cm;""><p>What type of rock is this?</p>","1","class_response","1","train","5","Basalt","Andesite","03","false","2","1","",""
"","","","","","","","","","","","html-button-response","114","2.0.0","1197570","60c57903a2db0249ed2779b1","2","38","5211","","","","","","","","","<img src= rock_img/I_Andesite_03.jpg style=""width:8cm; height:5.73cm;""><p style='font-size: 30px; color: red;'><strong>Incorrect!</strong></p><p style='font-size: 30px;'><strong>This rock is andesite</strong></p>","0","corr_feedback","1","train","5","","","","","","","",""
"","","","","","","","","","","","html-button-response","115","2.0.0","1213270","60c57903a2db0249ed2779b1","2","38","15697","","","","","","","","","<img src= ""rock_img/I_Pegmatite_05.jpg"" style=""width:8cm; height:7.300000000000001cm;""><p>What type of rock is this?</p>","5","class_response","1","train","6","Pegmatite","Pegmatite","05","true","6","6","",""
"","","","","","","","","","","","html-button-response","116","2.0.0","1220661","60c57903a2db0249ed2779b1","2","38","7388","","","","","","","","","<img src= rock_img/I_Pegmatite_05.jpg style=""width:8cm; height:7.300000000000001cm;""><p style='font-size: 30px; color: green;'><strong>Correct!</strong></p><p style='font-size: 30px;'><strong>This rock is pegmatite</strong></p>","0","corr_feedback","1","train","6","","","","","","","",""
"","","","","","","","","","","","html-button-response","117","2.0.0","1233866","60c57903a2db0249ed2779b1","2","38","13201","","","","","","","","","<img src= ""rock_img/I_Peridotite_15.jpg"" style=""width:8cm; height:6cm;""><p>What type of rock is this?</p>","6","class_response","1","train","7","Peridotite","Peridotite","15","true","7","7","",""
"","","","","","","","","","","","html-button-response","118","2.0.0","1238933","60c57903a2db0249ed2779b1","2","38","5063","","","","","","","","","<img src= rock_img/I_Peridotite_15.jpg style=""width:8cm; height:6cm;""><p style='font-size: 30px; color: green;'><strong>Correct!</strong></p><p style='font-size: 30px;'><strong>This rock is peridotite</strong></p>","0","corr_feedback","1","train","7","","","","","","","",""
"","","","","","","","","","","","html-button-response","119","2.0.0","1260250","60c57903a2db0249ed2779b1","2","38","21313","","","","","","","","","<img src= ""rock_img/I_Diorite_07.jpg"" style=""width:8cm; height:5.239999999999999cm;""><p>What type of rock is this?</p>","0","class_response","1","train","8","Andesite","Diorite","07","false","1","3","",""
"","","","","","","","","","","","html-button-response","120","2.0.0","1269485","60c57903a2db0249ed2779b1","2","38","9231","","","","","","","","","<img src= rock_img/I_Diorite_07.jpg style=""width:8cm; height:5.239999999999999cm;""><p style='font-size: 30px; color: red;'><strong>Incorrect!</strong></p><p style='font-size: 30px;'><strong>This rock is diorite</strong></p>","0","corr_feedback","1","train","8","","","","","","","",""
"","","","","","","","","","","","html-button-response","121","2.0.0","1279032","60c57903a2db0249ed2779b1","2","38","9543","","","","","","","","","<img src= ""rock_img/I_Gabbro_08.jpg"" style=""width:8cm; height:5.15cm;""><p>What type of rock is this?</p>","0","class_response","1","train","9","Andesite","Gabbro","08","false","1","4","",""
"","","","","","","","","","","","html-button-response","122","2.0.0","1287750","60c57903a2db0249ed2779b1","2","38","8713","","","","","","","","","<img src= rock_img/I_Gabbro_08.jpg style=""width:8cm; height:5.15cm;""><p style='font-size: 30px; color: red;'><strong>Incorrect!</strong></p><p style='font-size: 30px;'><strong>This rock is gabbro</strong></p>","0","corr_feedback","1","train","9","","","","","","","",""
"","","","","","","","","","","","html-button-response","123","2.0.0","1294504","60c57903a2db0249ed2779b1","2","38","6749","","","","","","","","","<img src= ""rock_img/I_Pegmatite_11.jpg"" style=""width:8cm; height:8.14cm;""><p>What type of rock is this?</p>","5","class_response","1","train","10","Pegmatite","Pegmatite","11","true","6","6","",""
"","","","","","","","","","","","html-button-response","124","2.0.0","1329040","60c57903a2db0249ed2779b1","2","38","34533","","","","","","","","","<img src= rock_img/I_Pegmatite_11.jpg style=""width:8cm; height:8.14cm;""><p style='font-size: 30px; color: green;'><strong>Correct!</strong></p><p style='font-size: 30px;'><strong>This rock is pegmatite</strong></p>","0","corr_feedback","1","train","10","","","","","","","",""
"","","","","","","","","","","","html-button-response","125","2.0.0","1340242","60c57903a2db0249ed2779b1","2","38","11198","","","","","","","","","<img src= ""rock_img/I_Gabbro_10.jpg"" style=""width:8cm; height:5.680000000000001cm;""><p>What type of rock is this?</p>","0","class_response","1","train","11","Andesite","Gabbro","10","false","1","4","",""
"","","","","","","","","","","","html-button-response","126","2.0.0","1349138","60c57903a2db0249ed2779b1","2","38","8892","","","","","","","","","<img src= rock_img/I_Gabbro_10.jpg style=""width:8cm; height:5.680000000000001cm;""><p style='font-size: 30px; color: red;'><strong>Incorrect!</strong></p><p style='font-size: 30px;'><strong>This rock is gabbro</strong></p>","0","corr_feedback","1","train","11","","","","","","","",""
"","","","","","","","","","","","html-button-response","127","2.0.0","1365884","60c57903a2db0249ed2779b1","2","38","16742","","","","","","","","","<img src= ""rock_img/I_Peridotite_07.jpg"" style=""width:8cm; height:4.83cm;""><p>What type of rock is this?</p>","2","class_response","1","train","12","Diorite","Peridotite","07","false","3","7","",""
"","","","","","","","","","","","html-button-response","128","2.0.0","1374402","60c57903a2db0249ed2779b1","2","38","8514","","","","","","","","","<img src= rock_img/I_Peridotite_07.jpg style=""width:8cm; height:4.83cm;""><p style='font-size: 30px; color: red;'><strong>Incorrect!</strong></p><p style='font-size: 30px;'><strong>This rock is peridotite</strong></p>","0","corr_feedback","1","train","12","","","","","","","",""
"","","","","","","","","","","","html-button-response","129","2.0.0","1403219","60c57903a2db0249ed2779b1","2","38","28814","","","","","","","","","<img src= ""rock_img/I_Pegmatite_09.jpg"" style=""width:8cm; height:4.03cm;""><p>What type of rock is this?</p>","5","class_response","1","train","13","Pegmatite","Pegmatite","09","true","6","6","",""
"","","","","","","","","","","","html-button-response","130","2.0.0","1409871","60c57903a2db0249ed2779b1","2","38","6648","","","","","","","","","<img src= rock_img/I_Pegmatite_09.jpg style=""width:8cm; height:4.03cm;""><p style='font-size: 30px; color: green;'><strong>Correct!</strong></p><p style='font-size: 30px;'><strong>This rock is pegmatite</strong></p>","0","corr_feedback","1","train","13","","","","","","","",""
"","","","","","","","","","","","html-button-response","131","2.0.0","1422211","60c57903a2db0249ed2779b1","2","38","12336","","","","","","","","","<img src= ""rock_img/I_Andesite_05.jpg"" style=""width:8cm; height:4.12cm;""><p>What type of rock is this?</p>","3","class_response","1","train","14","Gabbro","Andesite","05","false","4","1","",""
"","","","","","","","","","","","html-button-response","132","2.0.0","1431256","60c57903a2db0249ed2779b1","2","38","9042","","","","","","","","","<img src= rock_img/I_Andesite_05.jpg style=""width:8cm; height:4.12cm;""><p style='font-size: 30px; color: red;'><strong>Incorrect!</strong></p><p style='font-size: 30px;'><strong>This rock is andesite</strong></p>","0","corr_feedback","1","train","14","","","","","","","",""
"","","","","","","","","","","","html-button-response","133","2.0.0","1438796","60c57903a2db0249ed2779b1","2","38","7536","","","","","","","","","<img src= ""rock_img/I_Peridotite_12.jpg"" style=""width:8cm; height:4.54cm;""><p>What type of rock is this?</p>","6","class_response","1","train","15","Peridotite","Peridotite","12","true","7","7","",""
"","","","","","","","","","","","html-button-response","134","2.0.0","1450037","60c57903a2db0249ed2779b1","2","38","11237","","","","","","","","","<img src= rock_img/I_Peridotite_12.jpg style=""width:8cm; height:4.54cm;""><p style='font-size: 30px; color: green;'><strong>Correct!</strong></p><p style='font-size: 30px;'><strong>This rock is peridotite</strong></p>","0","corr_feedback","1","train","15","","","","","","","",""
"","","","","","","","","","","","html-button-response","135","2.0.0","1456799","60c57903a2db0249ed2779b1","2","38","6758","","","","","","","","","<img src= ""rock_img/I_Andesite_02.jpg"" style=""width:8cm; height:8.5cm;""><p>What type of rock is this?</p>","2","class_response","1","train","16","Diorite","Andesite","02","false","3","1","",""
"","","","","","","","","","","","html-button-response","136","2.0.0","1463651","60c57903a2db0249ed2779b1","2","38","6848","","","","","","","","","<img src= rock_img/I_Andesite_02.jpg style=""width:8cm; height:8.5cm;""><p style='font-size: 30px; color: red;'><strong>Incorrect!</strong></p><p style='font-size: 30px;'><strong>This rock is andesite</strong></p>","0","corr_feedback","1","train","16","","","","","","","",""
"","","","","","","","","","","","html-button-response","137","2.0.0","1470174","60c57903a2db0249ed2779b1","2","38","6518","","","","","","","","","<img src= ""rock_img/I_Gabbro_15.jpg"" style=""width:8cm; height:6.29cm;""><p>What type of rock is this?</p>","6","class_response","1","train","17","Peridotite","Gabbro","15","false","7","4","",""
"","","","","","","","","","","","html-button-response","138","2.0.0","1479140","60c57903a2db0249ed2779b1","2","38","8963","","","","","","","","","<img src= rock_img/I_Gabbro_15.jpg style=""width:8cm; height:6.29cm;""><p style='font-size: 30px; color: red;'><strong>Incorrect!</strong></p><p style='font-size: 30px;'><strong>This rock is gabbro</strong></p>","0","corr_feedback","1","train","17","","","","","","","",""
"","","","","","","","","","","","html-button-response","139","2.0.0","1489043","60c57903a2db0249ed2779b1","2","38","9899","","","","","","","","","<img src= ""rock_img/I_Andesite_06.jpg"" style=""width:8cm; height:6.840000000000001cm;""><p>What type of rock is this?</p>","0","class_response","1","train","18","Andesite","Andesite","06","true","1","1","",""
"","","","","","","","","","","","html-button-response","140","2.0.0","1493910","60c57903a2db0249ed2779b1","2","38","4863","","","","","","","","","<img src= rock_img/I_Andesite_06.jpg style=""width:8cm; height:6.840000000000001cm;""><p style='font-size: 30px; color: green;'><strong>Correct!</strong></p><p style='font-size: 30px;'><strong>This rock is andesite</strong></p>","0","corr_feedback","1","train","18","","","","","","","",""
"","","","","","","","","","","","html-button-response","141","2.0.0","1499045","60c57903a2db0249ed2779b1","2","38","5129","","","","","","","","","<img src= ""rock_img/I_Peridotite_05.jpg"" style=""width:8cm; height:7.1499999999999995cm;""><p>What type of rock is this?</p>","3","class_response","1","train","19","Gabbro","Peridotite","05","false","4","7","",""
"","","","","","","","","","","","html-button-response","142","2.0.0","1507004","60c57903a2db0249ed2779b1","2","38","7955","","","","","","","","","<img src= rock_img/I_Peridotite_05.jpg style=""width:8cm; height:7.1499999999999995cm;""><p style='font-size: 30px; color: red;'><strong>Incorrect!</strong></p><p style='font-size: 30px;'><strong>This rock is peridotite</strong></p>","0","corr_feedback","1","train","19","","","","","","","",""
"","","","","","","","","","","","html-button-response","143","2.0.0","1512958","60c57903a2db0249ed2779b1","2","38","5950","","","","","","","","","<img src= ""rock_img/I_Peridotite_08.jpg"" style=""width:8cm; height:6.7cm;""><p>What type of rock is this?</p>","6","class_response","1","train","20","Peridotite","Peridotite","08","true","7","7","",""
"","","","","","","","","","","","html-button-response","144","2.0.0","1529707","60c57903a2db0249ed2779b1","2","38","16744","","","","","","","","","<img src= rock_img/I_Peridotite_08.jpg style=""width:8cm; height:6.7cm;""><p style='font-size: 30px; color: green;'><strong>Correct!</strong></p><p style='font-size: 30px;'><strong>This rock is peridotite</strong></p>","0","corr_feedback","1","train","20","","","","","","","",""
"","","","","","","","","","","","html-button-response","145","2.0.0","1540270","60c57903a2db0249ed2779b1","2","38","10558","","","","","","","","","<img src= ""rock_img/I_Peridotite_13.jpg"" style=""width:8cm; height:7.58cm;""><p>What type of rock is this?</p>","6","class_response","1","train","21","Peridotite","Peridotite","13","true","7","7","",""
"","","","","","","","","","","","html-button-response","146","2.0.0","1555556","60c57903a2db0249ed2779b1","2","38","15282","","","","","","","","","<img src= rock_img/I_Peridotite_13.jpg style=""width:8cm; height:7.58cm;""><p style='font-size: 30px; color: green;'><strong>Correct!</strong></p><p style='font-size: 30px;'><strong>This rock is peridotite</strong></p>","0","corr_feedback","1","train","21","","","","","","","",""
"","","","","","","","","","","","html-button-response","147","2.0.0","1559975","60c57903a2db0249ed2779b1","2","38","4415","","","","","","","","","<img src= ""rock_img/I_Diorite_16.jpg"" style=""width:8cm; height:6.74cm;""><p>What type of rock is this?</p>","2","class_response","1","train","22","Diorite","Diorite","16","true","3","3","",""
"","","","","","","","","","","","html-button-response","148","2.0.0","1568033","60c57903a2db0249ed2779b1","2","38","8054","","","","","","","","","<img src= rock_img/I_Diorite_16.jpg style=""width:8cm; height:6.74cm;""><p style='font-size: 30px; color: green;'><strong>Correct!</strong></p><p style='font-size: 30px;'><strong>This rock is diorite</strong></p>","0","corr_feedback","1","train","22","","","","","","","",""
"","","","","","","","","","","","html-button-response","149","2.0.0","1588261","60c57903a2db0249ed2779b1","2","38","20224","","","","","","","","","<img src= ""rock_img/I_Pegmatite_16.jpg"" style=""width:8cm; height:5.8cm;""><p>What type of rock is this?</p>","5","class_response","1","train","23","Pegmatite","Pegmatite","16","true","6","6","",""
"","","","","","","","","","","","html-button-response","150","2.0.0","1595141","60c57903a2db0249ed2779b1","2","38","6878","","","","","","","","","<img src= rock_img/I_Pegmatite_16.jpg style=""width:8cm; height:5.8cm;""><p style='font-size: 30px; color: green;'><strong>Correct!</strong></p><p style='font-size: 30px;'><strong>This rock is pegmatite</strong></p>","0","corr_feedback","1","train","23","","","","","","","",""
"","","","","","","","","","","","html-button-response","151","2.0.0","1606602","60c57903a2db0249ed2779b1","2","38","11456","","","","","","","","","<img src= ""rock_img/I_Peridotite_13.jpg"" style=""width:8cm; height:7.58cm;""><p>What type of rock is this?</p>","6","class_response","1","train","24","Peridotite","Peridotite","13","true","7","7","",""
"","","","","","","","","","","","html-button-response","152","2.0.0","1607727","60c57903a2db0249ed2779b1","2","38","1122","","","","","","","","","<img src= rock_img/I_Peridotite_13.jpg style=""width:8cm; height:7.58cm;""><p style='font-size: 30px; color: green;'><strong>Correct!</strong></p><p style='font-size: 30px;'><strong>This rock is peridotite</strong></p>","0","corr_feedback","1","train","24","","","","","","","",""
"","","","","","","","","","","","html-button-response","153","2.0.0","1621690","60c57903a2db0249ed2779b1","2","38","13959","","","","","","","","","<img src= ""rock_img/I_Andesite_16.jpg"" style=""width:8cm; height:6.010000000000001cm;""><p>What type of rock is this?</p>","0","class_response","1","train","25","Andesite","Andesite","16","true","1","1","",""
"","","","","","","","","","","","html-button-response","154","2.0.0","1630386","60c57903a2db0249ed2779b1","2","38","8691","","","","","","","","","<img src= rock_img/I_Andesite_16.jpg style=""width:8cm; height:6.010000000000001cm;""><p style='font-size: 30px; color: green;'><strong>Correct!</strong></p><p style='font-size: 30px;'><strong>This rock is andesite</strong></p>","0","corr_feedback","1","train","25","","","","","","","",""
"","","","","","","","","","","","html-button-response","155","2.0.0","1632132","60c57903a2db0249ed2779b1","2","38","1742","","","","","","","","","<img src= ""rock_img/I_Pumice_02.jpg"" style=""width:8cm; height:7.3999999999999995cm;""><p>What type of rock is this?</p>","7","class_response","1","train","26","Pumice","Pumice","02","true","8","8","",""
"","","","","","","","","","","","html-button-response","156","2.0.0","1636607","60c57903a2db0249ed2779b1","2","38","4472","","","","","","","","","<img src= rock_img/I_Pumice_02.jpg style=""width:8cm; height:7.3999999999999995cm;""><p style='font-size: 30px; color: green;'><strong>Correct!</strong></p><p style='font-size: 30px;'><strong>This rock is pumice</strong></p>","0","corr_feedback","1","train","26","","","","","","","",""
"","","","","","","","","","","","html-button-response","157","2.0.0","1641395","60c57903a2db0249ed2779b1","2","38","4782","","","","","","","","","<img src= ""rock_img/I_Pegmatite_11.jpg"" style=""width:8cm; height:8.14cm;""><p>What type of rock is this?</p>","5","class_response","1","train","27","Pegmatite","Pegmatite","11","true","6","6","",""
"","","","","","","","","","","","html-button-response","158","2.0.0","1647079","60c57903a2db0249ed2779b1","2","38","5681","","","","","","","","","<img src= rock_img/I_Pegmatite_11.jpg style=""width:8cm; height:8.14cm;""><p style='font-size: 30px; color: green;'><strong>Correct!</strong></p><p style='font-size: 30px;'><strong>This rock is pegmatite</strong></p>","0","corr_feedback","1","train","27","","","","","","","",""
"","","","","","","","","","","","html-button-response","159","2.0.0","1705545","60c57903a2db0249ed2779b1","2","38","58461","","","","","","","","","<img src= ""rock_img/I_Basalt_04.jpg"" style=""width:8cm; height:7.53cm;""><p>What type of rock is this?</p>","3","class_response","1","train","28","Gabbro","Basalt","04","false","4","2","",""
"","","","","","","","","","","","html-button-response","160","2.0.0","1713031","60c57903a2db0249ed2779b1","2","38","7482","","","","","","","","","<img src= rock_img/I_Basalt_04.jpg style=""width:8cm; height:7.53cm;""><p style='font-size: 30px; color: red;'><strong>Incorrect!</strong></p><p style='font-size: 30px;'><strong>This rock is basalt</strong></p>","0","corr_feedback","1","train","28","","","","","","","",""
"","","","","","","","","","","","html-button-response","161","2.0.0","1747668","60c57903a2db0249ed2779b1","2","38","34633","","","","","","","","","<img src= ""rock_img/I_Andesite_01.jpg"" style=""width:8cm; height:5.87cm;""><p>What type of rock is this?</p>","3","class_response","1","train","29","Gabbro","Andesite","01","false","4","1","",""
"","","","","","","","","","","","html-button-response","162","2.0.0","1755485","60c57903a2db0249ed2779b1","2","38","7815","","","","","","","","","<img src= rock_img/I_Andesite_01.jpg style=""width:8cm; height:5.87cm;""><p style='font-size: 30px; color: red;'><strong>Incorrect!</strong></p><p style='font-size: 30px;'><strong>This rock is andesite</strong></p>","0","corr_feedback","1","train","29","","","","","","","",""
"","","","","","","","","","","","html-button-response","163","2.0.0","1761948","60c57903a2db0249ed2779b1","2","38","6458","","","","","","","","","<img src= ""rock_img/I_Gabbro_16.jpg"" style=""width:8cm; height:6.44cm;""><p>What type of rock is this?</p>","3","class_response","1","train","30","Gabbro","Gabbro","16","true","4","4","",""
"","","","","","","","","","","","html-button-response","164","2.0.0","1769865","60c57903a2db0249ed2779b1","2","38","7914","","","","","","","","","<img src= rock_img/I_Gabbro_16.jpg style=""width:8cm; height:6.44cm;""><p style='font-size: 30px; color: green;'><strong>Correct!</strong></p><p style='font-size: 30px;'><strong>This rock is gabbro</strong></p>","0","corr_feedback","1","train","30","","","","","","","",""
"","","","","","","","","","","","html-button-response","165","2.0.0","1835295","60c57903a2db0249ed2779b1","2","38","65424","","","","","","","","","<img src= ""rock_img/I_Diorite_12.jpg"" style=""width:8cm; height:4.88cm;""><p>What type of rock is this?</p>","2","class_response","1","train","31","Diorite","Diorite","12","true","3","3","",""
"","","","","","","","","","","","html-button-response","166","2.0.0","1841712","60c57903a2db0249ed2779b1","2","38","6414","","","","","","","","","<img src= rock_img/I_Diorite_12.jpg style=""width:8cm; height:4.88cm;""><p style='font-size: 30px; color: green;'><strong>Correct!</strong></p><p style='font-size: 30px;'><strong>This rock is diorite</strong></p>","0","corr_feedback","1","train","31","","","","","","","",""
"","","","","","","","","","","","html-button-response","167","2.0.0","1850207","60c57903a2db0249ed2779b1","2","38","8491","","","","","","","","","<img src= ""rock_img/I_Basalt_02.jpg"" style=""width:8cm; height:6.45cm;""><p>What type of rock is this?</p>","1","class_response","1","train","32","Basalt","Basalt","02","true","2","2","",""
"","","","","","","","","","","","html-button-response","168","2.0.0","1855489","60c57903a2db0249ed2779b1","2","38","5279","","","","","","","","","<img src= rock_img/I_Basalt_02.jpg style=""width:8cm; height:6.45cm;""><p style='font-size: 30px; color: green;'><strong>Correct!</strong></p><p style='font-size: 30px;'><strong>This rock is basalt</strong></p>","0","corr_feedback","1","train","32","","","","","","","",""
"","","","","","","","","","","","html-button-response","169","2.0.0","1859837","60c57903a2db0249ed2779b1","2","38","4344","","","","","","","","","<img src= ""rock_img/I_Gabbro_13.jpg"" style=""width:8cm; height:5.08cm;""><p>What type of rock is this?</p>","3","class_response","1","train","33","Gabbro","Gabbro","13","true","4","4","",""
"","","","","","","","","","","","html-button-response","170","2.0.0","1864952","60c57903a2db0249ed2779b1","2","38","5111","","","","","","","","","<img src= rock_img/I_Gabbro_13.jpg style=""width:8cm; height:5.08cm;""><p style='font-size: 30px; color: green;'><strong>Correct!</strong></p><p style='font-size: 30px;'><strong>This rock is gabbro</strong></p>","0","corr_feedback","1","train","33","","","","","","","",""
"","","","","","","","","","","","html-button-response","171","2.0.0","1877887","60c57903a2db0249ed2779b1","2","38","12930","","","","","","","","","<img src= ""rock_img/I_Diorite_15.jpg"" style=""width:8cm; height:5.54cm;""><p>What type of rock is this?</p>","3","class_response","1","train","34","Gabbro","Diorite","15","false","4","3","",""
"","","","","","","","","","","","html-button-response","172","2.0.0","1884526","60c57903a2db0249ed2779b1","2","38","6636","","","","","","","","","<img src= rock_img/I_Diorite_15.jpg style=""width:8cm; height:5.54cm;""><p style='font-size: 30px; color: red;'><strong>Incorrect!</strong></p><p style='font-size: 30px;'><strong>This rock is diorite</strong></p>","0","corr_feedback","1","train","34","","","","","","","",""
"","","","","","","","","","","","html-button-response","173","2.0.0","1889603","60c57903a2db0249ed2779b1","2","38","5073","","","","","","","","","<img src= ""rock_img/I_Peridotite_15.jpg"" style=""width:8cm; height:6cm;""><p>What type of rock is this?</p>","5","class_response","1","train","35","Pegmatite","Peridotite","15","false","6","7","",""
"","","","","","","","","","","","html-button-response","174","2.0.0","1897620","60c57903a2db0249ed2779b1","2","38","8014","","","","","","","","","<img src= rock_img/I_Peridotite_15.jpg style=""width:8cm; height:6cm;""><p style='font-size: 30px; color: red;'><strong>Incorrect!</strong></p><p style='font-size: 30px;'><strong>This rock is peridotite</strong></p>","0","corr_feedback","1","train","35","","","","","","","",""
"","","","","","","","","","","","html-button-response","175","2.0.0","1923431","60c57903a2db0249ed2779b1","2","38","25807","","","","","","","","","<img src= ""rock_img/I_Peridotite_07.jpg"" style=""width:8cm; height:4.83cm;""><p>What type of rock is this?</p>","0","class_response","1","train","36","Andesite","Peridotite","07","false","1","7","",""
"","","","","","","","","","","","html-button-response","176","2.0.0","1931809","60c57903a2db0249ed2779b1","2","38","8374","","","","","","","","","<img src= rock_img/I_Peridotite_07.jpg style=""width:8cm; height:4.83cm;""><p style='font-size: 30px; color: red;'><strong>Incorrect!</strong></p><p style='font-size: 30px;'><strong>This rock is peridotite</strong></p>","0","corr_feedback","1","train","36","","","","","","","",""
"","","","","","","","","","","","html-button-response","177","2.0.0","1936547","60c57903a2db0249ed2779b1","2","38","4734","","","","","","","","","<img src= ""rock_img/I_Pegmatite_16.jpg"" style=""width:8cm; height:5.8cm;""><p>What type of rock is this?</p>","5","class_response","1","train","37","Pegmatite","Pegmatite","16","true","6","6","",""
"","","","","","","","","","","","html-button-response","178","2.0.0","1942530","60c57903a2db0249ed2779b1","2","38","5979","","","","","","","","","<img src= rock_img/I_Pegmatite_16.jpg style=""width:8cm; height:5.8cm;""><p style='font-size: 30px; color: green;'><strong>Correct!</strong></p><p style='font-size: 30px;'><strong>This rock is pegmatite</strong></p>","0","corr_feedback","1","train","37","","","","","","","",""
"","","","","","","","","","","","html-button-response","179","2.0.0","1958168","60c57903a2db0249ed2779b1","2","38","15634","","","","","","","","","<img src= ""rock_img/I_Pegmatite_15.jpg"" style=""width:8cm; height:6cm;""><p>What type of rock is this?</p>","5","class_response","1","train","38","Pegmatite","Pegmatite","15","true","6","6","",""
"","","","","","","","","","","","html-button-response","180","2.0.0","1958944","60c57903a2db0249ed2779b1","2","38","771","","","","","","","","","<img src= rock_img/I_Pegmatite_15.jpg style=""width:8cm; height:6cm;""><p style='font-size: 30px; color: green;'><strong>Correct!</strong></p><p style='font-size: 30px;'><strong>This rock is pegmatite</strong></p>","0","corr_feedback","1","train","38","","","","","","","",""
"","","","","","","","","","","","html-button-response","181","2.0.0","1973064","60c57903a2db0249ed2779b1","2","38","14117","","","","","","","","","<img src= ""rock_img/I_Basalt_01.jpg"" style=""width:8cm; height:7.880000000000001cm;""><p>What type of rock is this?</p>","1","class_response","1","train","39","Basalt","Basalt","01","true","2","2","",""
"","","","","","","","","","","","html-button-response","182","2.0.0","1980850","60c57903a2db0249ed2779b1","2","38","7783","","","","","","","","","<img src= rock_img/I_Basalt_01.jpg style=""width:8cm; height:7.880000000000001cm;""><p style='font-size: 30px; color: green;'><strong>Correct!</strong></p><p style='font-size: 30px;'><strong>This rock is basalt</strong></p>","0","corr_feedback","1","train","39","","","","","","","",""
"","","","","","","","","","","","html-button-response","183","2.0.0","1995259","60c57903a2db0249ed2779b1","2","38","14405","","","","","","","","","<img src= ""rock_img/I_Pegmatite_05.jpg"" style=""width:8cm; height:7.300000000000001cm;""><p>What type of rock is this?</p>","5","class_response","1","train","40","Pegmatite","Pegmatite","05","true","6","6","",""
"","","","","","","","","","","","html-button-response","184","2.0.0","2002557","60c57903a2db0249ed2779b1","2","38","7294","","","","","","","","","<img src= rock_img/I_Pegmatite_05.jpg style=""width:8cm; height:7.300000000000001cm;""><p style='font-size: 30px; color: green;'><strong>Correct!</strong></p><p style='font-size: 30px;'><strong>This rock is pegmatite</strong></p>","0","corr_feedback","1","train","40","","","","","","","",""
"","","","","","","","","","","","html-button-response","185","2.0.0","2010981","60c57903a2db0249ed2779b1","2","38","8420","","","","","","","","","<img src= ""rock_img/I_Basalt_16.jpg"" style=""width:8cm; height:7.659999999999999cm;""><p>What type of rock is this?</p>","3","class_response","1","train","41","Gabbro","Basalt","16","false","4","2","",""
"","","","","","","","","","","","html-button-response","186","2.0.0","2016178","60c57903a2db0249ed2779b1","2","38","5192","","","","","","","","","<img src= rock_img/I_Basalt_16.jpg style=""width:8cm; height:7.659999999999999cm;""><p style='font-size: 30px; color: red;'><strong>Incorrect!</strong></p><p style='font-size: 30px;'><strong>This rock is basalt</strong></p>","0","corr_feedback","1","train","41","","","","","","","",""
"","","","","","","","","","","","html-button-response","187","2.0.0","2019997","60c57903a2db0249ed2779b1","2","38","3815","","","","","","","","","<img src= ""rock_img/I_Obsidian_10.jpg"" style=""width:8cm; height:6.260000000000001cm;""><p>What type of rock is this?</p>","4","class_response","1","train","42","Obsidian","Obsidian","10","true","5","5","",""
"","","","","","","","","","","","html-button-response","188","2.0.0","2024743","60c57903a2db0249ed2779b1","2","38","4742","","","","","","","","","<img src= rock_img/I_Obsidian_10.jpg style=""width:8cm; height:6.260000000000001cm;""><p style='font-size: 30px; color: green;'><strong>Correct!</strong></p><p style='font-size: 30px;'><strong>This rock is obsidian</strong></p>","0","corr_feedback","1","train","42","","","","","","","",""
"","","","","","","","","","","","html-button-response","189","2.0.0","2030267","60c57903a2db0249ed2779b1","2","38","5519","","","","","","","","","<img src= ""rock_img/I_Diorite_11.jpg"" style=""width:8cm; height:7.11cm;""><p>What type of rock is this?</p>","2","class_response","1","train","43","Diorite","Diorite","11","true","3","3","",""
"","","","","","","","","","","","html-button-response","190","2.0.0","2037683","60c57903a2db0249ed2779b1","2","38","7412","","","","","","","","","<img src= rock_img/I_Diorite_11.jpg style=""width:8cm; height:7.11cm;""><p style='font-size: 30px; color: green;'><strong>Correct!</strong></p><p style='font-size: 30px;'><strong>This rock is diorite</strong></p>","0","corr_feedback","1","train","43","","","","","","","",""
"","","","","","","","","","","","html-button-response","191","2.0.0","2045272","60c57903a2db0249ed2779b1","2","38","7585","","","","","","","","","<img src= ""rock_img/I_Andesite_06.jpg"" style=""width:8cm; height:6.840000000000001cm;""><p>What type of rock is this?</p>","0","class_response","1","train","44","Andesite","Andesite","06","true","1","1","",""
"","","","","","","","","","","","html-button-response","192","2.0.0","2052553","60c57903a2db0249ed2779b1","2","38","7277","","","","","","","","","<img src= rock_img/I_Andesite_06.jpg style=""width:8cm; height:6.840000000000001cm;""><p style='font-size: 30px; color: green;'><strong>Correct!</strong></p><p style='font-size: 30px;'><strong>This rock is andesite</strong></p>","0","corr_feedback","1","train","44","","","","","","","",""
"","","","","","","","","","","","html-button-response","193","2.0.0","2054734","60c57903a2db0249ed2779b1","2","38","2178","","","","","","","","","<img src= ""rock_img/I_Pumice_14.jpg"" style=""width:8cm; height:6.39cm;""><p>What type of rock is this?</p>","7","class_response","1","train","45","Pumice","Pumice","14","true","8","8","",""
"","","","","","","","","","","","html-button-response","194","2.0.0","2059412","60c57903a2db0249ed2779b1","2","38","4674","","","","","","","","","<img src= rock_img/I_Pumice_14.jpg style=""width:8cm; height:6.39cm;""><p style='font-size: 30px; color: green;'><strong>Correct!</strong></p><p style='font-size: 30px;'><strong>This rock is pumice</strong></p>","0","corr_feedback","1","train","45","","","","","","","",""
"","","","","","","","","","","","html-button-response","195","2.0.0","2065447","60c57903a2db0249ed2779b1","2","38","6031","","","","","","","","","<img src= ""rock_img/I_Gabbro_03.jpg"" style=""width:8cm; height:8.52cm;""><p>What type of rock is this?</p>","0","class_response","1","train","46","Andesite","Gabbro","03","false","1","4","",""
"","","","","","","","","","","","html-button-response","196","2.0.0","2071848","60c57903a2db0249ed2779b1","2","38","6397","","","","","","","","","<img src= rock_img/I_Gabbro_03.jpg style=""width:8cm; height:8.52cm;""><p style='font-size: 30px; color: red;'><strong>Incorrect!</strong></p><p style='font-size: 30px;'><strong>This rock is gabbro</strong></p>","0","corr_feedback","1","train","46","","","","","","","",""
"","","","","","","","","","","","html-button-response","197","2.0.0","2077283","60c57903a2db0249ed2779b1","2","38","5431","","","","","","","","","<img src= ""rock_img/I_Peridotite_08.jpg"" style=""width:8cm; height:6.7cm;""><p>What type of rock is this?</p>","6","class_response","1","train","47","Peridotite","Peridotite","08","true","7","7","",""
"","","","","","","","","","","","html-button-response","198","2.0.0","2082767","60c57903a2db0249ed2779b1","2","38","5480","","","","","","","","","<img src= rock_img/I_Peridotite_08.jpg style=""width:8cm; height:6.7cm;""><p style='font-size: 30px; color: green;'><strong>Correct!</strong></p><p style='font-size: 30px;'><strong>This rock is peridotite</strong></p>","0","corr_feedback","1","train","47","","","","","","","",""
"","","","","","","","","","","","html-button-response","199","2.0.0","2087904","60c57903a2db0249ed2779b1","2","38","5132","","","","","","","","","<img src= ""rock_img/I_Pegmatite_12.jpg"" style=""width:8cm; height:5.7cm;""><p>What type of rock is this?</p>","5","class_response","1","train","48","Pegmatite","Pegmatite","12","true","6","6","",""
"","","","","","","","","","","","html-button-response","200","2.0.0","2092261","60c57903a2db0249ed2779b1","2","38","4353","","","","","","","","","<img src= rock_img/I_Pegmatite_12.jpg style=""width:8cm; height:5.7cm;""><p style='font-size: 30px; color: green;'><strong>Correct!</strong></p><p style='font-size: 30px;'><strong>This rock is pegmatite</strong></p>","0","corr_feedback","1","train","48","","","","","","","",""
"","","","","","","","","","","","instructions","203","2.0.0","2105305","60c57903a2db0249ed2779b1","2","38","13041","","","","","","","","[{""page_index"":0,""viewing_time"":6420},{""page_index"":1,""viewing_time"":6621}]","","","","","","","","","","","","","",""
"","","","","","","","","","","","html-button-response","204","2.0.0","2108676","60c57903a2db0249ed2779b1","2","38","3367","","","","","","","","","","0","start_test","","","","","","","","","","",""
"","","","","","","","","","","","html-button-response","205","2.0.0","2110681","60c57903a2db0249ed2779b1","2","38","2000","","","","","","","","","<img src= ""rock_img/I_Pumice_06.jpg"" style=""width:8cm; height:6.9399999999999995cm;""><p>What type of rock is this?</p>","7","class_response","1","test","1","Pumice","Pumice","06","true","8","8","",""
"","","","","","","","","","","","html-keyboard-response","206","2.0.0","2111183","60c57903a2db0249ed2779b1","2","38","null","","","","","","","","","<p style='font-size: 30px;'><strong>Okay</strong></p>","null","neutral_feedback","1","test","1","","","","","","","",""
"","","","","","","","","","","","html-button-response","207","2.0.0","2121190","60c57903a2db0249ed2779b1","2","38","10003","","","","","","","","","<img src= ""rock_img/I_Andesite_04.jpg"" style=""width:8cm; height:5.96cm;""><p>What type of rock is this?</p>","0","class_response","1","test","2","Andesite","Andesite","04","true","1","1","",""
"","","","","","","","","","","","html-keyboard-response","208","2.0.0","2121692","60c57903a2db0249ed2779b1","2","38","null","","","","","","","","","<p style='font-size: 30px;'><strong>Okay</strong></p>","null","neutral_feedback","1","test","2","","","","","","","",""
"","","","","","","","","","","","html-button-response","209","2.0.0","2152936","60c57903a2db0249ed2779b1","2","38","31239","","","","","","","","","<img src= ""rock_img/I_Peridotite_14.jpg"" style=""width:8cm; height:5.3cm;""><p>What type of rock is this?</p>","6","class_response","1","test","3","Peridotite","Peridotite","14","true","7","7","",""
"","","","","","","","","","","","html-keyboard-response","210","2.0.0","2153439","60c57903a2db0249ed2779b1","2","38","null","","","","","","","","","<p style='font-size: 30px;'><strong>Okay</strong></p>","null","neutral_feedback","1","test","3","","","","","","","",""
"","","","","","","","","","","","html-button-response","211","2.0.0","2163693","60c57903a2db0249ed2779b1","2","38","10250","","","","","","","","","<img src= ""rock_img/I_Diorite_09.jpg"" style=""width:8cm; height:5.27cm;""><p>What type of rock is this?</p>","2","class_response","1","test","4","Diorite","Diorite","09","true","3","3","",""
"","","","","","","","","","","","html-keyboard-response","212","2.0.0","2164195","60c57903a2db0249ed2779b1","2","38","null","","","","","","","","","<p style='font-size: 30px;'><strong>Okay</strong></p>","null","neutral_feedback","1","test","4","","","","","","","",""
"","","","","","","","","","","","html-button-response","213","2.0.0","2177054","60c57903a2db0249ed2779b1","2","38","12855","","","","","","","","","<img src= ""rock_img/I_Andesite_09.jpg"" style=""width:8cm; height:6cm;""><p>What type of rock is this?</p>","1","class_response","1","test","5","Basalt","Andesite","09","false","2","1","",""
"","","","","","","","","","","","html-keyboard-response","214","2.0.0","2177556","60c57903a2db0249ed2779b1","2","38","null","","","","","","","","","<p style='font-size: 30px;'><strong>Okay</strong></p>","null","neutral_feedback","1","test","5","","","","","","","",""
"","","","","","","","","","","","html-button-response","215","2.0.0","2182338","60c57903a2db0249ed2779b1","2","38","4777","","","","","","","","","<img src= ""rock_img/I_Basalt_05.jpg"" style=""width:8cm; height:8.18cm;""><p>What type of rock is this?</p>","1","class_response","1","test","6","Basalt","Basalt","05","true","2","2","",""
"","","","","","","","","","","","html-keyboard-response","216","2.0.0","2182840","60c57903a2db0249ed2779b1","2","38","null","","","","","","","","","<p style='font-size: 30px;'><strong>Okay</strong></p>","null","neutral_feedback","1","test","6","","","","","","","",""
"","","","","","","","","","","","html-button-response","217","2.0.0","2189329","60c57903a2db0249ed2779b1","2","38","6484","","","","","","","","","<img src= ""rock_img/I_Basalt_08.jpg"" style=""width:8cm; height:10.44cm;""><p>What type of rock is this?</p>","1","class_response","1","test","7","Basalt","Basalt","08","true","2","2","",""
"","","","","","","","","","","","html-keyboard-response","218","2.0.0","2189831","60c57903a2db0249ed2779b1","2","38","null","","","","","","","","","<p style='font-size: 30px;'><strong>Okay</strong></p>","null","neutral_feedback","1","test","7","","","","","","","",""
"","","","","","","","","","","","html-button-response","219","2.0.0","2192290","60c57903a2db0249ed2779b1","2","38","2454","","","","","","","","","<img src= ""rock_img/I_Basalt_12.jpg"" style=""width:8cm; height:6.010000000000001cm;""><p>What type of rock is this?</p>","7","class_response","1","test","8","Pumice","Basalt","12","false","8","2","",""
"","","","","","","","","","","","html-keyboard-response","220","2.0.0","2192792","60c57903a2db0249ed2779b1","2","38","null","","","","","","","","","<p style='font-size: 30px;'><strong>Okay</strong></p>","null","neutral_feedback","1","test","8","","","","","","","",""
"","","","","","","","","","","","html-button-response","221","2.0.0","2216437","60c57903a2db0249ed2779b1","2","38","23640","","","","","","","","","<img src= ""rock_img/I_Pumice_15.jpg"" style=""width:8cm; height:7.86cm;""><p>What type of rock is this?</p>","7","class_response","1","test","9","Pumice","Pumice","15","true","8","8","",""
"","","","","","","","","","","","html-keyboard-response","222","2.0.0","2216941","60c57903a2db0249ed2779b1","2","38","null","","","","","","","","","<p style='font-size: 30px;'><strong>Okay</strong></p>","null","neutral_feedback","1","test","9","","","","","","","",""
"","","","","","","","","","","","html-button-response","223","2.0.0","2232194","60c57903a2db0249ed2779b1","2","38","15249","","","","","","","","","<img src= ""rock_img/I_Gabbro_11.jpg"" style=""width:8cm; height:6.2cm;""><p>What type of rock is this?</p>","1","class_response","1","test","10","Basalt","Gabbro","11","false","2","4","",""
"","","","","","","","","","","","html-keyboard-response","224","2.0.0","2232696","60c57903a2db0249ed2779b1","2","38","null","","","","","","","","","<p style='font-size: 30px;'><strong>Okay</strong></p>","null","neutral_feedback","1","test","10","","","","","","","",""
"","","","","","","","","","","","html-button-response","225","2.0.0","2235165","60c57903a2db0249ed2779b1","2","38","2464","","","","","","","","","<img src= ""rock_img/I_Basalt_06.jpg"" style=""width:8cm; height:7.06cm;""><p>What type of rock is this?</p>","1","class_response","1","test","11","Basalt","Basalt","06","true","2","2","",""
"","","","","","","","","","","","html-keyboard-response","226","2.0.0","2235667","60c57903a2db0249ed2779b1","2","38","null","","","","","","","","","<p style='font-size: 30px;'><strong>Okay</strong></p>","null","neutral_feedback","1","test","11","","","","","","","",""
"","","","","","","","","","","","html-button-response","227","2.0.0","2251768","60c57903a2db0249ed2779b1","2","38","16098","","","","","","","","","<img src= ""rock_img/I_Pegmatite_10.jpg"" style=""width:8cm; height:4.16cm;""><p>What type of rock is this?</p>","6","class_response","1","test","12","Peridotite","Pegmatite","10","false","7","6","",""
"","","","","","","","","","","","html-keyboard-response","228","2.0.0","2252271","60c57903a2db0249ed2779b1","2","38","null","","","","","","","","","<p style='font-size: 30px;'><strong>Okay</strong></p>","null","neutral_feedback","1","test","12","","","","","","","",""
"","","","","","","","","","","","html-button-response","229","2.0.0","2253911","60c57903a2db0249ed2779b1","2","38","1636","","","","","","","","","<img src= ""rock_img/I_Pumice_04.jpg"" style=""width:8cm; height:6.819999999999999cm;""><p>What type of rock is this?</p>","7","class_response","1","test","13","Pumice","Pumice","04","true","8","8","",""
"","","","","","","","","","","","html-keyboard-response","230","2.0.0","2254413","60c57903a2db0249ed2779b1","2","38","null","","","","","","","","","<p style='font-size: 30px;'><strong>Okay</strong></p>","null","neutral_feedback","1","test","13","","","","","","","",""
"","","","","","","","","","","","html-button-response","231","2.0.0","2261189","60c57903a2db0249ed2779b1","2","38","6772","","","","","","","","","<img src= ""rock_img/I_Diorite_10.jpg"" style=""width:8cm; height:5.949999999999999cm;""><p>What type of rock is this?</p>","3","class_response","1","test","14","Gabbro","Diorite","10","false","4","3","",""
"","","","","","","","","","","","html-keyboard-response","232","2.0.0","2261692","60c57903a2db0249ed2779b1","2","38","null","","","","","","","","","<p style='font-size: 30px;'><strong>Okay</strong></p>","null","neutral_feedback","1","test","14","","","","","","","",""
"","","","","","","","","","","","html-button-response","233","2.0.0","2270284","60c57903a2db0249ed2779b1","2","38","8588","","","","","","","","","<img src= ""rock_img/I_Pegmatite_08.jpg"" style=""width:8cm; height:7.68cm;""><p>What type of rock is this?</p>","5","class_response","1","test","15","Pegmatite","Pegmatite","08","true","6","6","",""
"","","","","","","","","","","","html-keyboard-response","234","2.0.0","2270786","60c57903a2db0249ed2779b1","2","38","null","","","","","","","","","<p style='font-size: 30px;'><strong>Okay</strong></p>","null","neutral_feedback","1","test","15","","","","","","","",""
"","","","","","","","","","","","html-button-response","235","2.0.0","2304704","60c57903a2db0249ed2779b1","2","38","33913","","","","","","","","","<img src= ""rock_img/I_Andesite_10.jpg"" style=""width:8cm; height:4.16cm;""><p>What type of rock is this?</p>","3","class_response","1","test","16","Gabbro","Andesite","10","false","4","1","",""
"","","","","","","","","","","","html-keyboard-response","236","2.0.0","2305206","60c57903a2db0249ed2779b1","2","38","null","","","","","","","","","<p style='font-size: 30px;'><strong>Okay</strong></p>","null","neutral_feedback","1","test","16","","","","","","","",""
"","","","","","","","","","","","html-button-response","237","2.0.0","2310744","60c57903a2db0249ed2779b1","2","38","5534","","","","","","","","","<img src= ""rock_img/I_Gabbro_01.jpg"" style=""width:8cm; height:5.21cm;""><p>What type of rock is this?</p>","0","class_response","1","test","17","Andesite","Gabbro","01","false","1","4","",""
"","","","","","","","","","","","html-keyboard-response","238","2.0.0","2311246","60c57903a2db0249ed2779b1","2","38","null","","","","","","","","","<p style='font-size: 30px;'><strong>Okay</strong></p>","null","neutral_feedback","1","test","17","","","","","","","",""
"","","","","","","","","","","","html-button-response","239","2.0.0","2314354","60c57903a2db0249ed2779b1","2","38","3104","","","","","","","","","<img src= ""rock_img/I_Pegmatite_03.jpg"" style=""width:8cm; height:5.239999999999999cm;""><p>What type of rock is this?</p>","5","class_response","1","test","18","Pegmatite","Pegmatite","03","true","6","6","",""
"","","","","","","","","","","","html-keyboard-response","240","2.0.0","2314857","60c57903a2db0249ed2779b1","2","38","null","","","","","","","","","<p style='font-size: 30px;'><strong>Okay</strong></p>","null","neutral_feedback","1","test","18","","","","","","","",""
"","","","","","","","","","","","html-button-response","241","2.0.0","2389305","60c57903a2db0249ed2779b1","2","38","74445","","","","","","","","","<img src= ""rock_img/I_Pegmatite_13.jpg"" style=""width:8cm; height:4.95cm;""><p>What type of rock is this?</p>","5","class_response","1","test","19","Pegmatite","Pegmatite","13","true","6","6","",""
"","","","","","","","","","","","html-keyboard-response","242","2.0.0","2389808","60c57903a2db0249ed2779b1","2","38","null","","","","","","","","","<p style='font-size: 30px;'><strong>Okay</strong></p>","null","neutral_feedback","1","test","19","","","","","","","",""
"","","","","","","","","","","","html-button-response","243","2.0.0","2394368","60c57903a2db0249ed2779b1","2","38","4556","","","","","","","","","<img src= ""rock_img/I_Andesite_11.jpg"" style=""width:8cm; height:4.92cm;""><p>What type of rock is this?</p>","0","class_response","1","test","20","Andesite","Andesite","11","true","1","1","",""
"","","","","","","","","","","","html-keyboard-response","244","2.0.0","2394870","60c57903a2db0249ed2779b1","2","38","null","","","","","","","","","<p style='font-size: 30px;'><strong>Okay</strong></p>","null","neutral_feedback","1","test","20","","","","","","","",""
"","","","","","","","","","","","html-button-response","245","2.0.0","2396541","60c57903a2db0249ed2779b1","2","38","1666","","","","","","","","","<img src= ""rock_img/I_Obsidian_08.jpg"" style=""width:8cm; height:7.39cm;""><p>What type of rock is this?</p>","4","class_response","1","test","21","Obsidian","Obsidian","08","true","5","5","",""
"","","","","","","","","","","","html-keyboard-response","246","2.0.0","2397043","60c57903a2db0249ed2779b1","2","38","null","","","","","","","","","<p style='font-size: 30px;'><strong>Okay</strong></p>","null","neutral_feedback","1","test","21","","","","","","","",""
"","","","","","","","","","","","html-button-response","247","2.0.0","2411055","60c57903a2db0249ed2779b1","2","38","14007","","","","","","","","","<img src= ""rock_img/I_Basalt_14.jpg"" style=""width:8cm; height:5.82cm;""><p>What type of rock is this?</p>","3","class_response","1","test","22","Gabbro","Basalt","14","false","4","2","",""
"","","","","","","","","","","","html-keyboard-response","248","2.0.0","2411558","60c57903a2db0249ed2779b1","2","38","null","","","","","","","","","<p style='font-size: 30px;'><strong>Okay</strong></p>","null","neutral_feedback","1","test","22","","","","","","","",""
"","","","","","","","","","","","html-button-response","249","2.0.0","2414122","60c57903a2db0249ed2779b1","2","38","2561","","","","","","","","","<img src= ""rock_img/I_Obsidian_09.jpg"" style=""width:8cm; height:5cm;""><p>What type of rock is this?</p>","4","class_response","1","test","23","Obsidian","Obsidian","09","true","5","5","",""
"","","","","","","","","","","","html-keyboard-response","250","2.0.0","2414625","60c57903a2db0249ed2779b1","2","38","null","","","","","","","","","<p style='font-size: 30px;'><strong>Okay</strong></p>","null","neutral_feedback","1","test","23","","","","","","","",""
"","","","","","","","","","","","html-button-response","251","2.0.0","2424633","60c57903a2db0249ed2779b1","2","38","10004","","","","","","","","","<img src= ""rock_img/I_Peridotite_16.jpg"" style=""width:8cm; height:6.989999999999999cm;""><p>What type of rock is this?</p>","3","class_response","1","test","24","Gabbro","Peridotite","16","false","4","7","",""
"","","","","","","","","","","","html-keyboard-response","252","2.0.0","2425136","60c57903a2db0249ed2779b1","2","38","null","","","","","","","","","<p style='font-size: 30px;'><strong>Okay</strong></p>","null","neutral_feedback","1","test","24","","","","","","","",""
"","","","","","","","","","","","html-button-response","253","2.0.0","2426885","60c57903a2db0249ed2779b1","2","38","1745","","","","","","","","","<img src= ""rock_img/I_Pumice_10.jpg"" style=""width:8cm; height:7.609999999999999cm;""><p>What type of rock is this?</p>","7","class_response","1","test","25","Pumice","Pumice","10","true","8","8","",""
"","","","","","","","","","","","html-keyboard-response","254","2.0.0","2427388","60c57903a2db0249ed2779b1","2","38","null","","","","","","","","","<p style='font-size: 30px;'><strong>Okay</strong></p>","null","neutral_feedback","1","test","25","","","","","","","",""
"","","","","","","","","","","","html-button-response","255","2.0.0","2429158","60c57903a2db0249ed2779b1","2","38","1766","","","","","","","","","<img src= ""rock_img/I_Obsidian_06.jpg"" style=""width:8cm; height:6.8cm;""><p>What type of rock is this?</p>","4","class_response","1","test","26","Obsidian","Obsidian","06","true","5","5","",""
"","","","","","","","","","","","html-keyboard-response","256","2.0.0","2429661","60c57903a2db0249ed2779b1","2","38","null","","","","","","","","","<p style='font-size: 30px;'><strong>Okay</strong></p>","null","neutral_feedback","1","test","26","","","","","","","",""
"","","","","","","","","","","","html-button-response","257","2.0.0","2449097","60c57903a2db0249ed2779b1","2","38","19432","","","","","","","","","<img src= ""rock_img/I_Peridotite_06.jpg"" style=""width:8cm; height:7.53cm;""><p>What type of rock is this?</p>","6","class_response","1","test","27","Peridotite","Peridotite","06","true","7","7","",""
"","","","","","","","","","","","html-keyboard-response","258","2.0.0","2449599","60c57903a2db0249ed2779b1","2","38","null","","","","","","","","","<p style='font-size: 30px;'><strong>Okay</strong></p>","null","neutral_feedback","1","test","27","","","","","","","",""
"","","","","","","","","","","","html-button-response","259","2.0.0","2453891","60c57903a2db0249ed2779b1","2","38","4287","","","","","","","","","<img src= ""rock_img/I_Diorite_14.jpg"" style=""width:8cm; height:5.71cm;""><p>What type of rock is this?</p>","2","class_response","1","test","28","Diorite","Diorite","14","true","3","3","",""
"","","","","","","","","","","","html-keyboard-response","260","2.0.0","2454394","60c57903a2db0249ed2779b1","2","38","null","","","","","","","","","<p style='font-size: 30px;'><strong>Okay</strong></p>","null","neutral_feedback","1","test","28","","","","","","","",""
"","","","","","","","","","","","html-button-response","261","2.0.0","2457988","60c57903a2db0249ed2779b1","2","38","3591","","","","","","","","","<img src= ""rock_img/I_Diorite_02.jpg"" style=""width:8cm; height:6.27cm;""><p>What type of rock is this?</p>","2","class_response","1","test","29","Diorite","Diorite","02","true","3","3","",""
"","","","","","","","","","","","html-keyboard-response","262","2.0.0","2458491","60c57903a2db0249ed2779b1","2","38","null","","","","","","","","","<p style='font-size: 30px;'><strong>Okay</strong></p>","null","neutral_feedback","1","test","29","","","","","","","",""
"","","","","","","","","","","","html-button-response","263","2.0.0","2462305","60c57903a2db0249ed2779b1","2","38","3811","","","","","","","","","<img src= ""rock_img/I_Andesite_14.jpg"" style=""width:8cm; height:5.449999999999999cm;""><p>What type of rock is this?</p>","0","class_response","1","test","30","Andesite","Andesite","14","true","1","1","",""
"","","","","","","","","","","","html-keyboard-response","264","2.0.0","2462808","60c57903a2db0249ed2779b1","2","38","null","","","","","","","","","<p style='font-size: 30px;'><strong>Okay</strong></p>","null","neutral_feedback","1","test","30","","","","","","","",""
"","","","","","","","","","","","html-button-response","265","2.0.0","2466424","60c57903a2db0249ed2779b1","2","38","3611","","","","","","","","","<img src= ""rock_img/I_Gabbro_05.jpg"" style=""width:8cm; height:6cm;""><p>What type of rock is this?</p>","6","class_response","1","test","31","Peridotite","Gabbro","05","false","7","4","",""
"","","","","","","","","","","","html-keyboard-response","266","2.0.0","2466926","60c57903a2db0249ed2779b1","2","38","null","","","","","","","","","<p style='font-size: 30px;'><strong>Okay</strong></p>","null","neutral_feedback","1","test","31","","","","","","","",""
"","","","","","","","","","","","html-button-response","267","2.0.0","2472214","60c57903a2db0249ed2779b1","2","38","5284","","","","","","","","","<img src= ""rock_img/I_Pegmatite_07.jpg"" style=""width:8cm; height:6.7cm;""><p>What type of rock is this?</p>","5","class_response","1","test","32","Pegmatite","Pegmatite","07","true","6","6","",""
"","","","","","","","","","","","html-keyboard-response","268","2.0.0","2472717","60c57903a2db0249ed2779b1","2","38","null","","","","","","","","","<p style='font-size: 30px;'><strong>Okay</strong></p>","null","neutral_feedback","1","test","32","","","","","","","",""
"","","","","","","","","","","","html-button-response","269","2.0.0","2475802","60c57903a2db0249ed2779b1","2","38","3082","","","","","","","","","<img src= ""rock_img/I_Peridotite_10.jpg"" style=""width:8cm; height:5.390000000000001cm;""><p>What type of rock is this?</p>","0","class_response","1","test","33","Andesite","Peridotite","10","false","1","7","",""
"","","","","","","","","","","","html-keyboard-response","270","2.0.0","2476305","60c57903a2db0249ed2779b1","2","38","null","","","","","","","","","<p style='font-size: 30px;'><strong>Okay</strong></p>","null","neutral_feedback","1","test","33","","","","","","","",""
"","","","","","","","","","","","html-button-response","271","2.0.0","2478364","60c57903a2db0249ed2779b1","2","38","2055","","","","","","","","","<img src= ""rock_img/I_Obsidian_16.jpg"" style=""width:8cm; height:9.3cm;""><p>What type of rock is this?</p>","4","class_response","1","test","34","Obsidian","Obsidian","16","true","5","5","",""
"","","","","","","","","","","","html-keyboard-response","272","2.0.0","2478867","60c57903a2db0249ed2779b1","2","38","null","","","","","","","","","<p style='font-size: 30px;'><strong>Okay</strong></p>","null","neutral_feedback","1","test","34","","","","","","","",""
"","","","","","","","","","","","html-button-response","273","2.0.0","2481854","60c57903a2db0249ed2779b1","2","38","2983","","","","","","","","","<img src= ""rock_img/I_Gabbro_12.jpg"" style=""width:8cm; height:7.800000000000001cm;""><p>What type of rock is this?</p>","3","class_response","1","test","35","Gabbro","Gabbro","12","true","4","4","",""
"","","","","","","","","","","","html-keyboard-response","274","2.0.0","2482356","60c57903a2db0249ed2779b1","2","38","null","","","","","","","","","<p style='font-size: 30px;'><strong>Okay</strong></p>","null","neutral_feedback","1","test","35","","","","","","","",""
"","","","","","","","","","","","html-button-response","275","2.0.0","2495174","60c57903a2db0249ed2779b1","2","38","12814","","","","","","","","","<img src= ""rock_img/I_Andesite_07.jpg"" style=""width:8cm; height:5.93cm;""><p>What type of rock is this?</p>","2","class_response","1","test","36","Diorite","Andesite","07","false","3","1","",""
"","","","","","","","","","","","html-keyboard-response","276","2.0.0","2495676","60c57903a2db0249ed2779b1","2","38","null","","","","","","","","","<p style='font-size: 30px;'><strong>Okay</strong></p>","null","neutral_feedback","1","test","36","","","","","","","",""
"","","","","","","","","","","","html-button-response","277","2.0.0","2498333","60c57903a2db0249ed2779b1","2","38","2653","","","","","","","","","<img src= ""rock_img/I_Obsidian_14.jpg"" style=""width:8cm; height:7.64cm;""><p>What type of rock is this?</p>","4","class_response","1","test","37","Obsidian","Obsidian","14","true","5","5","",""
"","","","","","","","","","","","html-keyboard-response","278","2.0.0","2498835","60c57903a2db0249ed2779b1","2","38","null","","","","","","","","","<p style='font-size: 30px;'><strong>Okay</strong></p>","null","neutral_feedback","1","test","37","","","","","","","",""
"","","","","","","","","","","","html-button-response","279","2.0.0","2559310","60c57903a2db0249ed2779b1","2","38","60471","","","","","","","","","<img src= ""rock_img/I_Peridotite_04.jpg"" style=""width:8cm; height:6.680000000000001cm;""><p>What type of rock is this?</p>","6","class_response","1","test","38","Peridotite","Peridotite","04","true","7","7","",""
"","","","","","","","","","","","html-keyboard-response","280","2.0.0","2559813","60c57903a2db0249ed2779b1","2","38","null","","","","","","","","","<p style='font-size: 30px;'><strong>Okay</strong></p>","null","neutral_feedback","1","test","38","","","","","","","",""
"","","","","","","","","","","","html-button-response","281","2.0.0","2566368","60c57903a2db0249ed2779b1","2","38","6551","","","","","","","","","<img src= ""rock_img/I_Pegmatite_06.jpg"" style=""width:8cm; height:5.17cm;""><p>What type of rock is this?</p>","5","class_response","1","test","39","Pegmatite","Pegmatite","06","true","6","6","",""
"","","","","","","","","","","","html-keyboard-response","282","2.0.0","2566870","60c57903a2db0249ed2779b1","2","38","null","","","","","","","","","<p style='font-size: 30px;'><strong>Okay</strong></p>","null","neutral_feedback","1","test","39","","","","","","","",""
"","","","","","","","","","","","html-button-response","283","2.0.0","2569846","60c57903a2db0249ed2779b1","2","38","2972","","","","","","","","","<img src= ""rock_img/I_Peridotite_02.jpg"" style=""width:8cm; height:5.859999999999999cm;""><p>What type of rock is this?</p>","6","class_response","1","test","40","Peridotite","Peridotite","02","true","7","7","",""
"","","","","","","","","","","","html-keyboard-response","284","2.0.0","2570349","60c57903a2db0249ed2779b1","2","38","null","","","","","","","","","<p style='font-size: 30px;'><strong>Okay</strong></p>","null","neutral_feedback","1","test","40","","","","","","","",""
"","","","","","","","","","","","html-button-response","285","2.0.0","2571939","60c57903a2db0249ed2779b1","2","38","1586","","","","","","","","","<img src= ""rock_img/I_Pumice_09.jpg"" style=""width:8cm; height:6.44cm;""><p>What type of rock is this?</p>","7","class_response","1","test","41","Pumice","Pumice","09","true","8","8","",""
"","","","","","","","","","","","html-keyboard-response","286","2.0.0","2572441","60c57903a2db0249ed2779b1","2","38","null","","","","","","","","","<p style='font-size: 30px;'><strong>Okay</strong></p>","null","neutral_feedback","1","test","41","","","","","","","",""
"","","","","","","","","","","","html-button-response","287","2.0.0","2578258","60c57903a2db0249ed2779b1","2","38","5812","","","","","","","","","<img src= ""rock_img/I_Pumice_13.jpg"" style=""width:8cm; height:8.200000000000001cm;""><p>What type of rock is this?</p>","7","class_response","1","test","42","Pumice","Pumice","13","true","8","8","",""
"","","","","","","","","","","","html-keyboard-response","288","2.0.0","2578760","60c57903a2db0249ed2779b1","2","38","null","","","","","","","","","<p style='font-size: 30px;'><strong>Okay</strong></p>","null","neutral_feedback","1","test","42","","","","","","","",""
"","","","","","","","","","","","html-button-response","289","2.0.0","2582755","60c57903a2db0249ed2779b1","2","38","3991","","","","","","","","","<img src= ""rock_img/I_Obsidian_04.jpg"" style=""width:8cm; height:6.930000000000001cm;""><p>What type of rock is this?</p>","4","class_response","1","test","43","Obsidian","Obsidian","04","true","5","5","",""
"","","","","","","","","","","","html-keyboard-response","290","2.0.0","2583258","60c57903a2db0249ed2779b1","2","38","null","","","","","","","","","<p style='font-size: 30px;'><strong>Okay</strong></p>","null","neutral_feedback","1","test","43","","","","","","","",""
"","","","","","","","","","","","html-button-response","291","2.0.0","2613013","60c57903a2db0249ed2779b1","2","38","29751","","","","","","","","","<img src= ""rock_img/I_Basalt_11.jpg"" style=""width:8cm; height:5.359999999999999cm;""><p>What type of rock is this?</p>","7","class_response","1","test","44","Pumice","Basalt","11","false","8","2","",""
"","","","","","","","","","","","html-keyboard-response","292","2.0.0","2613515","60c57903a2db0249ed2779b1","2","38","null","","","","","","","","","<p style='font-size: 30px;'><strong>Okay</strong></p>","null","neutral_feedback","1","test","44","","","","","","","",""
"","","","","","","","","","","","html-button-response","293","2.0.0","2617139","60c57903a2db0249ed2779b1","2","38","3621","","","","","","","","","<img src= ""rock_img/I_Diorite_06.jpg"" style=""width:8cm; height:6.03cm;""><p>What type of rock is this?</p>","2","class_response","1","test","45","Diorite","Diorite","06","true","3","3","",""
"","","","","","","","","","","","html-keyboard-response","294","2.0.0","2617642","60c57903a2db0249ed2779b1","2","38","null","","","","","","","","","<p style='font-size: 30px;'><strong>Okay</strong></p>","null","neutral_feedback","1","test","45","","","","","","","",""
"","","","","","","","","","","","html-button-response","295","2.0.0","2631457","60c57903a2db0249ed2779b1","2","38","13811","","","","","","","","","<img src= ""rock_img/I_Gabbro_14.jpg"" style=""width:8cm; height:8.48cm;""><p>What type of rock is this?</p>","3","class_response","1","test","46","Gabbro","Gabbro","14","true","4","4","",""
"","","","","","","","","","","","html-keyboard-response","296","2.0.0","2631960","60c57903a2db0249ed2779b1","2","38","null","","","","","","","","","<p style='font-size: 30px;'><strong>Okay</strong></p>","null","neutral_feedback","1","test","46","","","","","","","",""
"","","","","","","","","","","","html-button-response","297","2.0.0","2644936","60c57903a2db0249ed2779b1","2","38","12972","","","","","","","","","<img src= ""rock_img/I_Gabbro_09.jpg"" style=""width:8cm; height:7.279999999999999cm;""><p>What type of rock is this?</p>","3","class_response","1","test","47","Gabbro","Gabbro","09","true","4","4","",""
"","","","","","","","","","","","html-keyboard-response","298","2.0.0","2645439","60c57903a2db0249ed2779b1","2","38","null","","","","","","","","","<p style='font-size: 30px;'><strong>Okay</strong></p>","null","neutral_feedback","1","test","47","","","","","","","",""
"","","","","","","","","","","","html-button-response","299","2.0.0","2657998","60c57903a2db0249ed2779b1","2","38","12555","","","","","","","","","<img src= ""rock_img/I_Diorite_13.jpg"" style=""width:8cm; height:6.29cm;""><p>What type of rock is this?</p>","2","class_response","1","test","48","Diorite","Diorite","13","true","3","3","",""
"","","","","","","","","","","","html-keyboard-response","300","2.0.0","2658500","60c57903a2db0249ed2779b1","2","38","null","","","","","","","","","<p style='font-size: 30px;'><strong>Okay</strong></p>","null","neutral_feedback","1","test","48","","","","","","","",""
"","","","","","","","","","","","html-button-response","301","2.0.0","2730518","60c57903a2db0249ed2779b1","2","38","","","","","","","","","","","","cycle_feedback","","","","","","","","","","37972.09999999963","34027.40000000037"
"","","","","","","","","","","","html-button-response","303","2.0.0","2733458","60c57903a2db0249ed2779b1","2","38","2937","","","","","","","","","","0","start_train","","","","","","","","","","",""
