"width","height","webaudio","browser","browser_version","mobile","os","fullscreen","vsync_rate","webcam","microphone","trial_type","trial_index","plugin_version","time_elapsed","subjID","condition","stimID","rt","url","success","value","timeout","failed_images","failed_audio","failed_video","view_history","stimulus","response","trialType","cycle","phase","trial","resp","cat","token","corr","resp_num","cat_num","time_fb1","time_fb2"
"1536","855","true","chrome","130.0.0","false","Windows 10","true","61.39","true","true","browser-check","0","2.0.0","989","6683fb33cc602af8407e62e9","2","23","","","","","","","","","","","","","","","","","","","","","","",""
"","","","","","","","","","","","external-html","1","2.0.0","95350","6683fb33cc602af8407e62e9","2","23","94268","consent_form.html","","","","","","","","","","","","","","","","","","","","",""
"","","","","","","","","","","","fullscreen","2","2.0.0","100621","6683fb33cc602af8407e62e9","2","23","4254","","true","","","","","","","","","","","","","","","","","","","",""
"","","","","","","","","","","","call-function","3","2.0.0","100625","6683fb33cc602af8407e62e9","2","23","","","","{}","","","","","","","","","","","","","","","","","","",""
"","","","","","","","","","","","preload","4","2.0.0","107449","6683fb33cc602af8407e62e9","2","23","","","true","","false","[]","[]","[]","","","","","","","","","","","","","","",""
"","","","","","","","","","","","instructions","5","2.0.0","369585","6683fb33cc602af8407e62e9","2","23","262133","","","","","","","","[{""page_index"":0,""viewing_time"":20190},{""page_index"":1,""viewing_time"":226242},{""page_index"":2,""viewing_time"":15700}]","","","","","","","","","","","","","",""
"","","","","","","","","","","","html-button-response","6","2.0.0","371732","6683fb33cc602af8407e62e9","2","23","2143","","","","","","","","","","0","start_test","","","","","","","","","","",""
"","","","","","","","","","","","html-button-response","7","2.0.0","454295","6683fb33cc602af8407e62e9","2","23","82560","","","","","","","","","<img src= ""rock_img/I_Basalt_05.jpg"" style=""width:8cm; height:8.18cm;""><p>What type of rock is this?</p>","1","class_response","0","test","1","Basalt","Basalt","05","true","2","2","",""
"","","","","","","","","","","","html-keyboard-response","8","2.0.0","454798","6683fb33cc602af8407e62e9","2","23","null","","","","","","","","","<p style='font-size: 30px;'><strong>Okay</strong></p>","null","neutral_feedback","0","test","1","","","","","","","",""
"","","","","","","","","","","","html-button-response","9","2.0.0","561644","6683fb33cc602af8407e62e9","2","23","106843","","","","","","","","","<img src= ""rock_img/I_Peridotite_06.jpg"" style=""width:8cm; height:7.53cm;""><p>What type of rock is this?</p>","1","class_response","0","test","2","Basalt","Peridotite","06","false","2","7","",""
"","","","","","","","","","","","html-keyboard-response","10","2.0.0","562156","6683fb33cc602af8407e62e9","2","23","null","","","","","","","","","<p style='font-size: 30px;'><strong>Okay</strong></p>","null","neutral_feedback","0","test","2","","","","","","","",""
"","","","","","","","","","","","html-button-response","11","2.0.0","566806","6683fb33cc602af8407e62e9","2","23","4647","","","","","","","","","<img src= ""rock_img/I_Gabbro_03.jpg"" style=""width:8cm; height:8.52cm;""><p>What type of rock is this?</p>","4","class_response","0","test","3","Obsidian","Gabbro","03","false","5","4","",""
"","","","","","","","","","","","html-keyboard-response","12","2.0.0","567315","6683fb33cc602af8407e62e9","2","23","null","","","","","","","","","<p style='font-size: 30px;'><strong>Okay</strong></p>","null","neutral_feedback","0","test","3","","","","","","","",""
"","","","","","","","","","","","html-button-response","13","2.0.0","584623","6683fb33cc602af8407e62e9","2","23","17305","","","","","","","","","<img src= ""rock_img/I_Pegmatite_16.jpg"" style=""width:8cm; height:5.8cm;""><p>What type of rock is this?</p>","5","class_response","0","test","4","Pegmatite","Pegmatite","16","true","6","6","",""
"","","","","","","","","","","","html-keyboard-response","14","2.0.0","585139","6683fb33cc602af8407e62e9","2","23","null","","","","","","","","","<p style='font-size: 30px;'><strong>Okay</strong></p>","null","neutral_feedback","0","test","4","","","","","","","",""
"","","","","","","","","","","","html-button-response","15","2.0.0","618419","6683fb33cc602af8407e62e9","2","23","33277","","","","","","","","","<img src= ""rock_img/I_Peridotite_05.jpg"" style=""width:8cm; height:7.1499999999999995cm;""><p>What type of rock is this?</p>","2","class_response","0","test","5","Diorite","Peridotite","05","false","3","7","",""
"","","","","","","","","","","","html-keyboard-response","16","2.0.0","618930","6683fb33cc602af8407e62e9","2","23","null","","","","","","","","","<p style='font-size: 30px;'><strong>Okay</strong></p>","null","neutral_feedback","0","test","5","","","","","","","",""
"","","","","","","","","","","","html-button-response","17","2.0.0","662837","6683fb33cc602af8407e62e9","2","23","43904","","","","","","","","","<img src= ""rock_img/I_Gabbro_13.jpg"" style=""width:8cm; height:5.08cm;""><p>What type of rock is this?</p>","0","class_response","0","test","6","Andesite","Gabbro","13","false","1","4","",""
"","","","","","","","","","","","html-keyboard-response","18","2.0.0","663348","6683fb33cc602af8407e62e9","2","23","null","","","","","","","","","<p style='font-size: 30px;'><strong>Okay</strong></p>","null","neutral_feedback","0","test","6","","","","","","","",""
"","","","","","","","","","","","html-button-response","19","2.0.0","674747","6683fb33cc602af8407e62e9","2","23","11396","","","","","","","","","<img src= ""rock_img/I_Pumice_10.jpg"" style=""width:8cm; height:7.609999999999999cm;""><p>What type of rock is this?</p>","7","class_response","0","test","7","Pumice","Pumice","10","true","8","8","",""
"","","","","","","","","","","","html-keyboard-response","20","2.0.0","675249","6683fb33cc602af8407e62e9","2","23","null","","","","","","","","","<p style='font-size: 30px;'><strong>Okay</strong></p>","null","neutral_feedback","0","test","7","","","","","","","",""
"","","","","","","","","","","","html-button-response","21","2.0.0","768477","6683fb33cc602af8407e62e9","2","23","93225","","","","","","","","","<img src= ""rock_img/I_Peridotite_04.jpg"" style=""width:8cm; height:6.680000000000001cm;""><p>What type of rock is this?</p>","7","class_response","0","test","8","Pumice","Peridotite","04","false","8","7","",""
"","","","","","","","","","","","html-keyboard-response","22","2.0.0","768992","6683fb33cc602af8407e62e9","2","23","null","","","","","","","","","<p style='font-size: 30px;'><strong>Okay</strong></p>","null","neutral_feedback","0","test","8","","","","","","","",""
"","","","","","","","","","","","html-button-response","23","2.0.0","829778","6683fb33cc602af8407e62e9","2","23","60783","","","","","","","","","<img src= ""rock_img/I_Basalt_02.jpg"" style=""width:8cm; height:6.45cm;""><p>What type of rock is this?</p>","4","class_response","0","test","9","Obsidian","Basalt","02","false","5","2","",""
"","","","","","","","","","","","html-keyboard-response","24","2.0.0","830281","6683fb33cc602af8407e62e9","2","23","null","","","","","","","","","<p style='font-size: 30px;'><strong>Okay</strong></p>","null","neutral_feedback","0","test","9","","","","","","","",""
"","","","","","","","","","","","html-button-response","25","2.0.0","873705","6683fb33cc602af8407e62e9","2","23","43422","","","","","","","","","<img src= ""rock_img/I_Pegmatite_07.jpg"" style=""width:8cm; height:6.7cm;""><p>What type of rock is this?</p>","1","class_response","0","test","10","Basalt","Pegmatite","07","false","2","6","",""
"","","","","","","","","","","","html-keyboard-response","26","2.0.0","874209","6683fb33cc602af8407e62e9","2","23","null","","","","","","","","","<p style='font-size: 30px;'><strong>Okay</strong></p>","null","neutral_feedback","0","test","10","","","","","","","",""
"","","","","","","","","","","","html-button-response","27","2.0.0","901691","6683fb33cc602af8407e62e9","2","23","27480","","","","","","","","","<img src= ""rock_img/I_Andesite_03.jpg"" style=""width:8cm; height:5.73cm;""><p>What type of rock is this?</p>","3","class_response","0","test","11","Gabbro","Andesite","03","false","4","1","",""
"","","","","","","","","","","","html-keyboard-response","28","2.0.0","902200","6683fb33cc602af8407e62e9","2","23","null","","","","","","","","","<p style='font-size: 30px;'><strong>Okay</strong></p>","null","neutral_feedback","0","test","11","","","","","","","",""
"","","","","","","","","","","","html-button-response","29","2.0.0","903672","6683fb33cc602af8407e62e9","2","23","1470","","","","","","","","","<img src= ""rock_img/I_Obsidian_07.jpg"" style=""width:8cm; height:4.76cm;""><p>What type of rock is this?</p>","5","class_response","0","test","12","Pegmatite","Obsidian","07","false","6","5","",""
"","","","","","","","","","","","html-keyboard-response","30","2.0.0","904177","6683fb33cc602af8407e62e9","2","23","null","","","","","","","","","<p style='font-size: 30px;'><strong>Okay</strong></p>","null","neutral_feedback","0","test","12","","","","","","","",""
"","","","","","","","","","","","html-button-response","31","2.0.0","904872","6683fb33cc602af8407e62e9","2","23","693","","","","","","","","","<img src= ""rock_img/I_Andesite_09.jpg"" style=""width:8cm; height:6cm;""><p>What type of rock is this?</p>","1","class_response","0","test","13","Basalt","Andesite","09","false","2","1","",""
"","","","","","","","","","","","html-keyboard-response","32","2.0.0","905376","6683fb33cc602af8407e62e9","2","23","null","","","","","","","","","<p style='font-size: 30px;'><strong>Okay</strong></p>","null","neutral_feedback","0","test","13","","","","","","","",""
"","","","","","","","","","","","html-button-response","33","2.0.0","907321","6683fb33cc602af8407e62e9","2","23","1944","","","","","","","","","<img src= ""rock_img/I_Pegmatite_09.jpg"" style=""width:8cm; height:4.03cm;""><p>What type of rock is this?</p>","6","class_response","0","test","14","Peridotite","Pegmatite","09","false","7","6","",""
"","","","","","","","","","","","html-keyboard-response","34","2.0.0","907824","6683fb33cc602af8407e62e9","2","23","null","","","","","","","","","<p style='font-size: 30px;'><strong>Okay</strong></p>","null","neutral_feedback","0","test","14","","","","","","","",""
"","","","","","","","","","","","html-button-response","35","2.0.0","921784","6683fb33cc602af8407e62e9","2","23","13958","","","","","","","","","<img src= ""rock_img/I_Obsidian_02.jpg"" style=""width:8cm; height:7.51cm;""><p>What type of rock is this?</p>","4","class_response","0","test","15","Obsidian","Obsidian","02","true","5","5","",""
"","","","","","","","","","","","html-keyboard-response","36","2.0.0","922296","6683fb33cc602af8407e62e9","2","23","null","","","","","","","","","<p style='font-size: 30px;'><strong>Okay</strong></p>","null","neutral_feedback","0","test","15","","","","","","","",""
"","","","","","","","","","","","html-button-response","37","2.0.0","935924","6683fb33cc602af8407e62e9","2","23","13626","","","","","","","","","<img src= ""rock_img/I_Diorite_12.jpg"" style=""width:8cm; height:4.88cm;""><p>What type of rock is this?</p>","2","class_response","0","test","16","Diorite","Diorite","12","true","3","3","",""
"","","","","","","","","","","","html-keyboard-response","38","2.0.0","936427","6683fb33cc602af8407e62e9","2","23","null","","","","","","","","","<p style='font-size: 30px;'><strong>Okay</strong></p>","null","neutral_feedback","0","test","16","","","","","","","",""
"","","","","","","","","","","","html-button-response","39","2.0.0","987287","6683fb33cc602af8407e62e9","2","23","50858","","","","","","","","","<img src= ""rock_img/I_Diorite_07.jpg"" style=""width:8cm; height:5.239999999999999cm;""><p>What type of rock is this?</p>","6","class_response","0","test","17","Peridotite","Diorite","07","false","7","3","",""
"","","","","","","","","","","","html-keyboard-response","40","2.0.0","987801","6683fb33cc602af8407e62e9","2","23","null","","","","","","","","","<p style='font-size: 30px;'><strong>Okay</strong></p>","null","neutral_feedback","0","test","17","","","","","","","",""
"","","","","","","","","","","","html-button-response","41","2.0.0","1008355","6683fb33cc602af8407e62e9","2","23","20552","","","","","","","","","<img src= ""rock_img/I_Pumice_03.jpg"" style=""width:8cm; height:6.64cm;""><p>What type of rock is this?</p>","7","class_response","0","test","18","Pumice","Pumice","03","true","8","8","",""
"","","","","","","","","","","","html-keyboard-response","42","2.0.0","1008867","6683fb33cc602af8407e62e9","2","23","null","","","","","","","","","<p style='font-size: 30px;'><strong>Okay</strong></p>","null","neutral_feedback","0","test","18","","","","","","","",""
"","","","","","","","","","","","html-button-response","43","2.0.0","1016830","6683fb33cc602af8407e62e9","2","23","7961","","","","","","","","","<img src= ""rock_img/I_Andesite_14.jpg"" style=""width:8cm; height:5.449999999999999cm;""><p>What type of rock is this?</p>","0","class_response","0","test","19","Andesite","Andesite","14","true","1","1","",""
"","","","","","","","","","","","html-keyboard-response","44","2.0.0","1017333","6683fb33cc602af8407e62e9","2","23","null","","","","","","","","","<p style='font-size: 30px;'><strong>Okay</strong></p>","null","neutral_feedback","0","test","19","","","","","","","",""
"","","","","","","","","","","","html-button-response","45","2.0.0","1049039","6683fb33cc602af8407e62e9","2","23","31705","","","","","","","","","<img src= ""rock_img/I_Pumice_08.jpg"" style=""width:8cm; height:6.67cm;""><p>What type of rock is this?</p>","7","class_response","0","test","20","Pumice","Pumice","08","true","8","8","",""
"","","","","","","","","","","","html-keyboard-response","46","2.0.0","1049548","6683fb33cc602af8407e62e9","2","23","null","","","","","","","","","<p style='font-size: 30px;'><strong>Okay</strong></p>","null","neutral_feedback","0","test","20","","","","","","","",""
"","","","","","","","","","","","html-button-response","47","2.0.0","1060679","6683fb33cc602af8407e62e9","2","23","11129","","","","","","","","","<img src= ""rock_img/I_Gabbro_11.jpg"" style=""width:8cm; height:6.2cm;""><p>What type of rock is this?</p>","3","class_response","0","test","21","Gabbro","Gabbro","11","true","4","4","",""
"","","","","","","","","","","","html-keyboard-response","48","2.0.0","1061194","6683fb33cc602af8407e62e9","2","23","null","","","","","","","","","<p style='font-size: 30px;'><strong>Okay</strong></p>","null","neutral_feedback","0","test","21","","","","","","","",""
"","","","","","","","","","","","html-button-response","49","2.0.0","1089240","6683fb33cc602af8407e62e9","2","23","28044","","","","","","","","","<img src= ""rock_img/I_Basalt_10.jpg"" style=""width:8cm; height:5.85cm;""><p>What type of rock is this?</p>","1","class_response","0","test","22","Basalt","Basalt","10","true","2","2","",""
"","","","","","","","","","","","html-keyboard-response","50","2.0.0","1089743","6683fb33cc602af8407e62e9","2","23","null","","","","","","","","","<p style='font-size: 30px;'><strong>Okay</strong></p>","null","neutral_feedback","0","test","22","","","","","","","",""
"","","","","","","","","","","","html-button-response","51","2.0.0","1156844","6683fb33cc602af8407e62e9","2","23","67099","","","","","","","","","<img src= ""rock_img/I_Peridotite_12.jpg"" style=""width:8cm; height:4.54cm;""><p>What type of rock is this?</p>","6","class_response","0","test","23","Peridotite","Peridotite","12","true","7","7","",""
"","","","","","","","","","","","html-keyboard-response","52","2.0.0","1157346","6683fb33cc602af8407e62e9","2","23","null","","","","","","","","","<p style='font-size: 30px;'><strong>Okay</strong></p>","null","neutral_feedback","0","test","23","","","","","","","",""
"","","","","","","","","","","","html-button-response","53","2.0.0","1198713","6683fb33cc602af8407e62e9","2","23","41365","","","","","","","","","<img src= ""rock_img/I_Andesite_02.jpg"" style=""width:8cm; height:8.5cm;""><p>What type of rock is this?</p>","0","class_response","0","test","24","Andesite","Andesite","02","true","1","1","",""
"","","","","","","","","","","","html-keyboard-response","54","2.0.0","1199225","6683fb33cc602af8407e62e9","2","23","null","","","","","","","","","<p style='font-size: 30px;'><strong>Okay</strong></p>","null","neutral_feedback","0","test","24","","","","","","","",""
"","","","","","","","","","","","html-button-response","55","2.0.0","1214604","6683fb33cc602af8407e62e9","2","23","15376","","","","","","","","","<img src= ""rock_img/I_Gabbro_08.jpg"" style=""width:8cm; height:5.15cm;""><p>What type of rock is this?</p>","3","class_response","0","test","25","Gabbro","Gabbro","08","true","4","4","",""
"","","","","","","","","","","","html-keyboard-response","56","2.0.0","1215117","6683fb33cc602af8407e62e9","2","23","null","","","","","","","","","<p style='font-size: 30px;'><strong>Okay</strong></p>","null","neutral_feedback","0","test","25","","","","","","","",""
"","","","","","","","","","","","html-button-response","57","2.0.0","1248165","6683fb33cc602af8407e62e9","2","23","33046","","","","","","","","","<img src= ""rock_img/I_Diorite_10.jpg"" style=""width:8cm; height:5.949999999999999cm;""><p>What type of rock is this?</p>","7","class_response","0","test","26","Pumice","Diorite","10","false","8","3","",""
"","","","","","","","","","","","html-keyboard-response","58","2.0.0","1248667","6683fb33cc602af8407e62e9","2","23","null","","","","","","","","","<p style='font-size: 30px;'><strong>Okay</strong></p>","null","neutral_feedback","0","test","26","","","","","","","",""
"","","","","","","","","","","","html-button-response","59","2.0.0","1268074","6683fb33cc602af8407e62e9","2","23","19405","","","","","","","","","<img src= ""rock_img/I_Pumice_13.jpg"" style=""width:8cm; height:8.200000000000001cm;""><p>What type of rock is this?</p>","7","class_response","0","test","27","Pumice","Pumice","13","true","8","8","",""
"","","","","","","","","","","","html-keyboard-response","60","2.0.0","1268576","6683fb33cc602af8407e62e9","2","23","null","","","","","","","","","<p style='font-size: 30px;'><strong>Okay</strong></p>","null","neutral_feedback","0","test","27","","","","","","","",""
"","","","","","","","","","","","html-button-response","61","2.0.0","1306075","6683fb33cc602af8407e62e9","2","23","37497","","","","","","","","","<img src= ""rock_img/I_Peridotite_16.jpg"" style=""width:8cm; height:6.989999999999999cm;""><p>What type of rock is this?</p>","6","class_response","0","test","28","Peridotite","Peridotite","16","true","7","7","",""
"","","","","","","","","","","","html-keyboard-response","62","2.0.0","1306578","6683fb33cc602af8407e62e9","2","23","null","","","","","","","","","<p style='font-size: 30px;'><strong>Okay</strong></p>","null","neutral_feedback","0","test","28","","","","","","","",""
"","","","","","","","","","","","html-button-response","63","2.0.0","1363331","6683fb33cc602af8407e62e9","2","23","56752","","","","","","","","","<img src= ""rock_img/I_Pegmatite_08.jpg"" style=""width:8cm; height:7.68cm;""><p>What type of rock is this?</p>","5","class_response","0","test","29","Pegmatite","Pegmatite","08","true","6","6","",""
"","","","","","","","","","","","html-keyboard-response","64","2.0.0","1363832","6683fb33cc602af8407e62e9","2","23","null","","","","","","","","","<p style='font-size: 30px;'><strong>Okay</strong></p>","null","neutral_feedback","0","test","29","","","","","","","",""
"","","","","","","","","","","","html-button-response","65","2.0.0","1420033","6683fb33cc602af8407e62e9","2","23","56199","","","","","","","","","<img src= ""rock_img/I_Diorite_06.jpg"" style=""width:8cm; height:6.03cm;""><p>What type of rock is this?</p>","1","class_response","0","test","30","Basalt","Diorite","06","false","2","3","",""
"","","","","","","","","","","","html-keyboard-response","66","2.0.0","1420536","6683fb33cc602af8407e62e9","2","23","null","","","","","","","","","<p style='font-size: 30px;'><strong>Okay</strong></p>","null","neutral_feedback","0","test","30","","","","","","","",""
"","","","","","","","","","","","html-button-response","67","2.0.0","1502788","6683fb33cc602af8407e62e9","2","23","82250","","","","","","","","","<img src= ""rock_img/I_Basalt_12.jpg"" style=""width:8cm; height:6.010000000000001cm;""><p>What type of rock is this?</p>","6","class_response","0","test","31","Peridotite","Basalt","12","false","7","2","",""
"","","","","","","","","","","","html-keyboard-response","68","2.0.0","1503297","6683fb33cc602af8407e62e9","2","23","null","","","","","","","","","<p style='font-size: 30px;'><strong>Okay</strong></p>","null","neutral_feedback","0","test","31","","","","","","","",""
"","","","","","","","","","","","html-button-response","69","2.0.0","1640852","6683fb33cc602af8407e62e9","2","23","137552","","","","","","","","","<img src= ""rock_img/I_Pegmatite_06.jpg"" style=""width:8cm; height:5.17cm;""><p>What type of rock is this?</p>","1","class_response","0","test","32","Basalt","Pegmatite","06","false","2","6","",""
"","","","","","","","","","","","html-keyboard-response","70","2.0.0","1641363","6683fb33cc602af8407e62e9","2","23","null","","","","","","","","","<p style='font-size: 30px;'><strong>Okay</strong></p>","null","neutral_feedback","0","test","32","","","","","","","",""
"","","","","","","","","","","","html-button-response","71","2.0.0","1676314","6683fb33cc602af8407e62e9","2","23","34949","","","","","","","","","<img src= ""rock_img/I_Gabbro_15.jpg"" style=""width:8cm; height:6.29cm;""><p>What type of rock is this?</p>","4","class_response","0","test","33","Obsidian","Gabbro","15","false","5","4","",""
"","","","","","","","","","","","html-keyboard-response","72","2.0.0","1676821","6683fb33cc602af8407e62e9","2","23","null","","","","","","","","","<p style='font-size: 30px;'><strong>Okay</strong></p>","null","neutral_feedback","0","test","33","","","","","","","",""
"","","","","","","","","","","","html-button-response","73","2.0.0","1689251","6683fb33cc602af8407e62e9","2","23","12427","","","","","","","","","<img src= ""rock_img/I_Obsidian_12.jpg"" style=""width:8cm; height:6.53cm;""><p>What type of rock is this?</p>","4","class_response","0","test","34","Obsidian","Obsidian","12","true","5","5","",""
"","","","","","","","","","","","html-keyboard-response","74","2.0.0","1689764","6683fb33cc602af8407e62e9","2","23","null","","","","","","","","","<p style='font-size: 30px;'><strong>Okay</strong></p>","null","neutral_feedback","0","test","34","","","","","","","",""
"","","","","","","","","","","","html-button-response","75","2.0.0","1715689","6683fb33cc602af8407e62e9","2","23","25923","","","","","","","","","<img src= ""rock_img/I_Pumice_16.jpg"" style=""width:8cm; height:6.79cm;""><p>What type of rock is this?</p>","1","class_response","0","test","35","Basalt","Pumice","16","false","2","8","",""
"","","","","","","","","","","","html-keyboard-response","76","2.0.0","1716191","6683fb33cc602af8407e62e9","2","23","null","","","","","","","","","<p style='font-size: 30px;'><strong>Okay</strong></p>","null","neutral_feedback","0","test","35","","","","","","","",""
"","","","","","","","","","","","html-button-response","77","2.0.0","1728457","6683fb33cc602af8407e62e9","2","23","12264","","","","","","","","","<img src= ""rock_img/I_Andesite_06.jpg"" style=""width:8cm; height:6.840000000000001cm;""><p>What type of rock is this?</p>","2","class_response","0","test","36","Diorite","Andesite","06","false","3","1","",""
"","","","","","","","","","","","html-keyboard-response","78","2.0.0","1728969","6683fb33cc602af8407e62e9","2","23","null","","","","","","","","","<p style='font-size: 30px;'><strong>Okay</strong></p>","null","neutral_feedback","0","test","36","","","","","","","",""
"","","","","","","","","","","","html-button-response","79","2.0.0","1828784","6683fb33cc602af8407e62e9","2","23","99813","","","","","","","","","<img src= ""rock_img/I_Gabbro_10.jpg"" style=""width:8cm; height:5.680000000000001cm;""><p>What type of rock is this?</p>","6","class_response","0","test","37","Peridotite","Gabbro","10","false","7","4","",""
"","","","","","","","","","","","html-keyboard-response","80","2.0.0","1829286","6683fb33cc602af8407e62e9","2","23","null","","","","","","","","","<p style='font-size: 30px;'><strong>Okay</strong></p>","null","neutral_feedback","0","test","37","","","","","","","",""
"","","","","","","","","","","","html-button-response","81","2.0.0","1865432","6683fb33cc602af8407e62e9","2","23","36143","","","","","","","","","<img src= ""rock_img/I_Basalt_16.jpg"" style=""width:8cm; height:7.659999999999999cm;""><p>What type of rock is this?</p>","0","class_response","0","test","38","Andesite","Basalt","16","false","1","2","",""
"","","","","","","","","","","","html-keyboard-response","82","2.0.0","1865946","6683fb33cc602af8407e62e9","2","23","null","","","","","","","","","<p style='font-size: 30px;'><strong>Okay</strong></p>","null","neutral_feedback","0","test","38","","","","","","","",""
"","","","","","","","","","","","html-button-response","83","2.0.0","1874072","6683fb33cc602af8407e62e9","2","23","8123","","","","","","","","","<img src= ""rock_img/I_Obsidian_08.jpg"" style=""width:8cm; height:7.39cm;""><p>What type of rock is this?</p>","4","class_response","0","test","39","Obsidian","Obsidian","08","true","5","5","",""
"","","","","","","","","","","","html-keyboard-response","84","2.0.0","1874575","6683fb33cc602af8407e62e9","2","23","null","","","","","","","","","<p style='font-size: 30px;'><strong>Okay</strong></p>","null","neutral_feedback","0","test","39","","","","","","","",""
"","","","","","","","","","","","html-button-response","85","2.0.0","1889311","6683fb33cc602af8407e62e9","2","23","14734","","","","","","","","","<img src= ""rock_img/I_Diorite_16.jpg"" style=""width:8cm; height:6.74cm;""><p>What type of rock is this?</p>","2","class_response","0","test","40","Diorite","Diorite","16","true","3","3","",""
"","","","","","","","","","","","html-keyboard-response","86","2.0.0","1889825","6683fb33cc602af8407e62e9","2","23","null","","","","","","","","","<p style='font-size: 30px;'><strong>Okay</strong></p>","null","neutral_feedback","0","test","40","","","","","","","",""
"","","","","","","","","","","","html-button-response","87","2.0.0","1899817","6683fb33cc602af8407e62e9","2","23","9990","","","","","","","","","<img src= ""rock_img/I_Diorite_02.jpg"" style=""width:8cm; height:6.27cm;""><p>What type of rock is this?</p>","2","class_response","0","test","41","Diorite","Diorite","02","true","3","3","",""
"","","","","","","","","","","","html-keyboard-response","88","2.0.0","1900329","6683fb33cc602af8407e62e9","2","23","null","","","","","","","","","<p style='font-size: 30px;'><strong>Okay</strong></p>","null","neutral_feedback","0","test","41","","","","","","","",""
"","","","","","","","","","","","html-button-response","89","2.0.0","1909900","6683fb33cc602af8407e62e9","2","23","9568","","","","","","","","","<img src= ""rock_img/I_Obsidian_14.jpg"" style=""width:8cm; height:7.64cm;""><p>What type of rock is this?</p>","4","class_response","0","test","42","Obsidian","Obsidian","14","true","5","5","",""
"","","","","","","","","","","","html-keyboard-response","90","2.0.0","1910411","6683fb33cc602af8407e62e9","2","23","null","","","","","","","","","<p style='font-size: 30px;'><strong>Okay</strong></p>","null","neutral_feedback","0","test","42","","","","","","","",""
"","","","","","","","","","","","html-button-response","91","2.0.0","1935990","6683fb33cc602af8407e62e9","2","23","25577","","","","","","","","","<img src= ""rock_img/I_Pumice_09.jpg"" style=""width:8cm; height:6.44cm;""><p>What type of rock is this?</p>","7","class_response","0","test","43","Pumice","Pumice","09","true","8","8","",""
"","","","","","","","","","","","html-keyboard-response","92","2.0.0","1936495","6683fb33cc602af8407e62e9","2","23","null","","","","","","","","","<p style='font-size: 30px;'><strong>Okay</strong></p>","null","neutral_feedback","0","test","43","","","","","","","",""
"","","","","","","","","","","","html-button-response","93","2.0.0","1991322","6683fb33cc602af8407e62e9","2","23","54825","","","","","","","","","<img src= ""rock_img/I_Basalt_09.jpg"" style=""width:8cm; height:6.2cm;""><p>What type of rock is this?</p>","2","class_response","0","test","44","Diorite","Basalt","09","false","3","2","",""
"","","","","","","","","","","","html-keyboard-response","94","2.0.0","1991833","6683fb33cc602af8407e62e9","2","23","null","","","","","","","","","<p style='font-size: 30px;'><strong>Okay</strong></p>","null","neutral_feedback","0","test","44","","","","","","","",""
"","","","","","","","","","","","html-button-response","95","2.0.0","2001627","6683fb33cc602af8407e62e9","2","23","9791","","","","","","","","","<img src= ""rock_img/I_Pegmatite_13.jpg"" style=""width:8cm; height:4.95cm;""><p>What type of rock is this?</p>","5","class_response","0","test","45","Pegmatite","Pegmatite","13","true","6","6","",""
"","","","","","","","","","","","html-keyboard-response","96","2.0.0","2002142","6683fb33cc602af8407e62e9","2","23","null","","","","","","","","","<p style='font-size: 30px;'><strong>Okay</strong></p>","null","neutral_feedback","0","test","45","","","","","","","",""
"","","","","","","","","","","","html-button-response","97","2.0.0","2035736","6683fb33cc602af8407e62e9","2","23","33592","","","","","","","","","<img src= ""rock_img/I_Andesite_05.jpg"" style=""width:8cm; height:4.12cm;""><p>What type of rock is this?</p>","4","class_response","0","test","46","Obsidian","Andesite","05","false","5","1","",""
"","","","","","","","","","","","html-keyboard-response","98","2.0.0","2036249","6683fb33cc602af8407e62e9","2","23","null","","","","","","","","","<p style='font-size: 30px;'><strong>Okay</strong></p>","null","neutral_feedback","0","test","46","","","","","","","",""
"","","","","","","","","","","","html-button-response","99","2.0.0","2058707","6683fb33cc602af8407e62e9","2","23","22455","","","","","","","","","<img src= ""rock_img/I_Peridotite_07.jpg"" style=""width:8cm; height:4.83cm;""><p>What type of rock is this?</p>","6","class_response","0","test","47","Peridotite","Peridotite","07","true","7","7","",""
"","","","","","","","","","","","html-keyboard-response","100","2.0.0","2059208","6683fb33cc602af8407e62e9","2","23","null","","","","","","","","","<p style='font-size: 30px;'><strong>Okay</strong></p>","null","neutral_feedback","0","test","47","","","","","","","",""
"","","","","","","","","","","","html-button-response","101","2.0.0","2068038","6683fb33cc602af8407e62e9","2","23","8828","","","","","","","","","<img src= ""rock_img/I_Obsidian_16.jpg"" style=""width:8cm; height:9.3cm;""><p>What type of rock is this?</p>","4","class_response","0","test","48","Obsidian","Obsidian","16","true","5","5","",""
"","","","","","","","","","","","html-keyboard-response","102","2.0.0","2068540","6683fb33cc602af8407e62e9","2","23","null","","","","","","","","","<p style='font-size: 30px;'><strong>Okay</strong></p>","null","neutral_feedback","0","test","48","","","","","","","",""
"","","","","","","","","","","","instructions","103","2.0.0","2272611","6683fb33cc602af8407e62e9","2","23","204033","","","","","","","","[{""page_index"":0,""viewing_time"":125875},{""page_index"":1,""viewing_time"":65542},{""page_index"":2,""viewing_time"":12616}]","","","","","","","","","","","","","",""
"","","","","","","","","","","","html-button-response","104","2.0.0","2278958","6683fb33cc602af8407e62e9","2","23","6345","","","","","","","","","","0","start_train","","","","","","","","","","",""
"","","","","","","","","","","","html-button-response","105","2.0.0","2287293","6683fb33cc602af8407e62e9","2","23","8332","","","","","","","","","<img src= ""rock_img/I_Basalt_06.jpg"" style=""width:8cm; height:7.06cm;""><p>What type of rock is this?</p>","4","class_response","1","train","1","Obsidian","Basalt","06","false","5","2","",""
"","","","","","","","","","","","html-button-response","106","2.0.0","2315425","6683fb33cc602af8407e62e9","2","23","28129","","","","","","","","","<img src= rock_img/I_Basalt_06.jpg style=""width:8cm; height:7.06cm;""><p style='font-size: 30px; color: red;'><strong>Incorrect!</strong></p><p style='font-size: 30px;'><strong>This rock is basalt</strong></p>","0","corr_feedback","1","train","1","","","","","","","",""
"","","","","","","","","","","","html-button-response","107","2.0.0","2344488","6683fb33cc602af8407e62e9","2","23","29061","","","","","","","","","<img src= ""rock_img/I_Pegmatite_11.jpg"" style=""width:8cm; height:8.14cm;""><p>What type of rock is this?</p>","1","class_response","1","train","2","Basalt","Pegmatite","11","false","2","6","",""
"","","","","","","","","","","","html-button-response","108","2.0.0","2356186","6683fb33cc602af8407e62e9","2","23","11697","","","","","","","","","<img src= rock_img/I_Pegmatite_11.jpg style=""width:8cm; height:8.14cm;""><p style='font-size: 30px; color: red;'><strong>Incorrect!</strong></p><p style='font-size: 30px;'><strong>This rock is pegmatite</strong></p>","0","corr_feedback","1","train","2","","","","","","","",""
"","","","","","","","","","","","html-button-response","109","2.0.0","2385827","6683fb33cc602af8407e62e9","2","23","29639","","","","","","","","","<img src= ""rock_img/I_Diorite_13.jpg"" style=""width:8cm; height:6.29cm;""><p>What type of rock is this?</p>","5","class_response","1","train","3","Pegmatite","Diorite","13","false","6","3","",""
"","","","","","","","","","","","html-button-response","110","2.0.0","2410932","6683fb33cc602af8407e62e9","2","23","25103","","","","","","","","","<img src= rock_img/I_Diorite_13.jpg style=""width:8cm; height:6.29cm;""><p style='font-size: 30px; color: red;'><strong>Incorrect!</strong></p><p style='font-size: 30px;'><strong>This rock is diorite</strong></p>","0","corr_feedback","1","train","3","","","","","","","",""
"","","","","","","","","","","","html-button-response","111","2.0.0","2430940","6683fb33cc602af8407e62e9","2","23","20005","","","","","","","","","<img src= ""rock_img/I_Diorite_14.jpg"" style=""width:8cm; height:5.71cm;""><p>What type of rock is this?</p>","2","class_response","1","train","4","Diorite","Diorite","14","true","3","3","",""
"","","","","","","","","","","","html-button-response","112","2.0.0","2439578","6683fb33cc602af8407e62e9","2","23","8637","","","","","","","","","<img src= rock_img/I_Diorite_14.jpg style=""width:8cm; height:5.71cm;""><p style='font-size: 30px; color: green;'><strong>Correct!</strong></p><p style='font-size: 30px;'><strong>This rock is diorite</strong></p>","0","corr_feedback","1","train","4","","","","","","","",""
"","","","","","","","","","","","html-button-response","113","2.0.0","2470394","6683fb33cc602af8407e62e9","2","23","30814","","","","","","","","","<img src= ""rock_img/I_Pegmatite_10.jpg"" style=""width:8cm; height:4.16cm;""><p>What type of rock is this?</p>","0","class_response","1","train","5","Andesite","Pegmatite","10","false","1","6","",""
"","","","","","","","","","","","html-button-response","114","2.0.0","2481604","6683fb33cc602af8407e62e9","2","23","11207","","","","","","","","","<img src= rock_img/I_Pegmatite_10.jpg style=""width:8cm; height:4.16cm;""><p style='font-size: 30px; color: red;'><strong>Incorrect!</strong></p><p style='font-size: 30px;'><strong>This rock is pegmatite</strong></p>","0","corr_feedback","1","train","5","","","","","","","",""
"","","","","","","","","","","","html-button-response","115","2.0.0","2488832","6683fb33cc602af8407e62e9","2","23","7226","","","","","","","","","<img src= ""rock_img/I_Gabbro_16.jpg"" style=""width:8cm; height:6.44cm;""><p>What type of rock is this?</p>","4","class_response","1","train","6","Obsidian","Gabbro","16","false","5","4","",""
"","","","","","","","","","","","html-button-response","116","2.0.0","2495346","6683fb33cc602af8407e62e9","2","23","6511","","","","","","","","","<img src= rock_img/I_Gabbro_16.jpg style=""width:8cm; height:6.44cm;""><p style='font-size: 30px; color: red;'><strong>Incorrect!</strong></p><p style='font-size: 30px;'><strong>This rock is gabbro</strong></p>","0","corr_feedback","1","train","6","","","","","","","",""
"","","","","","","","","","","","html-button-response","117","2.0.0","2500649","6683fb33cc602af8407e62e9","2","23","5300","","","","","","","","","<img src= ""rock_img/I_Basalt_08.jpg"" style=""width:8cm; height:10.44cm;""><p>What type of rock is this?</p>","2","class_response","1","train","7","Diorite","Basalt","08","false","3","2","",""
"","","","","","","","","","","","html-button-response","118","2.0.0","2514513","6683fb33cc602af8407e62e9","2","23","13861","","","","","","","","","<img src= rock_img/I_Basalt_08.jpg style=""width:8cm; height:10.44cm;""><p style='font-size: 30px; color: red;'><strong>Incorrect!</strong></p><p style='font-size: 30px;'><strong>This rock is basalt</strong></p>","0","corr_feedback","1","train","7","","","","","","","",""
"","","","","","","","","","","","html-button-response","119","2.0.0","2533798","6683fb33cc602af8407e62e9","2","23","19283","","","","","","","","","<img src= ""rock_img/I_Andesite_16.jpg"" style=""width:8cm; height:6.010000000000001cm;""><p>What type of rock is this?</p>","5","class_response","1","train","8","Pegmatite","Andesite","16","false","6","1","",""
"","","","","","","","","","","","html-button-response","120","2.0.0","2542831","6683fb33cc602af8407e62e9","2","23","9031","","","","","","","","","<img src= rock_img/I_Andesite_16.jpg style=""width:8cm; height:6.010000000000001cm;""><p style='font-size: 30px; color: red;'><strong>Incorrect!</strong></p><p style='font-size: 30px;'><strong>This rock is andesite</strong></p>","0","corr_feedback","1","train","8","","","","","","","",""
"","","","","","","","","","","","html-button-response","121","2.0.0","2544736","6683fb33cc602af8407e62e9","2","23","1902","","","","","","","","","<img src= ""rock_img/I_Obsidian_09.jpg"" style=""width:8cm; height:5cm;""><p>What type of rock is this?</p>","4","class_response","1","train","9","Obsidian","Obsidian","09","true","5","5","",""
"","","","","","","","","","","","html-button-response","122","2.0.0","2551548","6683fb33cc602af8407e62e9","2","23","6810","","","","","","","","","<img src= rock_img/I_Obsidian_09.jpg style=""width:8cm; height:5cm;""><p style='font-size: 30px; color: green;'><strong>Correct!</strong></p><p style='font-size: 30px;'><strong>This rock is obsidian</strong></p>","0","corr_feedback","1","train","9","","","","","","","",""
"","","","","","","","","","","","html-button-response","123","2.0.0","2591794","6683fb33cc602af8407e62e9","2","23","40245","","","","","","","","","<img src= ""rock_img/I_Diorite_15.jpg"" style=""width:8cm; height:5.54cm;""><p>What type of rock is this?</p>","2","class_response","1","train","10","Diorite","Diorite","15","true","3","3","",""
"","","","","","","","","","","","html-button-response","124","2.0.0","2600761","6683fb33cc602af8407e62e9","2","23","8965","","","","","","","","","<img src= rock_img/I_Diorite_15.jpg style=""width:8cm; height:5.54cm;""><p style='font-size: 30px; color: green;'><strong>Correct!</strong></p><p style='font-size: 30px;'><strong>This rock is diorite</strong></p>","0","corr_feedback","1","train","10","","","","","","","",""
"","","","","","","","","","","","html-button-response","125","2.0.0","2636732","6683fb33cc602af8407e62e9","2","23","35969","","","","","","","","","<img src= ""rock_img/I_Andesite_10.jpg"" style=""width:8cm; height:4.16cm;""><p>What type of rock is this?</p>","6","class_response","1","train","11","Peridotite","Andesite","10","false","7","1","",""
"","","","","","","","","","","","html-button-response","126","2.0.0","2651105","6683fb33cc602af8407e62e9","2","23","14371","","","","","","","","","<img src= rock_img/I_Andesite_10.jpg style=""width:8cm; height:4.16cm;""><p style='font-size: 30px; color: red;'><strong>Incorrect!</strong></p><p style='font-size: 30px;'><strong>This rock is andesite</strong></p>","0","corr_feedback","1","train","11","","","","","","","",""
"","","","","","","","","","","","html-button-response","127","2.0.0","2670039","6683fb33cc602af8407e62e9","2","23","18932","","","","","","","","","<img src= ""rock_img/I_Diorite_11.jpg"" style=""width:8cm; height:7.11cm;""><p>What type of rock is this?</p>","2","class_response","1","train","12","Diorite","Diorite","11","true","3","3","",""
"","","","","","","","","","","","html-button-response","128","2.0.0","2677647","6683fb33cc602af8407e62e9","2","23","7606","","","","","","","","","<img src= rock_img/I_Diorite_11.jpg style=""width:8cm; height:7.11cm;""><p style='font-size: 30px; color: green;'><strong>Correct!</strong></p><p style='font-size: 30px;'><strong>This rock is diorite</strong></p>","0","corr_feedback","1","train","12","","","","","","","",""
"","","","","","","","","","","","html-button-response","129","2.0.0","2699375","6683fb33cc602af8407e62e9","2","23","21726","","","","","","","","","<img src= ""rock_img/I_Diorite_09.jpg"" style=""width:8cm; height:5.27cm;""><p>What type of rock is this?</p>","2","class_response","1","train","13","Diorite","Diorite","09","true","3","3","",""
"","","","","","","","","","","","html-button-response","130","2.0.0","2708286","6683fb33cc602af8407e62e9","2","23","8908","","","","","","","","","<img src= rock_img/I_Diorite_09.jpg style=""width:8cm; height:5.27cm;""><p style='font-size: 30px; color: green;'><strong>Correct!</strong></p><p style='font-size: 30px;'><strong>This rock is diorite</strong></p>","0","corr_feedback","1","train","13","","","","","","","",""
"","","","","","","","","","","","html-button-response","131","2.0.0","2730240","6683fb33cc602af8407e62e9","2","23","21952","","","","","","","","","<img src= ""rock_img/I_Pegmatite_15.jpg"" style=""width:8cm; height:6cm;""><p>What type of rock is this?</p>","5","class_response","1","train","14","Pegmatite","Pegmatite","15","true","6","6","",""
"","","","","","","","","","","","html-button-response","132","2.0.0","2743629","6683fb33cc602af8407e62e9","2","23","13387","","","","","","","","","<img src= rock_img/I_Pegmatite_15.jpg style=""width:8cm; height:6cm;""><p style='font-size: 30px; color: green;'><strong>Correct!</strong></p><p style='font-size: 30px;'><strong>This rock is pegmatite</strong></p>","0","corr_feedback","1","train","14","","","","","","","",""
"","","","","","","","","","","","html-button-response","133","2.0.0","2780636","6683fb33cc602af8407e62e9","2","23","37005","","","","","","","","","<img src= ""rock_img/I_Basalt_14.jpg"" style=""width:8cm; height:5.82cm;""><p>What type of rock is this?</p>","6","class_response","1","train","15","Peridotite","Basalt","14","false","7","2","",""
"","","","","","","","","","","","html-button-response","134","2.0.0","2810089","6683fb33cc602af8407e62e9","2","23","29450","","","","","","","","","<img src= rock_img/I_Basalt_14.jpg style=""width:8cm; height:5.82cm;""><p style='font-size: 30px; color: red;'><strong>Incorrect!</strong></p><p style='font-size: 30px;'><strong>This rock is basalt</strong></p>","0","corr_feedback","1","train","15","","","","","","","",""
"","","","","","","","","","","","html-button-response","135","2.0.0","2919973","6683fb33cc602af8407e62e9","2","23","109882","","","","","","","","","<img src= ""rock_img/I_Pumice_05.jpg"" style=""width:8cm; height:7.25cm;""><p>What type of rock is this?</p>","7","class_response","1","train","16","Pumice","Pumice","05","true","8","8","",""
"","","","","","","","","","","","html-button-response","136","2.0.0","2929308","6683fb33cc602af8407e62e9","2","23","9332","","","","","","","","","<img src= rock_img/I_Pumice_05.jpg style=""width:8cm; height:7.25cm;""><p style='font-size: 30px; color: green;'><strong>Correct!</strong></p><p style='font-size: 30px;'><strong>This rock is pumice</strong></p>","0","corr_feedback","1","train","16","","","","","","","",""
"","","","","","","","","","","","html-button-response","137","2.0.0","2937743","6683fb33cc602af8407e62e9","2","23","8433","","","","","","","","","<img src= ""rock_img/I_Andesite_07.jpg"" style=""width:8cm; height:5.93cm;""><p>What type of rock is this?</p>","2","class_response","1","train","17","Diorite","Andesite","07","false","3","1","",""
"","","","","","","","","","","","html-button-response","138","2.0.0","2957332","6683fb33cc602af8407e62e9","2","23","19586","","","","","","","","","<img src= rock_img/I_Andesite_07.jpg style=""width:8cm; height:5.93cm;""><p style='font-size: 30px; color: red;'><strong>Incorrect!</strong></p><p style='font-size: 30px;'><strong>This rock is andesite</strong></p>","0","corr_feedback","1","train","17","","","","","","","",""
"","","","","","","","","","","","html-button-response","139","2.0.0","2983239","6683fb33cc602af8407e62e9","2","23","25905","","","","","","","","","<img src= ""rock_img/I_Pegmatite_03.jpg"" style=""width:8cm; height:5.239999999999999cm;""><p>What type of rock is this?</p>","5","class_response","1","train","18","Pegmatite","Pegmatite","03","true","6","6","",""
"","","","","","","","","","","","html-button-response","140","2.0.0","2994735","6683fb33cc602af8407e62e9","2","23","11494","","","","","","","","","<img src= rock_img/I_Pegmatite_03.jpg style=""width:8cm; height:5.239999999999999cm;""><p style='font-size: 30px; color: green;'><strong>Correct!</strong></p><p style='font-size: 30px;'><strong>This rock is pegmatite</strong></p>","0","corr_feedback","1","train","18","","","","","","","",""
"","","","","","","","","","","","html-button-response","141","2.0.0","3008768","6683fb33cc602af8407e62e9","2","23","14030","","","","","","","","","<img src= ""rock_img/I_Obsidian_05.jpg"" style=""width:8cm; height:6.33cm;""><p>What type of rock is this?</p>","4","class_response","1","train","19","Obsidian","Obsidian","05","true","5","5","",""
"","","","","","","","","","","","html-button-response","142","2.0.0","3052939","6683fb33cc602af8407e62e9","2","23","44170","","","","","","","","","<img src= rock_img/I_Obsidian_05.jpg style=""width:8cm; height:6.33cm;""><p style='font-size: 30px; color: green;'><strong>Correct!</strong></p><p style='font-size: 30px;'><strong>This rock is obsidian</strong></p>","0","corr_feedback","1","train","19","","","","","","","",""
"","","","","","","","","","","","html-button-response","143","2.0.0","3072786","6683fb33cc602af8407e62e9","2","23","19844","","","","","","","","","<img src= ""rock_img/I_Andesite_04.jpg"" style=""width:8cm; height:5.96cm;""><p>What type of rock is this?</p>","0","class_response","1","train","20","Andesite","Andesite","04","true","1","1","",""
"","","","","","","","","","","","html-button-response","144","2.0.0","3090965","6683fb33cc602af8407e62e9","2","23","18178","","","","","","","","","<img src= rock_img/I_Andesite_04.jpg style=""width:8cm; height:5.96cm;""><p style='font-size: 30px; color: green;'><strong>Correct!</strong></p><p style='font-size: 30px;'><strong>This rock is andesite</strong></p>","0","corr_feedback","1","train","20","","","","","","","",""
"","","","","","","","","","","","html-button-response","145","2.0.0","3123303","6683fb33cc602af8407e62e9","2","23","32335","","","","","","","","","<img src= ""rock_img/I_Pumice_06.jpg"" style=""width:8cm; height:6.9399999999999995cm;""><p>What type of rock is this?</p>","7","class_response","1","train","21","Pumice","Pumice","06","true","8","8","",""
"","","","","","","","","","","","html-button-response","146","2.0.0","3132480","6683fb33cc602af8407e62e9","2","23","9175","","","","","","","","","<img src= rock_img/I_Pumice_06.jpg style=""width:8cm; height:6.9399999999999995cm;""><p style='font-size: 30px; color: green;'><strong>Correct!</strong></p><p style='font-size: 30px;'><strong>This rock is pumice</strong></p>","0","corr_feedback","1","train","21","","","","","","","",""
"","","","","","","","","","","","html-button-response","147","2.0.0","3144948","6683fb33cc602af8407e62e9","2","23","12466","","","","","","","","","<img src= ""rock_img/I_Gabbro_01.jpg"" style=""width:8cm; height:5.21cm;""><p>What type of rock is this?</p>","0","class_response","1","train","22","Andesite","Gabbro","01","false","1","4","",""
"","","","","","","","","","","","html-button-response","148","2.0.0","3154455","6683fb33cc602af8407e62e9","2","23","9504","","","","","","","","","<img src= rock_img/I_Gabbro_01.jpg style=""width:8cm; height:5.21cm;""><p style='font-size: 30px; color: red;'><strong>Incorrect!</strong></p><p style='font-size: 30px;'><strong>This rock is gabbro</strong></p>","0","corr_feedback","1","train","22","","","","","","","",""
"","","","","","","","","","","","html-button-response","149","2.0.0","3157258","6683fb33cc602af8407e62e9","2","23","2801","","","","","","","","","<img src= ""rock_img/I_Obsidian_06.jpg"" style=""width:8cm; height:6.8cm;""><p>What type of rock is this?</p>","4","class_response","1","train","23","Obsidian","Obsidian","06","true","5","5","",""
"","","","","","","","","","","","html-button-response","150","2.0.0","3162585","6683fb33cc602af8407e62e9","2","23","5324","","","","","","","","","<img src= rock_img/I_Obsidian_06.jpg style=""width:8cm; height:6.8cm;""><p style='font-size: 30px; color: green;'><strong>Correct!</strong></p><p style='font-size: 30px;'><strong>This rock is obsidian</strong></p>","0","corr_feedback","1","train","23","","","","","","","",""
"","","","","","","","","","","","html-button-response","151","2.0.0","3187809","6683fb33cc602af8407e62e9","2","23","25221","","","","","","","","","<img src= ""rock_img/I_Basalt_06.jpg"" style=""width:8cm; height:7.06cm;""><p>What type of rock is this?</p>","1","class_response","1","train","24","Basalt","Basalt","06","true","2","2","",""
"","","","","","","","","","","","html-button-response","152","2.0.0","3191395","6683fb33cc602af8407e62e9","2","23","3584","","","","","","","","","<img src= rock_img/I_Basalt_06.jpg style=""width:8cm; height:7.06cm;""><p style='font-size: 30px; color: green;'><strong>Correct!</strong></p><p style='font-size: 30px;'><strong>This rock is basalt</strong></p>","0","corr_feedback","1","train","24","","","","","","","",""
"","","","","","","","","","","","html-button-response","153","2.0.0","3193043","6683fb33cc602af8407e62e9","2","23","1647","","","","","","","","","<img src= ""rock_img/I_Basalt_04.jpg"" style=""width:8cm; height:7.53cm;""><p>What type of rock is this?</p>","1","class_response","1","train","25","Basalt","Basalt","04","true","2","2","",""
"","","","","","","","","","","","html-button-response","154","2.0.0","3194278","6683fb33cc602af8407e62e9","2","23","1232","","","","","","","","","<img src= rock_img/I_Basalt_04.jpg style=""width:8cm; height:7.53cm;""><p style='font-size: 30px; color: green;'><strong>Correct!</strong></p><p style='font-size: 30px;'><strong>This rock is basalt</strong></p>","0","corr_feedback","1","train","25","","","","","","","",""
"","","","","","","","","","","","html-button-response","155","2.0.0","3206548","6683fb33cc602af8407e62e9","2","23","12268","","","","","","","","","<img src= ""rock_img/I_Andesite_10.jpg"" style=""width:8cm; height:4.16cm;""><p>What type of rock is this?</p>","0","class_response","1","train","26","Andesite","Andesite","10","true","1","1","",""
"","","","","","","","","","","","html-button-response","156","2.0.0","3207706","6683fb33cc602af8407e62e9","2","23","1156","","","","","","","","","<img src= rock_img/I_Andesite_10.jpg style=""width:8cm; height:4.16cm;""><p style='font-size: 30px; color: green;'><strong>Correct!</strong></p><p style='font-size: 30px;'><strong>This rock is andesite</strong></p>","0","corr_feedback","1","train","26","","","","","","","",""
"","","","","","","","","","","","html-button-response","157","2.0.0","3216606","6683fb33cc602af8407e62e9","2","23","8898","","","","","","","","","<img src= ""rock_img/I_Peridotite_02.jpg"" style=""width:8cm; height:5.859999999999999cm;""><p>What type of rock is this?</p>","2","class_response","1","train","27","Diorite","Peridotite","02","false","3","7","",""
"","","","","","","","","","","","html-button-response","158","2.0.0","3226498","6683fb33cc602af8407e62e9","2","23","9890","","","","","","","","","<img src= rock_img/I_Peridotite_02.jpg style=""width:8cm; height:5.859999999999999cm;""><p style='font-size: 30px; color: red;'><strong>Incorrect!</strong></p><p style='font-size: 30px;'><strong>This rock is peridotite</strong></p>","0","corr_feedback","1","train","27","","","","","","","",""
"","","","","","","","","","","","html-button-response","159","2.0.0","3295350","6683fb33cc602af8407e62e9","2","23","68850","","","","","","","","","<img src= ""rock_img/I_Andesite_11.jpg"" style=""width:8cm; height:4.92cm;""><p>What type of rock is this?</p>","0","class_response","1","train","28","Andesite","Andesite","11","true","1","1","",""
"","","","","","","","","","","","html-button-response","160","2.0.0","3302627","6683fb33cc602af8407e62e9","2","23","7275","","","","","","","","","<img src= rock_img/I_Andesite_11.jpg style=""width:8cm; height:4.92cm;""><p style='font-size: 30px; color: green;'><strong>Correct!</strong></p><p style='font-size: 30px;'><strong>This rock is andesite</strong></p>","0","corr_feedback","1","train","28","","","","","","","",""
"","","","","","","","","","","","html-button-response","161","2.0.0","3312558","6683fb33cc602af8407e62e9","2","23","9929","","","","","","","","","<img src= ""rock_img/I_Pumice_14.jpg"" style=""width:8cm; height:6.39cm;""><p>What type of rock is this?</p>","7","class_response","1","train","29","Pumice","Pumice","14","true","8","8","",""
"","","","","","","","","","","","html-button-response","162","2.0.0","3314057","6683fb33cc602af8407e62e9","2","23","1496","","","","","","","","","<img src= rock_img/I_Pumice_14.jpg style=""width:8cm; height:6.39cm;""><p style='font-size: 30px; color: green;'><strong>Correct!</strong></p><p style='font-size: 30px;'><strong>This rock is pumice</strong></p>","0","corr_feedback","1","train","29","","","","","","","",""
"","","","","","","","","","","","html-button-response","163","2.0.0","3323918","6683fb33cc602af8407e62e9","2","23","9859","","","","","","","","","<img src= ""rock_img/I_Basalt_11.jpg"" style=""width:8cm; height:5.359999999999999cm;""><p>What type of rock is this?</p>","0","class_response","1","train","30","Andesite","Basalt","11","false","1","2","",""
"","","","","","","","","","","","html-button-response","164","2.0.0","3332969","6683fb33cc602af8407e62e9","2","23","9049","","","","","","","","","<img src= rock_img/I_Basalt_11.jpg style=""width:8cm; height:5.359999999999999cm;""><p style='font-size: 30px; color: red;'><strong>Incorrect!</strong></p><p style='font-size: 30px;'><strong>This rock is basalt</strong></p>","0","corr_feedback","1","train","30","","","","","","","",""
"","","","","","","","","","","","html-button-response","165","2.0.0","3369723","6683fb33cc602af8407e62e9","2","23","36752","","","","","","","","","<img src= ""rock_img/I_Peridotite_13.jpg"" style=""width:8cm; height:7.58cm;""><p>What type of rock is this?</p>","5","class_response","1","train","31","Pegmatite","Peridotite","13","false","6","7","",""
"","","","","","","","","","","","html-button-response","166","2.0.0","3379232","6683fb33cc602af8407e62e9","2","23","9507","","","","","","","","","<img src= rock_img/I_Peridotite_13.jpg style=""width:8cm; height:7.58cm;""><p style='font-size: 30px; color: red;'><strong>Incorrect!</strong></p><p style='font-size: 30px;'><strong>This rock is peridotite</strong></p>","0","corr_feedback","1","train","31","","","","","","","",""
"","","","","","","","","","","","html-button-response","167","2.0.0","3408809","6683fb33cc602af8407e62e9","2","23","29576","","","","","","","","","<img src= ""rock_img/I_Diorite_08.jpg"" style=""width:8cm; height:6.37cm;""><p>What type of rock is this?</p>","2","class_response","1","train","32","Diorite","Diorite","08","true","3","3","",""
"","","","","","","","","","","","html-button-response","168","2.0.0","3410000","6683fb33cc602af8407e62e9","2","23","1188","","","","","","","","","<img src= rock_img/I_Diorite_08.jpg style=""width:8cm; height:6.37cm;""><p style='font-size: 30px; color: green;'><strong>Correct!</strong></p><p style='font-size: 30px;'><strong>This rock is diorite</strong></p>","0","corr_feedback","1","train","32","","","","","","","",""
"","","","","","","","","","","","html-button-response","169","2.0.0","3411547","6683fb33cc602af8407e62e9","2","23","1546","","","","","","","","","<img src= ""rock_img/I_Obsidian_04.jpg"" style=""width:8cm; height:6.930000000000001cm;""><p>What type of rock is this?</p>","4","class_response","1","train","33","Obsidian","Obsidian","04","true","5","5","",""
"","","","","","","","","","","","html-button-response","170","2.0.0","3412523","6683fb33cc602af8407e62e9","2","23","974","","","","","","","","","<img src= rock_img/I_Obsidian_04.jpg style=""width:8cm; height:6.930000000000001cm;""><p style='font-size: 30px; color: green;'><strong>Correct!</strong></p><p style='font-size: 30px;'><strong>This rock is obsidian</strong></p>","0","corr_feedback","1","train","33","","","","","","","",""
"","","","","","","","","","","","html-button-response","171","2.0.0","3427125","6683fb33cc602af8407e62e9","2","23","14600","","","","","","","","","<img src= ""rock_img/I_Gabbro_12.jpg"" style=""width:8cm; height:7.800000000000001cm;""><p>What type of rock is this?</p>","1","class_response","1","train","34","Basalt","Gabbro","12","false","2","4","",""
"","","","","","","","","","","","html-button-response","172","2.0.0","3441175","6683fb33cc602af8407e62e9","2","23","14048","","","","","","","","","<img src= rock_img/I_Gabbro_12.jpg style=""width:8cm; height:7.800000000000001cm;""><p style='font-size: 30px; color: red;'><strong>Incorrect!</strong></p><p style='font-size: 30px;'><strong>This rock is gabbro</strong></p>","0","corr_feedback","1","train","34","","","","","","","",""
"","","","","","","","","","","","html-button-response","173","2.0.0","3446186","6683fb33cc602af8407e62e9","2","23","5009","","","","","","","","","<img src= ""rock_img/I_Gabbro_01.jpg"" style=""width:8cm; height:5.21cm;""><p>What type of rock is this?</p>","3","class_response","1","train","35","Gabbro","Gabbro","01","true","4","4","",""
"","","","","","","","","","","","html-button-response","174","2.0.0","3447565","6683fb33cc602af8407e62e9","2","23","1378","","","","","","","","","<img src= rock_img/I_Gabbro_01.jpg style=""width:8cm; height:5.21cm;""><p style='font-size: 30px; color: green;'><strong>Correct!</strong></p><p style='font-size: 30px;'><strong>This rock is gabbro</strong></p>","0","corr_feedback","1","train","35","","","","","","","",""
"","","","","","","","","","","","html-button-response","175","2.0.0","3465912","6683fb33cc602af8407e62e9","2","23","18345","","","","","","","","","<img src= ""rock_img/I_Basalt_01.jpg"" style=""width:8cm; height:7.880000000000001cm;""><p>What type of rock is this?</p>","1","class_response","1","train","36","Basalt","Basalt","01","true","2","2","",""
"","","","","","","","","","","","html-button-response","176","2.0.0","3467245","6683fb33cc602af8407e62e9","2","23","1331","","","","","","","","","<img src= rock_img/I_Basalt_01.jpg style=""width:8cm; height:7.880000000000001cm;""><p style='font-size: 30px; color: green;'><strong>Correct!</strong></p><p style='font-size: 30px;'><strong>This rock is basalt</strong></p>","0","corr_feedback","1","train","36","","","","","","","",""
"","","","","","","","","","","","html-button-response","177","2.0.0","3485314","6683fb33cc602af8407e62e9","2","23","18067","","","","","","","","","<img src= ""rock_img/I_Gabbro_05.jpg"" style=""width:8cm; height:6cm;""><p>What type of rock is this?</p>","0","class_response","1","train","37","Andesite","Gabbro","05","false","1","4","",""
"","","","","","","","","","","","html-button-response","178","2.0.0","3488864","6683fb33cc602af8407e62e9","2","23","3548","","","","","","","","","<img src= rock_img/I_Gabbro_05.jpg style=""width:8cm; height:6cm;""><p style='font-size: 30px; color: red;'><strong>Incorrect!</strong></p><p style='font-size: 30px;'><strong>This rock is gabbro</strong></p>","0","corr_feedback","1","train","37","","","","","","","",""
"","","","","","","","","","","","html-button-response","179","2.0.0","3493604","6683fb33cc602af8407e62e9","2","23","4738","","","","","","","","","<img src= ""rock_img/I_Andesite_07.jpg"" style=""width:8cm; height:5.93cm;""><p>What type of rock is this?</p>","2","class_response","1","train","38","Diorite","Andesite","07","false","3","1","",""
"","","","","","","","","","","","html-button-response","180","2.0.0","3502652","6683fb33cc602af8407e62e9","2","23","9045","","","","","","","","","<img src= rock_img/I_Andesite_07.jpg style=""width:8cm; height:5.93cm;""><p style='font-size: 30px; color: red;'><strong>Incorrect!</strong></p><p style='font-size: 30px;'><strong>This rock is andesite</strong></p>","0","corr_feedback","1","train","38","","","","","","","",""
"","","","","","","","","","","","html-button-response","181","2.0.0","3504591","6683fb33cc602af8407e62e9","2","23","1937","","","","","","","","","<img src= ""rock_img/I_Gabbro_09.jpg"" style=""width:8cm; height:7.279999999999999cm;""><p>What type of rock is this?</p>","4","class_response","1","train","39","Obsidian","Gabbro","09","false","5","4","",""
"","","","","","","","","","","","html-button-response","182","2.0.0","3506159","6683fb33cc602af8407e62e9","2","23","1567","","","","","","","","","<img src= rock_img/I_Gabbro_09.jpg style=""width:8cm; height:7.279999999999999cm;""><p style='font-size: 30px; color: red;'><strong>Incorrect!</strong></p><p style='font-size: 30px;'><strong>This rock is gabbro</strong></p>","0","corr_feedback","1","train","39","","","","","","","",""
"","","","","","","","","","","","html-button-response","183","2.0.0","3529713","6683fb33cc602af8407e62e9","2","23","23551","","","","","","","","","<img src= ""rock_img/I_Basalt_11.jpg"" style=""width:8cm; height:5.359999999999999cm;""><p>What type of rock is this?</p>","1","class_response","1","train","40","Basalt","Basalt","11","true","2","2","",""
"","","","","","","","","","","","html-button-response","184","2.0.0","3530604","6683fb33cc602af8407e62e9","2","23","889","","","","","","","","","<img src= rock_img/I_Basalt_11.jpg style=""width:8cm; height:5.359999999999999cm;""><p style='font-size: 30px; color: green;'><strong>Correct!</strong></p><p style='font-size: 30px;'><strong>This rock is basalt</strong></p>","0","corr_feedback","1","train","40","","","","","","","",""
"","","","","","","","","","","","html-button-response","185","2.0.0","3562183","6683fb33cc602af8407e62e9","2","23","31577","","","","","","","","","<img src= ""rock_img/I_Gabbro_14.jpg"" style=""width:8cm; height:8.48cm;""><p>What type of rock is this?</p>","3","class_response","1","train","41","Gabbro","Gabbro","14","true","4","4","",""
"","","","","","","","","","","","html-button-response","186","2.0.0","3577696","6683fb33cc602af8407e62e9","2","23","15510","","","","","","","","","<img src= rock_img/I_Gabbro_14.jpg style=""width:8cm; height:8.48cm;""><p style='font-size: 30px; color: green;'><strong>Correct!</strong></p><p style='font-size: 30px;'><strong>This rock is gabbro</strong></p>","0","corr_feedback","1","train","41","","","","","","","",""
"","","","","","","","","","","","html-button-response","187","2.0.0","3613758","6683fb33cc602af8407e62e9","2","23","36060","","","","","","","","","<img src= ""rock_img/I_Andesite_01.jpg"" style=""width:8cm; height:5.87cm;""><p>What type of rock is this?</p>","1","class_response","1","train","42","Basalt","Andesite","01","false","2","1","",""
"","","","","","","","","","","","html-button-response","188","2.0.0","3628960","6683fb33cc602af8407e62e9","2","23","15200","","","","","","","","","<img src= rock_img/I_Andesite_01.jpg style=""width:8cm; height:5.87cm;""><p style='font-size: 30px; color: red;'><strong>Incorrect!</strong></p><p style='font-size: 30px;'><strong>This rock is andesite</strong></p>","0","corr_feedback","1","train","42","","","","","","","",""
"","","","","","","","","","","","html-button-response","189","2.0.0","3702490","6683fb33cc602af8407e62e9","2","23","73527","","","","","","","","","<img src= ""rock_img/I_Peridotite_14.jpg"" style=""width:8cm; height:5.3cm;""><p>What type of rock is this?</p>","6","class_response","1","train","43","Peridotite","Peridotite","14","true","7","7","",""
"","","","","","","","","","","","html-button-response","190","2.0.0","3709909","6683fb33cc602af8407e62e9","2","23","7418","","","","","","","","","<img src= rock_img/I_Peridotite_14.jpg style=""width:8cm; height:5.3cm;""><p style='font-size: 30px; color: green;'><strong>Correct!</strong></p><p style='font-size: 30px;'><strong>This rock is peridotite</strong></p>","0","corr_feedback","1","train","43","","","","","","","",""
"","","","","","","","","","","","html-button-response","191","2.0.0","3722935","6683fb33cc602af8407e62e9","2","23","13024","","","","","","","","","<img src= ""rock_img/I_Peridotite_08.jpg"" style=""width:8cm; height:6.7cm;""><p>What type of rock is this?</p>","6","class_response","1","train","44","Peridotite","Peridotite","08","true","7","7","",""
"","","","","","","","","","","","html-button-response","192","2.0.0","3730615","6683fb33cc602af8407e62e9","2","23","7677","","","","","","","","","<img src= rock_img/I_Peridotite_08.jpg style=""width:8cm; height:6.7cm;""><p style='font-size: 30px; color: green;'><strong>Correct!</strong></p><p style='font-size: 30px;'><strong>This rock is peridotite</strong></p>","0","corr_feedback","1","train","44","","","","","","","",""
"","","","","","","","","","","","html-button-response","193","2.0.0","3743104","6683fb33cc602af8407e62e9","2","23","12487","","","","","","","","","<img src= ""rock_img/I_Peridotite_15.jpg"" style=""width:8cm; height:6cm;""><p>What type of rock is this?</p>","6","class_response","1","train","45","Peridotite","Peridotite","15","true","7","7","",""
"","","","","","","","","","","","html-button-response","194","2.0.0","3749622","6683fb33cc602af8407e62e9","2","23","6516","","","","","","","","","<img src= rock_img/I_Peridotite_15.jpg style=""width:8cm; height:6cm;""><p style='font-size: 30px; color: green;'><strong>Correct!</strong></p><p style='font-size: 30px;'><strong>This rock is peridotite</strong></p>","0","corr_feedback","1","train","45","","","","","","","",""
"","","","","","","","","","","","html-button-response","195","2.0.0","3767812","6683fb33cc602af8407e62e9","2","23","18188","","","","","","","","","<img src= ""rock_img/I_Peridotite_10.jpg"" style=""width:8cm; height:5.390000000000001cm;""><p>What type of rock is this?</p>","6","class_response","1","train","46","Peridotite","Peridotite","10","true","7","7","",""
"","","","","","","","","","","","html-button-response","196","2.0.0","3776364","6683fb33cc602af8407e62e9","2","23","8550","","","","","","","","","<img src= rock_img/I_Peridotite_10.jpg style=""width:8cm; height:5.390000000000001cm;""><p style='font-size: 30px; color: green;'><strong>Correct!</strong></p><p style='font-size: 30px;'><strong>This rock is peridotite</strong></p>","0","corr_feedback","1","train","46","","","","","","","",""
"","","","","","","","","","","","html-button-response","197","2.0.0","3819040","6683fb33cc602af8407e62e9","2","23","42674","","","","","","","","","<img src= ""rock_img/I_Pegmatite_12.jpg"" style=""width:8cm; height:5.7cm;""><p>What type of rock is this?</p>","5","class_response","1","train","47","Pegmatite","Pegmatite","12","true","6","6","",""
"","","","","","","","","","","","html-button-response","198","2.0.0","3821405","6683fb33cc602af8407e62e9","2","23","2363","","","","","","","","","<img src= rock_img/I_Pegmatite_12.jpg style=""width:8cm; height:5.7cm;""><p style='font-size: 30px; color: green;'><strong>Correct!</strong></p><p style='font-size: 30px;'><strong>This rock is pegmatite</strong></p>","0","corr_feedback","1","train","47","","","","","","","",""
"","","","","","","","","","","","html-button-response","199","2.0.0","3834418","6683fb33cc602af8407e62e9","2","23","13011","","","","","","","","","<img src= ""rock_img/I_Pegmatite_05.jpg"" style=""width:8cm; height:7.300000000000001cm;""><p>What type of rock is this?</p>","5","class_response","1","train","48","Pegmatite","Pegmatite","05","true","6","6","",""
"","","","","","","","","","","","html-button-response","200","2.0.0","3835587","6683fb33cc602af8407e62e9","2","23","1167","","","","","","","","","<img src= rock_img/I_Pegmatite_05.jpg style=""width:8cm; height:7.300000000000001cm;""><p style='font-size: 30px; color: green;'><strong>Correct!</strong></p><p style='font-size: 30px;'><strong>This rock is pegmatite</strong></p>","0","corr_feedback","1","train","48","","","","","","","",""
"","","","","","","","","","","","instructions","203","2.0.0","3876472","6683fb33cc602af8407e62e9","2","23","40882","","","","","","","","[{""page_index"":0,""viewing_time"":17874},{""page_index"":1,""viewing_time"":23009}]","","","","","","","","","","","","","",""
"","","","","","","","","","","","html-button-response","204","2.0.0","3881155","6683fb33cc602af8407e62e9","2","23","4682","","","","","","","","","","0","start_test","","","","","","","","","","",""
"","","","","","","","","","","","html-button-response","205","2.0.0","3942459","6683fb33cc602af8407e62e9","2","23","61301","","","","","","","","","<img src= ""rock_img/I_Gabbro_13.jpg"" style=""width:8cm; height:5.08cm;""><p>What type of rock is this?</p>","3","class_response","1","test","1","Gabbro","Gabbro","13","true","4","4","",""
"","","","","","","","","","","","html-keyboard-response","206","2.0.0","3942967","6683fb33cc602af8407e62e9","2","23","null","","","","","","","","","<p style='font-size: 30px;'><strong>Okay</strong></p>","null","neutral_feedback","1","test","1","","","","","","","",""
"","","","","","","","","","","","html-button-response","207","2.0.0","3984319","6683fb33cc602af8407e62e9","2","23","41350","","","","","","","","","<img src= ""rock_img/I_Peridotite_16.jpg"" style=""width:8cm; height:6.989999999999999cm;""><p>What type of rock is this?</p>","3","class_response","1","test","2","Gabbro","Peridotite","16","false","4","7","",""
"","","","","","","","","","","","html-keyboard-response","208","2.0.0","3984821","6683fb33cc602af8407e62e9","2","23","null","","","","","","","","","<p style='font-size: 30px;'><strong>Okay</strong></p>","null","neutral_feedback","1","test","2","","","","","","","",""
"","","","","","","","","","","","html-button-response","209","2.0.0","4016124","6683fb33cc602af8407e62e9","2","23","31301","","","","","","","","","<img src= ""rock_img/I_Diorite_07.jpg"" style=""width:8cm; height:5.239999999999999cm;""><p>What type of rock is this?</p>","2","class_response","1","test","3","Diorite","Diorite","07","true","3","3","",""
"","","","","","","","","","","","html-keyboard-response","210","2.0.0","4016627","6683fb33cc602af8407e62e9","2","23","null","","","","","","","","","<p style='font-size: 30px;'><strong>Okay</strong></p>","null","neutral_feedback","1","test","3","","","","","","","",""
"","","","","","","","","","","","html-button-response","211","2.0.0","4021927","6683fb33cc602af8407e62e9","2","23","5298","","","","","","","","","<img src= ""rock_img/I_Gabbro_08.jpg"" style=""width:8cm; height:5.15cm;""><p>What type of rock is this?</p>","0","class_response","1","test","4","Andesite","Gabbro","08","false","1","4","",""
"","","","","","","","","","","","html-keyboard-response","212","2.0.0","4022429","6683fb33cc602af8407e62e9","2","23","null","","","","","","","","","<p style='font-size: 30px;'><strong>Okay</strong></p>","null","neutral_feedback","1","test","4","","","","","","","",""
"","","","","","","","","","","","html-button-response","213","2.0.0","4029616","6683fb33cc602af8407e62e9","2","23","7185","","","","","","","","","<img src= ""rock_img/I_Andesite_03.jpg"" style=""width:8cm; height:5.73cm;""><p>What type of rock is this?</p>","1","class_response","1","test","5","Basalt","Andesite","03","false","2","1","",""
"","","","","","","","","","","","html-keyboard-response","214","2.0.0","4030118","6683fb33cc602af8407e62e9","2","23","null","","","","","","","","","<p style='font-size: 30px;'><strong>Okay</strong></p>","null","neutral_feedback","1","test","5","","","","","","","",""
"","","","","","","","","","","","html-button-response","215","2.0.0","4083267","6683fb33cc602af8407e62e9","2","23","53147","","","","","","","","","<img src= ""rock_img/I_Pumice_13.jpg"" style=""width:8cm; height:8.200000000000001cm;""><p>What type of rock is this?</p>","7","class_response","1","test","6","Pumice","Pumice","13","true","8","8","",""
"","","","","","","","","","","","html-keyboard-response","216","2.0.0","4083769","6683fb33cc602af8407e62e9","2","23","null","","","","","","","","","<p style='font-size: 30px;'><strong>Okay</strong></p>","null","neutral_feedback","1","test","6","","","","","","","",""
"","","","","","","","","","","","html-button-response","217","2.0.0","4090318","6683fb33cc602af8407e62e9","2","23","6546","","","","","","","","","<img src= ""rock_img/I_Diorite_12.jpg"" style=""width:8cm; height:4.88cm;""><p>What type of rock is this?</p>","2","class_response","1","test","7","Diorite","Diorite","12","true","3","3","",""
"","","","","","","","","","","","html-keyboard-response","218","2.0.0","4090824","6683fb33cc602af8407e62e9","2","23","null","","","","","","","","","<p style='font-size: 30px;'><strong>Okay</strong></p>","null","neutral_feedback","1","test","7","","","","","","","",""
"","","","","","","","","","","","html-button-response","219","2.0.0","4100033","6683fb33cc602af8407e62e9","2","23","9206","","","","","","","","","<img src= ""rock_img/I_Diorite_10.jpg"" style=""width:8cm; height:5.949999999999999cm;""><p>What type of rock is this?</p>","0","class_response","1","test","8","Andesite","Diorite","10","false","1","3","",""
"","","","","","","","","","","","html-keyboard-response","220","2.0.0","4100535","6683fb33cc602af8407e62e9","2","23","null","","","","","","","","","<p style='font-size: 30px;'><strong>Okay</strong></p>","null","neutral_feedback","1","test","8","","","","","","","",""
"","","","","","","","","","","","html-button-response","221","2.0.0","4120863","6683fb33cc602af8407e62e9","2","23","20326","","","","","","","","","<img src= ""rock_img/I_Gabbro_15.jpg"" style=""width:8cm; height:6.29cm;""><p>What type of rock is this?</p>","2","class_response","1","test","9","Diorite","Gabbro","15","false","3","4","",""
"","","","","","","","","","","","html-keyboard-response","222","2.0.0","4121368","6683fb33cc602af8407e62e9","2","23","null","","","","","","","","","<p style='font-size: 30px;'><strong>Okay</strong></p>","null","neutral_feedback","1","test","9","","","","","","","",""
"","","","","","","","","","","","html-button-response","223","2.0.0","4126771","6683fb33cc602af8407e62e9","2","23","5402","","","","","","","","","<img src= ""rock_img/I_Pegmatite_08.jpg"" style=""width:8cm; height:7.68cm;""><p>What type of rock is this?</p>","5","class_response","1","test","10","Pegmatite","Pegmatite","08","true","6","6","",""
"","","","","","","","","","","","html-keyboard-response","224","2.0.0","4127273","6683fb33cc602af8407e62e9","2","23","null","","","","","","","","","<p style='font-size: 30px;'><strong>Okay</strong></p>","null","neutral_feedback","1","test","10","","","","","","","",""
"","","","","","","","","","","","html-button-response","225","2.0.0","4157789","6683fb33cc602af8407e62e9","2","23","30515","","","","","","","","","<img src= ""rock_img/I_Andesite_09.jpg"" style=""width:8cm; height:6cm;""><p>What type of rock is this?</p>","0","class_response","1","test","11","Andesite","Andesite","09","true","1","1","",""
"","","","","","","","","","","","html-keyboard-response","226","2.0.0","4158291","6683fb33cc602af8407e62e9","2","23","null","","","","","","","","","<p style='font-size: 30px;'><strong>Okay</strong></p>","null","neutral_feedback","1","test","11","","","","","","","",""
"","","","","","","","","","","","html-button-response","227","2.0.0","4188048","6683fb33cc602af8407e62e9","2","23","29755","","","","","","","","","<img src= ""rock_img/I_Basalt_10.jpg"" style=""width:8cm; height:5.85cm;""><p>What type of rock is this?</p>","4","class_response","1","test","12","Obsidian","Basalt","10","false","5","2","",""
"","","","","","","","","","","","html-keyboard-response","228","2.0.0","4188550","6683fb33cc602af8407e62e9","2","23","null","","","","","","","","","<p style='font-size: 30px;'><strong>Okay</strong></p>","null","neutral_feedback","1","test","12","","","","","","","",""
"","","","","","","","","","","","html-button-response","229","2.0.0","4216165","6683fb33cc602af8407e62e9","2","23","27613","","","","","","","","","<img src= ""rock_img/I_Peridotite_12.jpg"" style=""width:8cm; height:4.54cm;""><p>What type of rock is this?</p>","6","class_response","1","test","13","Peridotite","Peridotite","12","true","7","7","",""
"","","","","","","","","","","","html-keyboard-response","230","2.0.0","4216667","6683fb33cc602af8407e62e9","2","23","null","","","","","","","","","<p style='font-size: 30px;'><strong>Okay</strong></p>","null","neutral_feedback","1","test","13","","","","","","","",""
"","","","","","","","","","","","html-button-response","231","2.0.0","4229984","6683fb33cc602af8407e62e9","2","23","13314","","","","","","","","","<img src= ""rock_img/I_Pegmatite_16.jpg"" style=""width:8cm; height:5.8cm;""><p>What type of rock is this?</p>","5","class_response","1","test","14","Pegmatite","Pegmatite","16","true","6","6","",""
"","","","","","","","","","","","html-keyboard-response","232","2.0.0","4230487","6683fb33cc602af8407e62e9","2","23","null","","","","","","","","","<p style='font-size: 30px;'><strong>Okay</strong></p>","null","neutral_feedback","1","test","14","","","","","","","",""
"","","","","","","","","","","","html-button-response","233","2.0.0","4244439","6683fb33cc602af8407e62e9","2","23","13950","","","","","","","","","<img src= ""rock_img/I_Peridotite_07.jpg"" style=""width:8cm; height:4.83cm;""><p>What type of rock is this?</p>","6","class_response","1","test","15","Peridotite","Peridotite","07","true","7","7","",""
"","","","","","","","","","","","html-keyboard-response","234","2.0.0","4244941","6683fb33cc602af8407e62e9","2","23","null","","","","","","","","","<p style='font-size: 30px;'><strong>Okay</strong></p>","null","neutral_feedback","1","test","15","","","","","","","",""
"","","","","","","","","","","","html-button-response","235","2.0.0","4326882","6683fb33cc602af8407e62e9","2","23","81938","","","","","","","","","<img src= ""rock_img/I_Andesite_02.jpg"" style=""width:8cm; height:8.5cm;""><p>What type of rock is this?</p>","2","class_response","1","test","16","Diorite","Andesite","02","false","3","1","",""
"","","","","","","","","","","","html-keyboard-response","236","2.0.0","4327385","6683fb33cc602af8407e62e9","2","23","null","","","","","","","","","<p style='font-size: 30px;'><strong>Okay</strong></p>","null","neutral_feedback","1","test","16","","","","","","","",""
"","","","","","","","","","","","html-button-response","237","2.0.0","4358236","6683fb33cc602af8407e62e9","2","23","30849","","","","","","","","","<img src= ""rock_img/I_Andesite_05.jpg"" style=""width:8cm; height:4.12cm;""><p>What type of rock is this?</p>","0","class_response","1","test","17","Andesite","Andesite","05","true","1","1","",""
"","","","","","","","","","","","html-keyboard-response","238","2.0.0","4358747","6683fb33cc602af8407e62e9","2","23","null","","","","","","","","","<p style='font-size: 30px;'><strong>Okay</strong></p>","null","neutral_feedback","1","test","17","","","","","","","",""
"","","","","","","","","","","","html-button-response","239","2.0.0","4396520","6683fb33cc602af8407e62e9","2","23","37770","","","","","","","","","<img src= ""rock_img/I_Gabbro_10.jpg"" style=""width:8cm; height:5.680000000000001cm;""><p>What type of rock is this?</p>","6","class_response","1","test","18","Peridotite","Gabbro","10","false","7","4","",""
"","","","","","","","","","","","html-keyboard-response","240","2.0.0","4397026","6683fb33cc602af8407e62e9","2","23","null","","","","","","","","","<p style='font-size: 30px;'><strong>Okay</strong></p>","null","neutral_feedback","1","test","18","","","","","","","",""
"","","","","","","","","","","","html-button-response","241","2.0.0","4398946","6683fb33cc602af8407e62e9","2","23","1919","","","","","","","","","<img src= ""rock_img/I_Obsidian_07.jpg"" style=""width:8cm; height:4.76cm;""><p>What type of rock is this?</p>","4","class_response","1","test","19","Obsidian","Obsidian","07","true","5","5","",""
"","","","","","","","","","","","html-keyboard-response","242","2.0.0","4399448","6683fb33cc602af8407e62e9","2","23","null","","","","","","","","","<p style='font-size: 30px;'><strong>Okay</strong></p>","null","neutral_feedback","1","test","19","","","","","","","",""
"","","","","","","","","","","","html-button-response","243","2.0.0","4423073","6683fb33cc602af8407e62e9","2","23","23623","","","","","","","","","<img src= ""rock_img/I_Gabbro_11.jpg"" style=""width:8cm; height:6.2cm;""><p>What type of rock is this?</p>","3","class_response","1","test","20","Gabbro","Gabbro","11","true","4","4","",""
"","","","","","","","","","","","html-keyboard-response","244","2.0.0","4423575","6683fb33cc602af8407e62e9","2","23","null","","","","","","","","","<p style='font-size: 30px;'><strong>Okay</strong></p>","null","neutral_feedback","1","test","20","","","","","","","",""
"","","","","","","","","","","","html-button-response","245","2.0.0","4428211","6683fb33cc602af8407e62e9","2","23","4634","","","","","","","","","<img src= ""rock_img/I_Pegmatite_09.jpg"" style=""width:8cm; height:4.03cm;""><p>What type of rock is this?</p>","5","class_response","1","test","21","Pegmatite","Pegmatite","09","true","6","6","",""
"","","","","","","","","","","","html-keyboard-response","246","2.0.0","4428721","6683fb33cc602af8407e62e9","2","23","null","","","","","","","","","<p style='font-size: 30px;'><strong>Okay</strong></p>","null","neutral_feedback","1","test","21","","","","","","","",""
"","","","","","","","","","","","html-button-response","247","2.0.0","4501708","6683fb33cc602af8407e62e9","2","23","72985","","","","","","","","","<img src= ""rock_img/I_Peridotite_04.jpg"" style=""width:8cm; height:6.680000000000001cm;""><p>What type of rock is this?</p>","5","class_response","1","test","22","Pegmatite","Peridotite","04","false","6","7","",""
"","","","","","","","","","","","html-keyboard-response","248","2.0.0","4502225","6683fb33cc602af8407e62e9","2","23","null","","","","","","","","","<p style='font-size: 30px;'><strong>Okay</strong></p>","null","neutral_feedback","1","test","22","","","","","","","",""
"","","","","","","","","","","","html-button-response","249","2.0.0","4508209","6683fb33cc602af8407e62e9","2","23","5982","","","","","","","","","<img src= ""rock_img/I_Diorite_16.jpg"" style=""width:8cm; height:6.74cm;""><p>What type of rock is this?</p>","0","class_response","1","test","23","Andesite","Diorite","16","false","1","3","",""
"","","","","","","","","","","","html-keyboard-response","250","2.0.0","4508714","6683fb33cc602af8407e62e9","2","23","null","","","","","","","","","<p style='font-size: 30px;'><strong>Okay</strong></p>","null","neutral_feedback","1","test","23","","","","","","","",""
"","","","","","","","","","","","html-button-response","251","2.0.0","4527248","6683fb33cc602af8407e62e9","2","23","18531","","","","","","","","","<img src= ""rock_img/I_Pegmatite_06.jpg"" style=""width:8cm; height:5.17cm;""><p>What type of rock is this?</p>","5","class_response","1","test","24","Pegmatite","Pegmatite","06","true","6","6","",""
"","","","","","","","","","","","html-keyboard-response","252","2.0.0","4527762","6683fb33cc602af8407e62e9","2","23","null","","","","","","","","","<p style='font-size: 30px;'><strong>Okay</strong></p>","null","neutral_feedback","1","test","24","","","","","","","",""
"","","","","","","","","","","","html-button-response","253","2.0.0","4534154","6683fb33cc602af8407e62e9","2","23","6389","","","","","","","","","<img src= ""rock_img/I_Basalt_16.jpg"" style=""width:8cm; height:7.659999999999999cm;""><p>What type of rock is this?</p>","3","class_response","1","test","25","Gabbro","Basalt","16","false","4","2","",""
"","","","","","","","","","","","html-keyboard-response","254","2.0.0","4534661","6683fb33cc602af8407e62e9","2","23","null","","","","","","","","","<p style='font-size: 30px;'><strong>Okay</strong></p>","null","neutral_feedback","1","test","25","","","","","","","",""
"","","","","","","","","","","","html-button-response","255","2.0.0","4536354","6683fb33cc602af8407e62e9","2","23","1692","","","","","","","","","<img src= ""rock_img/I_Obsidian_12.jpg"" style=""width:8cm; height:6.53cm;""><p>What type of rock is this?</p>","4","class_response","1","test","26","Obsidian","Obsidian","12","true","5","5","",""
"","","","","","","","","","","","html-keyboard-response","256","2.0.0","4536864","6683fb33cc602af8407e62e9","2","23","null","","","","","","","","","<p style='font-size: 30px;'><strong>Okay</strong></p>","null","neutral_feedback","1","test","26","","","","","","","",""
"","","","","","","","","","","","html-button-response","257","2.0.0","4603085","6683fb33cc602af8407e62e9","2","23","66219","","","","","","","","","<img src= ""rock_img/I_Basalt_05.jpg"" style=""width:8cm; height:8.18cm;""><p>What type of rock is this?</p>","1","class_response","1","test","27","Basalt","Basalt","05","true","2","2","",""
"","","","","","","","","","","","html-keyboard-response","258","2.0.0","4603601","6683fb33cc602af8407e62e9","2","23","null","","","","","","","","","<p style='font-size: 30px;'><strong>Okay</strong></p>","null","neutral_feedback","1","test","27","","","","","","","",""
"","","","","","","","","","","","html-button-response","259","2.0.0","4613350","6683fb33cc602af8407e62e9","2","23","9747","","","","","","","","","<img src= ""rock_img/I_Obsidian_08.jpg"" style=""width:8cm; height:7.39cm;""><p>What type of rock is this?</p>","1","class_response","1","test","28","Basalt","Obsidian","08","false","2","5","",""
"","","","","","","","","","","","html-keyboard-response","260","2.0.0","4613856","6683fb33cc602af8407e62e9","2","23","null","","","","","","","","","<p style='font-size: 30px;'><strong>Okay</strong></p>","null","neutral_feedback","1","test","28","","","","","","","",""
"","","","","","","","","","","","html-button-response","261","2.0.0","4618595","6683fb33cc602af8407e62e9","2","23","4736","","","","","","","","","<img src= ""rock_img/I_Basalt_09.jpg"" style=""width:8cm; height:6.2cm;""><p>What type of rock is this?</p>","1","class_response","1","test","29","Basalt","Basalt","09","true","2","2","",""
"","","","","","","","","","","","html-keyboard-response","262","2.0.0","4619097","6683fb33cc602af8407e62e9","2","23","null","","","","","","","","","<p style='font-size: 30px;'><strong>Okay</strong></p>","null","neutral_feedback","1","test","29","","","","","","","",""
"","","","","","","","","","","","html-button-response","263","2.0.0","4636253","6683fb33cc602af8407e62e9","2","23","17155","","","","","","","","","<img src= ""rock_img/I_Andesite_06.jpg"" style=""width:8cm; height:6.840000000000001cm;""><p>What type of rock is this?</p>","0","class_response","1","test","30","Andesite","Andesite","06","true","1","1","",""
"","","","","","","","","","","","html-keyboard-response","264","2.0.0","4636757","6683fb33cc602af8407e62e9","2","23","null","","","","","","","","","<p style='font-size: 30px;'><strong>Okay</strong></p>","null","neutral_feedback","1","test","30","","","","","","","",""
"","","","","","","","","","","","html-button-response","265","2.0.0","4670459","6683fb33cc602af8407e62e9","2","23","33701","","","","","","","","","<img src= ""rock_img/I_Peridotite_06.jpg"" style=""width:8cm; height:7.53cm;""><p>What type of rock is this?</p>","6","class_response","1","test","31","Peridotite","Peridotite","06","true","7","7","",""
"","","","","","","","","","","","html-keyboard-response","266","2.0.0","4670967","6683fb33cc602af8407e62e9","2","23","null","","","","","","","","","<p style='font-size: 30px;'><strong>Okay</strong></p>","null","neutral_feedback","1","test","31","","","","","","","",""
"","","","","","","","","","","","html-button-response","267","2.0.0","4680480","6683fb33cc602af8407e62e9","2","23","9511","","","","","","","","","<img src= ""rock_img/I_Andesite_14.jpg"" style=""width:8cm; height:5.449999999999999cm;""><p>What type of rock is this?</p>","6","class_response","1","test","32","Peridotite","Andesite","14","false","7","1","",""
"","","","","","","","","","","","html-keyboard-response","268","2.0.0","4680982","6683fb33cc602af8407e62e9","2","23","null","","","","","","","","","<p style='font-size: 30px;'><strong>Okay</strong></p>","null","neutral_feedback","1","test","32","","","","","","","",""
"","","","","","","","","","","","html-button-response","269","2.0.0","4691836","6683fb33cc602af8407e62e9","2","23","10852","","","","","","","","","<img src= ""rock_img/I_Basalt_12.jpg"" style=""width:8cm; height:6.010000000000001cm;""><p>What type of rock is this?</p>","3","class_response","1","test","33","Gabbro","Basalt","12","false","4","2","",""
"","","","","","","","","","","","html-keyboard-response","270","2.0.0","4692339","6683fb33cc602af8407e62e9","2","23","null","","","","","","","","","<p style='font-size: 30px;'><strong>Okay</strong></p>","null","neutral_feedback","1","test","33","","","","","","","",""
"","","","","","","","","","","","html-button-response","271","2.0.0","4707428","6683fb33cc602af8407e62e9","2","23","15087","","","","","","","","","<img src= ""rock_img/I_Peridotite_05.jpg"" style=""width:8cm; height:7.1499999999999995cm;""><p>What type of rock is this?</p>","6","class_response","1","test","34","Peridotite","Peridotite","05","true","7","7","",""
"","","","","","","","","","","","html-keyboard-response","272","2.0.0","4707930","6683fb33cc602af8407e62e9","2","23","null","","","","","","","","","<p style='font-size: 30px;'><strong>Okay</strong></p>","null","neutral_feedback","1","test","34","","","","","","","",""
"","","","","","","","","","","","html-button-response","273","2.0.0","4736817","6683fb33cc602af8407e62e9","2","23","28884","","","","","","","","","<img src= ""rock_img/I_Gabbro_03.jpg"" style=""width:8cm; height:8.52cm;""><p>What type of rock is this?</p>","2","class_response","1","test","35","Diorite","Gabbro","03","false","3","4","",""
"","","","","","","","","","","","html-keyboard-response","274","2.0.0","4737325","6683fb33cc602af8407e62e9","2","23","null","","","","","","","","","<p style='font-size: 30px;'><strong>Okay</strong></p>","null","neutral_feedback","1","test","35","","","","","","","",""
"","","","","","","","","","","","html-button-response","275","2.0.0","4740324","6683fb33cc602af8407e62e9","2","23","2996","","","","","","","","","<img src= ""rock_img/I_Pumice_09.jpg"" style=""width:8cm; height:6.44cm;""><p>What type of rock is this?</p>","7","class_response","1","test","36","Pumice","Pumice","09","true","8","8","",""
"","","","","","","","","","","","html-keyboard-response","276","2.0.0","4740826","6683fb33cc602af8407e62e9","2","23","null","","","","","","","","","<p style='font-size: 30px;'><strong>Okay</strong></p>","null","neutral_feedback","1","test","36","","","","","","","",""
"","","","","","","","","","","","html-button-response","277","2.0.0","4758481","6683fb33cc602af8407e62e9","2","23","17652","","","","","","","","","<img src= ""rock_img/I_Pumice_03.jpg"" style=""width:8cm; height:6.64cm;""><p>What type of rock is this?</p>","7","class_response","1","test","37","Pumice","Pumice","03","true","8","8","",""
"","","","","","","","","","","","html-keyboard-response","278","2.0.0","4758985","6683fb33cc602af8407e62e9","2","23","null","","","","","","","","","<p style='font-size: 30px;'><strong>Okay</strong></p>","null","neutral_feedback","1","test","37","","","","","","","",""
"","","","","","","","","","","","html-button-response","279","2.0.0","4769688","6683fb33cc602af8407e62e9","2","23","10702","","","","","","","","","<img src= ""rock_img/I_Pumice_08.jpg"" style=""width:8cm; height:6.67cm;""><p>What type of rock is this?</p>","7","class_response","1","test","38","Pumice","Pumice","08","true","8","8","",""
"","","","","","","","","","","","html-keyboard-response","280","2.0.0","4770204","6683fb33cc602af8407e62e9","2","23","null","","","","","","","","","<p style='font-size: 30px;'><strong>Okay</strong></p>","null","neutral_feedback","1","test","38","","","","","","","",""
"","","","","","","","","","","","html-button-response","281","2.0.0","4782503","6683fb33cc602af8407e62e9","2","23","12297","","","","","","","","","<img src= ""rock_img/I_Pegmatite_13.jpg"" style=""width:8cm; height:4.95cm;""><p>What type of rock is this?</p>","5","class_response","1","test","39","Pegmatite","Pegmatite","13","true","6","6","",""
"","","","","","","","","","","","html-keyboard-response","282","2.0.0","4783014","6683fb33cc602af8407e62e9","2","23","null","","","","","","","","","<p style='font-size: 30px;'><strong>Okay</strong></p>","null","neutral_feedback","1","test","39","","","","","","","",""
"","","","","","","","","","","","html-button-response","283","2.0.0","4785533","6683fb33cc602af8407e62e9","2","23","2516","","","","","","","","","<img src= ""rock_img/I_Obsidian_02.jpg"" style=""width:8cm; height:7.51cm;""><p>What type of rock is this?</p>","4","class_response","1","test","40","Obsidian","Obsidian","02","true","5","5","",""
"","","","","","","","","","","","html-keyboard-response","284","2.0.0","4786036","6683fb33cc602af8407e62e9","2","23","null","","","","","","","","","<p style='font-size: 30px;'><strong>Okay</strong></p>","null","neutral_feedback","1","test","40","","","","","","","",""
"","","","","","","","","","","","html-button-response","285","2.0.0","4797442","6683fb33cc602af8407e62e9","2","23","11404","","","","","","","","","<img src= ""rock_img/I_Basalt_02.jpg"" style=""width:8cm; height:6.45cm;""><p>What type of rock is this?</p>","1","class_response","1","test","41","Basalt","Basalt","02","true","2","2","",""
"","","","","","","","","","","","html-keyboard-response","286","2.0.0","4797955","6683fb33cc602af8407e62e9","2","23","null","","","","","","","","","<p style='font-size: 30px;'><strong>Okay</strong></p>","null","neutral_feedback","1","test","41","","","","","","","",""
"","","","","","","","","","","","html-button-response","287","2.0.0","4809925","6683fb33cc602af8407e62e9","2","23","11968","","","","","","","","","<img src= ""rock_img/I_Diorite_02.jpg"" style=""width:8cm; height:6.27cm;""><p>What type of rock is this?</p>","2","class_response","1","test","42","Diorite","Diorite","02","true","3","3","",""
"","","","","","","","","","","","html-keyboard-response","288","2.0.0","4810441","6683fb33cc602af8407e62e9","2","23","null","","","","","","","","","<p style='font-size: 30px;'><strong>Okay</strong></p>","null","neutral_feedback","1","test","42","","","","","","","",""
"","","","","","","","","","","","html-button-response","289","2.0.0","4825817","6683fb33cc602af8407e62e9","2","23","15373","","","","","","","","","<img src= ""rock_img/I_Pumice_16.jpg"" style=""width:8cm; height:6.79cm;""><p>What type of rock is this?</p>","7","class_response","1","test","43","Pumice","Pumice","16","true","8","8","",""
"","","","","","","","","","","","html-keyboard-response","290","2.0.0","4826327","6683fb33cc602af8407e62e9","2","23","null","","","","","","","","","<p style='font-size: 30px;'><strong>Okay</strong></p>","null","neutral_feedback","1","test","43","","","","","","","",""
"","","","","","","","","","","","html-button-response","291","2.0.0","4827989","6683fb33cc602af8407e62e9","2","23","1659","","","","","","","","","<img src= ""rock_img/I_Obsidian_16.jpg"" style=""width:8cm; height:9.3cm;""><p>What type of rock is this?</p>","4","class_response","1","test","44","Obsidian","Obsidian","16","true","5","5","",""
"","","","","","","","","","","","html-keyboard-response","292","2.0.0","4828491","6683fb33cc602af8407e62e9","2","23","null","","","","","","","","","<p style='font-size: 30px;'><strong>Okay</strong></p>","null","neutral_feedback","1","test","44","","","","","","","",""
"","","","","","","","","","","","html-button-response","293","2.0.0","4839161","6683fb33cc602af8407e62e9","2","23","10668","","","","","","","","","<img src= ""rock_img/I_Pegmatite_07.jpg"" style=""width:8cm; height:6.7cm;""><p>What type of rock is this?</p>","5","class_response","1","test","45","Pegmatite","Pegmatite","07","true","6","6","",""
"","","","","","","","","","","","html-keyboard-response","294","2.0.0","4839672","6683fb33cc602af8407e62e9","2","23","null","","","","","","","","","<p style='font-size: 30px;'><strong>Okay</strong></p>","null","neutral_feedback","1","test","45","","","","","","","",""
"","","","","","","","","","","","html-button-response","295","2.0.0","4848229","6683fb33cc602af8407e62e9","2","23","8555","","","","","","","","","<img src= ""rock_img/I_Obsidian_14.jpg"" style=""width:8cm; height:7.64cm;""><p>What type of rock is this?</p>","4","class_response","1","test","46","Obsidian","Obsidian","14","true","5","5","",""
"","","","","","","","","","","","html-keyboard-response","296","2.0.0","4848731","6683fb33cc602af8407e62e9","2","23","null","","","","","","","","","<p style='font-size: 30px;'><strong>Okay</strong></p>","null","neutral_feedback","1","test","46","","","","","","","",""
"","","","","","","","","","","","html-button-response","297","2.0.0","4858300","6683fb33cc602af8407e62e9","2","23","9567","","","","","","","","","<img src= ""rock_img/I_Pumice_10.jpg"" style=""width:8cm; height:7.609999999999999cm;""><p>What type of rock is this?</p>","7","class_response","1","test","47","Pumice","Pumice","10","true","8","8","",""
"","","","","","","","","","","","html-keyboard-response","298","2.0.0","4858802","6683fb33cc602af8407e62e9","2","23","null","","","","","","","","","<p style='font-size: 30px;'><strong>Okay</strong></p>","null","neutral_feedback","1","test","47","","","","","","","",""
"","","","","","","","","","","","html-button-response","299","2.0.0","4899498","6683fb33cc602af8407e62e9","2","23","40694","","","","","","","","","<img src= ""rock_img/I_Diorite_06.jpg"" style=""width:8cm; height:6.03cm;""><p>What type of rock is this?</p>","2","class_response","1","test","48","Diorite","Diorite","06","true","3","3","",""
"","","","","","","","","","","","html-keyboard-response","300","2.0.0","4900005","6683fb33cc602af8407e62e9","2","23","null","","","","","","","","","<p style='font-size: 30px;'><strong>Okay</strong></p>","null","neutral_feedback","1","test","48","","","","","","","",""
"","","","","","","","","","","","html-button-response","301","2.0.0","4947253","6683fb33cc602af8407e62e9","2","23","","","","","","","","","","","","cycle_feedback","","","","","","","","","","27948.89999961853","19291.5"
"","","","","","","","","","","","html-button-response","303","2.0.0","4953733","6683fb33cc602af8407e62e9","2","23","6478","","","","","","","","","","0","start_train","","","","","","","","","","",""
