"width","height","webaudio","browser","browser_version","mobile","os","fullscreen","vsync_rate","webcam","microphone","trial_type","trial_index","plugin_version","time_elapsed","subjID","condition","stimID","rt","url","success","value","timeout","failed_images","failed_audio","failed_video","view_history","stimulus","response","trialType","cycle","phase","trial","resp","cat","token","corr","resp_num","cat_num","time_fb1","time_fb2"
"1727","854","true","chrome","131.0.0","false","Mac OS","true","120.39","true","true","browser-check","0","2.0.0","506","6720f4ced2a11d4e702566fa","2","37","","","","","","","","","","","","","","","","","","","","","","",""
"","","","","","","","","","","","external-html","1","2.0.0","43968","6720f4ced2a11d4e702566fa","2","37","43385","consent_form.html","","","","","","","","","","","","","","","","","","","","",""
"","","","","","","","","","","","fullscreen","2","2.0.0","53437","6720f4ced2a11d4e702566fa","2","37","8464","","true","","","","","","","","","","","","","","","","","","","",""
"","","","","","","","","","","","call-function","3","2.0.0","53440","6720f4ced2a11d4e702566fa","2","37","","","","{}","","","","","","","","","","","","","","","","","","",""
"","","","","","","","","","","","preload","4","2.0.0","54701","6720f4ced2a11d4e702566fa","2","37","","","true","","false","[]","[]","[]","","","","","","","","","","","","","","",""
"","","","","","","","","","","","instructions","5","2.0.0","146254","6720f4ced2a11d4e702566fa","2","37","91552","","","","","","","","[{""page_index"":0,""viewing_time"":10105},{""page_index"":1,""viewing_time"":63841},{""page_index"":2,""viewing_time"":17606}]","","","","","","","","","","","","","",""
"","","","","","","","","","","","html-button-response","6","2.0.0","152648","6720f4ced2a11d4e702566fa","2","37","6391","","","","","","","","","","0","start_test","","","","","","","","","","",""
"","","","","","","","","","","","html-button-response","7","2.0.0","184768","6720f4ced2a11d4e702566fa","2","37","32118","","","","","","","","","<img src= ""rock_img/I_Peridotite_08.jpg"" style=""width:8cm; height:6.7cm;""><p>What type of rock is this?</p>","7","class_response","0","test","1","Pumice","Peridotite","08","false","8","7","",""
"","","","","","","","","","","","html-keyboard-response","8","2.0.0","185272","6720f4ced2a11d4e702566fa","2","37","null","","","","","","","","","<p style='font-size: 30px;'><strong>Okay</strong></p>","null","neutral_feedback","0","test","1","","","","","","","",""
"","","","","","","","","","","","html-button-response","9","2.0.0","191396","6720f4ced2a11d4e702566fa","2","37","6121","","","","","","","","","<img src= ""rock_img/I_Basalt_06.jpg"" style=""width:8cm; height:7.06cm;""><p>What type of rock is this?</p>","2","class_response","0","test","2","Diorite","Basalt","06","false","3","2","",""
"","","","","","","","","","","","html-keyboard-response","10","2.0.0","191899","6720f4ced2a11d4e702566fa","2","37","null","","","","","","","","","<p style='font-size: 30px;'><strong>Okay</strong></p>","null","neutral_feedback","0","test","2","","","","","","","",""
"","","","","","","","","","","","html-button-response","11","2.0.0","196868","6720f4ced2a11d4e702566fa","2","37","4966","","","","","","","","","<img src= ""rock_img/I_Pegmatite_16.jpg"" style=""width:8cm; height:5.8cm;""><p>What type of rock is this?</p>","3","class_response","0","test","3","Gabbro","Pegmatite","16","false","4","6","",""
"","","","","","","","","","","","html-keyboard-response","12","2.0.0","197371","6720f4ced2a11d4e702566fa","2","37","null","","","","","","","","","<p style='font-size: 30px;'><strong>Okay</strong></p>","null","neutral_feedback","0","test","3","","","","","","","",""
"","","","","","","","","","","","html-button-response","13","2.0.0","199112","6720f4ced2a11d4e702566fa","2","37","1739","","","","","","","","","<img src= ""rock_img/I_Peridotite_04.jpg"" style=""width:8cm; height:6.680000000000001cm;""><p>What type of rock is this?</p>","1","class_response","0","test","4","Basalt","Peridotite","04","false","2","7","",""
"","","","","","","","","","","","html-keyboard-response","14","2.0.0","199614","6720f4ced2a11d4e702566fa","2","37","null","","","","","","","","","<p style='font-size: 30px;'><strong>Okay</strong></p>","null","neutral_feedback","0","test","4","","","","","","","",""
"","","","","","","","","","","","html-button-response","15","2.0.0","203516","6720f4ced2a11d4e702566fa","2","37","3899","","","","","","","","","<img src= ""rock_img/I_Andesite_10.jpg"" style=""width:8cm; height:4.16cm;""><p>What type of rock is this?</p>","4","class_response","0","test","5","Obsidian","Andesite","10","false","5","1","",""
"","","","","","","","","","","","html-keyboard-response","16","2.0.0","204018","6720f4ced2a11d4e702566fa","2","37","null","","","","","","","","","<p style='font-size: 30px;'><strong>Okay</strong></p>","null","neutral_feedback","0","test","5","","","","","","","",""
"","","","","","","","","","","","html-button-response","17","2.0.0","205825","6720f4ced2a11d4e702566fa","2","37","1805","","","","","","","","","<img src= ""rock_img/I_Andesite_03.jpg"" style=""width:8cm; height:5.73cm;""><p>What type of rock is this?</p>","0","class_response","0","test","6","Andesite","Andesite","03","true","1","1","",""
"","","","","","","","","","","","html-keyboard-response","18","2.0.0","206327","6720f4ced2a11d4e702566fa","2","37","null","","","","","","","","","<p style='font-size: 30px;'><strong>Okay</strong></p>","null","neutral_feedback","0","test","6","","","","","","","",""
"","","","","","","","","","","","html-button-response","19","2.0.0","208365","6720f4ced2a11d4e702566fa","2","37","2035","","","","","","","","","<img src= ""rock_img/I_Pegmatite_13.jpg"" style=""width:8cm; height:4.95cm;""><p>What type of rock is this?</p>","6","class_response","0","test","7","Peridotite","Pegmatite","13","false","7","6","",""
"","","","","","","","","","","","html-keyboard-response","20","2.0.0","208867","6720f4ced2a11d4e702566fa","2","37","null","","","","","","","","","<p style='font-size: 30px;'><strong>Okay</strong></p>","null","neutral_feedback","0","test","7","","","","","","","",""
"","","","","","","","","","","","html-button-response","21","2.0.0","210845","6720f4ced2a11d4e702566fa","2","37","1975","","","","","","","","","<img src= ""rock_img/I_Pegmatite_07.jpg"" style=""width:8cm; height:6.7cm;""><p>What type of rock is this?</p>","5","class_response","0","test","8","Pegmatite","Pegmatite","07","true","6","6","",""
"","","","","","","","","","","","html-keyboard-response","22","2.0.0","211347","6720f4ced2a11d4e702566fa","2","37","null","","","","","","","","","<p style='font-size: 30px;'><strong>Okay</strong></p>","null","neutral_feedback","0","test","8","","","","","","","",""
"","","","","","","","","","","","html-button-response","23","2.0.0","213360","6720f4ced2a11d4e702566fa","2","37","2011","","","","","","","","","<img src= ""rock_img/I_Basalt_14.jpg"" style=""width:8cm; height:5.82cm;""><p>What type of rock is this?</p>","2","class_response","0","test","9","Diorite","Basalt","14","false","3","2","",""
"","","","","","","","","","","","html-keyboard-response","24","2.0.0","213863","6720f4ced2a11d4e702566fa","2","37","null","","","","","","","","","<p style='font-size: 30px;'><strong>Okay</strong></p>","null","neutral_feedback","0","test","9","","","","","","","",""
"","","","","","","","","","","","html-button-response","25","2.0.0","217511","6720f4ced2a11d4e702566fa","2","37","3646","","","","","","","","","<img src= ""rock_img/I_Pumice_04.jpg"" style=""width:8cm; height:6.819999999999999cm;""><p>What type of rock is this?</p>","1","class_response","0","test","10","Basalt","Pumice","04","false","2","8","",""
"","","","","","","","","","","","html-keyboard-response","26","2.0.0","218013","6720f4ced2a11d4e702566fa","2","37","null","","","","","","","","","<p style='font-size: 30px;'><strong>Okay</strong></p>","null","neutral_feedback","0","test","10","","","","","","","",""
"","","","","","","","","","","","html-button-response","27","2.0.0","219709","6720f4ced2a11d4e702566fa","2","37","1694","","","","","","","","","<img src= ""rock_img/I_Andesite_06.jpg"" style=""width:8cm; height:6.840000000000001cm;""><p>What type of rock is this?</p>","4","class_response","0","test","11","Obsidian","Andesite","06","false","5","1","",""
"","","","","","","","","","","","html-keyboard-response","28","2.0.0","220211","6720f4ced2a11d4e702566fa","2","37","null","","","","","","","","","<p style='font-size: 30px;'><strong>Okay</strong></p>","null","neutral_feedback","0","test","11","","","","","","","",""
"","","","","","","","","","","","html-button-response","29","2.0.0","222306","6720f4ced2a11d4e702566fa","2","37","2093","","","","","","","","","<img src= ""rock_img/I_Basalt_08.jpg"" style=""width:8cm; height:10.44cm;""><p>What type of rock is this?</p>","3","class_response","0","test","12","Gabbro","Basalt","08","false","4","2","",""
"","","","","","","","","","","","html-keyboard-response","30","2.0.0","222808","6720f4ced2a11d4e702566fa","2","37","null","","","","","","","","","<p style='font-size: 30px;'><strong>Okay</strong></p>","null","neutral_feedback","0","test","12","","","","","","","",""
"","","","","","","","","","","","html-button-response","31","2.0.0","223975","6720f4ced2a11d4e702566fa","2","37","1165","","","","","","","","","<img src= ""rock_img/I_Gabbro_05.jpg"" style=""width:8cm; height:6cm;""><p>What type of rock is this?</p>","7","class_response","0","test","13","Pumice","Gabbro","05","false","8","4","",""
"","","","","","","","","","","","html-keyboard-response","32","2.0.0","224476","6720f4ced2a11d4e702566fa","2","37","null","","","","","","","","","<p style='font-size: 30px;'><strong>Okay</strong></p>","null","neutral_feedback","0","test","13","","","","","","","",""
"","","","","","","","","","","","html-button-response","33","2.0.0","225956","6720f4ced2a11d4e702566fa","2","37","1478","","","","","","","","","<img src= ""rock_img/I_Diorite_16.jpg"" style=""width:8cm; height:6.74cm;""><p>What type of rock is this?</p>","6","class_response","0","test","14","Peridotite","Diorite","16","false","7","3","",""
"","","","","","","","","","","","html-keyboard-response","34","2.0.0","226458","6720f4ced2a11d4e702566fa","2","37","null","","","","","","","","","<p style='font-size: 30px;'><strong>Okay</strong></p>","null","neutral_feedback","0","test","14","","","","","","","",""
"","","","","","","","","","","","html-button-response","35","2.0.0","228460","6720f4ced2a11d4e702566fa","2","37","2000","","","","","","","","","<img src= ""rock_img/I_Pegmatite_09.jpg"" style=""width:8cm; height:4.03cm;""><p>What type of rock is this?</p>","1","class_response","0","test","15","Basalt","Pegmatite","09","false","2","6","",""
"","","","","","","","","","","","html-keyboard-response","36","2.0.0","228962","6720f4ced2a11d4e702566fa","2","37","null","","","","","","","","","<p style='font-size: 30px;'><strong>Okay</strong></p>","null","neutral_feedback","0","test","15","","","","","","","",""
"","","","","","","","","","","","html-button-response","37","2.0.0","230717","6720f4ced2a11d4e702566fa","2","37","1752","","","","","","","","","<img src= ""rock_img/I_Pumice_10.jpg"" style=""width:8cm; height:7.609999999999999cm;""><p>What type of rock is this?</p>","7","class_response","0","test","16","Pumice","Pumice","10","true","8","8","",""
"","","","","","","","","","","","html-keyboard-response","38","2.0.0","231219","6720f4ced2a11d4e702566fa","2","37","null","","","","","","","","","<p style='font-size: 30px;'><strong>Okay</strong></p>","null","neutral_feedback","0","test","16","","","","","","","",""
"","","","","","","","","","","","html-button-response","39","2.0.0","232450","6720f4ced2a11d4e702566fa","2","37","1229","","","","","","","","","<img src= ""rock_img/I_Pumice_16.jpg"" style=""width:8cm; height:6.79cm;""><p>What type of rock is this?</p>","7","class_response","0","test","17","Pumice","Pumice","16","true","8","8","",""
"","","","","","","","","","","","html-keyboard-response","40","2.0.0","232952","6720f4ced2a11d4e702566fa","2","37","null","","","","","","","","","<p style='font-size: 30px;'><strong>Okay</strong></p>","null","neutral_feedback","0","test","17","","","","","","","",""
"","","","","","","","","","","","html-button-response","41","2.0.0","234305","6720f4ced2a11d4e702566fa","2","37","1351","","","","","","","","","<img src= ""rock_img/I_Andesite_05.jpg"" style=""width:8cm; height:4.12cm;""><p>What type of rock is this?</p>","4","class_response","0","test","18","Obsidian","Andesite","05","false","5","1","",""
"","","","","","","","","","","","html-keyboard-response","42","2.0.0","234807","6720f4ced2a11d4e702566fa","2","37","null","","","","","","","","","<p style='font-size: 30px;'><strong>Okay</strong></p>","null","neutral_feedback","0","test","18","","","","","","","",""
"","","","","","","","","","","","html-button-response","43","2.0.0","239085","6720f4ced2a11d4e702566fa","2","37","4275","","","","","","","","","<img src= ""rock_img/I_Obsidian_12.jpg"" style=""width:8cm; height:6.53cm;""><p>What type of rock is this?</p>","0","class_response","0","test","19","Andesite","Obsidian","12","false","1","5","",""
"","","","","","","","","","","","html-keyboard-response","44","2.0.0","239587","6720f4ced2a11d4e702566fa","2","37","null","","","","","","","","","<p style='font-size: 30px;'><strong>Okay</strong></p>","null","neutral_feedback","0","test","19","","","","","","","",""
"","","","","","","","","","","","html-button-response","45","2.0.0","242417","6720f4ced2a11d4e702566fa","2","37","2828","","","","","","","","","<img src= ""rock_img/I_Obsidian_04.jpg"" style=""width:8cm; height:6.930000000000001cm;""><p>What type of rock is this?</p>","0","class_response","0","test","20","Andesite","Obsidian","04","false","1","5","",""
"","","","","","","","","","","","html-keyboard-response","46","2.0.0","242919","6720f4ced2a11d4e702566fa","2","37","null","","","","","","","","","<p style='font-size: 30px;'><strong>Okay</strong></p>","null","neutral_feedback","0","test","20","","","","","","","",""
"","","","","","","","","","","","html-button-response","47","2.0.0","245750","6720f4ced2a11d4e702566fa","2","37","2829","","","","","","","","","<img src= ""rock_img/I_Pegmatite_03.jpg"" style=""width:8cm; height:5.239999999999999cm;""><p>What type of rock is this?</p>","3","class_response","0","test","21","Gabbro","Pegmatite","03","false","4","6","",""
"","","","","","","","","","","","html-keyboard-response","48","2.0.0","246252","6720f4ced2a11d4e702566fa","2","37","null","","","","","","","","","<p style='font-size: 30px;'><strong>Okay</strong></p>","null","neutral_feedback","0","test","21","","","","","","","",""
"","","","","","","","","","","","html-button-response","49","2.0.0","249708","6720f4ced2a11d4e702566fa","2","37","3453","","","","","","","","","<img src= ""rock_img/I_Obsidian_07.jpg"" style=""width:8cm; height:4.76cm;""><p>What type of rock is this?</p>","2","class_response","0","test","22","Diorite","Obsidian","07","false","3","5","",""
"","","","","","","","","","","","html-keyboard-response","50","2.0.0","250210","6720f4ced2a11d4e702566fa","2","37","null","","","","","","","","","<p style='font-size: 30px;'><strong>Okay</strong></p>","null","neutral_feedback","0","test","22","","","","","","","",""
"","","","","","","","","","","","html-button-response","51","2.0.0","252597","6720f4ced2a11d4e702566fa","2","37","2385","","","","","","","","","<img src= ""rock_img/I_Gabbro_15.jpg"" style=""width:8cm; height:6.29cm;""><p>What type of rock is this?</p>","4","class_response","0","test","23","Obsidian","Gabbro","15","false","5","4","",""
"","","","","","","","","","","","html-keyboard-response","52","2.0.0","253099","6720f4ced2a11d4e702566fa","2","37","null","","","","","","","","","<p style='font-size: 30px;'><strong>Okay</strong></p>","null","neutral_feedback","0","test","23","","","","","","","",""
"","","","","","","","","","","","html-button-response","53","2.0.0","255615","6720f4ced2a11d4e702566fa","2","37","2513","","","","","","","","","<img src= ""rock_img/I_Andesite_04.jpg"" style=""width:8cm; height:5.96cm;""><p>What type of rock is this?</p>","4","class_response","0","test","24","Obsidian","Andesite","04","false","5","1","",""
"","","","","","","","","","","","html-keyboard-response","54","2.0.0","256117","6720f4ced2a11d4e702566fa","2","37","null","","","","","","","","","<p style='font-size: 30px;'><strong>Okay</strong></p>","null","neutral_feedback","0","test","24","","","","","","","",""
"","","","","","","","","","","","html-button-response","55","2.0.0","257584","6720f4ced2a11d4e702566fa","2","37","1465","","","","","","","","","<img src= ""rock_img/I_Diorite_10.jpg"" style=""width:8cm; height:5.949999999999999cm;""><p>What type of rock is this?</p>","0","class_response","0","test","25","Andesite","Diorite","10","false","1","3","",""
"","","","","","","","","","","","html-keyboard-response","56","2.0.0","258086","6720f4ced2a11d4e702566fa","2","37","null","","","","","","","","","<p style='font-size: 30px;'><strong>Okay</strong></p>","null","neutral_feedback","0","test","25","","","","","","","",""
"","","","","","","","","","","","html-button-response","57","2.0.0","259475","6720f4ced2a11d4e702566fa","2","37","1386","","","","","","","","","<img src= ""rock_img/I_Pegmatite_08.jpg"" style=""width:8cm; height:7.68cm;""><p>What type of rock is this?</p>","1","class_response","0","test","26","Basalt","Pegmatite","08","false","2","6","",""
"","","","","","","","","","","","html-keyboard-response","58","2.0.0","259977","6720f4ced2a11d4e702566fa","2","37","null","","","","","","","","","<p style='font-size: 30px;'><strong>Okay</strong></p>","null","neutral_feedback","0","test","26","","","","","","","",""
"","","","","","","","","","","","html-button-response","59","2.0.0","265309","6720f4ced2a11d4e702566fa","2","37","5330","","","","","","","","","<img src= ""rock_img/I_Andesite_16.jpg"" style=""width:8cm; height:6.010000000000001cm;""><p>What type of rock is this?</p>","4","class_response","0","test","27","Obsidian","Andesite","16","false","5","1","",""
"","","","","","","","","","","","html-keyboard-response","60","2.0.0","265812","6720f4ced2a11d4e702566fa","2","37","null","","","","","","","","","<p style='font-size: 30px;'><strong>Okay</strong></p>","null","neutral_feedback","0","test","27","","","","","","","",""
"","","","","","","","","","","","html-button-response","61","2.0.0","267841","6720f4ced2a11d4e702566fa","2","37","2027","","","","","","","","","<img src= ""rock_img/I_Pumice_13.jpg"" style=""width:8cm; height:8.200000000000001cm;""><p>What type of rock is this?</p>","0","class_response","0","test","28","Andesite","Pumice","13","false","1","8","",""
"","","","","","","","","","","","html-keyboard-response","62","2.0.0","268343","6720f4ced2a11d4e702566fa","2","37","null","","","","","","","","","<p style='font-size: 30px;'><strong>Okay</strong></p>","null","neutral_feedback","0","test","28","","","","","","","",""
"","","","","","","","","","","","html-button-response","63","2.0.0","269825","6720f4ced2a11d4e702566fa","2","37","1480","","","","","","","","","<img src= ""rock_img/I_Obsidian_10.jpg"" style=""width:8cm; height:6.260000000000001cm;""><p>What type of rock is this?</p>","3","class_response","0","test","29","Gabbro","Obsidian","10","false","4","5","",""
"","","","","","","","","","","","html-keyboard-response","64","2.0.0","270327","6720f4ced2a11d4e702566fa","2","37","null","","","","","","","","","<p style='font-size: 30px;'><strong>Okay</strong></p>","null","neutral_feedback","0","test","29","","","","","","","",""
"","","","","","","","","","","","html-button-response","65","2.0.0","271370","6720f4ced2a11d4e702566fa","2","37","1042","","","","","","","","","<img src= ""rock_img/I_Obsidian_16.jpg"" style=""width:8cm; height:9.3cm;""><p>What type of rock is this?</p>","2","class_response","0","test","30","Diorite","Obsidian","16","false","3","5","",""
"","","","","","","","","","","","html-keyboard-response","66","2.0.0","271873","6720f4ced2a11d4e702566fa","2","37","null","","","","","","","","","<p style='font-size: 30px;'><strong>Okay</strong></p>","null","neutral_feedback","0","test","30","","","","","","","",""
"","","","","","","","","","","","html-button-response","67","2.0.0","274809","6720f4ced2a11d4e702566fa","2","37","2934","","","","","","","","","<img src= ""rock_img/I_Peridotite_13.jpg"" style=""width:8cm; height:7.58cm;""><p>What type of rock is this?</p>","4","class_response","0","test","31","Obsidian","Peridotite","13","false","5","7","",""
"","","","","","","","","","","","html-keyboard-response","68","2.0.0","275311","6720f4ced2a11d4e702566fa","2","37","null","","","","","","","","","<p style='font-size: 30px;'><strong>Okay</strong></p>","null","neutral_feedback","0","test","31","","","","","","","",""
"","","","","","","","","","","","html-button-response","69","2.0.0","277292","6720f4ced2a11d4e702566fa","2","37","1979","","","","","","","","","<img src= ""rock_img/I_Diorite_15.jpg"" style=""width:8cm; height:5.54cm;""><p>What type of rock is this?</p>","6","class_response","0","test","32","Peridotite","Diorite","15","false","7","3","",""
"","","","","","","","","","","","html-keyboard-response","70","2.0.0","277794","6720f4ced2a11d4e702566fa","2","37","null","","","","","","","","","<p style='font-size: 30px;'><strong>Okay</strong></p>","null","neutral_feedback","0","test","32","","","","","","","",""
"","","","","","","","","","","","html-button-response","71","2.0.0","279910","6720f4ced2a11d4e702566fa","2","37","2113","","","","","","","","","<img src= ""rock_img/I_Obsidian_14.jpg"" style=""width:8cm; height:7.64cm;""><p>What type of rock is this?</p>","2","class_response","0","test","33","Diorite","Obsidian","14","false","3","5","",""
"","","","","","","","","","","","html-keyboard-response","72","2.0.0","280412","6720f4ced2a11d4e702566fa","2","37","null","","","","","","","","","<p style='font-size: 30px;'><strong>Okay</strong></p>","null","neutral_feedback","0","test","33","","","","","","","",""
"","","","","","","","","","","","html-button-response","73","2.0.0","281834","6720f4ced2a11d4e702566fa","2","37","1420","","","","","","","","","<img src= ""rock_img/I_Basalt_12.jpg"" style=""width:8cm; height:6.010000000000001cm;""><p>What type of rock is this?</p>","4","class_response","0","test","34","Obsidian","Basalt","12","false","5","2","",""
"","","","","","","","","","","","html-keyboard-response","74","2.0.0","282336","6720f4ced2a11d4e702566fa","2","37","null","","","","","","","","","<p style='font-size: 30px;'><strong>Okay</strong></p>","null","neutral_feedback","0","test","34","","","","","","","",""
"","","","","","","","","","","","html-button-response","75","2.0.0","283800","6720f4ced2a11d4e702566fa","2","37","1462","","","","","","","","","<img src= ""rock_img/I_Pumice_15.jpg"" style=""width:8cm; height:7.86cm;""><p>What type of rock is this?</p>","0","class_response","0","test","35","Andesite","Pumice","15","false","1","8","",""
"","","","","","","","","","","","html-keyboard-response","76","2.0.0","284302","6720f4ced2a11d4e702566fa","2","37","null","","","","","","","","","<p style='font-size: 30px;'><strong>Okay</strong></p>","null","neutral_feedback","0","test","35","","","","","","","",""
"","","","","","","","","","","","html-button-response","77","2.0.0","285315","6720f4ced2a11d4e702566fa","2","37","1011","","","","","","","","","<img src= ""rock_img/I_Peridotite_07.jpg"" style=""width:8cm; height:4.83cm;""><p>What type of rock is this?</p>","4","class_response","0","test","36","Obsidian","Peridotite","07","false","5","7","",""
"","","","","","","","","","","","html-keyboard-response","78","2.0.0","285817","6720f4ced2a11d4e702566fa","2","37","null","","","","","","","","","<p style='font-size: 30px;'><strong>Okay</strong></p>","null","neutral_feedback","0","test","36","","","","","","","",""
"","","","","","","","","","","","html-button-response","79","2.0.0","287004","6720f4ced2a11d4e702566fa","2","37","1184","","","","","","","","","<img src= ""rock_img/I_Gabbro_10.jpg"" style=""width:8cm; height:5.680000000000001cm;""><p>What type of rock is this?</p>","4","class_response","0","test","37","Obsidian","Gabbro","10","false","5","4","",""
"","","","","","","","","","","","html-keyboard-response","80","2.0.0","287506","6720f4ced2a11d4e702566fa","2","37","null","","","","","","","","","<p style='font-size: 30px;'><strong>Okay</strong></p>","null","neutral_feedback","0","test","37","","","","","","","",""
"","","","","","","","","","","","html-button-response","81","2.0.0","288544","6720f4ced2a11d4e702566fa","2","37","1036","","","","","","","","","<img src= ""rock_img/I_Peridotite_14.jpg"" style=""width:8cm; height:5.3cm;""><p>What type of rock is this?</p>","5","class_response","0","test","38","Pegmatite","Peridotite","14","false","6","7","",""
"","","","","","","","","","","","html-keyboard-response","82","2.0.0","289046","6720f4ced2a11d4e702566fa","2","37","null","","","","","","","","","<p style='font-size: 30px;'><strong>Okay</strong></p>","null","neutral_feedback","0","test","38","","","","","","","",""
"","","","","","","","","","","","html-button-response","83","2.0.0","290013","6720f4ced2a11d4e702566fa","2","37","965","","","","","","","","","<img src= ""rock_img/I_Peridotite_06.jpg"" style=""width:8cm; height:7.53cm;""><p>What type of rock is this?</p>","6","class_response","0","test","39","Peridotite","Peridotite","06","true","7","7","",""
"","","","","","","","","","","","html-keyboard-response","84","2.0.0","290515","6720f4ced2a11d4e702566fa","2","37","null","","","","","","","","","<p style='font-size: 30px;'><strong>Okay</strong></p>","null","neutral_feedback","0","test","39","","","","","","","",""
"","","","","","","","","","","","html-button-response","85","2.0.0","291221","6720f4ced2a11d4e702566fa","2","37","703","","","","","","","","","<img src= ""rock_img/I_Basalt_09.jpg"" style=""width:8cm; height:6.2cm;""><p>What type of rock is this?</p>","2","class_response","0","test","40","Diorite","Basalt","09","false","3","2","",""
"","","","","","","","","","","","html-keyboard-response","86","2.0.0","291722","6720f4ced2a11d4e702566fa","2","37","null","","","","","","","","","<p style='font-size: 30px;'><strong>Okay</strong></p>","null","neutral_feedback","0","test","40","","","","","","","",""
"","","","","","","","","","","","html-button-response","87","2.0.0","292838","6720f4ced2a11d4e702566fa","2","37","1113","","","","","","","","","<img src= ""rock_img/I_Pumice_05.jpg"" style=""width:8cm; height:7.25cm;""><p>What type of rock is this?</p>","3","class_response","0","test","41","Gabbro","Pumice","05","false","4","8","",""
"","","","","","","","","","","","html-keyboard-response","88","2.0.0","293340","6720f4ced2a11d4e702566fa","2","37","null","","","","","","","","","<p style='font-size: 30px;'><strong>Okay</strong></p>","null","neutral_feedback","0","test","41","","","","","","","",""
"","","","","","","","","","","","html-button-response","89","2.0.0","294855","6720f4ced2a11d4e702566fa","2","37","1514","","","","","","","","","<img src= ""rock_img/I_Diorite_06.jpg"" style=""width:8cm; height:6.03cm;""><p>What type of rock is this?</p>","1","class_response","0","test","42","Basalt","Diorite","06","false","2","3","",""
"","","","","","","","","","","","html-keyboard-response","90","2.0.0","295357","6720f4ced2a11d4e702566fa","2","37","null","","","","","","","","","<p style='font-size: 30px;'><strong>Okay</strong></p>","null","neutral_feedback","0","test","42","","","","","","","",""
"","","","","","","","","","","","html-button-response","91","2.0.0","298625","6720f4ced2a11d4e702566fa","2","37","3266","","","","","","","","","<img src= ""rock_img/I_Diorite_12.jpg"" style=""width:8cm; height:4.88cm;""><p>What type of rock is this?</p>","0","class_response","0","test","43","Andesite","Diorite","12","false","1","3","",""
"","","","","","","","","","","","html-keyboard-response","92","2.0.0","299128","6720f4ced2a11d4e702566fa","2","37","null","","","","","","","","","<p style='font-size: 30px;'><strong>Okay</strong></p>","null","neutral_feedback","0","test","43","","","","","","","",""
"","","","","","","","","","","","html-button-response","93","2.0.0","300482","6720f4ced2a11d4e702566fa","2","37","1352","","","","","","","","","<img src= ""rock_img/I_Basalt_11.jpg"" style=""width:8cm; height:5.359999999999999cm;""><p>What type of rock is this?</p>","5","class_response","0","test","44","Pegmatite","Basalt","11","false","6","2","",""
"","","","","","","","","","","","html-keyboard-response","94","2.0.0","300984","6720f4ced2a11d4e702566fa","2","37","null","","","","","","","","","<p style='font-size: 30px;'><strong>Okay</strong></p>","null","neutral_feedback","0","test","44","","","","","","","",""
"","","","","","","","","","","","html-button-response","95","2.0.0","301538","6720f4ced2a11d4e702566fa","2","37","552","","","","","","","","","<img src= ""rock_img/I_Gabbro_16.jpg"" style=""width:8cm; height:6.44cm;""><p>What type of rock is this?</p>","5","class_response","0","test","45","Pegmatite","Gabbro","16","false","6","4","",""
"","","","","","","","","","","","html-keyboard-response","96","2.0.0","302041","6720f4ced2a11d4e702566fa","2","37","null","","","","","","","","","<p style='font-size: 30px;'><strong>Okay</strong></p>","null","neutral_feedback","0","test","45","","","","","","","",""
"","","","","","","","","","","","html-button-response","97","2.0.0","302752","6720f4ced2a11d4e702566fa","2","37","710","","","","","","","","","<img src= ""rock_img/I_Gabbro_12.jpg"" style=""width:8cm; height:7.800000000000001cm;""><p>What type of rock is this?</p>","2","class_response","0","test","46","Diorite","Gabbro","12","false","3","4","",""
"","","","","","","","","","","","html-keyboard-response","98","2.0.0","303255","6720f4ced2a11d4e702566fa","2","37","null","","","","","","","","","<p style='font-size: 30px;'><strong>Okay</strong></p>","null","neutral_feedback","0","test","46","","","","","","","",""
"","","","","","","","","","","","html-button-response","99","2.0.0","303863","6720f4ced2a11d4e702566fa","2","37","606","","","","","","","","","<img src= ""rock_img/I_Diorite_13.jpg"" style=""width:8cm; height:6.29cm;""><p>What type of rock is this?</p>","6","class_response","0","test","47","Peridotite","Diorite","13","false","7","3","",""
"","","","","","","","","","","","html-keyboard-response","100","2.0.0","304365","6720f4ced2a11d4e702566fa","2","37","null","","","","","","","","","<p style='font-size: 30px;'><strong>Okay</strong></p>","null","neutral_feedback","0","test","47","","","","","","","",""
"","","","","","","","","","","","html-button-response","101","2.0.0","305521","6720f4ced2a11d4e702566fa","2","37","1153","","","","","","","","","<img src= ""rock_img/I_Gabbro_11.jpg"" style=""width:8cm; height:6.2cm;""><p>What type of rock is this?</p>","4","class_response","0","test","48","Obsidian","Gabbro","11","false","5","4","",""
"","","","","","","","","","","","html-keyboard-response","102","2.0.0","306023","6720f4ced2a11d4e702566fa","2","37","null","","","","","","","","","<p style='font-size: 30px;'><strong>Okay</strong></p>","null","neutral_feedback","0","test","48","","","","","","","",""
"","","","","","","","","","","","instructions","103","2.0.0","362462","6720f4ced2a11d4e702566fa","2","37","56417","","","","","","","","[{""page_index"":0,""viewing_time"":43291},{""page_index"":1,""viewing_time"":8253},{""page_index"":2,""viewing_time"":4872}]","","","","","","","","","","","","","",""
"","","","","","","","","","","","html-button-response","104","2.0.0","367570","6720f4ced2a11d4e702566fa","2","37","5106","","","","","","","","","","0","start_train","","","","","","","","","","",""
"","","","","","","","","","","","html-button-response","105","2.0.0","372288","6720f4ced2a11d4e702566fa","2","37","4715","","","","","","","","","<img src= ""rock_img/I_Diorite_14.jpg"" style=""width:8cm; height:5.71cm;""><p>What type of rock is this?</p>","3","class_response","1","train","1","Gabbro","Diorite","14","false","4","3","",""
"","","","","","","","","","","","html-button-response","106","2.0.0","378070","6720f4ced2a11d4e702566fa","2","37","5779","","","","","","","","","<img src= rock_img/I_Diorite_14.jpg style=""width:8cm; height:5.71cm;""><p style='font-size: 30px; color: red;'><strong>Incorrect!</strong></p><p style='font-size: 30px;'><strong>This rock is diorite</strong></p>","0","corr_feedback","1","train","1","","","","","","","",""
"","","","","","","","","","","","html-button-response","107","2.0.0","380063","6720f4ced2a11d4e702566fa","2","37","1992","","","","","","","","","<img src= ""rock_img/I_Basalt_01.jpg"" style=""width:8cm; height:7.880000000000001cm;""><p>What type of rock is this?</p>","6","class_response","1","train","2","Peridotite","Basalt","01","false","7","2","",""
"","","","","","","","","","","","html-button-response","108","2.0.0","385970","6720f4ced2a11d4e702566fa","2","37","5907","","","","","","","","","<img src= rock_img/I_Basalt_01.jpg style=""width:8cm; height:7.880000000000001cm;""><p style='font-size: 30px; color: red;'><strong>Incorrect!</strong></p><p style='font-size: 30px;'><strong>This rock is basalt</strong></p>","0","corr_feedback","1","train","2","","","","","","","",""
"","","","","","","","","","","","html-button-response","109","2.0.0","388309","6720f4ced2a11d4e702566fa","2","37","2337","","","","","","","","","<img src= ""rock_img/I_Diorite_02.jpg"" style=""width:8cm; height:6.27cm;""><p>What type of rock is this?</p>","5","class_response","1","train","3","Pegmatite","Diorite","02","false","6","3","",""
"","","","","","","","","","","","html-button-response","110","2.0.0","392457","6720f4ced2a11d4e702566fa","2","37","4147","","","","","","","","","<img src= rock_img/I_Diorite_02.jpg style=""width:8cm; height:6.27cm;""><p style='font-size: 30px; color: red;'><strong>Incorrect!</strong></p><p style='font-size: 30px;'><strong>This rock is diorite</strong></p>","0","corr_feedback","1","train","3","","","","","","","",""
"","","","","","","","","","","","html-button-response","111","2.0.0","393837","6720f4ced2a11d4e702566fa","2","37","1377","","","","","","","","","<img src= ""rock_img/I_Pumice_03.jpg"" style=""width:8cm; height:6.64cm;""><p>What type of rock is this?</p>","7","class_response","1","train","4","Pumice","Pumice","03","true","8","8","",""
"","","","","","","","","","","","html-button-response","112","2.0.0","396975","6720f4ced2a11d4e702566fa","2","37","3136","","","","","","","","","<img src= rock_img/I_Pumice_03.jpg style=""width:8cm; height:6.64cm;""><p style='font-size: 30px; color: green;'><strong>Correct!</strong></p><p style='font-size: 30px;'><strong>This rock is pumice</strong></p>","0","corr_feedback","1","train","4","","","","","","","",""
"","","","","","","","","","","","html-button-response","113","2.0.0","398728","6720f4ced2a11d4e702566fa","2","37","1752","","","","","","","","","<img src= ""rock_img/I_Andesite_11.jpg"" style=""width:8cm; height:4.92cm;""><p>What type of rock is this?</p>","4","class_response","1","train","5","Obsidian","Andesite","11","false","5","1","",""
"","","","","","","","","","","","html-button-response","114","2.0.0","402129","6720f4ced2a11d4e702566fa","2","37","3398","","","","","","","","","<img src= rock_img/I_Andesite_11.jpg style=""width:8cm; height:4.92cm;""><p style='font-size: 30px; color: red;'><strong>Incorrect!</strong></p><p style='font-size: 30px;'><strong>This rock is andesite</strong></p>","0","corr_feedback","1","train","5","","","","","","","",""
"","","","","","","","","","","","html-button-response","115","2.0.0","403485","6720f4ced2a11d4e702566fa","2","37","1354","","","","","","","","","<img src= ""rock_img/I_Peridotite_05.jpg"" style=""width:8cm; height:7.1499999999999995cm;""><p>What type of rock is this?</p>","1","class_response","1","train","6","Basalt","Peridotite","05","false","2","7","",""
"","","","","","","","","","","","html-button-response","116","2.0.0","407637","6720f4ced2a11d4e702566fa","2","37","4150","","","","","","","","","<img src= rock_img/I_Peridotite_05.jpg style=""width:8cm; height:7.1499999999999995cm;""><p style='font-size: 30px; color: red;'><strong>Incorrect!</strong></p><p style='font-size: 30px;'><strong>This rock is peridotite</strong></p>","0","corr_feedback","1","train","6","","","","","","","",""
"","","","","","","","","","","","html-button-response","117","2.0.0","409079","6720f4ced2a11d4e702566fa","2","37","1441","","","","","","","","","<img src= ""rock_img/I_Pegmatite_15.jpg"" style=""width:8cm; height:6cm;""><p>What type of rock is this?</p>","0","class_response","1","train","7","Andesite","Pegmatite","15","false","1","6","",""
"","","","","","","","","","","","html-button-response","118","2.0.0","427658","6720f4ced2a11d4e702566fa","2","37","18577","","","","","","","","","<img src= rock_img/I_Pegmatite_15.jpg style=""width:8cm; height:6cm;""><p style='font-size: 30px; color: red;'><strong>Incorrect!</strong></p><p style='font-size: 30px;'><strong>This rock is pegmatite</strong></p>","0","corr_feedback","1","train","7","","","","","","","",""
"","","","","","","","","","","","html-button-response","119","2.0.0","429110","6720f4ced2a11d4e702566fa","2","37","1451","","","","","","","","","<img src= ""rock_img/I_Pumice_02.jpg"" style=""width:8cm; height:7.3999999999999995cm;""><p>What type of rock is this?</p>","7","class_response","1","train","8","Pumice","Pumice","02","true","8","8","",""
"","","","","","","","","","","","html-button-response","120","2.0.0","431199","6720f4ced2a11d4e702566fa","2","37","2087","","","","","","","","","<img src= rock_img/I_Pumice_02.jpg style=""width:8cm; height:7.3999999999999995cm;""><p style='font-size: 30px; color: green;'><strong>Correct!</strong></p><p style='font-size: 30px;'><strong>This rock is pumice</strong></p>","0","corr_feedback","1","train","8","","","","","","","",""
"","","","","","","","","","","","html-button-response","121","2.0.0","433511","6720f4ced2a11d4e702566fa","2","37","2311","","","","","","","","","<img src= ""rock_img/I_Gabbro_13.jpg"" style=""width:8cm; height:5.08cm;""><p>What type of rock is this?</p>","3","class_response","1","train","9","Gabbro","Gabbro","13","true","4","4","",""
"","","","","","","","","","","","html-button-response","122","2.0.0","437111","6720f4ced2a11d4e702566fa","2","37","3598","","","","","","","","","<img src= rock_img/I_Gabbro_13.jpg style=""width:8cm; height:5.08cm;""><p style='font-size: 30px; color: green;'><strong>Correct!</strong></p><p style='font-size: 30px;'><strong>This rock is gabbro</strong></p>","0","corr_feedback","1","train","9","","","","","","","",""
"","","","","","","","","","","","html-button-response","123","2.0.0","440050","6720f4ced2a11d4e702566fa","2","37","2937","","","","","","","","","<img src= ""rock_img/I_Andesite_07.jpg"" style=""width:8cm; height:5.93cm;""><p>What type of rock is this?</p>","2","class_response","1","train","10","Diorite","Andesite","07","false","3","1","",""
"","","","","","","","","","","","html-button-response","124","2.0.0","443852","6720f4ced2a11d4e702566fa","2","37","3800","","","","","","","","","<img src= rock_img/I_Andesite_07.jpg style=""width:8cm; height:5.93cm;""><p style='font-size: 30px; color: red;'><strong>Incorrect!</strong></p><p style='font-size: 30px;'><strong>This rock is andesite</strong></p>","0","corr_feedback","1","train","10","","","","","","","",""
"","","","","","","","","","","","html-button-response","125","2.0.0","446594","6720f4ced2a11d4e702566fa","2","37","2740","","","","","","","","","<img src= ""rock_img/I_Basalt_16.jpg"" style=""width:8cm; height:7.659999999999999cm;""><p>What type of rock is this?</p>","5","class_response","1","train","11","Pegmatite","Basalt","16","false","6","2","",""
"","","","","","","","","","","","html-button-response","126","2.0.0","451849","6720f4ced2a11d4e702566fa","2","37","5253","","","","","","","","","<img src= rock_img/I_Basalt_16.jpg style=""width:8cm; height:7.659999999999999cm;""><p style='font-size: 30px; color: red;'><strong>Incorrect!</strong></p><p style='font-size: 30px;'><strong>This rock is basalt</strong></p>","0","corr_feedback","1","train","11","","","","","","","",""
"","","","","","","","","","","","html-button-response","127","2.0.0","453428","6720f4ced2a11d4e702566fa","2","37","1577","","","","","","","","","<img src= ""rock_img/I_Basalt_10.jpg"" style=""width:8cm; height:5.85cm;""><p>What type of rock is this?</p>","4","class_response","1","train","12","Obsidian","Basalt","10","false","5","2","",""
"","","","","","","","","","","","html-button-response","128","2.0.0","458145","6720f4ced2a11d4e702566fa","2","37","4715","","","","","","","","","<img src= rock_img/I_Basalt_10.jpg style=""width:8cm; height:5.85cm;""><p style='font-size: 30px; color: red;'><strong>Incorrect!</strong></p><p style='font-size: 30px;'><strong>This rock is basalt</strong></p>","0","corr_feedback","1","train","12","","","","","","","",""
"","","","","","","","","","","","html-button-response","129","2.0.0","472146","6720f4ced2a11d4e702566fa","2","37","14000","","","","","","","","","<img src= ""rock_img/I_Gabbro_14.jpg"" style=""width:8cm; height:8.48cm;""><p>What type of rock is this?</p>","1","class_response","1","train","13","Basalt","Gabbro","14","false","2","4","",""
"","","","","","","","","","","","html-button-response","130","2.0.0","481951","6720f4ced2a11d4e702566fa","2","37","9803","","","","","","","","","<img src= rock_img/I_Gabbro_14.jpg style=""width:8cm; height:8.48cm;""><p style='font-size: 30px; color: red;'><strong>Incorrect!</strong></p><p style='font-size: 30px;'><strong>This rock is gabbro</strong></p>","0","corr_feedback","1","train","13","","","","","","","",""
"","","","","","","","","","","","html-button-response","131","2.0.0","493534","6720f4ced2a11d4e702566fa","2","37","11580","","","","","","","","","<img src= ""rock_img/I_Peridotite_02.jpg"" style=""width:8cm; height:5.859999999999999cm;""><p>What type of rock is this?</p>","4","class_response","1","train","14","Obsidian","Peridotite","02","false","5","7","",""
"","","","","","","","","","","","html-button-response","132","2.0.0","499684","6720f4ced2a11d4e702566fa","2","37","6148","","","","","","","","","<img src= rock_img/I_Peridotite_02.jpg style=""width:8cm; height:5.859999999999999cm;""><p style='font-size: 30px; color: red;'><strong>Incorrect!</strong></p><p style='font-size: 30px;'><strong>This rock is peridotite</strong></p>","0","corr_feedback","1","train","14","","","","","","","",""
"","","","","","","","","","","","html-button-response","133","2.0.0","511398","6720f4ced2a11d4e702566fa","2","37","11712","","","","","","","","","<img src= ""rock_img/I_Andesite_02.jpg"" style=""width:8cm; height:8.5cm;""><p>What type of rock is this?</p>","6","class_response","1","train","15","Peridotite","Andesite","02","false","7","1","",""
"","","","","","","","","","","","html-button-response","134","2.0.0","517710","6720f4ced2a11d4e702566fa","2","37","6310","","","","","","","","","<img src= rock_img/I_Andesite_02.jpg style=""width:8cm; height:8.5cm;""><p style='font-size: 30px; color: red;'><strong>Incorrect!</strong></p><p style='font-size: 30px;'><strong>This rock is andesite</strong></p>","0","corr_feedback","1","train","15","","","","","","","",""
"","","","","","","","","","","","html-button-response","135","2.0.0","536515","6720f4ced2a11d4e702566fa","2","37","18803","","","","","","","","","<img src= ""rock_img/I_Obsidian_08.jpg"" style=""width:8cm; height:7.39cm;""><p>What type of rock is this?</p>","1","class_response","1","train","16","Basalt","Obsidian","08","false","2","5","",""
"","","","","","","","","","","","html-button-response","136","2.0.0","542018","6720f4ced2a11d4e702566fa","2","37","5501","","","","","","","","","<img src= rock_img/I_Obsidian_08.jpg style=""width:8cm; height:7.39cm;""><p style='font-size: 30px; color: red;'><strong>Incorrect!</strong></p><p style='font-size: 30px;'><strong>This rock is obsidian</strong></p>","0","corr_feedback","1","train","16","","","","","","","",""
"","","","","","","","","","","","html-button-response","137","2.0.0","543812","6720f4ced2a11d4e702566fa","2","37","1792","","","","","","","","","<img src= ""rock_img/I_Peridotite_10.jpg"" style=""width:8cm; height:5.390000000000001cm;""><p>What type of rock is this?</p>","7","class_response","1","train","17","Pumice","Peridotite","10","false","8","7","",""
"","","","","","","","","","","","html-button-response","138","2.0.0","546919","6720f4ced2a11d4e702566fa","2","37","3105","","","","","","","","","<img src= rock_img/I_Peridotite_10.jpg style=""width:8cm; height:5.390000000000001cm;""><p style='font-size: 30px; color: red;'><strong>Incorrect!</strong></p><p style='font-size: 30px;'><strong>This rock is peridotite</strong></p>","0","corr_feedback","1","train","17","","","","","","","",""
"","","","","","","","","","","","html-button-response","139","2.0.0","562159","6720f4ced2a11d4e702566fa","2","37","15238","","","","","","","","","<img src= ""rock_img/I_Diorite_09.jpg"" style=""width:8cm; height:5.27cm;""><p>What type of rock is this?</p>","2","class_response","1","train","18","Diorite","Diorite","09","true","3","3","",""
"","","","","","","","","","","","html-button-response","140","2.0.0","563541","6720f4ced2a11d4e702566fa","2","37","1380","","","","","","","","","<img src= rock_img/I_Diorite_09.jpg style=""width:8cm; height:5.27cm;""><p style='font-size: 30px; color: green;'><strong>Correct!</strong></p><p style='font-size: 30px;'><strong>This rock is diorite</strong></p>","0","corr_feedback","1","train","18","","","","","","","",""
"","","","","","","","","","","","html-button-response","141","2.0.0","566969","6720f4ced2a11d4e702566fa","2","37","3426","","","","","","","","","<img src= ""rock_img/I_Pegmatite_10.jpg"" style=""width:8cm; height:4.16cm;""><p>What type of rock is this?</p>","3","class_response","1","train","19","Gabbro","Pegmatite","10","false","4","6","",""
"","","","","","","","","","","","html-button-response","142","2.0.0","574865","6720f4ced2a11d4e702566fa","2","37","7894","","","","","","","","","<img src= rock_img/I_Pegmatite_10.jpg style=""width:8cm; height:4.16cm;""><p style='font-size: 30px; color: red;'><strong>Incorrect!</strong></p><p style='font-size: 30px;'><strong>This rock is pegmatite</strong></p>","0","corr_feedback","1","train","19","","","","","","","",""
"","","","","","","","","","","","html-button-response","143","2.0.0","577567","6720f4ced2a11d4e702566fa","2","37","2701","","","","","","","","","<img src= ""rock_img/I_Gabbro_01.jpg"" style=""width:8cm; height:5.21cm;""><p>What type of rock is this?</p>","0","class_response","1","train","20","Andesite","Gabbro","01","false","1","4","",""
"","","","","","","","","","","","html-button-response","144","2.0.0","580936","6720f4ced2a11d4e702566fa","2","37","3367","","","","","","","","","<img src= rock_img/I_Gabbro_01.jpg style=""width:8cm; height:5.21cm;""><p style='font-size: 30px; color: red;'><strong>Incorrect!</strong></p><p style='font-size: 30px;'><strong>This rock is gabbro</strong></p>","0","corr_feedback","1","train","20","","","","","","","",""
"","","","","","","","","","","","html-button-response","145","2.0.0","582749","6720f4ced2a11d4e702566fa","2","37","1812","","","","","","","","","<img src= ""rock_img/I_Gabbro_08.jpg"" style=""width:8cm; height:5.15cm;""><p>What type of rock is this?</p>","1","class_response","1","train","21","Basalt","Gabbro","08","false","2","4","",""
"","","","","","","","","","","","html-button-response","146","2.0.0","586308","6720f4ced2a11d4e702566fa","2","37","3557","","","","","","","","","<img src= rock_img/I_Gabbro_08.jpg style=""width:8cm; height:5.15cm;""><p style='font-size: 30px; color: red;'><strong>Incorrect!</strong></p><p style='font-size: 30px;'><strong>This rock is gabbro</strong></p>","0","corr_feedback","1","train","21","","","","","","","",""
"","","","","","","","","","","","html-button-response","147","2.0.0","598767","6720f4ced2a11d4e702566fa","2","37","12457","","","","","","","","","<img src= ""rock_img/I_Diorite_07.jpg"" style=""width:8cm; height:5.239999999999999cm;""><p>What type of rock is this?</p>","2","class_response","1","train","22","Diorite","Diorite","07","true","3","3","",""
"","","","","","","","","","","","html-button-response","148","2.0.0","599966","6720f4ced2a11d4e702566fa","2","37","1197","","","","","","","","","<img src= rock_img/I_Diorite_07.jpg style=""width:8cm; height:5.239999999999999cm;""><p style='font-size: 30px; color: green;'><strong>Correct!</strong></p><p style='font-size: 30px;'><strong>This rock is diorite</strong></p>","0","corr_feedback","1","train","22","","","","","","","",""
"","","","","","","","","","","","html-button-response","149","2.0.0","610996","6720f4ced2a11d4e702566fa","2","37","11028","","","","","","","","","<img src= ""rock_img/I_Andesite_01.jpg"" style=""width:8cm; height:5.87cm;""><p>What type of rock is this?</p>","1","class_response","1","train","23","Basalt","Andesite","01","false","2","1","",""
"","","","","","","","","","","","html-button-response","150","2.0.0","618769","6720f4ced2a11d4e702566fa","2","37","7771","","","","","","","","","<img src= rock_img/I_Andesite_01.jpg style=""width:8cm; height:5.87cm;""><p style='font-size: 30px; color: red;'><strong>Incorrect!</strong></p><p style='font-size: 30px;'><strong>This rock is andesite</strong></p>","0","corr_feedback","1","train","23","","","","","","","",""
"","","","","","","","","","","","html-button-response","151","2.0.0","620398","6720f4ced2a11d4e702566fa","2","37","1628","","","","","","","","","<img src= ""rock_img/I_Pumice_09.jpg"" style=""width:8cm; height:6.44cm;""><p>What type of rock is this?</p>","7","class_response","1","train","24","Pumice","Pumice","09","true","8","8","",""
"","","","","","","","","","","","html-button-response","152","2.0.0","621461","6720f4ced2a11d4e702566fa","2","37","1061","","","","","","","","","<img src= rock_img/I_Pumice_09.jpg style=""width:8cm; height:6.44cm;""><p style='font-size: 30px; color: green;'><strong>Correct!</strong></p><p style='font-size: 30px;'><strong>This rock is pumice</strong></p>","0","corr_feedback","1","train","24","","","","","","","",""
"","","","","","","","","","","","html-button-response","153","2.0.0","630565","6720f4ced2a11d4e702566fa","2","37","9103","","","","","","","","","<img src= ""rock_img/I_Andesite_09.jpg"" style=""width:8cm; height:6cm;""><p>What type of rock is this?</p>","0","class_response","1","train","25","Andesite","Andesite","09","true","1","1","",""
"","","","","","","","","","","","html-button-response","154","2.0.0","631856","6720f4ced2a11d4e702566fa","2","37","1289","","","","","","","","","<img src= rock_img/I_Andesite_09.jpg style=""width:8cm; height:6cm;""><p style='font-size: 30px; color: green;'><strong>Correct!</strong></p><p style='font-size: 30px;'><strong>This rock is andesite</strong></p>","0","corr_feedback","1","train","25","","","","","","","",""
"","","","","","","","","","","","html-button-response","155","2.0.0","633154","6720f4ced2a11d4e702566fa","2","37","1297","","","","","","","","","<img src= ""rock_img/I_Pumice_14.jpg"" style=""width:8cm; height:6.39cm;""><p>What type of rock is this?</p>","7","class_response","1","train","26","Pumice","Pumice","14","true","8","8","",""
"","","","","","","","","","","","html-button-response","156","2.0.0","634232","6720f4ced2a11d4e702566fa","2","37","1075","","","","","","","","","<img src= rock_img/I_Pumice_14.jpg style=""width:8cm; height:6.39cm;""><p style='font-size: 30px; color: green;'><strong>Correct!</strong></p><p style='font-size: 30px;'><strong>This rock is pumice</strong></p>","0","corr_feedback","1","train","26","","","","","","","",""
"","","","","","","","","","","","html-button-response","157","2.0.0","636125","6720f4ced2a11d4e702566fa","2","37","1891","","","","","","","","","<img src= ""rock_img/I_Gabbro_09.jpg"" style=""width:8cm; height:7.279999999999999cm;""><p>What type of rock is this?</p>","0","class_response","1","train","27","Andesite","Gabbro","09","false","1","4","",""
"","","","","","","","","","","","html-button-response","158","2.0.0","645059","6720f4ced2a11d4e702566fa","2","37","8932","","","","","","","","","<img src= rock_img/I_Gabbro_09.jpg style=""width:8cm; height:7.279999999999999cm;""><p style='font-size: 30px; color: red;'><strong>Incorrect!</strong></p><p style='font-size: 30px;'><strong>This rock is gabbro</strong></p>","0","corr_feedback","1","train","27","","","","","","","",""
"","","","","","","","","","","","html-button-response","159","2.0.0","648024","6720f4ced2a11d4e702566fa","2","37","2964","","","","","","","","","<img src= ""rock_img/I_Obsidian_11.jpg"" style=""width:8cm; height:6.05cm;""><p>What type of rock is this?</p>","3","class_response","1","train","28","Gabbro","Obsidian","11","false","4","5","",""
"","","","","","","","","","","","html-button-response","160","2.0.0","651244","6720f4ced2a11d4e702566fa","2","37","3218","","","","","","","","","<img src= rock_img/I_Obsidian_11.jpg style=""width:8cm; height:6.05cm;""><p style='font-size: 30px; color: red;'><strong>Incorrect!</strong></p><p style='font-size: 30px;'><strong>This rock is obsidian</strong></p>","0","corr_feedback","1","train","28","","","","","","","",""
"","","","","","","","","","","","html-button-response","161","2.0.0","654516","6720f4ced2a11d4e702566fa","2","37","3271","","","","","","","","","<img src= ""rock_img/I_Pegmatite_11.jpg"" style=""width:8cm; height:8.14cm;""><p>What type of rock is this?</p>","2","class_response","1","train","29","Diorite","Pegmatite","11","false","3","6","",""
"","","","","","","","","","","","html-button-response","162","2.0.0","657860","6720f4ced2a11d4e702566fa","2","37","3343","","","","","","","","","<img src= rock_img/I_Pegmatite_11.jpg style=""width:8cm; height:8.14cm;""><p style='font-size: 30px; color: red;'><strong>Incorrect!</strong></p><p style='font-size: 30px;'><strong>This rock is pegmatite</strong></p>","0","corr_feedback","1","train","29","","","","","","","",""
"","","","","","","","","","","","html-button-response","163","2.0.0","667951","6720f4ced2a11d4e702566fa","2","37","10090","","","","","","","","","<img src= ""rock_img/I_Pegmatite_06.jpg"" style=""width:8cm; height:5.17cm;""><p>What type of rock is this?</p>","5","class_response","1","train","30","Pegmatite","Pegmatite","06","true","6","6","",""
"","","","","","","","","","","","html-button-response","164","2.0.0","669685","6720f4ced2a11d4e702566fa","2","37","1731","","","","","","","","","<img src= rock_img/I_Pegmatite_06.jpg style=""width:8cm; height:5.17cm;""><p style='font-size: 30px; color: green;'><strong>Correct!</strong></p><p style='font-size: 30px;'><strong>This rock is pegmatite</strong></p>","0","corr_feedback","1","train","30","","","","","","","",""
"","","","","","","","","","","","html-button-response","165","2.0.0","676329","6720f4ced2a11d4e702566fa","2","37","6643","","","","","","","","","<img src= ""rock_img/I_Gabbro_03.jpg"" style=""width:8cm; height:8.52cm;""><p>What type of rock is this?</p>","0","class_response","1","train","31","Andesite","Gabbro","03","false","1","4","",""
"","","","","","","","","","","","html-button-response","166","2.0.0","683364","6720f4ced2a11d4e702566fa","2","37","7034","","","","","","","","","<img src= rock_img/I_Gabbro_03.jpg style=""width:8cm; height:8.52cm;""><p style='font-size: 30px; color: red;'><strong>Incorrect!</strong></p><p style='font-size: 30px;'><strong>This rock is gabbro</strong></p>","0","corr_feedback","1","train","31","","","","","","","",""
"","","","","","","","","","","","html-button-response","167","2.0.0","685180","6720f4ced2a11d4e702566fa","2","37","1815","","","","","","","","","<img src= ""rock_img/I_Obsidian_06.jpg"" style=""width:8cm; height:6.8cm;""><p>What type of rock is this?</p>","3","class_response","1","train","32","Gabbro","Obsidian","06","false","4","5","",""
"","","","","","","","","","","","html-button-response","168","2.0.0","688822","6720f4ced2a11d4e702566fa","2","37","3640","","","","","","","","","<img src= rock_img/I_Obsidian_06.jpg style=""width:8cm; height:6.8cm;""><p style='font-size: 30px; color: red;'><strong>Incorrect!</strong></p><p style='font-size: 30px;'><strong>This rock is obsidian</strong></p>","0","corr_feedback","1","train","32","","","","","","","",""
"","","","","","","","","","","","html-button-response","169","2.0.0","697677","6720f4ced2a11d4e702566fa","2","37","8854","","","","","","","","","<img src= ""rock_img/I_Diorite_11.jpg"" style=""width:8cm; height:7.11cm;""><p>What type of rock is this?</p>","0","class_response","1","train","33","Andesite","Diorite","11","false","1","3","",""
"","","","","","","","","","","","html-button-response","170","2.0.0","705551","6720f4ced2a11d4e702566fa","2","37","7872","","","","","","","","","<img src= rock_img/I_Diorite_11.jpg style=""width:8cm; height:7.11cm;""><p style='font-size: 30px; color: red;'><strong>Incorrect!</strong></p><p style='font-size: 30px;'><strong>This rock is diorite</strong></p>","0","corr_feedback","1","train","33","","","","","","","",""
"","","","","","","","","","","","html-button-response","171","2.0.0","715208","6720f4ced2a11d4e702566fa","2","37","9654","","","","","","","","","<img src= ""rock_img/I_Obsidian_09.jpg"" style=""width:8cm; height:5cm;""><p>What type of rock is this?</p>","4","class_response","1","train","34","Obsidian","Obsidian","09","true","5","5","",""
"","","","","","","","","","","","html-button-response","172","2.0.0","716482","6720f4ced2a11d4e702566fa","2","37","1272","","","","","","","","","<img src= rock_img/I_Obsidian_09.jpg style=""width:8cm; height:5cm;""><p style='font-size: 30px; color: green;'><strong>Correct!</strong></p><p style='font-size: 30px;'><strong>This rock is obsidian</strong></p>","0","corr_feedback","1","train","34","","","","","","","",""
"","","","","","","","","","","","html-button-response","173","2.0.0","722213","6720f4ced2a11d4e702566fa","2","37","5729","","","","","","","","","<img src= ""rock_img/I_Peridotite_15.jpg"" style=""width:8cm; height:6cm;""><p>What type of rock is this?</p>","6","class_response","1","train","35","Peridotite","Peridotite","15","true","7","7","",""
"","","","","","","","","","","","html-button-response","174","2.0.0","723160","6720f4ced2a11d4e702566fa","2","37","946","","","","","","","","","<img src= rock_img/I_Peridotite_15.jpg style=""width:8cm; height:6cm;""><p style='font-size: 30px; color: green;'><strong>Correct!</strong></p><p style='font-size: 30px;'><strong>This rock is peridotite</strong></p>","0","corr_feedback","1","train","35","","","","","","","",""
"","","","","","","","","","","","html-button-response","175","2.0.0","735274","6720f4ced2a11d4e702566fa","2","37","12112","","","","","","","","","<img src= ""rock_img/I_Andesite_14.jpg"" style=""width:8cm; height:5.449999999999999cm;""><p>What type of rock is this?</p>","6","class_response","1","train","36","Peridotite","Andesite","14","false","7","1","",""
"","","","","","","","","","","","html-button-response","176","2.0.0","736821","6720f4ced2a11d4e702566fa","2","37","1545","","","","","","","","","<img src= rock_img/I_Andesite_14.jpg style=""width:8cm; height:5.449999999999999cm;""><p style='font-size: 30px; color: red;'><strong>Incorrect!</strong></p><p style='font-size: 30px;'><strong>This rock is andesite</strong></p>","0","corr_feedback","1","train","36","","","","","","","",""
"","","","","","","","","","","","html-button-response","177","2.0.0","739970","6720f4ced2a11d4e702566fa","2","37","3146","","","","","","","","","<img src= ""rock_img/I_Peridotite_16.jpg"" style=""width:8cm; height:6.989999999999999cm;""><p>What type of rock is this?</p>","6","class_response","1","train","37","Peridotite","Peridotite","16","true","7","7","",""
"","","","","","","","","","","","html-button-response","178","2.0.0","740901","6720f4ced2a11d4e702566fa","2","37","930","","","","","","","","","<img src= rock_img/I_Peridotite_16.jpg style=""width:8cm; height:6.989999999999999cm;""><p style='font-size: 30px; color: green;'><strong>Correct!</strong></p><p style='font-size: 30px;'><strong>This rock is peridotite</strong></p>","0","corr_feedback","1","train","37","","","","","","","",""
"","","","","","","","","","","","html-button-response","179","2.0.0","757577","6720f4ced2a11d4e702566fa","2","37","16674","","","","","","","","","<img src= ""rock_img/I_Peridotite_12.jpg"" style=""width:8cm; height:4.54cm;""><p>What type of rock is this?</p>","2","class_response","1","train","38","Diorite","Peridotite","12","false","3","7","",""
"","","","","","","","","","","","html-button-response","180","2.0.0","759022","6720f4ced2a11d4e702566fa","2","37","1443","","","","","","","","","<img src= rock_img/I_Peridotite_12.jpg style=""width:8cm; height:4.54cm;""><p style='font-size: 30px; color: red;'><strong>Incorrect!</strong></p><p style='font-size: 30px;'><strong>This rock is peridotite</strong></p>","0","corr_feedback","1","train","38","","","","","","","",""
"","","","","","","","","","","","html-button-response","181","2.0.0","770525","6720f4ced2a11d4e702566fa","2","37","11501","","","","","","","","","<img src= ""rock_img/I_Obsidian_11.jpg"" style=""width:8cm; height:6.05cm;""><p>What type of rock is this?</p>","4","class_response","1","train","39","Obsidian","Obsidian","11","true","5","5","",""
"","","","","","","","","","","","html-button-response","182","2.0.0","771801","6720f4ced2a11d4e702566fa","2","37","1274","","","","","","","","","<img src= rock_img/I_Obsidian_11.jpg style=""width:8cm; height:6.05cm;""><p style='font-size: 30px; color: green;'><strong>Correct!</strong></p><p style='font-size: 30px;'><strong>This rock is obsidian</strong></p>","0","corr_feedback","1","train","39","","","","","","","",""
"","","","","","","","","","","","html-button-response","183","2.0.0","773048","6720f4ced2a11d4e702566fa","2","37","1246","","","","","","","","","<img src= ""rock_img/I_Obsidian_02.jpg"" style=""width:8cm; height:7.51cm;""><p>What type of rock is this?</p>","4","class_response","1","train","40","Obsidian","Obsidian","02","true","5","5","",""
"","","","","","","","","","","","html-button-response","184","2.0.0","774013","6720f4ced2a11d4e702566fa","2","37","963","","","","","","","","","<img src= rock_img/I_Obsidian_02.jpg style=""width:8cm; height:7.51cm;""><p style='font-size: 30px; color: green;'><strong>Correct!</strong></p><p style='font-size: 30px;'><strong>This rock is obsidian</strong></p>","0","corr_feedback","1","train","40","","","","","","","",""
"","","","","","","","","","","","html-button-response","185","2.0.0","776893","6720f4ced2a11d4e702566fa","2","37","2879","","","","","","","","","<img src= ""rock_img/I_Basalt_04.jpg"" style=""width:8cm; height:7.53cm;""><p>What type of rock is this?</p>","5","class_response","1","train","41","Pegmatite","Basalt","04","false","6","2","",""
"","","","","","","","","","","","html-button-response","186","2.0.0","778101","6720f4ced2a11d4e702566fa","2","37","1205","","","","","","","","","<img src= rock_img/I_Basalt_04.jpg style=""width:8cm; height:7.53cm;""><p style='font-size: 30px; color: red;'><strong>Incorrect!</strong></p><p style='font-size: 30px;'><strong>This rock is basalt</strong></p>","0","corr_feedback","1","train","41","","","","","","","",""
"","","","","","","","","","","","html-button-response","187","2.0.0","780666","6720f4ced2a11d4e702566fa","2","37","2564","","","","","","","","","<img src= ""rock_img/I_Basalt_02.jpg"" style=""width:8cm; height:6.45cm;""><p>What type of rock is this?</p>","0","class_response","1","train","42","Andesite","Basalt","02","false","1","2","",""
"","","","","","","","","","","","html-button-response","188","2.0.0","781826","6720f4ced2a11d4e702566fa","2","37","1158","","","","","","","","","<img src= rock_img/I_Basalt_02.jpg style=""width:8cm; height:6.45cm;""><p style='font-size: 30px; color: red;'><strong>Incorrect!</strong></p><p style='font-size: 30px;'><strong>This rock is basalt</strong></p>","0","corr_feedback","1","train","42","","","","","","","",""
"","","","","","","","","","","","html-button-response","189","2.0.0","785527","6720f4ced2a11d4e702566fa","2","37","3699","","","","","","","","","<img src= ""rock_img/I_Diorite_08.jpg"" style=""width:8cm; height:6.37cm;""><p>What type of rock is this?</p>","1","class_response","1","train","43","Basalt","Diorite","08","false","2","3","",""
"","","","","","","","","","","","html-button-response","190","2.0.0","786651","6720f4ced2a11d4e702566fa","2","37","1123","","","","","","","","","<img src= rock_img/I_Diorite_08.jpg style=""width:8cm; height:6.37cm;""><p style='font-size: 30px; color: red;'><strong>Incorrect!</strong></p><p style='font-size: 30px;'><strong>This rock is diorite</strong></p>","0","corr_feedback","1","train","43","","","","","","","",""
"","","","","","","","","","","","html-button-response","191","2.0.0","790818","6720f4ced2a11d4e702566fa","2","37","4165","","","","","","","","","<img src= ""rock_img/I_Basalt_05.jpg"" style=""width:8cm; height:8.18cm;""><p>What type of rock is this?</p>","6","class_response","1","train","44","Peridotite","Basalt","05","false","7","2","",""
"","","","","","","","","","","","html-button-response","192","2.0.0","791836","6720f4ced2a11d4e702566fa","2","37","1017","","","","","","","","","<img src= rock_img/I_Basalt_05.jpg style=""width:8cm; height:8.18cm;""><p style='font-size: 30px; color: red;'><strong>Incorrect!</strong></p><p style='font-size: 30px;'><strong>This rock is basalt</strong></p>","0","corr_feedback","1","train","44","","","","","","","",""
"","","","","","","","","","","","html-button-response","193","2.0.0","802517","6720f4ced2a11d4e702566fa","2","37","10680","","","","","","","","","<img src= ""rock_img/I_Pegmatite_12.jpg"" style=""width:8cm; height:5.7cm;""><p>What type of rock is this?</p>","2","class_response","1","train","45","Diorite","Pegmatite","12","false","3","6","",""
"","","","","","","","","","","","html-button-response","194","2.0.0","804839","6720f4ced2a11d4e702566fa","2","37","2320","","","","","","","","","<img src= rock_img/I_Pegmatite_12.jpg style=""width:8cm; height:5.7cm;""><p style='font-size: 30px; color: red;'><strong>Incorrect!</strong></p><p style='font-size: 30px;'><strong>This rock is pegmatite</strong></p>","0","corr_feedback","1","train","45","","","","","","","",""
"","","","","","","","","","","","html-button-response","195","2.0.0","810872","6720f4ced2a11d4e702566fa","2","37","6031","","","","","","","","","<img src= ""rock_img/I_Gabbro_03.jpg"" style=""width:8cm; height:8.52cm;""><p>What type of rock is this?</p>","1","class_response","1","train","46","Basalt","Gabbro","03","false","2","4","",""
"","","","","","","","","","","","html-button-response","196","2.0.0","812118","6720f4ced2a11d4e702566fa","2","37","1244","","","","","","","","","<img src= rock_img/I_Gabbro_03.jpg style=""width:8cm; height:8.52cm;""><p style='font-size: 30px; color: red;'><strong>Incorrect!</strong></p><p style='font-size: 30px;'><strong>This rock is gabbro</strong></p>","0","corr_feedback","1","train","46","","","","","","","",""
"","","","","","","","","","","","html-button-response","197","2.0.0","815705","6720f4ced2a11d4e702566fa","2","37","3586","","","","","","","","","<img src= ""rock_img/I_Obsidian_05.jpg"" style=""width:8cm; height:6.33cm;""><p>What type of rock is this?</p>","4","class_response","1","train","47","Obsidian","Obsidian","05","true","5","5","",""
"","","","","","","","","","","","html-button-response","198","2.0.0","817259","6720f4ced2a11d4e702566fa","2","37","1553","","","","","","","","","<img src= rock_img/I_Obsidian_05.jpg style=""width:8cm; height:6.33cm;""><p style='font-size: 30px; color: green;'><strong>Correct!</strong></p><p style='font-size: 30px;'><strong>This rock is obsidian</strong></p>","0","corr_feedback","1","train","47","","","","","","","",""
"","","","","","","","","","","","html-button-response","199","2.0.0","820205","6720f4ced2a11d4e702566fa","2","37","2944","","","","","","","","","<img src= ""rock_img/I_Diorite_08.jpg"" style=""width:8cm; height:6.37cm;""><p>What type of rock is this?</p>","1","class_response","1","train","48","Basalt","Diorite","08","false","2","3","",""
"","","","","","","","","","","","html-button-response","200","2.0.0","821265","6720f4ced2a11d4e702566fa","2","37","1058","","","","","","","","","<img src= rock_img/I_Diorite_08.jpg style=""width:8cm; height:6.37cm;""><p style='font-size: 30px; color: red;'><strong>Incorrect!</strong></p><p style='font-size: 30px;'><strong>This rock is diorite</strong></p>","0","corr_feedback","1","train","48","","","","","","","",""
"","","","","","","","","","","","instructions","203","2.0.0","909957","6720f4ced2a11d4e702566fa","2","37","88690","","","","","","","","[{""page_index"":0,""viewing_time"":67351},{""page_index"":1,""viewing_time"":21339}]","","","","","","","","","","","","","",""
"","","","","","","","","","","","html-button-response","204","2.0.0","912417","6720f4ced2a11d4e702566fa","2","37","2458","","","","","","","","","","0","start_test","","","","","","","","","","",""
"","","","","","","","","","","","html-button-response","205","2.0.0","922533","6720f4ced2a11d4e702566fa","2","37","10113","","","","","","","","","<img src= ""rock_img/I_Andesite_04.jpg"" style=""width:8cm; height:5.96cm;""><p>What type of rock is this?</p>","0","class_response","1","test","1","Andesite","Andesite","04","true","1","1","",""
"","","","","","","","","","","","html-keyboard-response","206","2.0.0","923035","6720f4ced2a11d4e702566fa","2","37","null","","","","","","","","","<p style='font-size: 30px;'><strong>Okay</strong></p>","null","neutral_feedback","1","test","1","","","","","","","",""
"","","","","","","","","","","","html-button-response","207","2.0.0","930637","6720f4ced2a11d4e702566fa","2","37","7600","","","","","","","","","<img src= ""rock_img/I_Peridotite_14.jpg"" style=""width:8cm; height:5.3cm;""><p>What type of rock is this?</p>","6","class_response","1","test","2","Peridotite","Peridotite","14","true","7","7","",""
"","","","","","","","","","","","html-keyboard-response","208","2.0.0","931139","6720f4ced2a11d4e702566fa","2","37","null","","","","","","","","","<p style='font-size: 30px;'><strong>Okay</strong></p>","null","neutral_feedback","1","test","2","","","","","","","",""
"","","","","","","","","","","","html-button-response","209","2.0.0","937564","6720f4ced2a11d4e702566fa","2","37","6427","","","","","","","","","<img src= ""rock_img/I_Gabbro_11.jpg"" style=""width:8cm; height:6.2cm;""><p>What type of rock is this?</p>","3","class_response","1","test","3","Gabbro","Gabbro","11","true","4","4","",""
"","","","","","","","","","","","html-keyboard-response","210","2.0.0","938066","6720f4ced2a11d4e702566fa","2","37","null","","","","","","","","","<p style='font-size: 30px;'><strong>Okay</strong></p>","null","neutral_feedback","1","test","3","","","","","","","",""
"","","","","","","","","","","","html-button-response","211","2.0.0","950270","6720f4ced2a11d4e702566fa","2","37","12210","","","","","","","","","<img src= ""rock_img/I_Pegmatite_09.jpg"" style=""width:8cm; height:4.03cm;""><p>What type of rock is this?</p>","5","class_response","1","test","4","Pegmatite","Pegmatite","09","true","6","6","",""
"","","","","","","","","","","","html-keyboard-response","212","2.0.0","950772","6720f4ced2a11d4e702566fa","2","37","null","","","","","","","","","<p style='font-size: 30px;'><strong>Okay</strong></p>","null","neutral_feedback","1","test","4","","","","","","","",""
"","","","","","","","","","","","html-button-response","213","2.0.0","967964","6720f4ced2a11d4e702566fa","2","37","17195","","","","","","","","","<img src= ""rock_img/I_Pumice_13.jpg"" style=""width:8cm; height:8.200000000000001cm;""><p>What type of rock is this?</p>","7","class_response","1","test","5","Pumice","Pumice","13","true","8","8","",""
"","","","","","","","","","","","html-keyboard-response","214","2.0.0","968465","6720f4ced2a11d4e702566fa","2","37","null","","","","","","","","","<p style='font-size: 30px;'><strong>Okay</strong></p>","null","neutral_feedback","1","test","5","","","","","","","",""
"","","","","","","","","","","","html-button-response","215","2.0.0","980228","6720f4ced2a11d4e702566fa","2","37","11762","","","","","","","","","<img src= ""rock_img/I_Basalt_11.jpg"" style=""width:8cm; height:5.359999999999999cm;""><p>What type of rock is this?</p>","6","class_response","1","test","6","Peridotite","Basalt","11","false","7","2","",""
"","","","","","","","","","","","html-keyboard-response","216","2.0.0","980729","6720f4ced2a11d4e702566fa","2","37","null","","","","","","","","","<p style='font-size: 30px;'><strong>Okay</strong></p>","null","neutral_feedback","1","test","6","","","","","","","",""
"","","","","","","","","","","","html-button-response","217","2.0.0","986981","6720f4ced2a11d4e702566fa","2","37","6250","","","","","","","","","<img src= ""rock_img/I_Basalt_09.jpg"" style=""width:8cm; height:6.2cm;""><p>What type of rock is this?</p>","0","class_response","1","test","7","Andesite","Basalt","09","false","1","2","",""
"","","","","","","","","","","","html-keyboard-response","218","2.0.0","987483","6720f4ced2a11d4e702566fa","2","37","null","","","","","","","","","<p style='font-size: 30px;'><strong>Okay</strong></p>","null","neutral_feedback","1","test","7","","","","","","","",""
"","","","","","","","","","","","html-button-response","219","2.0.0","989237","6720f4ced2a11d4e702566fa","2","37","1752","","","","","","","","","<img src= ""rock_img/I_Peridotite_07.jpg"" style=""width:8cm; height:4.83cm;""><p>What type of rock is this?</p>","7","class_response","1","test","8","Pumice","Peridotite","07","false","8","7","",""
"","","","","","","","","","","","html-keyboard-response","220","2.0.0","989739","6720f4ced2a11d4e702566fa","2","37","null","","","","","","","","","<p style='font-size: 30px;'><strong>Okay</strong></p>","null","neutral_feedback","1","test","8","","","","","","","",""
"","","","","","","","","","","","html-button-response","221","2.0.0","999969","6720f4ced2a11d4e702566fa","2","37","10228","","","","","","","","","<img src= ""rock_img/I_Andesite_16.jpg"" style=""width:8cm; height:6.010000000000001cm;""><p>What type of rock is this?</p>","0","class_response","1","test","9","Andesite","Andesite","16","true","1","1","",""
"","","","","","","","","","","","html-keyboard-response","222","2.0.0","1000471","6720f4ced2a11d4e702566fa","2","37","null","","","","","","","","","<p style='font-size: 30px;'><strong>Okay</strong></p>","null","neutral_feedback","1","test","9","","","","","","","",""
"","","","","","","","","","","","html-button-response","223","2.0.0","1008957","6720f4ced2a11d4e702566fa","2","37","8484","","","","","","","","","<img src= ""rock_img/I_Obsidian_04.jpg"" style=""width:8cm; height:6.930000000000001cm;""><p>What type of rock is this?</p>","4","class_response","1","test","10","Obsidian","Obsidian","04","true","5","5","",""
"","","","","","","","","","","","html-keyboard-response","224","2.0.0","1009458","6720f4ced2a11d4e702566fa","2","37","null","","","","","","","","","<p style='font-size: 30px;'><strong>Okay</strong></p>","null","neutral_feedback","1","test","10","","","","","","","",""
"","","","","","","","","","","","html-button-response","225","2.0.0","1018348","6720f4ced2a11d4e702566fa","2","37","8888","","","","","","","","","<img src= ""rock_img/I_Pegmatite_08.jpg"" style=""width:8cm; height:7.68cm;""><p>What type of rock is this?</p>","5","class_response","1","test","11","Pegmatite","Pegmatite","08","true","6","6","",""
"","","","","","","","","","","","html-keyboard-response","226","2.0.0","1018850","6720f4ced2a11d4e702566fa","2","37","null","","","","","","","","","<p style='font-size: 30px;'><strong>Okay</strong></p>","null","neutral_feedback","1","test","11","","","","","","","",""
"","","","","","","","","","","","html-button-response","227","2.0.0","1033948","6720f4ced2a11d4e702566fa","2","37","15097","","","","","","","","","<img src= ""rock_img/I_Basalt_14.jpg"" style=""width:8cm; height:5.82cm;""><p>What type of rock is this?</p>","3","class_response","1","test","12","Gabbro","Basalt","14","false","4","2","",""
"","","","","","","","","","","","html-keyboard-response","228","2.0.0","1034450","6720f4ced2a11d4e702566fa","2","37","null","","","","","","","","","<p style='font-size: 30px;'><strong>Okay</strong></p>","null","neutral_feedback","1","test","12","","","","","","","",""
"","","","","","","","","","","","html-button-response","229","2.0.0","1037203","6720f4ced2a11d4e702566fa","2","37","2751","","","","","","","","","<img src= ""rock_img/I_Gabbro_05.jpg"" style=""width:8cm; height:6cm;""><p>What type of rock is this?</p>","3","class_response","1","test","13","Gabbro","Gabbro","05","true","4","4","",""
"","","","","","","","","","","","html-keyboard-response","230","2.0.0","1037705","6720f4ced2a11d4e702566fa","2","37","null","","","","","","","","","<p style='font-size: 30px;'><strong>Okay</strong></p>","null","neutral_feedback","1","test","13","","","","","","","",""
"","","","","","","","","","","","html-button-response","231","2.0.0","1049614","6720f4ced2a11d4e702566fa","2","37","11906","","","","","","","","","<img src= ""rock_img/I_Diorite_15.jpg"" style=""width:8cm; height:5.54cm;""><p>What type of rock is this?</p>","0","class_response","1","test","14","Andesite","Diorite","15","false","1","3","",""
"","","","","","","","","","","","html-keyboard-response","232","2.0.0","1050116","6720f4ced2a11d4e702566fa","2","37","null","","","","","","","","","<p style='font-size: 30px;'><strong>Okay</strong></p>","null","neutral_feedback","1","test","14","","","","","","","",""
"","","","","","","","","","","","html-button-response","233","2.0.0","1062055","6720f4ced2a11d4e702566fa","2","37","11937","","","","","","","","","<img src= ""rock_img/I_Pegmatite_07.jpg"" style=""width:8cm; height:6.7cm;""><p>What type of rock is this?</p>","5","class_response","1","test","15","Pegmatite","Pegmatite","07","true","6","6","",""
"","","","","","","","","","","","html-keyboard-response","234","2.0.0","1062557","6720f4ced2a11d4e702566fa","2","37","null","","","","","","","","","<p style='font-size: 30px;'><strong>Okay</strong></p>","null","neutral_feedback","1","test","15","","","","","","","",""
"","","","","","","","","","","","html-button-response","235","2.0.0","1066525","6720f4ced2a11d4e702566fa","2","37","3966","","","","","","","","","<img src= ""rock_img/I_Andesite_03.jpg"" style=""width:8cm; height:5.73cm;""><p>What type of rock is this?</p>","3","class_response","1","test","16","Gabbro","Andesite","03","false","4","1","",""
"","","","","","","","","","","","html-keyboard-response","236","2.0.0","1067026","6720f4ced2a11d4e702566fa","2","37","null","","","","","","","","","<p style='font-size: 30px;'><strong>Okay</strong></p>","null","neutral_feedback","1","test","16","","","","","","","",""
"","","","","","","","","","","","html-button-response","237","2.0.0","1068547","6720f4ced2a11d4e702566fa","2","37","1519","","","","","","","","","<img src= ""rock_img/I_Pumice_04.jpg"" style=""width:8cm; height:6.819999999999999cm;""><p>What type of rock is this?</p>","7","class_response","1","test","17","Pumice","Pumice","04","true","8","8","",""
"","","","","","","","","","","","html-keyboard-response","238","2.0.0","1069049","6720f4ced2a11d4e702566fa","2","37","null","","","","","","","","","<p style='font-size: 30px;'><strong>Okay</strong></p>","null","neutral_feedback","1","test","17","","","","","","","",""
"","","","","","","","","","","","html-button-response","239","2.0.0","1081123","6720f4ced2a11d4e702566fa","2","37","12072","","","","","","","","","<img src= ""rock_img/I_Gabbro_12.jpg"" style=""width:8cm; height:7.800000000000001cm;""><p>What type of rock is this?</p>","0","class_response","1","test","18","Andesite","Gabbro","12","false","1","4","",""
"","","","","","","","","","","","html-keyboard-response","240","2.0.0","1081625","6720f4ced2a11d4e702566fa","2","37","null","","","","","","","","","<p style='font-size: 30px;'><strong>Okay</strong></p>","null","neutral_feedback","1","test","18","","","","","","","",""
"","","","","","","","","","","","html-button-response","241","2.0.0","1090946","6720f4ced2a11d4e702566fa","2","37","9319","","","","","","","","","<img src= ""rock_img/I_Diorite_06.jpg"" style=""width:8cm; height:6.03cm;""><p>What type of rock is this?</p>","2","class_response","1","test","19","Diorite","Diorite","06","true","3","3","",""
"","","","","","","","","","","","html-keyboard-response","242","2.0.0","1091448","6720f4ced2a11d4e702566fa","2","37","null","","","","","","","","","<p style='font-size: 30px;'><strong>Okay</strong></p>","null","neutral_feedback","1","test","19","","","","","","","",""
"","","","","","","","","","","","html-button-response","243","2.0.0","1107646","6720f4ced2a11d4e702566fa","2","37","16196","","","","","","","","","<img src= ""rock_img/I_Obsidian_14.jpg"" style=""width:8cm; height:7.64cm;""><p>What type of rock is this?</p>","4","class_response","1","test","20","Obsidian","Obsidian","14","true","5","5","",""
"","","","","","","","","","","","html-keyboard-response","244","2.0.0","1108148","6720f4ced2a11d4e702566fa","2","37","null","","","","","","","","","<p style='font-size: 30px;'><strong>Okay</strong></p>","null","neutral_feedback","1","test","20","","","","","","","",""
"","","","","","","","","","","","html-button-response","245","2.0.0","1113019","6720f4ced2a11d4e702566fa","2","37","4868","","","","","","","","","<img src= ""rock_img/I_Obsidian_10.jpg"" style=""width:8cm; height:6.260000000000001cm;""><p>What type of rock is this?</p>","6","class_response","1","test","21","Peridotite","Obsidian","10","false","7","5","",""
"","","","","","","","","","","","html-keyboard-response","246","2.0.0","1113521","6720f4ced2a11d4e702566fa","2","37","null","","","","","","","","","<p style='font-size: 30px;'><strong>Okay</strong></p>","null","neutral_feedback","1","test","21","","","","","","","",""
"","","","","","","","","","","","html-button-response","247","2.0.0","1144816","6720f4ced2a11d4e702566fa","2","37","31294","","","","","","","","","<img src= ""rock_img/I_Diorite_12.jpg"" style=""width:8cm; height:4.88cm;""><p>What type of rock is this?</p>","1","class_response","1","test","22","Basalt","Diorite","12","false","2","3","",""
"","","","","","","","","","","","html-keyboard-response","248","2.0.0","1145319","6720f4ced2a11d4e702566fa","2","37","null","","","","","","","","","<p style='font-size: 30px;'><strong>Okay</strong></p>","null","neutral_feedback","1","test","22","","","","","","","",""
"","","","","","","","","","","","html-button-response","249","2.0.0","1146813","6720f4ced2a11d4e702566fa","2","37","1493","","","","","","","","","<img src= ""rock_img/I_Obsidian_16.jpg"" style=""width:8cm; height:9.3cm;""><p>What type of rock is this?</p>","4","class_response","1","test","23","Obsidian","Obsidian","16","true","5","5","",""
"","","","","","","","","","","","html-keyboard-response","250","2.0.0","1147314","6720f4ced2a11d4e702566fa","2","37","null","","","","","","","","","<p style='font-size: 30px;'><strong>Okay</strong></p>","null","neutral_feedback","1","test","23","","","","","","","",""
"","","","","","","","","","","","html-button-response","251","2.0.0","1151590","6720f4ced2a11d4e702566fa","2","37","4274","","","","","","","","","<img src= ""rock_img/I_Pumice_05.jpg"" style=""width:8cm; height:7.25cm;""><p>What type of rock is this?</p>","7","class_response","1","test","24","Pumice","Pumice","05","true","8","8","",""
"","","","","","","","","","","","html-keyboard-response","252","2.0.0","1152092","6720f4ced2a11d4e702566fa","2","37","null","","","","","","","","","<p style='font-size: 30px;'><strong>Okay</strong></p>","null","neutral_feedback","1","test","24","","","","","","","",""
"","","","","","","","","","","","html-button-response","253","2.0.0","1160201","6720f4ced2a11d4e702566fa","2","37","8107","","","","","","","","","<img src= ""rock_img/I_Pumice_15.jpg"" style=""width:8cm; height:7.86cm;""><p>What type of rock is this?</p>","7","class_response","1","test","25","Pumice","Pumice","15","true","8","8","",""
"","","","","","","","","","","","html-keyboard-response","254","2.0.0","1160702","6720f4ced2a11d4e702566fa","2","37","null","","","","","","","","","<p style='font-size: 30px;'><strong>Okay</strong></p>","null","neutral_feedback","1","test","25","","","","","","","",""
"","","","","","","","","","","","html-button-response","255","2.0.0","1169332","6720f4ced2a11d4e702566fa","2","37","8627","","","","","","","","","<img src= ""rock_img/I_Pegmatite_03.jpg"" style=""width:8cm; height:5.239999999999999cm;""><p>What type of rock is this?</p>","5","class_response","1","test","26","Pegmatite","Pegmatite","03","true","6","6","",""
"","","","","","","","","","","","html-keyboard-response","256","2.0.0","1169833","6720f4ced2a11d4e702566fa","2","37","null","","","","","","","","","<p style='font-size: 30px;'><strong>Okay</strong></p>","null","neutral_feedback","1","test","26","","","","","","","",""
"","","","","","","","","","","","html-button-response","257","2.0.0","1176420","6720f4ced2a11d4e702566fa","2","37","6584","","","","","","","","","<img src= ""rock_img/I_Gabbro_15.jpg"" style=""width:8cm; height:6.29cm;""><p>What type of rock is this?</p>","3","class_response","1","test","27","Gabbro","Gabbro","15","true","4","4","",""
"","","","","","","","","","","","html-keyboard-response","258","2.0.0","1176922","6720f4ced2a11d4e702566fa","2","37","null","","","","","","","","","<p style='font-size: 30px;'><strong>Okay</strong></p>","null","neutral_feedback","1","test","27","","","","","","","",""
"","","","","","","","","","","","html-button-response","259","2.0.0","1182499","6720f4ced2a11d4e702566fa","2","37","5575","","","","","","","","","<img src= ""rock_img/I_Diorite_13.jpg"" style=""width:8cm; height:6.29cm;""><p>What type of rock is this?</p>","0","class_response","1","test","28","Andesite","Diorite","13","false","1","3","",""
"","","","","","","","","","","","html-keyboard-response","260","2.0.0","1183001","6720f4ced2a11d4e702566fa","2","37","null","","","","","","","","","<p style='font-size: 30px;'><strong>Okay</strong></p>","null","neutral_feedback","1","test","28","","","","","","","",""
"","","","","","","","","","","","html-button-response","261","2.0.0","1189226","6720f4ced2a11d4e702566fa","2","37","6223","","","","","","","","","<img src= ""rock_img/I_Gabbro_10.jpg"" style=""width:8cm; height:5.680000000000001cm;""><p>What type of rock is this?</p>","3","class_response","1","test","29","Gabbro","Gabbro","10","true","4","4","",""
"","","","","","","","","","","","html-keyboard-response","262","2.0.0","1189728","6720f4ced2a11d4e702566fa","2","37","null","","","","","","","","","<p style='font-size: 30px;'><strong>Okay</strong></p>","null","neutral_feedback","1","test","29","","","","","","","",""
"","","","","","","","","","","","html-button-response","263","2.0.0","1191320","6720f4ced2a11d4e702566fa","2","37","1590","","","","","","","","","<img src= ""rock_img/I_Basalt_12.jpg"" style=""width:8cm; height:6.010000000000001cm;""><p>What type of rock is this?</p>","7","class_response","1","test","30","Pumice","Basalt","12","false","8","2","",""
"","","","","","","","","","","","html-keyboard-response","264","2.0.0","1191822","6720f4ced2a11d4e702566fa","2","37","null","","","","","","","","","<p style='font-size: 30px;'><strong>Okay</strong></p>","null","neutral_feedback","1","test","30","","","","","","","",""
"","","","","","","","","","","","html-button-response","265","2.0.0","1210838","6720f4ced2a11d4e702566fa","2","37","19014","","","","","","","","","<img src= ""rock_img/I_Basalt_08.jpg"" style=""width:8cm; height:10.44cm;""><p>What type of rock is this?</p>","0","class_response","1","test","31","Andesite","Basalt","08","false","1","2","",""
"","","","","","","","","","","","html-keyboard-response","266","2.0.0","1211340","6720f4ced2a11d4e702566fa","2","37","null","","","","","","","","","<p style='font-size: 30px;'><strong>Okay</strong></p>","null","neutral_feedback","1","test","31","","","","","","","",""
"","","","","","","","","","","","html-button-response","267","2.0.0","1213045","6720f4ced2a11d4e702566fa","2","37","1703","","","","","","","","","<img src= ""rock_img/I_Pumice_10.jpg"" style=""width:8cm; height:7.609999999999999cm;""><p>What type of rock is this?</p>","7","class_response","1","test","32","Pumice","Pumice","10","true","8","8","",""
"","","","","","","","","","","","html-keyboard-response","268","2.0.0","1213547","6720f4ced2a11d4e702566fa","2","37","null","","","","","","","","","<p style='font-size: 30px;'><strong>Okay</strong></p>","null","neutral_feedback","1","test","32","","","","","","","",""
"","","","","","","","","","","","html-button-response","269","2.0.0","1230306","6720f4ced2a11d4e702566fa","2","37","16757","","","","","","","","","<img src= ""rock_img/I_Pegmatite_16.jpg"" style=""width:8cm; height:5.8cm;""><p>What type of rock is this?</p>","2","class_response","1","test","33","Diorite","Pegmatite","16","false","3","6","",""
"","","","","","","","","","","","html-keyboard-response","270","2.0.0","1230808","6720f4ced2a11d4e702566fa","2","37","null","","","","","","","","","<p style='font-size: 30px;'><strong>Okay</strong></p>","null","neutral_feedback","1","test","33","","","","","","","",""
"","","","","","","","","","","","html-button-response","271","2.0.0","1242565","6720f4ced2a11d4e702566fa","2","37","11756","","","","","","","","","<img src= ""rock_img/I_Gabbro_16.jpg"" style=""width:8cm; height:6.44cm;""><p>What type of rock is this?</p>","6","class_response","1","test","34","Peridotite","Gabbro","16","false","7","4","",""
"","","","","","","","","","","","html-keyboard-response","272","2.0.0","1243067","6720f4ced2a11d4e702566fa","2","37","null","","","","","","","","","<p style='font-size: 30px;'><strong>Okay</strong></p>","null","neutral_feedback","1","test","34","","","","","","","",""
"","","","","","","","","","","","html-button-response","273","2.0.0","1249657","6720f4ced2a11d4e702566fa","2","37","6588","","","","","","","","","<img src= ""rock_img/I_Diorite_16.jpg"" style=""width:8cm; height:6.74cm;""><p>What type of rock is this?</p>","2","class_response","1","test","35","Diorite","Diorite","16","true","3","3","",""
"","","","","","","","","","","","html-keyboard-response","274","2.0.0","1250158","6720f4ced2a11d4e702566fa","2","37","null","","","","","","","","","<p style='font-size: 30px;'><strong>Okay</strong></p>","null","neutral_feedback","1","test","35","","","","","","","",""
"","","","","","","","","","","","html-button-response","275","2.0.0","1254021","6720f4ced2a11d4e702566fa","2","37","3861","","","","","","","","","<img src= ""rock_img/I_Basalt_06.jpg"" style=""width:8cm; height:7.06cm;""><p>What type of rock is this?</p>","3","class_response","1","test","36","Gabbro","Basalt","06","false","4","2","",""
"","","","","","","","","","","","html-keyboard-response","276","2.0.0","1254523","6720f4ced2a11d4e702566fa","2","37","null","","","","","","","","","<p style='font-size: 30px;'><strong>Okay</strong></p>","null","neutral_feedback","1","test","36","","","","","","","",""
"","","","","","","","","","","","html-button-response","277","2.0.0","1257047","6720f4ced2a11d4e702566fa","2","37","2522","","","","","","","","","<img src= ""rock_img/I_Peridotite_08.jpg"" style=""width:8cm; height:6.7cm;""><p>What type of rock is this?</p>","7","class_response","1","test","37","Pumice","Peridotite","08","false","8","7","",""
"","","","","","","","","","","","html-keyboard-response","278","2.0.0","1257549","6720f4ced2a11d4e702566fa","2","37","null","","","","","","","","","<p style='font-size: 30px;'><strong>Okay</strong></p>","null","neutral_feedback","1","test","37","","","","","","","",""
"","","","","","","","","","","","html-button-response","279","2.0.0","1270931","6720f4ced2a11d4e702566fa","2","37","13379","","","","","","","","","<img src= ""rock_img/I_Pegmatite_13.jpg"" style=""width:8cm; height:4.95cm;""><p>What type of rock is this?</p>","5","class_response","1","test","38","Pegmatite","Pegmatite","13","true","6","6","",""
"","","","","","","","","","","","html-keyboard-response","280","2.0.0","1271433","6720f4ced2a11d4e702566fa","2","37","null","","","","","","","","","<p style='font-size: 30px;'><strong>Okay</strong></p>","null","neutral_feedback","1","test","38","","","","","","","",""
"","","","","","","","","","","","html-button-response","281","2.0.0","1281842","6720f4ced2a11d4e702566fa","2","37","10407","","","","","","","","","<img src= ""rock_img/I_Peridotite_04.jpg"" style=""width:8cm; height:6.680000000000001cm;""><p>What type of rock is this?</p>","6","class_response","1","test","39","Peridotite","Peridotite","04","true","7","7","",""
"","","","","","","","","","","","html-keyboard-response","282","2.0.0","1282344","6720f4ced2a11d4e702566fa","2","37","null","","","","","","","","","<p style='font-size: 30px;'><strong>Okay</strong></p>","null","neutral_feedback","1","test","39","","","","","","","",""
"","","","","","","","","","","","html-button-response","283","2.0.0","1287441","6720f4ced2a11d4e702566fa","2","37","5095","","","","","","","","","<img src= ""rock_img/I_Obsidian_07.jpg"" style=""width:8cm; height:4.76cm;""><p>What type of rock is this?</p>","4","class_response","1","test","40","Obsidian","Obsidian","07","true","5","5","",""
"","","","","","","","","","","","html-keyboard-response","284","2.0.0","1287942","6720f4ced2a11d4e702566fa","2","37","null","","","","","","","","","<p style='font-size: 30px;'><strong>Okay</strong></p>","null","neutral_feedback","1","test","40","","","","","","","",""
"","","","","","","","","","","","html-button-response","285","2.0.0","1291658","6720f4ced2a11d4e702566fa","2","37","3714","","","","","","","","","<img src= ""rock_img/I_Andesite_05.jpg"" style=""width:8cm; height:4.12cm;""><p>What type of rock is this?</p>","3","class_response","1","test","41","Gabbro","Andesite","05","false","4","1","",""
"","","","","","","","","","","","html-keyboard-response","286","2.0.0","1292160","6720f4ced2a11d4e702566fa","2","37","null","","","","","","","","","<p style='font-size: 30px;'><strong>Okay</strong></p>","null","neutral_feedback","1","test","41","","","","","","","",""
"","","","","","","","","","","","html-button-response","287","2.0.0","1293470","6720f4ced2a11d4e702566fa","2","37","1308","","","","","","","","","<img src= ""rock_img/I_Obsidian_12.jpg"" style=""width:8cm; height:6.53cm;""><p>What type of rock is this?</p>","4","class_response","1","test","42","Obsidian","Obsidian","12","true","5","5","",""
"","","","","","","","","","","","html-keyboard-response","288","2.0.0","1293972","6720f4ced2a11d4e702566fa","2","37","null","","","","","","","","","<p style='font-size: 30px;'><strong>Okay</strong></p>","null","neutral_feedback","1","test","42","","","","","","","",""
"","","","","","","","","","","","html-button-response","289","2.0.0","1303406","6720f4ced2a11d4e702566fa","2","37","9432","","","","","","","","","<img src= ""rock_img/I_Peridotite_13.jpg"" style=""width:8cm; height:7.58cm;""><p>What type of rock is this?</p>","5","class_response","1","test","43","Pegmatite","Peridotite","13","false","6","7","",""
"","","","","","","","","","","","html-keyboard-response","290","2.0.0","1303908","6720f4ced2a11d4e702566fa","2","37","null","","","","","","","","","<p style='font-size: 30px;'><strong>Okay</strong></p>","null","neutral_feedback","1","test","43","","","","","","","",""
"","","","","","","","","","","","html-button-response","291","2.0.0","1310195","6720f4ced2a11d4e702566fa","2","37","6284","","","","","","","","","<img src= ""rock_img/I_Peridotite_06.jpg"" style=""width:8cm; height:7.53cm;""><p>What type of rock is this?</p>","6","class_response","1","test","44","Peridotite","Peridotite","06","true","7","7","",""
"","","","","","","","","","","","html-keyboard-response","292","2.0.0","1310696","6720f4ced2a11d4e702566fa","2","37","null","","","","","","","","","<p style='font-size: 30px;'><strong>Okay</strong></p>","null","neutral_feedback","1","test","44","","","","","","","",""
"","","","","","","","","","","","html-button-response","293","2.0.0","1317760","6720f4ced2a11d4e702566fa","2","37","7061","","","","","","","","","<img src= ""rock_img/I_Andesite_06.jpg"" style=""width:8cm; height:6.840000000000001cm;""><p>What type of rock is this?</p>","3","class_response","1","test","45","Gabbro","Andesite","06","false","4","1","",""
"","","","","","","","","","","","html-keyboard-response","294","2.0.0","1318262","6720f4ced2a11d4e702566fa","2","37","null","","","","","","","","","<p style='font-size: 30px;'><strong>Okay</strong></p>","null","neutral_feedback","1","test","45","","","","","","","",""
"","","","","","","","","","","","html-button-response","295","2.0.0","1319924","6720f4ced2a11d4e702566fa","2","37","1659","","","","","","","","","<img src= ""rock_img/I_Pumice_16.jpg"" style=""width:8cm; height:6.79cm;""><p>What type of rock is this?</p>","7","class_response","1","test","46","Pumice","Pumice","16","true","8","8","",""
"","","","","","","","","","","","html-keyboard-response","296","2.0.0","1320426","6720f4ced2a11d4e702566fa","2","37","null","","","","","","","","","<p style='font-size: 30px;'><strong>Okay</strong></p>","null","neutral_feedback","1","test","46","","","","","","","",""
"","","","","","","","","","","","html-button-response","297","2.0.0","1322358","6720f4ced2a11d4e702566fa","2","37","1930","","","","","","","","","<img src= ""rock_img/I_Andesite_10.jpg"" style=""width:8cm; height:4.16cm;""><p>What type of rock is this?</p>","3","class_response","1","test","47","Gabbro","Andesite","10","false","4","1","",""
"","","","","","","","","","","","html-keyboard-response","298","2.0.0","1322860","6720f4ced2a11d4e702566fa","2","37","null","","","","","","","","","<p style='font-size: 30px;'><strong>Okay</strong></p>","null","neutral_feedback","1","test","47","","","","","","","",""
"","","","","","","","","","","","html-button-response","299","2.0.0","1325675","6720f4ced2a11d4e702566fa","2","37","2813","","","","","","","","","<img src= ""rock_img/I_Diorite_10.jpg"" style=""width:8cm; height:5.949999999999999cm;""><p>What type of rock is this?</p>","3","class_response","1","test","48","Gabbro","Diorite","10","false","4","3","",""
"","","","","","","","","","","","html-keyboard-response","300","2.0.0","1326176","6720f4ced2a11d4e702566fa","2","37","null","","","","","","","","","<p style='font-size: 30px;'><strong>Okay</strong></p>","null","neutral_feedback","1","test","48","","","","","","","",""
"","","","","","","","","","","","html-button-response","301","2.0.0","1385276","6720f4ced2a11d4e702566fa","2","37","","","","","","","","","","","","cycle_feedback","","","","","","","","","","17371.200000001118","41720.199999999255"
"","","","","","","","","","","","html-button-response","303","2.0.0","1390172","6720f4ced2a11d4e702566fa","2","37","4893","","","","","","","","","","0","start_train","","","","","","","","","","",""
"","","","","","","","","","","","html-button-response","304","2.0.0","1394598","6720f4ced2a11d4e702566fa","2","37","4424","","","","","","","","","<img src= ""rock_img/I_Peridotite_10.jpg"" style=""width:8cm; height:5.390000000000001cm;""><p>What type of rock is this?</p>","3","class_response","2","train","1","Gabbro","Peridotite","10","false","4","7","",""
