"width","height","webaudio","browser","browser_version","mobile","os","fullscreen","vsync_rate","webcam","microphone","trial_type","trial_index","plugin_version","time_elapsed","subjID","condition","stimID","rt","url","success","value","timeout","failed_images","failed_audio","failed_video","view_history","stimulus","response","trialType","cycle","phase","trial","resp","cat","token","corr","resp_num","cat_num","time_fb1","time_fb2"
"1528","738","true","edge-chromium","130.0.0","false","Windows 10","true","60.58","true","true","browser-check","0","2.0.0","1007","66d5356d68b8671e3c24ecf9","2","6","","","","","","","","","","","","","","","","","","","","","","",""
"","","","","","","","","","","","external-html","1","2.0.0","8086","66d5356d68b8671e3c24ecf9","2","6","7016","consent_form.html","","","","","","","","","","","","","","","","","","","","",""
"","","","","","","","","","","","fullscreen","2","2.0.0","11534","66d5356d68b8671e3c24ecf9","2","6","2440","","true","","","","","","","","","","","","","","","","","","","",""
"","","","","","","","","","","","call-function","3","2.0.0","11536","66d5356d68b8671e3c24ecf9","2","6","","","","{}","","","","","","","","","","","","","","","","","","",""
"","","","","","","","","","","","preload","4","2.0.0","12936","66d5356d68b8671e3c24ecf9","2","6","","","true","","false","[]","[]","[]","","","","","","","","","","","","","","",""
"","","","","","","","","","","","instructions","5","2.0.0","61683","66d5356d68b8671e3c24ecf9","2","6","48746","","","","","","","","[{""page_index"":0,""viewing_time"":10378},{""page_index"":1,""viewing_time"":23408},{""page_index"":2,""viewing_time"":14960}]","","","","","","","","","","","","","",""
"","","","","","","","","","","","html-button-response","6","2.0.0","63830","66d5356d68b8671e3c24ecf9","2","6","2145","","","","","","","","","","0","start_test","","","","","","","","","","",""
"","","","","","","","","","","","html-button-response","7","2.0.0","71628","66d5356d68b8671e3c24ecf9","2","6","7796","","","","","","","","","<img src= ""rock_img/I_Peridotite_14.jpg"" style=""width:8cm; height:5.3cm;""><p>What type of rock is this?</p>","6","class_response","0","test","1","Peridotite","Peridotite","14","true","7","7","",""
"","","","","","","","","","","","html-keyboard-response","8","2.0.0","72135","66d5356d68b8671e3c24ecf9","2","6","null","","","","","","","","","<p style='font-size: 30px;'><strong>Okay</strong></p>","null","neutral_feedback","0","test","1","","","","","","","",""
"","","","","","","","","","","","html-button-response","9","2.0.0","76469","66d5356d68b8671e3c24ecf9","2","6","4331","","","","","","","","","<img src= ""rock_img/I_Obsidian_08.jpg"" style=""width:8cm; height:7.39cm;""><p>What type of rock is this?</p>","4","class_response","0","test","2","Obsidian","Obsidian","08","true","5","5","",""
"","","","","","","","","","","","html-keyboard-response","10","2.0.0","76974","66d5356d68b8671e3c24ecf9","2","6","null","","","","","","","","","<p style='font-size: 30px;'><strong>Okay</strong></p>","null","neutral_feedback","0","test","2","","","","","","","",""
"","","","","","","","","","","","html-button-response","11","2.0.0","81906","66d5356d68b8671e3c24ecf9","2","6","4929","","","","","","","","","<img src= ""rock_img/I_Basalt_12.jpg"" style=""width:8cm; height:6.010000000000001cm;""><p>What type of rock is this?</p>","1","class_response","0","test","3","Basalt","Basalt","12","true","2","2","",""
"","","","","","","","","","","","html-keyboard-response","12","2.0.0","82415","66d5356d68b8671e3c24ecf9","2","6","null","","","","","","","","","<p style='font-size: 30px;'><strong>Okay</strong></p>","null","neutral_feedback","0","test","3","","","","","","","",""
"","","","","","","","","","","","html-button-response","13","2.0.0","90521","66d5356d68b8671e3c24ecf9","2","6","8103","","","","","","","","","<img src= ""rock_img/I_Gabbro_13.jpg"" style=""width:8cm; height:5.08cm;""><p>What type of rock is this?</p>","2","class_response","0","test","4","Diorite","Gabbro","13","false","3","4","",""
"","","","","","","","","","","","html-keyboard-response","14","2.0.0","91026","66d5356d68b8671e3c24ecf9","2","6","null","","","","","","","","","<p style='font-size: 30px;'><strong>Okay</strong></p>","null","neutral_feedback","0","test","4","","","","","","","",""
"","","","","","","","","","","","html-button-response","15","2.0.0","96203","66d5356d68b8671e3c24ecf9","2","6","5174","","","","","","","","","<img src= ""rock_img/I_Andesite_11.jpg"" style=""width:8cm; height:4.92cm;""><p>What type of rock is this?</p>","0","class_response","0","test","5","Andesite","Andesite","11","true","1","1","",""
"","","","","","","","","","","","html-keyboard-response","16","2.0.0","96716","66d5356d68b8671e3c24ecf9","2","6","null","","","","","","","","","<p style='font-size: 30px;'><strong>Okay</strong></p>","null","neutral_feedback","0","test","5","","","","","","","",""
"","","","","","","","","","","","html-button-response","17","2.0.0","99284","66d5356d68b8671e3c24ecf9","2","6","2566","","","","","","","","","<img src= ""rock_img/I_Diorite_06.jpg"" style=""width:8cm; height:6.03cm;""><p>What type of rock is this?</p>","7","class_response","0","test","6","Pumice","Diorite","06","false","8","3","",""
"","","","","","","","","","","","html-keyboard-response","18","2.0.0","99789","66d5356d68b8671e3c24ecf9","2","6","null","","","","","","","","","<p style='font-size: 30px;'><strong>Okay</strong></p>","null","neutral_feedback","0","test","6","","","","","","","",""
"","","","","","","","","","","","html-button-response","19","2.0.0","103531","66d5356d68b8671e3c24ecf9","2","6","3739","","","","","","","","","<img src= ""rock_img/I_Pegmatite_07.jpg"" style=""width:8cm; height:6.7cm;""><p>What type of rock is this?</p>","3","class_response","0","test","7","Gabbro","Pegmatite","07","false","4","6","",""
"","","","","","","","","","","","html-keyboard-response","20","2.0.0","104045","66d5356d68b8671e3c24ecf9","2","6","null","","","","","","","","","<p style='font-size: 30px;'><strong>Okay</strong></p>","null","neutral_feedback","0","test","7","","","","","","","",""
"","","","","","","","","","","","html-button-response","21","2.0.0","106606","66d5356d68b8671e3c24ecf9","2","6","2557","","","","","","","","","<img src= ""rock_img/I_Pegmatite_03.jpg"" style=""width:8cm; height:5.239999999999999cm;""><p>What type of rock is this?</p>","5","class_response","0","test","8","Pegmatite","Pegmatite","03","true","6","6","",""
"","","","","","","","","","","","html-keyboard-response","22","2.0.0","107119","66d5356d68b8671e3c24ecf9","2","6","null","","","","","","","","","<p style='font-size: 30px;'><strong>Okay</strong></p>","null","neutral_feedback","0","test","8","","","","","","","",""
"","","","","","","","","","","","html-button-response","23","2.0.0","110421","66d5356d68b8671e3c24ecf9","2","6","3300","","","","","","","","","<img src= ""rock_img/I_Andesite_04.jpg"" style=""width:8cm; height:5.96cm;""><p>What type of rock is this?</p>","0","class_response","0","test","9","Andesite","Andesite","04","true","1","1","",""
"","","","","","","","","","","","html-keyboard-response","24","2.0.0","110926","66d5356d68b8671e3c24ecf9","2","6","null","","","","","","","","","<p style='font-size: 30px;'><strong>Okay</strong></p>","null","neutral_feedback","0","test","9","","","","","","","",""
"","","","","","","","","","","","html-button-response","25","2.0.0","116293","66d5356d68b8671e3c24ecf9","2","6","5364","","","","","","","","","<img src= ""rock_img/I_Pumice_04.jpg"" style=""width:8cm; height:6.819999999999999cm;""><p>What type of rock is this?</p>","2","class_response","0","test","10","Diorite","Pumice","04","false","3","8","",""
"","","","","","","","","","","","html-keyboard-response","26","2.0.0","116806","66d5356d68b8671e3c24ecf9","2","6","null","","","","","","","","","<p style='font-size: 30px;'><strong>Okay</strong></p>","null","neutral_feedback","0","test","10","","","","","","","",""
"","","","","","","","","","","","html-button-response","27","2.0.0","119468","66d5356d68b8671e3c24ecf9","2","6","2659","","","","","","","","","<img src= ""rock_img/I_Peridotite_04.jpg"" style=""width:8cm; height:6.680000000000001cm;""><p>What type of rock is this?</p>","6","class_response","0","test","11","Peridotite","Peridotite","04","true","7","7","",""
"","","","","","","","","","","","html-keyboard-response","28","2.0.0","119981","66d5356d68b8671e3c24ecf9","2","6","null","","","","","","","","","<p style='font-size: 30px;'><strong>Okay</strong></p>","null","neutral_feedback","0","test","11","","","","","","","",""
"","","","","","","","","","","","html-button-response","29","2.0.0","122292","66d5356d68b8671e3c24ecf9","2","6","2308","","","","","","","","","<img src= ""rock_img/I_Diorite_13.jpg"" style=""width:8cm; height:6.29cm;""><p>What type of rock is this?</p>","7","class_response","0","test","12","Pumice","Diorite","13","false","8","3","",""
"","","","","","","","","","","","html-keyboard-response","30","2.0.0","122798","66d5356d68b8671e3c24ecf9","2","6","null","","","","","","","","","<p style='font-size: 30px;'><strong>Okay</strong></p>","null","neutral_feedback","0","test","12","","","","","","","",""
"","","","","","","","","","","","html-button-response","31","2.0.0","126764","66d5356d68b8671e3c24ecf9","2","6","3964","","","","","","","","","<img src= ""rock_img/I_Gabbro_10.jpg"" style=""width:8cm; height:5.680000000000001cm;""><p>What type of rock is this?</p>","4","class_response","0","test","13","Obsidian","Gabbro","10","false","5","4","",""
"","","","","","","","","","","","html-keyboard-response","32","2.0.0","127279","66d5356d68b8671e3c24ecf9","2","6","null","","","","","","","","","<p style='font-size: 30px;'><strong>Okay</strong></p>","null","neutral_feedback","0","test","13","","","","","","","",""
"","","","","","","","","","","","html-button-response","33","2.0.0","131421","66d5356d68b8671e3c24ecf9","2","6","4140","","","","","","","","","<img src= ""rock_img/I_Obsidian_11.jpg"" style=""width:8cm; height:6.05cm;""><p>What type of rock is this?</p>","4","class_response","0","test","14","Obsidian","Obsidian","11","true","5","5","",""
"","","","","","","","","","","","html-keyboard-response","34","2.0.0","131928","66d5356d68b8671e3c24ecf9","2","6","null","","","","","","","","","<p style='font-size: 30px;'><strong>Okay</strong></p>","null","neutral_feedback","0","test","14","","","","","","","",""
"","","","","","","","","","","","html-button-response","35","2.0.0","134619","66d5356d68b8671e3c24ecf9","2","6","2688","","","","","","","","","<img src= ""rock_img/I_Basalt_02.jpg"" style=""width:8cm; height:6.45cm;""><p>What type of rock is this?</p>","1","class_response","0","test","15","Basalt","Basalt","02","true","2","2","",""
"","","","","","","","","","","","html-keyboard-response","36","2.0.0","135126","66d5356d68b8671e3c24ecf9","2","6","null","","","","","","","","","<p style='font-size: 30px;'><strong>Okay</strong></p>","null","neutral_feedback","0","test","15","","","","","","","",""
"","","","","","","","","","","","html-button-response","37","2.0.0","137378","66d5356d68b8671e3c24ecf9","2","6","2250","","","","","","","","","<img src= ""rock_img/I_Andesite_14.jpg"" style=""width:8cm; height:5.449999999999999cm;""><p>What type of rock is this?</p>","5","class_response","0","test","16","Pegmatite","Andesite","14","false","6","1","",""
"","","","","","","","","","","","html-keyboard-response","38","2.0.0","137880","66d5356d68b8671e3c24ecf9","2","6","null","","","","","","","","","<p style='font-size: 30px;'><strong>Okay</strong></p>","null","neutral_feedback","0","test","16","","","","","","","",""
"","","","","","","","","","","","html-button-response","39","2.0.0","139884","66d5356d68b8671e3c24ecf9","2","6","2001","","","","","","","","","<img src= ""rock_img/I_Diorite_15.jpg"" style=""width:8cm; height:5.54cm;""><p>What type of rock is this?</p>","7","class_response","0","test","17","Pumice","Diorite","15","false","8","3","",""
"","","","","","","","","","","","html-keyboard-response","40","2.0.0","140397","66d5356d68b8671e3c24ecf9","2","6","null","","","","","","","","","<p style='font-size: 30px;'><strong>Okay</strong></p>","null","neutral_feedback","0","test","17","","","","","","","",""
"","","","","","","","","","","","html-button-response","41","2.0.0","142576","66d5356d68b8671e3c24ecf9","2","6","2176","","","","","","","","","<img src= ""rock_img/I_Gabbro_09.jpg"" style=""width:8cm; height:7.279999999999999cm;""><p>What type of rock is this?</p>","4","class_response","0","test","18","Obsidian","Gabbro","09","false","5","4","",""
"","","","","","","","","","","","html-keyboard-response","42","2.0.0","143079","66d5356d68b8671e3c24ecf9","2","6","null","","","","","","","","","<p style='font-size: 30px;'><strong>Okay</strong></p>","null","neutral_feedback","0","test","18","","","","","","","",""
"","","","","","","","","","","","html-button-response","43","2.0.0","145082","66d5356d68b8671e3c24ecf9","2","6","1999","","","","","","","","","<img src= ""rock_img/I_Pumice_03.jpg"" style=""width:8cm; height:6.64cm;""><p>What type of rock is this?</p>","0","class_response","0","test","19","Andesite","Pumice","03","false","1","8","",""
"","","","","","","","","","","","html-keyboard-response","44","2.0.0","145596","66d5356d68b8671e3c24ecf9","2","6","null","","","","","","","","","<p style='font-size: 30px;'><strong>Okay</strong></p>","null","neutral_feedback","0","test","19","","","","","","","",""
"","","","","","","","","","","","html-button-response","45","2.0.0","148956","66d5356d68b8671e3c24ecf9","2","6","3357","","","","","","","","","<img src= ""rock_img/I_Gabbro_15.jpg"" style=""width:8cm; height:6.29cm;""><p>What type of rock is this?</p>","2","class_response","0","test","20","Diorite","Gabbro","15","false","3","4","",""
"","","","","","","","","","","","html-keyboard-response","46","2.0.0","149461","66d5356d68b8671e3c24ecf9","2","6","null","","","","","","","","","<p style='font-size: 30px;'><strong>Okay</strong></p>","null","neutral_feedback","0","test","20","","","","","","","",""
"","","","","","","","","","","","html-button-response","47","2.0.0","152029","66d5356d68b8671e3c24ecf9","2","6","2566","","","","","","","","","<img src= ""rock_img/I_Diorite_16.jpg"" style=""width:8cm; height:6.74cm;""><p>What type of rock is this?</p>","1","class_response","0","test","21","Basalt","Diorite","16","false","2","3","",""
"","","","","","","","","","","","html-keyboard-response","48","2.0.0","152544","66d5356d68b8671e3c24ecf9","2","6","null","","","","","","","","","<p style='font-size: 30px;'><strong>Okay</strong></p>","null","neutral_feedback","0","test","21","","","","","","","",""
"","","","","","","","","","","","html-button-response","49","2.0.0","154077","66d5356d68b8671e3c24ecf9","2","6","1530","","","","","","","","","<img src= ""rock_img/I_Andesite_16.jpg"" style=""width:8cm; height:6.010000000000001cm;""><p>What type of rock is this?</p>","1","class_response","0","test","22","Basalt","Andesite","16","false","2","1","",""
"","","","","","","","","","","","html-keyboard-response","50","2.0.0","154585","66d5356d68b8671e3c24ecf9","2","6","null","","","","","","","","","<p style='font-size: 30px;'><strong>Okay</strong></p>","null","neutral_feedback","0","test","22","","","","","","","",""
"","","","","","","","","","","","html-button-response","51","2.0.0","156493","66d5356d68b8671e3c24ecf9","2","6","1906","","","","","","","","","<img src= ""rock_img/I_Gabbro_16.jpg"" style=""width:8cm; height:6.44cm;""><p>What type of rock is this?</p>","7","class_response","0","test","23","Pumice","Gabbro","16","false","8","4","",""
"","","","","","","","","","","","html-keyboard-response","52","2.0.0","157003","66d5356d68b8671e3c24ecf9","2","6","null","","","","","","","","","<p style='font-size: 30px;'><strong>Okay</strong></p>","null","neutral_feedback","0","test","23","","","","","","","",""
"","","","","","","","","","","","html-button-response","53","2.0.0","158552","66d5356d68b8671e3c24ecf9","2","6","1547","","","","","","","","","<img src= ""rock_img/I_Andesite_02.jpg"" style=""width:8cm; height:8.5cm;""><p>What type of rock is this?</p>","3","class_response","0","test","24","Gabbro","Andesite","02","false","4","1","",""
"","","","","","","","","","","","html-keyboard-response","54","2.0.0","159069","66d5356d68b8671e3c24ecf9","2","6","null","","","","","","","","","<p style='font-size: 30px;'><strong>Okay</strong></p>","null","neutral_feedback","0","test","24","","","","","","","",""
"","","","","","","","","","","","html-button-response","55","2.0.0","160833","66d5356d68b8671e3c24ecf9","2","6","1762","","","","","","","","","<img src= ""rock_img/I_Diorite_14.jpg"" style=""width:8cm; height:5.71cm;""><p>What type of rock is this?</p>","2","class_response","0","test","25","Diorite","Diorite","14","true","3","3","",""
"","","","","","","","","","","","html-keyboard-response","56","2.0.0","161348","66d5356d68b8671e3c24ecf9","2","6","null","","","","","","","","","<p style='font-size: 30px;'><strong>Okay</strong></p>","null","neutral_feedback","0","test","25","","","","","","","",""
"","","","","","","","","","","","html-button-response","57","2.0.0","165599","66d5356d68b8671e3c24ecf9","2","6","4247","","","","","","","","","<img src= ""rock_img/I_Peridotite_08.jpg"" style=""width:8cm; height:6.7cm;""><p>What type of rock is this?</p>","6","class_response","0","test","26","Peridotite","Peridotite","08","true","7","7","",""
"","","","","","","","","","","","html-keyboard-response","58","2.0.0","166101","66d5356d68b8671e3c24ecf9","2","6","null","","","","","","","","","<p style='font-size: 30px;'><strong>Okay</strong></p>","null","neutral_feedback","0","test","26","","","","","","","",""
"","","","","","","","","","","","html-button-response","59","2.0.0","168056","66d5356d68b8671e3c24ecf9","2","6","1952","","","","","","","","","<img src= ""rock_img/I_Pumice_06.jpg"" style=""width:8cm; height:6.9399999999999995cm;""><p>What type of rock is this?</p>","5","class_response","0","test","27","Pegmatite","Pumice","06","false","6","8","",""
"","","","","","","","","","","","html-keyboard-response","60","2.0.0","168569","66d5356d68b8671e3c24ecf9","2","6","null","","","","","","","","","<p style='font-size: 30px;'><strong>Okay</strong></p>","null","neutral_feedback","0","test","27","","","","","","","",""
"","","","","","","","","","","","html-button-response","61","2.0.0","195771","66d5356d68b8671e3c24ecf9","2","6","27200","","","","","","","","","<img src= ""rock_img/I_Gabbro_03.jpg"" style=""width:8cm; height:8.52cm;""><p>What type of rock is this?</p>","1","class_response","0","test","28","Basalt","Gabbro","03","false","2","4","",""
"","","","","","","","","","","","html-keyboard-response","62","2.0.0","196274","66d5356d68b8671e3c24ecf9","2","6","null","","","","","","","","","<p style='font-size: 30px;'><strong>Okay</strong></p>","null","neutral_feedback","0","test","28","","","","","","","",""
"","","","","","","","","","","","html-button-response","63","2.0.0","198758","66d5356d68b8671e3c24ecf9","2","6","2481","","","","","","","","","<img src= ""rock_img/I_Basalt_05.jpg"" style=""width:8cm; height:8.18cm;""><p>What type of rock is this?</p>","5","class_response","0","test","29","Pegmatite","Basalt","05","false","6","2","",""
"","","","","","","","","","","","html-keyboard-response","64","2.0.0","199266","66d5356d68b8671e3c24ecf9","2","6","null","","","","","","","","","<p style='font-size: 30px;'><strong>Okay</strong></p>","null","neutral_feedback","0","test","29","","","","","","","",""
"","","","","","","","","","","","html-button-response","65","2.0.0","201841","66d5356d68b8671e3c24ecf9","2","6","2574","","","","","","","","","<img src= ""rock_img/I_Pegmatite_05.jpg"" style=""width:8cm; height:7.300000000000001cm;""><p>What type of rock is this?</p>","0","class_response","0","test","30","Andesite","Pegmatite","05","false","1","6","",""
"","","","","","","","","","","","html-keyboard-response","66","2.0.0","202348","66d5356d68b8671e3c24ecf9","2","6","null","","","","","","","","","<p style='font-size: 30px;'><strong>Okay</strong></p>","null","neutral_feedback","0","test","30","","","","","","","",""
"","","","","","","","","","","","html-button-response","67","2.0.0","204508","66d5356d68b8671e3c24ecf9","2","6","2157","","","","","","","","","<img src= ""rock_img/I_Pumice_08.jpg"" style=""width:8cm; height:6.67cm;""><p>What type of rock is this?</p>","2","class_response","0","test","31","Diorite","Pumice","08","false","3","8","",""
"","","","","","","","","","","","html-keyboard-response","68","2.0.0","205014","66d5356d68b8671e3c24ecf9","2","6","null","","","","","","","","","<p style='font-size: 30px;'><strong>Okay</strong></p>","null","neutral_feedback","0","test","31","","","","","","","",""
"","","","","","","","","","","","html-button-response","69","2.0.0","206973","66d5356d68b8671e3c24ecf9","2","6","1957","","","","","","","","","<img src= ""rock_img/I_Basalt_04.jpg"" style=""width:8cm; height:7.53cm;""><p>What type of rock is this?</p>","4","class_response","0","test","32","Obsidian","Basalt","04","false","5","2","",""
"","","","","","","","","","","","html-keyboard-response","70","2.0.0","207480","66d5356d68b8671e3c24ecf9","2","6","null","","","","","","","","","<p style='font-size: 30px;'><strong>Okay</strong></p>","null","neutral_feedback","0","test","32","","","","","","","",""
"","","","","","","","","","","","html-button-response","71","2.0.0","209305","66d5356d68b8671e3c24ecf9","2","6","1824","","","","","","","","","<img src= ""rock_img/I_Obsidian_09.jpg"" style=""width:8cm; height:5cm;""><p>What type of rock is this?</p>","4","class_response","0","test","33","Obsidian","Obsidian","09","true","5","5","",""
"","","","","","","","","","","","html-keyboard-response","72","2.0.0","209817","66d5356d68b8671e3c24ecf9","2","6","null","","","","","","","","","<p style='font-size: 30px;'><strong>Okay</strong></p>","null","neutral_feedback","0","test","33","","","","","","","",""
"","","","","","","","","","","","html-button-response","73","2.0.0","211746","66d5356d68b8671e3c24ecf9","2","6","1926","","","","","","","","","<img src= ""rock_img/I_Pegmatite_12.jpg"" style=""width:8cm; height:5.7cm;""><p>What type of rock is this?</p>","2","class_response","0","test","34","Diorite","Pegmatite","12","false","3","6","",""
"","","","","","","","","","","","html-keyboard-response","74","2.0.0","212253","66d5356d68b8671e3c24ecf9","2","6","null","","","","","","","","","<p style='font-size: 30px;'><strong>Okay</strong></p>","null","neutral_feedback","0","test","34","","","","","","","",""
"","","","","","","","","","","","html-button-response","75","2.0.0","215413","66d5356d68b8671e3c24ecf9","2","6","3158","","","","","","","","","<img src= ""rock_img/I_Obsidian_06.jpg"" style=""width:8cm; height:6.8cm;""><p>What type of rock is this?</p>","7","class_response","0","test","35","Pumice","Obsidian","06","false","8","5","",""
"","","","","","","","","","","","html-keyboard-response","76","2.0.0","215918","66d5356d68b8671e3c24ecf9","2","6","null","","","","","","","","","<p style='font-size: 30px;'><strong>Okay</strong></p>","null","neutral_feedback","0","test","35","","","","","","","",""
"","","","","","","","","","","","html-button-response","77","2.0.0","217628","66d5356d68b8671e3c24ecf9","2","6","1708","","","","","","","","","<img src= ""rock_img/I_Basalt_16.jpg"" style=""width:8cm; height:7.659999999999999cm;""><p>What type of rock is this?</p>","0","class_response","0","test","36","Andesite","Basalt","16","false","1","2","",""
"","","","","","","","","","","","html-keyboard-response","78","2.0.0","218149","66d5356d68b8671e3c24ecf9","2","6","null","","","","","","","","","<p style='font-size: 30px;'><strong>Okay</strong></p>","null","neutral_feedback","0","test","36","","","","","","","",""
"","","","","","","","","","","","html-button-response","79","2.0.0","219719","66d5356d68b8671e3c24ecf9","2","6","1567","","","","","","","","","<img src= ""rock_img/I_Basalt_11.jpg"" style=""width:8cm; height:5.359999999999999cm;""><p>What type of rock is this?</p>","1","class_response","0","test","37","Basalt","Basalt","11","true","2","2","",""
"","","","","","","","","","","","html-keyboard-response","80","2.0.0","220232","66d5356d68b8671e3c24ecf9","2","6","null","","","","","","","","","<p style='font-size: 30px;'><strong>Okay</strong></p>","null","neutral_feedback","0","test","37","","","","","","","",""
"","","","","","","","","","","","html-button-response","81","2.0.0","222042","66d5356d68b8671e3c24ecf9","2","6","1808","","","","","","","","","<img src= ""rock_img/I_Pumice_13.jpg"" style=""width:8cm; height:8.200000000000001cm;""><p>What type of rock is this?</p>","3","class_response","0","test","38","Gabbro","Pumice","13","false","4","8","",""
"","","","","","","","","","","","html-keyboard-response","82","2.0.0","222556","66d5356d68b8671e3c24ecf9","2","6","null","","","","","","","","","<p style='font-size: 30px;'><strong>Okay</strong></p>","null","neutral_feedback","0","test","38","","","","","","","",""
"","","","","","","","","","","","html-button-response","83","2.0.0","224283","66d5356d68b8671e3c24ecf9","2","6","1725","","","","","","","","","<img src= ""rock_img/I_Peridotite_15.jpg"" style=""width:8cm; height:6cm;""><p>What type of rock is this?</p>","6","class_response","0","test","39","Peridotite","Peridotite","15","true","7","7","",""
"","","","","","","","","","","","html-keyboard-response","84","2.0.0","224795","66d5356d68b8671e3c24ecf9","2","6","null","","","","","","","","","<p style='font-size: 30px;'><strong>Okay</strong></p>","null","neutral_feedback","0","test","39","","","","","","","",""
"","","","","","","","","","","","html-button-response","85","2.0.0","226315","66d5356d68b8671e3c24ecf9","2","6","1518","","","","","","","","","<img src= ""rock_img/I_Peridotite_07.jpg"" style=""width:8cm; height:4.83cm;""><p>What type of rock is this?</p>","6","class_response","0","test","40","Peridotite","Peridotite","07","true","7","7","",""
"","","","","","","","","","","","html-keyboard-response","86","2.0.0","226822","66d5356d68b8671e3c24ecf9","2","6","null","","","","","","","","","<p style='font-size: 30px;'><strong>Okay</strong></p>","null","neutral_feedback","0","test","40","","","","","","","",""
"","","","","","","","","","","","html-button-response","87","2.0.0","230380","66d5356d68b8671e3c24ecf9","2","6","3556","","","","","","","","","<img src= ""rock_img/I_Diorite_07.jpg"" style=""width:8cm; height:5.239999999999999cm;""><p>What type of rock is this?</p>","2","class_response","0","test","41","Diorite","Diorite","07","true","3","3","",""
"","","","","","","","","","","","html-keyboard-response","88","2.0.0","230895","66d5356d68b8671e3c24ecf9","2","6","null","","","","","","","","","<p style='font-size: 30px;'><strong>Okay</strong></p>","null","neutral_feedback","0","test","41","","","","","","","",""
"","","","","","","","","","","","html-button-response","89","2.0.0","232555","66d5356d68b8671e3c24ecf9","2","6","1658","","","","","","","","","<img src= ""rock_img/I_Pumice_09.jpg"" style=""width:8cm; height:6.44cm;""><p>What type of rock is this?</p>","2","class_response","0","test","42","Diorite","Pumice","09","false","3","8","",""
"","","","","","","","","","","","html-keyboard-response","90","2.0.0","233060","66d5356d68b8671e3c24ecf9","2","6","null","","","","","","","","","<p style='font-size: 30px;'><strong>Okay</strong></p>","null","neutral_feedback","0","test","42","","","","","","","",""
"","","","","","","","","","","","html-button-response","91","2.0.0","234905","66d5356d68b8671e3c24ecf9","2","6","1842","","","","","","","","","<img src= ""rock_img/I_Obsidian_16.jpg"" style=""width:8cm; height:9.3cm;""><p>What type of rock is this?</p>","4","class_response","0","test","43","Obsidian","Obsidian","16","true","5","5","",""
"","","","","","","","","","","","html-keyboard-response","92","2.0.0","235410","66d5356d68b8671e3c24ecf9","2","6","null","","","","","","","","","<p style='font-size: 30px;'><strong>Okay</strong></p>","null","neutral_feedback","0","test","43","","","","","","","",""
"","","","","","","","","","","","html-button-response","93","2.0.0","237162","66d5356d68b8671e3c24ecf9","2","6","1750","","","","","","","","","<img src= ""rock_img/I_Obsidian_04.jpg"" style=""width:8cm; height:6.930000000000001cm;""><p>What type of rock is this?</p>","4","class_response","0","test","44","Obsidian","Obsidian","04","true","5","5","",""
"","","","","","","","","","","","html-keyboard-response","94","2.0.0","237674","66d5356d68b8671e3c24ecf9","2","6","null","","","","","","","","","<p style='font-size: 30px;'><strong>Okay</strong></p>","null","neutral_feedback","0","test","44","","","","","","","",""
"","","","","","","","","","","","html-button-response","95","2.0.0","239482","66d5356d68b8671e3c24ecf9","2","6","1806","","","","","","","","","<img src= ""rock_img/I_Pegmatite_10.jpg"" style=""width:8cm; height:4.16cm;""><p>What type of rock is this?</p>","6","class_response","0","test","45","Peridotite","Pegmatite","10","false","7","6","",""
"","","","","","","","","","","","html-keyboard-response","96","2.0.0","239990","66d5356d68b8671e3c24ecf9","2","6","null","","","","","","","","","<p style='font-size: 30px;'><strong>Okay</strong></p>","null","neutral_feedback","0","test","45","","","","","","","",""
"","","","","","","","","","","","html-button-response","97","2.0.0","241441","66d5356d68b8671e3c24ecf9","2","6","1449","","","","","","","","","<img src= ""rock_img/I_Peridotite_12.jpg"" style=""width:8cm; height:4.54cm;""><p>What type of rock is this?</p>","6","class_response","0","test","46","Peridotite","Peridotite","12","true","7","7","",""
"","","","","","","","","","","","html-keyboard-response","98","2.0.0","241955","66d5356d68b8671e3c24ecf9","2","6","null","","","","","","","","","<p style='font-size: 30px;'><strong>Okay</strong></p>","null","neutral_feedback","0","test","46","","","","","","","",""
"","","","","","","","","","","","html-button-response","99","2.0.0","243785","66d5356d68b8671e3c24ecf9","2","6","1827","","","","","","","","","<img src= ""rock_img/I_Pegmatite_06.jpg"" style=""width:8cm; height:5.17cm;""><p>What type of rock is this?</p>","2","class_response","0","test","47","Diorite","Pegmatite","06","false","3","6","",""
"","","","","","","","","","","","html-keyboard-response","100","2.0.0","244289","66d5356d68b8671e3c24ecf9","2","6","null","","","","","","","","","<p style='font-size: 30px;'><strong>Okay</strong></p>","null","neutral_feedback","0","test","47","","","","","","","",""
"","","","","","","","","","","","html-button-response","101","2.0.0","246282","66d5356d68b8671e3c24ecf9","2","6","1991","","","","","","","","","<img src= ""rock_img/I_Andesite_09.jpg"" style=""width:8cm; height:6cm;""><p>What type of rock is this?</p>","1","class_response","0","test","48","Basalt","Andesite","09","false","2","1","",""
"","","","","","","","","","","","html-keyboard-response","102","2.0.0","246798","66d5356d68b8671e3c24ecf9","2","6","null","","","","","","","","","<p style='font-size: 30px;'><strong>Okay</strong></p>","null","neutral_feedback","0","test","48","","","","","","","",""
"","","","","","","","","","","","instructions","103","2.0.0","275587","66d5356d68b8671e3c24ecf9","2","6","28762","","","","","","","","[{""page_index"":0,""viewing_time"":14019},{""page_index"":1,""viewing_time"":9197},{""page_index"":2,""viewing_time"":5547}]","","","","","","","","","","","","","",""
"","","","","","","","","","","","html-button-response","104","2.0.0","279028","66d5356d68b8671e3c24ecf9","2","6","3439","","","","","","","","","","0","start_train","","","","","","","","","","",""
"","","","","","","","","","","","html-button-response","105","2.0.0","282035","66d5356d68b8671e3c24ecf9","2","6","3005","","","","","","","","","<img src= ""rock_img/I_Pumice_05.jpg"" style=""width:8cm; height:7.25cm;""><p>What type of rock is this?</p>","2","class_response","1","train","1","Diorite","Pumice","05","false","3","8","",""
"","","","","","","","","","","","html-button-response","106","2.0.0","289557","66d5356d68b8671e3c24ecf9","2","6","7520","","","","","","","","","<img src= rock_img/I_Pumice_05.jpg style=""width:8cm; height:7.25cm;""><p style='font-size: 30px; color: red;'><strong>Incorrect!</strong></p><p style='font-size: 30px;'><strong>This rock is pumice</strong></p>","0","corr_feedback","1","train","1","","","","","","","",""
"","","","","","","","","","","","html-button-response","107","2.0.0","292596","66d5356d68b8671e3c24ecf9","2","6","3038","","","","","","","","","<img src= ""rock_img/I_Pegmatite_13.jpg"" style=""width:8cm; height:4.95cm;""><p>What type of rock is this?</p>","3","class_response","1","train","2","Gabbro","Pegmatite","13","false","4","6","",""
"","","","","","","","","","","","html-button-response","108","2.0.0","294430","66d5356d68b8671e3c24ecf9","2","6","1832","","","","","","","","","<img src= rock_img/I_Pegmatite_13.jpg style=""width:8cm; height:4.95cm;""><p style='font-size: 30px; color: red;'><strong>Incorrect!</strong></p><p style='font-size: 30px;'><strong>This rock is pegmatite</strong></p>","0","corr_feedback","1","train","2","","","","","","","",""
"","","","","","","","","","","","html-button-response","109","2.0.0","297547","66d5356d68b8671e3c24ecf9","2","6","3115","","","","","","","","","<img src= ""rock_img/I_Gabbro_05.jpg"" style=""width:8cm; height:6cm;""><p>What type of rock is this?</p>","0","class_response","1","train","3","Andesite","Gabbro","05","false","1","4","",""
"","","","","","","","","","","","html-button-response","110","2.0.0","299329","66d5356d68b8671e3c24ecf9","2","6","1780","","","","","","","","","<img src= rock_img/I_Gabbro_05.jpg style=""width:8cm; height:6cm;""><p style='font-size: 30px; color: red;'><strong>Incorrect!</strong></p><p style='font-size: 30px;'><strong>This rock is gabbro</strong></p>","0","corr_feedback","1","train","3","","","","","","","",""
"","","","","","","","","","","","html-button-response","111","2.0.0","301968","66d5356d68b8671e3c24ecf9","2","6","2637","","","","","","","","","<img src= ""rock_img/I_Pumice_16.jpg"" style=""width:8cm; height:6.79cm;""><p>What type of rock is this?</p>","1","class_response","1","train","4","Basalt","Pumice","16","false","2","8","",""
"","","","","","","","","","","","html-button-response","112","2.0.0","303649","66d5356d68b8671e3c24ecf9","2","6","1679","","","","","","","","","<img src= rock_img/I_Pumice_16.jpg style=""width:8cm; height:6.79cm;""><p style='font-size: 30px; color: red;'><strong>Incorrect!</strong></p><p style='font-size: 30px;'><strong>This rock is pumice</strong></p>","0","corr_feedback","1","train","4","","","","","","","",""
"","","","","","","","","","","","html-button-response","113","2.0.0","305826","66d5356d68b8671e3c24ecf9","2","6","2175","","","","","","","","","<img src= ""rock_img/I_Diorite_08.jpg"" style=""width:8cm; height:6.37cm;""><p>What type of rock is this?</p>","2","class_response","1","train","5","Diorite","Diorite","08","true","3","3","",""
"","","","","","","","","","","","html-button-response","114","2.0.0","307458","66d5356d68b8671e3c24ecf9","2","6","1631","","","","","","","","","<img src= rock_img/I_Diorite_08.jpg style=""width:8cm; height:6.37cm;""><p style='font-size: 30px; color: green;'><strong>Correct!</strong></p><p style='font-size: 30px;'><strong>This rock is diorite</strong></p>","0","corr_feedback","1","train","5","","","","","","","",""
"","","","","","","","","","","","html-button-response","115","2.0.0","312065","66d5356d68b8671e3c24ecf9","2","6","4605","","","","","","","","","<img src= ""rock_img/I_Pegmatite_15.jpg"" style=""width:8cm; height:6cm;""><p>What type of rock is this?</p>","7","class_response","1","train","6","Pumice","Pegmatite","15","false","8","6","",""
"","","","","","","","","","","","html-button-response","116","2.0.0","313797","66d5356d68b8671e3c24ecf9","2","6","1730","","","","","","","","","<img src= rock_img/I_Pegmatite_15.jpg style=""width:8cm; height:6cm;""><p style='font-size: 30px; color: red;'><strong>Incorrect!</strong></p><p style='font-size: 30px;'><strong>This rock is pegmatite</strong></p>","0","corr_feedback","1","train","6","","","","","","","",""
"","","","","","","","","","","","html-button-response","117","2.0.0","315690","66d5356d68b8671e3c24ecf9","2","6","1891","","","","","","","","","<img src= ""rock_img/I_Obsidian_14.jpg"" style=""width:8cm; height:7.64cm;""><p>What type of rock is this?</p>","4","class_response","1","train","7","Obsidian","Obsidian","14","true","5","5","",""
"","","","","","","","","","","","html-button-response","118","2.0.0","317129","66d5356d68b8671e3c24ecf9","2","6","1438","","","","","","","","","<img src= rock_img/I_Obsidian_14.jpg style=""width:8cm; height:7.64cm;""><p style='font-size: 30px; color: green;'><strong>Correct!</strong></p><p style='font-size: 30px;'><strong>This rock is obsidian</strong></p>","0","corr_feedback","1","train","7","","","","","","","",""
"","","","","","","","","","","","html-button-response","119","2.0.0","319210","66d5356d68b8671e3c24ecf9","2","6","2079","","","","","","","","","<img src= ""rock_img/I_Diorite_10.jpg"" style=""width:8cm; height:5.949999999999999cm;""><p>What type of rock is this?</p>","2","class_response","1","train","8","Diorite","Diorite","10","true","3","3","",""
"","","","","","","","","","","","html-button-response","120","2.0.0","320601","66d5356d68b8671e3c24ecf9","2","6","1390","","","","","","","","","<img src= rock_img/I_Diorite_10.jpg style=""width:8cm; height:5.949999999999999cm;""><p style='font-size: 30px; color: green;'><strong>Correct!</strong></p><p style='font-size: 30px;'><strong>This rock is diorite</strong></p>","0","corr_feedback","1","train","8","","","","","","","",""
"","","","","","","","","","","","html-button-response","121","2.0.0","323093","66d5356d68b8671e3c24ecf9","2","6","2490","","","","","","","","","<img src= ""rock_img/I_Gabbro_08.jpg"" style=""width:8cm; height:5.15cm;""><p>What type of rock is this?</p>","3","class_response","1","train","9","Gabbro","Gabbro","08","true","4","4","",""
"","","","","","","","","","","","html-button-response","122","2.0.0","324658","66d5356d68b8671e3c24ecf9","2","6","1563","","","","","","","","","<img src= rock_img/I_Gabbro_08.jpg style=""width:8cm; height:5.15cm;""><p style='font-size: 30px; color: green;'><strong>Correct!</strong></p><p style='font-size: 30px;'><strong>This rock is gabbro</strong></p>","0","corr_feedback","1","train","9","","","","","","","",""
"","","","","","","","","","","","html-button-response","123","2.0.0","326550","66d5356d68b8671e3c24ecf9","2","6","1891","","","","","","","","","<img src= ""rock_img/I_Basalt_10.jpg"" style=""width:8cm; height:5.85cm;""><p>What type of rock is this?</p>","4","class_response","1","train","10","Obsidian","Basalt","10","false","5","2","",""
"","","","","","","","","","","","html-button-response","124","2.0.0","328241","66d5356d68b8671e3c24ecf9","2","6","1689","","","","","","","","","<img src= rock_img/I_Basalt_10.jpg style=""width:8cm; height:5.85cm;""><p style='font-size: 30px; color: red;'><strong>Incorrect!</strong></p><p style='font-size: 30px;'><strong>This rock is basalt</strong></p>","0","corr_feedback","1","train","10","","","","","","","",""
"","","","","","","","","","","","html-button-response","125","2.0.0","332549","66d5356d68b8671e3c24ecf9","2","6","4305","","","","","","","","","<img src= ""rock_img/I_Diorite_08.jpg"" style=""width:8cm; height:6.37cm;""><p>What type of rock is this?</p>","0","class_response","1","train","11","Andesite","Diorite","08","false","1","3","",""
"","","","","","","","","","","","html-button-response","126","2.0.0","334503","66d5356d68b8671e3c24ecf9","2","6","1953","","","","","","","","","<img src= rock_img/I_Diorite_08.jpg style=""width:8cm; height:6.37cm;""><p style='font-size: 30px; color: red;'><strong>Incorrect!</strong></p><p style='font-size: 30px;'><strong>This rock is diorite</strong></p>","0","corr_feedback","1","train","11","","","","","","","",""
"","","","","","","","","","","","html-button-response","127","2.0.0","339146","66d5356d68b8671e3c24ecf9","2","6","4641","","","","","","","","","<img src= ""rock_img/I_Andesite_06.jpg"" style=""width:8cm; height:6.840000000000001cm;""><p>What type of rock is this?</p>","5","class_response","1","train","12","Pegmatite","Andesite","06","false","6","1","",""
"","","","","","","","","","","","html-button-response","128","2.0.0","340535","66d5356d68b8671e3c24ecf9","2","6","1388","","","","","","","","","<img src= rock_img/I_Andesite_06.jpg style=""width:8cm; height:6.840000000000001cm;""><p style='font-size: 30px; color: red;'><strong>Incorrect!</strong></p><p style='font-size: 30px;'><strong>This rock is andesite</strong></p>","0","corr_feedback","1","train","12","","","","","","","",""
"","","","","","","","","","","","html-button-response","129","2.0.0","342851","66d5356d68b8671e3c24ecf9","2","6","2314","","","","","","","","","<img src= ""rock_img/I_Obsidian_02.jpg"" style=""width:8cm; height:7.51cm;""><p>What type of rock is this?</p>","4","class_response","1","train","13","Obsidian","Obsidian","02","true","5","5","",""
"","","","","","","","","","","","html-button-response","130","2.0.0","344309","66d5356d68b8671e3c24ecf9","2","6","1456","","","","","","","","","<img src= rock_img/I_Obsidian_02.jpg style=""width:8cm; height:7.51cm;""><p style='font-size: 30px; color: green;'><strong>Correct!</strong></p><p style='font-size: 30px;'><strong>This rock is obsidian</strong></p>","0","corr_feedback","1","train","13","","","","","","","",""
"","","","","","","","","","","","html-button-response","131","2.0.0","347199","66d5356d68b8671e3c24ecf9","2","6","2889","","","","","","","","","<img src= ""rock_img/I_Gabbro_12.jpg"" style=""width:8cm; height:7.800000000000001cm;""><p>What type of rock is this?</p>","2","class_response","1","train","14","Diorite","Gabbro","12","false","3","4","",""
"","","","","","","","","","","","html-button-response","132","2.0.0","348682","66d5356d68b8671e3c24ecf9","2","6","1481","","","","","","","","","<img src= rock_img/I_Gabbro_12.jpg style=""width:8cm; height:7.800000000000001cm;""><p style='font-size: 30px; color: red;'><strong>Incorrect!</strong></p><p style='font-size: 30px;'><strong>This rock is gabbro</strong></p>","0","corr_feedback","1","train","14","","","","","","","",""
"","","","","","","","","","","","html-button-response","133","2.0.0","352073","66d5356d68b8671e3c24ecf9","2","6","3388","","","","","","","","","<img src= ""rock_img/I_Pumice_05.jpg"" style=""width:8cm; height:7.25cm;""><p>What type of rock is this?</p>","7","class_response","1","train","15","Pumice","Pumice","05","true","8","8","",""
"","","","","","","","","","","","html-button-response","134","2.0.0","353679","66d5356d68b8671e3c24ecf9","2","6","1605","","","","","","","","","<img src= rock_img/I_Pumice_05.jpg style=""width:8cm; height:7.25cm;""><p style='font-size: 30px; color: green;'><strong>Correct!</strong></p><p style='font-size: 30px;'><strong>This rock is pumice</strong></p>","0","corr_feedback","1","train","15","","","","","","","",""
"","","","","","","","","","","","html-button-response","135","2.0.0","357429","66d5356d68b8671e3c24ecf9","2","6","3748","","","","","","","","","<img src= ""rock_img/I_Gabbro_01.jpg"" style=""width:8cm; height:5.21cm;""><p>What type of rock is this?</p>","0","class_response","1","train","16","Andesite","Gabbro","01","false","1","4","",""
"","","","","","","","","","","","html-button-response","136","2.0.0","358987","66d5356d68b8671e3c24ecf9","2","6","1556","","","","","","","","","<img src= rock_img/I_Gabbro_01.jpg style=""width:8cm; height:5.21cm;""><p style='font-size: 30px; color: red;'><strong>Incorrect!</strong></p><p style='font-size: 30px;'><strong>This rock is gabbro</strong></p>","0","corr_feedback","1","train","16","","","","","","","",""
"","","","","","","","","","","","html-button-response","137","2.0.0","360952","66d5356d68b8671e3c24ecf9","2","6","1963","","","","","","","","","<img src= ""rock_img/I_Pumice_14.jpg"" style=""width:8cm; height:6.39cm;""><p>What type of rock is this?</p>","1","class_response","1","train","17","Basalt","Pumice","14","false","2","8","",""
"","","","","","","","","","","","html-button-response","138","2.0.0","362434","66d5356d68b8671e3c24ecf9","2","6","1481","","","","","","","","","<img src= rock_img/I_Pumice_14.jpg style=""width:8cm; height:6.39cm;""><p style='font-size: 30px; color: red;'><strong>Incorrect!</strong></p><p style='font-size: 30px;'><strong>This rock is pumice</strong></p>","0","corr_feedback","1","train","17","","","","","","","",""
"","","","","","","","","","","","html-button-response","139","2.0.0","365784","66d5356d68b8671e3c24ecf9","2","6","3348","","","","","","","","","<img src= ""rock_img/I_Diorite_12.jpg"" style=""width:8cm; height:4.88cm;""><p>What type of rock is this?</p>","1","class_response","1","train","18","Basalt","Diorite","12","false","2","3","",""
"","","","","","","","","","","","html-button-response","140","2.0.0","367272","66d5356d68b8671e3c24ecf9","2","6","1487","","","","","","","","","<img src= rock_img/I_Diorite_12.jpg style=""width:8cm; height:4.88cm;""><p style='font-size: 30px; color: red;'><strong>Incorrect!</strong></p><p style='font-size: 30px;'><strong>This rock is diorite</strong></p>","0","corr_feedback","1","train","18","","","","","","","",""
"","","","","","","","","","","","html-button-response","141","2.0.0","371331","66d5356d68b8671e3c24ecf9","2","6","4057","","","","","","","","","<img src= ""rock_img/I_Andesite_03.jpg"" style=""width:8cm; height:5.73cm;""><p>What type of rock is this?</p>","3","class_response","1","train","19","Gabbro","Andesite","03","false","4","1","",""
"","","","","","","","","","","","html-button-response","142","2.0.0","372640","66d5356d68b8671e3c24ecf9","2","6","1307","","","","","","","","","<img src= rock_img/I_Andesite_03.jpg style=""width:8cm; height:5.73cm;""><p style='font-size: 30px; color: red;'><strong>Incorrect!</strong></p><p style='font-size: 30px;'><strong>This rock is andesite</strong></p>","0","corr_feedback","1","train","19","","","","","","","",""
"","","","","","","","","","","","html-button-response","143","2.0.0","377833","66d5356d68b8671e3c24ecf9","2","6","5192","","","","","","","","","<img src= ""rock_img/I_Pegmatite_11.jpg"" style=""width:8cm; height:8.14cm;""><p>What type of rock is this?</p>","5","class_response","1","train","20","Pegmatite","Pegmatite","11","true","6","6","",""
"","","","","","","","","","","","html-button-response","144","2.0.0","379360","66d5356d68b8671e3c24ecf9","2","6","1525","","","","","","","","","<img src= rock_img/I_Pegmatite_11.jpg style=""width:8cm; height:8.14cm;""><p style='font-size: 30px; color: green;'><strong>Correct!</strong></p><p style='font-size: 30px;'><strong>This rock is pegmatite</strong></p>","0","corr_feedback","1","train","20","","","","","","","",""
"","","","","","","","","","","","html-button-response","145","2.0.0","381103","66d5356d68b8671e3c24ecf9","2","6","1741","","","","","","","","","<img src= ""rock_img/I_Obsidian_12.jpg"" style=""width:8cm; height:6.53cm;""><p>What type of rock is this?</p>","4","class_response","1","train","21","Obsidian","Obsidian","12","true","5","5","",""
"","","","","","","","","","","","html-button-response","146","2.0.0","382601","66d5356d68b8671e3c24ecf9","2","6","1496","","","","","","","","","<img src= rock_img/I_Obsidian_12.jpg style=""width:8cm; height:6.53cm;""><p style='font-size: 30px; color: green;'><strong>Correct!</strong></p><p style='font-size: 30px;'><strong>This rock is obsidian</strong></p>","0","corr_feedback","1","train","21","","","","","","","",""
"","","","","","","","","","","","html-button-response","147","2.0.0","385263","66d5356d68b8671e3c24ecf9","2","6","2660","","","","","","","","","<img src= ""rock_img/I_Andesite_10.jpg"" style=""width:8cm; height:4.16cm;""><p>What type of rock is this?</p>","7","class_response","1","train","22","Pumice","Andesite","10","false","8","1","",""
"","","","","","","","","","","","html-button-response","148","2.0.0","386700","66d5356d68b8671e3c24ecf9","2","6","1435","","","","","","","","","<img src= rock_img/I_Andesite_10.jpg style=""width:8cm; height:4.16cm;""><p style='font-size: 30px; color: red;'><strong>Incorrect!</strong></p><p style='font-size: 30px;'><strong>This rock is andesite</strong></p>","0","corr_feedback","1","train","22","","","","","","","",""
"","","","","","","","","","","","html-button-response","149","2.0.0","388591","66d5356d68b8671e3c24ecf9","2","6","1889","","","","","","","","","<img src= ""rock_img/I_Pumice_16.jpg"" style=""width:8cm; height:6.79cm;""><p>What type of rock is this?</p>","7","class_response","1","train","23","Pumice","Pumice","16","true","8","8","",""
"","","","","","","","","","","","html-button-response","150","2.0.0","390008","66d5356d68b8671e3c24ecf9","2","6","1415","","","","","","","","","<img src= rock_img/I_Pumice_16.jpg style=""width:8cm; height:6.79cm;""><p style='font-size: 30px; color: green;'><strong>Correct!</strong></p><p style='font-size: 30px;'><strong>This rock is pumice</strong></p>","0","corr_feedback","1","train","23","","","","","","","",""
"","","","","","","","","","","","html-button-response","151","2.0.0","393272","66d5356d68b8671e3c24ecf9","2","6","3262","","","","","","","","","<img src= ""rock_img/I_Andesite_05.jpg"" style=""width:8cm; height:4.12cm;""><p>What type of rock is this?</p>","5","class_response","1","train","24","Pegmatite","Andesite","05","false","6","1","",""
"","","","","","","","","","","","html-button-response","152","2.0.0","394680","66d5356d68b8671e3c24ecf9","2","6","1406","","","","","","","","","<img src= rock_img/I_Andesite_05.jpg style=""width:8cm; height:4.12cm;""><p style='font-size: 30px; color: red;'><strong>Incorrect!</strong></p><p style='font-size: 30px;'><strong>This rock is andesite</strong></p>","0","corr_feedback","1","train","24","","","","","","","",""
"","","","","","","","","","","","html-button-response","153","2.0.0","400597","66d5356d68b8671e3c24ecf9","2","6","5916","","","","","","","","","<img src= ""rock_img/I_Gabbro_14.jpg"" style=""width:8cm; height:8.48cm;""><p>What type of rock is this?</p>","3","class_response","1","train","25","Gabbro","Gabbro","14","true","4","4","",""
"","","","","","","","","","","","html-button-response","154","2.0.0","402043","66d5356d68b8671e3c24ecf9","2","6","1445","","","","","","","","","<img src= rock_img/I_Gabbro_14.jpg style=""width:8cm; height:8.48cm;""><p style='font-size: 30px; color: green;'><strong>Correct!</strong></p><p style='font-size: 30px;'><strong>This rock is gabbro</strong></p>","0","corr_feedback","1","train","25","","","","","","","",""
"","","","","","","","","","","","html-button-response","155","2.0.0","405259","66d5356d68b8671e3c24ecf9","2","6","3214","","","","","","","","","<img src= ""rock_img/I_Pegmatite_16.jpg"" style=""width:8cm; height:5.8cm;""><p>What type of rock is this?</p>","2","class_response","1","train","26","Diorite","Pegmatite","16","false","3","6","",""
"","","","","","","","","","","","html-button-response","156","2.0.0","406642","66d5356d68b8671e3c24ecf9","2","6","1381","","","","","","","","","<img src= rock_img/I_Pegmatite_16.jpg style=""width:8cm; height:5.8cm;""><p style='font-size: 30px; color: red;'><strong>Incorrect!</strong></p><p style='font-size: 30px;'><strong>This rock is pegmatite</strong></p>","0","corr_feedback","1","train","26","","","","","","","",""
"","","","","","","","","","","","html-button-response","157","2.0.0","410557","66d5356d68b8671e3c24ecf9","2","6","3913","","","","","","","","","<img src= ""rock_img/I_Pumice_10.jpg"" style=""width:8cm; height:7.609999999999999cm;""><p>What type of rock is this?</p>","7","class_response","1","train","27","Pumice","Pumice","10","true","8","8","",""
"","","","","","","","","","","","html-button-response","158","2.0.0","411957","66d5356d68b8671e3c24ecf9","2","6","1398","","","","","","","","","<img src= rock_img/I_Pumice_10.jpg style=""width:8cm; height:7.609999999999999cm;""><p style='font-size: 30px; color: green;'><strong>Correct!</strong></p><p style='font-size: 30px;'><strong>This rock is pumice</strong></p>","0","corr_feedback","1","train","27","","","","","","","",""
"","","","","","","","","","","","html-button-response","159","2.0.0","414865","66d5356d68b8671e3c24ecf9","2","6","2907","","","","","","","","","<img src= ""rock_img/I_Diorite_11.jpg"" style=""width:8cm; height:7.11cm;""><p>What type of rock is this?</p>","2","class_response","1","train","28","Diorite","Diorite","11","true","3","3","",""
"","","","","","","","","","","","html-button-response","160","2.0.0","416235","66d5356d68b8671e3c24ecf9","2","6","1368","","","","","","","","","<img src= rock_img/I_Diorite_11.jpg style=""width:8cm; height:7.11cm;""><p style='font-size: 30px; color: green;'><strong>Correct!</strong></p><p style='font-size: 30px;'><strong>This rock is diorite</strong></p>","0","corr_feedback","1","train","28","","","","","","","",""
"","","","","","","","","","","","html-button-response","161","2.0.0","419454","66d5356d68b8671e3c24ecf9","2","6","3216","","","","","","","","","<img src= ""rock_img/I_Pumice_10.jpg"" style=""width:8cm; height:7.609999999999999cm;""><p>What type of rock is this?</p>","7","class_response","1","train","29","Pumice","Pumice","10","true","8","8","",""
"","","","","","","","","","","","html-button-response","162","2.0.0","420736","66d5356d68b8671e3c24ecf9","2","6","1280","","","","","","","","","<img src= rock_img/I_Pumice_10.jpg style=""width:8cm; height:7.609999999999999cm;""><p style='font-size: 30px; color: green;'><strong>Correct!</strong></p><p style='font-size: 30px;'><strong>This rock is pumice</strong></p>","0","corr_feedback","1","train","29","","","","","","","",""
"","","","","","","","","","","","html-button-response","163","2.0.0","422752","66d5356d68b8671e3c24ecf9","2","6","2014","","","","","","","","","<img src= ""rock_img/I_Pumice_15.jpg"" style=""width:8cm; height:7.86cm;""><p>What type of rock is this?</p>","7","class_response","1","train","30","Pumice","Pumice","15","true","8","8","",""
"","","","","","","","","","","","html-button-response","164","2.0.0","424118","66d5356d68b8671e3c24ecf9","2","6","1364","","","","","","","","","<img src= rock_img/I_Pumice_15.jpg style=""width:8cm; height:7.86cm;""><p style='font-size: 30px; color: green;'><strong>Correct!</strong></p><p style='font-size: 30px;'><strong>This rock is pumice</strong></p>","0","corr_feedback","1","train","30","","","","","","","",""
"","","","","","","","","","","","html-button-response","165","2.0.0","426027","66d5356d68b8671e3c24ecf9","2","6","1907","","","","","","","","","<img src= ""rock_img/I_Pegmatite_09.jpg"" style=""width:8cm; height:4.03cm;""><p>What type of rock is this?</p>","6","class_response","1","train","31","Peridotite","Pegmatite","09","false","7","6","",""
"","","","","","","","","","","","html-button-response","166","2.0.0","427359","66d5356d68b8671e3c24ecf9","2","6","1331","","","","","","","","","<img src= rock_img/I_Pegmatite_09.jpg style=""width:8cm; height:4.03cm;""><p style='font-size: 30px; color: red;'><strong>Incorrect!</strong></p><p style='font-size: 30px;'><strong>This rock is pegmatite</strong></p>","0","corr_feedback","1","train","31","","","","","","","",""
"","","","","","","","","","","","html-button-response","167","2.0.0","429632","66d5356d68b8671e3c24ecf9","2","6","2271","","","","","","","","","<img src= ""rock_img/I_Andesite_07.jpg"" style=""width:8cm; height:5.93cm;""><p>What type of rock is this?</p>","6","class_response","1","train","32","Peridotite","Andesite","07","false","7","1","",""
"","","","","","","","","","","","html-button-response","168","2.0.0","430942","66d5356d68b8671e3c24ecf9","2","6","1308","","","","","","","","","<img src= rock_img/I_Andesite_07.jpg style=""width:8cm; height:5.93cm;""><p style='font-size: 30px; color: red;'><strong>Incorrect!</strong></p><p style='font-size: 30px;'><strong>This rock is andesite</strong></p>","0","corr_feedback","1","train","32","","","","","","","",""
"","","","","","","","","","","","html-button-response","169","2.0.0","434530","66d5356d68b8671e3c24ecf9","2","6","3586","","","","","","","","","<img src= ""rock_img/I_Gabbro_12.jpg"" style=""width:8cm; height:7.800000000000001cm;""><p>What type of rock is this?</p>","5","class_response","1","train","33","Pegmatite","Gabbro","12","false","6","4","",""
"","","","","","","","","","","","html-button-response","170","2.0.0","435880","66d5356d68b8671e3c24ecf9","2","6","1348","","","","","","","","","<img src= rock_img/I_Gabbro_12.jpg style=""width:8cm; height:7.800000000000001cm;""><p style='font-size: 30px; color: red;'><strong>Incorrect!</strong></p><p style='font-size: 30px;'><strong>This rock is gabbro</strong></p>","0","corr_feedback","1","train","33","","","","","","","",""
"","","","","","","","","","","","html-button-response","171","2.0.0","437929","66d5356d68b8671e3c24ecf9","2","6","2046","","","","","","","","","<img src= ""rock_img/I_Basalt_08.jpg"" style=""width:8cm; height:10.44cm;""><p>What type of rock is this?</p>","4","class_response","1","train","34","Obsidian","Basalt","08","false","5","2","",""
"","","","","","","","","","","","html-button-response","172","2.0.0","439408","66d5356d68b8671e3c24ecf9","2","6","1477","","","","","","","","","<img src= rock_img/I_Basalt_08.jpg style=""width:8cm; height:10.44cm;""><p style='font-size: 30px; color: red;'><strong>Incorrect!</strong></p><p style='font-size: 30px;'><strong>This rock is basalt</strong></p>","0","corr_feedback","1","train","34","","","","","","","",""
"","","","","","","","","","","","html-button-response","173","2.0.0","441461","66d5356d68b8671e3c24ecf9","2","6","2052","","","","","","","","","<img src= ""rock_img/I_Pegmatite_09.jpg"" style=""width:8cm; height:4.03cm;""><p>What type of rock is this?</p>","6","class_response","1","train","35","Peridotite","Pegmatite","09","false","7","6","",""
"","","","","","","","","","","","html-button-response","174","2.0.0","442835","66d5356d68b8671e3c24ecf9","2","6","1372","","","","","","","","","<img src= rock_img/I_Pegmatite_09.jpg style=""width:8cm; height:4.03cm;""><p style='font-size: 30px; color: red;'><strong>Incorrect!</strong></p><p style='font-size: 30px;'><strong>This rock is pegmatite</strong></p>","0","corr_feedback","1","train","35","","","","","","","",""
"","","","","","","","","","","","html-button-response","175","2.0.0","445137","66d5356d68b8671e3c24ecf9","2","6","2300","","","","","","","","","<img src= ""rock_img/I_Andesite_01.jpg"" style=""width:8cm; height:5.87cm;""><p>What type of rock is this?</p>","4","class_response","1","train","36","Obsidian","Andesite","01","false","5","1","",""
"","","","","","","","","","","","html-button-response","176","2.0.0","446617","66d5356d68b8671e3c24ecf9","2","6","1479","","","","","","","","","<img src= rock_img/I_Andesite_01.jpg style=""width:8cm; height:5.87cm;""><p style='font-size: 30px; color: red;'><strong>Incorrect!</strong></p><p style='font-size: 30px;'><strong>This rock is andesite</strong></p>","0","corr_feedback","1","train","36","","","","","","","",""
"","","","","","","","","","","","html-button-response","177","2.0.0","451460","66d5356d68b8671e3c24ecf9","2","6","4841","","","","","","","","","<img src= ""rock_img/I_Basalt_01.jpg"" style=""width:8cm; height:7.880000000000001cm;""><p>What type of rock is this?</p>","1","class_response","1","train","37","Basalt","Basalt","01","true","2","2","",""
"","","","","","","","","","","","html-button-response","178","2.0.0","452838","66d5356d68b8671e3c24ecf9","2","6","1377","","","","","","","","","<img src= rock_img/I_Basalt_01.jpg style=""width:8cm; height:7.880000000000001cm;""><p style='font-size: 30px; color: green;'><strong>Correct!</strong></p><p style='font-size: 30px;'><strong>This rock is basalt</strong></p>","0","corr_feedback","1","train","37","","","","","","","",""
"","","","","","","","","","","","html-button-response","179","2.0.0","454902","66d5356d68b8671e3c24ecf9","2","6","2062","","","","","","","","","<img src= ""rock_img/I_Gabbro_08.jpg"" style=""width:8cm; height:5.15cm;""><p>What type of rock is this?</p>","1","class_response","1","train","38","Basalt","Gabbro","08","false","2","4","",""
"","","","","","","","","","","","html-button-response","180","2.0.0","456470","66d5356d68b8671e3c24ecf9","2","6","1566","","","","","","","","","<img src= rock_img/I_Gabbro_08.jpg style=""width:8cm; height:5.15cm;""><p style='font-size: 30px; color: red;'><strong>Incorrect!</strong></p><p style='font-size: 30px;'><strong>This rock is gabbro</strong></p>","0","corr_feedback","1","train","38","","","","","","","",""
"","","","","","","","","","","","html-button-response","181","2.0.0","458518","66d5356d68b8671e3c24ecf9","2","6","2046","","","","","","","","","<img src= ""rock_img/I_Basalt_06.jpg"" style=""width:8cm; height:7.06cm;""><p>What type of rock is this?</p>","4","class_response","1","train","39","Obsidian","Basalt","06","false","5","2","",""
"","","","","","","","","","","","html-button-response","182","2.0.0","460002","66d5356d68b8671e3c24ecf9","2","6","1482","","","","","","","","","<img src= rock_img/I_Basalt_06.jpg style=""width:8cm; height:7.06cm;""><p style='font-size: 30px; color: red;'><strong>Incorrect!</strong></p><p style='font-size: 30px;'><strong>This rock is basalt</strong></p>","0","corr_feedback","1","train","39","","","","","","","",""
"","","","","","","","","","","","html-button-response","183","2.0.0","462184","66d5356d68b8671e3c24ecf9","2","6","2180","","","","","","","","","<img src= ""rock_img/I_Diorite_02.jpg"" style=""width:8cm; height:6.27cm;""><p>What type of rock is this?</p>","2","class_response","1","train","40","Diorite","Diorite","02","true","3","3","",""
"","","","","","","","","","","","html-button-response","184","2.0.0","463462","66d5356d68b8671e3c24ecf9","2","6","1276","","","","","","","","","<img src= rock_img/I_Diorite_02.jpg style=""width:8cm; height:6.27cm;""><p style='font-size: 30px; color: green;'><strong>Correct!</strong></p><p style='font-size: 30px;'><strong>This rock is diorite</strong></p>","0","corr_feedback","1","train","40","","","","","","","",""
"","","","","","","","","","","","html-button-response","185","2.0.0","466266","66d5356d68b8671e3c24ecf9","2","6","2802","","","","","","","","","<img src= ""rock_img/I_Peridotite_10.jpg"" style=""width:8cm; height:5.390000000000001cm;""><p>What type of rock is this?</p>","7","class_response","1","train","41","Pumice","Peridotite","10","false","8","7","",""
"","","","","","","","","","","","html-button-response","186","2.0.0","467717","66d5356d68b8671e3c24ecf9","2","6","1449","","","","","","","","","<img src= rock_img/I_Peridotite_10.jpg style=""width:8cm; height:5.390000000000001cm;""><p style='font-size: 30px; color: red;'><strong>Incorrect!</strong></p><p style='font-size: 30px;'><strong>This rock is peridotite</strong></p>","0","corr_feedback","1","train","41","","","","","","","",""
"","","","","","","","","","","","html-button-response","187","2.0.0","470142","66d5356d68b8671e3c24ecf9","2","6","2423","","","","","","","","","<img src= ""rock_img/I_Diorite_09.jpg"" style=""width:8cm; height:5.27cm;""><p>What type of rock is this?</p>","2","class_response","1","train","42","Diorite","Diorite","09","true","3","3","",""
"","","","","","","","","","","","html-button-response","188","2.0.0","471422","66d5356d68b8671e3c24ecf9","2","6","1278","","","","","","","","","<img src= rock_img/I_Diorite_09.jpg style=""width:8cm; height:5.27cm;""><p style='font-size: 30px; color: green;'><strong>Correct!</strong></p><p style='font-size: 30px;'><strong>This rock is diorite</strong></p>","0","corr_feedback","1","train","42","","","","","","","",""
"","","","","","","","","","","","html-button-response","189","2.0.0","475163","66d5356d68b8671e3c24ecf9","2","6","3738","","","","","","","","","<img src= ""rock_img/I_Gabbro_01.jpg"" style=""width:8cm; height:5.21cm;""><p>What type of rock is this?</p>","3","class_response","1","train","43","Gabbro","Gabbro","01","true","4","4","",""
"","","","","","","","","","","","html-button-response","190","2.0.0","476545","66d5356d68b8671e3c24ecf9","2","6","1380","","","","","","","","","<img src= rock_img/I_Gabbro_01.jpg style=""width:8cm; height:5.21cm;""><p style='font-size: 30px; color: green;'><strong>Correct!</strong></p><p style='font-size: 30px;'><strong>This rock is gabbro</strong></p>","0","corr_feedback","1","train","43","","","","","","","",""
"","","","","","","","","","","","html-button-response","191","2.0.0","478796","66d5356d68b8671e3c24ecf9","2","6","2249","","","","","","","","","<img src= ""rock_img/I_Gabbro_11.jpg"" style=""width:8cm; height:6.2cm;""><p>What type of rock is this?</p>","1","class_response","1","train","44","Basalt","Gabbro","11","false","2","4","",""
"","","","","","","","","","","","html-button-response","192","2.0.0","480103","66d5356d68b8671e3c24ecf9","2","6","1306","","","","","","","","","<img src= rock_img/I_Gabbro_11.jpg style=""width:8cm; height:6.2cm;""><p style='font-size: 30px; color: red;'><strong>Incorrect!</strong></p><p style='font-size: 30px;'><strong>This rock is gabbro</strong></p>","0","corr_feedback","1","train","44","","","","","","","",""
"","","","","","","","","","","","html-button-response","193","2.0.0","482010","66d5356d68b8671e3c24ecf9","2","6","1905","","","","","","","","","<img src= ""rock_img/I_Pumice_02.jpg"" style=""width:8cm; height:7.3999999999999995cm;""><p>What type of rock is this?</p>","7","class_response","1","train","45","Pumice","Pumice","02","true","8","8","",""
"","","","","","","","","","","","html-button-response","194","2.0.0","483293","66d5356d68b8671e3c24ecf9","2","6","1282","","","","","","","","","<img src= rock_img/I_Pumice_02.jpg style=""width:8cm; height:7.3999999999999995cm;""><p style='font-size: 30px; color: green;'><strong>Correct!</strong></p><p style='font-size: 30px;'><strong>This rock is pumice</strong></p>","0","corr_feedback","1","train","45","","","","","","","",""
"","","","","","","","","","","","html-button-response","195","2.0.0","487174","66d5356d68b8671e3c24ecf9","2","6","3879","","","","","","","","","<img src= ""rock_img/I_Basalt_09.jpg"" style=""width:8cm; height:6.2cm;""><p>What type of rock is this?</p>","1","class_response","1","train","46","Basalt","Basalt","09","true","2","2","",""
"","","","","","","","","","","","html-button-response","196","2.0.0","488382","66d5356d68b8671e3c24ecf9","2","6","1207","","","","","","","","","<img src= rock_img/I_Basalt_09.jpg style=""width:8cm; height:6.2cm;""><p style='font-size: 30px; color: green;'><strong>Correct!</strong></p><p style='font-size: 30px;'><strong>This rock is basalt</strong></p>","0","corr_feedback","1","train","46","","","","","","","",""
"","","","","","","","","","","","html-button-response","197","2.0.0","490973","66d5356d68b8671e3c24ecf9","2","6","2589","","","","","","","","","<img src= ""rock_img/I_Pegmatite_08.jpg"" style=""width:8cm; height:7.68cm;""><p>What type of rock is this?</p>","6","class_response","1","train","47","Peridotite","Pegmatite","08","false","7","6","",""
"","","","","","","","","","","","html-button-response","198","2.0.0","492289","66d5356d68b8671e3c24ecf9","2","6","1314","","","","","","","","","<img src= rock_img/I_Pegmatite_08.jpg style=""width:8cm; height:7.68cm;""><p style='font-size: 30px; color: red;'><strong>Incorrect!</strong></p><p style='font-size: 30px;'><strong>This rock is pegmatite</strong></p>","0","corr_feedback","1","train","47","","","","","","","",""
"","","","","","","","","","","","html-button-response","199","2.0.0","494088","66d5356d68b8671e3c24ecf9","2","6","1797","","","","","","","","","<img src= ""rock_img/I_Pegmatite_08.jpg"" style=""width:8cm; height:7.68cm;""><p>What type of rock is this?</p>","5","class_response","1","train","48","Pegmatite","Pegmatite","08","true","6","6","",""
"","","","","","","","","","","","html-button-response","200","2.0.0","495613","66d5356d68b8671e3c24ecf9","2","6","1524","","","","","","","","","<img src= rock_img/I_Pegmatite_08.jpg style=""width:8cm; height:7.68cm;""><p style='font-size: 30px; color: green;'><strong>Correct!</strong></p><p style='font-size: 30px;'><strong>This rock is pegmatite</strong></p>","0","corr_feedback","1","train","48","","","","","","","",""
"","","","","","","","","","","","instructions","203","2.0.0","505885","66d5356d68b8671e3c24ecf9","2","6","10268","","","","","","","","[{""page_index"":0,""viewing_time"":4145},{""page_index"":1,""viewing_time"":6123}]","","","","","","","","","","","","","",""
"","","","","","","","","","","","html-button-response","204","2.0.0","507735","66d5356d68b8671e3c24ecf9","2","6","1848","","","","","","","","","","0","start_test","","","","","","","","","","",""
"","","","","","","","","","","","html-button-response","205","2.0.0","512732","66d5356d68b8671e3c24ecf9","2","6","4996","","","","","","","","","<img src= ""rock_img/I_Peridotite_07.jpg"" style=""width:8cm; height:4.83cm;""><p>What type of rock is this?</p>","3","class_response","1","test","1","Gabbro","Peridotite","07","false","4","7","",""
"","","","","","","","","","","","html-keyboard-response","206","2.0.0","513239","66d5356d68b8671e3c24ecf9","2","6","null","","","","","","","","","<p style='font-size: 30px;'><strong>Okay</strong></p>","null","neutral_feedback","1","test","1","","","","","","","",""
"","","","","","","","","","","","html-button-response","207","2.0.0","515826","66d5356d68b8671e3c24ecf9","2","6","2584","","","","","","","","","<img src= ""rock_img/I_Peridotite_15.jpg"" style=""width:8cm; height:6cm;""><p>What type of rock is this?</p>","6","class_response","1","test","2","Peridotite","Peridotite","15","true","7","7","",""
"","","","","","","","","","","","html-keyboard-response","208","2.0.0","516343","66d5356d68b8671e3c24ecf9","2","6","null","","","","","","","","","<p style='font-size: 30px;'><strong>Okay</strong></p>","null","neutral_feedback","1","test","2","","","","","","","",""
"","","","","","","","","","","","html-button-response","209","2.0.0","519629","66d5356d68b8671e3c24ecf9","2","6","3283","","","","","","","","","<img src= ""rock_img/I_Peridotite_04.jpg"" style=""width:8cm; height:6.680000000000001cm;""><p>What type of rock is this?</p>","6","class_response","1","test","3","Peridotite","Peridotite","04","true","7","7","",""
"","","","","","","","","","","","html-keyboard-response","210","2.0.0","520142","66d5356d68b8671e3c24ecf9","2","6","null","","","","","","","","","<p style='font-size: 30px;'><strong>Okay</strong></p>","null","neutral_feedback","1","test","3","","","","","","","",""
"","","","","","","","","","","","html-button-response","211","2.0.0","521949","66d5356d68b8671e3c24ecf9","2","6","1805","","","","","","","","","<img src= ""rock_img/I_Pumice_04.jpg"" style=""width:8cm; height:6.819999999999999cm;""><p>What type of rock is this?</p>","7","class_response","1","test","4","Pumice","Pumice","04","true","8","8","",""
"","","","","","","","","","","","html-keyboard-response","212","2.0.0","522459","66d5356d68b8671e3c24ecf9","2","6","null","","","","","","","","","<p style='font-size: 30px;'><strong>Okay</strong></p>","null","neutral_feedback","1","test","4","","","","","","","",""
"","","","","","","","","","","","html-button-response","213","2.0.0","524461","66d5356d68b8671e3c24ecf9","2","6","1999","","","","","","","","","<img src= ""rock_img/I_Diorite_07.jpg"" style=""width:8cm; height:5.239999999999999cm;""><p>What type of rock is this?</p>","2","class_response","1","test","5","Diorite","Diorite","07","true","3","3","",""
"","","","","","","","","","","","html-keyboard-response","214","2.0.0","524969","66d5356d68b8671e3c24ecf9","2","6","null","","","","","","","","","<p style='font-size: 30px;'><strong>Okay</strong></p>","null","neutral_feedback","1","test","5","","","","","","","",""
"","","","","","","","","","","","html-button-response","215","2.0.0","527119","66d5356d68b8671e3c24ecf9","2","6","2148","","","","","","","","","<img src= ""rock_img/I_Gabbro_03.jpg"" style=""width:8cm; height:8.52cm;""><p>What type of rock is this?</p>","1","class_response","1","test","6","Basalt","Gabbro","03","false","2","4","",""
"","","","","","","","","","","","html-keyboard-response","216","2.0.0","527624","66d5356d68b8671e3c24ecf9","2","6","null","","","","","","","","","<p style='font-size: 30px;'><strong>Okay</strong></p>","null","neutral_feedback","1","test","6","","","","","","","",""
"","","","","","","","","","","","html-button-response","217","2.0.0","529751","66d5356d68b8671e3c24ecf9","2","6","2124","","","","","","","","","<img src= ""rock_img/I_Obsidian_08.jpg"" style=""width:8cm; height:7.39cm;""><p>What type of rock is this?</p>","4","class_response","1","test","7","Obsidian","Obsidian","08","true","5","5","",""
"","","","","","","","","","","","html-keyboard-response","218","2.0.0","530254","66d5356d68b8671e3c24ecf9","2","6","null","","","","","","","","","<p style='font-size: 30px;'><strong>Okay</strong></p>","null","neutral_feedback","1","test","7","","","","","","","",""
"","","","","","","","","","","","html-button-response","219","2.0.0","533021","66d5356d68b8671e3c24ecf9","2","6","2764","","","","","","","","","<img src= ""rock_img/I_Andesite_11.jpg"" style=""width:8cm; height:4.92cm;""><p>What type of rock is this?</p>","1","class_response","1","test","8","Basalt","Andesite","11","false","2","1","",""
"","","","","","","","","","","","html-keyboard-response","220","2.0.0","533531","66d5356d68b8671e3c24ecf9","2","6","null","","","","","","","","","<p style='font-size: 30px;'><strong>Okay</strong></p>","null","neutral_feedback","1","test","8","","","","","","","",""
"","","","","","","","","","","","html-button-response","221","2.0.0","535358","66d5356d68b8671e3c24ecf9","2","6","1824","","","","","","","","","<img src= ""rock_img/I_Basalt_02.jpg"" style=""width:8cm; height:6.45cm;""><p>What type of rock is this?</p>","0","class_response","1","test","9","Andesite","Basalt","02","false","1","2","",""
"","","","","","","","","","","","html-keyboard-response","222","2.0.0","535863","66d5356d68b8671e3c24ecf9","2","6","null","","","","","","","","","<p style='font-size: 30px;'><strong>Okay</strong></p>","null","neutral_feedback","1","test","9","","","","","","","",""
"","","","","","","","","","","","html-button-response","223","2.0.0","538864","66d5356d68b8671e3c24ecf9","2","6","2998","","","","","","","","","<img src= ""rock_img/I_Pegmatite_12.jpg"" style=""width:8cm; height:5.7cm;""><p>What type of rock is this?</p>","0","class_response","1","test","10","Andesite","Pegmatite","12","false","1","6","",""
"","","","","","","","","","","","html-keyboard-response","224","2.0.0","539369","66d5356d68b8671e3c24ecf9","2","6","null","","","","","","","","","<p style='font-size: 30px;'><strong>Okay</strong></p>","null","neutral_feedback","1","test","10","","","","","","","",""
"","","","","","","","","","","","html-button-response","225","2.0.0","541410","66d5356d68b8671e3c24ecf9","2","6","2039","","","","","","","","","<img src= ""rock_img/I_Gabbro_09.jpg"" style=""width:8cm; height:7.279999999999999cm;""><p>What type of rock is this?</p>","4","class_response","1","test","11","Obsidian","Gabbro","09","false","5","4","",""
"","","","","","","","","","","","html-keyboard-response","226","2.0.0","541917","66d5356d68b8671e3c24ecf9","2","6","null","","","","","","","","","<p style='font-size: 30px;'><strong>Okay</strong></p>","null","neutral_feedback","1","test","11","","","","","","","",""
"","","","","","","","","","","","html-button-response","227","2.0.0","547219","66d5356d68b8671e3c24ecf9","2","6","5300","","","","","","","","","<img src= ""rock_img/I_Andesite_16.jpg"" style=""width:8cm; height:6.010000000000001cm;""><p>What type of rock is this?</p>","3","class_response","1","test","12","Gabbro","Andesite","16","false","4","1","",""
"","","","","","","","","","","","html-keyboard-response","228","2.0.0","547721","66d5356d68b8671e3c24ecf9","2","6","null","","","","","","","","","<p style='font-size: 30px;'><strong>Okay</strong></p>","null","neutral_feedback","1","test","12","","","","","","","",""
"","","","","","","","","","","","html-button-response","229","2.0.0","549652","66d5356d68b8671e3c24ecf9","2","6","1928","","","","","","","","","<img src= ""rock_img/I_Obsidian_09.jpg"" style=""width:8cm; height:5cm;""><p>What type of rock is this?</p>","4","class_response","1","test","13","Obsidian","Obsidian","09","true","5","5","",""
"","","","","","","","","","","","html-keyboard-response","230","2.0.0","550157","66d5356d68b8671e3c24ecf9","2","6","null","","","","","","","","","<p style='font-size: 30px;'><strong>Okay</strong></p>","null","neutral_feedback","1","test","13","","","","","","","",""
"","","","","","","","","","","","html-button-response","231","2.0.0","552992","66d5356d68b8671e3c24ecf9","2","6","2833","","","","","","","","","<img src= ""rock_img/I_Pegmatite_03.jpg"" style=""width:8cm; height:5.239999999999999cm;""><p>What type of rock is this?</p>","5","class_response","1","test","14","Pegmatite","Pegmatite","03","true","6","6","",""
"","","","","","","","","","","","html-keyboard-response","232","2.0.0","553497","66d5356d68b8671e3c24ecf9","2","6","null","","","","","","","","","<p style='font-size: 30px;'><strong>Okay</strong></p>","null","neutral_feedback","1","test","14","","","","","","","",""
"","","","","","","","","","","","html-button-response","233","2.0.0","556348","66d5356d68b8671e3c24ecf9","2","6","2849","","","","","","","","","<img src= ""rock_img/I_Peridotite_08.jpg"" style=""width:8cm; height:6.7cm;""><p>What type of rock is this?</p>","6","class_response","1","test","15","Peridotite","Peridotite","08","true","7","7","",""
"","","","","","","","","","","","html-keyboard-response","234","2.0.0","556862","66d5356d68b8671e3c24ecf9","2","6","null","","","","","","","","","<p style='font-size: 30px;'><strong>Okay</strong></p>","null","neutral_feedback","1","test","15","","","","","","","",""
"","","","","","","","","","","","html-button-response","235","2.0.0","560397","66d5356d68b8671e3c24ecf9","2","6","3532","","","","","","","","","<img src= ""rock_img/I_Basalt_12.jpg"" style=""width:8cm; height:6.010000000000001cm;""><p>What type of rock is this?</p>","3","class_response","1","test","16","Gabbro","Basalt","12","false","4","2","",""
"","","","","","","","","","","","html-keyboard-response","236","2.0.0","560902","66d5356d68b8671e3c24ecf9","2","6","null","","","","","","","","","<p style='font-size: 30px;'><strong>Okay</strong></p>","null","neutral_feedback","1","test","16","","","","","","","",""
"","","","","","","","","","","","html-button-response","237","2.0.0","562595","66d5356d68b8671e3c24ecf9","2","6","1691","","","","","","","","","<img src= ""rock_img/I_Basalt_11.jpg"" style=""width:8cm; height:5.359999999999999cm;""><p>What type of rock is this?</p>","7","class_response","1","test","17","Pumice","Basalt","11","false","8","2","",""
"","","","","","","","","","","","html-keyboard-response","238","2.0.0","563103","66d5356d68b8671e3c24ecf9","2","6","null","","","","","","","","","<p style='font-size: 30px;'><strong>Okay</strong></p>","null","neutral_feedback","1","test","17","","","","","","","",""
"","","","","","","","","","","","html-button-response","239","2.0.0","564810","66d5356d68b8671e3c24ecf9","2","6","1705","","","","","","","","","<img src= ""rock_img/I_Diorite_14.jpg"" style=""width:8cm; height:5.71cm;""><p>What type of rock is this?</p>","2","class_response","1","test","18","Diorite","Diorite","14","true","3","3","",""
"","","","","","","","","","","","html-keyboard-response","240","2.0.0","565324","66d5356d68b8671e3c24ecf9","2","6","null","","","","","","","","","<p style='font-size: 30px;'><strong>Okay</strong></p>","null","neutral_feedback","1","test","18","","","","","","","",""
"","","","","","","","","","","","html-button-response","241","2.0.0","567076","66d5356d68b8671e3c24ecf9","2","6","1749","","","","","","","","","<img src= ""rock_img/I_Obsidian_04.jpg"" style=""width:8cm; height:6.930000000000001cm;""><p>What type of rock is this?</p>","4","class_response","1","test","19","Obsidian","Obsidian","04","true","5","5","",""
"","","","","","","","","","","","html-keyboard-response","242","2.0.0","567582","66d5356d68b8671e3c24ecf9","2","6","null","","","","","","","","","<p style='font-size: 30px;'><strong>Okay</strong></p>","null","neutral_feedback","1","test","19","","","","","","","",""
"","","","","","","","","","","","html-button-response","243","2.0.0","570659","66d5356d68b8671e3c24ecf9","2","6","3074","","","","","","","","","<img src= ""rock_img/I_Gabbro_16.jpg"" style=""width:8cm; height:6.44cm;""><p>What type of rock is this?</p>","1","class_response","1","test","20","Basalt","Gabbro","16","false","2","4","",""
"","","","","","","","","","","","html-keyboard-response","244","2.0.0","571165","66d5356d68b8671e3c24ecf9","2","6","null","","","","","","","","","<p style='font-size: 30px;'><strong>Okay</strong></p>","null","neutral_feedback","1","test","20","","","","","","","",""
"","","","","","","","","","","","html-button-response","245","2.0.0","575922","66d5356d68b8671e3c24ecf9","2","6","4755","","","","","","","","","<img src= ""rock_img/I_Pegmatite_07.jpg"" style=""width:8cm; height:6.7cm;""><p>What type of rock is this?</p>","5","class_response","1","test","21","Pegmatite","Pegmatite","07","true","6","6","",""
"","","","","","","","","","","","html-keyboard-response","246","2.0.0","576429","66d5356d68b8671e3c24ecf9","2","6","null","","","","","","","","","<p style='font-size: 30px;'><strong>Okay</strong></p>","null","neutral_feedback","1","test","21","","","","","","","",""
"","","","","","","","","","","","html-button-response","247","2.0.0","578281","66d5356d68b8671e3c24ecf9","2","6","1849","","","","","","","","","<img src= ""rock_img/I_Basalt_04.jpg"" style=""width:8cm; height:7.53cm;""><p>What type of rock is this?</p>","1","class_response","1","test","22","Basalt","Basalt","04","true","2","2","",""
"","","","","","","","","","","","html-keyboard-response","248","2.0.0","578795","66d5356d68b8671e3c24ecf9","2","6","null","","","","","","","","","<p style='font-size: 30px;'><strong>Okay</strong></p>","null","neutral_feedback","1","test","22","","","","","","","",""
"","","","","","","","","","","","html-button-response","249","2.0.0","580697","66d5356d68b8671e3c24ecf9","2","6","1901","","","","","","","","","<img src= ""rock_img/I_Diorite_13.jpg"" style=""width:8cm; height:6.29cm;""><p>What type of rock is this?</p>","2","class_response","1","test","23","Diorite","Diorite","13","true","3","3","",""
"","","","","","","","","","","","html-keyboard-response","250","2.0.0","581201","66d5356d68b8671e3c24ecf9","2","6","null","","","","","","","","","<p style='font-size: 30px;'><strong>Okay</strong></p>","null","neutral_feedback","1","test","23","","","","","","","",""
"","","","","","","","","","","","html-button-response","251","2.0.0","583254","66d5356d68b8671e3c24ecf9","2","6","2050","","","","","","","","","<img src= ""rock_img/I_Diorite_06.jpg"" style=""width:8cm; height:6.03cm;""><p>What type of rock is this?</p>","2","class_response","1","test","24","Diorite","Diorite","06","true","3","3","",""
"","","","","","","","","","","","html-keyboard-response","252","2.0.0","583759","66d5356d68b8671e3c24ecf9","2","6","null","","","","","","","","","<p style='font-size: 30px;'><strong>Okay</strong></p>","null","neutral_feedback","1","test","24","","","","","","","",""
"","","","","","","","","","","","html-button-response","253","2.0.0","585519","66d5356d68b8671e3c24ecf9","2","6","1757","","","","","","","","","<img src= ""rock_img/I_Obsidian_06.jpg"" style=""width:8cm; height:6.8cm;""><p>What type of rock is this?</p>","4","class_response","1","test","25","Obsidian","Obsidian","06","true","5","5","",""
"","","","","","","","","","","","html-keyboard-response","254","2.0.0","586033","66d5356d68b8671e3c24ecf9","2","6","null","","","","","","","","","<p style='font-size: 30px;'><strong>Okay</strong></p>","null","neutral_feedback","1","test","25","","","","","","","",""
"","","","","","","","","","","","html-button-response","255","2.0.0","588477","66d5356d68b8671e3c24ecf9","2","6","2441","","","","","","","","","<img src= ""rock_img/I_Pegmatite_06.jpg"" style=""width:8cm; height:5.17cm;""><p>What type of rock is this?</p>","5","class_response","1","test","26","Pegmatite","Pegmatite","06","true","6","6","",""
"","","","","","","","","","","","html-keyboard-response","256","2.0.0","588981","66d5356d68b8671e3c24ecf9","2","6","null","","","","","","","","","<p style='font-size: 30px;'><strong>Okay</strong></p>","null","neutral_feedback","1","test","26","","","","","","","",""
"","","","","","","","","","","","html-button-response","257","2.0.0","590830","66d5356d68b8671e3c24ecf9","2","6","1846","","","","","","","","","<img src= ""rock_img/I_Basalt_05.jpg"" style=""width:8cm; height:8.18cm;""><p>What type of rock is this?</p>","0","class_response","1","test","27","Andesite","Basalt","05","false","1","2","",""
"","","","","","","","","","","","html-keyboard-response","258","2.0.0","591340","66d5356d68b8671e3c24ecf9","2","6","null","","","","","","","","","<p style='font-size: 30px;'><strong>Okay</strong></p>","null","neutral_feedback","1","test","27","","","","","","","",""
"","","","","","","","","","","","html-button-response","259","2.0.0","594300","66d5356d68b8671e3c24ecf9","2","6","2957","","","","","","","","","<img src= ""rock_img/I_Andesite_14.jpg"" style=""width:8cm; height:5.449999999999999cm;""><p>What type of rock is this?</p>","2","class_response","1","test","28","Diorite","Andesite","14","false","3","1","",""
"","","","","","","","","","","","html-keyboard-response","260","2.0.0","594807","66d5356d68b8671e3c24ecf9","2","6","null","","","","","","","","","<p style='font-size: 30px;'><strong>Okay</strong></p>","null","neutral_feedback","1","test","28","","","","","","","",""
"","","","","","","","","","","","html-button-response","261","2.0.0","597265","66d5356d68b8671e3c24ecf9","2","6","2456","","","","","","","","","<img src= ""rock_img/I_Andesite_04.jpg"" style=""width:8cm; height:5.96cm;""><p>What type of rock is this?</p>","0","class_response","1","test","29","Andesite","Andesite","04","true","1","1","",""
"","","","","","","","","","","","html-keyboard-response","262","2.0.0","597778","66d5356d68b8671e3c24ecf9","2","6","null","","","","","","","","","<p style='font-size: 30px;'><strong>Okay</strong></p>","null","neutral_feedback","1","test","29","","","","","","","",""
"","","","","","","","","","","","html-button-response","263","2.0.0","599658","66d5356d68b8671e3c24ecf9","2","6","1877","","","","","","","","","<img src= ""rock_img/I_Pegmatite_10.jpg"" style=""width:8cm; height:4.16cm;""><p>What type of rock is this?</p>","6","class_response","1","test","30","Peridotite","Pegmatite","10","false","7","6","",""
"","","","","","","","","","","","html-keyboard-response","264","2.0.0","600175","66d5356d68b8671e3c24ecf9","2","6","null","","","","","","","","","<p style='font-size: 30px;'><strong>Okay</strong></p>","null","neutral_feedback","1","test","30","","","","","","","",""
"","","","","","","","","","","","html-button-response","265","2.0.0","603438","66d5356d68b8671e3c24ecf9","2","6","3260","","","","","","","","","<img src= ""rock_img/I_Andesite_02.jpg"" style=""width:8cm; height:8.5cm;""><p>What type of rock is this?</p>","5","class_response","1","test","31","Pegmatite","Andesite","02","false","6","1","",""
"","","","","","","","","","","","html-keyboard-response","266","2.0.0","603949","66d5356d68b8671e3c24ecf9","2","6","null","","","","","","","","","<p style='font-size: 30px;'><strong>Okay</strong></p>","null","neutral_feedback","1","test","31","","","","","","","",""
"","","","","","","","","","","","html-button-response","267","2.0.0","606821","66d5356d68b8671e3c24ecf9","2","6","2870","","","","","","","","","<img src= ""rock_img/I_Peridotite_14.jpg"" style=""width:8cm; height:5.3cm;""><p>What type of rock is this?</p>","3","class_response","1","test","32","Gabbro","Peridotite","14","false","4","7","",""
"","","","","","","","","","","","html-keyboard-response","268","2.0.0","607326","66d5356d68b8671e3c24ecf9","2","6","null","","","","","","","","","<p style='font-size: 30px;'><strong>Okay</strong></p>","null","neutral_feedback","1","test","32","","","","","","","",""
"","","","","","","","","","","","html-button-response","269","2.0.0","608927","66d5356d68b8671e3c24ecf9","2","6","1599","","","","","","","","","<img src= ""rock_img/I_Diorite_16.jpg"" style=""width:8cm; height:6.74cm;""><p>What type of rock is this?</p>","2","class_response","1","test","33","Diorite","Diorite","16","true","3","3","",""
"","","","","","","","","","","","html-keyboard-response","270","2.0.0","609432","66d5356d68b8671e3c24ecf9","2","6","null","","","","","","","","","<p style='font-size: 30px;'><strong>Okay</strong></p>","null","neutral_feedback","1","test","33","","","","","","","",""
"","","","","","","","","","","","html-button-response","271","2.0.0","611926","66d5356d68b8671e3c24ecf9","2","6","2491","","","","","","","","","<img src= ""rock_img/I_Diorite_15.jpg"" style=""width:8cm; height:5.54cm;""><p>What type of rock is this?</p>","3","class_response","1","test","34","Gabbro","Diorite","15","false","4","3","",""
"","","","","","","","","","","","html-keyboard-response","272","2.0.0","612439","66d5356d68b8671e3c24ecf9","2","6","null","","","","","","","","","<p style='font-size: 30px;'><strong>Okay</strong></p>","null","neutral_feedback","1","test","34","","","","","","","",""
"","","","","","","","","","","","html-button-response","273","2.0.0","614390","66d5356d68b8671e3c24ecf9","2","6","1949","","","","","","","","","<img src= ""rock_img/I_Gabbro_10.jpg"" style=""width:8cm; height:5.680000000000001cm;""><p>What type of rock is this?</p>","4","class_response","1","test","35","Obsidian","Gabbro","10","false","5","4","",""
"","","","","","","","","","","","html-keyboard-response","274","2.0.0","614902","66d5356d68b8671e3c24ecf9","2","6","null","","","","","","","","","<p style='font-size: 30px;'><strong>Okay</strong></p>","null","neutral_feedback","1","test","35","","","","","","","",""
"","","","","","","","","","","","html-button-response","275","2.0.0","617250","66d5356d68b8671e3c24ecf9","2","6","2345","","","","","","","","","<img src= ""rock_img/I_Pumice_03.jpg"" style=""width:8cm; height:6.64cm;""><p>What type of rock is this?</p>","7","class_response","1","test","36","Pumice","Pumice","03","true","8","8","",""
"","","","","","","","","","","","html-keyboard-response","276","2.0.0","617751","66d5356d68b8671e3c24ecf9","2","6","null","","","","","","","","","<p style='font-size: 30px;'><strong>Okay</strong></p>","null","neutral_feedback","1","test","36","","","","","","","",""
"","","","","","","","","","","","html-button-response","277","2.0.0","620722","66d5356d68b8671e3c24ecf9","2","6","2968","","","","","","","","","<img src= ""rock_img/I_Gabbro_13.jpg"" style=""width:8cm; height:5.08cm;""><p>What type of rock is this?</p>","1","class_response","1","test","37","Basalt","Gabbro","13","false","2","4","",""
"","","","","","","","","","","","html-keyboard-response","278","2.0.0","621235","66d5356d68b8671e3c24ecf9","2","6","null","","","","","","","","","<p style='font-size: 30px;'><strong>Okay</strong></p>","null","neutral_feedback","1","test","37","","","","","","","",""
"","","","","","","","","","","","html-button-response","279","2.0.0","623587","66d5356d68b8671e3c24ecf9","2","6","2349","","","","","","","","","<img src= ""rock_img/I_Pumice_13.jpg"" style=""width:8cm; height:8.200000000000001cm;""><p>What type of rock is this?</p>","7","class_response","1","test","38","Pumice","Pumice","13","true","8","8","",""
"","","","","","","","","","","","html-keyboard-response","280","2.0.0","624102","66d5356d68b8671e3c24ecf9","2","6","null","","","","","","","","","<p style='font-size: 30px;'><strong>Okay</strong></p>","null","neutral_feedback","1","test","38","","","","","","","",""
"","","","","","","","","","","","html-button-response","281","2.0.0","626261","66d5356d68b8671e3c24ecf9","2","6","2157","","","","","","","","","<img src= ""rock_img/I_Pumice_08.jpg"" style=""width:8cm; height:6.67cm;""><p>What type of rock is this?</p>","7","class_response","1","test","39","Pumice","Pumice","08","true","8","8","",""
"","","","","","","","","","","","html-keyboard-response","282","2.0.0","626768","66d5356d68b8671e3c24ecf9","2","6","null","","","","","","","","","<p style='font-size: 30px;'><strong>Okay</strong></p>","null","neutral_feedback","1","test","39","","","","","","","",""
"","","","","","","","","","","","html-button-response","283","2.0.0","628734","66d5356d68b8671e3c24ecf9","2","6","1964","","","","","","","","","<img src= ""rock_img/I_Peridotite_12.jpg"" style=""width:8cm; height:4.54cm;""><p>What type of rock is this?</p>","6","class_response","1","test","40","Peridotite","Peridotite","12","true","7","7","",""
"","","","","","","","","","","","html-keyboard-response","284","2.0.0","629244","66d5356d68b8671e3c24ecf9","2","6","null","","","","","","","","","<p style='font-size: 30px;'><strong>Okay</strong></p>","null","neutral_feedback","1","test","40","","","","","","","",""
"","","","","","","","","","","","html-button-response","285","2.0.0","633591","66d5356d68b8671e3c24ecf9","2","6","4345","","","","","","","","","<img src= ""rock_img/I_Pegmatite_05.jpg"" style=""width:8cm; height:7.300000000000001cm;""><p>What type of rock is this?</p>","2","class_response","1","test","41","Diorite","Pegmatite","05","false","3","6","",""
"","","","","","","","","","","","html-keyboard-response","286","2.0.0","634098","66d5356d68b8671e3c24ecf9","2","6","null","","","","","","","","","<p style='font-size: 30px;'><strong>Okay</strong></p>","null","neutral_feedback","1","test","41","","","","","","","",""
"","","","","","","","","","","","html-button-response","287","2.0.0","636357","66d5356d68b8671e3c24ecf9","2","6","2257","","","","","","","","","<img src= ""rock_img/I_Basalt_16.jpg"" style=""width:8cm; height:7.659999999999999cm;""><p>What type of rock is this?</p>","1","class_response","1","test","42","Basalt","Basalt","16","true","2","2","",""
"","","","","","","","","","","","html-keyboard-response","288","2.0.0","636869","66d5356d68b8671e3c24ecf9","2","6","null","","","","","","","","","<p style='font-size: 30px;'><strong>Okay</strong></p>","null","neutral_feedback","1","test","42","","","","","","","",""
"","","","","","","","","","","","html-button-response","289","2.0.0","638849","66d5356d68b8671e3c24ecf9","2","6","1976","","","","","","","","","<img src= ""rock_img/I_Obsidian_16.jpg"" style=""width:8cm; height:9.3cm;""><p>What type of rock is this?</p>","4","class_response","1","test","43","Obsidian","Obsidian","16","true","5","5","",""
"","","","","","","","","","","","html-keyboard-response","290","2.0.0","639360","66d5356d68b8671e3c24ecf9","2","6","null","","","","","","","","","<p style='font-size: 30px;'><strong>Okay</strong></p>","null","neutral_feedback","1","test","43","","","","","","","",""
"","","","","","","","","","","","html-button-response","291","2.0.0","641389","66d5356d68b8671e3c24ecf9","2","6","2026","","","","","","","","","<img src= ""rock_img/I_Pumice_06.jpg"" style=""width:8cm; height:6.9399999999999995cm;""><p>What type of rock is this?</p>","7","class_response","1","test","44","Pumice","Pumice","06","true","8","8","",""
"","","","","","","","","","","","html-keyboard-response","292","2.0.0","641910","66d5356d68b8671e3c24ecf9","2","6","null","","","","","","","","","<p style='font-size: 30px;'><strong>Okay</strong></p>","null","neutral_feedback","1","test","44","","","","","","","",""
"","","","","","","","","","","","html-button-response","293","2.0.0","644471","66d5356d68b8671e3c24ecf9","2","6","2558","","","","","","","","","<img src= ""rock_img/I_Andesite_09.jpg"" style=""width:8cm; height:6cm;""><p>What type of rock is this?</p>","3","class_response","1","test","45","Gabbro","Andesite","09","false","4","1","",""
"","","","","","","","","","","","html-keyboard-response","294","2.0.0","644973","66d5356d68b8671e3c24ecf9","2","6","null","","","","","","","","","<p style='font-size: 30px;'><strong>Okay</strong></p>","null","neutral_feedback","1","test","45","","","","","","","",""
"","","","","","","","","","","","html-button-response","295","2.0.0","646670","66d5356d68b8671e3c24ecf9","2","6","1695","","","","","","","","","<img src= ""rock_img/I_Pumice_09.jpg"" style=""width:8cm; height:6.44cm;""><p>What type of rock is this?</p>","7","class_response","1","test","46","Pumice","Pumice","09","true","8","8","",""
"","","","","","","","","","","","html-keyboard-response","296","2.0.0","647176","66d5356d68b8671e3c24ecf9","2","6","null","","","","","","","","","<p style='font-size: 30px;'><strong>Okay</strong></p>","null","neutral_feedback","1","test","46","","","","","","","",""
"","","","","","","","","","","","html-button-response","297","2.0.0","649077","66d5356d68b8671e3c24ecf9","2","6","1899","","","","","","","","","<img src= ""rock_img/I_Obsidian_11.jpg"" style=""width:8cm; height:6.05cm;""><p>What type of rock is this?</p>","4","class_response","1","test","47","Obsidian","Obsidian","11","true","5","5","",""
"","","","","","","","","","","","html-keyboard-response","298","2.0.0","649590","66d5356d68b8671e3c24ecf9","2","6","null","","","","","","","","","<p style='font-size: 30px;'><strong>Okay</strong></p>","null","neutral_feedback","1","test","47","","","","","","","",""
"","","","","","","","","","","","html-button-response","299","2.0.0","652818","66d5356d68b8671e3c24ecf9","2","6","3225","","","","","","","","","<img src= ""rock_img/I_Gabbro_15.jpg"" style=""width:8cm; height:6.29cm;""><p>What type of rock is this?</p>","5","class_response","1","test","48","Pegmatite","Gabbro","15","false","6","4","",""
"","","","","","","","","","","","html-keyboard-response","300","2.0.0","653321","66d5356d68b8671e3c24ecf9","2","6","null","","","","","","","","","<p style='font-size: 30px;'><strong>Okay</strong></p>","null","neutral_feedback","1","test","48","","","","","","","",""
"","","","","","","","","","","","html-button-response","301","2.0.0","686188","66d5356d68b8671e3c24ecf9","2","6","","","","","","","","","","","","cycle_feedback","","","","","","","","","","11418.5","21441.40000000596"
"","","","","","","","","","","","html-button-response","303","2.0.0","687928","66d5356d68b8671e3c24ecf9","2","6","1738","","","","","","","","","","0","start_train","","","","","","","","","","",""
"","","","","","","","","","","","html-button-response","304","2.0.0","692035","66d5356d68b8671e3c24ecf9","2","6","4105","","","","","","","","","<img src= ""rock_img/I_Pegmatite_15.jpg"" style=""width:8cm; height:6cm;""><p>What type of rock is this?</p>","5","class_response","2","train","1","Pegmatite","Pegmatite","15","true","6","6","",""
"","","","","","","","","","","","html-button-response","305","2.0.0","693659","66d5356d68b8671e3c24ecf9","2","6","1622","","","","","","","","","<img src= rock_img/I_Pegmatite_15.jpg style=""width:8cm; height:6cm;""><p style='font-size: 30px; color: green;'><strong>Correct!</strong></p><p style='font-size: 30px;'><strong>This rock is pegmatite</strong></p>","0","corr_feedback","2","train","1","","","","","","","",""
