"width","height","webaudio","browser","browser_version","mobile","os","fullscreen","vsync_rate","webcam","microphone","trial_type","trial_index","plugin_version","time_elapsed","subjID","condition","stimID","rt","url","success","value","timeout","failed_images","failed_audio","failed_video","view_history","stimulus","response","trialType","cycle","phase","trial","resp","cat","token","corr","resp_num","cat_num","time_fb1","time_fb2"
"1366","633","true","chrome","131.0.0","false","Windows 10","true","59.75","true","true","browser-check","0","2.0.0","1050","667c732c4bbadc60b6a72bee","2","43","","","","","","","","","","","","","","","","","","","","","","",""
"","","","","","","","","","","","external-html","1","2.0.0","35353","667c732c4bbadc60b6a72bee","2","43","34223","consent_form.html","","","","","","","","","","","","","","","","","","","","",""
"","","","","","","","","","","","fullscreen","2","2.0.0","38783","667c732c4bbadc60b6a72bee","2","43","2421","","true","","","","","","","","","","","","","","","","","","","",""
"","","","","","","","","","","","call-function","3","2.0.0","38785","667c732c4bbadc60b6a72bee","2","43","","","","{}","","","","","","","","","","","","","","","","","","",""
"","","","","","","","","","","","preload","4","2.0.0","48808","667c732c4bbadc60b6a72bee","2","43","","","true","","false","[]","[]","[]","","","","","","","","","","","","","","",""
"","","","","","","","","","","","instructions","5","2.0.0","82896","667c732c4bbadc60b6a72bee","2","43","34084","","","","","","","","[{""page_index"":0,""viewing_time"":5823},{""page_index"":1,""viewing_time"":18133},{""page_index"":2,""viewing_time"":10129}]","","","","","","","","","","","","","",""
"","","","","","","","","","","","html-button-response","6","2.0.0","87253","667c732c4bbadc60b6a72bee","2","43","4351","","","","","","","","","","0","start_test","","","","","","","","","","",""
"","","","","","","","","","","","html-button-response","7","2.0.0","103603","667c732c4bbadc60b6a72bee","2","43","16344","","","","","","","","","<img src= ""rock_img/I_Gabbro_12.jpg"" style=""width:8cm; height:7.800000000000001cm;""><p>What type of rock is this?</p>","2","class_response","0","test","1","Diorite","Gabbro","12","false","3","4","",""
"","","","","","","","","","","","html-keyboard-response","8","2.0.0","104117","667c732c4bbadc60b6a72bee","2","43","null","","","","","","","","","<p style='font-size: 30px;'><strong>Okay</strong></p>","null","neutral_feedback","0","test","1","","","","","","","",""
"","","","","","","","","","","","html-button-response","9","2.0.0","107219","667c732c4bbadc60b6a72bee","2","43","3098","","","","","","","","","<img src= ""rock_img/I_Obsidian_14.jpg"" style=""width:8cm; height:7.64cm;""><p>What type of rock is this?</p>","4","class_response","0","test","2","Obsidian","Obsidian","14","true","5","5","",""
"","","","","","","","","","","","html-keyboard-response","10","2.0.0","107732","667c732c4bbadc60b6a72bee","2","43","null","","","","","","","","","<p style='font-size: 30px;'><strong>Okay</strong></p>","null","neutral_feedback","0","test","2","","","","","","","",""
"","","","","","","","","","","","html-button-response","11","2.0.0","113878","667c732c4bbadc60b6a72bee","2","43","6142","","","","","","","","","<img src= ""rock_img/I_Diorite_13.jpg"" style=""width:8cm; height:6.29cm;""><p>What type of rock is this?</p>","5","class_response","0","test","3","Pegmatite","Diorite","13","false","6","3","",""
"","","","","","","","","","","","html-keyboard-response","12","2.0.0","114394","667c732c4bbadc60b6a72bee","2","43","null","","","","","","","","","<p style='font-size: 30px;'><strong>Okay</strong></p>","null","neutral_feedback","0","test","3","","","","","","","",""
"","","","","","","","","","","","html-button-response","13","2.0.0","116530","667c732c4bbadc60b6a72bee","2","43","2132","","","","","","","","","<img src= ""rock_img/I_Basalt_12.jpg"" style=""width:8cm; height:6.010000000000001cm;""><p>What type of rock is this?</p>","7","class_response","0","test","4","Pumice","Basalt","12","false","8","2","",""
"","","","","","","","","","","","html-keyboard-response","14","2.0.0","117044","667c732c4bbadc60b6a72bee","2","43","null","","","","","","","","","<p style='font-size: 30px;'><strong>Okay</strong></p>","null","neutral_feedback","0","test","4","","","","","","","",""
"","","","","","","","","","","","html-button-response","15","2.0.0","120069","667c732c4bbadc60b6a72bee","2","43","3022","","","","","","","","","<img src= ""rock_img/I_Diorite_14.jpg"" style=""width:8cm; height:5.71cm;""><p>What type of rock is this?</p>","2","class_response","0","test","5","Diorite","Diorite","14","true","3","3","",""
"","","","","","","","","","","","html-keyboard-response","16","2.0.0","120584","667c732c4bbadc60b6a72bee","2","43","null","","","","","","","","","<p style='font-size: 30px;'><strong>Okay</strong></p>","null","neutral_feedback","0","test","5","","","","","","","",""
"","","","","","","","","","","","html-button-response","17","2.0.0","122230","667c732c4bbadc60b6a72bee","2","43","1643","","","","","","","","","<img src= ""rock_img/I_Obsidian_08.jpg"" style=""width:8cm; height:7.39cm;""><p>What type of rock is this?</p>","4","class_response","0","test","6","Obsidian","Obsidian","08","true","5","5","",""
"","","","","","","","","","","","html-keyboard-response","18","2.0.0","122747","667c732c4bbadc60b6a72bee","2","43","null","","","","","","","","","<p style='font-size: 30px;'><strong>Okay</strong></p>","null","neutral_feedback","0","test","6","","","","","","","",""
"","","","","","","","","","","","html-button-response","19","2.0.0","124831","667c732c4bbadc60b6a72bee","2","43","2079","","","","","","","","","<img src= ""rock_img/I_Peridotite_16.jpg"" style=""width:8cm; height:6.989999999999999cm;""><p>What type of rock is this?</p>","6","class_response","0","test","7","Peridotite","Peridotite","16","true","7","7","",""
"","","","","","","","","","","","html-keyboard-response","20","2.0.0","125336","667c732c4bbadc60b6a72bee","2","43","null","","","","","","","","","<p style='font-size: 30px;'><strong>Okay</strong></p>","null","neutral_feedback","0","test","7","","","","","","","",""
"","","","","","","","","","","","html-button-response","21","2.0.0","128795","667c732c4bbadc60b6a72bee","2","43","3456","","","","","","","","","<img src= ""rock_img/I_Andesite_03.jpg"" style=""width:8cm; height:5.73cm;""><p>What type of rock is this?</p>","5","class_response","0","test","8","Pegmatite","Andesite","03","false","6","1","",""
"","","","","","","","","","","","html-keyboard-response","22","2.0.0","129305","667c732c4bbadc60b6a72bee","2","43","null","","","","","","","","","<p style='font-size: 30px;'><strong>Okay</strong></p>","null","neutral_feedback","0","test","8","","","","","","","",""
"","","","","","","","","","","","html-button-response","23","2.0.0","131318","667c732c4bbadc60b6a72bee","2","43","2009","","","","","","","","","<img src= ""rock_img/I_Gabbro_08.jpg"" style=""width:8cm; height:5.15cm;""><p>What type of rock is this?</p>","5","class_response","0","test","9","Pegmatite","Gabbro","08","false","6","4","",""
"","","","","","","","","","","","html-keyboard-response","24","2.0.0","131829","667c732c4bbadc60b6a72bee","2","43","null","","","","","","","","","<p style='font-size: 30px;'><strong>Okay</strong></p>","null","neutral_feedback","0","test","9","","","","","","","",""
"","","","","","","","","","","","html-button-response","25","2.0.0","135379","667c732c4bbadc60b6a72bee","2","43","3547","","","","","","","","","<img src= ""rock_img/I_Gabbro_14.jpg"" style=""width:8cm; height:8.48cm;""><p>What type of rock is this?</p>","6","class_response","0","test","10","Peridotite","Gabbro","14","false","7","4","",""
"","","","","","","","","","","","html-keyboard-response","26","2.0.0","135886","667c732c4bbadc60b6a72bee","2","43","null","","","","","","","","","<p style='font-size: 30px;'><strong>Okay</strong></p>","null","neutral_feedback","0","test","10","","","","","","","",""
"","","","","","","","","","","","html-button-response","27","2.0.0","137734","667c732c4bbadc60b6a72bee","2","43","1845","","","","","","","","","<img src= ""rock_img/I_Pumice_02.jpg"" style=""width:8cm; height:7.3999999999999995cm;""><p>What type of rock is this?</p>","7","class_response","0","test","11","Pumice","Pumice","02","true","8","8","",""
"","","","","","","","","","","","html-keyboard-response","28","2.0.0","138238","667c732c4bbadc60b6a72bee","2","43","null","","","","","","","","","<p style='font-size: 30px;'><strong>Okay</strong></p>","null","neutral_feedback","0","test","11","","","","","","","",""
"","","","","","","","","","","","html-button-response","29","2.0.0","139714","667c732c4bbadc60b6a72bee","2","43","1473","","","","","","","","","<img src= ""rock_img/I_Pumice_05.jpg"" style=""width:8cm; height:7.25cm;""><p>What type of rock is this?</p>","7","class_response","0","test","12","Pumice","Pumice","05","true","8","8","",""
"","","","","","","","","","","","html-keyboard-response","30","2.0.0","140231","667c732c4bbadc60b6a72bee","2","43","null","","","","","","","","","<p style='font-size: 30px;'><strong>Okay</strong></p>","null","neutral_feedback","0","test","12","","","","","","","",""
"","","","","","","","","","","","html-button-response","31","2.0.0","142452","667c732c4bbadc60b6a72bee","2","43","2217","","","","","","","","","<img src= ""rock_img/I_Gabbro_09.jpg"" style=""width:8cm; height:7.279999999999999cm;""><p>What type of rock is this?</p>","5","class_response","0","test","13","Pegmatite","Gabbro","09","false","6","4","",""
"","","","","","","","","","","","html-keyboard-response","32","2.0.0","142968","667c732c4bbadc60b6a72bee","2","43","null","","","","","","","","","<p style='font-size: 30px;'><strong>Okay</strong></p>","null","neutral_feedback","0","test","13","","","","","","","",""
"","","","","","","","","","","","html-button-response","33","2.0.0","145881","667c732c4bbadc60b6a72bee","2","43","2909","","","","","","","","","<img src= ""rock_img/I_Pumice_13.jpg"" style=""width:8cm; height:8.200000000000001cm;""><p>What type of rock is this?</p>","7","class_response","0","test","14","Pumice","Pumice","13","true","8","8","",""
"","","","","","","","","","","","html-keyboard-response","34","2.0.0","146392","667c732c4bbadc60b6a72bee","2","43","null","","","","","","","","","<p style='font-size: 30px;'><strong>Okay</strong></p>","null","neutral_feedback","0","test","14","","","","","","","",""
"","","","","","","","","","","","html-button-response","35","2.0.0","148616","667c732c4bbadc60b6a72bee","2","43","2221","","","","","","","","","<img src= ""rock_img/I_Diorite_16.jpg"" style=""width:8cm; height:6.74cm;""><p>What type of rock is this?</p>","2","class_response","0","test","15","Diorite","Diorite","16","true","3","3","",""
"","","","","","","","","","","","html-keyboard-response","36","2.0.0","149132","667c732c4bbadc60b6a72bee","2","43","null","","","","","","","","","<p style='font-size: 30px;'><strong>Okay</strong></p>","null","neutral_feedback","0","test","15","","","","","","","",""
"","","","","","","","","","","","html-button-response","37","2.0.0","152715","667c732c4bbadc60b6a72bee","2","43","3579","","","","","","","","","<img src= ""rock_img/I_Diorite_10.jpg"" style=""width:8cm; height:5.949999999999999cm;""><p>What type of rock is this?</p>","2","class_response","0","test","16","Diorite","Diorite","10","true","3","3","",""
"","","","","","","","","","","","html-keyboard-response","38","2.0.0","153232","667c732c4bbadc60b6a72bee","2","43","null","","","","","","","","","<p style='font-size: 30px;'><strong>Okay</strong></p>","null","neutral_feedback","0","test","16","","","","","","","",""
"","","","","","","","","","","","html-button-response","39","2.0.0","157250","667c732c4bbadc60b6a72bee","2","43","4016","","","","","","","","","<img src= ""rock_img/I_Basalt_16.jpg"" style=""width:8cm; height:7.659999999999999cm;""><p>What type of rock is this?</p>","1","class_response","0","test","17","Basalt","Basalt","16","true","2","2","",""
"","","","","","","","","","","","html-keyboard-response","40","2.0.0","157764","667c732c4bbadc60b6a72bee","2","43","null","","","","","","","","","<p style='font-size: 30px;'><strong>Okay</strong></p>","null","neutral_feedback","0","test","17","","","","","","","",""
"","","","","","","","","","","","html-button-response","41","2.0.0","161676","667c732c4bbadc60b6a72bee","2","43","3909","","","","","","","","","<img src= ""rock_img/I_Andesite_09.jpg"" style=""width:8cm; height:6cm;""><p>What type of rock is this?</p>","1","class_response","0","test","18","Basalt","Andesite","09","false","2","1","",""
"","","","","","","","","","","","html-keyboard-response","42","2.0.0","162185","667c732c4bbadc60b6a72bee","2","43","null","","","","","","","","","<p style='font-size: 30px;'><strong>Okay</strong></p>","null","neutral_feedback","0","test","18","","","","","","","",""
"","","","","","","","","","","","html-button-response","43","2.0.0","163863","667c732c4bbadc60b6a72bee","2","43","1674","","","","","","","","","<img src= ""rock_img/I_Peridotite_14.jpg"" style=""width:8cm; height:5.3cm;""><p>What type of rock is this?</p>","6","class_response","0","test","19","Peridotite","Peridotite","14","true","7","7","",""
"","","","","","","","","","","","html-keyboard-response","44","2.0.0","164377","667c732c4bbadc60b6a72bee","2","43","null","","","","","","","","","<p style='font-size: 30px;'><strong>Okay</strong></p>","null","neutral_feedback","0","test","19","","","","","","","",""
"","","","","","","","","","","","html-button-response","45","2.0.0","167681","667c732c4bbadc60b6a72bee","2","43","3299","","","","","","","","","<img src= ""rock_img/I_Andesite_01.jpg"" style=""width:8cm; height:5.87cm;""><p>What type of rock is this?</p>","2","class_response","0","test","20","Diorite","Andesite","01","false","3","1","",""
"","","","","","","","","","","","html-keyboard-response","46","2.0.0","168194","667c732c4bbadc60b6a72bee","2","43","null","","","","","","","","","<p style='font-size: 30px;'><strong>Okay</strong></p>","null","neutral_feedback","0","test","20","","","","","","","",""
"","","","","","","","","","","","html-button-response","47","2.0.0","172362","667c732c4bbadc60b6a72bee","2","43","4165","","","","","","","","","<img src= ""rock_img/I_Basalt_06.jpg"" style=""width:8cm; height:7.06cm;""><p>What type of rock is this?</p>","1","class_response","0","test","21","Basalt","Basalt","06","true","2","2","",""
"","","","","","","","","","","","html-keyboard-response","48","2.0.0","172876","667c732c4bbadc60b6a72bee","2","43","null","","","","","","","","","<p style='font-size: 30px;'><strong>Okay</strong></p>","null","neutral_feedback","0","test","21","","","","","","","",""
"","","","","","","","","","","","html-button-response","49","2.0.0","174378","667c732c4bbadc60b6a72bee","2","43","1498","","","","","","","","","<img src= ""rock_img/I_Pumice_10.jpg"" style=""width:8cm; height:7.609999999999999cm;""><p>What type of rock is this?</p>","7","class_response","0","test","22","Pumice","Pumice","10","true","8","8","",""
"","","","","","","","","","","","html-keyboard-response","50","2.0.0","174882","667c732c4bbadc60b6a72bee","2","43","null","","","","","","","","","<p style='font-size: 30px;'><strong>Okay</strong></p>","null","neutral_feedback","0","test","22","","","","","","","",""
"","","","","","","","","","","","html-button-response","51","2.0.0","176001","667c732c4bbadc60b6a72bee","2","43","1116","","","","","","","","","<img src= ""rock_img/I_Basalt_11.jpg"" style=""width:8cm; height:5.359999999999999cm;""><p>What type of rock is this?</p>","7","class_response","0","test","23","Pumice","Basalt","11","false","8","2","",""
"","","","","","","","","","","","html-keyboard-response","52","2.0.0","176512","667c732c4bbadc60b6a72bee","2","43","null","","","","","","","","","<p style='font-size: 30px;'><strong>Okay</strong></p>","null","neutral_feedback","0","test","23","","","","","","","",""
"","","","","","","","","","","","html-button-response","53","2.0.0","180300","667c732c4bbadc60b6a72bee","2","43","3786","","","","","","","","","<img src= ""rock_img/I_Basalt_04.jpg"" style=""width:8cm; height:7.53cm;""><p>What type of rock is this?</p>","1","class_response","0","test","24","Basalt","Basalt","04","true","2","2","",""
"","","","","","","","","","","","html-keyboard-response","54","2.0.0","180818","667c732c4bbadc60b6a72bee","2","43","null","","","","","","","","","<p style='font-size: 30px;'><strong>Okay</strong></p>","null","neutral_feedback","0","test","24","","","","","","","",""
"","","","","","","","","","","","html-button-response","55","2.0.0","182359","667c732c4bbadc60b6a72bee","2","43","1538","","","","","","","","","<img src= ""rock_img/I_Obsidian_09.jpg"" style=""width:8cm; height:5cm;""><p>What type of rock is this?</p>","4","class_response","0","test","25","Obsidian","Obsidian","09","true","5","5","",""
"","","","","","","","","","","","html-keyboard-response","56","2.0.0","182878","667c732c4bbadc60b6a72bee","2","43","null","","","","","","","","","<p style='font-size: 30px;'><strong>Okay</strong></p>","null","neutral_feedback","0","test","25","","","","","","","",""
"","","","","","","","","","","","html-button-response","57","2.0.0","185310","667c732c4bbadc60b6a72bee","2","43","2429","","","","","","","","","<img src= ""rock_img/I_Pegmatite_13.jpg"" style=""width:8cm; height:4.95cm;""><p>What type of rock is this?</p>","5","class_response","0","test","26","Pegmatite","Pegmatite","13","true","6","6","",""
"","","","","","","","","","","","html-keyboard-response","58","2.0.0","185823","667c732c4bbadc60b6a72bee","2","43","null","","","","","","","","","<p style='font-size: 30px;'><strong>Okay</strong></p>","null","neutral_feedback","0","test","26","","","","","","","",""
"","","","","","","","","","","","html-button-response","59","2.0.0","187881","667c732c4bbadc60b6a72bee","2","43","2055","","","","","","","","","<img src= ""rock_img/I_Peridotite_13.jpg"" style=""width:8cm; height:7.58cm;""><p>What type of rock is this?</p>","6","class_response","0","test","27","Peridotite","Peridotite","13","true","7","7","",""
"","","","","","","","","","","","html-keyboard-response","60","2.0.0","188395","667c732c4bbadc60b6a72bee","2","43","null","","","","","","","","","<p style='font-size: 30px;'><strong>Okay</strong></p>","null","neutral_feedback","0","test","27","","","","","","","",""
"","","","","","","","","","","","html-button-response","61","2.0.0","191749","667c732c4bbadc60b6a72bee","2","43","3350","","","","","","","","","<img src= ""rock_img/I_Peridotite_10.jpg"" style=""width:8cm; height:5.390000000000001cm;""><p>What type of rock is this?</p>","2","class_response","0","test","28","Diorite","Peridotite","10","false","3","7","",""
"","","","","","","","","","","","html-keyboard-response","62","2.0.0","192264","667c732c4bbadc60b6a72bee","2","43","null","","","","","","","","","<p style='font-size: 30px;'><strong>Okay</strong></p>","null","neutral_feedback","0","test","28","","","","","","","",""
"","","","","","","","","","","","html-button-response","63","2.0.0","194171","667c732c4bbadc60b6a72bee","2","43","1903","","","","","","","","","<img src= ""rock_img/I_Pumice_15.jpg"" style=""width:8cm; height:7.86cm;""><p>What type of rock is this?</p>","7","class_response","0","test","29","Pumice","Pumice","15","true","8","8","",""
"","","","","","","","","","","","html-keyboard-response","64","2.0.0","194684","667c732c4bbadc60b6a72bee","2","43","null","","","","","","","","","<p style='font-size: 30px;'><strong>Okay</strong></p>","null","neutral_feedback","0","test","29","","","","","","","",""
"","","","","","","","","","","","html-button-response","65","2.0.0","197300","667c732c4bbadc60b6a72bee","2","43","2612","","","","","","","","","<img src= ""rock_img/I_Pegmatite_08.jpg"" style=""width:8cm; height:7.68cm;""><p>What type of rock is this?</p>","2","class_response","0","test","30","Diorite","Pegmatite","08","false","3","6","",""
"","","","","","","","","","","","html-keyboard-response","66","2.0.0","197818","667c732c4bbadc60b6a72bee","2","43","null","","","","","","","","","<p style='font-size: 30px;'><strong>Okay</strong></p>","null","neutral_feedback","0","test","30","","","","","","","",""
"","","","","","","","","","","","html-button-response","67","2.0.0","199229","667c732c4bbadc60b6a72bee","2","43","1407","","","","","","","","","<img src= ""rock_img/I_Peridotite_05.jpg"" style=""width:8cm; height:7.1499999999999995cm;""><p>What type of rock is this?</p>","2","class_response","0","test","31","Diorite","Peridotite","05","false","3","7","",""
"","","","","","","","","","","","html-keyboard-response","68","2.0.0","199735","667c732c4bbadc60b6a72bee","2","43","null","","","","","","","","","<p style='font-size: 30px;'><strong>Okay</strong></p>","null","neutral_feedback","0","test","31","","","","","","","",""
"","","","","","","","","","","","html-button-response","69","2.0.0","202578","667c732c4bbadc60b6a72bee","2","43","2839","","","","","","","","","<img src= ""rock_img/I_Andesite_11.jpg"" style=""width:8cm; height:4.92cm;""><p>What type of rock is this?</p>","5","class_response","0","test","32","Pegmatite","Andesite","11","false","6","1","",""
"","","","","","","","","","","","html-keyboard-response","70","2.0.0","203083","667c732c4bbadc60b6a72bee","2","43","null","","","","","","","","","<p style='font-size: 30px;'><strong>Okay</strong></p>","null","neutral_feedback","0","test","32","","","","","","","",""
"","","","","","","","","","","","html-button-response","71","2.0.0","205846","667c732c4bbadc60b6a72bee","2","43","2759","","","","","","","","","<img src= ""rock_img/I_Pegmatite_06.jpg"" style=""width:8cm; height:5.17cm;""><p>What type of rock is this?</p>","0","class_response","0","test","33","Andesite","Pegmatite","06","false","1","6","",""
"","","","","","","","","","","","html-keyboard-response","72","2.0.0","206361","667c732c4bbadc60b6a72bee","2","43","null","","","","","","","","","<p style='font-size: 30px;'><strong>Okay</strong></p>","null","neutral_feedback","0","test","33","","","","","","","",""
"","","","","","","","","","","","html-button-response","73","2.0.0","207910","667c732c4bbadc60b6a72bee","2","43","1545","","","","","","","","","<img src= ""rock_img/I_Diorite_11.jpg"" style=""width:8cm; height:7.11cm;""><p>What type of rock is this?</p>","2","class_response","0","test","34","Diorite","Diorite","11","true","3","3","",""
"","","","","","","","","","","","html-keyboard-response","74","2.0.0","208422","667c732c4bbadc60b6a72bee","2","43","null","","","","","","","","","<p style='font-size: 30px;'><strong>Okay</strong></p>","null","neutral_feedback","0","test","34","","","","","","","",""
"","","","","","","","","","","","html-button-response","75","2.0.0","211477","667c732c4bbadc60b6a72bee","2","43","3052","","","","","","","","","<img src= ""rock_img/I_Gabbro_10.jpg"" style=""width:8cm; height:5.680000000000001cm;""><p>What type of rock is this?</p>","7","class_response","0","test","35","Pumice","Gabbro","10","false","8","4","",""
"","","","","","","","","","","","html-keyboard-response","76","2.0.0","211980","667c732c4bbadc60b6a72bee","2","43","null","","","","","","","","","<p style='font-size: 30px;'><strong>Okay</strong></p>","null","neutral_feedback","0","test","35","","","","","","","",""
"","","","","","","","","","","","html-button-response","77","2.0.0","213559","667c732c4bbadc60b6a72bee","2","43","1575","","","","","","","","","<img src= ""rock_img/I_Diorite_15.jpg"" style=""width:8cm; height:5.54cm;""><p>What type of rock is this?</p>","2","class_response","0","test","36","Diorite","Diorite","15","true","3","3","",""
"","","","","","","","","","","","html-keyboard-response","78","2.0.0","214067","667c732c4bbadc60b6a72bee","2","43","null","","","","","","","","","<p style='font-size: 30px;'><strong>Okay</strong></p>","null","neutral_feedback","0","test","36","","","","","","","",""
"","","","","","","","","","","","html-button-response","79","2.0.0","216826","667c732c4bbadc60b6a72bee","2","43","2755","","","","","","","","","<img src= ""rock_img/I_Pegmatite_07.jpg"" style=""width:8cm; height:6.7cm;""><p>What type of rock is this?</p>","6","class_response","0","test","37","Peridotite","Pegmatite","07","false","7","6","",""
"","","","","","","","","","","","html-keyboard-response","80","2.0.0","217335","667c732c4bbadc60b6a72bee","2","43","null","","","","","","","","","<p style='font-size: 30px;'><strong>Okay</strong></p>","null","neutral_feedback","0","test","37","","","","","","","",""
"","","","","","","","","","","","html-button-response","81","2.0.0","221325","667c732c4bbadc60b6a72bee","2","43","3987","","","","","","","","","<img src= ""rock_img/I_Pegmatite_09.jpg"" style=""width:8cm; height:4.03cm;""><p>What type of rock is this?</p>","3","class_response","0","test","38","Gabbro","Pegmatite","09","false","4","6","",""
"","","","","","","","","","","","html-keyboard-response","82","2.0.0","221834","667c732c4bbadc60b6a72bee","2","43","null","","","","","","","","","<p style='font-size: 30px;'><strong>Okay</strong></p>","null","neutral_feedback","0","test","38","","","","","","","",""
"","","","","","","","","","","","html-button-response","83","2.0.0","224461","667c732c4bbadc60b6a72bee","2","43","2624","","","","","","","","","<img src= ""rock_img/I_Andesite_07.jpg"" style=""width:8cm; height:5.93cm;""><p>What type of rock is this?</p>","1","class_response","0","test","39","Basalt","Andesite","07","false","2","1","",""
"","","","","","","","","","","","html-keyboard-response","84","2.0.0","224974","667c732c4bbadc60b6a72bee","2","43","null","","","","","","","","","<p style='font-size: 30px;'><strong>Okay</strong></p>","null","neutral_feedback","0","test","39","","","","","","","",""
"","","","","","","","","","","","html-button-response","85","2.0.0","226549","667c732c4bbadc60b6a72bee","2","43","1571","","","","","","","","","<img src= ""rock_img/I_Pegmatite_11.jpg"" style=""width:8cm; height:8.14cm;""><p>What type of rock is this?</p>","3","class_response","0","test","40","Gabbro","Pegmatite","11","false","4","6","",""
"","","","","","","","","","","","html-keyboard-response","86","2.0.0","227063","667c732c4bbadc60b6a72bee","2","43","null","","","","","","","","","<p style='font-size: 30px;'><strong>Okay</strong></p>","null","neutral_feedback","0","test","40","","","","","","","",""
"","","","","","","","","","","","html-button-response","87","2.0.0","229809","667c732c4bbadc60b6a72bee","2","43","2742","","","","","","","","","<img src= ""rock_img/I_Obsidian_12.jpg"" style=""width:8cm; height:6.53cm;""><p>What type of rock is this?</p>","4","class_response","0","test","41","Obsidian","Obsidian","12","true","5","5","",""
"","","","","","","","","","","","html-keyboard-response","88","2.0.0","230316","667c732c4bbadc60b6a72bee","2","43","null","","","","","","","","","<p style='font-size: 30px;'><strong>Okay</strong></p>","null","neutral_feedback","0","test","41","","","","","","","",""
"","","","","","","","","","","","html-button-response","89","2.0.0","234015","667c732c4bbadc60b6a72bee","2","43","3696","","","","","","","","","<img src= ""rock_img/I_Gabbro_05.jpg"" style=""width:8cm; height:6cm;""><p>What type of rock is this?</p>","1","class_response","0","test","42","Basalt","Gabbro","05","false","2","4","",""
"","","","","","","","","","","","html-keyboard-response","90","2.0.0","234533","667c732c4bbadc60b6a72bee","2","43","null","","","","","","","","","<p style='font-size: 30px;'><strong>Okay</strong></p>","null","neutral_feedback","0","test","42","","","","","","","",""
"","","","","","","","","","","","html-button-response","91","2.0.0","237214","667c732c4bbadc60b6a72bee","2","43","2678","","","","","","","","","<img src= ""rock_img/I_Andesite_02.jpg"" style=""width:8cm; height:8.5cm;""><p>What type of rock is this?</p>","5","class_response","0","test","43","Pegmatite","Andesite","02","false","6","1","",""
"","","","","","","","","","","","html-keyboard-response","92","2.0.0","237722","667c732c4bbadc60b6a72bee","2","43","null","","","","","","","","","<p style='font-size: 30px;'><strong>Okay</strong></p>","null","neutral_feedback","0","test","43","","","","","","","",""
"","","","","","","","","","","","html-button-response","93","2.0.0","240291","667c732c4bbadc60b6a72bee","2","43","2565","","","","","","","","","<img src= ""rock_img/I_Obsidian_05.jpg"" style=""width:8cm; height:6.33cm;""><p>What type of rock is this?</p>","3","class_response","0","test","44","Gabbro","Obsidian","05","false","4","5","",""
"","","","","","","","","","","","html-keyboard-response","94","2.0.0","240805","667c732c4bbadc60b6a72bee","2","43","null","","","","","","","","","<p style='font-size: 30px;'><strong>Okay</strong></p>","null","neutral_feedback","0","test","44","","","","","","","",""
"","","","","","","","","","","","html-button-response","95","2.0.0","244593","667c732c4bbadc60b6a72bee","2","43","3784","","","","","","","","","<img src= ""rock_img/I_Pumice_04.jpg"" style=""width:8cm; height:6.819999999999999cm;""><p>What type of rock is this?</p>","7","class_response","0","test","45","Pumice","Pumice","04","true","8","8","",""
"","","","","","","","","","","","html-keyboard-response","96","2.0.0","245105","667c732c4bbadc60b6a72bee","2","43","null","","","","","","","","","<p style='font-size: 30px;'><strong>Okay</strong></p>","null","neutral_feedback","0","test","45","","","","","","","",""
"","","","","","","","","","","","html-button-response","97","2.0.0","246663","667c732c4bbadc60b6a72bee","2","43","1555","","","","","","","","","<img src= ""rock_img/I_Peridotite_07.jpg"" style=""width:8cm; height:4.83cm;""><p>What type of rock is this?</p>","6","class_response","0","test","46","Peridotite","Peridotite","07","true","7","7","",""
"","","","","","","","","","","","html-keyboard-response","98","2.0.0","247175","667c732c4bbadc60b6a72bee","2","43","null","","","","","","","","","<p style='font-size: 30px;'><strong>Okay</strong></p>","null","neutral_feedback","0","test","46","","","","","","","",""
"","","","","","","","","","","","html-button-response","99","2.0.0","248838","667c732c4bbadc60b6a72bee","2","43","1659","","","","","","","","","<img src= ""rock_img/I_Obsidian_06.jpg"" style=""width:8cm; height:6.8cm;""><p>What type of rock is this?</p>","4","class_response","0","test","47","Obsidian","Obsidian","06","true","5","5","",""
"","","","","","","","","","","","html-keyboard-response","100","2.0.0","249341","667c732c4bbadc60b6a72bee","2","43","null","","","","","","","","","<p style='font-size: 30px;'><strong>Okay</strong></p>","null","neutral_feedback","0","test","47","","","","","","","",""
"","","","","","","","","","","","html-button-response","101","2.0.0","250895","667c732c4bbadc60b6a72bee","2","43","1550","","","","","","","","","<img src= ""rock_img/I_Basalt_08.jpg"" style=""width:8cm; height:10.44cm;""><p>What type of rock is this?</p>","1","class_response","0","test","48","Basalt","Basalt","08","true","2","2","",""
"","","","","","","","","","","","html-keyboard-response","102","2.0.0","251412","667c732c4bbadc60b6a72bee","2","43","null","","","","","","","","","<p style='font-size: 30px;'><strong>Okay</strong></p>","null","neutral_feedback","0","test","48","","","","","","","",""
"","","","","","","","","","","","instructions","103","2.0.0","383987","667c732c4bbadc60b6a72bee","2","43","132494","","","","","","","","[{""page_index"":0,""viewing_time"":49393},{""page_index"":1,""viewing_time"":79795},{""page_index"":2,""viewing_time"":3305}]","","","","","","","","","","","","","",""
"","","","","","","","","","","","html-button-response","104","2.0.0","387065","667c732c4bbadc60b6a72bee","2","43","3075","","","","","","","","","","0","start_train","","","","","","","","","","",""
"","","","","","","","","","","","html-button-response","105","2.0.0","389515","667c732c4bbadc60b6a72bee","2","43","2445","","","","","","","","","<img src= ""rock_img/I_Diorite_12.jpg"" style=""width:8cm; height:4.88cm;""><p>What type of rock is this?</p>","2","class_response","1","train","1","Diorite","Diorite","12","true","3","3","",""
"","","","","","","","","","","","html-button-response","106","2.0.0","391437","667c732c4bbadc60b6a72bee","2","43","1916","","","","","","","","","<img src= rock_img/I_Diorite_12.jpg style=""width:8cm; height:4.88cm;""><p style='font-size: 30px; color: green;'><strong>Correct!</strong></p><p style='font-size: 30px;'><strong>This rock is diorite</strong></p>","0","corr_feedback","1","train","1","","","","","","","",""
"","","","","","","","","","","","html-button-response","107","2.0.0","396092","667c732c4bbadc60b6a72bee","2","43","4650","","","","","","","","","<img src= ""rock_img/I_Pegmatite_05.jpg"" style=""width:8cm; height:7.300000000000001cm;""><p>What type of rock is this?</p>","1","class_response","1","train","2","Basalt","Pegmatite","05","false","2","6","",""
"","","","","","","","","","","","html-button-response","108","2.0.0","400496","667c732c4bbadc60b6a72bee","2","43","4401","","","","","","","","","<img src= rock_img/I_Pegmatite_05.jpg style=""width:8cm; height:7.300000000000001cm;""><p style='font-size: 30px; color: red;'><strong>Incorrect!</strong></p><p style='font-size: 30px;'><strong>This rock is pegmatite</strong></p>","0","corr_feedback","1","train","2","","","","","","","",""
"","","","","","","","","","","","html-button-response","109","2.0.0","401906","667c732c4bbadc60b6a72bee","2","43","1405","","","","","","","","","<img src= ""rock_img/I_Obsidian_10.jpg"" style=""width:8cm; height:6.260000000000001cm;""><p>What type of rock is this?</p>","4","class_response","1","train","3","Obsidian","Obsidian","10","true","5","5","",""
"","","","","","","","","","","","html-button-response","110","2.0.0","402735","667c732c4bbadc60b6a72bee","2","43","826","","","","","","","","","<img src= rock_img/I_Obsidian_10.jpg style=""width:8cm; height:6.260000000000001cm;""><p style='font-size: 30px; color: green;'><strong>Correct!</strong></p><p style='font-size: 30px;'><strong>This rock is obsidian</strong></p>","0","corr_feedback","1","train","3","","","","","","","",""
"","","","","","","","","","","","html-button-response","111","2.0.0","404071","667c732c4bbadc60b6a72bee","2","43","1331","","","","","","","","","<img src= ""rock_img/I_Gabbro_16.jpg"" style=""width:8cm; height:6.44cm;""><p>What type of rock is this?</p>","1","class_response","1","train","4","Basalt","Gabbro","16","false","2","4","",""
"","","","","","","","","","","","html-button-response","112","2.0.0","408734","667c732c4bbadc60b6a72bee","2","43","4660","","","","","","","","","<img src= rock_img/I_Gabbro_16.jpg style=""width:8cm; height:6.44cm;""><p style='font-size: 30px; color: red;'><strong>Incorrect!</strong></p><p style='font-size: 30px;'><strong>This rock is gabbro</strong></p>","0","corr_feedback","1","train","4","","","","","","","",""
"","","","","","","","","","","","html-button-response","113","2.0.0","410496","667c732c4bbadc60b6a72bee","2","43","1757","","","","","","","","","<img src= ""rock_img/I_Basalt_14.jpg"" style=""width:8cm; height:5.82cm;""><p>What type of rock is this?</p>","7","class_response","1","train","5","Pumice","Basalt","14","false","8","2","",""
"","","","","","","","","","","","html-button-response","114","2.0.0","413903","667c732c4bbadc60b6a72bee","2","43","3403","","","","","","","","","<img src= rock_img/I_Basalt_14.jpg style=""width:8cm; height:5.82cm;""><p style='font-size: 30px; color: red;'><strong>Incorrect!</strong></p><p style='font-size: 30px;'><strong>This rock is basalt</strong></p>","0","corr_feedback","1","train","5","","","","","","","",""
"","","","","","","","","","","","html-button-response","115","2.0.0","416013","667c732c4bbadc60b6a72bee","2","43","2106","","","","","","","","","<img src= ""rock_img/I_Gabbro_01.jpg"" style=""width:8cm; height:5.21cm;""><p>What type of rock is this?</p>","2","class_response","1","train","6","Diorite","Gabbro","01","false","3","4","",""
"","","","","","","","","","","","html-button-response","116","2.0.0","418291","667c732c4bbadc60b6a72bee","2","43","2274","","","","","","","","","<img src= rock_img/I_Gabbro_01.jpg style=""width:8cm; height:5.21cm;""><p style='font-size: 30px; color: red;'><strong>Incorrect!</strong></p><p style='font-size: 30px;'><strong>This rock is gabbro</strong></p>","0","corr_feedback","1","train","6","","","","","","","",""
"","","","","","","","","","","","html-button-response","117","2.0.0","419598","667c732c4bbadc60b6a72bee","2","43","1303","","","","","","","","","<img src= ""rock_img/I_Gabbro_16.jpg"" style=""width:8cm; height:6.44cm;""><p>What type of rock is this?</p>","3","class_response","1","train","7","Gabbro","Gabbro","16","true","4","4","",""
"","","","","","","","","","","","html-button-response","118","2.0.0","420741","667c732c4bbadc60b6a72bee","2","43","1139","","","","","","","","","<img src= rock_img/I_Gabbro_16.jpg style=""width:8cm; height:6.44cm;""><p style='font-size: 30px; color: green;'><strong>Correct!</strong></p><p style='font-size: 30px;'><strong>This rock is gabbro</strong></p>","0","corr_feedback","1","train","7","","","","","","","",""
"","","","","","","","","","","","html-button-response","119","2.0.0","427236","667c732c4bbadc60b6a72bee","2","43","6492","","","","","","","","","<img src= ""rock_img/I_Pegmatite_16.jpg"" style=""width:8cm; height:5.8cm;""><p>What type of rock is this?</p>","2","class_response","1","train","8","Diorite","Pegmatite","16","false","3","6","",""
"","","","","","","","","","","","html-button-response","120","2.0.0","429004","667c732c4bbadc60b6a72bee","2","43","1764","","","","","","","","","<img src= rock_img/I_Pegmatite_16.jpg style=""width:8cm; height:5.8cm;""><p style='font-size: 30px; color: red;'><strong>Incorrect!</strong></p><p style='font-size: 30px;'><strong>This rock is pegmatite</strong></p>","0","corr_feedback","1","train","8","","","","","","","",""
"","","","","","","","","","","","html-button-response","121","2.0.0","430353","667c732c4bbadc60b6a72bee","2","43","1346","","","","","","","","","<img src= ""rock_img/I_Gabbro_11.jpg"" style=""width:8cm; height:6.2cm;""><p>What type of rock is this?</p>","3","class_response","1","train","9","Gabbro","Gabbro","11","true","4","4","",""
"","","","","","","","","","","","html-button-response","122","2.0.0","431318","667c732c4bbadc60b6a72bee","2","43","962","","","","","","","","","<img src= rock_img/I_Gabbro_11.jpg style=""width:8cm; height:6.2cm;""><p style='font-size: 30px; color: green;'><strong>Correct!</strong></p><p style='font-size: 30px;'><strong>This rock is gabbro</strong></p>","0","corr_feedback","1","train","9","","","","","","","",""
"","","","","","","","","","","","html-button-response","123","2.0.0","432895","667c732c4bbadc60b6a72bee","2","43","1573","","","","","","","","","<img src= ""rock_img/I_Pumice_08.jpg"" style=""width:8cm; height:6.67cm;""><p>What type of rock is this?</p>","7","class_response","1","train","10","Pumice","Pumice","08","true","8","8","",""
"","","","","","","","","","","","html-button-response","124","2.0.0","433861","667c732c4bbadc60b6a72bee","2","43","962","","","","","","","","","<img src= rock_img/I_Pumice_08.jpg style=""width:8cm; height:6.67cm;""><p style='font-size: 30px; color: green;'><strong>Correct!</strong></p><p style='font-size: 30px;'><strong>This rock is pumice</strong></p>","0","corr_feedback","1","train","10","","","","","","","",""
"","","","","","","","","","","","html-button-response","125","2.0.0","435089","667c732c4bbadc60b6a72bee","2","43","1224","","","","","","","","","<img src= ""rock_img/I_Peridotite_08.jpg"" style=""width:8cm; height:6.7cm;""><p>What type of rock is this?</p>","6","class_response","1","train","11","Peridotite","Peridotite","08","true","7","7","",""
"","","","","","","","","","","","html-button-response","126","2.0.0","435764","667c732c4bbadc60b6a72bee","2","43","670","","","","","","","","","<img src= rock_img/I_Peridotite_08.jpg style=""width:8cm; height:6.7cm;""><p style='font-size: 30px; color: green;'><strong>Correct!</strong></p><p style='font-size: 30px;'><strong>This rock is peridotite</strong></p>","0","corr_feedback","1","train","11","","","","","","","",""
"","","","","","","","","","","","html-button-response","127","2.0.0","439158","667c732c4bbadc60b6a72bee","2","43","3390","","","","","","","","","<img src= ""rock_img/I_Pegmatite_12.jpg"" style=""width:8cm; height:5.7cm;""><p>What type of rock is this?</p>","5","class_response","1","train","12","Pegmatite","Pegmatite","12","true","6","6","",""
"","","","","","","","","","","","html-button-response","128","2.0.0","440109","667c732c4bbadc60b6a72bee","2","43","946","","","","","","","","","<img src= rock_img/I_Pegmatite_12.jpg style=""width:8cm; height:5.7cm;""><p style='font-size: 30px; color: green;'><strong>Correct!</strong></p><p style='font-size: 30px;'><strong>This rock is pegmatite</strong></p>","0","corr_feedback","1","train","12","","","","","","","",""
"","","","","","","","","","","","html-button-response","129","2.0.0","442736","667c732c4bbadc60b6a72bee","2","43","2621","","","","","","","","","<img src= ""rock_img/I_Andesite_04.jpg"" style=""width:8cm; height:5.96cm;""><p>What type of rock is this?</p>","0","class_response","1","train","13","Andesite","Andesite","04","true","1","1","",""
"","","","","","","","","","","","html-button-response","130","2.0.0","443729","667c732c4bbadc60b6a72bee","2","43","989","","","","","","","","","<img src= rock_img/I_Andesite_04.jpg style=""width:8cm; height:5.96cm;""><p style='font-size: 30px; color: green;'><strong>Correct!</strong></p><p style='font-size: 30px;'><strong>This rock is andesite</strong></p>","0","corr_feedback","1","train","13","","","","","","","",""
"","","","","","","","","","","","html-button-response","131","2.0.0","444882","667c732c4bbadc60b6a72bee","2","43","1147","","","","","","","","","<img src= ""rock_img/I_Peridotite_02.jpg"" style=""width:8cm; height:5.859999999999999cm;""><p>What type of rock is this?</p>","6","class_response","1","train","14","Peridotite","Peridotite","02","true","7","7","",""
"","","","","","","","","","","","html-button-response","132","2.0.0","445426","667c732c4bbadc60b6a72bee","2","43","540","","","","","","","","","<img src= rock_img/I_Peridotite_02.jpg style=""width:8cm; height:5.859999999999999cm;""><p style='font-size: 30px; color: green;'><strong>Correct!</strong></p><p style='font-size: 30px;'><strong>This rock is peridotite</strong></p>","0","corr_feedback","1","train","14","","","","","","","",""
"","","","","","","","","","","","html-button-response","133","2.0.0","447670","667c732c4bbadc60b6a72bee","2","43","2239","","","","","","","","","<img src= ""rock_img/I_Diorite_06.jpg"" style=""width:8cm; height:6.03cm;""><p>What type of rock is this?</p>","2","class_response","1","train","15","Diorite","Diorite","06","true","3","3","",""
"","","","","","","","","","","","html-button-response","134","2.0.0","448507","667c732c4bbadc60b6a72bee","2","43","834","","","","","","","","","<img src= rock_img/I_Diorite_06.jpg style=""width:8cm; height:6.03cm;""><p style='font-size: 30px; color: green;'><strong>Correct!</strong></p><p style='font-size: 30px;'><strong>This rock is diorite</strong></p>","0","corr_feedback","1","train","15","","","","","","","",""
"","","","","","","","","","","","html-button-response","135","2.0.0","449780","667c732c4bbadc60b6a72bee","2","43","1270","","","","","","","","","<img src= ""rock_img/I_Andesite_16.jpg"" style=""width:8cm; height:6.010000000000001cm;""><p>What type of rock is this?</p>","0","class_response","1","train","16","Andesite","Andesite","16","true","1","1","",""
"","","","","","","","","","","","html-button-response","136","2.0.0","450631","667c732c4bbadc60b6a72bee","2","43","847","","","","","","","","","<img src= rock_img/I_Andesite_16.jpg style=""width:8cm; height:6.010000000000001cm;""><p style='font-size: 30px; color: green;'><strong>Correct!</strong></p><p style='font-size: 30px;'><strong>This rock is andesite</strong></p>","0","corr_feedback","1","train","16","","","","","","","",""
"","","","","","","","","","","","html-button-response","137","2.0.0","454261","667c732c4bbadc60b6a72bee","2","43","3626","","","","","","","","","<img src= ""rock_img/I_Andesite_10.jpg"" style=""width:8cm; height:4.16cm;""><p>What type of rock is this?</p>","3","class_response","1","train","17","Gabbro","Andesite","10","false","4","1","",""
"","","","","","","","","","","","html-button-response","138","2.0.0","455191","667c732c4bbadc60b6a72bee","2","43","926","","","","","","","","","<img src= rock_img/I_Andesite_10.jpg style=""width:8cm; height:4.16cm;""><p style='font-size: 30px; color: red;'><strong>Incorrect!</strong></p><p style='font-size: 30px;'><strong>This rock is andesite</strong></p>","0","corr_feedback","1","train","17","","","","","","","",""
"","","","","","","","","","","","html-button-response","139","2.0.0","456333","667c732c4bbadc60b6a72bee","2","43","1136","","","","","","","","","<img src= ""rock_img/I_Pegmatite_10.jpg"" style=""width:8cm; height:4.16cm;""><p>What type of rock is this?</p>","6","class_response","1","train","18","Peridotite","Pegmatite","10","false","7","6","",""
"","","","","","","","","","","","html-button-response","140","2.0.0","457852","667c732c4bbadc60b6a72bee","2","43","1516","","","","","","","","","<img src= rock_img/I_Pegmatite_10.jpg style=""width:8cm; height:4.16cm;""><p style='font-size: 30px; color: red;'><strong>Incorrect!</strong></p><p style='font-size: 30px;'><strong>This rock is pegmatite</strong></p>","0","corr_feedback","1","train","18","","","","","","","",""
"","","","","","","","","","","","html-button-response","141","2.0.0","460389","667c732c4bbadc60b6a72bee","2","43","2533","","","","","","","","","<img src= ""rock_img/I_Andesite_10.jpg"" style=""width:8cm; height:4.16cm;""><p>What type of rock is this?</p>","0","class_response","1","train","19","Andesite","Andesite","10","true","1","1","",""
"","","","","","","","","","","","html-button-response","142","2.0.0","461177","667c732c4bbadc60b6a72bee","2","43","784","","","","","","","","","<img src= rock_img/I_Andesite_10.jpg style=""width:8cm; height:4.16cm;""><p style='font-size: 30px; color: green;'><strong>Correct!</strong></p><p style='font-size: 30px;'><strong>This rock is andesite</strong></p>","0","corr_feedback","1","train","19","","","","","","","",""
"","","","","","","","","","","","html-button-response","143","2.0.0","462414","667c732c4bbadc60b6a72bee","2","43","1232","","","","","","","","","<img src= ""rock_img/I_Obsidian_04.jpg"" style=""width:8cm; height:6.930000000000001cm;""><p>What type of rock is this?</p>","4","class_response","1","train","20","Obsidian","Obsidian","04","true","5","5","",""
"","","","","","","","","","","","html-button-response","144","2.0.0","463045","667c732c4bbadc60b6a72bee","2","43","626","","","","","","","","","<img src= rock_img/I_Obsidian_04.jpg style=""width:8cm; height:6.930000000000001cm;""><p style='font-size: 30px; color: green;'><strong>Correct!</strong></p><p style='font-size: 30px;'><strong>This rock is obsidian</strong></p>","0","corr_feedback","1","train","20","","","","","","","",""
"","","","","","","","","","","","html-button-response","145","2.0.0","465240","667c732c4bbadc60b6a72bee","2","43","2191","","","","","","","","","<img src= ""rock_img/I_Basalt_05.jpg"" style=""width:8cm; height:8.18cm;""><p>What type of rock is this?</p>","3","class_response","1","train","21","Gabbro","Basalt","05","false","4","2","",""
"","","","","","","","","","","","html-button-response","146","2.0.0","467121","667c732c4bbadc60b6a72bee","2","43","1876","","","","","","","","","<img src= rock_img/I_Basalt_05.jpg style=""width:8cm; height:8.18cm;""><p style='font-size: 30px; color: red;'><strong>Incorrect!</strong></p><p style='font-size: 30px;'><strong>This rock is basalt</strong></p>","0","corr_feedback","1","train","21","","","","","","","",""
"","","","","","","","","","","","html-button-response","147","2.0.0","469991","667c732c4bbadc60b6a72bee","2","43","2866","","","","","","","","","<img src= ""rock_img/I_Pegmatite_15.jpg"" style=""width:8cm; height:6cm;""><p>What type of rock is this?</p>","5","class_response","1","train","22","Pegmatite","Pegmatite","15","true","6","6","",""
"","","","","","","","","","","","html-button-response","148","2.0.0","470743","667c732c4bbadc60b6a72bee","2","43","747","","","","","","","","","<img src= rock_img/I_Pegmatite_15.jpg style=""width:8cm; height:6cm;""><p style='font-size: 30px; color: green;'><strong>Correct!</strong></p><p style='font-size: 30px;'><strong>This rock is pegmatite</strong></p>","0","corr_feedback","1","train","22","","","","","","","",""
"","","","","","","","","","","","html-button-response","149","2.0.0","472973","667c732c4bbadc60b6a72bee","2","43","2226","","","","","","","","","<img src= ""rock_img/I_Pegmatite_05.jpg"" style=""width:8cm; height:7.300000000000001cm;""><p>What type of rock is this?</p>","5","class_response","1","train","23","Pegmatite","Pegmatite","05","true","6","6","",""
"","","","","","","","","","","","html-button-response","150","2.0.0","473633","667c732c4bbadc60b6a72bee","2","43","657","","","","","","","","","<img src= rock_img/I_Pegmatite_05.jpg style=""width:8cm; height:7.300000000000001cm;""><p style='font-size: 30px; color: green;'><strong>Correct!</strong></p><p style='font-size: 30px;'><strong>This rock is pegmatite</strong></p>","0","corr_feedback","1","train","23","","","","","","","",""
"","","","","","","","","","","","html-button-response","151","2.0.0","474897","667c732c4bbadc60b6a72bee","2","43","1261","","","","","","","","","<img src= ""rock_img/I_Gabbro_11.jpg"" style=""width:8cm; height:6.2cm;""><p>What type of rock is this?</p>","3","class_response","1","train","24","Gabbro","Gabbro","11","true","4","4","",""
"","","","","","","","","","","","html-button-response","152","2.0.0","475522","667c732c4bbadc60b6a72bee","2","43","621","","","","","","","","","<img src= rock_img/I_Gabbro_11.jpg style=""width:8cm; height:6.2cm;""><p style='font-size: 30px; color: green;'><strong>Correct!</strong></p><p style='font-size: 30px;'><strong>This rock is gabbro</strong></p>","0","corr_feedback","1","train","24","","","","","","","",""
"","","","","","","","","","","","html-button-response","153","2.0.0","477314","667c732c4bbadc60b6a72bee","2","43","1788","","","","","","","","","<img src= ""rock_img/I_Pegmatite_16.jpg"" style=""width:8cm; height:5.8cm;""><p>What type of rock is this?</p>","5","class_response","1","train","25","Pegmatite","Pegmatite","16","true","6","6","",""
"","","","","","","","","","","","html-button-response","154","2.0.0","477880","667c732c4bbadc60b6a72bee","2","43","563","","","","","","","","","<img src= rock_img/I_Pegmatite_16.jpg style=""width:8cm; height:5.8cm;""><p style='font-size: 30px; color: green;'><strong>Correct!</strong></p><p style='font-size: 30px;'><strong>This rock is pegmatite</strong></p>","0","corr_feedback","1","train","25","","","","","","","",""
"","","","","","","","","","","","html-button-response","155","2.0.0","479870","667c732c4bbadc60b6a72bee","2","43","1986","","","","","","","","","<img src= ""rock_img/I_Pumice_03.jpg"" style=""width:8cm; height:6.64cm;""><p>What type of rock is this?</p>","7","class_response","1","train","26","Pumice","Pumice","03","true","8","8","",""
"","","","","","","","","","","","html-button-response","156","2.0.0","480522","667c732c4bbadc60b6a72bee","2","43","648","","","","","","","","","<img src= rock_img/I_Pumice_03.jpg style=""width:8cm; height:6.64cm;""><p style='font-size: 30px; color: green;'><strong>Correct!</strong></p><p style='font-size: 30px;'><strong>This rock is pumice</strong></p>","0","corr_feedback","1","train","26","","","","","","","",""
"","","","","","","","","","","","html-button-response","157","2.0.0","483031","667c732c4bbadc60b6a72bee","2","43","2504","","","","","","","","","<img src= ""rock_img/I_Gabbro_13.jpg"" style=""width:8cm; height:5.08cm;""><p>What type of rock is this?</p>","0","class_response","1","train","27","Andesite","Gabbro","13","false","1","4","",""
"","","","","","","","","","","","html-button-response","158","2.0.0","484172","667c732c4bbadc60b6a72bee","2","43","1137","","","","","","","","","<img src= rock_img/I_Gabbro_13.jpg style=""width:8cm; height:5.08cm;""><p style='font-size: 30px; color: red;'><strong>Incorrect!</strong></p><p style='font-size: 30px;'><strong>This rock is gabbro</strong></p>","0","corr_feedback","1","train","27","","","","","","","",""
"","","","","","","","","","","","html-button-response","159","2.0.0","486389","667c732c4bbadc60b6a72bee","2","43","2212","","","","","","","","","<img src= ""rock_img/I_Pegmatite_03.jpg"" style=""width:8cm; height:5.239999999999999cm;""><p>What type of rock is this?</p>","5","class_response","1","train","28","Pegmatite","Pegmatite","03","true","6","6","",""
"","","","","","","","","","","","html-button-response","160","2.0.0","487063","667c732c4bbadc60b6a72bee","2","43","669","","","","","","","","","<img src= rock_img/I_Pegmatite_03.jpg style=""width:8cm; height:5.239999999999999cm;""><p style='font-size: 30px; color: green;'><strong>Correct!</strong></p><p style='font-size: 30px;'><strong>This rock is pegmatite</strong></p>","0","corr_feedback","1","train","28","","","","","","","",""
"","","","","","","","","","","","html-button-response","161","2.0.0","489706","667c732c4bbadc60b6a72bee","2","43","2640","","","","","","","","","<img src= ""rock_img/I_Basalt_02.jpg"" style=""width:8cm; height:6.45cm;""><p>What type of rock is this?</p>","1","class_response","1","train","29","Basalt","Basalt","02","true","2","2","",""
"","","","","","","","","","","","html-button-response","162","2.0.0","490422","667c732c4bbadc60b6a72bee","2","43","712","","","","","","","","","<img src= rock_img/I_Basalt_02.jpg style=""width:8cm; height:6.45cm;""><p style='font-size: 30px; color: green;'><strong>Correct!</strong></p><p style='font-size: 30px;'><strong>This rock is basalt</strong></p>","0","corr_feedback","1","train","29","","","","","","","",""
"","","","","","","","","","","","html-button-response","163","2.0.0","491772","667c732c4bbadc60b6a72bee","2","43","1346","","","","","","","","","<img src= ""rock_img/I_Pegmatite_03.jpg"" style=""width:8cm; height:5.239999999999999cm;""><p>What type of rock is this?</p>","5","class_response","1","train","30","Pegmatite","Pegmatite","03","true","6","6","",""
"","","","","","","","","","","","html-button-response","164","2.0.0","492333","667c732c4bbadc60b6a72bee","2","43","556","","","","","","","","","<img src= rock_img/I_Pegmatite_03.jpg style=""width:8cm; height:5.239999999999999cm;""><p style='font-size: 30px; color: green;'><strong>Correct!</strong></p><p style='font-size: 30px;'><strong>This rock is pegmatite</strong></p>","0","corr_feedback","1","train","30","","","","","","","",""
"","","","","","","","","","","","html-button-response","165","2.0.0","493299","667c732c4bbadc60b6a72bee","2","43","962","","","","","","","","","<img src= ""rock_img/I_Pegmatite_15.jpg"" style=""width:8cm; height:6cm;""><p>What type of rock is this?</p>","5","class_response","1","train","31","Pegmatite","Pegmatite","15","true","6","6","",""
"","","","","","","","","","","","html-button-response","166","2.0.0","494044","667c732c4bbadc60b6a72bee","2","43","742","","","","","","","","","<img src= rock_img/I_Pegmatite_15.jpg style=""width:8cm; height:6cm;""><p style='font-size: 30px; color: green;'><strong>Correct!</strong></p><p style='font-size: 30px;'><strong>This rock is pegmatite</strong></p>","0","corr_feedback","1","train","31","","","","","","","",""
"","","","","","","","","","","","html-button-response","167","2.0.0","495586","667c732c4bbadc60b6a72bee","2","43","1538","","","","","","","","","<img src= ""rock_img/I_Gabbro_15.jpg"" style=""width:8cm; height:6.29cm;""><p>What type of rock is this?</p>","0","class_response","1","train","32","Andesite","Gabbro","15","false","1","4","",""
"","","","","","","","","","","","html-button-response","168","2.0.0","496516","667c732c4bbadc60b6a72bee","2","43","925","","","","","","","","","<img src= rock_img/I_Gabbro_15.jpg style=""width:8cm; height:6.29cm;""><p style='font-size: 30px; color: red;'><strong>Incorrect!</strong></p><p style='font-size: 30px;'><strong>This rock is gabbro</strong></p>","0","corr_feedback","1","train","32","","","","","","","",""
"","","","","","","","","","","","html-button-response","169","2.0.0","499484","667c732c4bbadc60b6a72bee","2","43","2965","","","","","","","","","<img src= ""rock_img/I_Basalt_09.jpg"" style=""width:8cm; height:6.2cm;""><p>What type of rock is this?</p>","1","class_response","1","train","33","Basalt","Basalt","09","true","2","2","",""
"","","","","","","","","","","","html-button-response","170","2.0.0","500117","667c732c4bbadc60b6a72bee","2","43","628","","","","","","","","","<img src= rock_img/I_Basalt_09.jpg style=""width:8cm; height:6.2cm;""><p style='font-size: 30px; color: green;'><strong>Correct!</strong></p><p style='font-size: 30px;'><strong>This rock is basalt</strong></p>","0","corr_feedback","1","train","33","","","","","","","",""
"","","","","","","","","","","","html-button-response","171","2.0.0","502503","667c732c4bbadc60b6a72bee","2","43","2382","","","","","","","","","<img src= ""rock_img/I_Gabbro_15.jpg"" style=""width:8cm; height:6.29cm;""><p>What type of rock is this?</p>","3","class_response","1","train","34","Gabbro","Gabbro","15","true","4","4","",""
"","","","","","","","","","","","html-button-response","172","2.0.0","503566","667c732c4bbadc60b6a72bee","2","43","1060","","","","","","","","","<img src= rock_img/I_Gabbro_15.jpg style=""width:8cm; height:6.29cm;""><p style='font-size: 30px; color: green;'><strong>Correct!</strong></p><p style='font-size: 30px;'><strong>This rock is gabbro</strong></p>","0","corr_feedback","1","train","34","","","","","","","",""
"","","","","","","","","","","","html-button-response","173","2.0.0","504939","667c732c4bbadc60b6a72bee","2","43","1370","","","","","","","","","<img src= ""rock_img/I_Andesite_16.jpg"" style=""width:8cm; height:6.010000000000001cm;""><p>What type of rock is this?</p>","0","class_response","1","train","35","Andesite","Andesite","16","true","1","1","",""
"","","","","","","","","","","","html-button-response","174","2.0.0","505620","667c732c4bbadc60b6a72bee","2","43","676","","","","","","","","","<img src= rock_img/I_Andesite_16.jpg style=""width:8cm; height:6.010000000000001cm;""><p style='font-size: 30px; color: green;'><strong>Correct!</strong></p><p style='font-size: 30px;'><strong>This rock is andesite</strong></p>","0","corr_feedback","1","train","35","","","","","","","",""
"","","","","","","","","","","","html-button-response","175","2.0.0","508128","667c732c4bbadc60b6a72bee","2","43","2504","","","","","","","","","<img src= ""rock_img/I_Basalt_10.jpg"" style=""width:8cm; height:5.85cm;""><p>What type of rock is this?</p>","1","class_response","1","train","36","Basalt","Basalt","10","true","2","2","",""
"","","","","","","","","","","","html-button-response","176","2.0.0","508730","667c732c4bbadc60b6a72bee","2","43","599","","","","","","","","","<img src= rock_img/I_Basalt_10.jpg style=""width:8cm; height:5.85cm;""><p style='font-size: 30px; color: green;'><strong>Correct!</strong></p><p style='font-size: 30px;'><strong>This rock is basalt</strong></p>","0","corr_feedback","1","train","36","","","","","","","",""
"","","","","","","","","","","","html-button-response","177","2.0.0","512914","667c732c4bbadc60b6a72bee","2","43","4180","","","","","","","","","<img src= ""rock_img/I_Peridotite_12.jpg"" style=""width:8cm; height:4.54cm;""><p>What type of rock is this?</p>","2","class_response","1","train","37","Diorite","Peridotite","12","false","3","7","",""
"","","","","","","","","","","","html-button-response","178","2.0.0","513808","667c732c4bbadc60b6a72bee","2","43","890","","","","","","","","","<img src= rock_img/I_Peridotite_12.jpg style=""width:8cm; height:4.54cm;""><p style='font-size: 30px; color: red;'><strong>Incorrect!</strong></p><p style='font-size: 30px;'><strong>This rock is peridotite</strong></p>","0","corr_feedback","1","train","37","","","","","","","",""
"","","","","","","","","","","","html-button-response","179","2.0.0","514802","667c732c4bbadc60b6a72bee","2","43","990","","","","","","","","","<img src= ""rock_img/I_Diorite_08.jpg"" style=""width:8cm; height:6.37cm;""><p>What type of rock is this?</p>","2","class_response","1","train","38","Diorite","Diorite","08","true","3","3","",""
"","","","","","","","","","","","html-button-response","180","2.0.0","515633","667c732c4bbadc60b6a72bee","2","43","827","","","","","","","","","<img src= rock_img/I_Diorite_08.jpg style=""width:8cm; height:6.37cm;""><p style='font-size: 30px; color: green;'><strong>Correct!</strong></p><p style='font-size: 30px;'><strong>This rock is diorite</strong></p>","0","corr_feedback","1","train","38","","","","","","","",""
"","","","","","","","","","","","html-button-response","181","2.0.0","516742","667c732c4bbadc60b6a72bee","2","43","1105","","","","","","","","","<img src= ""rock_img/I_Andesite_05.jpg"" style=""width:8cm; height:4.12cm;""><p>What type of rock is this?</p>","0","class_response","1","train","39","Andesite","Andesite","05","true","1","1","",""
"","","","","","","","","","","","html-button-response","182","2.0.0","517352","667c732c4bbadc60b6a72bee","2","43","606","","","","","","","","","<img src= rock_img/I_Andesite_05.jpg style=""width:8cm; height:4.12cm;""><p style='font-size: 30px; color: green;'><strong>Correct!</strong></p><p style='font-size: 30px;'><strong>This rock is andesite</strong></p>","0","corr_feedback","1","train","39","","","","","","","",""
"","","","","","","","","","","","html-button-response","183","2.0.0","521655","667c732c4bbadc60b6a72bee","2","43","4300","","","","","","","","","<img src= ""rock_img/I_Gabbro_03.jpg"" style=""width:8cm; height:8.52cm;""><p>What type of rock is this?</p>","0","class_response","1","train","40","Andesite","Gabbro","03","false","1","4","",""
"","","","","","","","","","","","html-button-response","184","2.0.0","522571","667c732c4bbadc60b6a72bee","2","43","911","","","","","","","","","<img src= rock_img/I_Gabbro_03.jpg style=""width:8cm; height:8.52cm;""><p style='font-size: 30px; color: red;'><strong>Incorrect!</strong></p><p style='font-size: 30px;'><strong>This rock is gabbro</strong></p>","0","corr_feedback","1","train","40","","","","","","","",""
"","","","","","","","","","","","html-button-response","185","2.0.0","528386","667c732c4bbadc60b6a72bee","2","43","5811","","","","","","","","","<img src= ""rock_img/I_Gabbro_13.jpg"" style=""width:8cm; height:5.08cm;""><p>What type of rock is this?</p>","0","class_response","1","train","41","Andesite","Gabbro","13","false","1","4","",""
"","","","","","","","","","","","html-button-response","186","2.0.0","529224","667c732c4bbadc60b6a72bee","2","43","834","","","","","","","","","<img src= rock_img/I_Gabbro_13.jpg style=""width:8cm; height:5.08cm;""><p style='font-size: 30px; color: red;'><strong>Incorrect!</strong></p><p style='font-size: 30px;'><strong>This rock is gabbro</strong></p>","0","corr_feedback","1","train","41","","","","","","","",""
"","","","","","","","","","","","html-button-response","187","2.0.0","530644","667c732c4bbadc60b6a72bee","2","43","1417","","","","","","","","","<img src= ""rock_img/I_Peridotite_04.jpg"" style=""width:8cm; height:6.680000000000001cm;""><p>What type of rock is this?</p>","6","class_response","1","train","42","Peridotite","Peridotite","04","true","7","7","",""
"","","","","","","","","","","","html-button-response","188","2.0.0","531375","667c732c4bbadc60b6a72bee","2","43","728","","","","","","","","","<img src= rock_img/I_Peridotite_04.jpg style=""width:8cm; height:6.680000000000001cm;""><p style='font-size: 30px; color: green;'><strong>Correct!</strong></p><p style='font-size: 30px;'><strong>This rock is peridotite</strong></p>","0","corr_feedback","1","train","42","","","","","","","",""
"","","","","","","","","","","","html-button-response","189","2.0.0","534076","667c732c4bbadc60b6a72bee","2","43","2696","","","","","","","","","<img src= ""rock_img/I_Andesite_14.jpg"" style=""width:8cm; height:5.449999999999999cm;""><p>What type of rock is this?</p>","3","class_response","1","train","43","Gabbro","Andesite","14","false","4","1","",""
"","","","","","","","","","","","html-button-response","190","2.0.0","534791","667c732c4bbadc60b6a72bee","2","43","710","","","","","","","","","<img src= rock_img/I_Andesite_14.jpg style=""width:8cm; height:5.449999999999999cm;""><p style='font-size: 30px; color: red;'><strong>Incorrect!</strong></p><p style='font-size: 30px;'><strong>This rock is andesite</strong></p>","0","corr_feedback","1","train","43","","","","","","","",""
"","","","","","","","","","","","html-button-response","191","2.0.0","536397","667c732c4bbadc60b6a72bee","2","43","1602","","","","","","","","","<img src= ""rock_img/I_Gabbro_03.jpg"" style=""width:8cm; height:8.52cm;""><p>What type of rock is this?</p>","3","class_response","1","train","44","Gabbro","Gabbro","03","true","4","4","",""
"","","","","","","","","","","","html-button-response","192","2.0.0","537035","667c732c4bbadc60b6a72bee","2","43","635","","","","","","","","","<img src= rock_img/I_Gabbro_03.jpg style=""width:8cm; height:8.52cm;""><p style='font-size: 30px; color: green;'><strong>Correct!</strong></p><p style='font-size: 30px;'><strong>This rock is gabbro</strong></p>","0","corr_feedback","1","train","44","","","","","","","",""
"","","","","","","","","","","","html-button-response","193","2.0.0","538733","667c732c4bbadc60b6a72bee","2","43","1695","","","","","","","","","<img src= ""rock_img/I_Diorite_09.jpg"" style=""width:8cm; height:5.27cm;""><p>What type of rock is this?</p>","2","class_response","1","train","45","Diorite","Diorite","09","true","3","3","",""
"","","","","","","","","","","","html-button-response","194","2.0.0","539287","667c732c4bbadc60b6a72bee","2","43","550","","","","","","","","","<img src= rock_img/I_Diorite_09.jpg style=""width:8cm; height:5.27cm;""><p style='font-size: 30px; color: green;'><strong>Correct!</strong></p><p style='font-size: 30px;'><strong>This rock is diorite</strong></p>","0","corr_feedback","1","train","45","","","","","","","",""
"","","","","","","","","","","","html-button-response","195","2.0.0","541241","667c732c4bbadc60b6a72bee","2","43","1949","","","","","","","","","<img src= ""rock_img/I_Andesite_14.jpg"" style=""width:8cm; height:5.449999999999999cm;""><p>What type of rock is this?</p>","3","class_response","1","train","46","Gabbro","Andesite","14","false","4","1","",""
"","","","","","","","","","","","html-button-response","196","2.0.0","541815","667c732c4bbadc60b6a72bee","2","43","571","","","","","","","","","<img src= rock_img/I_Andesite_14.jpg style=""width:8cm; height:5.449999999999999cm;""><p style='font-size: 30px; color: red;'><strong>Incorrect!</strong></p><p style='font-size: 30px;'><strong>This rock is andesite</strong></p>","0","corr_feedback","1","train","46","","","","","","","",""
"","","","","","","","","","","","html-button-response","197","2.0.0","542987","667c732c4bbadc60b6a72bee","2","43","1169","","","","","","","","","<img src= ""rock_img/I_Andesite_05.jpg"" style=""width:8cm; height:4.12cm;""><p>What type of rock is this?</p>","0","class_response","1","train","47","Andesite","Andesite","05","true","1","1","",""
"","","","","","","","","","","","html-button-response","198","2.0.0","543583","667c732c4bbadc60b6a72bee","2","43","591","","","","","","","","","<img src= rock_img/I_Andesite_05.jpg style=""width:8cm; height:4.12cm;""><p style='font-size: 30px; color: green;'><strong>Correct!</strong></p><p style='font-size: 30px;'><strong>This rock is andesite</strong></p>","0","corr_feedback","1","train","47","","","","","","","",""
"","","","","","","","","","","","html-button-response","199","2.0.0","544762","667c732c4bbadc60b6a72bee","2","43","1175","","","","","","","","","<img src= ""rock_img/I_Andesite_06.jpg"" style=""width:8cm; height:6.840000000000001cm;""><p>What type of rock is this?</p>","0","class_response","1","train","48","Andesite","Andesite","06","true","1","1","",""
"","","","","","","","","","","","html-button-response","200","2.0.0","545380","667c732c4bbadc60b6a72bee","2","43","615","","","","","","","","","<img src= rock_img/I_Andesite_06.jpg style=""width:8cm; height:6.840000000000001cm;""><p style='font-size: 30px; color: green;'><strong>Correct!</strong></p><p style='font-size: 30px;'><strong>This rock is andesite</strong></p>","0","corr_feedback","1","train","48","","","","","","","",""
"","","","","","","","","","","","instructions","203","2.0.0","562761","667c732c4bbadc60b6a72bee","2","43","17378","","","","","","","","[{""page_index"":0,""viewing_time"":4796},{""page_index"":1,""viewing_time"":12581}]","","","","","","","","","","","","","",""
"","","","","","","","","","","","html-button-response","204","2.0.0","565985","667c732c4bbadc60b6a72bee","2","43","3222","","","","","","","","","","0","start_test","","","","","","","","","","",""
"","","","","","","","","","","","html-button-response","205","2.0.0","569173","667c732c4bbadc60b6a72bee","2","43","3185","","","","","","","","","<img src= ""rock_img/I_Gabbro_08.jpg"" style=""width:8cm; height:5.15cm;""><p>What type of rock is this?</p>","1","class_response","1","test","1","Basalt","Gabbro","08","false","2","4","",""
"","","","","","","","","","","","html-keyboard-response","206","2.0.0","569677","667c732c4bbadc60b6a72bee","2","43","null","","","","","","","","","<p style='font-size: 30px;'><strong>Okay</strong></p>","null","neutral_feedback","1","test","1","","","","","","","",""
"","","","","","","","","","","","html-button-response","207","2.0.0","571439","667c732c4bbadc60b6a72bee","2","43","1760","","","","","","","","","<img src= ""rock_img/I_Pumice_04.jpg"" style=""width:8cm; height:6.819999999999999cm;""><p>What type of rock is this?</p>","7","class_response","1","test","2","Pumice","Pumice","04","true","8","8","",""
"","","","","","","","","","","","html-keyboard-response","208","2.0.0","571943","667c732c4bbadc60b6a72bee","2","43","null","","","","","","","","","<p style='font-size: 30px;'><strong>Okay</strong></p>","null","neutral_feedback","1","test","2","","","","","","","",""
"","","","","","","","","","","","html-button-response","209","2.0.0","574308","667c732c4bbadc60b6a72bee","2","43","2364","","","","","","","","","<img src= ""rock_img/I_Gabbro_12.jpg"" style=""width:8cm; height:7.800000000000001cm;""><p>What type of rock is this?</p>","3","class_response","1","test","3","Gabbro","Gabbro","12","true","4","4","",""
"","","","","","","","","","","","html-keyboard-response","210","2.0.0","574816","667c732c4bbadc60b6a72bee","2","43","null","","","","","","","","","<p style='font-size: 30px;'><strong>Okay</strong></p>","null","neutral_feedback","1","test","3","","","","","","","",""
"","","","","","","","","","","","html-button-response","211","2.0.0","577056","667c732c4bbadc60b6a72bee","2","43","2238","","","","","","","","","<img src= ""rock_img/I_Pegmatite_06.jpg"" style=""width:8cm; height:5.17cm;""><p>What type of rock is this?</p>","5","class_response","1","test","4","Pegmatite","Pegmatite","06","true","6","6","",""
"","","","","","","","","","","","html-keyboard-response","212","2.0.0","577560","667c732c4bbadc60b6a72bee","2","43","null","","","","","","","","","<p style='font-size: 30px;'><strong>Okay</strong></p>","null","neutral_feedback","1","test","4","","","","","","","",""
"","","","","","","","","","","","html-button-response","213","2.0.0","579592","667c732c4bbadc60b6a72bee","2","43","2030","","","","","","","","","<img src= ""rock_img/I_Basalt_12.jpg"" style=""width:8cm; height:6.010000000000001cm;""><p>What type of rock is this?</p>","1","class_response","1","test","5","Basalt","Basalt","12","true","2","2","",""
"","","","","","","","","","","","html-keyboard-response","214","2.0.0","580104","667c732c4bbadc60b6a72bee","2","43","null","","","","","","","","","<p style='font-size: 30px;'><strong>Okay</strong></p>","null","neutral_feedback","1","test","5","","","","","","","",""
"","","","","","","","","","","","html-button-response","215","2.0.0","582426","667c732c4bbadc60b6a72bee","2","43","2320","","","","","","","","","<img src= ""rock_img/I_Gabbro_14.jpg"" style=""width:8cm; height:8.48cm;""><p>What type of rock is this?</p>","3","class_response","1","test","6","Gabbro","Gabbro","14","true","4","4","",""
"","","","","","","","","","","","html-keyboard-response","216","2.0.0","582936","667c732c4bbadc60b6a72bee","2","43","null","","","","","","","","","<p style='font-size: 30px;'><strong>Okay</strong></p>","null","neutral_feedback","1","test","6","","","","","","","",""
"","","","","","","","","","","","html-button-response","217","2.0.0","587576","667c732c4bbadc60b6a72bee","2","43","4638","","","","","","","","","<img src= ""rock_img/I_Diorite_14.jpg"" style=""width:8cm; height:5.71cm;""><p>What type of rock is this?</p>","2","class_response","1","test","7","Diorite","Diorite","14","true","3","3","",""
"","","","","","","","","","","","html-keyboard-response","218","2.0.0","588089","667c732c4bbadc60b6a72bee","2","43","null","","","","","","","","","<p style='font-size: 30px;'><strong>Okay</strong></p>","null","neutral_feedback","1","test","7","","","","","","","",""
"","","","","","","","","","","","html-button-response","219","2.0.0","589971","667c732c4bbadc60b6a72bee","2","43","1878","","","","","","","","","<img src= ""rock_img/I_Basalt_04.jpg"" style=""width:8cm; height:7.53cm;""><p>What type of rock is this?</p>","1","class_response","1","test","8","Basalt","Basalt","04","true","2","2","",""
"","","","","","","","","","","","html-keyboard-response","220","2.0.0","590489","667c732c4bbadc60b6a72bee","2","43","null","","","","","","","","","<p style='font-size: 30px;'><strong>Okay</strong></p>","null","neutral_feedback","1","test","8","","","","","","","",""
"","","","","","","","","","","","html-button-response","221","2.0.0","593123","667c732c4bbadc60b6a72bee","2","43","2630","","","","","","","","","<img src= ""rock_img/I_Andesite_03.jpg"" style=""width:8cm; height:5.73cm;""><p>What type of rock is this?</p>","0","class_response","1","test","9","Andesite","Andesite","03","true","1","1","",""
"","","","","","","","","","","","html-keyboard-response","222","2.0.0","593633","667c732c4bbadc60b6a72bee","2","43","null","","","","","","","","","<p style='font-size: 30px;'><strong>Okay</strong></p>","null","neutral_feedback","1","test","9","","","","","","","",""
"","","","","","","","","","","","html-button-response","223","2.0.0","595390","667c732c4bbadc60b6a72bee","2","43","1753","","","","","","","","","<img src= ""rock_img/I_Basalt_08.jpg"" style=""width:8cm; height:10.44cm;""><p>What type of rock is this?</p>","1","class_response","1","test","10","Basalt","Basalt","08","true","2","2","",""
"","","","","","","","","","","","html-keyboard-response","224","2.0.0","595897","667c732c4bbadc60b6a72bee","2","43","null","","","","","","","","","<p style='font-size: 30px;'><strong>Okay</strong></p>","null","neutral_feedback","1","test","10","","","","","","","",""
"","","","","","","","","","","","html-button-response","225","2.0.0","599189","667c732c4bbadc60b6a72bee","2","43","3287","","","","","","","","","<img src= ""rock_img/I_Gabbro_10.jpg"" style=""width:8cm; height:5.680000000000001cm;""><p>What type of rock is this?</p>","3","class_response","1","test","11","Gabbro","Gabbro","10","true","4","4","",""
"","","","","","","","","","","","html-keyboard-response","226","2.0.0","599704","667c732c4bbadc60b6a72bee","2","43","null","","","","","","","","","<p style='font-size: 30px;'><strong>Okay</strong></p>","null","neutral_feedback","1","test","11","","","","","","","",""
"","","","","","","","","","","","html-button-response","227","2.0.0","601788","667c732c4bbadc60b6a72bee","2","43","2081","","","","","","","","","<img src= ""rock_img/I_Peridotite_07.jpg"" style=""width:8cm; height:4.83cm;""><p>What type of rock is this?</p>","6","class_response","1","test","12","Peridotite","Peridotite","07","true","7","7","",""
"","","","","","","","","","","","html-keyboard-response","228","2.0.0","602292","667c732c4bbadc60b6a72bee","2","43","null","","","","","","","","","<p style='font-size: 30px;'><strong>Okay</strong></p>","null","neutral_feedback","1","test","12","","","","","","","",""
"","","","","","","","","","","","html-button-response","229","2.0.0","603719","667c732c4bbadc60b6a72bee","2","43","1422","","","","","","","","","<img src= ""rock_img/I_Obsidian_06.jpg"" style=""width:8cm; height:6.8cm;""><p>What type of rock is this?</p>","4","class_response","1","test","13","Obsidian","Obsidian","06","true","5","5","",""
"","","","","","","","","","","","html-keyboard-response","230","2.0.0","604228","667c732c4bbadc60b6a72bee","2","43","null","","","","","","","","","<p style='font-size: 30px;'><strong>Okay</strong></p>","null","neutral_feedback","1","test","13","","","","","","","",""
"","","","","","","","","","","","html-button-response","231","2.0.0","607071","667c732c4bbadc60b6a72bee","2","43","2839","","","","","","","","","<img src= ""rock_img/I_Diorite_15.jpg"" style=""width:8cm; height:5.54cm;""><p>What type of rock is this?</p>","0","class_response","1","test","14","Andesite","Diorite","15","false","1","3","",""
"","","","","","","","","","","","html-keyboard-response","232","2.0.0","607577","667c732c4bbadc60b6a72bee","2","43","null","","","","","","","","","<p style='font-size: 30px;'><strong>Okay</strong></p>","null","neutral_feedback","1","test","14","","","","","","","",""
"","","","","","","","","","","","html-button-response","233","2.0.0","609286","667c732c4bbadc60b6a72bee","2","43","1704","","","","","","","","","<img src= ""rock_img/I_Andesite_09.jpg"" style=""width:8cm; height:6cm;""><p>What type of rock is this?</p>","0","class_response","1","test","15","Andesite","Andesite","09","true","1","1","",""
"","","","","","","","","","","","html-keyboard-response","234","2.0.0","609795","667c732c4bbadc60b6a72bee","2","43","null","","","","","","","","","<p style='font-size: 30px;'><strong>Okay</strong></p>","null","neutral_feedback","1","test","15","","","","","","","",""
"","","","","","","","","","","","html-button-response","235","2.0.0","611693","667c732c4bbadc60b6a72bee","2","43","1894","","","","","","","","","<img src= ""rock_img/I_Diorite_13.jpg"" style=""width:8cm; height:6.29cm;""><p>What type of rock is this?</p>","6","class_response","1","test","16","Peridotite","Diorite","13","false","7","3","",""
"","","","","","","","","","","","html-keyboard-response","236","2.0.0","612197","667c732c4bbadc60b6a72bee","2","43","null","","","","","","","","","<p style='font-size: 30px;'><strong>Okay</strong></p>","null","neutral_feedback","1","test","16","","","","","","","",""
"","","","","","","","","","","","html-button-response","237","2.0.0","615783","667c732c4bbadc60b6a72bee","2","43","3581","","","","","","","","","<img src= ""rock_img/I_Andesite_11.jpg"" style=""width:8cm; height:4.92cm;""><p>What type of rock is this?</p>","3","class_response","1","test","17","Gabbro","Andesite","11","false","4","1","",""
"","","","","","","","","","","","html-keyboard-response","238","2.0.0","616292","667c732c4bbadc60b6a72bee","2","43","null","","","","","","","","","<p style='font-size: 30px;'><strong>Okay</strong></p>","null","neutral_feedback","1","test","17","","","","","","","",""
"","","","","","","","","","","","html-button-response","239","2.0.0","617615","667c732c4bbadc60b6a72bee","2","43","1320","","","","","","","","","<img src= ""rock_img/I_Pegmatite_08.jpg"" style=""width:8cm; height:7.68cm;""><p>What type of rock is this?</p>","5","class_response","1","test","18","Pegmatite","Pegmatite","08","true","6","6","",""
"","","","","","","","","","","","html-keyboard-response","240","2.0.0","618119","667c732c4bbadc60b6a72bee","2","43","null","","","","","","","","","<p style='font-size: 30px;'><strong>Okay</strong></p>","null","neutral_feedback","1","test","18","","","","","","","",""
"","","","","","","","","","","","html-button-response","241","2.0.0","619185","667c732c4bbadc60b6a72bee","2","43","1062","","","","","","","","","<img src= ""rock_img/I_Obsidian_09.jpg"" style=""width:8cm; height:5cm;""><p>What type of rock is this?</p>","4","class_response","1","test","19","Obsidian","Obsidian","09","true","5","5","",""
"","","","","","","","","","","","html-keyboard-response","242","2.0.0","619689","667c732c4bbadc60b6a72bee","2","43","null","","","","","","","","","<p style='font-size: 30px;'><strong>Okay</strong></p>","null","neutral_feedback","1","test","19","","","","","","","",""
"","","","","","","","","","","","html-button-response","243","2.0.0","620995","667c732c4bbadc60b6a72bee","2","43","1303","","","","","","","","","<img src= ""rock_img/I_Peridotite_14.jpg"" style=""width:8cm; height:5.3cm;""><p>What type of rock is this?</p>","6","class_response","1","test","20","Peridotite","Peridotite","14","true","7","7","",""
"","","","","","","","","","","","html-keyboard-response","244","2.0.0","621505","667c732c4bbadc60b6a72bee","2","43","null","","","","","","","","","<p style='font-size: 30px;'><strong>Okay</strong></p>","null","neutral_feedback","1","test","20","","","","","","","",""
"","","","","","","","","","","","html-button-response","245","2.0.0","624479","667c732c4bbadc60b6a72bee","2","43","2972","","","","","","","","","<img src= ""rock_img/I_Diorite_16.jpg"" style=""width:8cm; height:6.74cm;""><p>What type of rock is this?</p>","0","class_response","1","test","21","Andesite","Diorite","16","false","1","3","",""
"","","","","","","","","","","","html-keyboard-response","246","2.0.0","624982","667c732c4bbadc60b6a72bee","2","43","null","","","","","","","","","<p style='font-size: 30px;'><strong>Okay</strong></p>","null","neutral_feedback","1","test","21","","","","","","","",""
"","","","","","","","","","","","html-button-response","247","2.0.0","626200","667c732c4bbadc60b6a72bee","2","43","1216","","","","","","","","","<img src= ""rock_img/I_Pegmatite_09.jpg"" style=""width:8cm; height:4.03cm;""><p>What type of rock is this?</p>","5","class_response","1","test","22","Pegmatite","Pegmatite","09","true","6","6","",""
"","","","","","","","","","","","html-keyboard-response","248","2.0.0","626713","667c732c4bbadc60b6a72bee","2","43","null","","","","","","","","","<p style='font-size: 30px;'><strong>Okay</strong></p>","null","neutral_feedback","1","test","22","","","","","","","",""
"","","","","","","","","","","","html-button-response","249","2.0.0","629559","667c732c4bbadc60b6a72bee","2","43","2841","","","","","","","","","<img src= ""rock_img/I_Pumice_05.jpg"" style=""width:8cm; height:7.25cm;""><p>What type of rock is this?</p>","7","class_response","1","test","23","Pumice","Pumice","05","true","8","8","",""
"","","","","","","","","","","","html-keyboard-response","250","2.0.0","630062","667c732c4bbadc60b6a72bee","2","43","null","","","","","","","","","<p style='font-size: 30px;'><strong>Okay</strong></p>","null","neutral_feedback","1","test","23","","","","","","","",""
"","","","","","","","","","","","html-button-response","251","2.0.0","631399","667c732c4bbadc60b6a72bee","2","43","1333","","","","","","","","","<img src= ""rock_img/I_Peridotite_10.jpg"" style=""width:8cm; height:5.390000000000001cm;""><p>What type of rock is this?</p>","6","class_response","1","test","24","Peridotite","Peridotite","10","true","7","7","",""
"","","","","","","","","","","","html-keyboard-response","252","2.0.0","631911","667c732c4bbadc60b6a72bee","2","43","null","","","","","","","","","<p style='font-size: 30px;'><strong>Okay</strong></p>","null","neutral_feedback","1","test","24","","","","","","","",""
"","","","","","","","","","","","html-button-response","253","2.0.0","634241","667c732c4bbadc60b6a72bee","2","43","2326","","","","","","","","","<img src= ""rock_img/I_Pumice_13.jpg"" style=""width:8cm; height:8.200000000000001cm;""><p>What type of rock is this?</p>","7","class_response","1","test","25","Pumice","Pumice","13","true","8","8","",""
"","","","","","","","","","","","html-keyboard-response","254","2.0.0","634744","667c732c4bbadc60b6a72bee","2","43","null","","","","","","","","","<p style='font-size: 30px;'><strong>Okay</strong></p>","null","neutral_feedback","1","test","25","","","","","","","",""
"","","","","","","","","","","","html-button-response","255","2.0.0","636781","667c732c4bbadc60b6a72bee","2","43","2033","","","","","","","","","<img src= ""rock_img/I_Pegmatite_13.jpg"" style=""width:8cm; height:4.95cm;""><p>What type of rock is this?</p>","5","class_response","1","test","26","Pegmatite","Pegmatite","13","true","6","6","",""
"","","","","","","","","","","","html-keyboard-response","256","2.0.0","637285","667c732c4bbadc60b6a72bee","2","43","null","","","","","","","","","<p style='font-size: 30px;'><strong>Okay</strong></p>","null","neutral_feedback","1","test","26","","","","","","","",""
"","","","","","","","","","","","html-button-response","257","2.0.0","638485","667c732c4bbadc60b6a72bee","2","43","1196","","","","","","","","","<img src= ""rock_img/I_Obsidian_14.jpg"" style=""width:8cm; height:7.64cm;""><p>What type of rock is this?</p>","4","class_response","1","test","27","Obsidian","Obsidian","14","true","5","5","",""
"","","","","","","","","","","","html-keyboard-response","258","2.0.0","638991","667c732c4bbadc60b6a72bee","2","43","null","","","","","","","","","<p style='font-size: 30px;'><strong>Okay</strong></p>","null","neutral_feedback","1","test","27","","","","","","","",""
"","","","","","","","","","","","html-button-response","259","2.0.0","640539","667c732c4bbadc60b6a72bee","2","43","1543","","","","","","","","","<img src= ""rock_img/I_Pegmatite_11.jpg"" style=""width:8cm; height:8.14cm;""><p>What type of rock is this?</p>","5","class_response","1","test","28","Pegmatite","Pegmatite","11","true","6","6","",""
"","","","","","","","","","","","html-keyboard-response","260","2.0.0","641048","667c732c4bbadc60b6a72bee","2","43","null","","","","","","","","","<p style='font-size: 30px;'><strong>Okay</strong></p>","null","neutral_feedback","1","test","28","","","","","","","",""
"","","","","","","","","","","","html-button-response","261","2.0.0","643356","667c732c4bbadc60b6a72bee","2","43","2305","","","","","","","","","<img src= ""rock_img/I_Basalt_11.jpg"" style=""width:8cm; height:5.359999999999999cm;""><p>What type of rock is this?</p>","1","class_response","1","test","29","Basalt","Basalt","11","true","2","2","",""
"","","","","","","","","","","","html-keyboard-response","262","2.0.0","643861","667c732c4bbadc60b6a72bee","2","43","null","","","","","","","","","<p style='font-size: 30px;'><strong>Okay</strong></p>","null","neutral_feedback","1","test","29","","","","","","","",""
"","","","","","","","","","","","html-button-response","263","2.0.0","646410","667c732c4bbadc60b6a72bee","2","43","2546","","","","","","","","","<img src= ""rock_img/I_Basalt_16.jpg"" style=""width:8cm; height:7.659999999999999cm;""><p>What type of rock is this?</p>","1","class_response","1","test","30","Basalt","Basalt","16","true","2","2","",""
"","","","","","","","","","","","html-keyboard-response","264","2.0.0","646913","667c732c4bbadc60b6a72bee","2","43","null","","","","","","","","","<p style='font-size: 30px;'><strong>Okay</strong></p>","null","neutral_feedback","1","test","30","","","","","","","",""
"","","","","","","","","","","","html-button-response","265","2.0.0","648129","667c732c4bbadc60b6a72bee","2","43","1211","","","","","","","","","<img src= ""rock_img/I_Pegmatite_07.jpg"" style=""width:8cm; height:6.7cm;""><p>What type of rock is this?</p>","5","class_response","1","test","31","Pegmatite","Pegmatite","07","true","6","6","",""
"","","","","","","","","","","","html-keyboard-response","266","2.0.0","648644","667c732c4bbadc60b6a72bee","2","43","null","","","","","","","","","<p style='font-size: 30px;'><strong>Okay</strong></p>","null","neutral_feedback","1","test","31","","","","","","","",""
"","","","","","","","","","","","html-button-response","267","2.0.0","651529","667c732c4bbadc60b6a72bee","2","43","2882","","","","","","","","","<img src= ""rock_img/I_Pumice_10.jpg"" style=""width:8cm; height:7.609999999999999cm;""><p>What type of rock is this?</p>","7","class_response","1","test","32","Pumice","Pumice","10","true","8","8","",""
"","","","","","","","","","","","html-keyboard-response","268","2.0.0","652034","667c732c4bbadc60b6a72bee","2","43","null","","","","","","","","","<p style='font-size: 30px;'><strong>Okay</strong></p>","null","neutral_feedback","1","test","32","","","","","","","",""
"","","","","","","","","","","","html-button-response","269","2.0.0","653638","667c732c4bbadc60b6a72bee","2","43","1601","","","","","","","","","<img src= ""rock_img/I_Obsidian_05.jpg"" style=""width:8cm; height:6.33cm;""><p>What type of rock is this?</p>","4","class_response","1","test","33","Obsidian","Obsidian","05","true","5","5","",""
"","","","","","","","","","","","html-keyboard-response","270","2.0.0","654154","667c732c4bbadc60b6a72bee","2","43","null","","","","","","","","","<p style='font-size: 30px;'><strong>Okay</strong></p>","null","neutral_feedback","1","test","33","","","","","","","",""
"","","","","","","","","","","","html-button-response","271","2.0.0","659376","667c732c4bbadc60b6a72bee","2","43","5219","","","","","","","","","<img src= ""rock_img/I_Gabbro_09.jpg"" style=""width:8cm; height:7.279999999999999cm;""><p>What type of rock is this?</p>","3","class_response","1","test","34","Gabbro","Gabbro","09","true","4","4","",""
"","","","","","","","","","","","html-keyboard-response","272","2.0.0","659879","667c732c4bbadc60b6a72bee","2","43","null","","","","","","","","","<p style='font-size: 30px;'><strong>Okay</strong></p>","null","neutral_feedback","1","test","34","","","","","","","",""
"","","","","","","","","","","","html-button-response","273","2.0.0","661159","667c732c4bbadc60b6a72bee","2","43","1276","","","","","","","","","<img src= ""rock_img/I_Peridotite_16.jpg"" style=""width:8cm; height:6.989999999999999cm;""><p>What type of rock is this?</p>","6","class_response","1","test","35","Peridotite","Peridotite","16","true","7","7","",""
"","","","","","","","","","","","html-keyboard-response","274","2.0.0","661661","667c732c4bbadc60b6a72bee","2","43","null","","","","","","","","","<p style='font-size: 30px;'><strong>Okay</strong></p>","null","neutral_feedback","1","test","35","","","","","","","",""
"","","","","","","","","","","","html-button-response","275","2.0.0","663069","667c732c4bbadc60b6a72bee","2","43","1404","","","","","","","","","<img src= ""rock_img/I_Pumice_02.jpg"" style=""width:8cm; height:7.3999999999999995cm;""><p>What type of rock is this?</p>","7","class_response","1","test","36","Pumice","Pumice","02","true","8","8","",""
"","","","","","","","","","","","html-keyboard-response","276","2.0.0","663588","667c732c4bbadc60b6a72bee","2","43","null","","","","","","","","","<p style='font-size: 30px;'><strong>Okay</strong></p>","null","neutral_feedback","1","test","36","","","","","","","",""
"","","","","","","","","","","","html-button-response","277","2.0.0","664745","667c732c4bbadc60b6a72bee","2","43","1153","","","","","","","","","<img src= ""rock_img/I_Obsidian_08.jpg"" style=""width:8cm; height:7.39cm;""><p>What type of rock is this?</p>","4","class_response","1","test","37","Obsidian","Obsidian","08","true","5","5","",""
"","","","","","","","","","","","html-keyboard-response","278","2.0.0","665248","667c732c4bbadc60b6a72bee","2","43","null","","","","","","","","","<p style='font-size: 30px;'><strong>Okay</strong></p>","null","neutral_feedback","1","test","37","","","","","","","",""
"","","","","","","","","","","","html-button-response","279","2.0.0","666711","667c732c4bbadc60b6a72bee","2","43","1460","","","","","","","","","<img src= ""rock_img/I_Andesite_07.jpg"" style=""width:8cm; height:5.93cm;""><p>What type of rock is this?</p>","0","class_response","1","test","38","Andesite","Andesite","07","true","1","1","",""
"","","","","","","","","","","","html-keyboard-response","280","2.0.0","667214","667c732c4bbadc60b6a72bee","2","43","null","","","","","","","","","<p style='font-size: 30px;'><strong>Okay</strong></p>","null","neutral_feedback","1","test","38","","","","","","","",""
"","","","","","","","","","","","html-button-response","281","2.0.0","668309","667c732c4bbadc60b6a72bee","2","43","1092","","","","","","","","","<img src= ""rock_img/I_Obsidian_12.jpg"" style=""width:8cm; height:6.53cm;""><p>What type of rock is this?</p>","4","class_response","1","test","39","Obsidian","Obsidian","12","true","5","5","",""
"","","","","","","","","","","","html-keyboard-response","282","2.0.0","668817","667c732c4bbadc60b6a72bee","2","43","null","","","","","","","","","<p style='font-size: 30px;'><strong>Okay</strong></p>","null","neutral_feedback","1","test","39","","","","","","","",""
"","","","","","","","","","","","html-button-response","283","2.0.0","670440","667c732c4bbadc60b6a72bee","2","43","1620","","","","","","","","","<img src= ""rock_img/I_Peridotite_05.jpg"" style=""width:8cm; height:7.1499999999999995cm;""><p>What type of rock is this?</p>","6","class_response","1","test","40","Peridotite","Peridotite","05","true","7","7","",""
"","","","","","","","","","","","html-keyboard-response","284","2.0.0","670945","667c732c4bbadc60b6a72bee","2","43","null","","","","","","","","","<p style='font-size: 30px;'><strong>Okay</strong></p>","null","neutral_feedback","1","test","40","","","","","","","",""
"","","","","","","","","","","","html-button-response","285","2.0.0","675440","667c732c4bbadc60b6a72bee","2","43","4491","","","","","","","","","<img src= ""rock_img/I_Andesite_02.jpg"" style=""width:8cm; height:8.5cm;""><p>What type of rock is this?</p>","3","class_response","1","test","41","Gabbro","Andesite","02","false","4","1","",""
"","","","","","","","","","","","html-keyboard-response","286","2.0.0","675952","667c732c4bbadc60b6a72bee","2","43","null","","","","","","","","","<p style='font-size: 30px;'><strong>Okay</strong></p>","null","neutral_feedback","1","test","41","","","","","","","",""
"","","","","","","","","","","","html-button-response","287","2.0.0","676994","667c732c4bbadc60b6a72bee","2","43","1038","","","","","","","","","<img src= ""rock_img/I_Diorite_10.jpg"" style=""width:8cm; height:5.949999999999999cm;""><p>What type of rock is this?</p>","2","class_response","1","test","42","Diorite","Diorite","10","true","3","3","",""
"","","","","","","","","","","","html-keyboard-response","288","2.0.0","677510","667c732c4bbadc60b6a72bee","2","43","null","","","","","","","","","<p style='font-size: 30px;'><strong>Okay</strong></p>","null","neutral_feedback","1","test","42","","","","","","","",""
"","","","","","","","","","","","html-button-response","289","2.0.0","678776","667c732c4bbadc60b6a72bee","2","43","1263","","","","","","","","","<img src= ""rock_img/I_Basalt_06.jpg"" style=""width:8cm; height:7.06cm;""><p>What type of rock is this?</p>","1","class_response","1","test","43","Basalt","Basalt","06","true","2","2","",""
"","","","","","","","","","","","html-keyboard-response","290","2.0.0","679282","667c732c4bbadc60b6a72bee","2","43","null","","","","","","","","","<p style='font-size: 30px;'><strong>Okay</strong></p>","null","neutral_feedback","1","test","43","","","","","","","",""
"","","","","","","","","","","","html-button-response","291","2.0.0","680956","667c732c4bbadc60b6a72bee","2","43","1671","","","","","","","","","<img src= ""rock_img/I_Peridotite_13.jpg"" style=""width:8cm; height:7.58cm;""><p>What type of rock is this?</p>","6","class_response","1","test","44","Peridotite","Peridotite","13","true","7","7","",""
"","","","","","","","","","","","html-keyboard-response","292","2.0.0","681468","667c732c4bbadc60b6a72bee","2","43","null","","","","","","","","","<p style='font-size: 30px;'><strong>Okay</strong></p>","null","neutral_feedback","1","test","44","","","","","","","",""
"","","","","","","","","","","","html-button-response","293","2.0.0","686069","667c732c4bbadc60b6a72bee","2","43","4598","","","","","","","","","<img src= ""rock_img/I_Diorite_11.jpg"" style=""width:8cm; height:7.11cm;""><p>What type of rock is this?</p>","2","class_response","1","test","45","Diorite","Diorite","11","true","3","3","",""
"","","","","","","","","","","","html-keyboard-response","294","2.0.0","686582","667c732c4bbadc60b6a72bee","2","43","null","","","","","","","","","<p style='font-size: 30px;'><strong>Okay</strong></p>","null","neutral_feedback","1","test","45","","","","","","","",""
"","","","","","","","","","","","html-button-response","295","2.0.0","688078","667c732c4bbadc60b6a72bee","2","43","1492","","","","","","","","","<img src= ""rock_img/I_Pumice_15.jpg"" style=""width:8cm; height:7.86cm;""><p>What type of rock is this?</p>","7","class_response","1","test","46","Pumice","Pumice","15","true","8","8","",""
"","","","","","","","","","","","html-keyboard-response","296","2.0.0","688584","667c732c4bbadc60b6a72bee","2","43","null","","","","","","","","","<p style='font-size: 30px;'><strong>Okay</strong></p>","null","neutral_feedback","1","test","46","","","","","","","",""
"","","","","","","","","","","","html-button-response","297","2.0.0","693468","667c732c4bbadc60b6a72bee","2","43","4880","","","","","","","","","<img src= ""rock_img/I_Gabbro_05.jpg"" style=""width:8cm; height:6cm;""><p>What type of rock is this?</p>","3","class_response","1","test","47","Gabbro","Gabbro","05","true","4","4","",""
"","","","","","","","","","","","html-keyboard-response","298","2.0.0","693978","667c732c4bbadc60b6a72bee","2","43","null","","","","","","","","","<p style='font-size: 30px;'><strong>Okay</strong></p>","null","neutral_feedback","1","test","47","","","","","","","",""
"","","","","","","","","","","","html-button-response","299","2.0.0","696286","667c732c4bbadc60b6a72bee","2","43","2304","","","","","","","","","<img src= ""rock_img/I_Andesite_01.jpg"" style=""width:8cm; height:5.87cm;""><p>What type of rock is this?</p>","0","class_response","1","test","48","Andesite","Andesite","01","true","1","1","",""
"","","","","","","","","","","","html-keyboard-response","300","2.0.0","696790","667c732c4bbadc60b6a72bee","2","43","null","","","","","","","","","<p style='font-size: 30px;'><strong>Okay</strong></p>","null","neutral_feedback","1","test","48","","","","","","","",""
"","","","","","","","","","","","html-button-response","301","2.0.0","725902","667c732c4bbadc60b6a72bee","2","43","","","","","","","","","","","","cycle_feedback","","","","","","","","","","11698.90000000596","17396"
"","","","","","","","","","","","html-button-response","303","2.0.0","729525","667c732c4bbadc60b6a72bee","2","43","3620","","","","","","","","","","0","start_train","","","","","","","","","","",""
"","","","","","","","","","","","html-button-response","304","2.0.0","734463","667c732c4bbadc60b6a72bee","2","43","4933","","","","","","","","","<img src= ""rock_img/I_Gabbro_13.jpg"" style=""width:8cm; height:5.08cm;""><p>What type of rock is this?</p>","3","class_response","2","train","1","Gabbro","Gabbro","13","true","4","4","",""
