"width","height","webaudio","browser","browser_version","mobile","os","fullscreen","vsync_rate","webcam","microphone","trial_type","trial_index","plugin_version","time_elapsed","subjID","condition","stimID","rt","url","success","value","timeout","failed_images","failed_audio","failed_video","view_history","stimulus","response","trialType","cycle","phase","trial","resp","cat","token","corr","resp_num","cat_num","time_fb1","time_fb2"
"1358","642","true","edge-chromium","131.0.0","false","Windows 10","true","60.18","true","true","browser-check","0","2.0.0","1014","61577cfb758541d9e85d5d4e","2","46","","","","","","","","","","","","","","","","","","","","","","",""
"","","","","","","","","","","","external-html","1","2.0.0","44610","61577cfb758541d9e85d5d4e","2","46","43453","consent_form.html","","","","","","","","","","","","","","","","","","","","",""
"","","","","","","","","","","","fullscreen","2","2.0.0","47901","61577cfb758541d9e85d5d4e","2","46","2274","","true","","","","","","","","","","","","","","","","","","","",""
"","","","","","","","","","","","call-function","3","2.0.0","47903","61577cfb758541d9e85d5d4e","2","46","","","","{}","","","","","","","","","","","","","","","","","","",""
"","","","","","","","","","","","preload","4","2.0.0","56831","61577cfb758541d9e85d5d4e","2","46","","","true","","false","[]","[]","[]","","","","","","","","","","","","","","",""
"","","","","","","","","","","","instructions","5","2.0.0","104844","61577cfb758541d9e85d5d4e","2","46","48012","","","","","","","","[{""page_index"":0,""viewing_time"":17821},{""page_index"":1,""viewing_time"":19532},{""page_index"":2,""viewing_time"":10659}]","","","","","","","","","","","","","",""
"","","","","","","","","","","","html-button-response","6","2.0.0","107912","61577cfb758541d9e85d5d4e","2","46","3066","","","","","","","","","","0","start_test","","","","","","","","","","",""
"","","","","","","","","","","","html-button-response","7","2.0.0","109572","61577cfb758541d9e85d5d4e","2","46","1658","","","","","","","","","<img src= ""rock_img/I_Andesite_14.jpg"" style=""width:8cm; height:5.449999999999999cm;""><p>What type of rock is this?</p>","2","class_response","0","test","1","Diorite","Andesite","14","false","3","1","",""
"","","","","","","","","","","","html-keyboard-response","8","2.0.0","110078","61577cfb758541d9e85d5d4e","2","46","null","","","","","","","","","<p style='font-size: 30px;'><strong>Okay</strong></p>","null","neutral_feedback","0","test","1","","","","","","","",""
"","","","","","","","","","","","html-button-response","9","2.0.0","111761","61577cfb758541d9e85d5d4e","2","46","1680","","","","","","","","","<img src= ""rock_img/I_Obsidian_05.jpg"" style=""width:8cm; height:6.33cm;""><p>What type of rock is this?</p>","4","class_response","0","test","2","Obsidian","Obsidian","05","true","5","5","",""
"","","","","","","","","","","","html-keyboard-response","10","2.0.0","112263","61577cfb758541d9e85d5d4e","2","46","null","","","","","","","","","<p style='font-size: 30px;'><strong>Okay</strong></p>","null","neutral_feedback","0","test","2","","","","","","","",""
"","","","","","","","","","","","html-button-response","11","2.0.0","117888","61577cfb758541d9e85d5d4e","2","46","5623","","","","","","","","","<img src= ""rock_img/I_Diorite_16.jpg"" style=""width:8cm; height:6.74cm;""><p>What type of rock is this?</p>","0","class_response","0","test","3","Andesite","Diorite","16","false","1","3","",""
"","","","","","","","","","","","html-keyboard-response","12","2.0.0","118400","61577cfb758541d9e85d5d4e","2","46","null","","","","","","","","","<p style='font-size: 30px;'><strong>Okay</strong></p>","null","neutral_feedback","0","test","3","","","","","","","",""
"","","","","","","","","","","","html-button-response","13","2.0.0","121266","61577cfb758541d9e85d5d4e","2","46","2864","","","","","","","","","<img src= ""rock_img/I_Gabbro_11.jpg"" style=""width:8cm; height:6.2cm;""><p>What type of rock is this?</p>","0","class_response","0","test","4","Andesite","Gabbro","11","false","1","4","",""
"","","","","","","","","","","","html-keyboard-response","14","2.0.0","121781","61577cfb758541d9e85d5d4e","2","46","null","","","","","","","","","<p style='font-size: 30px;'><strong>Okay</strong></p>","null","neutral_feedback","0","test","4","","","","","","","",""
"","","","","","","","","","","","html-button-response","15","2.0.0","123547","61577cfb758541d9e85d5d4e","2","46","1764","","","","","","","","","<img src= ""rock_img/I_Diorite_09.jpg"" style=""width:8cm; height:5.27cm;""><p>What type of rock is this?</p>","2","class_response","0","test","5","Diorite","Diorite","09","true","3","3","",""
"","","","","","","","","","","","html-keyboard-response","16","2.0.0","124050","61577cfb758541d9e85d5d4e","2","46","null","","","","","","","","","<p style='font-size: 30px;'><strong>Okay</strong></p>","null","neutral_feedback","0","test","5","","","","","","","",""
"","","","","","","","","","","","html-button-response","17","2.0.0","125822","61577cfb758541d9e85d5d4e","2","46","1769","","","","","","","","","<img src= ""rock_img/I_Gabbro_08.jpg"" style=""width:8cm; height:5.15cm;""><p>What type of rock is this?</p>","1","class_response","0","test","6","Basalt","Gabbro","08","false","2","4","",""
"","","","","","","","","","","","html-keyboard-response","18","2.0.0","126334","61577cfb758541d9e85d5d4e","2","46","null","","","","","","","","","<p style='font-size: 30px;'><strong>Okay</strong></p>","null","neutral_feedback","0","test","6","","","","","","","",""
"","","","","","","","","","","","html-button-response","19","2.0.0","128516","61577cfb758541d9e85d5d4e","2","46","2180","","","","","","","","","<img src= ""rock_img/I_Diorite_13.jpg"" style=""width:8cm; height:6.29cm;""><p>What type of rock is this?</p>","5","class_response","0","test","7","Pegmatite","Diorite","13","false","6","3","",""
"","","","","","","","","","","","html-keyboard-response","20","2.0.0","129018","61577cfb758541d9e85d5d4e","2","46","null","","","","","","","","","<p style='font-size: 30px;'><strong>Okay</strong></p>","null","neutral_feedback","0","test","7","","","","","","","",""
"","","","","","","","","","","","html-button-response","21","2.0.0","131732","61577cfb758541d9e85d5d4e","2","46","2711","","","","","","","","","<img src= ""rock_img/I_Andesite_04.jpg"" style=""width:8cm; height:5.96cm;""><p>What type of rock is this?</p>","3","class_response","0","test","8","Gabbro","Andesite","04","false","4","1","",""
"","","","","","","","","","","","html-keyboard-response","22","2.0.0","132246","61577cfb758541d9e85d5d4e","2","46","null","","","","","","","","","<p style='font-size: 30px;'><strong>Okay</strong></p>","null","neutral_feedback","0","test","8","","","","","","","",""
"","","","","","","","","","","","html-button-response","23","2.0.0","133750","61577cfb758541d9e85d5d4e","2","46","1502","","","","","","","","","<img src= ""rock_img/I_Pegmatite_06.jpg"" style=""width:8cm; height:5.17cm;""><p>What type of rock is this?</p>","7","class_response","0","test","9","Pumice","Pegmatite","06","false","8","6","",""
"","","","","","","","","","","","html-keyboard-response","24","2.0.0","134255","61577cfb758541d9e85d5d4e","2","46","null","","","","","","","","","<p style='font-size: 30px;'><strong>Okay</strong></p>","null","neutral_feedback","0","test","9","","","","","","","",""
"","","","","","","","","","","","html-button-response","25","2.0.0","138664","61577cfb758541d9e85d5d4e","2","46","4407","","","","","","","","","<img src= ""rock_img/I_Pegmatite_11.jpg"" style=""width:8cm; height:8.14cm;""><p>What type of rock is this?</p>","6","class_response","0","test","10","Peridotite","Pegmatite","11","false","7","6","",""
"","","","","","","","","","","","html-keyboard-response","26","2.0.0","139174","61577cfb758541d9e85d5d4e","2","46","null","","","","","","","","","<p style='font-size: 30px;'><strong>Okay</strong></p>","null","neutral_feedback","0","test","10","","","","","","","",""
"","","","","","","","","","","","html-button-response","27","2.0.0","140690","61577cfb758541d9e85d5d4e","2","46","1514","","","","","","","","","<img src= ""rock_img/I_Obsidian_09.jpg"" style=""width:8cm; height:5cm;""><p>What type of rock is this?</p>","4","class_response","0","test","11","Obsidian","Obsidian","09","true","5","5","",""
"","","","","","","","","","","","html-keyboard-response","28","2.0.0","141199","61577cfb758541d9e85d5d4e","2","46","null","","","","","","","","","<p style='font-size: 30px;'><strong>Okay</strong></p>","null","neutral_feedback","0","test","11","","","","","","","",""
"","","","","","","","","","","","html-button-response","29","2.0.0","143044","61577cfb758541d9e85d5d4e","2","46","1843","","","","","","","","","<img src= ""rock_img/I_Andesite_11.jpg"" style=""width:8cm; height:4.92cm;""><p>What type of rock is this?</p>","0","class_response","0","test","12","Andesite","Andesite","11","true","1","1","",""
"","","","","","","","","","","","html-keyboard-response","30","2.0.0","143557","61577cfb758541d9e85d5d4e","2","46","null","","","","","","","","","<p style='font-size: 30px;'><strong>Okay</strong></p>","null","neutral_feedback","0","test","12","","","","","","","",""
"","","","","","","","","","","","html-button-response","31","2.0.0","146048","61577cfb758541d9e85d5d4e","2","46","2488","","","","","","","","","<img src= ""rock_img/I_Gabbro_13.jpg"" style=""width:8cm; height:5.08cm;""><p>What type of rock is this?</p>","5","class_response","0","test","13","Pegmatite","Gabbro","13","false","6","4","",""
"","","","","","","","","","","","html-keyboard-response","32","2.0.0","146562","61577cfb758541d9e85d5d4e","2","46","null","","","","","","","","","<p style='font-size: 30px;'><strong>Okay</strong></p>","null","neutral_feedback","0","test","13","","","","","","","",""
"","","","","","","","","","","","html-button-response","33","2.0.0","147974","61577cfb758541d9e85d5d4e","2","46","1410","","","","","","","","","<img src= ""rock_img/I_Obsidian_06.jpg"" style=""width:8cm; height:6.8cm;""><p>What type of rock is this?</p>","4","class_response","0","test","14","Obsidian","Obsidian","06","true","5","5","",""
"","","","","","","","","","","","html-keyboard-response","34","2.0.0","148475","61577cfb758541d9e85d5d4e","2","46","null","","","","","","","","","<p style='font-size: 30px;'><strong>Okay</strong></p>","null","neutral_feedback","0","test","14","","","","","","","",""
"","","","","","","","","","","","html-button-response","35","2.0.0","150054","61577cfb758541d9e85d5d4e","2","46","1577","","","","","","","","","<img src= ""rock_img/I_Gabbro_01.jpg"" style=""width:8cm; height:5.21cm;""><p>What type of rock is this?</p>","0","class_response","0","test","15","Andesite","Gabbro","01","false","1","4","",""
"","","","","","","","","","","","html-keyboard-response","36","2.0.0","150562","61577cfb758541d9e85d5d4e","2","46","null","","","","","","","","","<p style='font-size: 30px;'><strong>Okay</strong></p>","null","neutral_feedback","0","test","15","","","","","","","",""
"","","","","","","","","","","","html-button-response","37","2.0.0","152856","61577cfb758541d9e85d5d4e","2","46","2292","","","","","","","","","<img src= ""rock_img/I_Peridotite_02.jpg"" style=""width:8cm; height:5.859999999999999cm;""><p>What type of rock is this?</p>","6","class_response","0","test","16","Peridotite","Peridotite","02","true","7","7","",""
"","","","","","","","","","","","html-keyboard-response","38","2.0.0","153365","61577cfb758541d9e85d5d4e","2","46","null","","","","","","","","","<p style='font-size: 30px;'><strong>Okay</strong></p>","null","neutral_feedback","0","test","16","","","","","","","",""
"","","","","","","","","","","","html-button-response","39","2.0.0","154518","61577cfb758541d9e85d5d4e","2","46","1150","","","","","","","","","<img src= ""rock_img/I_Basalt_06.jpg"" style=""width:8cm; height:7.06cm;""><p>What type of rock is this?</p>","4","class_response","0","test","17","Obsidian","Basalt","06","false","5","2","",""
"","","","","","","","","","","","html-keyboard-response","40","2.0.0","155019","61577cfb758541d9e85d5d4e","2","46","null","","","","","","","","","<p style='font-size: 30px;'><strong>Okay</strong></p>","null","neutral_feedback","0","test","17","","","","","","","",""
"","","","","","","","","","","","html-button-response","41","2.0.0","162104","61577cfb758541d9e85d5d4e","2","46","7083","","","","","","","","","<img src= ""rock_img/I_Diorite_12.jpg"" style=""width:8cm; height:4.88cm;""><p>What type of rock is this?</p>","5","class_response","0","test","18","Pegmatite","Diorite","12","false","6","3","",""
"","","","","","","","","","","","html-keyboard-response","42","2.0.0","162610","61577cfb758541d9e85d5d4e","2","46","null","","","","","","","","","<p style='font-size: 30px;'><strong>Okay</strong></p>","null","neutral_feedback","0","test","18","","","","","","","",""
"","","","","","","","","","","","html-button-response","43","2.0.0","164541","61577cfb758541d9e85d5d4e","2","46","1930","","","","","","","","","<img src= ""rock_img/I_Pegmatite_05.jpg"" style=""width:8cm; height:7.300000000000001cm;""><p>What type of rock is this?</p>","4","class_response","0","test","19","Obsidian","Pegmatite","05","false","5","6","",""
"","","","","","","","","","","","html-keyboard-response","44","2.0.0","165044","61577cfb758541d9e85d5d4e","2","46","null","","","","","","","","","<p style='font-size: 30px;'><strong>Okay</strong></p>","null","neutral_feedback","0","test","19","","","","","","","",""
"","","","","","","","","","","","html-button-response","45","2.0.0","166280","61577cfb758541d9e85d5d4e","2","46","1234","","","","","","","","","<img src= ""rock_img/I_Pegmatite_16.jpg"" style=""width:8cm; height:5.8cm;""><p>What type of rock is this?</p>","4","class_response","0","test","20","Obsidian","Pegmatite","16","false","5","6","",""
"","","","","","","","","","","","html-keyboard-response","46","2.0.0","166795","61577cfb758541d9e85d5d4e","2","46","null","","","","","","","","","<p style='font-size: 30px;'><strong>Okay</strong></p>","null","neutral_feedback","0","test","20","","","","","","","",""
"","","","","","","","","","","","html-button-response","47","2.0.0","168899","61577cfb758541d9e85d5d4e","2","46","2103","","","","","","","","","<img src= ""rock_img/I_Pegmatite_09.jpg"" style=""width:8cm; height:4.03cm;""><p>What type of rock is this?</p>","5","class_response","0","test","21","Pegmatite","Pegmatite","09","true","6","6","",""
"","","","","","","","","","","","html-keyboard-response","48","2.0.0","169410","61577cfb758541d9e85d5d4e","2","46","null","","","","","","","","","<p style='font-size: 30px;'><strong>Okay</strong></p>","null","neutral_feedback","0","test","21","","","","","","","",""
"","","","","","","","","","","","html-button-response","49","2.0.0","173315","61577cfb758541d9e85d5d4e","2","46","3904","","","","","","","","","<img src= ""rock_img/I_Peridotite_10.jpg"" style=""width:8cm; height:5.390000000000001cm;""><p>What type of rock is this?</p>","5","class_response","0","test","22","Pegmatite","Peridotite","10","false","6","7","",""
"","","","","","","","","","","","html-keyboard-response","50","2.0.0","173828","61577cfb758541d9e85d5d4e","2","46","null","","","","","","","","","<p style='font-size: 30px;'><strong>Okay</strong></p>","null","neutral_feedback","0","test","22","","","","","","","",""
"","","","","","","","","","","","html-button-response","51","2.0.0","175031","61577cfb758541d9e85d5d4e","2","46","1201","","","","","","","","","<img src= ""rock_img/I_Pegmatite_15.jpg"" style=""width:8cm; height:6cm;""><p>What type of rock is this?</p>","4","class_response","0","test","23","Obsidian","Pegmatite","15","false","5","6","",""
"","","","","","","","","","","","html-keyboard-response","52","2.0.0","175542","61577cfb758541d9e85d5d4e","2","46","null","","","","","","","","","<p style='font-size: 30px;'><strong>Okay</strong></p>","null","neutral_feedback","0","test","23","","","","","","","",""
"","","","","","","","","","","","html-button-response","53","2.0.0","177726","61577cfb758541d9e85d5d4e","2","46","2182","","","","","","","","","<img src= ""rock_img/I_Pumice_09.jpg"" style=""width:8cm; height:6.44cm;""><p>What type of rock is this?</p>","4","class_response","0","test","24","Obsidian","Pumice","09","false","5","8","",""
"","","","","","","","","","","","html-keyboard-response","54","2.0.0","178239","61577cfb758541d9e85d5d4e","2","46","null","","","","","","","","","<p style='font-size: 30px;'><strong>Okay</strong></p>","null","neutral_feedback","0","test","24","","","","","","","",""
"","","","","","","","","","","","html-button-response","55","2.0.0","179426","61577cfb758541d9e85d5d4e","2","46","1185","","","","","","","","","<img src= ""rock_img/I_Peridotite_14.jpg"" style=""width:8cm; height:5.3cm;""><p>What type of rock is this?</p>","1","class_response","0","test","25","Basalt","Peridotite","14","false","2","7","",""
"","","","","","","","","","","","html-keyboard-response","56","2.0.0","179937","61577cfb758541d9e85d5d4e","2","46","null","","","","","","","","","<p style='font-size: 30px;'><strong>Okay</strong></p>","null","neutral_feedback","0","test","25","","","","","","","",""
"","","","","","","","","","","","html-button-response","57","2.0.0","180776","61577cfb758541d9e85d5d4e","2","46","837","","","","","","","","","<img src= ""rock_img/I_Pumice_03.jpg"" style=""width:8cm; height:6.64cm;""><p>What type of rock is this?</p>","6","class_response","0","test","26","Peridotite","Pumice","03","false","7","8","",""
"","","","","","","","","","","","html-keyboard-response","58","2.0.0","181280","61577cfb758541d9e85d5d4e","2","46","null","","","","","","","","","<p style='font-size: 30px;'><strong>Okay</strong></p>","null","neutral_feedback","0","test","26","","","","","","","",""
"","","","","","","","","","","","html-button-response","59","2.0.0","182670","61577cfb758541d9e85d5d4e","2","46","1388","","","","","","","","","<img src= ""rock_img/I_Gabbro_12.jpg"" style=""width:8cm; height:7.800000000000001cm;""><p>What type of rock is this?</p>","0","class_response","0","test","27","Andesite","Gabbro","12","false","1","4","",""
"","","","","","","","","","","","html-keyboard-response","60","2.0.0","183183","61577cfb758541d9e85d5d4e","2","46","null","","","","","","","","","<p style='font-size: 30px;'><strong>Okay</strong></p>","null","neutral_feedback","0","test","27","","","","","","","",""
"","","","","","","","","","","","html-button-response","61","2.0.0","184448","61577cfb758541d9e85d5d4e","2","46","1262","","","","","","","","","<img src= ""rock_img/I_Basalt_04.jpg"" style=""width:8cm; height:7.53cm;""><p>What type of rock is this?</p>","4","class_response","0","test","28","Obsidian","Basalt","04","false","5","2","",""
"","","","","","","","","","","","html-keyboard-response","62","2.0.0","184962","61577cfb758541d9e85d5d4e","2","46","null","","","","","","","","","<p style='font-size: 30px;'><strong>Okay</strong></p>","null","neutral_feedback","0","test","28","","","","","","","",""
"","","","","","","","","","","","html-button-response","63","2.0.0","186451","61577cfb758541d9e85d5d4e","2","46","1487","","","","","","","","","<img src= ""rock_img/I_Pumice_16.jpg"" style=""width:8cm; height:6.79cm;""><p>What type of rock is this?</p>","7","class_response","0","test","29","Pumice","Pumice","16","true","8","8","",""
"","","","","","","","","","","","html-keyboard-response","64","2.0.0","186953","61577cfb758541d9e85d5d4e","2","46","null","","","","","","","","","<p style='font-size: 30px;'><strong>Okay</strong></p>","null","neutral_feedback","0","test","29","","","","","","","",""
"","","","","","","","","","","","html-button-response","65","2.0.0","188857","61577cfb758541d9e85d5d4e","2","46","1903","","","","","","","","","<img src= ""rock_img/I_Peridotite_16.jpg"" style=""width:8cm; height:6.989999999999999cm;""><p>What type of rock is this?</p>","5","class_response","0","test","30","Pegmatite","Peridotite","16","false","6","7","",""
"","","","","","","","","","","","html-keyboard-response","66","2.0.0","189370","61577cfb758541d9e85d5d4e","2","46","null","","","","","","","","","<p style='font-size: 30px;'><strong>Okay</strong></p>","null","neutral_feedback","0","test","30","","","","","","","",""
"","","","","","","","","","","","html-button-response","67","2.0.0","190503","61577cfb758541d9e85d5d4e","2","46","1131","","","","","","","","","<img src= ""rock_img/I_Andesite_16.jpg"" style=""width:8cm; height:6.010000000000001cm;""><p>What type of rock is this?</p>","2","class_response","0","test","31","Diorite","Andesite","16","false","3","1","",""
"","","","","","","","","","","","html-keyboard-response","68","2.0.0","191005","61577cfb758541d9e85d5d4e","2","46","null","","","","","","","","","<p style='font-size: 30px;'><strong>Okay</strong></p>","null","neutral_feedback","0","test","31","","","","","","","",""
"","","","","","","","","","","","html-button-response","69","2.0.0","192801","61577cfb758541d9e85d5d4e","2","46","1794","","","","","","","","","<img src= ""rock_img/I_Andesite_05.jpg"" style=""width:8cm; height:4.12cm;""><p>What type of rock is this?</p>","1","class_response","0","test","32","Basalt","Andesite","05","false","2","1","",""
"","","","","","","","","","","","html-keyboard-response","70","2.0.0","193313","61577cfb758541d9e85d5d4e","2","46","null","","","","","","","","","<p style='font-size: 30px;'><strong>Okay</strong></p>","null","neutral_feedback","0","test","32","","","","","","","",""
"","","","","","","","","","","","html-button-response","71","2.0.0","194308","61577cfb758541d9e85d5d4e","2","46","994","","","","","","","","","<img src= ""rock_img/I_Obsidian_12.jpg"" style=""width:8cm; height:6.53cm;""><p>What type of rock is this?</p>","4","class_response","0","test","33","Obsidian","Obsidian","12","true","5","5","",""
"","","","","","","","","","","","html-keyboard-response","72","2.0.0","194813","61577cfb758541d9e85d5d4e","2","46","null","","","","","","","","","<p style='font-size: 30px;'><strong>Okay</strong></p>","null","neutral_feedback","0","test","33","","","","","","","",""
"","","","","","","","","","","","html-button-response","73","2.0.0","195876","61577cfb758541d9e85d5d4e","2","46","1062","","","","","","","","","<img src= ""rock_img/I_Diorite_08.jpg"" style=""width:8cm; height:6.37cm;""><p>What type of rock is this?</p>","2","class_response","0","test","34","Diorite","Diorite","08","true","3","3","",""
"","","","","","","","","","","","html-keyboard-response","74","2.0.0","196377","61577cfb758541d9e85d5d4e","2","46","null","","","","","","","","","<p style='font-size: 30px;'><strong>Okay</strong></p>","null","neutral_feedback","0","test","34","","","","","","","",""
"","","","","","","","","","","","html-button-response","75","2.0.0","197189","61577cfb758541d9e85d5d4e","2","46","810","","","","","","","","","<img src= ""rock_img/I_Obsidian_11.jpg"" style=""width:8cm; height:6.05cm;""><p>What type of rock is this?</p>","4","class_response","0","test","35","Obsidian","Obsidian","11","true","5","5","",""
"","","","","","","","","","","","html-keyboard-response","76","2.0.0","197692","61577cfb758541d9e85d5d4e","2","46","null","","","","","","","","","<p style='font-size: 30px;'><strong>Okay</strong></p>","null","neutral_feedback","0","test","35","","","","","","","",""
"","","","","","","","","","","","html-button-response","77","2.0.0","198826","61577cfb758541d9e85d5d4e","2","46","1132","","","","","","","","","<img src= ""rock_img/I_Basalt_05.jpg"" style=""width:8cm; height:8.18cm;""><p>What type of rock is this?</p>","4","class_response","0","test","36","Obsidian","Basalt","05","false","5","2","",""
"","","","","","","","","","","","html-keyboard-response","78","2.0.0","199335","61577cfb758541d9e85d5d4e","2","46","null","","","","","","","","","<p style='font-size: 30px;'><strong>Okay</strong></p>","null","neutral_feedback","0","test","36","","","","","","","",""
"","","","","","","","","","","","html-button-response","79","2.0.0","200286","61577cfb758541d9e85d5d4e","2","46","948","","","","","","","","","<img src= ""rock_img/I_Peridotite_05.jpg"" style=""width:8cm; height:7.1499999999999995cm;""><p>What type of rock is this?</p>","4","class_response","0","test","37","Obsidian","Peridotite","05","false","5","7","",""
"","","","","","","","","","","","html-keyboard-response","80","2.0.0","200800","61577cfb758541d9e85d5d4e","2","46","null","","","","","","","","","<p style='font-size: 30px;'><strong>Okay</strong></p>","null","neutral_feedback","0","test","37","","","","","","","",""
"","","","","","","","","","","","html-button-response","81","2.0.0","202794","61577cfb758541d9e85d5d4e","2","46","1992","","","","","","","","","<img src= ""rock_img/I_Pumice_04.jpg"" style=""width:8cm; height:6.819999999999999cm;""><p>What type of rock is this?</p>","0","class_response","0","test","38","Andesite","Pumice","04","false","1","8","",""
"","","","","","","","","","","","html-keyboard-response","82","2.0.0","203300","61577cfb758541d9e85d5d4e","2","46","null","","","","","","","","","<p style='font-size: 30px;'><strong>Okay</strong></p>","null","neutral_feedback","0","test","38","","","","","","","",""
"","","","","","","","","","","","html-button-response","83","2.0.0","204410","61577cfb758541d9e85d5d4e","2","46","1107","","","","","","","","","<img src= ""rock_img/I_Basalt_01.jpg"" style=""width:8cm; height:7.880000000000001cm;""><p>What type of rock is this?</p>","5","class_response","0","test","39","Pegmatite","Basalt","01","false","6","2","",""
"","","","","","","","","","","","html-keyboard-response","84","2.0.0","204912","61577cfb758541d9e85d5d4e","2","46","null","","","","","","","","","<p style='font-size: 30px;'><strong>Okay</strong></p>","null","neutral_feedback","0","test","39","","","","","","","",""
"","","","","","","","","","","","html-button-response","85","2.0.0","205954","61577cfb758541d9e85d5d4e","2","46","1041","","","","","","","","","<img src= ""rock_img/I_Pumice_08.jpg"" style=""width:8cm; height:6.67cm;""><p>What type of rock is this?</p>","1","class_response","0","test","40","Basalt","Pumice","08","false","2","8","",""
"","","","","","","","","","","","html-keyboard-response","86","2.0.0","206465","61577cfb758541d9e85d5d4e","2","46","null","","","","","","","","","<p style='font-size: 30px;'><strong>Okay</strong></p>","null","neutral_feedback","0","test","40","","","","","","","",""
"","","","","","","","","","","","html-button-response","87","2.0.0","208912","61577cfb758541d9e85d5d4e","2","46","2446","","","","","","","","","<img src= ""rock_img/I_Andesite_03.jpg"" style=""width:8cm; height:5.73cm;""><p>What type of rock is this?</p>","1","class_response","0","test","41","Basalt","Andesite","03","false","2","1","",""
"","","","","","","","","","","","html-keyboard-response","88","2.0.0","209420","61577cfb758541d9e85d5d4e","2","46","null","","","","","","","","","<p style='font-size: 30px;'><strong>Okay</strong></p>","null","neutral_feedback","0","test","41","","","","","","","",""
"","","","","","","","","","","","html-button-response","89","2.0.0","210598","61577cfb758541d9e85d5d4e","2","46","1176","","","","","","","","","<img src= ""rock_img/I_Basalt_16.jpg"" style=""width:8cm; height:7.659999999999999cm;""><p>What type of rock is this?</p>","1","class_response","0","test","42","Basalt","Basalt","16","true","2","2","",""
"","","","","","","","","","","","html-keyboard-response","90","2.0.0","211106","61577cfb758541d9e85d5d4e","2","46","null","","","","","","","","","<p style='font-size: 30px;'><strong>Okay</strong></p>","null","neutral_feedback","0","test","42","","","","","","","",""
"","","","","","","","","","","","html-button-response","91","2.0.0","212390","61577cfb758541d9e85d5d4e","2","46","1282","","","","","","","","","<img src= ""rock_img/I_Basalt_12.jpg"" style=""width:8cm; height:6.010000000000001cm;""><p>What type of rock is this?</p>","2","class_response","0","test","43","Diorite","Basalt","12","false","3","2","",""
"","","","","","","","","","","","html-keyboard-response","92","2.0.0","212898","61577cfb758541d9e85d5d4e","2","46","null","","","","","","","","","<p style='font-size: 30px;'><strong>Okay</strong></p>","null","neutral_feedback","0","test","43","","","","","","","",""
"","","","","","","","","","","","html-button-response","93","2.0.0","213773","61577cfb758541d9e85d5d4e","2","46","873","","","","","","","","","<img src= ""rock_img/I_Pumice_14.jpg"" style=""width:8cm; height:6.39cm;""><p>What type of rock is this?</p>","1","class_response","0","test","44","Basalt","Pumice","14","false","2","8","",""
"","","","","","","","","","","","html-keyboard-response","94","2.0.0","214277","61577cfb758541d9e85d5d4e","2","46","null","","","","","","","","","<p style='font-size: 30px;'><strong>Okay</strong></p>","null","neutral_feedback","0","test","44","","","","","","","",""
"","","","","","","","","","","","html-button-response","95","2.0.0","215930","61577cfb758541d9e85d5d4e","2","46","1651","","","","","","","","","<img src= ""rock_img/I_Gabbro_15.jpg"" style=""width:8cm; height:6.29cm;""><p>What type of rock is this?</p>","1","class_response","0","test","45","Basalt","Gabbro","15","false","2","4","",""
"","","","","","","","","","","","html-keyboard-response","96","2.0.0","216439","61577cfb758541d9e85d5d4e","2","46","null","","","","","","","","","<p style='font-size: 30px;'><strong>Okay</strong></p>","null","neutral_feedback","0","test","45","","","","","","","",""
"","","","","","","","","","","","html-button-response","97","2.0.0","217204","61577cfb758541d9e85d5d4e","2","46","763","","","","","","","","","<img src= ""rock_img/I_Diorite_10.jpg"" style=""width:8cm; height:5.949999999999999cm;""><p>What type of rock is this?</p>","1","class_response","0","test","46","Basalt","Diorite","10","false","2","3","",""
"","","","","","","","","","","","html-keyboard-response","98","2.0.0","217705","61577cfb758541d9e85d5d4e","2","46","null","","","","","","","","","<p style='font-size: 30px;'><strong>Okay</strong></p>","null","neutral_feedback","0","test","46","","","","","","","",""
"","","","","","","","","","","","html-button-response","99","2.0.0","218950","61577cfb758541d9e85d5d4e","2","46","1243","","","","","","","","","<img src= ""rock_img/I_Peridotite_12.jpg"" style=""width:8cm; height:4.54cm;""><p>What type of rock is this?</p>","5","class_response","0","test","47","Pegmatite","Peridotite","12","false","6","7","",""
"","","","","","","","","","","","html-keyboard-response","100","2.0.0","219458","61577cfb758541d9e85d5d4e","2","46","null","","","","","","","","","<p style='font-size: 30px;'><strong>Okay</strong></p>","null","neutral_feedback","0","test","47","","","","","","","",""
"","","","","","","","","","","","html-button-response","101","2.0.0","220651","61577cfb758541d9e85d5d4e","2","46","1192","","","","","","","","","<img src= ""rock_img/I_Obsidian_02.jpg"" style=""width:8cm; height:7.51cm;""><p>What type of rock is this?</p>","4","class_response","0","test","48","Obsidian","Obsidian","02","true","5","5","",""
"","","","","","","","","","","","html-keyboard-response","102","2.0.0","221159","61577cfb758541d9e85d5d4e","2","46","null","","","","","","","","","<p style='font-size: 30px;'><strong>Okay</strong></p>","null","neutral_feedback","0","test","48","","","","","","","",""
"","","","","","","","","","","","instructions","103","2.0.0","234788","61577cfb758541d9e85d5d4e","2","46","13594","","","","","","","","[{""page_index"":0,""viewing_time"":7484},{""page_index"":1,""viewing_time"":3440},{""page_index"":2,""viewing_time"":2670}]","","","","","","","","","","","","","",""
"","","","","","","","","","","","html-button-response","104","2.0.0","239300","61577cfb758541d9e85d5d4e","2","46","4511","","","","","","","","","","0","start_train","","","","","","","","","","",""
"","","","","","","","","","","","html-button-response","105","2.0.0","243212","61577cfb758541d9e85d5d4e","2","46","3910","","","","","","","","","<img src= ""rock_img/I_Peridotite_07.jpg"" style=""width:8cm; height:4.83cm;""><p>What type of rock is this?</p>","5","class_response","1","train","1","Pegmatite","Peridotite","07","false","6","7","",""
"","","","","","","","","","","","html-button-response","106","2.0.0","252156","61577cfb758541d9e85d5d4e","2","46","8942","","","","","","","","","<img src= rock_img/I_Peridotite_07.jpg style=""width:8cm; height:4.83cm;""><p style='font-size: 30px; color: red;'><strong>Incorrect!</strong></p><p style='font-size: 30px;'><strong>This rock is peridotite</strong></p>","0","corr_feedback","1","train","1","","","","","","","",""
"","","","","","","","","","","","html-button-response","107","2.0.0","254562","61577cfb758541d9e85d5d4e","2","46","2405","","","","","","","","","<img src= ""rock_img/I_Andesite_01.jpg"" style=""width:8cm; height:5.87cm;""><p>What type of rock is this?</p>","5","class_response","1","train","2","Pegmatite","Andesite","01","false","6","1","",""
"","","","","","","","","","","","html-button-response","108","2.0.0","258964","61577cfb758541d9e85d5d4e","2","46","4401","","","","","","","","","<img src= rock_img/I_Andesite_01.jpg style=""width:8cm; height:5.87cm;""><p style='font-size: 30px; color: red;'><strong>Incorrect!</strong></p><p style='font-size: 30px;'><strong>This rock is andesite</strong></p>","0","corr_feedback","1","train","2","","","","","","","",""
"","","","","","","","","","","","html-button-response","109","2.0.0","260392","61577cfb758541d9e85d5d4e","2","46","1426","","","","","","","","","<img src= ""rock_img/I_Basalt_08.jpg"" style=""width:8cm; height:10.44cm;""><p>What type of rock is this?</p>","4","class_response","1","train","3","Obsidian","Basalt","08","false","5","2","",""
"","","","","","","","","","","","html-button-response","110","2.0.0","263078","61577cfb758541d9e85d5d4e","2","46","2685","","","","","","","","","<img src= rock_img/I_Basalt_08.jpg style=""width:8cm; height:10.44cm;""><p style='font-size: 30px; color: red;'><strong>Incorrect!</strong></p><p style='font-size: 30px;'><strong>This rock is basalt</strong></p>","0","corr_feedback","1","train","3","","","","","","","",""
"","","","","","","","","","","","html-button-response","111","2.0.0","265082","61577cfb758541d9e85d5d4e","2","46","2003","","","","","","","","","<img src= ""rock_img/I_Pegmatite_07.jpg"" style=""width:8cm; height:6.7cm;""><p>What type of rock is this?</p>","3","class_response","1","train","4","Gabbro","Pegmatite","07","false","4","6","",""
"","","","","","","","","","","","html-button-response","112","2.0.0","266874","61577cfb758541d9e85d5d4e","2","46","1791","","","","","","","","","<img src= rock_img/I_Pegmatite_07.jpg style=""width:8cm; height:6.7cm;""><p style='font-size: 30px; color: red;'><strong>Incorrect!</strong></p><p style='font-size: 30px;'><strong>This rock is pegmatite</strong></p>","0","corr_feedback","1","train","4","","","","","","","",""
"","","","","","","","","","","","html-button-response","113","2.0.0","271890","61577cfb758541d9e85d5d4e","2","46","5015","","","","","","","","","<img src= ""rock_img/I_Pumice_10.jpg"" style=""width:8cm; height:7.609999999999999cm;""><p>What type of rock is this?</p>","7","class_response","1","train","5","Pumice","Pumice","10","true","8","8","",""
"","","","","","","","","","","","html-button-response","114","2.0.0","277984","61577cfb758541d9e85d5d4e","2","46","6093","","","","","","","","","<img src= rock_img/I_Pumice_10.jpg style=""width:8cm; height:7.609999999999999cm;""><p style='font-size: 30px; color: green;'><strong>Correct!</strong></p><p style='font-size: 30px;'><strong>This rock is pumice</strong></p>","0","corr_feedback","1","train","5","","","","","","","",""
"","","","","","","","","","","","html-button-response","115","2.0.0","280842","61577cfb758541d9e85d5d4e","2","46","2857","","","","","","","","","<img src= ""rock_img/I_Gabbro_14.jpg"" style=""width:8cm; height:8.48cm;""><p>What type of rock is this?</p>","1","class_response","1","train","6","Basalt","Gabbro","14","false","2","4","",""
"","","","","","","","","","","","html-button-response","116","2.0.0","282100","61577cfb758541d9e85d5d4e","2","46","1257","","","","","","","","","<img src= rock_img/I_Gabbro_14.jpg style=""width:8cm; height:8.48cm;""><p style='font-size: 30px; color: red;'><strong>Incorrect!</strong></p><p style='font-size: 30px;'><strong>This rock is gabbro</strong></p>","0","corr_feedback","1","train","6","","","","","","","",""
"","","","","","","","","","","","html-button-response","117","2.0.0","286508","61577cfb758541d9e85d5d4e","2","46","4407","","","","","","","","","<img src= ""rock_img/I_Pegmatite_07.jpg"" style=""width:8cm; height:6.7cm;""><p>What type of rock is this?</p>","6","class_response","1","train","7","Peridotite","Pegmatite","07","false","7","6","",""
"","","","","","","","","","","","html-button-response","118","2.0.0","288566","61577cfb758541d9e85d5d4e","2","46","2056","","","","","","","","","<img src= rock_img/I_Pegmatite_07.jpg style=""width:8cm; height:6.7cm;""><p style='font-size: 30px; color: red;'><strong>Incorrect!</strong></p><p style='font-size: 30px;'><strong>This rock is pegmatite</strong></p>","0","corr_feedback","1","train","7","","","","","","","",""
"","","","","","","","","","","","html-button-response","119","2.0.0","292968","61577cfb758541d9e85d5d4e","2","46","4401","","","","","","","","","<img src= ""rock_img/I_Diorite_07.jpg"" style=""width:8cm; height:5.239999999999999cm;""><p>What type of rock is this?</p>","2","class_response","1","train","8","Diorite","Diorite","07","true","3","3","",""
"","","","","","","","","","","","html-button-response","120","2.0.0","294248","61577cfb758541d9e85d5d4e","2","46","1279","","","","","","","","","<img src= rock_img/I_Diorite_07.jpg style=""width:8cm; height:5.239999999999999cm;""><p style='font-size: 30px; color: green;'><strong>Correct!</strong></p><p style='font-size: 30px;'><strong>This rock is diorite</strong></p>","0","corr_feedback","1","train","8","","","","","","","",""
"","","","","","","","","","","","html-button-response","121","2.0.0","295886","61577cfb758541d9e85d5d4e","2","46","1637","","","","","","","","","<img src= ""rock_img/I_Diorite_14.jpg"" style=""width:8cm; height:5.71cm;""><p>What type of rock is this?</p>","2","class_response","1","train","9","Diorite","Diorite","14","true","3","3","",""
"","","","","","","","","","","","html-button-response","122","2.0.0","297052","61577cfb758541d9e85d5d4e","2","46","1165","","","","","","","","","<img src= rock_img/I_Diorite_14.jpg style=""width:8cm; height:5.71cm;""><p style='font-size: 30px; color: green;'><strong>Correct!</strong></p><p style='font-size: 30px;'><strong>This rock is diorite</strong></p>","0","corr_feedback","1","train","9","","","","","","","",""
"","","","","","","","","","","","html-button-response","123","2.0.0","301507","61577cfb758541d9e85d5d4e","2","46","4455","","","","","","","","","<img src= ""rock_img/I_Pegmatite_03.jpg"" style=""width:8cm; height:5.239999999999999cm;""><p>What type of rock is this?</p>","1","class_response","1","train","10","Basalt","Pegmatite","03","false","2","6","",""
"","","","","","","","","","","","html-button-response","124","2.0.0","302998","61577cfb758541d9e85d5d4e","2","46","1489","","","","","","","","","<img src= rock_img/I_Pegmatite_03.jpg style=""width:8cm; height:5.239999999999999cm;""><p style='font-size: 30px; color: red;'><strong>Incorrect!</strong></p><p style='font-size: 30px;'><strong>This rock is pegmatite</strong></p>","0","corr_feedback","1","train","10","","","","","","","",""
"","","","","","","","","","","","html-button-response","125","2.0.0","309123","61577cfb758541d9e85d5d4e","2","46","6125","","","","","","","","","<img src= ""rock_img/I_Andesite_10.jpg"" style=""width:8cm; height:4.16cm;""><p>What type of rock is this?</p>","7","class_response","1","train","11","Pumice","Andesite","10","false","8","1","",""
"","","","","","","","","","","","html-button-response","126","2.0.0","310444","61577cfb758541d9e85d5d4e","2","46","1319","","","","","","","","","<img src= rock_img/I_Andesite_10.jpg style=""width:8cm; height:4.16cm;""><p style='font-size: 30px; color: red;'><strong>Incorrect!</strong></p><p style='font-size: 30px;'><strong>This rock is andesite</strong></p>","0","corr_feedback","1","train","11","","","","","","","",""
"","","","","","","","","","","","html-button-response","127","2.0.0","312354","61577cfb758541d9e85d5d4e","2","46","1909","","","","","","","","","<img src= ""rock_img/I_Obsidian_14.jpg"" style=""width:8cm; height:7.64cm;""><p>What type of rock is this?</p>","4","class_response","1","train","12","Obsidian","Obsidian","14","true","5","5","",""
"","","","","","","","","","","","html-button-response","128","2.0.0","313434","61577cfb758541d9e85d5d4e","2","46","1079","","","","","","","","","<img src= rock_img/I_Obsidian_14.jpg style=""width:8cm; height:7.64cm;""><p style='font-size: 30px; color: green;'><strong>Correct!</strong></p><p style='font-size: 30px;'><strong>This rock is obsidian</strong></p>","0","corr_feedback","1","train","12","","","","","","","",""
"","","","","","","","","","","","html-button-response","129","2.0.0","314582","61577cfb758541d9e85d5d4e","2","46","1147","","","","","","","","","<img src= ""rock_img/I_Pumice_06.jpg"" style=""width:8cm; height:6.9399999999999995cm;""><p>What type of rock is this?</p>","7","class_response","1","train","13","Pumice","Pumice","06","true","8","8","",""
"","","","","","","","","","","","html-button-response","130","2.0.0","315910","61577cfb758541d9e85d5d4e","2","46","1327","","","","","","","","","<img src= rock_img/I_Pumice_06.jpg style=""width:8cm; height:6.9399999999999995cm;""><p style='font-size: 30px; color: green;'><strong>Correct!</strong></p><p style='font-size: 30px;'><strong>This rock is pumice</strong></p>","0","corr_feedback","1","train","13","","","","","","","",""
"","","","","","","","","","","","html-button-response","131","2.0.0","317339","61577cfb758541d9e85d5d4e","2","46","1428","","","","","","","","","<img src= ""rock_img/I_Pumice_05.jpg"" style=""width:8cm; height:7.25cm;""><p>What type of rock is this?</p>","7","class_response","1","train","14","Pumice","Pumice","05","true","8","8","",""
"","","","","","","","","","","","html-button-response","132","2.0.0","318114","61577cfb758541d9e85d5d4e","2","46","774","","","","","","","","","<img src= rock_img/I_Pumice_05.jpg style=""width:8cm; height:7.25cm;""><p style='font-size: 30px; color: green;'><strong>Correct!</strong></p><p style='font-size: 30px;'><strong>This rock is pumice</strong></p>","0","corr_feedback","1","train","14","","","","","","","",""
"","","","","","","","","","","","html-button-response","133","2.0.0","319518","61577cfb758541d9e85d5d4e","2","46","1403","","","","","","","","","<img src= ""rock_img/I_Obsidian_10.jpg"" style=""width:8cm; height:6.260000000000001cm;""><p>What type of rock is this?</p>","4","class_response","1","train","15","Obsidian","Obsidian","10","true","5","5","",""
"","","","","","","","","","","","html-button-response","134","2.0.0","320544","61577cfb758541d9e85d5d4e","2","46","1025","","","","","","","","","<img src= rock_img/I_Obsidian_10.jpg style=""width:8cm; height:6.260000000000001cm;""><p style='font-size: 30px; color: green;'><strong>Correct!</strong></p><p style='font-size: 30px;'><strong>This rock is obsidian</strong></p>","0","corr_feedback","1","train","15","","","","","","","",""
"","","","","","","","","","","","html-button-response","135","2.0.0","324960","61577cfb758541d9e85d5d4e","2","46","4415","","","","","","","","","<img src= ""rock_img/I_Peridotite_15.jpg"" style=""width:8cm; height:6cm;""><p>What type of rock is this?</p>","3","class_response","1","train","16","Gabbro","Peridotite","15","false","4","7","",""
"","","","","","","","","","","","html-button-response","136","2.0.0","326288","61577cfb758541d9e85d5d4e","2","46","1327","","","","","","","","","<img src= rock_img/I_Peridotite_15.jpg style=""width:8cm; height:6cm;""><p style='font-size: 30px; color: red;'><strong>Incorrect!</strong></p><p style='font-size: 30px;'><strong>This rock is peridotite</strong></p>","0","corr_feedback","1","train","16","","","","","","","",""
"","","","","","","","","","","","html-button-response","137","2.0.0","330068","61577cfb758541d9e85d5d4e","2","46","3779","","","","","","","","","<img src= ""rock_img/I_Basalt_02.jpg"" style=""width:8cm; height:6.45cm;""><p>What type of rock is this?</p>","3","class_response","1","train","17","Gabbro","Basalt","02","false","4","2","",""
"","","","","","","","","","","","html-button-response","138","2.0.0","331116","61577cfb758541d9e85d5d4e","2","46","1047","","","","","","","","","<img src= rock_img/I_Basalt_02.jpg style=""width:8cm; height:6.45cm;""><p style='font-size: 30px; color: red;'><strong>Incorrect!</strong></p><p style='font-size: 30px;'><strong>This rock is basalt</strong></p>","0","corr_feedback","1","train","17","","","","","","","",""
"","","","","","","","","","","","html-button-response","139","2.0.0","332497","61577cfb758541d9e85d5d4e","2","46","1380","","","","","","","","","<img src= ""rock_img/I_Gabbro_16.jpg"" style=""width:8cm; height:6.44cm;""><p>What type of rock is this?</p>","1","class_response","1","train","18","Basalt","Gabbro","16","false","2","4","",""
"","","","","","","","","","","","html-button-response","140","2.0.0","333538","61577cfb758541d9e85d5d4e","2","46","1039","","","","","","","","","<img src= rock_img/I_Gabbro_16.jpg style=""width:8cm; height:6.44cm;""><p style='font-size: 30px; color: red;'><strong>Incorrect!</strong></p><p style='font-size: 30px;'><strong>This rock is gabbro</strong></p>","0","corr_feedback","1","train","18","","","","","","","",""
"","","","","","","","","","","","html-button-response","141","2.0.0","337714","61577cfb758541d9e85d5d4e","2","46","4175","","","","","","","","","<img src= ""rock_img/I_Pumice_15.jpg"" style=""width:8cm; height:7.86cm;""><p>What type of rock is this?</p>","7","class_response","1","train","19","Pumice","Pumice","15","true","8","8","",""
"","","","","","","","","","","","html-button-response","142","2.0.0","338506","61577cfb758541d9e85d5d4e","2","46","791","","","","","","","","","<img src= rock_img/I_Pumice_15.jpg style=""width:8cm; height:7.86cm;""><p style='font-size: 30px; color: green;'><strong>Correct!</strong></p><p style='font-size: 30px;'><strong>This rock is pumice</strong></p>","0","corr_feedback","1","train","19","","","","","","","",""
"","","","","","","","","","","","html-button-response","143","2.0.0","346750","61577cfb758541d9e85d5d4e","2","46","8243","","","","","","","","","<img src= ""rock_img/I_Gabbro_05.jpg"" style=""width:8cm; height:6cm;""><p>What type of rock is this?</p>","2","class_response","1","train","20","Diorite","Gabbro","05","false","3","4","",""
"","","","","","","","","","","","html-button-response","144","2.0.0","347582","61577cfb758541d9e85d5d4e","2","46","830","","","","","","","","","<img src= rock_img/I_Gabbro_05.jpg style=""width:8cm; height:6cm;""><p style='font-size: 30px; color: red;'><strong>Incorrect!</strong></p><p style='font-size: 30px;'><strong>This rock is gabbro</strong></p>","0","corr_feedback","1","train","20","","","","","","","",""
"","","","","","","","","","","","html-button-response","145","2.0.0","349290","61577cfb758541d9e85d5d4e","2","46","1707","","","","","","","","","<img src= ""rock_img/I_Pumice_02.jpg"" style=""width:8cm; height:7.3999999999999995cm;""><p>What type of rock is this?</p>","7","class_response","1","train","21","Pumice","Pumice","02","true","8","8","",""
"","","","","","","","","","","","html-button-response","146","2.0.0","350034","61577cfb758541d9e85d5d4e","2","46","743","","","","","","","","","<img src= rock_img/I_Pumice_02.jpg style=""width:8cm; height:7.3999999999999995cm;""><p style='font-size: 30px; color: green;'><strong>Correct!</strong></p><p style='font-size: 30px;'><strong>This rock is pumice</strong></p>","0","corr_feedback","1","train","21","","","","","","","",""
"","","","","","","","","","","","html-button-response","147","2.0.0","354506","61577cfb758541d9e85d5d4e","2","46","4471","","","","","","","","","<img src= ""rock_img/I_Basalt_09.jpg"" style=""width:8cm; height:6.2cm;""><p>What type of rock is this?</p>","1","class_response","1","train","22","Basalt","Basalt","09","true","2","2","",""
"","","","","","","","","","","","html-button-response","148","2.0.0","355258","61577cfb758541d9e85d5d4e","2","46","750","","","","","","","","","<img src= rock_img/I_Basalt_09.jpg style=""width:8cm; height:6.2cm;""><p style='font-size: 30px; color: green;'><strong>Correct!</strong></p><p style='font-size: 30px;'><strong>This rock is basalt</strong></p>","0","corr_feedback","1","train","22","","","","","","","",""
"","","","","","","","","","","","html-button-response","149","2.0.0","357401","61577cfb758541d9e85d5d4e","2","46","2142","","","","","","","","","<img src= ""rock_img/I_Peridotite_04.jpg"" style=""width:8cm; height:6.680000000000001cm;""><p>What type of rock is this?</p>","5","class_response","1","train","23","Pegmatite","Peridotite","04","false","6","7","",""
"","","","","","","","","","","","html-button-response","150","2.0.0","358162","61577cfb758541d9e85d5d4e","2","46","759","","","","","","","","","<img src= rock_img/I_Peridotite_04.jpg style=""width:8cm; height:6.680000000000001cm;""><p style='font-size: 30px; color: red;'><strong>Incorrect!</strong></p><p style='font-size: 30px;'><strong>This rock is peridotite</strong></p>","0","corr_feedback","1","train","23","","","","","","","",""
"","","","","","","","","","","","html-button-response","151","2.0.0","361538","61577cfb758541d9e85d5d4e","2","46","3375","","","","","","","","","<img src= ""rock_img/I_Gabbro_10.jpg"" style=""width:8cm; height:5.680000000000001cm;""><p>What type of rock is this?</p>","6","class_response","1","train","24","Peridotite","Gabbro","10","false","7","4","",""
"","","","","","","","","","","","html-button-response","152","2.0.0","362478","61577cfb758541d9e85d5d4e","2","46","939","","","","","","","","","<img src= rock_img/I_Gabbro_10.jpg style=""width:8cm; height:5.680000000000001cm;""><p style='font-size: 30px; color: red;'><strong>Incorrect!</strong></p><p style='font-size: 30px;'><strong>This rock is gabbro</strong></p>","0","corr_feedback","1","train","24","","","","","","","",""
"","","","","","","","","","","","html-button-response","153","2.0.0","363628","61577cfb758541d9e85d5d4e","2","46","1149","","","","","","","","","<img src= ""rock_img/I_Diorite_11.jpg"" style=""width:8cm; height:7.11cm;""><p>What type of rock is this?</p>","2","class_response","1","train","25","Diorite","Diorite","11","true","3","3","",""
"","","","","","","","","","","","html-button-response","154","2.0.0","364412","61577cfb758541d9e85d5d4e","2","46","783","","","","","","","","","<img src= rock_img/I_Diorite_11.jpg style=""width:8cm; height:7.11cm;""><p style='font-size: 30px; color: green;'><strong>Correct!</strong></p><p style='font-size: 30px;'><strong>This rock is diorite</strong></p>","0","corr_feedback","1","train","25","","","","","","","",""
"","","","","","","","","","","","html-button-response","155","2.0.0","369100","61577cfb758541d9e85d5d4e","2","46","4687","","","","","","","","","<img src= ""rock_img/I_Andesite_02.jpg"" style=""width:8cm; height:8.5cm;""><p>What type of rock is this?</p>","0","class_response","1","train","26","Andesite","Andesite","02","true","1","1","",""
"","","","","","","","","","","","html-button-response","156","2.0.0","370062","61577cfb758541d9e85d5d4e","2","46","961","","","","","","","","","<img src= rock_img/I_Andesite_02.jpg style=""width:8cm; height:8.5cm;""><p style='font-size: 30px; color: green;'><strong>Correct!</strong></p><p style='font-size: 30px;'><strong>This rock is andesite</strong></p>","0","corr_feedback","1","train","26","","","","","","","",""
"","","","","","","","","","","","html-button-response","157","2.0.0","373656","61577cfb758541d9e85d5d4e","2","46","3592","","","","","","","","","<img src= ""rock_img/I_Andesite_07.jpg"" style=""width:8cm; height:5.93cm;""><p>What type of rock is this?</p>","2","class_response","1","train","27","Diorite","Andesite","07","false","3","1","",""
"","","","","","","","","","","","html-button-response","158","2.0.0","374644","61577cfb758541d9e85d5d4e","2","46","987","","","","","","","","","<img src= rock_img/I_Andesite_07.jpg style=""width:8cm; height:5.93cm;""><p style='font-size: 30px; color: red;'><strong>Incorrect!</strong></p><p style='font-size: 30px;'><strong>This rock is andesite</strong></p>","0","corr_feedback","1","train","27","","","","","","","",""
"","","","","","","","","","","","html-button-response","159","2.0.0","377594","61577cfb758541d9e85d5d4e","2","46","2949","","","","","","","","","<img src= ""rock_img/I_Pegmatite_10.jpg"" style=""width:8cm; height:4.16cm;""><p>What type of rock is this?</p>","5","class_response","1","train","28","Pegmatite","Pegmatite","10","true","6","6","",""
"","","","","","","","","","","","html-button-response","160","2.0.0","379402","61577cfb758541d9e85d5d4e","2","46","1807","","","","","","","","","<img src= rock_img/I_Pegmatite_10.jpg style=""width:8cm; height:4.16cm;""><p style='font-size: 30px; color: green;'><strong>Correct!</strong></p><p style='font-size: 30px;'><strong>This rock is pegmatite</strong></p>","0","corr_feedback","1","train","28","","","","","","","",""
"","","","","","","","","","","","html-button-response","161","2.0.0","384208","61577cfb758541d9e85d5d4e","2","46","4805","","","","","","","","","<img src= ""rock_img/I_Pegmatite_12.jpg"" style=""width:8cm; height:5.7cm;""><p>What type of rock is this?</p>","0","class_response","1","train","29","Andesite","Pegmatite","12","false","1","6","",""
"","","","","","","","","","","","html-button-response","162","2.0.0","385264","61577cfb758541d9e85d5d4e","2","46","1055","","","","","","","","","<img src= rock_img/I_Pegmatite_12.jpg style=""width:8cm; height:5.7cm;""><p style='font-size: 30px; color: red;'><strong>Incorrect!</strong></p><p style='font-size: 30px;'><strong>This rock is pegmatite</strong></p>","0","corr_feedback","1","train","29","","","","","","","",""
"","","","","","","","","","","","html-button-response","163","2.0.0","387940","61577cfb758541d9e85d5d4e","2","46","2675","","","","","","","","","<img src= ""rock_img/I_Peridotite_08.jpg"" style=""width:8cm; height:6.7cm;""><p>What type of rock is this?</p>","2","class_response","1","train","30","Diorite","Peridotite","08","false","3","7","",""
"","","","","","","","","","","","html-button-response","164","2.0.0","388934","61577cfb758541d9e85d5d4e","2","46","993","","","","","","","","","<img src= rock_img/I_Peridotite_08.jpg style=""width:8cm; height:6.7cm;""><p style='font-size: 30px; color: red;'><strong>Incorrect!</strong></p><p style='font-size: 30px;'><strong>This rock is peridotite</strong></p>","0","corr_feedback","1","train","30","","","","","","","",""
"","","","","","","","","","","","html-button-response","165","2.0.0","390620","61577cfb758541d9e85d5d4e","2","46","1685","","","","","","","","","<img src= ""rock_img/I_Pumice_13.jpg"" style=""width:8cm; height:8.200000000000001cm;""><p>What type of rock is this?</p>","3","class_response","1","train","31","Gabbro","Pumice","13","false","4","8","",""
"","","","","","","","","","","","html-button-response","166","2.0.0","391372","61577cfb758541d9e85d5d4e","2","46","751","","","","","","","","","<img src= rock_img/I_Pumice_13.jpg style=""width:8cm; height:8.200000000000001cm;""><p style='font-size: 30px; color: red;'><strong>Incorrect!</strong></p><p style='font-size: 30px;'><strong>This rock is pumice</strong></p>","0","corr_feedback","1","train","31","","","","","","","",""
"","","","","","","","","","","","html-button-response","167","2.0.0","392713","61577cfb758541d9e85d5d4e","2","46","1340","","","","","","","","","<img src= ""rock_img/I_Diorite_06.jpg"" style=""width:8cm; height:6.03cm;""><p>What type of rock is this?</p>","2","class_response","1","train","32","Diorite","Diorite","06","true","3","3","",""
"","","","","","","","","","","","html-button-response","168","2.0.0","393545","61577cfb758541d9e85d5d4e","2","46","831","","","","","","","","","<img src= rock_img/I_Diorite_06.jpg style=""width:8cm; height:6.03cm;""><p style='font-size: 30px; color: green;'><strong>Correct!</strong></p><p style='font-size: 30px;'><strong>This rock is diorite</strong></p>","0","corr_feedback","1","train","32","","","","","","","",""
"","","","","","","","","","","","html-button-response","169","2.0.0","395967","61577cfb758541d9e85d5d4e","2","46","2421","","","","","","","","","<img src= ""rock_img/I_Peridotite_06.jpg"" style=""width:8cm; height:7.53cm;""><p>What type of rock is this?</p>","1","class_response","1","train","33","Basalt","Peridotite","06","false","2","7","",""
"","","","","","","","","","","","html-button-response","170","2.0.0","397055","61577cfb758541d9e85d5d4e","2","46","1087","","","","","","","","","<img src= rock_img/I_Peridotite_06.jpg style=""width:8cm; height:7.53cm;""><p style='font-size: 30px; color: red;'><strong>Incorrect!</strong></p><p style='font-size: 30px;'><strong>This rock is peridotite</strong></p>","0","corr_feedback","1","train","33","","","","","","","",""
"","","","","","","","","","","","html-button-response","171","2.0.0","399732","61577cfb758541d9e85d5d4e","2","46","2676","","","","","","","","","<img src= ""rock_img/I_Andesite_07.jpg"" style=""width:8cm; height:5.93cm;""><p>What type of rock is this?</p>","2","class_response","1","train","34","Diorite","Andesite","07","false","3","1","",""
"","","","","","","","","","","","html-button-response","172","2.0.0","401114","61577cfb758541d9e85d5d4e","2","46","1380","","","","","","","","","<img src= rock_img/I_Andesite_07.jpg style=""width:8cm; height:5.93cm;""><p style='font-size: 30px; color: red;'><strong>Incorrect!</strong></p><p style='font-size: 30px;'><strong>This rock is andesite</strong></p>","0","corr_feedback","1","train","34","","","","","","","",""
"","","","","","","","","","","","html-button-response","173","2.0.0","407806","61577cfb758541d9e85d5d4e","2","46","6691","","","","","","","","","<img src= ""rock_img/I_Peridotite_13.jpg"" style=""width:8cm; height:7.58cm;""><p>What type of rock is this?</p>","3","class_response","1","train","35","Gabbro","Peridotite","13","false","4","7","",""
"","","","","","","","","","","","html-button-response","174","2.0.0","409102","61577cfb758541d9e85d5d4e","2","46","1295","","","","","","","","","<img src= rock_img/I_Peridotite_13.jpg style=""width:8cm; height:7.58cm;""><p style='font-size: 30px; color: red;'><strong>Incorrect!</strong></p><p style='font-size: 30px;'><strong>This rock is peridotite</strong></p>","0","corr_feedback","1","train","35","","","","","","","",""
"","","","","","","","","","","","html-button-response","175","2.0.0","412696","61577cfb758541d9e85d5d4e","2","46","3593","","","","","","","","","<img src= ""rock_img/I_Diorite_15.jpg"" style=""width:8cm; height:5.54cm;""><p>What type of rock is this?</p>","2","class_response","1","train","36","Diorite","Diorite","15","true","3","3","",""
"","","","","","","","","","","","html-button-response","176","2.0.0","413558","61577cfb758541d9e85d5d4e","2","46","861","","","","","","","","","<img src= rock_img/I_Diorite_15.jpg style=""width:8cm; height:5.54cm;""><p style='font-size: 30px; color: green;'><strong>Correct!</strong></p><p style='font-size: 30px;'><strong>This rock is diorite</strong></p>","0","corr_feedback","1","train","36","","","","","","","",""
"","","","","","","","","","","","html-button-response","177","2.0.0","416881","61577cfb758541d9e85d5d4e","2","46","3323","","","","","","","","","<img src= ""rock_img/I_Gabbro_03.jpg"" style=""width:8cm; height:8.52cm;""><p>What type of rock is this?</p>","2","class_response","1","train","37","Diorite","Gabbro","03","false","3","4","",""
"","","","","","","","","","","","html-button-response","178","2.0.0","417758","61577cfb758541d9e85d5d4e","2","46","875","","","","","","","","","<img src= rock_img/I_Gabbro_03.jpg style=""width:8cm; height:8.52cm;""><p style='font-size: 30px; color: red;'><strong>Incorrect!</strong></p><p style='font-size: 30px;'><strong>This rock is gabbro</strong></p>","0","corr_feedback","1","train","37","","","","","","","",""
"","","","","","","","","","","","html-button-response","179","2.0.0","424412","61577cfb758541d9e85d5d4e","2","46","6653","","","","","","","","","<img src= ""rock_img/I_Pegmatite_13.jpg"" style=""width:8cm; height:4.95cm;""><p>What type of rock is this?</p>","6","class_response","1","train","38","Peridotite","Pegmatite","13","false","7","6","",""
"","","","","","","","","","","","html-button-response","180","2.0.0","425676","61577cfb758541d9e85d5d4e","2","46","1263","","","","","","","","","<img src= rock_img/I_Pegmatite_13.jpg style=""width:8cm; height:4.95cm;""><p style='font-size: 30px; color: red;'><strong>Incorrect!</strong></p><p style='font-size: 30px;'><strong>This rock is pegmatite</strong></p>","0","corr_feedback","1","train","38","","","","","","","",""
"","","","","","","","","","","","html-button-response","181","2.0.0","427874","61577cfb758541d9e85d5d4e","2","46","2196","","","","","","","","","<img src= ""rock_img/I_Basalt_10.jpg"" style=""width:8cm; height:5.85cm;""><p>What type of rock is this?</p>","1","class_response","1","train","39","Basalt","Basalt","10","true","2","2","",""
"","","","","","","","","","","","html-button-response","182","2.0.0","430147","61577cfb758541d9e85d5d4e","2","46","2273","","","","","","","","","<img src= rock_img/I_Basalt_10.jpg style=""width:8cm; height:5.85cm;""><p style='font-size: 30px; color: green;'><strong>Correct!</strong></p><p style='font-size: 30px;'><strong>This rock is basalt</strong></p>","0","corr_feedback","1","train","39","","","","","","","",""
"","","","","","","","","","","","html-button-response","183","2.0.0","435264","61577cfb758541d9e85d5d4e","2","46","5115","","","","","","","","","<img src= ""rock_img/I_Andesite_09.jpg"" style=""width:8cm; height:6cm;""><p>What type of rock is this?</p>","3","class_response","1","train","40","Gabbro","Andesite","09","false","4","1","",""
"","","","","","","","","","","","html-button-response","184","2.0.0","436522","61577cfb758541d9e85d5d4e","2","46","1257","","","","","","","","","<img src= rock_img/I_Andesite_09.jpg style=""width:8cm; height:6cm;""><p style='font-size: 30px; color: red;'><strong>Incorrect!</strong></p><p style='font-size: 30px;'><strong>This rock is andesite</strong></p>","0","corr_feedback","1","train","40","","","","","","","",""
"","","","","","","","","","","","html-button-response","185","2.0.0","437601","61577cfb758541d9e85d5d4e","2","46","1079","","","","","","","","","<img src= ""rock_img/I_Diorite_02.jpg"" style=""width:8cm; height:6.27cm;""><p>What type of rock is this?</p>","2","class_response","1","train","41","Diorite","Diorite","02","true","3","3","",""
"","","","","","","","","","","","html-button-response","186","2.0.0","438478","61577cfb758541d9e85d5d4e","2","46","875","","","","","","","","","<img src= rock_img/I_Diorite_02.jpg style=""width:8cm; height:6.27cm;""><p style='font-size: 30px; color: green;'><strong>Correct!</strong></p><p style='font-size: 30px;'><strong>This rock is diorite</strong></p>","0","corr_feedback","1","train","41","","","","","","","",""
"","","","","","","","","","","","html-button-response","187","2.0.0","444455","61577cfb758541d9e85d5d4e","2","46","5976","","","","","","","","","<img src= ""rock_img/I_Pegmatite_08.jpg"" style=""width:8cm; height:7.68cm;""><p>What type of rock is this?</p>","3","class_response","1","train","42","Gabbro","Pegmatite","08","false","4","6","",""
"","","","","","","","","","","","html-button-response","188","2.0.0","445342","61577cfb758541d9e85d5d4e","2","46","885","","","","","","","","","<img src= rock_img/I_Pegmatite_08.jpg style=""width:8cm; height:7.68cm;""><p style='font-size: 30px; color: red;'><strong>Incorrect!</strong></p><p style='font-size: 30px;'><strong>This rock is pegmatite</strong></p>","0","corr_feedback","1","train","42","","","","","","","",""
"","","","","","","","","","","","html-button-response","189","2.0.0","447522","61577cfb758541d9e85d5d4e","2","46","2179","","","","","","","","","<img src= ""rock_img/I_Basalt_11.jpg"" style=""width:8cm; height:5.359999999999999cm;""><p>What type of rock is this?</p>","7","class_response","1","train","43","Pumice","Basalt","11","false","8","2","",""
"","","","","","","","","","","","html-button-response","190","2.0.0","448478","61577cfb758541d9e85d5d4e","2","46","955","","","","","","","","","<img src= rock_img/I_Basalt_11.jpg style=""width:8cm; height:5.359999999999999cm;""><p style='font-size: 30px; color: red;'><strong>Incorrect!</strong></p><p style='font-size: 30px;'><strong>This rock is basalt</strong></p>","0","corr_feedback","1","train","43","","","","","","","",""
"","","","","","","","","","","","html-button-response","191","2.0.0","450666","61577cfb758541d9e85d5d4e","2","46","2187","","","","","","","","","<img src= ""rock_img/I_Basalt_14.jpg"" style=""width:8cm; height:5.82cm;""><p>What type of rock is this?</p>","1","class_response","1","train","44","Basalt","Basalt","14","true","2","2","",""
"","","","","","","","","","","","html-button-response","192","2.0.0","451358","61577cfb758541d9e85d5d4e","2","46","691","","","","","","","","","<img src= rock_img/I_Basalt_14.jpg style=""width:8cm; height:5.82cm;""><p style='font-size: 30px; color: green;'><strong>Correct!</strong></p><p style='font-size: 30px;'><strong>This rock is basalt</strong></p>","0","corr_feedback","1","train","44","","","","","","","",""
"","","","","","","","","","","","html-button-response","193","2.0.0","452280","61577cfb758541d9e85d5d4e","2","46","921","","","","","","","","","<img src= ""rock_img/I_Basalt_08.jpg"" style=""width:8cm; height:10.44cm;""><p>What type of rock is this?</p>","1","class_response","1","train","45","Basalt","Basalt","08","true","2","2","",""
"","","","","","","","","","","","html-button-response","194","2.0.0","452885","61577cfb758541d9e85d5d4e","2","46","604","","","","","","","","","<img src= rock_img/I_Basalt_08.jpg style=""width:8cm; height:10.44cm;""><p style='font-size: 30px; color: green;'><strong>Correct!</strong></p><p style='font-size: 30px;'><strong>This rock is basalt</strong></p>","0","corr_feedback","1","train","45","","","","","","","",""
"","","","","","","","","","","","html-button-response","195","2.0.0","454120","61577cfb758541d9e85d5d4e","2","46","1233","","","","","","","","","<img src= ""rock_img/I_Gabbro_16.jpg"" style=""width:8cm; height:6.44cm;""><p>What type of rock is this?</p>","1","class_response","1","train","46","Basalt","Gabbro","16","false","2","4","",""
"","","","","","","","","","","","html-button-response","196","2.0.0","460448","61577cfb758541d9e85d5d4e","2","46","6326","","","","","","","","","<img src= rock_img/I_Gabbro_16.jpg style=""width:8cm; height:6.44cm;""><p style='font-size: 30px; color: red;'><strong>Incorrect!</strong></p><p style='font-size: 30px;'><strong>This rock is gabbro</strong></p>","0","corr_feedback","1","train","46","","","","","","","",""
"","","","","","","","","","","","html-button-response","197","2.0.0","462622","61577cfb758541d9e85d5d4e","2","46","2173","","","","","","","","","<img src= ""rock_img/I_Gabbro_09.jpg"" style=""width:8cm; height:7.279999999999999cm;""><p>What type of rock is this?</p>","1","class_response","1","train","47","Basalt","Gabbro","09","false","2","4","",""
"","","","","","","","","","","","html-button-response","198","2.0.0","463794","61577cfb758541d9e85d5d4e","2","46","1171","","","","","","","","","<img src= rock_img/I_Gabbro_09.jpg style=""width:8cm; height:7.279999999999999cm;""><p style='font-size: 30px; color: red;'><strong>Incorrect!</strong></p><p style='font-size: 30px;'><strong>This rock is gabbro</strong></p>","0","corr_feedback","1","train","47","","","","","","","",""
"","","","","","","","","","","","html-button-response","199","2.0.0","465688","61577cfb758541d9e85d5d4e","2","46","1892","","","","","","","","","<img src= ""rock_img/I_Andesite_06.jpg"" style=""width:8cm; height:6.840000000000001cm;""><p>What type of rock is this?</p>","2","class_response","1","train","48","Diorite","Andesite","06","false","3","1","",""
"","","","","","","","","","","","html-button-response","200","2.0.0","466628","61577cfb758541d9e85d5d4e","2","46","939","","","","","","","","","<img src= rock_img/I_Andesite_06.jpg style=""width:8cm; height:6.840000000000001cm;""><p style='font-size: 30px; color: red;'><strong>Incorrect!</strong></p><p style='font-size: 30px;'><strong>This rock is andesite</strong></p>","0","corr_feedback","1","train","48","","","","","","","",""
"","","","","","","","","","","","instructions","203","2.0.0","479886","61577cfb758541d9e85d5d4e","2","46","13256","","","","","","","","[{""page_index"":0,""viewing_time"":5920},{""page_index"":1,""viewing_time"":7336}]","","","","","","","","","","","","","",""
"","","","","","","","","","","","html-button-response","204","2.0.0","482396","61577cfb758541d9e85d5d4e","2","46","2509","","","","","","","","","","0","start_test","","","","","","","","","","",""
"","","","","","","","","","","","html-button-response","205","2.0.0","490280","61577cfb758541d9e85d5d4e","2","46","7883","","","","","","","","","<img src= ""rock_img/I_Basalt_01.jpg"" style=""width:8cm; height:7.880000000000001cm;""><p>What type of rock is this?</p>","3","class_response","1","test","1","Gabbro","Basalt","01","false","4","2","",""
"","","","","","","","","","","","html-keyboard-response","206","2.0.0","490781","61577cfb758541d9e85d5d4e","2","46","null","","","","","","","","","<p style='font-size: 30px;'><strong>Okay</strong></p>","null","neutral_feedback","1","test","1","","","","","","","",""
"","","","","","","","","","","","html-button-response","207","2.0.0","492228","61577cfb758541d9e85d5d4e","2","46","1445","","","","","","","","","<img src= ""rock_img/I_Obsidian_09.jpg"" style=""width:8cm; height:5cm;""><p>What type of rock is this?</p>","4","class_response","1","test","2","Obsidian","Obsidian","09","true","5","5","",""
"","","","","","","","","","","","html-keyboard-response","208","2.0.0","492729","61577cfb758541d9e85d5d4e","2","46","null","","","","","","","","","<p style='font-size: 30px;'><strong>Okay</strong></p>","null","neutral_feedback","1","test","2","","","","","","","",""
"","","","","","","","","","","","html-button-response","209","2.0.0","494914","61577cfb758541d9e85d5d4e","2","46","2184","","","","","","","","","<img src= ""rock_img/I_Andesite_14.jpg"" style=""width:8cm; height:5.449999999999999cm;""><p>What type of rock is this?</p>","2","class_response","1","test","3","Diorite","Andesite","14","false","3","1","",""
"","","","","","","","","","","","html-keyboard-response","210","2.0.0","495423","61577cfb758541d9e85d5d4e","2","46","null","","","","","","","","","<p style='font-size: 30px;'><strong>Okay</strong></p>","null","neutral_feedback","1","test","3","","","","","","","",""
"","","","","","","","","","","","html-button-response","211","2.0.0","498213","61577cfb758541d9e85d5d4e","2","46","2788","","","","","","","","","<img src= ""rock_img/I_Obsidian_11.jpg"" style=""width:8cm; height:6.05cm;""><p>What type of rock is this?</p>","4","class_response","1","test","4","Obsidian","Obsidian","11","true","5","5","",""
"","","","","","","","","","","","html-keyboard-response","212","2.0.0","498714","61577cfb758541d9e85d5d4e","2","46","null","","","","","","","","","<p style='font-size: 30px;'><strong>Okay</strong></p>","null","neutral_feedback","1","test","4","","","","","","","",""
"","","","","","","","","","","","html-button-response","213","2.0.0","506576","61577cfb758541d9e85d5d4e","2","46","7860","","","","","","","","","<img src= ""rock_img/I_Peridotite_02.jpg"" style=""width:8cm; height:5.859999999999999cm;""><p>What type of rock is this?</p>","5","class_response","1","test","5","Pegmatite","Peridotite","02","false","6","7","",""
"","","","","","","","","","","","html-keyboard-response","214","2.0.0","507077","61577cfb758541d9e85d5d4e","2","46","null","","","","","","","","","<p style='font-size: 30px;'><strong>Okay</strong></p>","null","neutral_feedback","1","test","5","","","","","","","",""
"","","","","","","","","","","","html-button-response","215","2.0.0","509362","61577cfb758541d9e85d5d4e","2","46","2284","","","","","","","","","<img src= ""rock_img/I_Peridotite_16.jpg"" style=""width:8cm; height:6.989999999999999cm;""><p>What type of rock is this?</p>","3","class_response","1","test","6","Gabbro","Peridotite","16","false","4","7","",""
"","","","","","","","","","","","html-keyboard-response","216","2.0.0","509864","61577cfb758541d9e85d5d4e","2","46","null","","","","","","","","","<p style='font-size: 30px;'><strong>Okay</strong></p>","null","neutral_feedback","1","test","6","","","","","","","",""
"","","","","","","","","","","","html-button-response","217","2.0.0","513832","61577cfb758541d9e85d5d4e","2","46","3966","","","","","","","","","<img src= ""rock_img/I_Obsidian_05.jpg"" style=""width:8cm; height:6.33cm;""><p>What type of rock is this?</p>","4","class_response","1","test","7","Obsidian","Obsidian","05","true","5","5","",""
"","","","","","","","","","","","html-keyboard-response","218","2.0.0","514347","61577cfb758541d9e85d5d4e","2","46","null","","","","","","","","","<p style='font-size: 30px;'><strong>Okay</strong></p>","null","neutral_feedback","1","test","7","","","","","","","",""
"","","","","","","","","","","","html-button-response","219","2.0.0","515588","61577cfb758541d9e85d5d4e","2","46","1240","","","","","","","","","<img src= ""rock_img/I_Obsidian_06.jpg"" style=""width:8cm; height:6.8cm;""><p>What type of rock is this?</p>","4","class_response","1","test","8","Obsidian","Obsidian","06","true","5","5","",""
"","","","","","","","","","","","html-keyboard-response","220","2.0.0","516097","61577cfb758541d9e85d5d4e","2","46","null","","","","","","","","","<p style='font-size: 30px;'><strong>Okay</strong></p>","null","neutral_feedback","1","test","8","","","","","","","",""
"","","","","","","","","","","","html-button-response","221","2.0.0","517380","61577cfb758541d9e85d5d4e","2","46","1281","","","","","","","","","<img src= ""rock_img/I_Andesite_05.jpg"" style=""width:8cm; height:4.12cm;""><p>What type of rock is this?</p>","2","class_response","1","test","9","Diorite","Andesite","05","false","3","1","",""
"","","","","","","","","","","","html-keyboard-response","222","2.0.0","517889","61577cfb758541d9e85d5d4e","2","46","null","","","","","","","","","<p style='font-size: 30px;'><strong>Okay</strong></p>","null","neutral_feedback","1","test","9","","","","","","","",""
"","","","","","","","","","","","html-button-response","223","2.0.0","520990","61577cfb758541d9e85d5d4e","2","46","3100","","","","","","","","","<img src= ""rock_img/I_Gabbro_08.jpg"" style=""width:8cm; height:5.15cm;""><p>What type of rock is this?</p>","0","class_response","1","test","10","Andesite","Gabbro","08","false","1","4","",""
"","","","","","","","","","","","html-keyboard-response","224","2.0.0","521504","61577cfb758541d9e85d5d4e","2","46","null","","","","","","","","","<p style='font-size: 30px;'><strong>Okay</strong></p>","null","neutral_feedback","1","test","10","","","","","","","",""
"","","","","","","","","","","","html-button-response","225","2.0.0","524964","61577cfb758541d9e85d5d4e","2","46","3459","","","","","","","","","<img src= ""rock_img/I_Gabbro_01.jpg"" style=""width:8cm; height:5.21cm;""><p>What type of rock is this?</p>","0","class_response","1","test","11","Andesite","Gabbro","01","false","1","4","",""
"","","","","","","","","","","","html-keyboard-response","226","2.0.0","525479","61577cfb758541d9e85d5d4e","2","46","null","","","","","","","","","<p style='font-size: 30px;'><strong>Okay</strong></p>","null","neutral_feedback","1","test","11","","","","","","","",""
"","","","","","","","","","","","html-button-response","227","2.0.0","528349","61577cfb758541d9e85d5d4e","2","46","2869","","","","","","","","","<img src= ""rock_img/I_Peridotite_05.jpg"" style=""width:8cm; height:7.1499999999999995cm;""><p>What type of rock is this?</p>","0","class_response","1","test","12","Andesite","Peridotite","05","false","1","7","",""
"","","","","","","","","","","","html-keyboard-response","228","2.0.0","528857","61577cfb758541d9e85d5d4e","2","46","null","","","","","","","","","<p style='font-size: 30px;'><strong>Okay</strong></p>","null","neutral_feedback","1","test","12","","","","","","","",""
"","","","","","","","","","","","html-button-response","229","2.0.0","530128","61577cfb758541d9e85d5d4e","2","46","1269","","","","","","","","","<img src= ""rock_img/I_Pumice_14.jpg"" style=""width:8cm; height:6.39cm;""><p>What type of rock is this?</p>","7","class_response","1","test","13","Pumice","Pumice","14","true","8","8","",""
"","","","","","","","","","","","html-keyboard-response","230","2.0.0","530630","61577cfb758541d9e85d5d4e","2","46","null","","","","","","","","","<p style='font-size: 30px;'><strong>Okay</strong></p>","null","neutral_feedback","1","test","13","","","","","","","",""
"","","","","","","","","","","","html-button-response","231","2.0.0","532292","61577cfb758541d9e85d5d4e","2","46","1661","","","","","","","","","<img src= ""rock_img/I_Basalt_06.jpg"" style=""width:8cm; height:7.06cm;""><p>What type of rock is this?</p>","1","class_response","1","test","14","Basalt","Basalt","06","true","2","2","",""
"","","","","","","","","","","","html-keyboard-response","232","2.0.0","532805","61577cfb758541d9e85d5d4e","2","46","null","","","","","","","","","<p style='font-size: 30px;'><strong>Okay</strong></p>","null","neutral_feedback","1","test","14","","","","","","","",""
"","","","","","","","","","","","html-button-response","233","2.0.0","535919","61577cfb758541d9e85d5d4e","2","46","3112","","","","","","","","","<img src= ""rock_img/I_Gabbro_15.jpg"" style=""width:8cm; height:6.29cm;""><p>What type of rock is this?</p>","3","class_response","1","test","15","Gabbro","Gabbro","15","true","4","4","",""
"","","","","","","","","","","","html-keyboard-response","234","2.0.0","536423","61577cfb758541d9e85d5d4e","2","46","null","","","","","","","","","<p style='font-size: 30px;'><strong>Okay</strong></p>","null","neutral_feedback","1","test","15","","","","","","","",""
"","","","","","","","","","","","html-button-response","235","2.0.0","537742","61577cfb758541d9e85d5d4e","2","46","1317","","","","","","","","","<img src= ""rock_img/I_Pumice_04.jpg"" style=""width:8cm; height:6.819999999999999cm;""><p>What type of rock is this?</p>","7","class_response","1","test","16","Pumice","Pumice","04","true","8","8","",""
"","","","","","","","","","","","html-keyboard-response","236","2.0.0","538244","61577cfb758541d9e85d5d4e","2","46","null","","","","","","","","","<p style='font-size: 30px;'><strong>Okay</strong></p>","null","neutral_feedback","1","test","16","","","","","","","",""
"","","","","","","","","","","","html-button-response","237","2.0.0","542004","61577cfb758541d9e85d5d4e","2","46","3759","","","","","","","","","<img src= ""rock_img/I_Pegmatite_05.jpg"" style=""width:8cm; height:7.300000000000001cm;""><p>What type of rock is this?</p>","6","class_response","1","test","17","Peridotite","Pegmatite","05","false","7","6","",""
"","","","","","","","","","","","html-keyboard-response","238","2.0.0","542518","61577cfb758541d9e85d5d4e","2","46","null","","","","","","","","","<p style='font-size: 30px;'><strong>Okay</strong></p>","null","neutral_feedback","1","test","17","","","","","","","",""
"","","","","","","","","","","","html-button-response","239","2.0.0","546608","61577cfb758541d9e85d5d4e","2","46","4088","","","","","","","","","<img src= ""rock_img/I_Diorite_09.jpg"" style=""width:8cm; height:5.27cm;""><p>What type of rock is this?</p>","0","class_response","1","test","18","Andesite","Diorite","09","false","1","3","",""
"","","","","","","","","","","","html-keyboard-response","240","2.0.0","547111","61577cfb758541d9e85d5d4e","2","46","null","","","","","","","","","<p style='font-size: 30px;'><strong>Okay</strong></p>","null","neutral_feedback","1","test","18","","","","","","","",""
"","","","","","","","","","","","html-button-response","241","2.0.0","549294","61577cfb758541d9e85d5d4e","2","46","2181","","","","","","","","","<img src= ""rock_img/I_Peridotite_14.jpg"" style=""width:8cm; height:5.3cm;""><p>What type of rock is this?</p>","2","class_response","1","test","19","Diorite","Peridotite","14","false","3","7","",""
"","","","","","","","","","","","html-keyboard-response","242","2.0.0","549798","61577cfb758541d9e85d5d4e","2","46","null","","","","","","","","","<p style='font-size: 30px;'><strong>Okay</strong></p>","null","neutral_feedback","1","test","19","","","","","","","",""
"","","","","","","","","","","","html-button-response","243","2.0.0","551568","61577cfb758541d9e85d5d4e","2","46","1769","","","","","","","","","<img src= ""rock_img/I_Peridotite_10.jpg"" style=""width:8cm; height:5.390000000000001cm;""><p>What type of rock is this?</p>","5","class_response","1","test","20","Pegmatite","Peridotite","10","false","6","7","",""
"","","","","","","","","","","","html-keyboard-response","244","2.0.0","552082","61577cfb758541d9e85d5d4e","2","46","null","","","","","","","","","<p style='font-size: 30px;'><strong>Okay</strong></p>","null","neutral_feedback","1","test","20","","","","","","","",""
"","","","","","","","","","","","html-button-response","245","2.0.0","554588","61577cfb758541d9e85d5d4e","2","46","2504","","","","","","","","","<img src= ""rock_img/I_Gabbro_13.jpg"" style=""width:8cm; height:5.08cm;""><p>What type of rock is this?</p>","3","class_response","1","test","21","Gabbro","Gabbro","13","true","4","4","",""
"","","","","","","","","","","","html-keyboard-response","246","2.0.0","555094","61577cfb758541d9e85d5d4e","2","46","null","","","","","","","","","<p style='font-size: 30px;'><strong>Okay</strong></p>","null","neutral_feedback","1","test","21","","","","","","","",""
"","","","","","","","","","","","html-button-response","247","2.0.0","556288","61577cfb758541d9e85d5d4e","2","46","1192","","","","","","","","","<img src= ""rock_img/I_Obsidian_12.jpg"" style=""width:8cm; height:6.53cm;""><p>What type of rock is this?</p>","4","class_response","1","test","22","Obsidian","Obsidian","12","true","5","5","",""
"","","","","","","","","","","","html-keyboard-response","248","2.0.0","556795","61577cfb758541d9e85d5d4e","2","46","null","","","","","","","","","<p style='font-size: 30px;'><strong>Okay</strong></p>","null","neutral_feedback","1","test","22","","","","","","","",""
"","","","","","","","","","","","html-button-response","249","2.0.0","557910","61577cfb758541d9e85d5d4e","2","46","1113","","","","","","","","","<img src= ""rock_img/I_Obsidian_02.jpg"" style=""width:8cm; height:7.51cm;""><p>What type of rock is this?</p>","4","class_response","1","test","23","Obsidian","Obsidian","02","true","5","5","",""
"","","","","","","","","","","","html-keyboard-response","250","2.0.0","558418","61577cfb758541d9e85d5d4e","2","46","null","","","","","","","","","<p style='font-size: 30px;'><strong>Okay</strong></p>","null","neutral_feedback","1","test","23","","","","","","","",""
"","","","","","","","","","","","html-button-response","251","2.0.0","561102","61577cfb758541d9e85d5d4e","2","46","2682","","","","","","","","","<img src= ""rock_img/I_Pegmatite_16.jpg"" style=""width:8cm; height:5.8cm;""><p>What type of rock is this?</p>","2","class_response","1","test","24","Diorite","Pegmatite","16","false","3","6","",""
"","","","","","","","","","","","html-keyboard-response","252","2.0.0","561612","61577cfb758541d9e85d5d4e","2","46","null","","","","","","","","","<p style='font-size: 30px;'><strong>Okay</strong></p>","null","neutral_feedback","1","test","24","","","","","","","",""
"","","","","","","","","","","","html-button-response","253","2.0.0","565130","61577cfb758541d9e85d5d4e","2","46","3516","","","","","","","","","<img src= ""rock_img/I_Basalt_05.jpg"" style=""width:8cm; height:8.18cm;""><p>What type of rock is this?</p>","1","class_response","1","test","25","Basalt","Basalt","05","true","2","2","",""
"","","","","","","","","","","","html-keyboard-response","254","2.0.0","565640","61577cfb758541d9e85d5d4e","2","46","null","","","","","","","","","<p style='font-size: 30px;'><strong>Okay</strong></p>","null","neutral_feedback","1","test","25","","","","","","","",""
"","","","","","","","","","","","html-button-response","255","2.0.0","569502","61577cfb758541d9e85d5d4e","2","46","3861","","","","","","","","","<img src= ""rock_img/I_Pegmatite_06.jpg"" style=""width:8cm; height:5.17cm;""><p>What type of rock is this?</p>","6","class_response","1","test","26","Peridotite","Pegmatite","06","false","7","6","",""
"","","","","","","","","","","","html-keyboard-response","256","2.0.0","570014","61577cfb758541d9e85d5d4e","2","46","null","","","","","","","","","<p style='font-size: 30px;'><strong>Okay</strong></p>","null","neutral_feedback","1","test","26","","","","","","","",""
"","","","","","","","","","","","html-button-response","257","2.0.0","571124","61577cfb758541d9e85d5d4e","2","46","1108","","","","","","","","","<img src= ""rock_img/I_Diorite_08.jpg"" style=""width:8cm; height:6.37cm;""><p>What type of rock is this?</p>","2","class_response","1","test","27","Diorite","Diorite","08","true","3","3","",""
"","","","","","","","","","","","html-keyboard-response","258","2.0.0","571631","61577cfb758541d9e85d5d4e","2","46","null","","","","","","","","","<p style='font-size: 30px;'><strong>Okay</strong></p>","null","neutral_feedback","1","test","27","","","","","","","",""
"","","","","","","","","","","","html-button-response","259","2.0.0","574384","61577cfb758541d9e85d5d4e","2","46","2752","","","","","","","","","<img src= ""rock_img/I_Pumice_16.jpg"" style=""width:8cm; height:6.79cm;""><p>What type of rock is this?</p>","3","class_response","1","test","28","Gabbro","Pumice","16","false","4","8","",""
"","","","","","","","","","","","html-keyboard-response","260","2.0.0","574899","61577cfb758541d9e85d5d4e","2","46","null","","","","","","","","","<p style='font-size: 30px;'><strong>Okay</strong></p>","null","neutral_feedback","1","test","28","","","","","","","",""
"","","","","","","","","","","","html-button-response","261","2.0.0","576721","61577cfb758541d9e85d5d4e","2","46","1822","","","","","","","","","<img src= ""rock_img/I_Diorite_13.jpg"" style=""width:8cm; height:6.29cm;""><p>What type of rock is this?</p>","2","class_response","1","test","29","Diorite","Diorite","13","true","3","3","",""
"","","","","","","","","","","","html-keyboard-response","262","2.0.0","577226","61577cfb758541d9e85d5d4e","2","46","null","","","","","","","","","<p style='font-size: 30px;'><strong>Okay</strong></p>","null","neutral_feedback","1","test","29","","","","","","","",""
"","","","","","","","","","","","html-button-response","263","2.0.0","578608","61577cfb758541d9e85d5d4e","2","46","1380","","","","","","","","","<img src= ""rock_img/I_Diorite_10.jpg"" style=""width:8cm; height:5.949999999999999cm;""><p>What type of rock is this?</p>","2","class_response","1","test","30","Diorite","Diorite","10","true","3","3","",""
"","","","","","","","","","","","html-keyboard-response","264","2.0.0","579109","61577cfb758541d9e85d5d4e","2","46","null","","","","","","","","","<p style='font-size: 30px;'><strong>Okay</strong></p>","null","neutral_feedback","1","test","30","","","","","","","",""
"","","","","","","","","","","","html-button-response","265","2.0.0","580176","61577cfb758541d9e85d5d4e","2","46","1064","","","","","","","","","<img src= ""rock_img/I_Pumice_09.jpg"" style=""width:8cm; height:6.44cm;""><p>What type of rock is this?</p>","7","class_response","1","test","31","Pumice","Pumice","09","true","8","8","",""
"","","","","","","","","","","","html-keyboard-response","266","2.0.0","580677","61577cfb758541d9e85d5d4e","2","46","null","","","","","","","","","<p style='font-size: 30px;'><strong>Okay</strong></p>","null","neutral_feedback","1","test","31","","","","","","","",""
"","","","","","","","","","","","html-button-response","267","2.0.0","582000","61577cfb758541d9e85d5d4e","2","46","1322","","","","","","","","","<img src= ""rock_img/I_Pumice_08.jpg"" style=""width:8cm; height:6.67cm;""><p>What type of rock is this?</p>","7","class_response","1","test","32","Pumice","Pumice","08","true","8","8","",""
"","","","","","","","","","","","html-keyboard-response","268","2.0.0","582505","61577cfb758541d9e85d5d4e","2","46","null","","","","","","","","","<p style='font-size: 30px;'><strong>Okay</strong></p>","null","neutral_feedback","1","test","32","","","","","","","",""
"","","","","","","","","","","","html-button-response","269","2.0.0","583544","61577cfb758541d9e85d5d4e","2","46","1038","","","","","","","","","<img src= ""rock_img/I_Peridotite_12.jpg"" style=""width:8cm; height:4.54cm;""><p>What type of rock is this?</p>","2","class_response","1","test","33","Diorite","Peridotite","12","false","3","7","",""
"","","","","","","","","","","","html-keyboard-response","270","2.0.0","584058","61577cfb758541d9e85d5d4e","2","46","null","","","","","","","","","<p style='font-size: 30px;'><strong>Okay</strong></p>","null","neutral_feedback","1","test","33","","","","","","","",""
"","","","","","","","","","","","html-button-response","271","2.0.0","589894","61577cfb758541d9e85d5d4e","2","46","5834","","","","","","","","","<img src= ""rock_img/I_Pegmatite_11.jpg"" style=""width:8cm; height:8.14cm;""><p>What type of rock is this?</p>","5","class_response","1","test","34","Pegmatite","Pegmatite","11","true","6","6","",""
"","","","","","","","","","","","html-keyboard-response","272","2.0.0","590398","61577cfb758541d9e85d5d4e","2","46","null","","","","","","","","","<p style='font-size: 30px;'><strong>Okay</strong></p>","null","neutral_feedback","1","test","34","","","","","","","",""
"","","","","","","","","","","","html-button-response","273","2.0.0","591625","61577cfb758541d9e85d5d4e","2","46","1226","","","","","","","","","<img src= ""rock_img/I_Gabbro_11.jpg"" style=""width:8cm; height:6.2cm;""><p>What type of rock is this?</p>","1","class_response","1","test","35","Basalt","Gabbro","11","false","2","4","",""
"","","","","","","","","","","","html-keyboard-response","274","2.0.0","592127","61577cfb758541d9e85d5d4e","2","46","null","","","","","","","","","<p style='font-size: 30px;'><strong>Okay</strong></p>","null","neutral_feedback","1","test","35","","","","","","","",""
"","","","","","","","","","","","html-button-response","275","2.0.0","594802","61577cfb758541d9e85d5d4e","2","46","2674","","","","","","","","","<img src= ""rock_img/I_Andesite_03.jpg"" style=""width:8cm; height:5.73cm;""><p>What type of rock is this?</p>","3","class_response","1","test","36","Gabbro","Andesite","03","false","4","1","",""
"","","","","","","","","","","","html-keyboard-response","276","2.0.0","595309","61577cfb758541d9e85d5d4e","2","46","null","","","","","","","","","<p style='font-size: 30px;'><strong>Okay</strong></p>","null","neutral_feedback","1","test","36","","","","","","","",""
"","","","","","","","","","","","html-button-response","277","2.0.0","596470","61577cfb758541d9e85d5d4e","2","46","1159","","","","","","","","","<img src= ""rock_img/I_Basalt_12.jpg"" style=""width:8cm; height:6.010000000000001cm;""><p>What type of rock is this?</p>","7","class_response","1","test","37","Pumice","Basalt","12","false","8","2","",""
"","","","","","","","","","","","html-keyboard-response","278","2.0.0","596985","61577cfb758541d9e85d5d4e","2","46","null","","","","","","","","","<p style='font-size: 30px;'><strong>Okay</strong></p>","null","neutral_feedback","1","test","37","","","","","","","",""
"","","","","","","","","","","","html-button-response","279","2.0.0","598938","61577cfb758541d9e85d5d4e","2","46","1951","","","","","","","","","<img src= ""rock_img/I_Diorite_16.jpg"" style=""width:8cm; height:6.74cm;""><p>What type of rock is this?</p>","0","class_response","1","test","38","Andesite","Diorite","16","false","1","3","",""
"","","","","","","","","","","","html-keyboard-response","280","2.0.0","599444","61577cfb758541d9e85d5d4e","2","46","null","","","","","","","","","<p style='font-size: 30px;'><strong>Okay</strong></p>","null","neutral_feedback","1","test","38","","","","","","","",""
"","","","","","","","","","","","html-button-response","281","2.0.0","601492","61577cfb758541d9e85d5d4e","2","46","2046","","","","","","","","","<img src= ""rock_img/I_Andesite_16.jpg"" style=""width:8cm; height:6.010000000000001cm;""><p>What type of rock is this?</p>","0","class_response","1","test","39","Andesite","Andesite","16","true","1","1","",""
"","","","","","","","","","","","html-keyboard-response","282","2.0.0","601995","61577cfb758541d9e85d5d4e","2","46","null","","","","","","","","","<p style='font-size: 30px;'><strong>Okay</strong></p>","null","neutral_feedback","1","test","39","","","","","","","",""
"","","","","","","","","","","","html-button-response","283","2.0.0","603394","61577cfb758541d9e85d5d4e","2","46","1398","","","","","","","","","<img src= ""rock_img/I_Basalt_04.jpg"" style=""width:8cm; height:7.53cm;""><p>What type of rock is this?</p>","1","class_response","1","test","40","Basalt","Basalt","04","true","2","2","",""
"","","","","","","","","","","","html-keyboard-response","284","2.0.0","603902","61577cfb758541d9e85d5d4e","2","46","null","","","","","","","","","<p style='font-size: 30px;'><strong>Okay</strong></p>","null","neutral_feedback","1","test","40","","","","","","","",""
"","","","","","","","","","","","html-button-response","285","2.0.0","607376","61577cfb758541d9e85d5d4e","2","46","3472","","","","","","","","","<img src= ""rock_img/I_Andesite_11.jpg"" style=""width:8cm; height:4.92cm;""><p>What type of rock is this?</p>","2","class_response","1","test","41","Diorite","Andesite","11","false","3","1","",""
"","","","","","","","","","","","html-keyboard-response","286","2.0.0","607882","61577cfb758541d9e85d5d4e","2","46","null","","","","","","","","","<p style='font-size: 30px;'><strong>Okay</strong></p>","null","neutral_feedback","1","test","41","","","","","","","",""
"","","","","","","","","","","","html-button-response","287","2.0.0","608992","61577cfb758541d9e85d5d4e","2","46","1108","","","","","","","","","<img src= ""rock_img/I_Basalt_16.jpg"" style=""width:8cm; height:7.659999999999999cm;""><p>What type of rock is this?</p>","1","class_response","1","test","42","Basalt","Basalt","16","true","2","2","",""
"","","","","","","","","","","","html-keyboard-response","288","2.0.0","609497","61577cfb758541d9e85d5d4e","2","46","null","","","","","","","","","<p style='font-size: 30px;'><strong>Okay</strong></p>","null","neutral_feedback","1","test","42","","","","","","","",""
"","","","","","","","","","","","html-button-response","289","2.0.0","613580","61577cfb758541d9e85d5d4e","2","46","4081","","","","","","","","","<img src= ""rock_img/I_Pegmatite_15.jpg"" style=""width:8cm; height:6cm;""><p>What type of rock is this?</p>","3","class_response","1","test","43","Gabbro","Pegmatite","15","false","4","6","",""
"","","","","","","","","","","","html-keyboard-response","290","2.0.0","614082","61577cfb758541d9e85d5d4e","2","46","null","","","","","","","","","<p style='font-size: 30px;'><strong>Okay</strong></p>","null","neutral_feedback","1","test","43","","","","","","","",""
"","","","","","","","","","","","html-button-response","291","2.0.0","615318","61577cfb758541d9e85d5d4e","2","46","1234","","","","","","","","","<img src= ""rock_img/I_Diorite_12.jpg"" style=""width:8cm; height:4.88cm;""><p>What type of rock is this?</p>","2","class_response","1","test","44","Diorite","Diorite","12","true","3","3","",""
"","","","","","","","","","","","html-keyboard-response","292","2.0.0","615822","61577cfb758541d9e85d5d4e","2","46","null","","","","","","","","","<p style='font-size: 30px;'><strong>Okay</strong></p>","null","neutral_feedback","1","test","44","","","","","","","",""
"","","","","","","","","","","","html-button-response","293","2.0.0","617314","61577cfb758541d9e85d5d4e","2","46","1490","","","","","","","","","<img src= ""rock_img/I_Gabbro_12.jpg"" style=""width:8cm; height:7.800000000000001cm;""><p>What type of rock is this?</p>","0","class_response","1","test","45","Andesite","Gabbro","12","false","1","4","",""
"","","","","","","","","","","","html-keyboard-response","294","2.0.0","617815","61577cfb758541d9e85d5d4e","2","46","null","","","","","","","","","<p style='font-size: 30px;'><strong>Okay</strong></p>","null","neutral_feedback","1","test","45","","","","","","","",""
"","","","","","","","","","","","html-button-response","295","2.0.0","619348","61577cfb758541d9e85d5d4e","2","46","1531","","","","","","","","","<img src= ""rock_img/I_Andesite_04.jpg"" style=""width:8cm; height:5.96cm;""><p>What type of rock is this?</p>","0","class_response","1","test","46","Andesite","Andesite","04","true","1","1","",""
"","","","","","","","","","","","html-keyboard-response","296","2.0.0","619850","61577cfb758541d9e85d5d4e","2","46","null","","","","","","","","","<p style='font-size: 30px;'><strong>Okay</strong></p>","null","neutral_feedback","1","test","46","","","","","","","",""
"","","","","","","","","","","","html-button-response","297","2.0.0","629772","61577cfb758541d9e85d5d4e","2","46","9920","","","","","","","","","<img src= ""rock_img/I_Pumice_03.jpg"" style=""width:8cm; height:6.64cm;""><p>What type of rock is this?</p>","2","class_response","1","test","47","Diorite","Pumice","03","false","3","8","",""
"","","","","","","","","","","","html-keyboard-response","298","2.0.0","630277","61577cfb758541d9e85d5d4e","2","46","null","","","","","","","","","<p style='font-size: 30px;'><strong>Okay</strong></p>","null","neutral_feedback","1","test","47","","","","","","","",""
"","","","","","","","","","","","html-button-response","299","2.0.0","634025","61577cfb758541d9e85d5d4e","2","46","3746","","","","","","","","","<img src= ""rock_img/I_Pegmatite_09.jpg"" style=""width:8cm; height:4.03cm;""><p>What type of rock is this?</p>","2","class_response","1","test","48","Diorite","Pegmatite","09","false","3","6","",""
"","","","","","","","","","","","html-keyboard-response","300","2.0.0","634538","61577cfb758541d9e85d5d4e","2","46","null","","","","","","","","","<p style='font-size: 30px;'><strong>Okay</strong></p>","null","neutral_feedback","1","test","48","","","","","","","",""
"","","","","","","","","","","","html-button-response","301","2.0.0","653260","61577cfb758541d9e85d5d4e","2","46","","","","","","","","","","","","cycle_feedback","","","","","","","","","","10215.5","8497.699999928474"
"","","","","","","","","","","","html-button-response","303","2.0.0","654844","61577cfb758541d9e85d5d4e","2","46","1583","","","","","","","","","","0","start_train","","","","","","","","","","",""
"","","","","","","","","","","","html-button-response","304","2.0.0","657662","61577cfb758541d9e85d5d4e","2","46","2817","","","","","","","","","<img src= ""rock_img/I_Pegmatite_13.jpg"" style=""width:8cm; height:4.95cm;""><p>What type of rock is this?</p>","6","class_response","2","train","1","Peridotite","Pegmatite","13","false","7","6","",""
