"width","height","webaudio","browser","browser_version","mobile","os","fullscreen","vsync_rate","webcam","microphone","trial_type","trial_index","plugin_version","time_elapsed","subjID","condition","stimID","rt","url","success","value","timeout","failed_images","failed_audio","failed_video","view_history","stimulus","response","trialType","cycle","phase","trial","resp","cat","token","corr","resp_num","cat_num","time_fb1","time_fb2"
"1536","695","true","chrome","130.0.0","false","Windows 10","true","60.36","true","true","browser-check","0","2.0.0","1009","67097f0092142ae824cb6afa","2","13","","","","","","","","","","","","","","","","","","","","","","",""
"","","","","","","","","","","","external-html","1","2.0.0","22055","67097f0092142ae824cb6afa","2","13","20971","consent_form.html","","","","","","","","","","","","","","","","","","","","",""
"","","","","","","","","","","","fullscreen","2","2.0.0","25853","67097f0092142ae824cb6afa","2","13","2783","","true","","","","","","","","","","","","","","","","","","","",""
"","","","","","","","","","","","call-function","3","2.0.0","25856","67097f0092142ae824cb6afa","2","13","","","","{}","","","","","","","","","","","","","","","","","","",""
"","","","","","","","","","","","preload","4","2.0.0","26771","67097f0092142ae824cb6afa","2","13","","","true","","false","[]","[]","[]","","","","","","","","","","","","","","",""
"","","","","","","","","","","","instructions","5","2.0.0","51559","67097f0092142ae824cb6afa","2","13","24779","","","","","","","","[{""page_index"":0,""viewing_time"":4565},{""page_index"":1,""viewing_time"":13910},{""page_index"":2,""viewing_time"":6304}]","","","","","","","","","","","","","",""
"","","","","","","","","","","","html-button-response","6","2.0.0","54353","67097f0092142ae824cb6afa","2","13","2793","","","","","","","","","","0","start_test","","","","","","","","","","",""
"","","","","","","","","","","","html-button-response","7","2.0.0","57402","67097f0092142ae824cb6afa","2","13","3048","","","","","","","","","<img src= ""rock_img/I_Obsidian_12.jpg"" style=""width:8cm; height:6.53cm;""><p>What type of rock is this?</p>","4","class_response","0","test","1","Obsidian","Obsidian","12","true","5","5","",""
"","","","","","","","","","","","html-keyboard-response","8","2.0.0","57906","67097f0092142ae824cb6afa","2","13","null","","","","","","","","","<p style='font-size: 30px;'><strong>Okay</strong></p>","null","neutral_feedback","0","test","1","","","","","","","",""
"","","","","","","","","","","","html-button-response","9","2.0.0","62782","67097f0092142ae824cb6afa","2","13","4874","","","","","","","","","<img src= ""rock_img/I_Pegmatite_03.jpg"" style=""width:8cm; height:5.239999999999999cm;""><p>What type of rock is this?</p>","5","class_response","0","test","2","Pegmatite","Pegmatite","03","true","6","6","",""
"","","","","","","","","","","","html-keyboard-response","10","2.0.0","63285","67097f0092142ae824cb6afa","2","13","null","","","","","","","","","<p style='font-size: 30px;'><strong>Okay</strong></p>","null","neutral_feedback","0","test","2","","","","","","","",""
"","","","","","","","","","","","html-button-response","11","2.0.0","68039","67097f0092142ae824cb6afa","2","13","4753","","","","","","","","","<img src= ""rock_img/I_Basalt_06.jpg"" style=""width:8cm; height:7.06cm;""><p>What type of rock is this?</p>","1","class_response","0","test","3","Basalt","Basalt","06","true","2","2","",""
"","","","","","","","","","","","html-keyboard-response","12","2.0.0","68543","67097f0092142ae824cb6afa","2","13","null","","","","","","","","","<p style='font-size: 30px;'><strong>Okay</strong></p>","null","neutral_feedback","0","test","3","","","","","","","",""
"","","","","","","","","","","","html-button-response","13","2.0.0","70111","67097f0092142ae824cb6afa","2","13","1565","","","","","","","","","<img src= ""rock_img/I_Pumice_09.jpg"" style=""width:8cm; height:6.44cm;""><p>What type of rock is this?</p>","7","class_response","0","test","4","Pumice","Pumice","09","true","8","8","",""
"","","","","","","","","","","","html-keyboard-response","14","2.0.0","70641","67097f0092142ae824cb6afa","2","13","null","","","","","","","","","<p style='font-size: 30px;'><strong>Okay</strong></p>","null","neutral_feedback","0","test","4","","","","","","","",""
"","","","","","","","","","","","html-button-response","15","2.0.0","74015","67097f0092142ae824cb6afa","2","13","3372","","","","","","","","","<img src= ""rock_img/I_Gabbro_14.jpg"" style=""width:8cm; height:8.48cm;""><p>What type of rock is this?</p>","2","class_response","0","test","5","Diorite","Gabbro","14","false","3","4","",""
"","","","","","","","","","","","html-keyboard-response","16","2.0.0","74531","67097f0092142ae824cb6afa","2","13","null","","","","","","","","","<p style='font-size: 30px;'><strong>Okay</strong></p>","null","neutral_feedback","0","test","5","","","","","","","",""
"","","","","","","","","","","","html-button-response","17","2.0.0","78401","67097f0092142ae824cb6afa","2","13","3867","","","","","","","","","<img src= ""rock_img/I_Pumice_05.jpg"" style=""width:8cm; height:7.25cm;""><p>What type of rock is this?</p>","3","class_response","0","test","6","Gabbro","Pumice","05","false","4","8","",""
"","","","","","","","","","","","html-keyboard-response","18","2.0.0","78906","67097f0092142ae824cb6afa","2","13","null","","","","","","","","","<p style='font-size: 30px;'><strong>Okay</strong></p>","null","neutral_feedback","0","test","6","","","","","","","",""
"","","","","","","","","","","","html-button-response","19","2.0.0","82819","67097f0092142ae824cb6afa","2","13","3910","","","","","","","","","<img src= ""rock_img/I_Pegmatite_08.jpg"" style=""width:8cm; height:7.68cm;""><p>What type of rock is this?</p>","0","class_response","0","test","7","Andesite","Pegmatite","08","false","1","6","",""
"","","","","","","","","","","","html-keyboard-response","20","2.0.0","83328","67097f0092142ae824cb6afa","2","13","null","","","","","","","","","<p style='font-size: 30px;'><strong>Okay</strong></p>","null","neutral_feedback","0","test","7","","","","","","","",""
"","","","","","","","","","","","html-button-response","21","2.0.0","87413","67097f0092142ae824cb6afa","2","13","4083","","","","","","","","","<img src= ""rock_img/I_Diorite_10.jpg"" style=""width:8cm; height:5.949999999999999cm;""><p>What type of rock is this?</p>","5","class_response","0","test","8","Pegmatite","Diorite","10","false","6","3","",""
"","","","","","","","","","","","html-keyboard-response","22","2.0.0","87922","67097f0092142ae824cb6afa","2","13","null","","","","","","","","","<p style='font-size: 30px;'><strong>Okay</strong></p>","null","neutral_feedback","0","test","8","","","","","","","",""
"","","","","","","","","","","","html-button-response","23","2.0.0","90665","67097f0092142ae824cb6afa","2","13","2741","","","","","","","","","<img src= ""rock_img/I_Gabbro_16.jpg"" style=""width:8cm; height:6.44cm;""><p>What type of rock is this?</p>","2","class_response","0","test","9","Diorite","Gabbro","16","false","3","4","",""
"","","","","","","","","","","","html-keyboard-response","24","2.0.0","91168","67097f0092142ae824cb6afa","2","13","null","","","","","","","","","<p style='font-size: 30px;'><strong>Okay</strong></p>","null","neutral_feedback","0","test","9","","","","","","","",""
"","","","","","","","","","","","html-button-response","25","2.0.0","94764","67097f0092142ae824cb6afa","2","13","3594","","","","","","","","","<img src= ""rock_img/I_Andesite_11.jpg"" style=""width:8cm; height:4.92cm;""><p>What type of rock is this?</p>","3","class_response","0","test","10","Gabbro","Andesite","11","false","4","1","",""
"","","","","","","","","","","","html-keyboard-response","26","2.0.0","95278","67097f0092142ae824cb6afa","2","13","null","","","","","","","","","<p style='font-size: 30px;'><strong>Okay</strong></p>","null","neutral_feedback","0","test","10","","","","","","","",""
"","","","","","","","","","","","html-button-response","27","2.0.0","97489","67097f0092142ae824cb6afa","2","13","2209","","","","","","","","","<img src= ""rock_img/I_Pegmatite_05.jpg"" style=""width:8cm; height:7.300000000000001cm;""><p>What type of rock is this?</p>","4","class_response","0","test","11","Obsidian","Pegmatite","05","false","5","6","",""
"","","","","","","","","","","","html-keyboard-response","28","2.0.0","97992","67097f0092142ae824cb6afa","2","13","null","","","","","","","","","<p style='font-size: 30px;'><strong>Okay</strong></p>","null","neutral_feedback","0","test","11","","","","","","","",""
"","","","","","","","","","","","html-button-response","29","2.0.0","100314","67097f0092142ae824cb6afa","2","13","2320","","","","","","","","","<img src= ""rock_img/I_Diorite_11.jpg"" style=""width:8cm; height:7.11cm;""><p>What type of rock is this?</p>","5","class_response","0","test","12","Pegmatite","Diorite","11","false","6","3","",""
"","","","","","","","","","","","html-keyboard-response","30","2.0.0","100821","67097f0092142ae824cb6afa","2","13","null","","","","","","","","","<p style='font-size: 30px;'><strong>Okay</strong></p>","null","neutral_feedback","0","test","12","","","","","","","",""
"","","","","","","","","","","","html-button-response","31","2.0.0","104057","67097f0092142ae824cb6afa","2","13","3234","","","","","","","","","<img src= ""rock_img/I_Basalt_09.jpg"" style=""width:8cm; height:6.2cm;""><p>What type of rock is this?</p>","1","class_response","0","test","13","Basalt","Basalt","09","true","2","2","",""
"","","","","","","","","","","","html-keyboard-response","32","2.0.0","104562","67097f0092142ae824cb6afa","2","13","null","","","","","","","","","<p style='font-size: 30px;'><strong>Okay</strong></p>","null","neutral_feedback","0","test","13","","","","","","","",""
"","","","","","","","","","","","html-button-response","33","2.0.0","106230","67097f0092142ae824cb6afa","2","13","1666","","","","","","","","","<img src= ""rock_img/I_Pumice_04.jpg"" style=""width:8cm; height:6.819999999999999cm;""><p>What type of rock is this?</p>","7","class_response","0","test","14","Pumice","Pumice","04","true","8","8","",""
"","","","","","","","","","","","html-keyboard-response","34","2.0.0","106743","67097f0092142ae824cb6afa","2","13","null","","","","","","","","","<p style='font-size: 30px;'><strong>Okay</strong></p>","null","neutral_feedback","0","test","14","","","","","","","",""
"","","","","","","","","","","","html-button-response","35","2.0.0","108939","67097f0092142ae824cb6afa","2","13","2194","","","","","","","","","<img src= ""rock_img/I_Diorite_16.jpg"" style=""width:8cm; height:6.74cm;""><p>What type of rock is this?</p>","6","class_response","0","test","15","Peridotite","Diorite","16","false","7","3","",""
"","","","","","","","","","","","html-keyboard-response","36","2.0.0","109453","67097f0092142ae824cb6afa","2","13","null","","","","","","","","","<p style='font-size: 30px;'><strong>Okay</strong></p>","null","neutral_feedback","0","test","15","","","","","","","",""
"","","","","","","","","","","","html-button-response","37","2.0.0","110895","67097f0092142ae824cb6afa","2","13","1440","","","","","","","","","<img src= ""rock_img/I_Gabbro_05.jpg"" style=""width:8cm; height:6cm;""><p>What type of rock is this?</p>","5","class_response","0","test","16","Pegmatite","Gabbro","05","false","6","4","",""
"","","","","","","","","","","","html-keyboard-response","38","2.0.0","111406","67097f0092142ae824cb6afa","2","13","null","","","","","","","","","<p style='font-size: 30px;'><strong>Okay</strong></p>","null","neutral_feedback","0","test","16","","","","","","","",""
"","","","","","","","","","","","html-button-response","39","2.0.0","112627","67097f0092142ae824cb6afa","2","13","1220","","","","","","","","","<img src= ""rock_img/I_Basalt_08.jpg"" style=""width:8cm; height:10.44cm;""><p>What type of rock is this?</p>","4","class_response","0","test","17","Obsidian","Basalt","08","false","5","2","",""
"","","","","","","","","","","","html-keyboard-response","40","2.0.0","113136","67097f0092142ae824cb6afa","2","13","null","","","","","","","","","<p style='font-size: 30px;'><strong>Okay</strong></p>","null","neutral_feedback","0","test","17","","","","","","","",""
"","","","","","","","","","","","html-button-response","41","2.0.0","116305","67097f0092142ae824cb6afa","2","13","3167","","","","","","","","","<img src= ""rock_img/I_Obsidian_09.jpg"" style=""width:8cm; height:5cm;""><p>What type of rock is this?</p>","1","class_response","0","test","18","Basalt","Obsidian","09","false","2","5","",""
"","","","","","","","","","","","html-keyboard-response","42","2.0.0","116820","67097f0092142ae824cb6afa","2","13","null","","","","","","","","","<p style='font-size: 30px;'><strong>Okay</strong></p>","null","neutral_feedback","0","test","18","","","","","","","",""
"","","","","","","","","","","","html-button-response","43","2.0.0","118446","67097f0092142ae824cb6afa","2","13","1624","","","","","","","","","<img src= ""rock_img/I_Pegmatite_13.jpg"" style=""width:8cm; height:4.95cm;""><p>What type of rock is this?</p>","5","class_response","0","test","19","Pegmatite","Pegmatite","13","true","6","6","",""
"","","","","","","","","","","","html-keyboard-response","44","2.0.0","118959","67097f0092142ae824cb6afa","2","13","null","","","","","","","","","<p style='font-size: 30px;'><strong>Okay</strong></p>","null","neutral_feedback","0","test","19","","","","","","","",""
"","","","","","","","","","","","html-button-response","45","2.0.0","120397","67097f0092142ae824cb6afa","2","13","1436","","","","","","","","","<img src= ""rock_img/I_Andesite_02.jpg"" style=""width:8cm; height:8.5cm;""><p>What type of rock is this?</p>","2","class_response","0","test","20","Diorite","Andesite","02","false","3","1","",""
"","","","","","","","","","","","html-keyboard-response","46","2.0.0","120909","67097f0092142ae824cb6afa","2","13","null","","","","","","","","","<p style='font-size: 30px;'><strong>Okay</strong></p>","null","neutral_feedback","0","test","20","","","","","","","",""
"","","","","","","","","","","","html-button-response","47","2.0.0","122515","67097f0092142ae824cb6afa","2","13","1604","","","","","","","","","<img src= ""rock_img/I_Pegmatite_16.jpg"" style=""width:8cm; height:5.8cm;""><p>What type of rock is this?</p>","6","class_response","0","test","21","Peridotite","Pegmatite","16","false","7","6","",""
"","","","","","","","","","","","html-keyboard-response","48","2.0.0","123026","67097f0092142ae824cb6afa","2","13","null","","","","","","","","","<p style='font-size: 30px;'><strong>Okay</strong></p>","null","neutral_feedback","0","test","21","","","","","","","",""
"","","","","","","","","","","","html-button-response","49","2.0.0","124643","67097f0092142ae824cb6afa","2","13","1615","","","","","","","","","<img src= ""rock_img/I_Basalt_16.jpg"" style=""width:8cm; height:7.659999999999999cm;""><p>What type of rock is this?</p>","7","class_response","0","test","22","Pumice","Basalt","16","false","8","2","",""
"","","","","","","","","","","","html-keyboard-response","50","2.0.0","125155","67097f0092142ae824cb6afa","2","13","null","","","","","","","","","<p style='font-size: 30px;'><strong>Okay</strong></p>","null","neutral_feedback","0","test","22","","","","","","","",""
"","","","","","","","","","","","html-button-response","51","2.0.0","126683","67097f0092142ae824cb6afa","2","13","1526","","","","","","","","","<img src= ""rock_img/I_Peridotite_15.jpg"" style=""width:8cm; height:6cm;""><p>What type of rock is this?</p>","3","class_response","0","test","23","Gabbro","Peridotite","15","false","4","7","",""
"","","","","","","","","","","","html-keyboard-response","52","2.0.0","127197","67097f0092142ae824cb6afa","2","13","null","","","","","","","","","<p style='font-size: 30px;'><strong>Okay</strong></p>","null","neutral_feedback","0","test","23","","","","","","","",""
"","","","","","","","","","","","html-button-response","53","2.0.0","128430","67097f0092142ae824cb6afa","2","13","1230","","","","","","","","","<img src= ""rock_img/I_Obsidian_02.jpg"" style=""width:8cm; height:7.51cm;""><p>What type of rock is this?</p>","4","class_response","0","test","24","Obsidian","Obsidian","02","true","5","5","",""
"","","","","","","","","","","","html-keyboard-response","54","2.0.0","128946","67097f0092142ae824cb6afa","2","13","null","","","","","","","","","<p style='font-size: 30px;'><strong>Okay</strong></p>","null","neutral_feedback","0","test","24","","","","","","","",""
"","","","","","","","","","","","html-button-response","55","2.0.0","130479","67097f0092142ae824cb6afa","2","13","1530","","","","","","","","","<img src= ""rock_img/I_Basalt_02.jpg"" style=""width:8cm; height:6.45cm;""><p>What type of rock is this?</p>","2","class_response","0","test","25","Diorite","Basalt","02","false","3","2","",""
"","","","","","","","","","","","html-keyboard-response","56","2.0.0","130988","67097f0092142ae824cb6afa","2","13","null","","","","","","","","","<p style='font-size: 30px;'><strong>Okay</strong></p>","null","neutral_feedback","0","test","25","","","","","","","",""
"","","","","","","","","","","","html-button-response","57","2.0.0","132823","67097f0092142ae824cb6afa","2","13","1833","","","","","","","","","<img src= ""rock_img/I_Diorite_14.jpg"" style=""width:8cm; height:5.71cm;""><p>What type of rock is this?</p>","6","class_response","0","test","26","Peridotite","Diorite","14","false","7","3","",""
"","","","","","","","","","","","html-keyboard-response","58","2.0.0","133327","67097f0092142ae824cb6afa","2","13","null","","","","","","","","","<p style='font-size: 30px;'><strong>Okay</strong></p>","null","neutral_feedback","0","test","26","","","","","","","",""
"","","","","","","","","","","","html-button-response","59","2.0.0","134283","67097f0092142ae824cb6afa","2","13","954","","","","","","","","","<img src= ""rock_img/I_Peridotite_10.jpg"" style=""width:8cm; height:5.390000000000001cm;""><p>What type of rock is this?</p>","5","class_response","0","test","27","Pegmatite","Peridotite","10","false","6","7","",""
"","","","","","","","","","","","html-keyboard-response","60","2.0.0","134796","67097f0092142ae824cb6afa","2","13","null","","","","","","","","","<p style='font-size: 30px;'><strong>Okay</strong></p>","null","neutral_feedback","0","test","27","","","","","","","",""
"","","","","","","","","","","","html-button-response","61","2.0.0","138909","67097f0092142ae824cb6afa","2","13","4111","","","","","","","","","<img src= ""rock_img/I_Obsidian_10.jpg"" style=""width:8cm; height:6.260000000000001cm;""><p>What type of rock is this?</p>","1","class_response","0","test","28","Basalt","Obsidian","10","false","2","5","",""
"","","","","","","","","","","","html-keyboard-response","62","2.0.0","139421","67097f0092142ae824cb6afa","2","13","null","","","","","","","","","<p style='font-size: 30px;'><strong>Okay</strong></p>","null","neutral_feedback","0","test","28","","","","","","","",""
"","","","","","","","","","","","html-button-response","63","2.0.0","140749","67097f0092142ae824cb6afa","2","13","1326","","","","","","","","","<img src= ""rock_img/I_Diorite_12.jpg"" style=""width:8cm; height:4.88cm;""><p>What type of rock is this?</p>","3","class_response","0","test","29","Gabbro","Diorite","12","false","4","3","",""
"","","","","","","","","","","","html-keyboard-response","64","2.0.0","141265","67097f0092142ae824cb6afa","2","13","null","","","","","","","","","<p style='font-size: 30px;'><strong>Okay</strong></p>","null","neutral_feedback","0","test","29","","","","","","","",""
"","","","","","","","","","","","html-button-response","65","2.0.0","142650","67097f0092142ae824cb6afa","2","13","1383","","","","","","","","","<img src= ""rock_img/I_Andesite_03.jpg"" style=""width:8cm; height:5.73cm;""><p>What type of rock is this?</p>","6","class_response","0","test","30","Peridotite","Andesite","03","false","7","1","",""
"","","","","","","","","","","","html-keyboard-response","66","2.0.0","143156","67097f0092142ae824cb6afa","2","13","null","","","","","","","","","<p style='font-size: 30px;'><strong>Okay</strong></p>","null","neutral_feedback","0","test","30","","","","","","","",""
"","","","","","","","","","","","html-button-response","67","2.0.0","144491","67097f0092142ae824cb6afa","2","13","1333","","","","","","","","","<img src= ""rock_img/I_Pumice_16.jpg"" style=""width:8cm; height:6.79cm;""><p>What type of rock is this?</p>","7","class_response","0","test","31","Pumice","Pumice","16","true","8","8","",""
"","","","","","","","","","","","html-keyboard-response","68","2.0.0","145001","67097f0092142ae824cb6afa","2","13","null","","","","","","","","","<p style='font-size: 30px;'><strong>Okay</strong></p>","null","neutral_feedback","0","test","31","","","","","","","",""
"","","","","","","","","","","","html-button-response","69","2.0.0","146237","67097f0092142ae824cb6afa","2","13","1234","","","","","","","","","<img src= ""rock_img/I_Andesite_05.jpg"" style=""width:8cm; height:4.12cm;""><p>What type of rock is this?</p>","1","class_response","0","test","32","Basalt","Andesite","05","false","2","1","",""
"","","","","","","","","","","","html-keyboard-response","70","2.0.0","146749","67097f0092142ae824cb6afa","2","13","null","","","","","","","","","<p style='font-size: 30px;'><strong>Okay</strong></p>","null","neutral_feedback","0","test","32","","","","","","","",""
"","","","","","","","","","","","html-button-response","71","2.0.0","147836","67097f0092142ae824cb6afa","2","13","1085","","","","","","","","","<img src= ""rock_img/I_Gabbro_10.jpg"" style=""width:8cm; height:5.680000000000001cm;""><p>What type of rock is this?</p>","0","class_response","0","test","33","Andesite","Gabbro","10","false","1","4","",""
"","","","","","","","","","","","html-keyboard-response","72","2.0.0","148342","67097f0092142ae824cb6afa","2","13","null","","","","","","","","","<p style='font-size: 30px;'><strong>Okay</strong></p>","null","neutral_feedback","0","test","33","","","","","","","",""
"","","","","","","","","","","","html-button-response","73","2.0.0","149690","67097f0092142ae824cb6afa","2","13","1347","","","","","","","","","<img src= ""rock_img/I_Basalt_10.jpg"" style=""width:8cm; height:5.85cm;""><p>What type of rock is this?</p>","4","class_response","0","test","34","Obsidian","Basalt","10","false","5","2","",""
"","","","","","","","","","","","html-keyboard-response","74","2.0.0","150202","67097f0092142ae824cb6afa","2","13","null","","","","","","","","","<p style='font-size: 30px;'><strong>Okay</strong></p>","null","neutral_feedback","0","test","34","","","","","","","",""
"","","","","","","","","","","","html-button-response","75","2.0.0","151391","67097f0092142ae824cb6afa","2","13","1187","","","","","","","","","<img src= ""rock_img/I_Pegmatite_09.jpg"" style=""width:8cm; height:4.03cm;""><p>What type of rock is this?</p>","1","class_response","0","test","35","Basalt","Pegmatite","09","false","2","6","",""
"","","","","","","","","","","","html-keyboard-response","76","2.0.0","151907","67097f0092142ae824cb6afa","2","13","null","","","","","","","","","<p style='font-size: 30px;'><strong>Okay</strong></p>","null","neutral_feedback","0","test","35","","","","","","","",""
"","","","","","","","","","","","html-button-response","77","2.0.0","153177","67097f0092142ae824cb6afa","2","13","1268","","","","","","","","","<img src= ""rock_img/I_Andesite_14.jpg"" style=""width:8cm; height:5.449999999999999cm;""><p>What type of rock is this?</p>","2","class_response","0","test","36","Diorite","Andesite","14","false","3","1","",""
"","","","","","","","","","","","html-keyboard-response","78","2.0.0","153690","67097f0092142ae824cb6afa","2","13","null","","","","","","","","","<p style='font-size: 30px;'><strong>Okay</strong></p>","null","neutral_feedback","0","test","36","","","","","","","",""
"","","","","","","","","","","","html-button-response","79","2.0.0","154714","67097f0092142ae824cb6afa","2","13","1022","","","","","","","","","<img src= ""rock_img/I_Obsidian_07.jpg"" style=""width:8cm; height:4.76cm;""><p>What type of rock is this?</p>","4","class_response","0","test","37","Obsidian","Obsidian","07","true","5","5","",""
"","","","","","","","","","","","html-keyboard-response","80","2.0.0","155218","67097f0092142ae824cb6afa","2","13","null","","","","","","","","","<p style='font-size: 30px;'><strong>Okay</strong></p>","null","neutral_feedback","0","test","37","","","","","","","",""
"","","","","","","","","","","","html-button-response","81","2.0.0","156291","67097f0092142ae824cb6afa","2","13","1071","","","","","","","","","<img src= ""rock_img/I_Gabbro_08.jpg"" style=""width:8cm; height:5.15cm;""><p>What type of rock is this?</p>","3","class_response","0","test","38","Gabbro","Gabbro","08","true","4","4","",""
"","","","","","","","","","","","html-keyboard-response","82","2.0.0","156797","67097f0092142ae824cb6afa","2","13","null","","","","","","","","","<p style='font-size: 30px;'><strong>Okay</strong></p>","null","neutral_feedback","0","test","38","","","","","","","",""
"","","","","","","","","","","","html-button-response","83","2.0.0","158255","67097f0092142ae824cb6afa","2","13","1456","","","","","","","","","<img src= ""rock_img/I_Pumice_15.jpg"" style=""width:8cm; height:7.86cm;""><p>What type of rock is this?</p>","7","class_response","0","test","39","Pumice","Pumice","15","true","8","8","",""
"","","","","","","","","","","","html-keyboard-response","84","2.0.0","158766","67097f0092142ae824cb6afa","2","13","null","","","","","","","","","<p style='font-size: 30px;'><strong>Okay</strong></p>","null","neutral_feedback","0","test","39","","","","","","","",""
"","","","","","","","","","","","html-button-response","85","2.0.0","159774","67097f0092142ae824cb6afa","2","13","1006","","","","","","","","","<img src= ""rock_img/I_Diorite_06.jpg"" style=""width:8cm; height:6.03cm;""><p>What type of rock is this?</p>","6","class_response","0","test","40","Peridotite","Diorite","06","false","7","3","",""
"","","","","","","","","","","","html-keyboard-response","86","2.0.0","160280","67097f0092142ae824cb6afa","2","13","null","","","","","","","","","<p style='font-size: 30px;'><strong>Okay</strong></p>","null","neutral_feedback","0","test","40","","","","","","","",""
"","","","","","","","","","","","html-button-response","87","2.0.0","161218","67097f0092142ae824cb6afa","2","13","937","","","","","","","","","<img src= ""rock_img/I_Andesite_16.jpg"" style=""width:8cm; height:6.010000000000001cm;""><p>What type of rock is this?</p>","5","class_response","0","test","41","Pegmatite","Andesite","16","false","6","1","",""
"","","","","","","","","","","","html-keyboard-response","88","2.0.0","161734","67097f0092142ae824cb6afa","2","13","null","","","","","","","","","<p style='font-size: 30px;'><strong>Okay</strong></p>","null","neutral_feedback","0","test","41","","","","","","","",""
"","","","","","","","","","","","html-button-response","89","2.0.0","162857","67097f0092142ae824cb6afa","2","13","1121","","","","","","","","","<img src= ""rock_img/I_Peridotite_14.jpg"" style=""width:8cm; height:5.3cm;""><p>What type of rock is this?</p>","2","class_response","0","test","42","Diorite","Peridotite","14","false","3","7","",""
"","","","","","","","","","","","html-keyboard-response","90","2.0.0","163372","67097f0092142ae824cb6afa","2","13","null","","","","","","","","","<p style='font-size: 30px;'><strong>Okay</strong></p>","null","neutral_feedback","0","test","42","","","","","","","",""
"","","","","","","","","","","","html-button-response","91","2.0.0","164416","67097f0092142ae824cb6afa","2","13","1041","","","","","","","","","<img src= ""rock_img/I_Peridotite_05.jpg"" style=""width:8cm; height:7.1499999999999995cm;""><p>What type of rock is this?</p>","1","class_response","0","test","43","Basalt","Peridotite","05","false","2","7","",""
"","","","","","","","","","","","html-keyboard-response","92","2.0.0","164922","67097f0092142ae824cb6afa","2","13","null","","","","","","","","","<p style='font-size: 30px;'><strong>Okay</strong></p>","null","neutral_feedback","0","test","43","","","","","","","",""
"","","","","","","","","","","","html-button-response","93","2.0.0","165947","67097f0092142ae824cb6afa","2","13","1023","","","","","","","","","<img src= ""rock_img/I_Peridotite_16.jpg"" style=""width:8cm; height:6.989999999999999cm;""><p>What type of rock is this?</p>","4","class_response","0","test","44","Obsidian","Peridotite","16","false","5","7","",""
"","","","","","","","","","","","html-keyboard-response","94","2.0.0","166456","67097f0092142ae824cb6afa","2","13","null","","","","","","","","","<p style='font-size: 30px;'><strong>Okay</strong></p>","null","neutral_feedback","0","test","44","","","","","","","",""
"","","","","","","","","","","","html-button-response","95","2.0.0","167547","67097f0092142ae824cb6afa","2","13","1090","","","","","","","","","<img src= ""rock_img/I_Pumice_06.jpg"" style=""width:8cm; height:6.9399999999999995cm;""><p>What type of rock is this?</p>","7","class_response","0","test","45","Pumice","Pumice","06","true","8","8","",""
"","","","","","","","","","","","html-keyboard-response","96","2.0.0","168049","67097f0092142ae824cb6afa","2","13","null","","","","","","","","","<p style='font-size: 30px;'><strong>Okay</strong></p>","null","neutral_feedback","0","test","45","","","","","","","",""
"","","","","","","","","","","","html-button-response","97","2.0.0","169433","67097f0092142ae824cb6afa","2","13","1381","","","","","","","","","<img src= ""rock_img/I_Peridotite_13.jpg"" style=""width:8cm; height:7.58cm;""><p>What type of rock is this?</p>","6","class_response","0","test","46","Peridotite","Peridotite","13","true","7","7","",""
"","","","","","","","","","","","html-keyboard-response","98","2.0.0","169938","67097f0092142ae824cb6afa","2","13","null","","","","","","","","","<p style='font-size: 30px;'><strong>Okay</strong></p>","null","neutral_feedback","0","test","46","","","","","","","",""
"","","","","","","","","","","","html-button-response","99","2.0.0","171745","67097f0092142ae824cb6afa","2","13","1806","","","","","","","","","<img src= ""rock_img/I_Gabbro_12.jpg"" style=""width:8cm; height:7.800000000000001cm;""><p>What type of rock is this?</p>","1","class_response","0","test","47","Basalt","Gabbro","12","false","2","4","",""
"","","","","","","","","","","","html-keyboard-response","100","2.0.0","172249","67097f0092142ae824cb6afa","2","13","null","","","","","","","","","<p style='font-size: 30px;'><strong>Okay</strong></p>","null","neutral_feedback","0","test","47","","","","","","","",""
"","","","","","","","","","","","html-button-response","101","2.0.0","173353","67097f0092142ae824cb6afa","2","13","1101","","","","","","","","","<img src= ""rock_img/I_Obsidian_05.jpg"" style=""width:8cm; height:6.33cm;""><p>What type of rock is this?</p>","4","class_response","0","test","48","Obsidian","Obsidian","05","true","5","5","",""
"","","","","","","","","","","","html-keyboard-response","102","2.0.0","173859","67097f0092142ae824cb6afa","2","13","null","","","","","","","","","<p style='font-size: 30px;'><strong>Okay</strong></p>","null","neutral_feedback","0","test","48","","","","","","","",""
"","","","","","","","","","","","instructions","103","2.0.0","191797","67097f0092142ae824cb6afa","2","13","17920","","","","","","","","[{""page_index"":0,""viewing_time"":11579},{""page_index"":1,""viewing_time"":4154},{""page_index"":2,""viewing_time"":2188}]","","","","","","","","","","","","","",""
"","","","","","","","","","","","html-button-response","104","2.0.0","193930","67097f0092142ae824cb6afa","2","13","2132","","","","","","","","","","0","start_train","","","","","","","","","","",""
"","","","","","","","","","","","html-button-response","105","2.0.0","196470","67097f0092142ae824cb6afa","2","13","2538","","","","","","","","","<img src= ""rock_img/I_Peridotite_12.jpg"" style=""width:8cm; height:4.54cm;""><p>What type of rock is this?</p>","2","class_response","1","train","1","Diorite","Peridotite","12","false","3","7","",""
"","","","","","","","","","","","html-button-response","106","2.0.0","197875","67097f0092142ae824cb6afa","2","13","1403","","","","","","","","","<img src= rock_img/I_Peridotite_12.jpg style=""width:8cm; height:4.54cm;""><p style='font-size: 30px; color: red;'><strong>Incorrect!</strong></p><p style='font-size: 30px;'><strong>This rock is peridotite</strong></p>","0","corr_feedback","1","train","1","","","","","","","",""
"","","","","","","","","","","","html-button-response","107","2.0.0","199643","67097f0092142ae824cb6afa","2","13","1767","","","","","","","","","<img src= ""rock_img/I_Gabbro_01.jpg"" style=""width:8cm; height:5.21cm;""><p>What type of rock is this?</p>","6","class_response","1","train","2","Peridotite","Gabbro","01","false","7","4","",""
"","","","","","","","","","","","html-button-response","108","2.0.0","200986","67097f0092142ae824cb6afa","2","13","1342","","","","","","","","","<img src= rock_img/I_Gabbro_01.jpg style=""width:8cm; height:5.21cm;""><p style='font-size: 30px; color: red;'><strong>Incorrect!</strong></p><p style='font-size: 30px;'><strong>This rock is gabbro</strong></p>","0","corr_feedback","1","train","2","","","","","","","",""
"","","","","","","","","","","","html-button-response","109","2.0.0","202220","67097f0092142ae824cb6afa","2","13","1233","","","","","","","","","<img src= ""rock_img/I_Pegmatite_11.jpg"" style=""width:8cm; height:8.14cm;""><p>What type of rock is this?</p>","4","class_response","1","train","3","Obsidian","Pegmatite","11","false","5","6","",""
"","","","","","","","","","","","html-button-response","110","2.0.0","203810","67097f0092142ae824cb6afa","2","13","1589","","","","","","","","","<img src= rock_img/I_Pegmatite_11.jpg style=""width:8cm; height:8.14cm;""><p style='font-size: 30px; color: red;'><strong>Incorrect!</strong></p><p style='font-size: 30px;'><strong>This rock is pegmatite</strong></p>","0","corr_feedback","1","train","3","","","","","","","",""
"","","","","","","","","","","","html-button-response","111","2.0.0","205160","67097f0092142ae824cb6afa","2","13","1349","","","","","","","","","<img src= ""rock_img/I_Basalt_05.jpg"" style=""width:8cm; height:8.18cm;""><p>What type of rock is this?</p>","4","class_response","1","train","4","Obsidian","Basalt","05","false","5","2","",""
"","","","","","","","","","","","html-button-response","112","2.0.0","206456","67097f0092142ae824cb6afa","2","13","1295","","","","","","","","","<img src= rock_img/I_Basalt_05.jpg style=""width:8cm; height:8.18cm;""><p style='font-size: 30px; color: red;'><strong>Incorrect!</strong></p><p style='font-size: 30px;'><strong>This rock is basalt</strong></p>","0","corr_feedback","1","train","4","","","","","","","",""
"","","","","","","","","","","","html-button-response","113","2.0.0","208474","67097f0092142ae824cb6afa","2","13","2017","","","","","","","","","<img src= ""rock_img/I_Basalt_11.jpg"" style=""width:8cm; height:5.359999999999999cm;""><p>What type of rock is this?</p>","5","class_response","1","train","5","Pegmatite","Basalt","11","false","6","2","",""
"","","","","","","","","","","","html-button-response","114","2.0.0","209631","67097f0092142ae824cb6afa","2","13","1155","","","","","","","","","<img src= rock_img/I_Basalt_11.jpg style=""width:8cm; height:5.359999999999999cm;""><p style='font-size: 30px; color: red;'><strong>Incorrect!</strong></p><p style='font-size: 30px;'><strong>This rock is basalt</strong></p>","0","corr_feedback","1","train","5","","","","","","","",""
"","","","","","","","","","","","html-button-response","115","2.0.0","210779","67097f0092142ae824cb6afa","2","13","1147","","","","","","","","","<img src= ""rock_img/I_Obsidian_06.jpg"" style=""width:8cm; height:6.8cm;""><p>What type of rock is this?</p>","4","class_response","1","train","6","Obsidian","Obsidian","06","true","5","5","",""
"","","","","","","","","","","","html-button-response","116","2.0.0","211881","67097f0092142ae824cb6afa","2","13","1101","","","","","","","","","<img src= rock_img/I_Obsidian_06.jpg style=""width:8cm; height:6.8cm;""><p style='font-size: 30px; color: green;'><strong>Correct!</strong></p><p style='font-size: 30px;'><strong>This rock is obsidian</strong></p>","0","corr_feedback","1","train","6","","","","","","","",""
"","","","","","","","","","","","html-button-response","117","2.0.0","212944","67097f0092142ae824cb6afa","2","13","1062","","","","","","","","","<img src= ""rock_img/I_Obsidian_16.jpg"" style=""width:8cm; height:9.3cm;""><p>What type of rock is this?</p>","4","class_response","1","train","7","Obsidian","Obsidian","16","true","5","5","",""
"","","","","","","","","","","","html-button-response","118","2.0.0","213688","67097f0092142ae824cb6afa","2","13","743","","","","","","","","","<img src= rock_img/I_Obsidian_16.jpg style=""width:8cm; height:9.3cm;""><p style='font-size: 30px; color: green;'><strong>Correct!</strong></p><p style='font-size: 30px;'><strong>This rock is obsidian</strong></p>","0","corr_feedback","1","train","7","","","","","","","",""
"","","","","","","","","","","","html-button-response","119","2.0.0","214768","67097f0092142ae824cb6afa","2","13","1079","","","","","","","","","<img src= ""rock_img/I_Obsidian_08.jpg"" style=""width:8cm; height:7.39cm;""><p>What type of rock is this?</p>","4","class_response","1","train","8","Obsidian","Obsidian","08","true","5","5","",""
"","","","","","","","","","","","html-button-response","120","2.0.0","215483","67097f0092142ae824cb6afa","2","13","713","","","","","","","","","<img src= rock_img/I_Obsidian_08.jpg style=""width:8cm; height:7.39cm;""><p style='font-size: 30px; color: green;'><strong>Correct!</strong></p><p style='font-size: 30px;'><strong>This rock is obsidian</strong></p>","0","corr_feedback","1","train","8","","","","","","","",""
"","","","","","","","","","","","html-button-response","121","2.0.0","217638","67097f0092142ae824cb6afa","2","13","2154","","","","","","","","","<img src= ""rock_img/I_Gabbro_09.jpg"" style=""width:8cm; height:7.279999999999999cm;""><p>What type of rock is this?</p>","0","class_response","1","train","9","Andesite","Gabbro","09","false","1","4","",""
"","","","","","","","","","","","html-button-response","122","2.0.0","218665","67097f0092142ae824cb6afa","2","13","1026","","","","","","","","","<img src= rock_img/I_Gabbro_09.jpg style=""width:8cm; height:7.279999999999999cm;""><p style='font-size: 30px; color: red;'><strong>Incorrect!</strong></p><p style='font-size: 30px;'><strong>This rock is gabbro</strong></p>","0","corr_feedback","1","train","9","","","","","","","",""
"","","","","","","","","","","","html-button-response","123","2.0.0","220627","67097f0092142ae824cb6afa","2","13","1961","","","","","","","","","<img src= ""rock_img/I_Peridotite_06.jpg"" style=""width:8cm; height:7.53cm;""><p>What type of rock is this?</p>","0","class_response","1","train","10","Andesite","Peridotite","06","false","1","7","",""
"","","","","","","","","","","","html-button-response","124","2.0.0","221847","67097f0092142ae824cb6afa","2","13","1219","","","","","","","","","<img src= rock_img/I_Peridotite_06.jpg style=""width:8cm; height:7.53cm;""><p style='font-size: 30px; color: red;'><strong>Incorrect!</strong></p><p style='font-size: 30px;'><strong>This rock is peridotite</strong></p>","0","corr_feedback","1","train","10","","","","","","","",""
"","","","","","","","","","","","html-button-response","125","2.0.0","223220","67097f0092142ae824cb6afa","2","13","1372","","","","","","","","","<img src= ""rock_img/I_Pumice_03.jpg"" style=""width:8cm; height:6.64cm;""><p>What type of rock is this?</p>","7","class_response","1","train","11","Pumice","Pumice","03","true","8","8","",""
"","","","","","","","","","","","html-button-response","126","2.0.0","224197","67097f0092142ae824cb6afa","2","13","975","","","","","","","","","<img src= rock_img/I_Pumice_03.jpg style=""width:8cm; height:6.64cm;""><p style='font-size: 30px; color: green;'><strong>Correct!</strong></p><p style='font-size: 30px;'><strong>This rock is pumice</strong></p>","0","corr_feedback","1","train","11","","","","","","","",""
"","","","","","","","","","","","html-button-response","127","2.0.0","225694","67097f0092142ae824cb6afa","2","13","1496","","","","","","","","","<img src= ""rock_img/I_Diorite_09.jpg"" style=""width:8cm; height:5.27cm;""><p>What type of rock is this?</p>","5","class_response","1","train","12","Pegmatite","Diorite","09","false","6","3","",""
"","","","","","","","","","","","html-button-response","128","2.0.0","226828","67097f0092142ae824cb6afa","2","13","1133","","","","","","","","","<img src= rock_img/I_Diorite_09.jpg style=""width:8cm; height:5.27cm;""><p style='font-size: 30px; color: red;'><strong>Incorrect!</strong></p><p style='font-size: 30px;'><strong>This rock is diorite</strong></p>","0","corr_feedback","1","train","12","","","","","","","",""
"","","","","","","","","","","","html-button-response","129","2.0.0","228599","67097f0092142ae824cb6afa","2","13","1769","","","","","","","","","<img src= ""rock_img/I_Andesite_06.jpg"" style=""width:8cm; height:6.840000000000001cm;""><p>What type of rock is this?</p>","2","class_response","1","train","13","Diorite","Andesite","06","false","3","1","",""
"","","","","","","","","","","","html-button-response","130","2.0.0","229623","67097f0092142ae824cb6afa","2","13","1023","","","","","","","","","<img src= rock_img/I_Andesite_06.jpg style=""width:8cm; height:6.840000000000001cm;""><p style='font-size: 30px; color: red;'><strong>Incorrect!</strong></p><p style='font-size: 30px;'><strong>This rock is andesite</strong></p>","0","corr_feedback","1","train","13","","","","","","","",""
"","","","","","","","","","","","html-button-response","131","2.0.0","230918","67097f0092142ae824cb6afa","2","13","1294","","","","","","","","","<img src= ""rock_img/I_Diorite_02.jpg"" style=""width:8cm; height:6.27cm;""><p>What type of rock is this?</p>","4","class_response","1","train","14","Obsidian","Diorite","02","false","5","3","",""
"","","","","","","","","","","","html-button-response","132","2.0.0","231765","67097f0092142ae824cb6afa","2","13","846","","","","","","","","","<img src= rock_img/I_Diorite_02.jpg style=""width:8cm; height:6.27cm;""><p style='font-size: 30px; color: red;'><strong>Incorrect!</strong></p><p style='font-size: 30px;'><strong>This rock is diorite</strong></p>","0","corr_feedback","1","train","14","","","","","","","",""
"","","","","","","","","","","","html-button-response","133","2.0.0","233124","67097f0092142ae824cb6afa","2","13","1359","","","","","","","","","<img src= ""rock_img/I_Basalt_12.jpg"" style=""width:8cm; height:6.010000000000001cm;""><p>What type of rock is this?</p>","7","class_response","1","train","15","Pumice","Basalt","12","false","8","2","",""
"","","","","","","","","","","","html-button-response","134","2.0.0","234133","67097f0092142ae824cb6afa","2","13","1008","","","","","","","","","<img src= rock_img/I_Basalt_12.jpg style=""width:8cm; height:6.010000000000001cm;""><p style='font-size: 30px; color: red;'><strong>Incorrect!</strong></p><p style='font-size: 30px;'><strong>This rock is basalt</strong></p>","0","corr_feedback","1","train","15","","","","","","","",""
"","","","","","","","","","","","html-button-response","135","2.0.0","235934","67097f0092142ae824cb6afa","2","13","1801","","","","","","","","","<img src= ""rock_img/I_Gabbro_03.jpg"" style=""width:8cm; height:8.52cm;""><p>What type of rock is this?</p>","6","class_response","1","train","16","Peridotite","Gabbro","03","false","7","4","",""
"","","","","","","","","","","","html-button-response","136","2.0.0","236834","67097f0092142ae824cb6afa","2","13","899","","","","","","","","","<img src= rock_img/I_Gabbro_03.jpg style=""width:8cm; height:8.52cm;""><p style='font-size: 30px; color: red;'><strong>Incorrect!</strong></p><p style='font-size: 30px;'><strong>This rock is gabbro</strong></p>","0","corr_feedback","1","train","16","","","","","","","",""
"","","","","","","","","","","","html-button-response","137","2.0.0","242167","67097f0092142ae824cb6afa","2","13","5331","","","","","","","","","<img src= ""rock_img/I_Andesite_04.jpg"" style=""width:8cm; height:5.96cm;""><p>What type of rock is this?</p>","0","class_response","1","train","17","Andesite","Andesite","04","true","1","1","",""
"","","","","","","","","","","","html-button-response","138","2.0.0","243835","67097f0092142ae824cb6afa","2","13","1667","","","","","","","","","<img src= rock_img/I_Andesite_04.jpg style=""width:8cm; height:5.96cm;""><p style='font-size: 30px; color: green;'><strong>Correct!</strong></p><p style='font-size: 30px;'><strong>This rock is andesite</strong></p>","0","corr_feedback","1","train","17","","","","","","","",""
"","","","","","","","","","","","html-button-response","139","2.0.0","246808","67097f0092142ae824cb6afa","2","13","2972","","","","","","","","","<img src= ""rock_img/I_Diorite_08.jpg"" style=""width:8cm; height:6.37cm;""><p>What type of rock is this?</p>","6","class_response","1","train","18","Peridotite","Diorite","08","false","7","3","",""
"","","","","","","","","","","","html-button-response","140","2.0.0","247941","67097f0092142ae824cb6afa","2","13","1132","","","","","","","","","<img src= rock_img/I_Diorite_08.jpg style=""width:8cm; height:6.37cm;""><p style='font-size: 30px; color: red;'><strong>Incorrect!</strong></p><p style='font-size: 30px;'><strong>This rock is diorite</strong></p>","0","corr_feedback","1","train","18","","","","","","","",""
"","","","","","","","","","","","html-button-response","141","2.0.0","251116","67097f0092142ae824cb6afa","2","13","3174","","","","","","","","","<img src= ""rock_img/I_Peridotite_08.jpg"" style=""width:8cm; height:6.7cm;""><p>What type of rock is this?</p>","5","class_response","1","train","19","Pegmatite","Peridotite","08","false","6","7","",""
"","","","","","","","","","","","html-button-response","142","2.0.0","252297","67097f0092142ae824cb6afa","2","13","1179","","","","","","","","","<img src= rock_img/I_Peridotite_08.jpg style=""width:8cm; height:6.7cm;""><p style='font-size: 30px; color: red;'><strong>Incorrect!</strong></p><p style='font-size: 30px;'><strong>This rock is peridotite</strong></p>","0","corr_feedback","1","train","19","","","","","","","",""
"","","","","","","","","","","","html-button-response","143","2.0.0","253312","67097f0092142ae824cb6afa","2","13","1014","","","","","","","","","<img src= ""rock_img/I_Pegmatite_15.jpg"" style=""width:8cm; height:6cm;""><p>What type of rock is this?</p>","4","class_response","1","train","20","Obsidian","Pegmatite","15","false","5","6","",""
"","","","","","","","","","","","html-button-response","144","2.0.0","254369","67097f0092142ae824cb6afa","2","13","1056","","","","","","","","","<img src= rock_img/I_Pegmatite_15.jpg style=""width:8cm; height:6cm;""><p style='font-size: 30px; color: red;'><strong>Incorrect!</strong></p><p style='font-size: 30px;'><strong>This rock is pegmatite</strong></p>","0","corr_feedback","1","train","20","","","","","","","",""
"","","","","","","","","","","","html-button-response","145","2.0.0","257705","67097f0092142ae824cb6afa","2","13","3335","","","","","","","","","<img src= ""rock_img/I_Peridotite_02.jpg"" style=""width:8cm; height:5.859999999999999cm;""><p>What type of rock is this?</p>","2","class_response","1","train","21","Diorite","Peridotite","02","false","3","7","",""
"","","","","","","","","","","","html-button-response","146","2.0.0","258830","67097f0092142ae824cb6afa","2","13","1124","","","","","","","","","<img src= rock_img/I_Peridotite_02.jpg style=""width:8cm; height:5.859999999999999cm;""><p style='font-size: 30px; color: red;'><strong>Incorrect!</strong></p><p style='font-size: 30px;'><strong>This rock is peridotite</strong></p>","0","corr_feedback","1","train","21","","","","","","","",""
"","","","","","","","","","","","html-button-response","147","2.0.0","259919","67097f0092142ae824cb6afa","2","13","1088","","","","","","","","","<img src= ""rock_img/I_Diorite_13.jpg"" style=""width:8cm; height:6.29cm;""><p>What type of rock is this?</p>","6","class_response","1","train","22","Peridotite","Diorite","13","false","7","3","",""
"","","","","","","","","","","","html-button-response","148","2.0.0","261113","67097f0092142ae824cb6afa","2","13","1192","","","","","","","","","<img src= rock_img/I_Diorite_13.jpg style=""width:8cm; height:6.29cm;""><p style='font-size: 30px; color: red;'><strong>Incorrect!</strong></p><p style='font-size: 30px;'><strong>This rock is diorite</strong></p>","0","corr_feedback","1","train","22","","","","","","","",""
"","","","","","","","","","","","html-button-response","149","2.0.0","262478","67097f0092142ae824cb6afa","2","13","1365","","","","","","","","","<img src= ""rock_img/I_Basalt_01.jpg"" style=""width:8cm; height:7.880000000000001cm;""><p>What type of rock is this?</p>","4","class_response","1","train","23","Obsidian","Basalt","01","false","5","2","",""
"","","","","","","","","","","","html-button-response","150","2.0.0","263324","67097f0092142ae824cb6afa","2","13","845","","","","","","","","","<img src= rock_img/I_Basalt_01.jpg style=""width:8cm; height:7.880000000000001cm;""><p style='font-size: 30px; color: red;'><strong>Incorrect!</strong></p><p style='font-size: 30px;'><strong>This rock is basalt</strong></p>","0","corr_feedback","1","train","23","","","","","","","",""
"","","","","","","","","","","","html-button-response","151","2.0.0","266802","67097f0092142ae824cb6afa","2","13","3477","","","","","","","","","<img src= ""rock_img/I_Pegmatite_06.jpg"" style=""width:8cm; height:5.17cm;""><p>What type of rock is this?</p>","2","class_response","1","train","24","Diorite","Pegmatite","06","false","3","6","",""
"","","","","","","","","","","","html-button-response","152","2.0.0","267983","67097f0092142ae824cb6afa","2","13","1178","","","","","","","","","<img src= rock_img/I_Pegmatite_06.jpg style=""width:8cm; height:5.17cm;""><p style='font-size: 30px; color: red;'><strong>Incorrect!</strong></p><p style='font-size: 30px;'><strong>This rock is pegmatite</strong></p>","0","corr_feedback","1","train","24","","","","","","","",""
"","","","","","","","","","","","html-button-response","153","2.0.0","270257","67097f0092142ae824cb6afa","2","13","2273","","","","","","","","","<img src= ""rock_img/I_Andesite_06.jpg"" style=""width:8cm; height:6.840000000000001cm;""><p>What type of rock is this?</p>","2","class_response","1","train","25","Diorite","Andesite","06","false","3","1","",""
"","","","","","","","","","","","html-button-response","154","2.0.0","271259","67097f0092142ae824cb6afa","2","13","1001","","","","","","","","","<img src= rock_img/I_Andesite_06.jpg style=""width:8cm; height:6.840000000000001cm;""><p style='font-size: 30px; color: red;'><strong>Incorrect!</strong></p><p style='font-size: 30px;'><strong>This rock is andesite</strong></p>","0","corr_feedback","1","train","25","","","","","","","",""
"","","","","","","","","","","","html-button-response","155","2.0.0","272889","67097f0092142ae824cb6afa","2","13","1629","","","","","","","","","<img src= ""rock_img/I_Pumice_02.jpg"" style=""width:8cm; height:7.3999999999999995cm;""><p>What type of rock is this?</p>","7","class_response","1","train","26","Pumice","Pumice","02","true","8","8","",""
"","","","","","","","","","","","html-button-response","156","2.0.0","273540","67097f0092142ae824cb6afa","2","13","650","","","","","","","","","<img src= rock_img/I_Pumice_02.jpg style=""width:8cm; height:7.3999999999999995cm;""><p style='font-size: 30px; color: green;'><strong>Correct!</strong></p><p style='font-size: 30px;'><strong>This rock is pumice</strong></p>","0","corr_feedback","1","train","26","","","","","","","",""
"","","","","","","","","","","","html-button-response","157","2.0.0","276955","67097f0092142ae824cb6afa","2","13","3414","","","","","","","","","<img src= ""rock_img/I_Gabbro_01.jpg"" style=""width:8cm; height:5.21cm;""><p>What type of rock is this?</p>","6","class_response","1","train","27","Peridotite","Gabbro","01","false","7","4","",""
"","","","","","","","","","","","html-button-response","158","2.0.0","277979","67097f0092142ae824cb6afa","2","13","1023","","","","","","","","","<img src= rock_img/I_Gabbro_01.jpg style=""width:8cm; height:5.21cm;""><p style='font-size: 30px; color: red;'><strong>Incorrect!</strong></p><p style='font-size: 30px;'><strong>This rock is gabbro</strong></p>","0","corr_feedback","1","train","27","","","","","","","",""
"","","","","","","","","","","","html-button-response","159","2.0.0","279096","67097f0092142ae824cb6afa","2","13","1116","","","","","","","","","<img src= ""rock_img/I_Basalt_04.jpg"" style=""width:8cm; height:7.53cm;""><p>What type of rock is this?</p>","4","class_response","1","train","28","Obsidian","Basalt","04","false","5","2","",""
"","","","","","","","","","","","html-button-response","160","2.0.0","280059","67097f0092142ae824cb6afa","2","13","962","","","","","","","","","<img src= rock_img/I_Basalt_04.jpg style=""width:8cm; height:7.53cm;""><p style='font-size: 30px; color: red;'><strong>Incorrect!</strong></p><p style='font-size: 30px;'><strong>This rock is basalt</strong></p>","0","corr_feedback","1","train","28","","","","","","","",""
"","","","","","","","","","","","html-button-response","161","2.0.0","283660","67097f0092142ae824cb6afa","2","13","3600","","","","","","","","","<img src= ""rock_img/I_Diorite_07.jpg"" style=""width:8cm; height:5.239999999999999cm;""><p>What type of rock is this?</p>","6","class_response","1","train","29","Peridotite","Diorite","07","false","7","3","",""
"","","","","","","","","","","","html-button-response","162","2.0.0","284523","67097f0092142ae824cb6afa","2","13","861","","","","","","","","","<img src= rock_img/I_Diorite_07.jpg style=""width:8cm; height:5.239999999999999cm;""><p style='font-size: 30px; color: red;'><strong>Incorrect!</strong></p><p style='font-size: 30px;'><strong>This rock is diorite</strong></p>","0","corr_feedback","1","train","29","","","","","","","",""
"","","","","","","","","","","","html-button-response","163","2.0.0","287812","67097f0092142ae824cb6afa","2","13","3289","","","","","","","","","<img src= ""rock_img/I_Andesite_01.jpg"" style=""width:8cm; height:5.87cm;""><p>What type of rock is this?</p>","3","class_response","1","train","30","Gabbro","Andesite","01","false","4","1","",""
"","","","","","","","","","","","html-button-response","164","2.0.0","288782","67097f0092142ae824cb6afa","2","13","969","","","","","","","","","<img src= rock_img/I_Andesite_01.jpg style=""width:8cm; height:5.87cm;""><p style='font-size: 30px; color: red;'><strong>Incorrect!</strong></p><p style='font-size: 30px;'><strong>This rock is andesite</strong></p>","0","corr_feedback","1","train","30","","","","","","","",""
"","","","","","","","","","","","html-button-response","165","2.0.0","290523","67097f0092142ae824cb6afa","2","13","1739","","","","","","","","","<img src= ""rock_img/I_Andesite_07.jpg"" style=""width:8cm; height:5.93cm;""><p>What type of rock is this?</p>","2","class_response","1","train","31","Diorite","Andesite","07","false","3","1","",""
"","","","","","","","","","","","html-button-response","166","2.0.0","291547","67097f0092142ae824cb6afa","2","13","1023","","","","","","","","","<img src= rock_img/I_Andesite_07.jpg style=""width:8cm; height:5.93cm;""><p style='font-size: 30px; color: red;'><strong>Incorrect!</strong></p><p style='font-size: 30px;'><strong>This rock is andesite</strong></p>","0","corr_feedback","1","train","31","","","","","","","",""
"","","","","","","","","","","","html-button-response","167","2.0.0","293573","67097f0092142ae824cb6afa","2","13","2025","","","","","","","","","<img src= ""rock_img/I_Andesite_01.jpg"" style=""width:8cm; height:5.87cm;""><p>What type of rock is this?</p>","0","class_response","1","train","32","Andesite","Andesite","01","true","1","1","",""
"","","","","","","","","","","","html-button-response","168","2.0.0","294791","67097f0092142ae824cb6afa","2","13","1217","","","","","","","","","<img src= rock_img/I_Andesite_01.jpg style=""width:8cm; height:5.87cm;""><p style='font-size: 30px; color: green;'><strong>Correct!</strong></p><p style='font-size: 30px;'><strong>This rock is andesite</strong></p>","0","corr_feedback","1","train","32","","","","","","","",""
"","","","","","","","","","","","html-button-response","169","2.0.0","297337","67097f0092142ae824cb6afa","2","13","2545","","","","","","","","","<img src= ""rock_img/I_Gabbro_15.jpg"" style=""width:8cm; height:6.29cm;""><p>What type of rock is this?</p>","2","class_response","1","train","33","Diorite","Gabbro","15","false","3","4","",""
"","","","","","","","","","","","html-button-response","170","2.0.0","298298","67097f0092142ae824cb6afa","2","13","960","","","","","","","","","<img src= rock_img/I_Gabbro_15.jpg style=""width:8cm; height:6.29cm;""><p style='font-size: 30px; color: red;'><strong>Incorrect!</strong></p><p style='font-size: 30px;'><strong>This rock is gabbro</strong></p>","0","corr_feedback","1","train","33","","","","","","","",""
"","","","","","","","","","","","html-button-response","171","2.0.0","300559","67097f0092142ae824cb6afa","2","13","2259","","","","","","","","","<img src= ""rock_img/I_Andesite_10.jpg"" style=""width:8cm; height:4.16cm;""><p>What type of rock is this?</p>","1","class_response","1","train","34","Basalt","Andesite","10","false","2","1","",""
"","","","","","","","","","","","html-button-response","172","2.0.0","301442","67097f0092142ae824cb6afa","2","13","883","","","","","","","","","<img src= rock_img/I_Andesite_10.jpg style=""width:8cm; height:4.16cm;""><p style='font-size: 30px; color: red;'><strong>Incorrect!</strong></p><p style='font-size: 30px;'><strong>This rock is andesite</strong></p>","0","corr_feedback","1","train","34","","","","","","","",""
"","","","","","","","","","","","html-button-response","173","2.0.0","307100","67097f0092142ae824cb6afa","2","13","5657","","","","","","","","","<img src= ""rock_img/I_Peridotite_06.jpg"" style=""width:8cm; height:7.53cm;""><p>What type of rock is this?</p>","2","class_response","1","train","35","Diorite","Peridotite","06","false","3","7","",""
"","","","","","","","","","","","html-button-response","174","2.0.0","308165","67097f0092142ae824cb6afa","2","13","1063","","","","","","","","","<img src= rock_img/I_Peridotite_06.jpg style=""width:8cm; height:7.53cm;""><p style='font-size: 30px; color: red;'><strong>Incorrect!</strong></p><p style='font-size: 30px;'><strong>This rock is peridotite</strong></p>","0","corr_feedback","1","train","35","","","","","","","",""
"","","","","","","","","","","","html-button-response","175","2.0.0","310406","67097f0092142ae824cb6afa","2","13","2240","","","","","","","","","<img src= ""rock_img/I_Andesite_09.jpg"" style=""width:8cm; height:6cm;""><p>What type of rock is this?</p>","3","class_response","1","train","36","Gabbro","Andesite","09","false","4","1","",""
"","","","","","","","","","","","html-button-response","176","2.0.0","311277","67097f0092142ae824cb6afa","2","13","869","","","","","","","","","<img src= rock_img/I_Andesite_09.jpg style=""width:8cm; height:6cm;""><p style='font-size: 30px; color: red;'><strong>Incorrect!</strong></p><p style='font-size: 30px;'><strong>This rock is andesite</strong></p>","0","corr_feedback","1","train","36","","","","","","","",""
"","","","","","","","","","","","html-button-response","177","2.0.0","312618","67097f0092142ae824cb6afa","2","13","1340","","","","","","","","","<img src= ""rock_img/I_Basalt_14.jpg"" style=""width:8cm; height:5.82cm;""><p>What type of rock is this?</p>","7","class_response","1","train","37","Pumice","Basalt","14","false","8","2","",""
"","","","","","","","","","","","html-button-response","178","2.0.0","313675","67097f0092142ae824cb6afa","2","13","1055","","","","","","","","","<img src= rock_img/I_Basalt_14.jpg style=""width:8cm; height:5.82cm;""><p style='font-size: 30px; color: red;'><strong>Incorrect!</strong></p><p style='font-size: 30px;'><strong>This rock is basalt</strong></p>","0","corr_feedback","1","train","37","","","","","","","",""
"","","","","","","","","","","","html-button-response","179","2.0.0","315733","67097f0092142ae824cb6afa","2","13","2057","","","","","","","","","<img src= ""rock_img/I_Pegmatite_07.jpg"" style=""width:8cm; height:6.7cm;""><p>What type of rock is this?</p>","6","class_response","1","train","38","Peridotite","Pegmatite","07","false","7","6","",""
"","","","","","","","","","","","html-button-response","180","2.0.0","316973","67097f0092142ae824cb6afa","2","13","1239","","","","","","","","","<img src= rock_img/I_Pegmatite_07.jpg style=""width:8cm; height:6.7cm;""><p style='font-size: 30px; color: red;'><strong>Incorrect!</strong></p><p style='font-size: 30px;'><strong>This rock is pegmatite</strong></p>","0","corr_feedback","1","train","38","","","","","","","",""
"","","","","","","","","","","","html-button-response","181","2.0.0","318611","67097f0092142ae824cb6afa","2","13","1637","","","","","","","","","<img src= ""rock_img/I_Peridotite_04.jpg"" style=""width:8cm; height:6.680000000000001cm;""><p>What type of rock is this?</p>","6","class_response","1","train","39","Peridotite","Peridotite","04","true","7","7","",""
"","","","","","","","","","","","html-button-response","182","2.0.0","319736","67097f0092142ae824cb6afa","2","13","1124","","","","","","","","","<img src= rock_img/I_Peridotite_04.jpg style=""width:8cm; height:6.680000000000001cm;""><p style='font-size: 30px; color: green;'><strong>Correct!</strong></p><p style='font-size: 30px;'><strong>This rock is peridotite</strong></p>","0","corr_feedback","1","train","39","","","","","","","",""
"","","","","","","","","","","","html-button-response","183","2.0.0","321738","67097f0092142ae824cb6afa","2","13","2001","","","","","","","","","<img src= ""rock_img/I_Peridotite_07.jpg"" style=""width:8cm; height:4.83cm;""><p>What type of rock is this?</p>","1","class_response","1","train","40","Basalt","Peridotite","07","false","2","7","",""
"","","","","","","","","","","","html-button-response","184","2.0.0","322818","67097f0092142ae824cb6afa","2","13","1079","","","","","","","","","<img src= rock_img/I_Peridotite_07.jpg style=""width:8cm; height:4.83cm;""><p style='font-size: 30px; color: red;'><strong>Incorrect!</strong></p><p style='font-size: 30px;'><strong>This rock is peridotite</strong></p>","0","corr_feedback","1","train","40","","","","","","","",""
"","","","","","","","","","","","html-button-response","185","2.0.0","325246","67097f0092142ae824cb6afa","2","13","2427","","","","","","","","","<img src= ""rock_img/I_Gabbro_13.jpg"" style=""width:8cm; height:5.08cm;""><p>What type of rock is this?</p>","0","class_response","1","train","41","Andesite","Gabbro","13","false","1","4","",""
"","","","","","","","","","","","html-button-response","186","2.0.0","326141","67097f0092142ae824cb6afa","2","13","893","","","","","","","","","<img src= rock_img/I_Gabbro_13.jpg style=""width:8cm; height:5.08cm;""><p style='font-size: 30px; color: red;'><strong>Incorrect!</strong></p><p style='font-size: 30px;'><strong>This rock is gabbro</strong></p>","0","corr_feedback","1","train","41","","","","","","","",""
"","","","","","","","","","","","html-button-response","187","2.0.0","328002","67097f0092142ae824cb6afa","2","13","1860","","","","","","","","","<img src= ""rock_img/I_Gabbro_11.jpg"" style=""width:8cm; height:6.2cm;""><p>What type of rock is this?</p>","1","class_response","1","train","42","Basalt","Gabbro","11","false","2","4","",""
"","","","","","","","","","","","html-button-response","188","2.0.0","328903","67097f0092142ae824cb6afa","2","13","900","","","","","","","","","<img src= rock_img/I_Gabbro_11.jpg style=""width:8cm; height:6.2cm;""><p style='font-size: 30px; color: red;'><strong>Incorrect!</strong></p><p style='font-size: 30px;'><strong>This rock is gabbro</strong></p>","0","corr_feedback","1","train","42","","","","","","","",""
"","","","","","","","","","","","html-button-response","189","2.0.0","330649","67097f0092142ae824cb6afa","2","13","1745","","","","","","","","","<img src= ""rock_img/I_Diorite_15.jpg"" style=""width:8cm; height:5.54cm;""><p>What type of rock is this?</p>","2","class_response","1","train","43","Diorite","Diorite","15","true","3","3","",""
"","","","","","","","","","","","html-button-response","190","2.0.0","331782","67097f0092142ae824cb6afa","2","13","1132","","","","","","","","","<img src= rock_img/I_Diorite_15.jpg style=""width:8cm; height:5.54cm;""><p style='font-size: 30px; color: green;'><strong>Correct!</strong></p><p style='font-size: 30px;'><strong>This rock is diorite</strong></p>","0","corr_feedback","1","train","43","","","","","","","",""
"","","","","","","","","","","","html-button-response","191","2.0.0","332831","67097f0092142ae824cb6afa","2","13","1047","","","","","","","","","<img src= ""rock_img/I_Diorite_09.jpg"" style=""width:8cm; height:5.27cm;""><p>What type of rock is this?</p>","2","class_response","1","train","44","Diorite","Diorite","09","true","3","3","",""
"","","","","","","","","","","","html-button-response","192","2.0.0","333784","67097f0092142ae824cb6afa","2","13","952","","","","","","","","","<img src= rock_img/I_Diorite_09.jpg style=""width:8cm; height:5.27cm;""><p style='font-size: 30px; color: green;'><strong>Correct!</strong></p><p style='font-size: 30px;'><strong>This rock is diorite</strong></p>","0","corr_feedback","1","train","44","","","","","","","",""
"","","","","","","","","","","","html-button-response","193","2.0.0","335152","67097f0092142ae824cb6afa","2","13","1366","","","","","","","","","<img src= ""rock_img/I_Pegmatite_10.jpg"" style=""width:8cm; height:4.16cm;""><p>What type of rock is this?</p>","6","class_response","1","train","45","Peridotite","Pegmatite","10","false","7","6","",""
"","","","","","","","","","","","html-button-response","194","2.0.0","336324","67097f0092142ae824cb6afa","2","13","1171","","","","","","","","","<img src= rock_img/I_Pegmatite_10.jpg style=""width:8cm; height:4.16cm;""><p style='font-size: 30px; color: red;'><strong>Incorrect!</strong></p><p style='font-size: 30px;'><strong>This rock is pegmatite</strong></p>","0","corr_feedback","1","train","45","","","","","","","",""
"","","","","","","","","","","","html-button-response","195","2.0.0","337823","67097f0092142ae824cb6afa","2","13","1497","","","","","","","","","<img src= ""rock_img/I_Diorite_08.jpg"" style=""width:8cm; height:6.37cm;""><p>What type of rock is this?</p>","2","class_response","1","train","46","Diorite","Diorite","08","true","3","3","",""
"","","","","","","","","","","","html-button-response","196","2.0.0","338940","67097f0092142ae824cb6afa","2","13","1116","","","","","","","","","<img src= rock_img/I_Diorite_08.jpg style=""width:8cm; height:6.37cm;""><p style='font-size: 30px; color: green;'><strong>Correct!</strong></p><p style='font-size: 30px;'><strong>This rock is diorite</strong></p>","0","corr_feedback","1","train","46","","","","","","","",""
"","","","","","","","","","","","html-button-response","197","2.0.0","340080","67097f0092142ae824cb6afa","2","13","1139","","","","","","","","","<img src= ""rock_img/I_Obsidian_04.jpg"" style=""width:8cm; height:6.930000000000001cm;""><p>What type of rock is this?</p>","4","class_response","1","train","47","Obsidian","Obsidian","04","true","5","5","",""
"","","","","","","","","","","","html-button-response","198","2.0.0","340919","67097f0092142ae824cb6afa","2","13","838","","","","","","","","","<img src= rock_img/I_Obsidian_04.jpg style=""width:8cm; height:6.930000000000001cm;""><p style='font-size: 30px; color: green;'><strong>Correct!</strong></p><p style='font-size: 30px;'><strong>This rock is obsidian</strong></p>","0","corr_feedback","1","train","47","","","","","","","",""
"","","","","","","","","","","","html-button-response","199","2.0.0","343240","67097f0092142ae824cb6afa","2","13","2321","","","","","","","","","<img src= ""rock_img/I_Pegmatite_12.jpg"" style=""width:8cm; height:5.7cm;""><p>What type of rock is this?</p>","5","class_response","1","train","48","Pegmatite","Pegmatite","12","true","6","6","",""
"","","","","","","","","","","","html-button-response","200","2.0.0","344302","67097f0092142ae824cb6afa","2","13","1061","","","","","","","","","<img src= rock_img/I_Pegmatite_12.jpg style=""width:8cm; height:5.7cm;""><p style='font-size: 30px; color: green;'><strong>Correct!</strong></p><p style='font-size: 30px;'><strong>This rock is pegmatite</strong></p>","0","corr_feedback","1","train","48","","","","","","","",""
"","","","","","","","","","","","instructions","203","2.0.0","359349","67097f0092142ae824cb6afa","2","13","15045","","","","","","","","[{""page_index"":0,""viewing_time"":5085},{""page_index"":1,""viewing_time"":9961}]","","","","","","","","","","","","","",""
"","","","","","","","","","","","html-button-response","204","2.0.0","362282","67097f0092142ae824cb6afa","2","13","2933","","","","","","","","","","0","start_test","","","","","","","","","","",""
"","","","","","","","","","","","html-button-response","205","2.0.0","364642","67097f0092142ae824cb6afa","2","13","2359","","","","","","","","","<img src= ""rock_img/I_Peridotite_05.jpg"" style=""width:8cm; height:7.1499999999999995cm;""><p>What type of rock is this?</p>","0","class_response","1","test","1","Andesite","Peridotite","05","false","1","7","",""
"","","","","","","","","","","","html-keyboard-response","206","2.0.0","365144","67097f0092142ae824cb6afa","2","13","null","","","","","","","","","<p style='font-size: 30px;'><strong>Okay</strong></p>","null","neutral_feedback","1","test","1","","","","","","","",""
"","","","","","","","","","","","html-button-response","207","2.0.0","367630","67097f0092142ae824cb6afa","2","13","2484","","","","","","","","","<img src= ""rock_img/I_Basalt_16.jpg"" style=""width:8cm; height:7.659999999999999cm;""><p>What type of rock is this?</p>","1","class_response","1","test","2","Basalt","Basalt","16","true","2","2","",""
"","","","","","","","","","","","html-keyboard-response","208","2.0.0","368139","67097f0092142ae824cb6afa","2","13","null","","","","","","","","","<p style='font-size: 30px;'><strong>Okay</strong></p>","null","neutral_feedback","1","test","2","","","","","","","",""
"","","","","","","","","","","","html-button-response","209","2.0.0","369409","67097f0092142ae824cb6afa","2","13","1268","","","","","","","","","<img src= ""rock_img/I_Obsidian_09.jpg"" style=""width:8cm; height:5cm;""><p>What type of rock is this?</p>","4","class_response","1","test","3","Obsidian","Obsidian","09","true","5","5","",""
"","","","","","","","","","","","html-keyboard-response","210","2.0.0","369911","67097f0092142ae824cb6afa","2","13","null","","","","","","","","","<p style='font-size: 30px;'><strong>Okay</strong></p>","null","neutral_feedback","1","test","3","","","","","","","",""
"","","","","","","","","","","","html-button-response","211","2.0.0","373173","67097f0092142ae824cb6afa","2","13","3260","","","","","","","","","<img src= ""rock_img/I_Obsidian_05.jpg"" style=""width:8cm; height:6.33cm;""><p>What type of rock is this?</p>","4","class_response","1","test","4","Obsidian","Obsidian","05","true","5","5","",""
"","","","","","","","","","","","html-keyboard-response","212","2.0.0","373683","67097f0092142ae824cb6afa","2","13","null","","","","","","","","","<p style='font-size: 30px;'><strong>Okay</strong></p>","null","neutral_feedback","1","test","4","","","","","","","",""
"","","","","","","","","","","","html-button-response","213","2.0.0","376952","67097f0092142ae824cb6afa","2","13","3267","","","","","","","","","<img src= ""rock_img/I_Pegmatite_09.jpg"" style=""width:8cm; height:4.03cm;""><p>What type of rock is this?</p>","2","class_response","1","test","5","Diorite","Pegmatite","09","false","3","6","",""
"","","","","","","","","","","","html-keyboard-response","214","2.0.0","377454","67097f0092142ae824cb6afa","2","13","null","","","","","","","","","<p style='font-size: 30px;'><strong>Okay</strong></p>","null","neutral_feedback","1","test","5","","","","","","","",""
"","","","","","","","","","","","html-button-response","215","2.0.0","380477","67097f0092142ae824cb6afa","2","13","3021","","","","","","","","","<img src= ""rock_img/I_Andesite_03.jpg"" style=""width:8cm; height:5.73cm;""><p>What type of rock is this?</p>","3","class_response","1","test","6","Gabbro","Andesite","03","false","4","1","",""
"","","","","","","","","","","","html-keyboard-response","216","2.0.0","380989","67097f0092142ae824cb6afa","2","13","null","","","","","","","","","<p style='font-size: 30px;'><strong>Okay</strong></p>","null","neutral_feedback","1","test","6","","","","","","","",""
"","","","","","","","","","","","html-button-response","217","2.0.0","384879","67097f0092142ae824cb6afa","2","13","3888","","","","","","","","","<img src= ""rock_img/I_Gabbro_16.jpg"" style=""width:8cm; height:6.44cm;""><p>What type of rock is this?</p>","1","class_response","1","test","7","Basalt","Gabbro","16","false","2","4","",""
"","","","","","","","","","","","html-keyboard-response","218","2.0.0","385390","67097f0092142ae824cb6afa","2","13","null","","","","","","","","","<p style='font-size: 30px;'><strong>Okay</strong></p>","null","neutral_feedback","1","test","7","","","","","","","",""
"","","","","","","","","","","","html-button-response","219","2.0.0","390787","67097f0092142ae824cb6afa","2","13","5395","","","","","","","","","<img src= ""rock_img/I_Basalt_08.jpg"" style=""width:8cm; height:10.44cm;""><p>What type of rock is this?</p>","0","class_response","1","test","8","Andesite","Basalt","08","false","1","2","",""
"","","","","","","","","","","","html-keyboard-response","220","2.0.0","391288","67097f0092142ae824cb6afa","2","13","null","","","","","","","","","<p style='font-size: 30px;'><strong>Okay</strong></p>","null","neutral_feedback","1","test","8","","","","","","","",""
"","","","","","","","","","","","html-button-response","221","2.0.0","392384","67097f0092142ae824cb6afa","2","13","1095","","","","","","","","","<img src= ""rock_img/I_Obsidian_02.jpg"" style=""width:8cm; height:7.51cm;""><p>What type of rock is this?</p>","4","class_response","1","test","9","Obsidian","Obsidian","02","true","5","5","",""
"","","","","","","","","","","","html-keyboard-response","222","2.0.0","392887","67097f0092142ae824cb6afa","2","13","null","","","","","","","","","<p style='font-size: 30px;'><strong>Okay</strong></p>","null","neutral_feedback","1","test","9","","","","","","","",""
"","","","","","","","","","","","html-button-response","223","2.0.0","395574","67097f0092142ae824cb6afa","2","13","2686","","","","","","","","","<img src= ""rock_img/I_Pegmatite_08.jpg"" style=""width:8cm; height:7.68cm;""><p>What type of rock is this?</p>","6","class_response","1","test","10","Peridotite","Pegmatite","08","false","7","6","",""
"","","","","","","","","","","","html-keyboard-response","224","2.0.0","396087","67097f0092142ae824cb6afa","2","13","null","","","","","","","","","<p style='font-size: 30px;'><strong>Okay</strong></p>","null","neutral_feedback","1","test","10","","","","","","","",""
"","","","","","","","","","","","html-button-response","225","2.0.0","397407","67097f0092142ae824cb6afa","2","13","1319","","","","","","","","","<img src= ""rock_img/I_Obsidian_12.jpg"" style=""width:8cm; height:6.53cm;""><p>What type of rock is this?</p>","4","class_response","1","test","11","Obsidian","Obsidian","12","true","5","5","",""
"","","","","","","","","","","","html-keyboard-response","226","2.0.0","397918","67097f0092142ae824cb6afa","2","13","null","","","","","","","","","<p style='font-size: 30px;'><strong>Okay</strong></p>","null","neutral_feedback","1","test","11","","","","","","","",""
"","","","","","","","","","","","html-button-response","227","2.0.0","400542","67097f0092142ae824cb6afa","2","13","2622","","","","","","","","","<img src= ""rock_img/I_Peridotite_13.jpg"" style=""width:8cm; height:7.58cm;""><p>What type of rock is this?</p>","6","class_response","1","test","12","Peridotite","Peridotite","13","true","7","7","",""
"","","","","","","","","","","","html-keyboard-response","228","2.0.0","401046","67097f0092142ae824cb6afa","2","13","null","","","","","","","","","<p style='font-size: 30px;'><strong>Okay</strong></p>","null","neutral_feedback","1","test","12","","","","","","","",""
"","","","","","","","","","","","html-button-response","229","2.0.0","404285","67097f0092142ae824cb6afa","2","13","3237","","","","","","","","","<img src= ""rock_img/I_Pegmatite_16.jpg"" style=""width:8cm; height:5.8cm;""><p>What type of rock is this?</p>","3","class_response","1","test","13","Gabbro","Pegmatite","16","false","4","6","",""
"","","","","","","","","","","","html-keyboard-response","230","2.0.0","404794","67097f0092142ae824cb6afa","2","13","null","","","","","","","","","<p style='font-size: 30px;'><strong>Okay</strong></p>","null","neutral_feedback","1","test","13","","","","","","","",""
"","","","","","","","","","","","html-button-response","231","2.0.0","406621","67097f0092142ae824cb6afa","2","13","1825","","","","","","","","","<img src= ""rock_img/I_Pegmatite_13.jpg"" style=""width:8cm; height:4.95cm;""><p>What type of rock is this?</p>","3","class_response","1","test","14","Gabbro","Pegmatite","13","false","4","6","",""
"","","","","","","","","","","","html-keyboard-response","232","2.0.0","407124","67097f0092142ae824cb6afa","2","13","null","","","","","","","","","<p style='font-size: 30px;'><strong>Okay</strong></p>","null","neutral_feedback","1","test","14","","","","","","","",""
"","","","","","","","","","","","html-button-response","233","2.0.0","409524","67097f0092142ae824cb6afa","2","13","2398","","","","","","","","","<img src= ""rock_img/I_Peridotite_15.jpg"" style=""width:8cm; height:6cm;""><p>What type of rock is this?</p>","2","class_response","1","test","15","Diorite","Peridotite","15","false","3","7","",""
"","","","","","","","","","","","html-keyboard-response","234","2.0.0","410046","67097f0092142ae824cb6afa","2","13","null","","","","","","","","","<p style='font-size: 30px;'><strong>Okay</strong></p>","null","neutral_feedback","1","test","15","","","","","","","",""
"","","","","","","","","","","","html-button-response","235","2.0.0","411193","67097f0092142ae824cb6afa","2","13","1145","","","","","","","","","<img src= ""rock_img/I_Peridotite_10.jpg"" style=""width:8cm; height:5.390000000000001cm;""><p>What type of rock is this?</p>","2","class_response","1","test","16","Diorite","Peridotite","10","false","3","7","",""
"","","","","","","","","","","","html-keyboard-response","236","2.0.0","411706","67097f0092142ae824cb6afa","2","13","null","","","","","","","","","<p style='font-size: 30px;'><strong>Okay</strong></p>","null","neutral_feedback","1","test","16","","","","","","","",""
"","","","","","","","","","","","html-button-response","237","2.0.0","413825","67097f0092142ae824cb6afa","2","13","2117","","","","","","","","","<img src= ""rock_img/I_Peridotite_16.jpg"" style=""width:8cm; height:6.989999999999999cm;""><p>What type of rock is this?</p>","1","class_response","1","test","17","Basalt","Peridotite","16","false","2","7","",""
"","","","","","","","","","","","html-keyboard-response","238","2.0.0","414328","67097f0092142ae824cb6afa","2","13","null","","","","","","","","","<p style='font-size: 30px;'><strong>Okay</strong></p>","null","neutral_feedback","1","test","17","","","","","","","",""
"","","","","","","","","","","","html-button-response","239","2.0.0","417769","67097f0092142ae824cb6afa","2","13","3439","","","","","","","","","<img src= ""rock_img/I_Basalt_09.jpg"" style=""width:8cm; height:6.2cm;""><p>What type of rock is this?</p>","5","class_response","1","test","18","Pegmatite","Basalt","09","false","6","2","",""
"","","","","","","","","","","","html-keyboard-response","240","2.0.0","418276","67097f0092142ae824cb6afa","2","13","null","","","","","","","","","<p style='font-size: 30px;'><strong>Okay</strong></p>","null","neutral_feedback","1","test","18","","","","","","","",""
"","","","","","","","","","","","html-button-response","241","2.0.0","420593","67097f0092142ae824cb6afa","2","13","2315","","","","","","","","","<img src= ""rock_img/I_Basalt_10.jpg"" style=""width:8cm; height:5.85cm;""><p>What type of rock is this?</p>","0","class_response","1","test","19","Andesite","Basalt","10","false","1","2","",""
"","","","","","","","","","","","html-keyboard-response","242","2.0.0","421108","67097f0092142ae824cb6afa","2","13","null","","","","","","","","","<p style='font-size: 30px;'><strong>Okay</strong></p>","null","neutral_feedback","1","test","19","","","","","","","",""
"","","","","","","","","","","","html-button-response","243","2.0.0","424769","67097f0092142ae824cb6afa","2","13","3659","","","","","","","","","<img src= ""rock_img/I_Pegmatite_03.jpg"" style=""width:8cm; height:5.239999999999999cm;""><p>What type of rock is this?</p>","6","class_response","1","test","20","Peridotite","Pegmatite","03","false","7","6","",""
"","","","","","","","","","","","html-keyboard-response","244","2.0.0","425281","67097f0092142ae824cb6afa","2","13","null","","","","","","","","","<p style='font-size: 30px;'><strong>Okay</strong></p>","null","neutral_feedback","1","test","20","","","","","","","",""
"","","","","","","","","","","","html-button-response","245","2.0.0","426570","67097f0092142ae824cb6afa","2","13","1287","","","","","","","","","<img src= ""rock_img/I_Pumice_09.jpg"" style=""width:8cm; height:6.44cm;""><p>What type of rock is this?</p>","7","class_response","1","test","21","Pumice","Pumice","09","true","8","8","",""
"","","","","","","","","","","","html-keyboard-response","246","2.0.0","427072","67097f0092142ae824cb6afa","2","13","null","","","","","","","","","<p style='font-size: 30px;'><strong>Okay</strong></p>","null","neutral_feedback","1","test","21","","","","","","","",""
"","","","","","","","","","","","html-button-response","247","2.0.0","431204","67097f0092142ae824cb6afa","2","13","4131","","","","","","","","","<img src= ""rock_img/I_Peridotite_14.jpg"" style=""width:8cm; height:5.3cm;""><p>What type of rock is this?</p>","0","class_response","1","test","22","Andesite","Peridotite","14","false","1","7","",""
"","","","","","","","","","","","html-keyboard-response","248","2.0.0","431705","67097f0092142ae824cb6afa","2","13","null","","","","","","","","","<p style='font-size: 30px;'><strong>Okay</strong></p>","null","neutral_feedback","1","test","22","","","","","","","",""
"","","","","","","","","","","","html-button-response","249","2.0.0","433581","67097f0092142ae824cb6afa","2","13","1874","","","","","","","","","<img src= ""rock_img/I_Diorite_11.jpg"" style=""width:8cm; height:7.11cm;""><p>What type of rock is this?</p>","2","class_response","1","test","23","Diorite","Diorite","11","true","3","3","",""
"","","","","","","","","","","","html-keyboard-response","250","2.0.0","434088","67097f0092142ae824cb6afa","2","13","null","","","","","","","","","<p style='font-size: 30px;'><strong>Okay</strong></p>","null","neutral_feedback","1","test","23","","","","","","","",""
"","","","","","","","","","","","html-button-response","251","2.0.0","435087","67097f0092142ae824cb6afa","2","13","997","","","","","","","","","<img src= ""rock_img/I_Diorite_12.jpg"" style=""width:8cm; height:4.88cm;""><p>What type of rock is this?</p>","2","class_response","1","test","24","Diorite","Diorite","12","true","3","3","",""
"","","","","","","","","","","","html-keyboard-response","252","2.0.0","435593","67097f0092142ae824cb6afa","2","13","null","","","","","","","","","<p style='font-size: 30px;'><strong>Okay</strong></p>","null","neutral_feedback","1","test","24","","","","","","","",""
"","","","","","","","","","","","html-button-response","253","2.0.0","436878","67097f0092142ae824cb6afa","2","13","1283","","","","","","","","","<img src= ""rock_img/I_Diorite_10.jpg"" style=""width:8cm; height:5.949999999999999cm;""><p>What type of rock is this?</p>","2","class_response","1","test","25","Diorite","Diorite","10","true","3","3","",""
"","","","","","","","","","","","html-keyboard-response","254","2.0.0","437387","67097f0092142ae824cb6afa","2","13","null","","","","","","","","","<p style='font-size: 30px;'><strong>Okay</strong></p>","null","neutral_feedback","1","test","25","","","","","","","",""
"","","","","","","","","","","","html-button-response","255","2.0.0","438594","67097f0092142ae824cb6afa","2","13","1205","","","","","","","","","<img src= ""rock_img/I_Obsidian_07.jpg"" style=""width:8cm; height:4.76cm;""><p>What type of rock is this?</p>","4","class_response","1","test","26","Obsidian","Obsidian","07","true","5","5","",""
"","","","","","","","","","","","html-keyboard-response","256","2.0.0","439109","67097f0092142ae824cb6afa","2","13","null","","","","","","","","","<p style='font-size: 30px;'><strong>Okay</strong></p>","null","neutral_feedback","1","test","26","","","","","","","",""
"","","","","","","","","","","","html-button-response","257","2.0.0","441359","67097f0092142ae824cb6afa","2","13","2248","","","","","","","","","<img src= ""rock_img/I_Gabbro_14.jpg"" style=""width:8cm; height:8.48cm;""><p>What type of rock is this?</p>","5","class_response","1","test","27","Pegmatite","Gabbro","14","false","6","4","",""
"","","","","","","","","","","","html-keyboard-response","258","2.0.0","441874","67097f0092142ae824cb6afa","2","13","null","","","","","","","","","<p style='font-size: 30px;'><strong>Okay</strong></p>","null","neutral_feedback","1","test","27","","","","","","","",""
"","","","","","","","","","","","html-button-response","259","2.0.0","446854","67097f0092142ae824cb6afa","2","13","4978","","","","","","","","","<img src= ""rock_img/I_Andesite_14.jpg"" style=""width:8cm; height:5.449999999999999cm;""><p>What type of rock is this?</p>","3","class_response","1","test","28","Gabbro","Andesite","14","false","4","1","",""
"","","","","","","","","","","","html-keyboard-response","260","2.0.0","447358","67097f0092142ae824cb6afa","2","13","null","","","","","","","","","<p style='font-size: 30px;'><strong>Okay</strong></p>","null","neutral_feedback","1","test","28","","","","","","","",""
"","","","","","","","","","","","html-button-response","261","2.0.0","448997","67097f0092142ae824cb6afa","2","13","1637","","","","","","","","","<img src= ""rock_img/I_Andesite_11.jpg"" style=""width:8cm; height:4.92cm;""><p>What type of rock is this?</p>","0","class_response","1","test","29","Andesite","Andesite","11","true","1","1","",""
"","","","","","","","","","","","html-keyboard-response","262","2.0.0","449502","67097f0092142ae824cb6afa","2","13","null","","","","","","","","","<p style='font-size: 30px;'><strong>Okay</strong></p>","null","neutral_feedback","1","test","29","","","","","","","",""
"","","","","","","","","","","","html-button-response","263","2.0.0","450867","67097f0092142ae824cb6afa","2","13","1364","","","","","","","","","<img src= ""rock_img/I_Diorite_14.jpg"" style=""width:8cm; height:5.71cm;""><p>What type of rock is this?</p>","2","class_response","1","test","30","Diorite","Diorite","14","true","3","3","",""
"","","","","","","","","","","","html-keyboard-response","264","2.0.0","451374","67097f0092142ae824cb6afa","2","13","null","","","","","","","","","<p style='font-size: 30px;'><strong>Okay</strong></p>","null","neutral_feedback","1","test","30","","","","","","","",""
"","","","","","","","","","","","html-button-response","265","2.0.0","454780","67097f0092142ae824cb6afa","2","13","3405","","","","","","","","","<img src= ""rock_img/I_Gabbro_05.jpg"" style=""width:8cm; height:6cm;""><p>What type of rock is this?</p>","5","class_response","1","test","31","Pegmatite","Gabbro","05","false","6","4","",""
"","","","","","","","","","","","html-keyboard-response","266","2.0.0","455285","67097f0092142ae824cb6afa","2","13","null","","","","","","","","","<p style='font-size: 30px;'><strong>Okay</strong></p>","null","neutral_feedback","1","test","31","","","","","","","",""
"","","","","","","","","","","","html-button-response","267","2.0.0","457505","67097f0092142ae824cb6afa","2","13","2218","","","","","","","","","<img src= ""rock_img/I_Basalt_06.jpg"" style=""width:8cm; height:7.06cm;""><p>What type of rock is this?</p>","1","class_response","1","test","32","Basalt","Basalt","06","true","2","2","",""
"","","","","","","","","","","","html-keyboard-response","268","2.0.0","458031","67097f0092142ae824cb6afa","2","13","null","","","","","","","","","<p style='font-size: 30px;'><strong>Okay</strong></p>","null","neutral_feedback","1","test","32","","","","","","","",""
"","","","","","","","","","","","html-button-response","269","2.0.0","459183","67097f0092142ae824cb6afa","2","13","1150","","","","","","","","","<img src= ""rock_img/I_Pumice_05.jpg"" style=""width:8cm; height:7.25cm;""><p>What type of rock is this?</p>","7","class_response","1","test","33","Pumice","Pumice","05","true","8","8","",""
"","","","","","","","","","","","html-keyboard-response","270","2.0.0","459699","67097f0092142ae824cb6afa","2","13","null","","","","","","","","","<p style='font-size: 30px;'><strong>Okay</strong></p>","null","neutral_feedback","1","test","33","","","","","","","",""
"","","","","","","","","","","","html-button-response","271","2.0.0","461813","67097f0092142ae824cb6afa","2","13","2112","","","","","","","","","<img src= ""rock_img/I_Gabbro_08.jpg"" style=""width:8cm; height:5.15cm;""><p>What type of rock is this?</p>","0","class_response","1","test","34","Andesite","Gabbro","08","false","1","4","",""
"","","","","","","","","","","","html-keyboard-response","272","2.0.0","462324","67097f0092142ae824cb6afa","2","13","null","","","","","","","","","<p style='font-size: 30px;'><strong>Okay</strong></p>","null","neutral_feedback","1","test","34","","","","","","","",""
"","","","","","","","","","","","html-button-response","273","2.0.0","464281","67097f0092142ae824cb6afa","2","13","1956","","","","","","","","","<img src= ""rock_img/I_Pumice_04.jpg"" style=""width:8cm; height:6.819999999999999cm;""><p>What type of rock is this?</p>","7","class_response","1","test","35","Pumice","Pumice","04","true","8","8","",""
"","","","","","","","","","","","html-keyboard-response","274","2.0.0","464783","67097f0092142ae824cb6afa","2","13","null","","","","","","","","","<p style='font-size: 30px;'><strong>Okay</strong></p>","null","neutral_feedback","1","test","35","","","","","","","",""
"","","","","","","","","","","","html-button-response","275","2.0.0","466835","67097f0092142ae824cb6afa","2","13","2051","","","","","","","","","<img src= ""rock_img/I_Andesite_02.jpg"" style=""width:8cm; height:8.5cm;""><p>What type of rock is this?</p>","3","class_response","1","test","36","Gabbro","Andesite","02","false","4","1","",""
"","","","","","","","","","","","html-keyboard-response","276","2.0.0","467336","67097f0092142ae824cb6afa","2","13","null","","","","","","","","","<p style='font-size: 30px;'><strong>Okay</strong></p>","null","neutral_feedback","1","test","36","","","","","","","",""
"","","","","","","","","","","","html-button-response","277","2.0.0","468629","67097f0092142ae824cb6afa","2","13","1290","","","","","","","","","<img src= ""rock_img/I_Gabbro_10.jpg"" style=""width:8cm; height:5.680000000000001cm;""><p>What type of rock is this?</p>","1","class_response","1","test","37","Basalt","Gabbro","10","false","2","4","",""
"","","","","","","","","","","","html-keyboard-response","278","2.0.0","469140","67097f0092142ae824cb6afa","2","13","null","","","","","","","","","<p style='font-size: 30px;'><strong>Okay</strong></p>","null","neutral_feedback","1","test","37","","","","","","","",""
"","","","","","","","","","","","html-button-response","279","2.0.0","470739","67097f0092142ae824cb6afa","2","13","1598","","","","","","","","","<img src= ""rock_img/I_Pumice_15.jpg"" style=""width:8cm; height:7.86cm;""><p>What type of rock is this?</p>","7","class_response","1","test","38","Pumice","Pumice","15","true","8","8","",""
"","","","","","","","","","","","html-keyboard-response","280","2.0.0","471243","67097f0092142ae824cb6afa","2","13","null","","","","","","","","","<p style='font-size: 30px;'><strong>Okay</strong></p>","null","neutral_feedback","1","test","38","","","","","","","",""
"","","","","","","","","","","","html-button-response","281","2.0.0","473511","67097f0092142ae824cb6afa","2","13","2266","","","","","","","","","<img src= ""rock_img/I_Gabbro_12.jpg"" style=""width:8cm; height:7.800000000000001cm;""><p>What type of rock is this?</p>","0","class_response","1","test","39","Andesite","Gabbro","12","false","1","4","",""
"","","","","","","","","","","","html-keyboard-response","282","2.0.0","474015","67097f0092142ae824cb6afa","2","13","null","","","","","","","","","<p style='font-size: 30px;'><strong>Okay</strong></p>","null","neutral_feedback","1","test","39","","","","","","","",""
"","","","","","","","","","","","html-button-response","283","2.0.0","475467","67097f0092142ae824cb6afa","2","13","1450","","","","","","","","","<img src= ""rock_img/I_Pumice_16.jpg"" style=""width:8cm; height:6.79cm;""><p>What type of rock is this?</p>","7","class_response","1","test","40","Pumice","Pumice","16","true","8","8","",""
"","","","","","","","","","","","html-keyboard-response","284","2.0.0","475969","67097f0092142ae824cb6afa","2","13","null","","","","","","","","","<p style='font-size: 30px;'><strong>Okay</strong></p>","null","neutral_feedback","1","test","40","","","","","","","",""
"","","","","","","","","","","","html-button-response","285","2.0.0","477105","67097f0092142ae824cb6afa","2","13","1134","","","","","","","","","<img src= ""rock_img/I_Andesite_16.jpg"" style=""width:8cm; height:6.010000000000001cm;""><p>What type of rock is this?</p>","2","class_response","1","test","41","Diorite","Andesite","16","false","3","1","",""
"","","","","","","","","","","","html-keyboard-response","286","2.0.0","477612","67097f0092142ae824cb6afa","2","13","null","","","","","","","","","<p style='font-size: 30px;'><strong>Okay</strong></p>","null","neutral_feedback","1","test","41","","","","","","","",""
"","","","","","","","","","","","html-button-response","287","2.0.0","478649","67097f0092142ae824cb6afa","2","13","1035","","","","","","","","","<img src= ""rock_img/I_Diorite_16.jpg"" style=""width:8cm; height:6.74cm;""><p>What type of rock is this?</p>","2","class_response","1","test","42","Diorite","Diorite","16","true","3","3","",""
"","","","","","","","","","","","html-keyboard-response","288","2.0.0","479156","67097f0092142ae824cb6afa","2","13","null","","","","","","","","","<p style='font-size: 30px;'><strong>Okay</strong></p>","null","neutral_feedback","1","test","42","","","","","","","",""
"","","","","","","","","","","","html-button-response","289","2.0.0","482034","67097f0092142ae824cb6afa","2","13","2877","","","","","","","","","<img src= ""rock_img/I_Basalt_02.jpg"" style=""width:8cm; height:6.45cm;""><p>What type of rock is this?</p>","1","class_response","1","test","43","Basalt","Basalt","02","true","2","2","",""
"","","","","","","","","","","","html-keyboard-response","290","2.0.0","482546","67097f0092142ae824cb6afa","2","13","null","","","","","","","","","<p style='font-size: 30px;'><strong>Okay</strong></p>","null","neutral_feedback","1","test","43","","","","","","","",""
"","","","","","","","","","","","html-button-response","291","2.0.0","484906","67097f0092142ae824cb6afa","2","13","2359","","","","","","","","","<img src= ""rock_img/I_Pumice_06.jpg"" style=""width:8cm; height:6.9399999999999995cm;""><p>What type of rock is this?</p>","7","class_response","1","test","44","Pumice","Pumice","06","true","8","8","",""
"","","","","","","","","","","","html-keyboard-response","292","2.0.0","485422","67097f0092142ae824cb6afa","2","13","null","","","","","","","","","<p style='font-size: 30px;'><strong>Okay</strong></p>","null","neutral_feedback","1","test","44","","","","","","","",""
"","","","","","","","","","","","html-button-response","293","2.0.0","486574","67097f0092142ae824cb6afa","2","13","1150","","","","","","","","","<img src= ""rock_img/I_Pegmatite_05.jpg"" style=""width:8cm; height:7.300000000000001cm;""><p>What type of rock is this?</p>","4","class_response","1","test","45","Obsidian","Pegmatite","05","false","5","6","",""
"","","","","","","","","","","","html-keyboard-response","294","2.0.0","487075","67097f0092142ae824cb6afa","2","13","null","","","","","","","","","<p style='font-size: 30px;'><strong>Okay</strong></p>","null","neutral_feedback","1","test","45","","","","","","","",""
"","","","","","","","","","","","html-button-response","295","2.0.0","488579","67097f0092142ae824cb6afa","2","13","1502","","","","","","","","","<img src= ""rock_img/I_Andesite_05.jpg"" style=""width:8cm; height:4.12cm;""><p>What type of rock is this?</p>","2","class_response","1","test","46","Diorite","Andesite","05","false","3","1","",""
"","","","","","","","","","","","html-keyboard-response","296","2.0.0","489080","67097f0092142ae824cb6afa","2","13","null","","","","","","","","","<p style='font-size: 30px;'><strong>Okay</strong></p>","null","neutral_feedback","1","test","46","","","","","","","",""
"","","","","","","","","","","","html-button-response","297","2.0.0","490610","67097f0092142ae824cb6afa","2","13","1528","","","","","","","","","<img src= ""rock_img/I_Diorite_06.jpg"" style=""width:8cm; height:6.03cm;""><p>What type of rock is this?</p>","2","class_response","1","test","47","Diorite","Diorite","06","true","3","3","",""
"","","","","","","","","","","","html-keyboard-response","298","2.0.0","491124","67097f0092142ae824cb6afa","2","13","null","","","","","","","","","<p style='font-size: 30px;'><strong>Okay</strong></p>","null","neutral_feedback","1","test","47","","","","","","","",""
"","","","","","","","","","","","html-button-response","299","2.0.0","492187","67097f0092142ae824cb6afa","2","13","1061","","","","","","","","","<img src= ""rock_img/I_Obsidian_10.jpg"" style=""width:8cm; height:6.260000000000001cm;""><p>What type of rock is this?</p>","4","class_response","1","test","48","Obsidian","Obsidian","10","true","5","5","",""
"","","","","","","","","","","","html-keyboard-response","300","2.0.0","492688","67097f0092142ae824cb6afa","2","13","null","","","","","","","","","<p style='font-size: 30px;'><strong>Okay</strong></p>","null","neutral_feedback","1","test","48","","","","","","","",""
"","","","","","","","","","","","html-button-response","301","2.0.0","508344","67097f0092142ae824cb6afa","2","13","","","","","","","","","","","","cycle_feedback","","","","","","","","","","7250.699999988079","8401.400000035763"
"","","","","","","","","","","","html-button-response","303","2.0.0","510634","67097f0092142ae824cb6afa","2","13","2289","","","","","","","","","","0","start_train","","","","","","","","","","",""
"","","","","","","","","","","","html-button-response","304","2.0.0","513787","67097f0092142ae824cb6afa","2","13","3150","","","","","","","","","<img src= ""rock_img/I_Pegmatite_12.jpg"" style=""width:8cm; height:5.7cm;""><p>What type of rock is this?</p>","2","class_response","2","train","1","Diorite","Pegmatite","12","false","3","6","",""
