"width","height","webaudio","browser","browser_version","mobile","os","fullscreen","vsync_rate","webcam","microphone","trial_type","trial_index","plugin_version","time_elapsed","subjID","condition","stimID","rt","url","success","value","timeout","failed_images","failed_audio","failed_video","view_history","stimulus","response","trialType","cycle","phase","trial","resp","cat","token","corr","resp_num","cat_num","time_fb1","time_fb2"
"2048","1064","true","chrome","131.0.0","false","Windows 10","true","169.06","true","true","browser-check","0","2.0.0","360","663922bf1ff7589784c76f51","2","18","","","","","","","","","","","","","","","","","","","","","","",""
"","","","","","","","","","","","external-html","1","2.0.0","18641","663922bf1ff7589784c76f51","2","18","18202","consent_form.html","","","","","","","","","","","","","","","","","","","","",""
"","","","","","","","","","","","fullscreen","2","2.0.0","21671","663922bf1ff7589784c76f51","2","18","2023","","true","","","","","","","","","","","","","","","","","","","",""
"","","","","","","","","","","","call-function","3","2.0.0","21672","663922bf1ff7589784c76f51","2","18","","","","{}","","","","","","","","","","","","","","","","","","",""
"","","","","","","","","","","","preload","4","2.0.0","24501","663922bf1ff7589784c76f51","2","18","","","true","","false","[]","[]","[]","","","","","","","","","","","","","","",""
"","","","","","","","","","","","instructions","5","2.0.0","55480","663922bf1ff7589784c76f51","2","18","30979","","","","","","","","[{""page_index"":0,""viewing_time"":8673},{""page_index"":1,""viewing_time"":10176},{""page_index"":2,""viewing_time"":12130}]","","","","","","","","","","","","","",""
"","","","","","","","","","","","html-button-response","6","2.0.0","58018","663922bf1ff7589784c76f51","2","18","2537","","","","","","","","","","0","start_test","","","","","","","","","","",""
"","","","","","","","","","","","html-button-response","7","2.0.0","63970","663922bf1ff7589784c76f51","2","18","5951","","","","","","","","","<img src= ""rock_img/I_Andesite_07.jpg"" style=""width:8cm; height:5.93cm;""><p>What type of rock is this?</p>","2","class_response","0","test","1","Diorite","Andesite","07","false","3","1","",""
"","","","","","","","","","","","html-keyboard-response","8","2.0.0","64483","663922bf1ff7589784c76f51","2","18","null","","","","","","","","","<p style='font-size: 30px;'><strong>Okay</strong></p>","null","neutral_feedback","0","test","1","","","","","","","",""
"","","","","","","","","","","","html-button-response","9","2.0.0","68099","663922bf1ff7589784c76f51","2","18","3615","","","","","","","","","<img src= ""rock_img/I_Peridotite_05.jpg"" style=""width:8cm; height:7.1499999999999995cm;""><p>What type of rock is this?</p>","7","class_response","0","test","2","Pumice","Peridotite","05","false","8","7","",""
"","","","","","","","","","","","html-keyboard-response","10","2.0.0","68613","663922bf1ff7589784c76f51","2","18","null","","","","","","","","","<p style='font-size: 30px;'><strong>Okay</strong></p>","null","neutral_feedback","0","test","2","","","","","","","",""
"","","","","","","","","","","","html-button-response","11","2.0.0","74880","663922bf1ff7589784c76f51","2","18","6267","","","","","","","","","<img src= ""rock_img/I_Diorite_09.jpg"" style=""width:8cm; height:5.27cm;""><p>What type of rock is this?</p>","0","class_response","0","test","3","Andesite","Diorite","09","false","1","3","",""
"","","","","","","","","","","","html-keyboard-response","12","2.0.0","75395","663922bf1ff7589784c76f51","2","18","null","","","","","","","","","<p style='font-size: 30px;'><strong>Okay</strong></p>","null","neutral_feedback","0","test","3","","","","","","","",""
"","","","","","","","","","","","html-button-response","13","2.0.0","79984","663922bf1ff7589784c76f51","2","18","4588","","","","","","","","","<img src= ""rock_img/I_Peridotite_15.jpg"" style=""width:8cm; height:6cm;""><p>What type of rock is this?</p>","6","class_response","0","test","4","Peridotite","Peridotite","15","true","7","7","",""
"","","","","","","","","","","","html-keyboard-response","14","2.0.0","80496","663922bf1ff7589784c76f51","2","18","null","","","","","","","","","<p style='font-size: 30px;'><strong>Okay</strong></p>","null","neutral_feedback","0","test","4","","","","","","","",""
"","","","","","","","","","","","html-button-response","15","2.0.0","88340","663922bf1ff7589784c76f51","2","18","7844","","","","","","","","","<img src= ""rock_img/I_Diorite_16.jpg"" style=""width:8cm; height:6.74cm;""><p>What type of rock is this?</p>","7","class_response","0","test","5","Pumice","Diorite","16","false","8","3","",""
"","","","","","","","","","","","html-keyboard-response","16","2.0.0","88841","663922bf1ff7589784c76f51","2","18","null","","","","","","","","","<p style='font-size: 30px;'><strong>Okay</strong></p>","null","neutral_feedback","0","test","5","","","","","","","",""
"","","","","","","","","","","","html-button-response","17","2.0.0","92653","663922bf1ff7589784c76f51","2","18","3812","","","","","","","","","<img src= ""rock_img/I_Andesite_03.jpg"" style=""width:8cm; height:5.73cm;""><p>What type of rock is this?</p>","5","class_response","0","test","6","Pegmatite","Andesite","03","false","6","1","",""
"","","","","","","","","","","","html-keyboard-response","18","2.0.0","93168","663922bf1ff7589784c76f51","2","18","null","","","","","","","","","<p style='font-size: 30px;'><strong>Okay</strong></p>","null","neutral_feedback","0","test","6","","","","","","","",""
"","","","","","","","","","","","html-button-response","19","2.0.0","96467","663922bf1ff7589784c76f51","2","18","3298","","","","","","","","","<img src= ""rock_img/I_Gabbro_12.jpg"" style=""width:8cm; height:7.800000000000001cm;""><p>What type of rock is this?</p>","1","class_response","0","test","7","Basalt","Gabbro","12","false","2","4","",""
"","","","","","","","","","","","html-keyboard-response","20","2.0.0","96968","663922bf1ff7589784c76f51","2","18","null","","","","","","","","","<p style='font-size: 30px;'><strong>Okay</strong></p>","null","neutral_feedback","0","test","7","","","","","","","",""
"","","","","","","","","","","","html-button-response","21","2.0.0","98782","663922bf1ff7589784c76f51","2","18","1814","","","","","","","","","<img src= ""rock_img/I_Peridotite_04.jpg"" style=""width:8cm; height:6.680000000000001cm;""><p>What type of rock is this?</p>","3","class_response","0","test","8","Gabbro","Peridotite","04","false","4","7","",""
"","","","","","","","","","","","html-keyboard-response","22","2.0.0","99283","663922bf1ff7589784c76f51","2","18","null","","","","","","","","","<p style='font-size: 30px;'><strong>Okay</strong></p>","null","neutral_feedback","0","test","8","","","","","","","",""
"","","","","","","","","","","","html-button-response","23","2.0.0","101537","663922bf1ff7589784c76f51","2","18","2254","","","","","","","","","<img src= ""rock_img/I_Gabbro_11.jpg"" style=""width:8cm; height:6.2cm;""><p>What type of rock is this?</p>","1","class_response","0","test","9","Basalt","Gabbro","11","false","2","4","",""
"","","","","","","","","","","","html-keyboard-response","24","2.0.0","102038","663922bf1ff7589784c76f51","2","18","null","","","","","","","","","<p style='font-size: 30px;'><strong>Okay</strong></p>","null","neutral_feedback","0","test","9","","","","","","","",""
"","","","","","","","","","","","html-button-response","25","2.0.0","103660","663922bf1ff7589784c76f51","2","18","1621","","","","","","","","","<img src= ""rock_img/I_Peridotite_16.jpg"" style=""width:8cm; height:6.989999999999999cm;""><p>What type of rock is this?</p>","6","class_response","0","test","10","Peridotite","Peridotite","16","true","7","7","",""
"","","","","","","","","","","","html-keyboard-response","26","2.0.0","104172","663922bf1ff7589784c76f51","2","18","null","","","","","","","","","<p style='font-size: 30px;'><strong>Okay</strong></p>","null","neutral_feedback","0","test","10","","","","","","","",""
"","","","","","","","","","","","html-button-response","27","2.0.0","106084","663922bf1ff7589784c76f51","2","18","1911","","","","","","","","","<img src= ""rock_img/I_Pegmatite_11.jpg"" style=""width:8cm; height:8.14cm;""><p>What type of rock is this?</p>","4","class_response","0","test","11","Obsidian","Pegmatite","11","false","5","6","",""
"","","","","","","","","","","","html-keyboard-response","28","2.0.0","106599","663922bf1ff7589784c76f51","2","18","null","","","","","","","","","<p style='font-size: 30px;'><strong>Okay</strong></p>","null","neutral_feedback","0","test","11","","","","","","","",""
"","","","","","","","","","","","html-button-response","29","2.0.0","112112","663922bf1ff7589784c76f51","2","18","5512","","","","","","","","","<img src= ""rock_img/I_Pegmatite_09.jpg"" style=""width:8cm; height:4.03cm;""><p>What type of rock is this?</p>","2","class_response","0","test","12","Diorite","Pegmatite","09","false","3","6","",""
"","","","","","","","","","","","html-keyboard-response","30","2.0.0","112617","663922bf1ff7589784c76f51","2","18","null","","","","","","","","","<p style='font-size: 30px;'><strong>Okay</strong></p>","null","neutral_feedback","0","test","12","","","","","","","",""
"","","","","","","","","","","","html-button-response","31","2.0.0","115112","663922bf1ff7589784c76f51","2","18","2495","","","","","","","","","<img src= ""rock_img/I_Andesite_11.jpg"" style=""width:8cm; height:4.92cm;""><p>What type of rock is this?</p>","7","class_response","0","test","13","Pumice","Andesite","11","false","8","1","",""
"","","","","","","","","","","","html-keyboard-response","32","2.0.0","115614","663922bf1ff7589784c76f51","2","18","null","","","","","","","","","<p style='font-size: 30px;'><strong>Okay</strong></p>","null","neutral_feedback","0","test","13","","","","","","","",""
"","","","","","","","","","","","html-button-response","33","2.0.0","116902","663922bf1ff7589784c76f51","2","18","1288","","","","","","","","","<img src= ""rock_img/I_Obsidian_14.jpg"" style=""width:8cm; height:7.64cm;""><p>What type of rock is this?</p>","4","class_response","0","test","14","Obsidian","Obsidian","14","true","5","5","",""
"","","","","","","","","","","","html-keyboard-response","34","2.0.0","117409","663922bf1ff7589784c76f51","2","18","null","","","","","","","","","<p style='font-size: 30px;'><strong>Okay</strong></p>","null","neutral_feedback","0","test","14","","","","","","","",""
"","","","","","","","","","","","html-button-response","35","2.0.0","120325","663922bf1ff7589784c76f51","2","18","2916","","","","","","","","","<img src= ""rock_img/I_Diorite_02.jpg"" style=""width:8cm; height:6.27cm;""><p>What type of rock is this?</p>","2","class_response","0","test","15","Diorite","Diorite","02","true","3","3","",""
"","","","","","","","","","","","html-keyboard-response","36","2.0.0","120841","663922bf1ff7589784c76f51","2","18","null","","","","","","","","","<p style='font-size: 30px;'><strong>Okay</strong></p>","null","neutral_feedback","0","test","15","","","","","","","",""
"","","","","","","","","","","","html-button-response","37","2.0.0","122213","663922bf1ff7589784c76f51","2","18","1371","","","","","","","","","<img src= ""rock_img/I_Obsidian_06.jpg"" style=""width:8cm; height:6.8cm;""><p>What type of rock is this?</p>","5","class_response","0","test","16","Pegmatite","Obsidian","06","false","6","5","",""
"","","","","","","","","","","","html-keyboard-response","38","2.0.0","122714","663922bf1ff7589784c76f51","2","18","null","","","","","","","","","<p style='font-size: 30px;'><strong>Okay</strong></p>","null","neutral_feedback","0","test","16","","","","","","","",""
"","","","","","","","","","","","html-button-response","39","2.0.0","124641","663922bf1ff7589784c76f51","2","18","1927","","","","","","","","","<img src= ""rock_img/I_Basalt_04.jpg"" style=""width:8cm; height:7.53cm;""><p>What type of rock is this?</p>","1","class_response","0","test","17","Basalt","Basalt","04","true","2","2","",""
"","","","","","","","","","","","html-keyboard-response","40","2.0.0","125150","663922bf1ff7589784c76f51","2","18","null","","","","","","","","","<p style='font-size: 30px;'><strong>Okay</strong></p>","null","neutral_feedback","0","test","17","","","","","","","",""
"","","","","","","","","","","","html-button-response","41","2.0.0","126191","663922bf1ff7589784c76f51","2","18","1041","","","","","","","","","<img src= ""rock_img/I_Obsidian_16.jpg"" style=""width:8cm; height:9.3cm;""><p>What type of rock is this?</p>","4","class_response","0","test","18","Obsidian","Obsidian","16","true","5","5","",""
"","","","","","","","","","","","html-keyboard-response","42","2.0.0","126704","663922bf1ff7589784c76f51","2","18","null","","","","","","","","","<p style='font-size: 30px;'><strong>Okay</strong></p>","null","neutral_feedback","0","test","18","","","","","","","",""
"","","","","","","","","","","","html-button-response","43","2.0.0","130448","663922bf1ff7589784c76f51","2","18","3744","","","","","","","","","<img src= ""rock_img/I_Pegmatite_15.jpg"" style=""width:8cm; height:6cm;""><p>What type of rock is this?</p>","2","class_response","0","test","19","Diorite","Pegmatite","15","false","3","6","",""
"","","","","","","","","","","","html-keyboard-response","44","2.0.0","130958","663922bf1ff7589784c76f51","2","18","null","","","","","","","","","<p style='font-size: 30px;'><strong>Okay</strong></p>","null","neutral_feedback","0","test","19","","","","","","","",""
"","","","","","","","","","","","html-button-response","45","2.0.0","133431","663922bf1ff7589784c76f51","2","18","2472","","","","","","","","","<img src= ""rock_img/I_Basalt_16.jpg"" style=""width:8cm; height:7.659999999999999cm;""><p>What type of rock is this?</p>","7","class_response","0","test","20","Pumice","Basalt","16","false","8","2","",""
"","","","","","","","","","","","html-keyboard-response","46","2.0.0","133945","663922bf1ff7589784c76f51","2","18","null","","","","","","","","","<p style='font-size: 30px;'><strong>Okay</strong></p>","null","neutral_feedback","0","test","20","","","","","","","",""
"","","","","","","","","","","","html-button-response","47","2.0.0","138566","663922bf1ff7589784c76f51","2","18","4620","","","","","","","","","<img src= ""rock_img/I_Gabbro_09.jpg"" style=""width:8cm; height:7.279999999999999cm;""><p>What type of rock is this?</p>","4","class_response","0","test","21","Obsidian","Gabbro","09","false","5","4","",""
"","","","","","","","","","","","html-keyboard-response","48","2.0.0","139072","663922bf1ff7589784c76f51","2","18","null","","","","","","","","","<p style='font-size: 30px;'><strong>Okay</strong></p>","null","neutral_feedback","0","test","21","","","","","","","",""
"","","","","","","","","","","","html-button-response","49","2.0.0","140854","663922bf1ff7589784c76f51","2","18","1782","","","","","","","","","<img src= ""rock_img/I_Andesite_05.jpg"" style=""width:8cm; height:4.12cm;""><p>What type of rock is this?</p>","2","class_response","0","test","22","Diorite","Andesite","05","false","3","1","",""
"","","","","","","","","","","","html-keyboard-response","50","2.0.0","141362","663922bf1ff7589784c76f51","2","18","null","","","","","","","","","<p style='font-size: 30px;'><strong>Okay</strong></p>","null","neutral_feedback","0","test","22","","","","","","","",""
"","","","","","","","","","","","html-button-response","51","2.0.0","143789","663922bf1ff7589784c76f51","2","18","2427","","","","","","","","","<img src= ""rock_img/I_Pumice_15.jpg"" style=""width:8cm; height:7.86cm;""><p>What type of rock is this?</p>","3","class_response","0","test","23","Gabbro","Pumice","15","false","4","8","",""
"","","","","","","","","","","","html-keyboard-response","52","2.0.0","144290","663922bf1ff7589784c76f51","2","18","null","","","","","","","","","<p style='font-size: 30px;'><strong>Okay</strong></p>","null","neutral_feedback","0","test","23","","","","","","","",""
"","","","","","","","","","","","html-button-response","53","2.0.0","146179","663922bf1ff7589784c76f51","2","18","1888","","","","","","","","","<img src= ""rock_img/I_Diorite_13.jpg"" style=""width:8cm; height:6.29cm;""><p>What type of rock is this?</p>","0","class_response","0","test","24","Andesite","Diorite","13","false","1","3","",""
"","","","","","","","","","","","html-keyboard-response","54","2.0.0","146686","663922bf1ff7589784c76f51","2","18","null","","","","","","","","","<p style='font-size: 30px;'><strong>Okay</strong></p>","null","neutral_feedback","0","test","24","","","","","","","",""
"","","","","","","","","","","","html-button-response","55","2.0.0","147902","663922bf1ff7589784c76f51","2","18","1216","","","","","","","","","<img src= ""rock_img/I_Basalt_05.jpg"" style=""width:8cm; height:8.18cm;""><p>What type of rock is this?</p>","1","class_response","0","test","25","Basalt","Basalt","05","true","2","2","",""
"","","","","","","","","","","","html-keyboard-response","56","2.0.0","148403","663922bf1ff7589784c76f51","2","18","null","","","","","","","","","<p style='font-size: 30px;'><strong>Okay</strong></p>","null","neutral_feedback","0","test","25","","","","","","","",""
"","","","","","","","","","","","html-button-response","57","2.0.0","150309","663922bf1ff7589784c76f51","2","18","1906","","","","","","","","","<img src= ""rock_img/I_Pegmatite_05.jpg"" style=""width:8cm; height:7.300000000000001cm;""><p>What type of rock is this?</p>","2","class_response","0","test","26","Diorite","Pegmatite","05","false","3","6","",""
"","","","","","","","","","","","html-keyboard-response","58","2.0.0","150811","663922bf1ff7589784c76f51","2","18","null","","","","","","","","","<p style='font-size: 30px;'><strong>Okay</strong></p>","null","neutral_feedback","0","test","26","","","","","","","",""
"","","","","","","","","","","","html-button-response","59","2.0.0","153960","663922bf1ff7589784c76f51","2","18","3148","","","","","","","","","<img src= ""rock_img/I_Pegmatite_06.jpg"" style=""width:8cm; height:5.17cm;""><p>What type of rock is this?</p>","6","class_response","0","test","27","Peridotite","Pegmatite","06","false","7","6","",""
"","","","","","","","","","","","html-keyboard-response","60","2.0.0","154471","663922bf1ff7589784c76f51","2","18","null","","","","","","","","","<p style='font-size: 30px;'><strong>Okay</strong></p>","null","neutral_feedback","0","test","27","","","","","","","",""
"","","","","","","","","","","","html-button-response","61","2.0.0","155482","663922bf1ff7589784c76f51","2","18","1010","","","","","","","","","<img src= ""rock_img/I_Obsidian_02.jpg"" style=""width:8cm; height:7.51cm;""><p>What type of rock is this?</p>","4","class_response","0","test","28","Obsidian","Obsidian","02","true","5","5","",""
"","","","","","","","","","","","html-keyboard-response","62","2.0.0","155989","663922bf1ff7589784c76f51","2","18","null","","","","","","","","","<p style='font-size: 30px;'><strong>Okay</strong></p>","null","neutral_feedback","0","test","28","","","","","","","",""
"","","","","","","","","","","","html-button-response","63","2.0.0","157298","663922bf1ff7589784c76f51","2","18","1309","","","","","","","","","<img src= ""rock_img/I_Gabbro_05.jpg"" style=""width:8cm; height:6cm;""><p>What type of rock is this?</p>","6","class_response","0","test","29","Peridotite","Gabbro","05","false","7","4","",""
"","","","","","","","","","","","html-keyboard-response","64","2.0.0","157810","663922bf1ff7589784c76f51","2","18","null","","","","","","","","","<p style='font-size: 30px;'><strong>Okay</strong></p>","null","neutral_feedback","0","test","29","","","","","","","",""
"","","","","","","","","","","","html-button-response","65","2.0.0","161903","663922bf1ff7589784c76f51","2","18","4093","","","","","","","","","<img src= ""rock_img/I_Pumice_02.jpg"" style=""width:8cm; height:7.3999999999999995cm;""><p>What type of rock is this?</p>","3","class_response","0","test","30","Gabbro","Pumice","02","false","4","8","",""
"","","","","","","","","","","","html-keyboard-response","66","2.0.0","162408","663922bf1ff7589784c76f51","2","18","null","","","","","","","","","<p style='font-size: 30px;'><strong>Okay</strong></p>","null","neutral_feedback","0","test","30","","","","","","","",""
"","","","","","","","","","","","html-button-response","67","2.0.0","164065","663922bf1ff7589784c76f51","2","18","1657","","","","","","","","","<img src= ""rock_img/I_Pegmatite_07.jpg"" style=""width:8cm; height:6.7cm;""><p>What type of rock is this?</p>","2","class_response","0","test","31","Diorite","Pegmatite","07","false","3","6","",""
"","","","","","","","","","","","html-keyboard-response","68","2.0.0","164566","663922bf1ff7589784c76f51","2","18","null","","","","","","","","","<p style='font-size: 30px;'><strong>Okay</strong></p>","null","neutral_feedback","0","test","31","","","","","","","",""
"","","","","","","","","","","","html-button-response","69","2.0.0","165785","663922bf1ff7589784c76f51","2","18","1219","","","","","","","","","<img src= ""rock_img/I_Basalt_06.jpg"" style=""width:8cm; height:7.06cm;""><p>What type of rock is this?</p>","1","class_response","0","test","32","Basalt","Basalt","06","true","2","2","",""
"","","","","","","","","","","","html-keyboard-response","70","2.0.0","166291","663922bf1ff7589784c76f51","2","18","null","","","","","","","","","<p style='font-size: 30px;'><strong>Okay</strong></p>","null","neutral_feedback","0","test","32","","","","","","","",""
"","","","","","","","","","","","html-button-response","71","2.0.0","167126","663922bf1ff7589784c76f51","2","18","834","","","","","","","","","<img src= ""rock_img/I_Basalt_02.jpg"" style=""width:8cm; height:6.45cm;""><p>What type of rock is this?</p>","1","class_response","0","test","33","Basalt","Basalt","02","true","2","2","",""
"","","","","","","","","","","","html-keyboard-response","72","2.0.0","167641","663922bf1ff7589784c76f51","2","18","null","","","","","","","","","<p style='font-size: 30px;'><strong>Okay</strong></p>","null","neutral_feedback","0","test","33","","","","","","","",""
"","","","","","","","","","","","html-button-response","73","2.0.0","169824","663922bf1ff7589784c76f51","2","18","2182","","","","","","","","","<img src= ""rock_img/I_Peridotite_07.jpg"" style=""width:8cm; height:4.83cm;""><p>What type of rock is this?</p>","6","class_response","0","test","34","Peridotite","Peridotite","07","true","7","7","",""
"","","","","","","","","","","","html-keyboard-response","74","2.0.0","170326","663922bf1ff7589784c76f51","2","18","null","","","","","","","","","<p style='font-size: 30px;'><strong>Okay</strong></p>","null","neutral_feedback","0","test","34","","","","","","","",""
"","","","","","","","","","","","html-button-response","75","2.0.0","172860","663922bf1ff7589784c76f51","2","18","2533","","","","","","","","","<img src= ""rock_img/I_Obsidian_07.jpg"" style=""width:8cm; height:4.76cm;""><p>What type of rock is this?</p>","5","class_response","0","test","35","Pegmatite","Obsidian","07","false","6","5","",""
"","","","","","","","","","","","html-keyboard-response","76","2.0.0","173362","663922bf1ff7589784c76f51","2","18","null","","","","","","","","","<p style='font-size: 30px;'><strong>Okay</strong></p>","null","neutral_feedback","0","test","35","","","","","","","",""
"","","","","","","","","","","","html-button-response","77","2.0.0","174317","663922bf1ff7589784c76f51","2","18","955","","","","","","","","","<img src= ""rock_img/I_Basalt_09.jpg"" style=""width:8cm; height:6.2cm;""><p>What type of rock is this?</p>","1","class_response","0","test","36","Basalt","Basalt","09","true","2","2","",""
"","","","","","","","","","","","html-keyboard-response","78","2.0.0","174824","663922bf1ff7589784c76f51","2","18","null","","","","","","","","","<p style='font-size: 30px;'><strong>Okay</strong></p>","null","neutral_feedback","0","test","36","","","","","","","",""
"","","","","","","","","","","","html-button-response","79","2.0.0","176172","663922bf1ff7589784c76f51","2","18","1348","","","","","","","","","<img src= ""rock_img/I_Obsidian_09.jpg"" style=""width:8cm; height:5cm;""><p>What type of rock is this?</p>","4","class_response","0","test","37","Obsidian","Obsidian","09","true","5","5","",""
"","","","","","","","","","","","html-keyboard-response","80","2.0.0","176675","663922bf1ff7589784c76f51","2","18","null","","","","","","","","","<p style='font-size: 30px;'><strong>Okay</strong></p>","null","neutral_feedback","0","test","37","","","","","","","",""
"","","","","","","","","","","","html-button-response","81","2.0.0","180314","663922bf1ff7589784c76f51","2","18","3638","","","","","","","","","<img src= ""rock_img/I_Pumice_06.jpg"" style=""width:8cm; height:6.9399999999999995cm;""><p>What type of rock is this?</p>","3","class_response","0","test","38","Gabbro","Pumice","06","false","4","8","",""
"","","","","","","","","","","","html-keyboard-response","82","2.0.0","180820","663922bf1ff7589784c76f51","2","18","null","","","","","","","","","<p style='font-size: 30px;'><strong>Okay</strong></p>","null","neutral_feedback","0","test","38","","","","","","","",""
"","","","","","","","","","","","html-button-response","83","2.0.0","182395","663922bf1ff7589784c76f51","2","18","1575","","","","","","","","","<img src= ""rock_img/I_Andesite_02.jpg"" style=""width:8cm; height:8.5cm;""><p>What type of rock is this?</p>","4","class_response","0","test","39","Obsidian","Andesite","02","false","5","1","",""
"","","","","","","","","","","","html-keyboard-response","84","2.0.0","182899","663922bf1ff7589784c76f51","2","18","null","","","","","","","","","<p style='font-size: 30px;'><strong>Okay</strong></p>","null","neutral_feedback","0","test","39","","","","","","","",""
"","","","","","","","","","","","html-button-response","85","2.0.0","185958","663922bf1ff7589784c76f51","2","18","3059","","","","","","","","","<img src= ""rock_img/I_Gabbro_10.jpg"" style=""width:8cm; height:5.680000000000001cm;""><p>What type of rock is this?</p>","1","class_response","0","test","40","Basalt","Gabbro","10","false","2","4","",""
"","","","","","","","","","","","html-keyboard-response","86","2.0.0","186464","663922bf1ff7589784c76f51","2","18","null","","","","","","","","","<p style='font-size: 30px;'><strong>Okay</strong></p>","null","neutral_feedback","0","test","40","","","","","","","",""
"","","","","","","","","","","","html-button-response","87","2.0.0","187533","663922bf1ff7589784c76f51","2","18","1069","","","","","","","","","<img src= ""rock_img/I_Gabbro_15.jpg"" style=""width:8cm; height:6.29cm;""><p>What type of rock is this?</p>","0","class_response","0","test","41","Andesite","Gabbro","15","false","1","4","",""
"","","","","","","","","","","","html-keyboard-response","88","2.0.0","188034","663922bf1ff7589784c76f51","2","18","null","","","","","","","","","<p style='font-size: 30px;'><strong>Okay</strong></p>","null","neutral_feedback","0","test","41","","","","","","","",""
"","","","","","","","","","","","html-button-response","89","2.0.0","189143","663922bf1ff7589784c76f51","2","18","1109","","","","","","","","","<img src= ""rock_img/I_Peridotite_02.jpg"" style=""width:8cm; height:5.859999999999999cm;""><p>What type of rock is this?</p>","6","class_response","0","test","42","Peridotite","Peridotite","02","true","7","7","",""
"","","","","","","","","","","","html-keyboard-response","90","2.0.0","189659","663922bf1ff7589784c76f51","2","18","null","","","","","","","","","<p style='font-size: 30px;'><strong>Okay</strong></p>","null","neutral_feedback","0","test","42","","","","","","","",""
"","","","","","","","","","","","html-button-response","91","2.0.0","191449","663922bf1ff7589784c76f51","2","18","1789","","","","","","","","","<img src= ""rock_img/I_Diorite_08.jpg"" style=""width:8cm; height:6.37cm;""><p>What type of rock is this?</p>","2","class_response","0","test","43","Diorite","Diorite","08","true","3","3","",""
"","","","","","","","","","","","html-keyboard-response","92","2.0.0","191950","663922bf1ff7589784c76f51","2","18","null","","","","","","","","","<p style='font-size: 30px;'><strong>Okay</strong></p>","null","neutral_feedback","0","test","43","","","","","","","",""
"","","","","","","","","","","","html-button-response","93","2.0.0","193506","663922bf1ff7589784c76f51","2","18","1555","","","","","","","","","<img src= ""rock_img/I_Pumice_05.jpg"" style=""width:8cm; height:7.25cm;""><p>What type of rock is this?</p>","7","class_response","0","test","44","Pumice","Pumice","05","true","8","8","",""
"","","","","","","","","","","","html-keyboard-response","94","2.0.0","194011","663922bf1ff7589784c76f51","2","18","null","","","","","","","","","<p style='font-size: 30px;'><strong>Okay</strong></p>","null","neutral_feedback","0","test","44","","","","","","","",""
"","","","","","","","","","","","html-button-response","95","2.0.0","196554","663922bf1ff7589784c76f51","2","18","2543","","","","","","","","","<img src= ""rock_img/I_Andesite_16.jpg"" style=""width:8cm; height:6.010000000000001cm;""><p>What type of rock is this?</p>","1","class_response","0","test","45","Basalt","Andesite","16","false","2","1","",""
"","","","","","","","","","","","html-keyboard-response","96","2.0.0","197056","663922bf1ff7589784c76f51","2","18","null","","","","","","","","","<p style='font-size: 30px;'><strong>Okay</strong></p>","null","neutral_feedback","0","test","45","","","","","","","",""
"","","","","","","","","","","","html-button-response","97","2.0.0","199732","663922bf1ff7589784c76f51","2","18","2675","","","","","","","","","<img src= ""rock_img/I_Pumice_13.jpg"" style=""width:8cm; height:8.200000000000001cm;""><p>What type of rock is this?</p>","3","class_response","0","test","46","Gabbro","Pumice","13","false","4","8","",""
"","","","","","","","","","","","html-keyboard-response","98","2.0.0","200234","663922bf1ff7589784c76f51","2","18","null","","","","","","","","","<p style='font-size: 30px;'><strong>Okay</strong></p>","null","neutral_feedback","0","test","46","","","","","","","",""
"","","","","","","","","","","","html-button-response","99","2.0.0","203621","663922bf1ff7589784c76f51","2","18","3387","","","","","","","","","<img src= ""rock_img/I_Diorite_14.jpg"" style=""width:8cm; height:5.71cm;""><p>What type of rock is this?</p>","2","class_response","0","test","47","Diorite","Diorite","14","true","3","3","",""
"","","","","","","","","","","","html-keyboard-response","100","2.0.0","204130","663922bf1ff7589784c76f51","2","18","null","","","","","","","","","<p style='font-size: 30px;'><strong>Okay</strong></p>","null","neutral_feedback","0","test","47","","","","","","","",""
"","","","","","","","","","","","html-button-response","101","2.0.0","208506","663922bf1ff7589784c76f51","2","18","4376","","","","","","","","","<img src= ""rock_img/I_Pumice_16.jpg"" style=""width:8cm; height:6.79cm;""><p>What type of rock is this?</p>","7","class_response","0","test","48","Pumice","Pumice","16","true","8","8","",""
"","","","","","","","","","","","html-keyboard-response","102","2.0.0","209016","663922bf1ff7589784c76f51","2","18","null","","","","","","","","","<p style='font-size: 30px;'><strong>Okay</strong></p>","null","neutral_feedback","0","test","48","","","","","","","",""
"","","","","","","","","","","","instructions","103","2.0.0","239136","663922bf1ff7589784c76f51","2","18","30111","","","","","","","","[{""page_index"":0,""viewing_time"":16278},{""page_index"":1,""viewing_time"":4449},{""page_index"":2,""viewing_time"":9384}]","","","","","","","","","","","","","",""
"","","","","","","","","","","","html-button-response","104","2.0.0","240986","663922bf1ff7589784c76f51","2","18","1849","","","","","","","","","","0","start_train","","","","","","","","","","",""
"","","","","","","","","","","","html-button-response","105","2.0.0","244465","663922bf1ff7589784c76f51","2","18","3479","","","","","","","","","<img src= ""rock_img/I_Diorite_10.jpg"" style=""width:8cm; height:5.949999999999999cm;""><p>What type of rock is this?</p>","2","class_response","1","train","1","Diorite","Diorite","10","true","3","3","",""
"","","","","","","","","","","","html-button-response","106","2.0.0","245724","663922bf1ff7589784c76f51","2","18","1258","","","","","","","","","<img src= rock_img/I_Diorite_10.jpg style=""width:8cm; height:5.949999999999999cm;""><p style='font-size: 30px; color: green;'><strong>Correct!</strong></p><p style='font-size: 30px;'><strong>This rock is diorite</strong></p>","0","corr_feedback","1","train","1","","","","","","","",""
"","","","","","","","","","","","html-button-response","107","2.0.0","248320","663922bf1ff7589784c76f51","2","18","2595","","","","","","","","","<img src= ""rock_img/I_Pumice_04.jpg"" style=""width:8cm; height:6.819999999999999cm;""><p>What type of rock is this?</p>","7","class_response","1","train","2","Pumice","Pumice","04","true","8","8","",""
"","","","","","","","","","","","html-button-response","108","2.0.0","249250","663922bf1ff7589784c76f51","2","18","929","","","","","","","","","<img src= rock_img/I_Pumice_04.jpg style=""width:8cm; height:6.819999999999999cm;""><p style='font-size: 30px; color: green;'><strong>Correct!</strong></p><p style='font-size: 30px;'><strong>This rock is pumice</strong></p>","0","corr_feedback","1","train","2","","","","","","","",""
"","","","","","","","","","","","html-button-response","109","2.0.0","251715","663922bf1ff7589784c76f51","2","18","2465","","","","","","","","","<img src= ""rock_img/I_Gabbro_08.jpg"" style=""width:8cm; height:5.15cm;""><p>What type of rock is this?</p>","3","class_response","1","train","3","Gabbro","Gabbro","08","true","4","4","",""
"","","","","","","","","","","","html-button-response","110","2.0.0","252857","663922bf1ff7589784c76f51","2","18","1141","","","","","","","","","<img src= rock_img/I_Gabbro_08.jpg style=""width:8cm; height:5.15cm;""><p style='font-size: 30px; color: green;'><strong>Correct!</strong></p><p style='font-size: 30px;'><strong>This rock is gabbro</strong></p>","0","corr_feedback","1","train","3","","","","","","","",""
"","","","","","","","","","","","html-button-response","111","2.0.0","257425","663922bf1ff7589784c76f51","2","18","4568","","","","","","","","","<img src= ""rock_img/I_Pumice_08.jpg"" style=""width:8cm; height:6.67cm;""><p>What type of rock is this?</p>","1","class_response","1","train","4","Basalt","Pumice","08","false","2","8","",""
"","","","","","","","","","","","html-button-response","112","2.0.0","258444","663922bf1ff7589784c76f51","2","18","1018","","","","","","","","","<img src= rock_img/I_Pumice_08.jpg style=""width:8cm; height:6.67cm;""><p style='font-size: 30px; color: red;'><strong>Incorrect!</strong></p><p style='font-size: 30px;'><strong>This rock is pumice</strong></p>","0","corr_feedback","1","train","4","","","","","","","",""
"","","","","","","","","","","","html-button-response","113","2.0.0","262033","663922bf1ff7589784c76f51","2","18","3588","","","","","","","","","<img src= ""rock_img/I_Pegmatite_03.jpg"" style=""width:8cm; height:5.239999999999999cm;""><p>What type of rock is this?</p>","6","class_response","1","train","5","Peridotite","Pegmatite","03","false","7","6","",""
"","","","","","","","","","","","html-button-response","114","2.0.0","262998","663922bf1ff7589784c76f51","2","18","965","","","","","","","","","<img src= rock_img/I_Pegmatite_03.jpg style=""width:8cm; height:5.239999999999999cm;""><p style='font-size: 30px; color: red;'><strong>Incorrect!</strong></p><p style='font-size: 30px;'><strong>This rock is pegmatite</strong></p>","0","corr_feedback","1","train","5","","","","","","","",""
"","","","","","","","","","","","html-button-response","115","2.0.0","264302","663922bf1ff7589784c76f51","2","18","1304","","","","","","","","","<img src= ""rock_img/I_Pegmatite_08.jpg"" style=""width:8cm; height:7.68cm;""><p>What type of rock is this?</p>","6","class_response","1","train","6","Peridotite","Pegmatite","08","false","7","6","",""
"","","","","","","","","","","","html-button-response","116","2.0.0","265193","663922bf1ff7589784c76f51","2","18","890","","","","","","","","","<img src= rock_img/I_Pegmatite_08.jpg style=""width:8cm; height:7.68cm;""><p style='font-size: 30px; color: red;'><strong>Incorrect!</strong></p><p style='font-size: 30px;'><strong>This rock is pegmatite</strong></p>","0","corr_feedback","1","train","6","","","","","","","",""
"","","","","","","","","","","","html-button-response","117","2.0.0","267510","663922bf1ff7589784c76f51","2","18","2316","","","","","","","","","<img src= ""rock_img/I_Gabbro_16.jpg"" style=""width:8cm; height:6.44cm;""><p>What type of rock is this?</p>","1","class_response","1","train","7","Basalt","Gabbro","16","false","2","4","",""
"","","","","","","","","","","","html-button-response","118","2.0.0","268285","663922bf1ff7589784c76f51","2","18","775","","","","","","","","","<img src= rock_img/I_Gabbro_16.jpg style=""width:8cm; height:6.44cm;""><p style='font-size: 30px; color: red;'><strong>Incorrect!</strong></p><p style='font-size: 30px;'><strong>This rock is gabbro</strong></p>","0","corr_feedback","1","train","7","","","","","","","",""
"","","","","","","","","","","","html-button-response","119","2.0.0","270016","663922bf1ff7589784c76f51","2","18","1731","","","","","","","","","<img src= ""rock_img/I_Obsidian_08.jpg"" style=""width:8cm; height:7.39cm;""><p>What type of rock is this?</p>","4","class_response","1","train","8","Obsidian","Obsidian","08","true","5","5","",""
"","","","","","","","","","","","html-button-response","120","2.0.0","270668","663922bf1ff7589784c76f51","2","18","652","","","","","","","","","<img src= rock_img/I_Obsidian_08.jpg style=""width:8cm; height:7.39cm;""><p style='font-size: 30px; color: green;'><strong>Correct!</strong></p><p style='font-size: 30px;'><strong>This rock is obsidian</strong></p>","0","corr_feedback","1","train","8","","","","","","","",""
"","","","","","","","","","","","html-button-response","121","2.0.0","272075","663922bf1ff7589784c76f51","2","18","1406","","","","","","","","","<img src= ""rock_img/I_Pegmatite_10.jpg"" style=""width:8cm; height:4.16cm;""><p>What type of rock is this?</p>","6","class_response","1","train","9","Peridotite","Pegmatite","10","false","7","6","",""
"","","","","","","","","","","","html-button-response","122","2.0.0","272866","663922bf1ff7589784c76f51","2","18","791","","","","","","","","","<img src= rock_img/I_Pegmatite_10.jpg style=""width:8cm; height:4.16cm;""><p style='font-size: 30px; color: red;'><strong>Incorrect!</strong></p><p style='font-size: 30px;'><strong>This rock is pegmatite</strong></p>","0","corr_feedback","1","train","9","","","","","","","",""
"","","","","","","","","","","","html-button-response","123","2.0.0","280331","663922bf1ff7589784c76f51","2","18","7464","","","","","","","","","<img src= ""rock_img/I_Gabbro_13.jpg"" style=""width:8cm; height:5.08cm;""><p>What type of rock is this?</p>","6","class_response","1","train","10","Peridotite","Gabbro","13","false","7","4","",""
"","","","","","","","","","","","html-button-response","124","2.0.0","281107","663922bf1ff7589784c76f51","2","18","775","","","","","","","","","<img src= rock_img/I_Gabbro_13.jpg style=""width:8cm; height:5.08cm;""><p style='font-size: 30px; color: red;'><strong>Incorrect!</strong></p><p style='font-size: 30px;'><strong>This rock is gabbro</strong></p>","0","corr_feedback","1","train","10","","","","","","","",""
"","","","","","","","","","","","html-button-response","125","2.0.0","282282","663922bf1ff7589784c76f51","2","18","1174","","","","","","","","","<img src= ""rock_img/I_Obsidian_11.jpg"" style=""width:8cm; height:6.05cm;""><p>What type of rock is this?</p>","4","class_response","1","train","11","Obsidian","Obsidian","11","true","5","5","",""
"","","","","","","","","","","","html-button-response","126","2.0.0","282834","663922bf1ff7589784c76f51","2","18","552","","","","","","","","","<img src= rock_img/I_Obsidian_11.jpg style=""width:8cm; height:6.05cm;""><p style='font-size: 30px; color: green;'><strong>Correct!</strong></p><p style='font-size: 30px;'><strong>This rock is obsidian</strong></p>","0","corr_feedback","1","train","11","","","","","","","",""
"","","","","","","","","","","","html-button-response","127","2.0.0","283787","663922bf1ff7589784c76f51","2","18","952","","","","","","","","","<img src= ""rock_img/I_Gabbro_13.jpg"" style=""width:8cm; height:5.08cm;""><p>What type of rock is this?</p>","3","class_response","1","train","12","Gabbro","Gabbro","13","true","4","4","",""
"","","","","","","","","","","","html-button-response","128","2.0.0","284945","663922bf1ff7589784c76f51","2","18","1158","","","","","","","","","<img src= rock_img/I_Gabbro_13.jpg style=""width:8cm; height:5.08cm;""><p style='font-size: 30px; color: green;'><strong>Correct!</strong></p><p style='font-size: 30px;'><strong>This rock is gabbro</strong></p>","0","corr_feedback","1","train","12","","","","","","","",""
"","","","","","","","","","","","html-button-response","129","2.0.0","287044","663922bf1ff7589784c76f51","2","18","2098","","","","","","","","","<img src= ""rock_img/I_Peridotite_12.jpg"" style=""width:8cm; height:4.54cm;""><p>What type of rock is this?</p>","2","class_response","1","train","13","Diorite","Peridotite","12","false","3","7","",""
"","","","","","","","","","","","html-button-response","130","2.0.0","289120","663922bf1ff7589784c76f51","2","18","2075","","","","","","","","","<img src= rock_img/I_Peridotite_12.jpg style=""width:8cm; height:4.54cm;""><p style='font-size: 30px; color: red;'><strong>Incorrect!</strong></p><p style='font-size: 30px;'><strong>This rock is peridotite</strong></p>","0","corr_feedback","1","train","13","","","","","","","",""
"","","","","","","","","","","","html-button-response","131","2.0.0","293992","663922bf1ff7589784c76f51","2","18","4871","","","","","","","","","<img src= ""rock_img/I_Gabbro_03.jpg"" style=""width:8cm; height:8.52cm;""><p>What type of rock is this?</p>","2","class_response","1","train","14","Diorite","Gabbro","03","false","3","4","",""
"","","","","","","","","","","","html-button-response","132","2.0.0","294936","663922bf1ff7589784c76f51","2","18","943","","","","","","","","","<img src= rock_img/I_Gabbro_03.jpg style=""width:8cm; height:8.52cm;""><p style='font-size: 30px; color: red;'><strong>Incorrect!</strong></p><p style='font-size: 30px;'><strong>This rock is gabbro</strong></p>","0","corr_feedback","1","train","14","","","","","","","",""
"","","","","","","","","","","","html-button-response","133","2.0.0","296964","663922bf1ff7589784c76f51","2","18","2027","","","","","","","","","<img src= ""rock_img/I_Pumice_10.jpg"" style=""width:8cm; height:7.609999999999999cm;""><p>What type of rock is this?</p>","7","class_response","1","train","15","Pumice","Pumice","10","true","8","8","",""
"","","","","","","","","","","","html-button-response","134","2.0.0","298227","663922bf1ff7589784c76f51","2","18","1262","","","","","","","","","<img src= rock_img/I_Pumice_10.jpg style=""width:8cm; height:7.609999999999999cm;""><p style='font-size: 30px; color: green;'><strong>Correct!</strong></p><p style='font-size: 30px;'><strong>This rock is pumice</strong></p>","0","corr_feedback","1","train","15","","","","","","","",""
"","","","","","","","","","","","html-button-response","135","2.0.0","300464","663922bf1ff7589784c76f51","2","18","2236","","","","","","","","","<img src= ""rock_img/I_Pegmatite_10.jpg"" style=""width:8cm; height:4.16cm;""><p>What type of rock is this?</p>","5","class_response","1","train","16","Pegmatite","Pegmatite","10","true","6","6","",""
"","","","","","","","","","","","html-button-response","136","2.0.0","301406","663922bf1ff7589784c76f51","2","18","941","","","","","","","","","<img src= rock_img/I_Pegmatite_10.jpg style=""width:8cm; height:4.16cm;""><p style='font-size: 30px; color: green;'><strong>Correct!</strong></p><p style='font-size: 30px;'><strong>This rock is pegmatite</strong></p>","0","corr_feedback","1","train","16","","","","","","","",""
"","","","","","","","","","","","html-button-response","137","2.0.0","305855","663922bf1ff7589784c76f51","2","18","4448","","","","","","","","","<img src= ""rock_img/I_Andesite_06.jpg"" style=""width:8cm; height:6.840000000000001cm;""><p>What type of rock is this?</p>","0","class_response","1","train","17","Andesite","Andesite","06","true","1","1","",""
"","","","","","","","","","","","html-button-response","138","2.0.0","307072","663922bf1ff7589784c76f51","2","18","1217","","","","","","","","","<img src= rock_img/I_Andesite_06.jpg style=""width:8cm; height:6.840000000000001cm;""><p style='font-size: 30px; color: green;'><strong>Correct!</strong></p><p style='font-size: 30px;'><strong>This rock is andesite</strong></p>","0","corr_feedback","1","train","17","","","","","","","",""
"","","","","","","","","","","","html-button-response","139","2.0.0","308839","663922bf1ff7589784c76f51","2","18","1766","","","","","","","","","<img src= ""rock_img/I_Basalt_08.jpg"" style=""width:8cm; height:10.44cm;""><p>What type of rock is this?</p>","1","class_response","1","train","18","Basalt","Basalt","08","true","2","2","",""
"","","","","","","","","","","","html-button-response","140","2.0.0","309670","663922bf1ff7589784c76f51","2","18","831","","","","","","","","","<img src= rock_img/I_Basalt_08.jpg style=""width:8cm; height:10.44cm;""><p style='font-size: 30px; color: green;'><strong>Correct!</strong></p><p style='font-size: 30px;'><strong>This rock is basalt</strong></p>","0","corr_feedback","1","train","18","","","","","","","",""
"","","","","","","","","","","","html-button-response","141","2.0.0","318406","663922bf1ff7589784c76f51","2","18","8735","","","","","","","","","<img src= ""rock_img/I_Andesite_04.jpg"" style=""width:8cm; height:5.96cm;""><p>What type of rock is this?</p>","3","class_response","1","train","19","Gabbro","Andesite","04","false","4","1","",""
"","","","","","","","","","","","html-button-response","142","2.0.0","319402","663922bf1ff7589784c76f51","2","18","996","","","","","","","","","<img src= rock_img/I_Andesite_04.jpg style=""width:8cm; height:5.96cm;""><p style='font-size: 30px; color: red;'><strong>Incorrect!</strong></p><p style='font-size: 30px;'><strong>This rock is andesite</strong></p>","0","corr_feedback","1","train","19","","","","","","","",""
"","","","","","","","","","","","html-button-response","143","2.0.0","321733","663922bf1ff7589784c76f51","2","18","2330","","","","","","","","","<img src= ""rock_img/I_Peridotite_06.jpg"" style=""width:8cm; height:7.53cm;""><p>What type of rock is this?</p>","5","class_response","1","train","20","Pegmatite","Peridotite","06","false","6","7","",""
"","","","","","","","","","","","html-button-response","144","2.0.0","322584","663922bf1ff7589784c76f51","2","18","850","","","","","","","","","<img src= rock_img/I_Peridotite_06.jpg style=""width:8cm; height:7.53cm;""><p style='font-size: 30px; color: red;'><strong>Incorrect!</strong></p><p style='font-size: 30px;'><strong>This rock is peridotite</strong></p>","0","corr_feedback","1","train","20","","","","","","","",""
"","","","","","","","","","","","html-button-response","145","2.0.0","324099","663922bf1ff7589784c76f51","2","18","1514","","","","","","","","","<img src= ""rock_img/I_Basalt_14.jpg"" style=""width:8cm; height:5.82cm;""><p>What type of rock is this?</p>","7","class_response","1","train","21","Pumice","Basalt","14","false","8","2","",""
"","","","","","","","","","","","html-button-response","146","2.0.0","325070","663922bf1ff7589784c76f51","2","18","970","","","","","","","","","<img src= rock_img/I_Basalt_14.jpg style=""width:8cm; height:5.82cm;""><p style='font-size: 30px; color: red;'><strong>Incorrect!</strong></p><p style='font-size: 30px;'><strong>This rock is basalt</strong></p>","0","corr_feedback","1","train","21","","","","","","","",""
"","","","","","","","","","","","html-button-response","147","2.0.0","327736","663922bf1ff7589784c76f51","2","18","2665","","","","","","","","","<img src= ""rock_img/I_Diorite_11.jpg"" style=""width:8cm; height:7.11cm;""><p>What type of rock is this?</p>","2","class_response","1","train","22","Diorite","Diorite","11","true","3","3","",""
"","","","","","","","","","","","html-button-response","148","2.0.0","328676","663922bf1ff7589784c76f51","2","18","939","","","","","","","","","<img src= rock_img/I_Diorite_11.jpg style=""width:8cm; height:7.11cm;""><p style='font-size: 30px; color: green;'><strong>Correct!</strong></p><p style='font-size: 30px;'><strong>This rock is diorite</strong></p>","0","corr_feedback","1","train","22","","","","","","","",""
"","","","","","","","","","","","html-button-response","149","2.0.0","330715","663922bf1ff7589784c76f51","2","18","2039","","","","","","","","","<img src= ""rock_img/I_Peridotite_10.jpg"" style=""width:8cm; height:5.390000000000001cm;""><p>What type of rock is this?</p>","6","class_response","1","train","23","Peridotite","Peridotite","10","true","7","7","",""
"","","","","","","","","","","","html-button-response","150","2.0.0","331361","663922bf1ff7589784c76f51","2","18","645","","","","","","","","","<img src= rock_img/I_Peridotite_10.jpg style=""width:8cm; height:5.390000000000001cm;""><p style='font-size: 30px; color: green;'><strong>Correct!</strong></p><p style='font-size: 30px;'><strong>This rock is peridotite</strong></p>","0","corr_feedback","1","train","23","","","","","","","",""
"","","","","","","","","","","","html-button-response","151","2.0.0","344655","663922bf1ff7589784c76f51","2","18","13293","","","","","","","","","<img src= ""rock_img/I_Gabbro_01.jpg"" style=""width:8cm; height:5.21cm;""><p>What type of rock is this?</p>","5","class_response","1","train","24","Pegmatite","Gabbro","01","false","6","4","",""
"","","","","","","","","","","","html-button-response","152","2.0.0","345535","663922bf1ff7589784c76f51","2","18","879","","","","","","","","","<img src= rock_img/I_Gabbro_01.jpg style=""width:8cm; height:5.21cm;""><p style='font-size: 30px; color: red;'><strong>Incorrect!</strong></p><p style='font-size: 30px;'><strong>This rock is gabbro</strong></p>","0","corr_feedback","1","train","24","","","","","","","",""
"","","","","","","","","","","","html-button-response","153","2.0.0","351210","663922bf1ff7589784c76f51","2","18","5674","","","","","","","","","<img src= ""rock_img/I_Andesite_06.jpg"" style=""width:8cm; height:6.840000000000001cm;""><p>What type of rock is this?</p>","0","class_response","1","train","25","Andesite","Andesite","06","true","1","1","",""
"","","","","","","","","","","","html-button-response","154","2.0.0","352009","663922bf1ff7589784c76f51","2","18","798","","","","","","","","","<img src= rock_img/I_Andesite_06.jpg style=""width:8cm; height:6.840000000000001cm;""><p style='font-size: 30px; color: green;'><strong>Correct!</strong></p><p style='font-size: 30px;'><strong>This rock is andesite</strong></p>","0","corr_feedback","1","train","25","","","","","","","",""
"","","","","","","","","","","","html-button-response","155","2.0.0","354393","663922bf1ff7589784c76f51","2","18","2383","","","","","","","","","<img src= ""rock_img/I_Diorite_06.jpg"" style=""width:8cm; height:6.03cm;""><p>What type of rock is this?</p>","2","class_response","1","train","26","Diorite","Diorite","06","true","3","3","",""
"","","","","","","","","","","","html-button-response","156","2.0.0","355151","663922bf1ff7589784c76f51","2","18","758","","","","","","","","","<img src= rock_img/I_Diorite_06.jpg style=""width:8cm; height:6.03cm;""><p style='font-size: 30px; color: green;'><strong>Correct!</strong></p><p style='font-size: 30px;'><strong>This rock is diorite</strong></p>","0","corr_feedback","1","train","26","","","","","","","",""
"","","","","","","","","","","","html-button-response","157","2.0.0","356316","663922bf1ff7589784c76f51","2","18","1164","","","","","","","","","<img src= ""rock_img/I_Obsidian_04.jpg"" style=""width:8cm; height:6.930000000000001cm;""><p>What type of rock is this?</p>","4","class_response","1","train","27","Obsidian","Obsidian","04","true","5","5","",""
"","","","","","","","","","","","html-button-response","158","2.0.0","356886","663922bf1ff7589784c76f51","2","18","570","","","","","","","","","<img src= rock_img/I_Obsidian_04.jpg style=""width:8cm; height:6.930000000000001cm;""><p style='font-size: 30px; color: green;'><strong>Correct!</strong></p><p style='font-size: 30px;'><strong>This rock is obsidian</strong></p>","0","corr_feedback","1","train","27","","","","","","","",""
"","","","","","","","","","","","html-button-response","159","2.0.0","360304","663922bf1ff7589784c76f51","2","18","3417","","","","","","","","","<img src= ""rock_img/I_Andesite_14.jpg"" style=""width:8cm; height:5.449999999999999cm;""><p>What type of rock is this?</p>","3","class_response","1","train","28","Gabbro","Andesite","14","false","4","1","",""
"","","","","","","","","","","","html-button-response","160","2.0.0","361139","663922bf1ff7589784c76f51","2","18","834","","","","","","","","","<img src= rock_img/I_Andesite_14.jpg style=""width:8cm; height:5.449999999999999cm;""><p style='font-size: 30px; color: red;'><strong>Incorrect!</strong></p><p style='font-size: 30px;'><strong>This rock is andesite</strong></p>","0","corr_feedback","1","train","28","","","","","","","",""
"","","","","","","","","","","","html-button-response","161","2.0.0","366073","663922bf1ff7589784c76f51","2","18","4934","","","","","","","","","<img src= ""rock_img/I_Pegmatite_13.jpg"" style=""width:8cm; height:4.95cm;""><p>What type of rock is this?</p>","3","class_response","1","train","29","Gabbro","Pegmatite","13","false","4","6","",""
"","","","","","","","","","","","html-button-response","162","2.0.0","366776","663922bf1ff7589784c76f51","2","18","702","","","","","","","","","<img src= rock_img/I_Pegmatite_13.jpg style=""width:8cm; height:4.95cm;""><p style='font-size: 30px; color: red;'><strong>Incorrect!</strong></p><p style='font-size: 30px;'><strong>This rock is pegmatite</strong></p>","0","corr_feedback","1","train","29","","","","","","","",""
"","","","","","","","","","","","html-button-response","163","2.0.0","369729","663922bf1ff7589784c76f51","2","18","2953","","","","","","","","","<img src= ""rock_img/I_Obsidian_05.jpg"" style=""width:8cm; height:6.33cm;""><p>What type of rock is this?</p>","4","class_response","1","train","30","Obsidian","Obsidian","05","true","5","5","",""
"","","","","","","","","","","","html-button-response","164","2.0.0","370386","663922bf1ff7589784c76f51","2","18","656","","","","","","","","","<img src= rock_img/I_Obsidian_05.jpg style=""width:8cm; height:6.33cm;""><p style='font-size: 30px; color: green;'><strong>Correct!</strong></p><p style='font-size: 30px;'><strong>This rock is obsidian</strong></p>","0","corr_feedback","1","train","30","","","","","","","",""
"","","","","","","","","","","","html-button-response","165","2.0.0","374388","663922bf1ff7589784c76f51","2","18","4001","","","","","","","","","<img src= ""rock_img/I_Gabbro_14.jpg"" style=""width:8cm; height:8.48cm;""><p>What type of rock is this?</p>","2","class_response","1","train","31","Diorite","Gabbro","14","false","3","4","",""
"","","","","","","","","","","","html-button-response","166","2.0.0","375102","663922bf1ff7589784c76f51","2","18","713","","","","","","","","","<img src= rock_img/I_Gabbro_14.jpg style=""width:8cm; height:8.48cm;""><p style='font-size: 30px; color: red;'><strong>Incorrect!</strong></p><p style='font-size: 30px;'><strong>This rock is gabbro</strong></p>","0","corr_feedback","1","train","31","","","","","","","",""
"","","","","","","","","","","","html-button-response","167","2.0.0","376604","663922bf1ff7589784c76f51","2","18","1502","","","","","","","","","<img src= ""rock_img/I_Peridotite_08.jpg"" style=""width:8cm; height:6.7cm;""><p>What type of rock is this?</p>","6","class_response","1","train","32","Peridotite","Peridotite","08","true","7","7","",""
"","","","","","","","","","","","html-button-response","168","2.0.0","377260","663922bf1ff7589784c76f51","2","18","655","","","","","","","","","<img src= rock_img/I_Peridotite_08.jpg style=""width:8cm; height:6.7cm;""><p style='font-size: 30px; color: green;'><strong>Correct!</strong></p><p style='font-size: 30px;'><strong>This rock is peridotite</strong></p>","0","corr_feedback","1","train","32","","","","","","","",""
"","","","","","","","","","","","html-button-response","169","2.0.0","382109","663922bf1ff7589784c76f51","2","18","4848","","","","","","","","","<img src= ""rock_img/I_Andesite_09.jpg"" style=""width:8cm; height:6cm;""><p>What type of rock is this?</p>","2","class_response","1","train","33","Diorite","Andesite","09","false","3","1","",""
"","","","","","","","","","","","html-button-response","170","2.0.0","382887","663922bf1ff7589784c76f51","2","18","777","","","","","","","","","<img src= rock_img/I_Andesite_09.jpg style=""width:8cm; height:6cm;""><p style='font-size: 30px; color: red;'><strong>Incorrect!</strong></p><p style='font-size: 30px;'><strong>This rock is andesite</strong></p>","0","corr_feedback","1","train","33","","","","","","","",""
"","","","","","","","","","","","html-button-response","171","2.0.0","384890","663922bf1ff7589784c76f51","2","18","2003","","","","","","","","","<img src= ""rock_img/I_Pumice_03.jpg"" style=""width:8cm; height:6.64cm;""><p>What type of rock is this?</p>","7","class_response","1","train","34","Pumice","Pumice","03","true","8","8","",""
"","","","","","","","","","","","html-button-response","172","2.0.0","385527","663922bf1ff7589784c76f51","2","18","636","","","","","","","","","<img src= rock_img/I_Pumice_03.jpg style=""width:8cm; height:6.64cm;""><p style='font-size: 30px; color: green;'><strong>Correct!</strong></p><p style='font-size: 30px;'><strong>This rock is pumice</strong></p>","0","corr_feedback","1","train","34","","","","","","","",""
"","","","","","","","","","","","html-button-response","173","2.0.0","387002","663922bf1ff7589784c76f51","2","18","1474","","","","","","","","","<img src= ""rock_img/I_Pumice_09.jpg"" style=""width:8cm; height:6.44cm;""><p>What type of rock is this?</p>","7","class_response","1","train","35","Pumice","Pumice","09","true","8","8","",""
"","","","","","","","","","","","html-button-response","174","2.0.0","387580","663922bf1ff7589784c76f51","2","18","577","","","","","","","","","<img src= rock_img/I_Pumice_09.jpg style=""width:8cm; height:6.44cm;""><p style='font-size: 30px; color: green;'><strong>Correct!</strong></p><p style='font-size: 30px;'><strong>This rock is pumice</strong></p>","0","corr_feedback","1","train","35","","","","","","","",""
"","","","","","","","","","","","html-button-response","175","2.0.0","391140","663922bf1ff7589784c76f51","2","18","3559","","","","","","","","","<img src= ""rock_img/I_Gabbro_14.jpg"" style=""width:8cm; height:8.48cm;""><p>What type of rock is this?</p>","3","class_response","1","train","36","Gabbro","Gabbro","14","true","4","4","",""
"","","","","","","","","","","","html-button-response","176","2.0.0","392182","663922bf1ff7589784c76f51","2","18","1041","","","","","","","","","<img src= rock_img/I_Gabbro_14.jpg style=""width:8cm; height:8.48cm;""><p style='font-size: 30px; color: green;'><strong>Correct!</strong></p><p style='font-size: 30px;'><strong>This rock is gabbro</strong></p>","0","corr_feedback","1","train","36","","","","","","","",""
"","","","","","","","","","","","html-button-response","177","2.0.0","396023","663922bf1ff7589784c76f51","2","18","3840","","","","","","","","","<img src= ""rock_img/I_Andesite_14.jpg"" style=""width:8cm; height:5.449999999999999cm;""><p>What type of rock is this?</p>","2","class_response","1","train","37","Diorite","Andesite","14","false","3","1","",""
"","","","","","","","","","","","html-button-response","178","2.0.0","396647","663922bf1ff7589784c76f51","2","18","624","","","","","","","","","<img src= rock_img/I_Andesite_14.jpg style=""width:8cm; height:5.449999999999999cm;""><p style='font-size: 30px; color: red;'><strong>Incorrect!</strong></p><p style='font-size: 30px;'><strong>This rock is andesite</strong></p>","0","corr_feedback","1","train","37","","","","","","","",""
"","","","","","","","","","","","html-button-response","179","2.0.0","400770","663922bf1ff7589784c76f51","2","18","4122","","","","","","","","","<img src= ""rock_img/I_Pegmatite_16.jpg"" style=""width:8cm; height:5.8cm;""><p>What type of rock is this?</p>","5","class_response","1","train","38","Pegmatite","Pegmatite","16","true","6","6","",""
"","","","","","","","","","","","html-button-response","180","2.0.0","401751","663922bf1ff7589784c76f51","2","18","981","","","","","","","","","<img src= rock_img/I_Pegmatite_16.jpg style=""width:8cm; height:5.8cm;""><p style='font-size: 30px; color: green;'><strong>Correct!</strong></p><p style='font-size: 30px;'><strong>This rock is pegmatite</strong></p>","0","corr_feedback","1","train","38","","","","","","","",""
"","","","","","","","","","","","html-button-response","181","2.0.0","404778","663922bf1ff7589784c76f51","2","18","3026","","","","","","","","","<img src= ""rock_img/I_Andesite_04.jpg"" style=""width:8cm; height:5.96cm;""><p>What type of rock is this?</p>","3","class_response","1","train","39","Gabbro","Andesite","04","false","4","1","",""
"","","","","","","","","","","","html-button-response","182","2.0.0","405484","663922bf1ff7589784c76f51","2","18","706","","","","","","","","","<img src= rock_img/I_Andesite_04.jpg style=""width:8cm; height:5.96cm;""><p style='font-size: 30px; color: red;'><strong>Incorrect!</strong></p><p style='font-size: 30px;'><strong>This rock is andesite</strong></p>","0","corr_feedback","1","train","39","","","","","","","",""
"","","","","","","","","","","","html-button-response","183","2.0.0","408739","663922bf1ff7589784c76f51","2","18","3254","","","","","","","","","<img src= ""rock_img/I_Gabbro_08.jpg"" style=""width:8cm; height:5.15cm;""><p>What type of rock is this?</p>","3","class_response","1","train","40","Gabbro","Gabbro","08","true","4","4","",""
"","","","","","","","","","","","html-button-response","184","2.0.0","409750","663922bf1ff7589784c76f51","2","18","1010","","","","","","","","","<img src= rock_img/I_Gabbro_08.jpg style=""width:8cm; height:5.15cm;""><p style='font-size: 30px; color: green;'><strong>Correct!</strong></p><p style='font-size: 30px;'><strong>This rock is gabbro</strong></p>","0","corr_feedback","1","train","40","","","","","","","",""
"","","","","","","","","","","","html-button-response","185","2.0.0","412408","663922bf1ff7589784c76f51","2","18","2658","","","","","","","","","<img src= ""rock_img/I_Pegmatite_08.jpg"" style=""width:8cm; height:7.68cm;""><p>What type of rock is this?</p>","5","class_response","1","train","41","Pegmatite","Pegmatite","08","true","6","6","",""
"","","","","","","","","","","","html-button-response","186","2.0.0","412957","663922bf1ff7589784c76f51","2","18","548","","","","","","","","","<img src= rock_img/I_Pegmatite_08.jpg style=""width:8cm; height:7.68cm;""><p style='font-size: 30px; color: green;'><strong>Correct!</strong></p><p style='font-size: 30px;'><strong>This rock is pegmatite</strong></p>","0","corr_feedback","1","train","41","","","","","","","",""
"","","","","","","","","","","","html-button-response","187","2.0.0","415201","663922bf1ff7589784c76f51","2","18","2243","","","","","","","","","<img src= ""rock_img/I_Andesite_01.jpg"" style=""width:8cm; height:5.87cm;""><p>What type of rock is this?</p>","2","class_response","1","train","42","Diorite","Andesite","01","false","3","1","",""
"","","","","","","","","","","","html-button-response","188","2.0.0","415965","663922bf1ff7589784c76f51","2","18","763","","","","","","","","","<img src= rock_img/I_Andesite_01.jpg style=""width:8cm; height:5.87cm;""><p style='font-size: 30px; color: red;'><strong>Incorrect!</strong></p><p style='font-size: 30px;'><strong>This rock is andesite</strong></p>","0","corr_feedback","1","train","42","","","","","","","",""
"","","","","","","","","","","","html-button-response","189","2.0.0","417842","663922bf1ff7589784c76f51","2","18","1877","","","","","","","","","<img src= ""rock_img/I_Diorite_15.jpg"" style=""width:8cm; height:5.54cm;""><p>What type of rock is this?</p>","2","class_response","1","train","43","Diorite","Diorite","15","true","3","3","",""
"","","","","","","","","","","","html-button-response","190","2.0.0","418697","663922bf1ff7589784c76f51","2","18","854","","","","","","","","","<img src= rock_img/I_Diorite_15.jpg style=""width:8cm; height:5.54cm;""><p style='font-size: 30px; color: green;'><strong>Correct!</strong></p><p style='font-size: 30px;'><strong>This rock is diorite</strong></p>","0","corr_feedback","1","train","43","","","","","","","",""
"","","","","","","","","","","","html-button-response","191","2.0.0","422766","663922bf1ff7589784c76f51","2","18","4068","","","","","","","","","<img src= ""rock_img/I_Diorite_12.jpg"" style=""width:8cm; height:4.88cm;""><p>What type of rock is this?</p>","0","class_response","1","train","44","Andesite","Diorite","12","false","1","3","",""
"","","","","","","","","","","","html-button-response","192","2.0.0","423470","663922bf1ff7589784c76f51","2","18","704","","","","","","","","","<img src= rock_img/I_Diorite_12.jpg style=""width:8cm; height:4.88cm;""><p style='font-size: 30px; color: red;'><strong>Incorrect!</strong></p><p style='font-size: 30px;'><strong>This rock is diorite</strong></p>","0","corr_feedback","1","train","44","","","","","","","",""
"","","","","","","","","","","","html-button-response","193","2.0.0","425330","663922bf1ff7589784c76f51","2","18","1859","","","","","","","","","<img src= ""rock_img/I_Pumice_14.jpg"" style=""width:8cm; height:6.39cm;""><p>What type of rock is this?</p>","7","class_response","1","train","45","Pumice","Pumice","14","true","8","8","",""
"","","","","","","","","","","","html-button-response","194","2.0.0","425881","663922bf1ff7589784c76f51","2","18","550","","","","","","","","","<img src= rock_img/I_Pumice_14.jpg style=""width:8cm; height:6.39cm;""><p style='font-size: 30px; color: green;'><strong>Correct!</strong></p><p style='font-size: 30px;'><strong>This rock is pumice</strong></p>","0","corr_feedback","1","train","45","","","","","","","",""
"","","","","","","","","","","","html-button-response","195","2.0.0","428044","663922bf1ff7589784c76f51","2","18","2162","","","","","","","","","<img src= ""rock_img/I_Basalt_12.jpg"" style=""width:8cm; height:6.010000000000001cm;""><p>What type of rock is this?</p>","3","class_response","1","train","46","Gabbro","Basalt","12","false","4","2","",""
"","","","","","","","","","","","html-button-response","196","2.0.0","428991","663922bf1ff7589784c76f51","2","18","946","","","","","","","","","<img src= rock_img/I_Basalt_12.jpg style=""width:8cm; height:6.010000000000001cm;""><p style='font-size: 30px; color: red;'><strong>Incorrect!</strong></p><p style='font-size: 30px;'><strong>This rock is basalt</strong></p>","0","corr_feedback","1","train","46","","","","","","","",""
"","","","","","","","","","","","html-button-response","197","2.0.0","430833","663922bf1ff7589784c76f51","2","18","1841","","","","","","","","","<img src= ""rock_img/I_Andesite_10.jpg"" style=""width:8cm; height:4.16cm;""><p>What type of rock is this?</p>","3","class_response","1","train","47","Gabbro","Andesite","10","false","4","1","",""
"","","","","","","","","","","","html-button-response","198","2.0.0","431622","663922bf1ff7589784c76f51","2","18","788","","","","","","","","","<img src= rock_img/I_Andesite_10.jpg style=""width:8cm; height:4.16cm;""><p style='font-size: 30px; color: red;'><strong>Incorrect!</strong></p><p style='font-size: 30px;'><strong>This rock is andesite</strong></p>","0","corr_feedback","1","train","47","","","","","","","",""
"","","","","","","","","","","","html-button-response","199","2.0.0","436443","663922bf1ff7589784c76f51","2","18","4820","","","","","","","","","<img src= ""rock_img/I_Pegmatite_12.jpg"" style=""width:8cm; height:5.7cm;""><p>What type of rock is this?</p>","2","class_response","1","train","48","Diorite","Pegmatite","12","false","3","6","",""
"","","","","","","","","","","","html-button-response","200","2.0.0","437398","663922bf1ff7589784c76f51","2","18","955","","","","","","","","","<img src= rock_img/I_Pegmatite_12.jpg style=""width:8cm; height:5.7cm;""><p style='font-size: 30px; color: red;'><strong>Incorrect!</strong></p><p style='font-size: 30px;'><strong>This rock is pegmatite</strong></p>","0","corr_feedback","1","train","48","","","","","","","",""
"","","","","","","","","","","","instructions","203","2.0.0","450617","663922bf1ff7589784c76f51","2","18","13218","","","","","","","","[{""page_index"":0,""viewing_time"":5417},{""page_index"":1,""viewing_time"":7801}]","","","","","","","","","","","","","",""
"","","","","","","","","","","","html-button-response","204","2.0.0","453298","663922bf1ff7589784c76f51","2","18","2680","","","","","","","","","","0","start_test","","","","","","","","","","",""
"","","","","","","","","","","","html-button-response","205","2.0.0","460421","663922bf1ff7589784c76f51","2","18","7122","","","","","","","","","<img src= ""rock_img/I_Diorite_08.jpg"" style=""width:8cm; height:6.37cm;""><p>What type of rock is this?</p>","0","class_response","1","test","1","Andesite","Diorite","08","false","1","3","",""
"","","","","","","","","","","","html-keyboard-response","206","2.0.0","460935","663922bf1ff7589784c76f51","2","18","null","","","","","","","","","<p style='font-size: 30px;'><strong>Okay</strong></p>","null","neutral_feedback","1","test","1","","","","","","","",""
"","","","","","","","","","","","html-button-response","207","2.0.0","463813","663922bf1ff7589784c76f51","2","18","2877","","","","","","","","","<img src= ""rock_img/I_Andesite_07.jpg"" style=""width:8cm; height:5.93cm;""><p>What type of rock is this?</p>","2","class_response","1","test","2","Diorite","Andesite","07","false","3","1","",""
"","","","","","","","","","","","html-keyboard-response","208","2.0.0","464314","663922bf1ff7589784c76f51","2","18","null","","","","","","","","","<p style='font-size: 30px;'><strong>Okay</strong></p>","null","neutral_feedback","1","test","2","","","","","","","",""
"","","","","","","","","","","","html-button-response","209","2.0.0","469226","663922bf1ff7589784c76f51","2","18","4912","","","","","","","","","<img src= ""rock_img/I_Andesite_02.jpg"" style=""width:8cm; height:8.5cm;""><p>What type of rock is this?</p>","0","class_response","1","test","3","Andesite","Andesite","02","true","1","1","",""
"","","","","","","","","","","","html-keyboard-response","210","2.0.0","469727","663922bf1ff7589784c76f51","2","18","null","","","","","","","","","<p style='font-size: 30px;'><strong>Okay</strong></p>","null","neutral_feedback","1","test","3","","","","","","","",""
"","","","","","","","","","","","html-button-response","211","2.0.0","474895","663922bf1ff7589784c76f51","2","18","5168","","","","","","","","","<img src= ""rock_img/I_Peridotite_16.jpg"" style=""width:8cm; height:6.989999999999999cm;""><p>What type of rock is this?</p>","6","class_response","1","test","4","Peridotite","Peridotite","16","true","7","7","",""
"","","","","","","","","","","","html-keyboard-response","212","2.0.0","475399","663922bf1ff7589784c76f51","2","18","null","","","","","","","","","<p style='font-size: 30px;'><strong>Okay</strong></p>","null","neutral_feedback","1","test","4","","","","","","","",""
"","","","","","","","","","","","html-button-response","213","2.0.0","483394","663922bf1ff7589784c76f51","2","18","7995","","","","","","","","","<img src= ""rock_img/I_Pegmatite_06.jpg"" style=""width:8cm; height:5.17cm;""><p>What type of rock is this?</p>","0","class_response","1","test","5","Andesite","Pegmatite","06","false","1","6","",""
"","","","","","","","","","","","html-keyboard-response","214","2.0.0","483903","663922bf1ff7589784c76f51","2","18","null","","","","","","","","","<p style='font-size: 30px;'><strong>Okay</strong></p>","null","neutral_feedback","1","test","5","","","","","","","",""
"","","","","","","","","","","","html-button-response","215","2.0.0","485437","663922bf1ff7589784c76f51","2","18","1533","","","","","","","","","<img src= ""rock_img/I_Obsidian_06.jpg"" style=""width:8cm; height:6.8cm;""><p>What type of rock is this?</p>","4","class_response","1","test","6","Obsidian","Obsidian","06","true","5","5","",""
"","","","","","","","","","","","html-keyboard-response","216","2.0.0","485944","663922bf1ff7589784c76f51","2","18","null","","","","","","","","","<p style='font-size: 30px;'><strong>Okay</strong></p>","null","neutral_feedback","1","test","6","","","","","","","",""
"","","","","","","","","","","","html-button-response","217","2.0.0","487116","663922bf1ff7589784c76f51","2","18","1171","","","","","","","","","<img src= ""rock_img/I_Obsidian_16.jpg"" style=""width:8cm; height:9.3cm;""><p>What type of rock is this?</p>","4","class_response","1","test","7","Obsidian","Obsidian","16","true","5","5","",""
"","","","","","","","","","","","html-keyboard-response","218","2.0.0","487618","663922bf1ff7589784c76f51","2","18","null","","","","","","","","","<p style='font-size: 30px;'><strong>Okay</strong></p>","null","neutral_feedback","1","test","7","","","","","","","",""
"","","","","","","","","","","","html-button-response","219","2.0.0","494836","663922bf1ff7589784c76f51","2","18","7218","","","","","","","","","<img src= ""rock_img/I_Peridotite_05.jpg"" style=""width:8cm; height:7.1499999999999995cm;""><p>What type of rock is this?</p>","6","class_response","1","test","8","Peridotite","Peridotite","05","true","7","7","",""
"","","","","","","","","","","","html-keyboard-response","220","2.0.0","495347","663922bf1ff7589784c76f51","2","18","null","","","","","","","","","<p style='font-size: 30px;'><strong>Okay</strong></p>","null","neutral_feedback","1","test","8","","","","","","","",""
"","","","","","","","","","","","html-button-response","221","2.0.0","496639","663922bf1ff7589784c76f51","2","18","1291","","","","","","","","","<img src= ""rock_img/I_Peridotite_15.jpg"" style=""width:8cm; height:6cm;""><p>What type of rock is this?</p>","6","class_response","1","test","9","Peridotite","Peridotite","15","true","7","7","",""
"","","","","","","","","","","","html-keyboard-response","222","2.0.0","497142","663922bf1ff7589784c76f51","2","18","null","","","","","","","","","<p style='font-size: 30px;'><strong>Okay</strong></p>","null","neutral_feedback","1","test","9","","","","","","","",""
"","","","","","","","","","","","html-button-response","223","2.0.0","503598","663922bf1ff7589784c76f51","2","18","6456","","","","","","","","","<img src= ""rock_img/I_Andesite_11.jpg"" style=""width:8cm; height:4.92cm;""><p>What type of rock is this?</p>","0","class_response","1","test","10","Andesite","Andesite","11","true","1","1","",""
"","","","","","","","","","","","html-keyboard-response","224","2.0.0","504100","663922bf1ff7589784c76f51","2","18","null","","","","","","","","","<p style='font-size: 30px;'><strong>Okay</strong></p>","null","neutral_feedback","1","test","10","","","","","","","",""
"","","","","","","","","","","","html-button-response","225","2.0.0","505572","663922bf1ff7589784c76f51","2","18","1471","","","","","","","","","<img src= ""rock_img/I_Diorite_02.jpg"" style=""width:8cm; height:6.27cm;""><p>What type of rock is this?</p>","2","class_response","1","test","11","Diorite","Diorite","02","true","3","3","",""
"","","","","","","","","","","","html-keyboard-response","226","2.0.0","506073","663922bf1ff7589784c76f51","2","18","null","","","","","","","","","<p style='font-size: 30px;'><strong>Okay</strong></p>","null","neutral_feedback","1","test","11","","","","","","","",""
"","","","","","","","","","","","html-button-response","227","2.0.0","507419","663922bf1ff7589784c76f51","2","18","1346","","","","","","","","","<img src= ""rock_img/I_Obsidian_09.jpg"" style=""width:8cm; height:5cm;""><p>What type of rock is this?</p>","4","class_response","1","test","12","Obsidian","Obsidian","09","true","5","5","",""
"","","","","","","","","","","","html-keyboard-response","228","2.0.0","507929","663922bf1ff7589784c76f51","2","18","null","","","","","","","","","<p style='font-size: 30px;'><strong>Okay</strong></p>","null","neutral_feedback","1","test","12","","","","","","","",""
"","","","","","","","","","","","html-button-response","229","2.0.0","512359","663922bf1ff7589784c76f51","2","18","4429","","","","","","","","","<img src= ""rock_img/I_Diorite_14.jpg"" style=""width:8cm; height:5.71cm;""><p>What type of rock is this?</p>","2","class_response","1","test","13","Diorite","Diorite","14","true","3","3","",""
"","","","","","","","","","","","html-keyboard-response","230","2.0.0","512863","663922bf1ff7589784c76f51","2","18","null","","","","","","","","","<p style='font-size: 30px;'><strong>Okay</strong></p>","null","neutral_feedback","1","test","13","","","","","","","",""
"","","","","","","","","","","","html-button-response","231","2.0.0","514949","663922bf1ff7589784c76f51","2","18","2085","","","","","","","","","<img src= ""rock_img/I_Pumice_06.jpg"" style=""width:8cm; height:6.9399999999999995cm;""><p>What type of rock is this?</p>","7","class_response","1","test","14","Pumice","Pumice","06","true","8","8","",""
"","","","","","","","","","","","html-keyboard-response","232","2.0.0","515460","663922bf1ff7589784c76f51","2","18","null","","","","","","","","","<p style='font-size: 30px;'><strong>Okay</strong></p>","null","neutral_feedback","1","test","14","","","","","","","",""
"","","","","","","","","","","","html-button-response","233","2.0.0","518637","663922bf1ff7589784c76f51","2","18","3176","","","","","","","","","<img src= ""rock_img/I_Basalt_04.jpg"" style=""width:8cm; height:7.53cm;""><p>What type of rock is this?</p>","1","class_response","1","test","15","Basalt","Basalt","04","true","2","2","",""
"","","","","","","","","","","","html-keyboard-response","234","2.0.0","519147","663922bf1ff7589784c76f51","2","18","null","","","","","","","","","<p style='font-size: 30px;'><strong>Okay</strong></p>","null","neutral_feedback","1","test","15","","","","","","","",""
"","","","","","","","","","","","html-button-response","235","2.0.0","521141","663922bf1ff7589784c76f51","2","18","1994","","","","","","","","","<img src= ""rock_img/I_Andesite_16.jpg"" style=""width:8cm; height:6.010000000000001cm;""><p>What type of rock is this?</p>","0","class_response","1","test","16","Andesite","Andesite","16","true","1","1","",""
"","","","","","","","","","","","html-keyboard-response","236","2.0.0","521642","663922bf1ff7589784c76f51","2","18","null","","","","","","","","","<p style='font-size: 30px;'><strong>Okay</strong></p>","null","neutral_feedback","1","test","16","","","","","","","",""
"","","","","","","","","","","","html-button-response","237","2.0.0","524385","663922bf1ff7589784c76f51","2","18","2743","","","","","","","","","<img src= ""rock_img/I_Pegmatite_09.jpg"" style=""width:8cm; height:4.03cm;""><p>What type of rock is this?</p>","5","class_response","1","test","17","Pegmatite","Pegmatite","09","true","6","6","",""
"","","","","","","","","","","","html-keyboard-response","238","2.0.0","524889","663922bf1ff7589784c76f51","2","18","null","","","","","","","","","<p style='font-size: 30px;'><strong>Okay</strong></p>","null","neutral_feedback","1","test","17","","","","","","","",""
"","","","","","","","","","","","html-button-response","239","2.0.0","525884","663922bf1ff7589784c76f51","2","18","994","","","","","","","","","<img src= ""rock_img/I_Obsidian_14.jpg"" style=""width:8cm; height:7.64cm;""><p>What type of rock is this?</p>","4","class_response","1","test","18","Obsidian","Obsidian","14","true","5","5","",""
"","","","","","","","","","","","html-keyboard-response","240","2.0.0","526397","663922bf1ff7589784c76f51","2","18","null","","","","","","","","","<p style='font-size: 30px;'><strong>Okay</strong></p>","null","neutral_feedback","1","test","18","","","","","","","",""
"","","","","","","","","","","","html-button-response","241","2.0.0","529323","663922bf1ff7589784c76f51","2","18","2926","","","","","","","","","<img src= ""rock_img/I_Gabbro_05.jpg"" style=""width:8cm; height:6cm;""><p>What type of rock is this?</p>","3","class_response","1","test","19","Gabbro","Gabbro","05","true","4","4","",""
"","","","","","","","","","","","html-keyboard-response","242","2.0.0","529829","663922bf1ff7589784c76f51","2","18","null","","","","","","","","","<p style='font-size: 30px;'><strong>Okay</strong></p>","null","neutral_feedback","1","test","19","","","","","","","",""
"","","","","","","","","","","","html-button-response","243","2.0.0","538417","663922bf1ff7589784c76f51","2","18","8587","","","","","","","","","<img src= ""rock_img/I_Pegmatite_11.jpg"" style=""width:8cm; height:8.14cm;""><p>What type of rock is this?</p>","5","class_response","1","test","20","Pegmatite","Pegmatite","11","true","6","6","",""
"","","","","","","","","","","","html-keyboard-response","244","2.0.0","538918","663922bf1ff7589784c76f51","2","18","null","","","","","","","","","<p style='font-size: 30px;'><strong>Okay</strong></p>","null","neutral_feedback","1","test","20","","","","","","","",""
"","","","","","","","","","","","html-button-response","245","2.0.0","543342","663922bf1ff7589784c76f51","2","18","4424","","","","","","","","","<img src= ""rock_img/I_Andesite_03.jpg"" style=""width:8cm; height:5.73cm;""><p>What type of rock is this?</p>","2","class_response","1","test","21","Diorite","Andesite","03","false","3","1","",""
"","","","","","","","","","","","html-keyboard-response","246","2.0.0","543843","663922bf1ff7589784c76f51","2","18","null","","","","","","","","","<p style='font-size: 30px;'><strong>Okay</strong></p>","null","neutral_feedback","1","test","21","","","","","","","",""
"","","","","","","","","","","","html-button-response","247","2.0.0","545684","663922bf1ff7589784c76f51","2","18","1841","","","","","","","","","<img src= ""rock_img/I_Pumice_16.jpg"" style=""width:8cm; height:6.79cm;""><p>What type of rock is this?</p>","7","class_response","1","test","22","Pumice","Pumice","16","true","8","8","",""
"","","","","","","","","","","","html-keyboard-response","248","2.0.0","546189","663922bf1ff7589784c76f51","2","18","null","","","","","","","","","<p style='font-size: 30px;'><strong>Okay</strong></p>","null","neutral_feedback","1","test","22","","","","","","","",""
"","","","","","","","","","","","html-button-response","249","2.0.0","547737","663922bf1ff7589784c76f51","2","18","1547","","","","","","","","","<img src= ""rock_img/I_Obsidian_07.jpg"" style=""width:8cm; height:4.76cm;""><p>What type of rock is this?</p>","3","class_response","1","test","23","Gabbro","Obsidian","07","false","4","5","",""
"","","","","","","","","","","","html-keyboard-response","250","2.0.0","548253","663922bf1ff7589784c76f51","2","18","null","","","","","","","","","<p style='font-size: 30px;'><strong>Okay</strong></p>","null","neutral_feedback","1","test","23","","","","","","","",""
"","","","","","","","","","","","html-button-response","251","2.0.0","549930","663922bf1ff7589784c76f51","2","18","1676","","","","","","","","","<img src= ""rock_img/I_Basalt_02.jpg"" style=""width:8cm; height:6.45cm;""><p>What type of rock is this?</p>","1","class_response","1","test","24","Basalt","Basalt","02","true","2","2","",""
"","","","","","","","","","","","html-keyboard-response","252","2.0.0","550435","663922bf1ff7589784c76f51","2","18","null","","","","","","","","","<p style='font-size: 30px;'><strong>Okay</strong></p>","null","neutral_feedback","1","test","24","","","","","","","",""
"","","","","","","","","","","","html-button-response","253","2.0.0","553236","663922bf1ff7589784c76f51","2","18","2800","","","","","","","","","<img src= ""rock_img/I_Pegmatite_15.jpg"" style=""width:8cm; height:6cm;""><p>What type of rock is this?</p>","5","class_response","1","test","25","Pegmatite","Pegmatite","15","true","6","6","",""
"","","","","","","","","","","","html-keyboard-response","254","2.0.0","553748","663922bf1ff7589784c76f51","2","18","null","","","","","","","","","<p style='font-size: 30px;'><strong>Okay</strong></p>","null","neutral_feedback","1","test","25","","","","","","","",""
"","","","","","","","","","","","html-button-response","255","2.0.0","561336","663922bf1ff7589784c76f51","2","18","7588","","","","","","","","","<img src= ""rock_img/I_Diorite_13.jpg"" style=""width:8cm; height:6.29cm;""><p>What type of rock is this?</p>","0","class_response","1","test","26","Andesite","Diorite","13","false","1","3","",""
"","","","","","","","","","","","html-keyboard-response","256","2.0.0","561838","663922bf1ff7589784c76f51","2","18","null","","","","","","","","","<p style='font-size: 30px;'><strong>Okay</strong></p>","null","neutral_feedback","1","test","26","","","","","","","",""
"","","","","","","","","","","","html-button-response","257","2.0.0","563709","663922bf1ff7589784c76f51","2","18","1870","","","","","","","","","<img src= ""rock_img/I_Gabbro_11.jpg"" style=""width:8cm; height:6.2cm;""><p>What type of rock is this?</p>","1","class_response","1","test","27","Basalt","Gabbro","11","false","2","4","",""
"","","","","","","","","","","","html-keyboard-response","258","2.0.0","564215","663922bf1ff7589784c76f51","2","18","null","","","","","","","","","<p style='font-size: 30px;'><strong>Okay</strong></p>","null","neutral_feedback","1","test","27","","","","","","","",""
"","","","","","","","","","","","html-button-response","259","2.0.0","566807","663922bf1ff7589784c76f51","2","18","2592","","","","","","","","","<img src= ""rock_img/I_Peridotite_07.jpg"" style=""width:8cm; height:4.83cm;""><p>What type of rock is this?</p>","6","class_response","1","test","28","Peridotite","Peridotite","07","true","7","7","",""
"","","","","","","","","","","","html-keyboard-response","260","2.0.0","567308","663922bf1ff7589784c76f51","2","18","null","","","","","","","","","<p style='font-size: 30px;'><strong>Okay</strong></p>","null","neutral_feedback","1","test","28","","","","","","","",""
"","","","","","","","","","","","html-button-response","261","2.0.0","570938","663922bf1ff7589784c76f51","2","18","3630","","","","","","","","","<img src= ""rock_img/I_Pumice_13.jpg"" style=""width:8cm; height:8.200000000000001cm;""><p>What type of rock is this?</p>","7","class_response","1","test","29","Pumice","Pumice","13","true","8","8","",""
"","","","","","","","","","","","html-keyboard-response","262","2.0.0","571439","663922bf1ff7589784c76f51","2","18","null","","","","","","","","","<p style='font-size: 30px;'><strong>Okay</strong></p>","null","neutral_feedback","1","test","29","","","","","","","",""
"","","","","","","","","","","","html-button-response","263","2.0.0","575606","663922bf1ff7589784c76f51","2","18","4167","","","","","","","","","<img src= ""rock_img/I_Gabbro_09.jpg"" style=""width:8cm; height:7.279999999999999cm;""><p>What type of rock is this?</p>","1","class_response","1","test","30","Basalt","Gabbro","09","false","2","4","",""
"","","","","","","","","","","","html-keyboard-response","264","2.0.0","576107","663922bf1ff7589784c76f51","2","18","null","","","","","","","","","<p style='font-size: 30px;'><strong>Okay</strong></p>","null","neutral_feedback","1","test","30","","","","","","","",""
"","","","","","","","","","","","html-button-response","265","2.0.0","580365","663922bf1ff7589784c76f51","2","18","4258","","","","","","","","","<img src= ""rock_img/I_Peridotite_04.jpg"" style=""width:8cm; height:6.680000000000001cm;""><p>What type of rock is this?</p>","6","class_response","1","test","31","Peridotite","Peridotite","04","true","7","7","",""
"","","","","","","","","","","","html-keyboard-response","266","2.0.0","580872","663922bf1ff7589784c76f51","2","18","null","","","","","","","","","<p style='font-size: 30px;'><strong>Okay</strong></p>","null","neutral_feedback","1","test","31","","","","","","","",""
"","","","","","","","","","","","html-button-response","267","2.0.0","581935","663922bf1ff7589784c76f51","2","18","1063","","","","","","","","","<img src= ""rock_img/I_Obsidian_02.jpg"" style=""width:8cm; height:7.51cm;""><p>What type of rock is this?</p>","4","class_response","1","test","32","Obsidian","Obsidian","02","true","5","5","",""
"","","","","","","","","","","","html-keyboard-response","268","2.0.0","582446","663922bf1ff7589784c76f51","2","18","null","","","","","","","","","<p style='font-size: 30px;'><strong>Okay</strong></p>","null","neutral_feedback","1","test","32","","","","","","","",""
"","","","","","","","","","","","html-button-response","269","2.0.0","585542","663922bf1ff7589784c76f51","2","18","3095","","","","","","","","","<img src= ""rock_img/I_Basalt_16.jpg"" style=""width:8cm; height:7.659999999999999cm;""><p>What type of rock is this?</p>","3","class_response","1","test","33","Gabbro","Basalt","16","false","4","2","",""
"","","","","","","","","","","","html-keyboard-response","270","2.0.0","586048","663922bf1ff7589784c76f51","2","18","null","","","","","","","","","<p style='font-size: 30px;'><strong>Okay</strong></p>","null","neutral_feedback","1","test","33","","","","","","","",""
"","","","","","","","","","","","html-button-response","271","2.0.0","587052","663922bf1ff7589784c76f51","2","18","1003","","","","","","","","","<img src= ""rock_img/I_Basalt_09.jpg"" style=""width:8cm; height:6.2cm;""><p>What type of rock is this?</p>","1","class_response","1","test","34","Basalt","Basalt","09","true","2","2","",""
"","","","","","","","","","","","html-keyboard-response","272","2.0.0","587557","663922bf1ff7589784c76f51","2","18","null","","","","","","","","","<p style='font-size: 30px;'><strong>Okay</strong></p>","null","neutral_feedback","1","test","34","","","","","","","",""
"","","","","","","","","","","","html-button-response","273","2.0.0","590791","663922bf1ff7589784c76f51","2","18","3234","","","","","","","","","<img src= ""rock_img/I_Diorite_16.jpg"" style=""width:8cm; height:6.74cm;""><p>What type of rock is this?</p>","2","class_response","1","test","35","Diorite","Diorite","16","true","3","3","",""
"","","","","","","","","","","","html-keyboard-response","274","2.0.0","591297","663922bf1ff7589784c76f51","2","18","null","","","","","","","","","<p style='font-size: 30px;'><strong>Okay</strong></p>","null","neutral_feedback","1","test","35","","","","","","","",""
"","","","","","","","","","","","html-button-response","275","2.0.0","592899","663922bf1ff7589784c76f51","2","18","1602","","","","","","","","","<img src= ""rock_img/I_Pumice_02.jpg"" style=""width:8cm; height:7.3999999999999995cm;""><p>What type of rock is this?</p>","7","class_response","1","test","36","Pumice","Pumice","02","true","8","8","",""
"","","","","","","","","","","","html-keyboard-response","276","2.0.0","593401","663922bf1ff7589784c76f51","2","18","null","","","","","","","","","<p style='font-size: 30px;'><strong>Okay</strong></p>","null","neutral_feedback","1","test","36","","","","","","","",""
"","","","","","","","","","","","html-button-response","277","2.0.0","596742","663922bf1ff7589784c76f51","2","18","3341","","","","","","","","","<img src= ""rock_img/I_Gabbro_15.jpg"" style=""width:8cm; height:6.29cm;""><p>What type of rock is this?</p>","2","class_response","1","test","37","Diorite","Gabbro","15","false","3","4","",""
"","","","","","","","","","","","html-keyboard-response","278","2.0.0","597249","663922bf1ff7589784c76f51","2","18","null","","","","","","","","","<p style='font-size: 30px;'><strong>Okay</strong></p>","null","neutral_feedback","1","test","37","","","","","","","",""
"","","","","","","","","","","","html-button-response","279","2.0.0","600415","663922bf1ff7589784c76f51","2","18","3165","","","","","","","","","<img src= ""rock_img/I_Pegmatite_07.jpg"" style=""width:8cm; height:6.7cm;""><p>What type of rock is this?</p>","5","class_response","1","test","38","Pegmatite","Pegmatite","07","true","6","6","",""
"","","","","","","","","","","","html-keyboard-response","280","2.0.0","600918","663922bf1ff7589784c76f51","2","18","null","","","","","","","","","<p style='font-size: 30px;'><strong>Okay</strong></p>","null","neutral_feedback","1","test","38","","","","","","","",""
"","","","","","","","","","","","html-button-response","281","2.0.0","601819","663922bf1ff7589784c76f51","2","18","900","","","","","","","","","<img src= ""rock_img/I_Peridotite_02.jpg"" style=""width:8cm; height:5.859999999999999cm;""><p>What type of rock is this?</p>","6","class_response","1","test","39","Peridotite","Peridotite","02","true","7","7","",""
"","","","","","","","","","","","html-keyboard-response","282","2.0.0","602333","663922bf1ff7589784c76f51","2","18","null","","","","","","","","","<p style='font-size: 30px;'><strong>Okay</strong></p>","null","neutral_feedback","1","test","39","","","","","","","",""
"","","","","","","","","","","","html-button-response","283","2.0.0","604032","663922bf1ff7589784c76f51","2","18","1699","","","","","","","","","<img src= ""rock_img/I_Gabbro_10.jpg"" style=""width:8cm; height:5.680000000000001cm;""><p>What type of rock is this?</p>","1","class_response","1","test","40","Basalt","Gabbro","10","false","2","4","",""
"","","","","","","","","","","","html-keyboard-response","284","2.0.0","604534","663922bf1ff7589784c76f51","2","18","null","","","","","","","","","<p style='font-size: 30px;'><strong>Okay</strong></p>","null","neutral_feedback","1","test","40","","","","","","","",""
"","","","","","","","","","","","html-button-response","285","2.0.0","605528","663922bf1ff7589784c76f51","2","18","994","","","","","","","","","<img src= ""rock_img/I_Basalt_06.jpg"" style=""width:8cm; height:7.06cm;""><p>What type of rock is this?</p>","1","class_response","1","test","41","Basalt","Basalt","06","true","2","2","",""
"","","","","","","","","","","","html-keyboard-response","286","2.0.0","606040","663922bf1ff7589784c76f51","2","18","null","","","","","","","","","<p style='font-size: 30px;'><strong>Okay</strong></p>","null","neutral_feedback","1","test","41","","","","","","","",""
"","","","","","","","","","","","html-button-response","287","2.0.0","607208","663922bf1ff7589784c76f51","2","18","1167","","","","","","","","","<img src= ""rock_img/I_Pumice_05.jpg"" style=""width:8cm; height:7.25cm;""><p>What type of rock is this?</p>","7","class_response","1","test","42","Pumice","Pumice","05","true","8","8","",""
"","","","","","","","","","","","html-keyboard-response","288","2.0.0","607722","663922bf1ff7589784c76f51","2","18","null","","","","","","","","","<p style='font-size: 30px;'><strong>Okay</strong></p>","null","neutral_feedback","1","test","42","","","","","","","",""
"","","","","","","","","","","","html-button-response","289","2.0.0","610846","663922bf1ff7589784c76f51","2","18","3123","","","","","","","","","<img src= ""rock_img/I_Diorite_09.jpg"" style=""width:8cm; height:5.27cm;""><p>What type of rock is this?</p>","2","class_response","1","test","43","Diorite","Diorite","09","true","3","3","",""
"","","","","","","","","","","","html-keyboard-response","290","2.0.0","611347","663922bf1ff7589784c76f51","2","18","null","","","","","","","","","<p style='font-size: 30px;'><strong>Okay</strong></p>","null","neutral_feedback","1","test","43","","","","","","","",""
"","","","","","","","","","","","html-button-response","291","2.0.0","613193","663922bf1ff7589784c76f51","2","18","1846","","","","","","","","","<img src= ""rock_img/I_Pegmatite_05.jpg"" style=""width:8cm; height:7.300000000000001cm;""><p>What type of rock is this?</p>","2","class_response","1","test","44","Diorite","Pegmatite","05","false","3","6","",""
"","","","","","","","","","","","html-keyboard-response","292","2.0.0","613693","663922bf1ff7589784c76f51","2","18","null","","","","","","","","","<p style='font-size: 30px;'><strong>Okay</strong></p>","null","neutral_feedback","1","test","44","","","","","","","",""
"","","","","","","","","","","","html-button-response","293","2.0.0","614788","663922bf1ff7589784c76f51","2","18","1093","","","","","","","","","<img src= ""rock_img/I_Pumice_15.jpg"" style=""width:8cm; height:7.86cm;""><p>What type of rock is this?</p>","7","class_response","1","test","45","Pumice","Pumice","15","true","8","8","",""
"","","","","","","","","","","","html-keyboard-response","294","2.0.0","615299","663922bf1ff7589784c76f51","2","18","null","","","","","","","","","<p style='font-size: 30px;'><strong>Okay</strong></p>","null","neutral_feedback","1","test","45","","","","","","","",""
"","","","","","","","","","","","html-button-response","295","2.0.0","616308","663922bf1ff7589784c76f51","2","18","1008","","","","","","","","","<img src= ""rock_img/I_Basalt_05.jpg"" style=""width:8cm; height:8.18cm;""><p>What type of rock is this?</p>","1","class_response","1","test","46","Basalt","Basalt","05","true","2","2","",""
"","","","","","","","","","","","html-keyboard-response","296","2.0.0","616812","663922bf1ff7589784c76f51","2","18","null","","","","","","","","","<p style='font-size: 30px;'><strong>Okay</strong></p>","null","neutral_feedback","1","test","46","","","","","","","",""
"","","","","","","","","","","","html-button-response","297","2.0.0","620328","663922bf1ff7589784c76f51","2","18","3516","","","","","","","","","<img src= ""rock_img/I_Gabbro_12.jpg"" style=""width:8cm; height:7.800000000000001cm;""><p>What type of rock is this?</p>","3","class_response","1","test","47","Gabbro","Gabbro","12","true","4","4","",""
"","","","","","","","","","","","html-keyboard-response","298","2.0.0","620835","663922bf1ff7589784c76f51","2","18","null","","","","","","","","","<p style='font-size: 30px;'><strong>Okay</strong></p>","null","neutral_feedback","1","test","47","","","","","","","",""
"","","","","","","","","","","","html-button-response","299","2.0.0","624769","663922bf1ff7589784c76f51","2","18","3934","","","","","","","","","<img src= ""rock_img/I_Andesite_05.jpg"" style=""width:8cm; height:4.12cm;""><p>What type of rock is this?</p>","2","class_response","1","test","48","Diorite","Andesite","05","false","3","1","",""
"","","","","","","","","","","","html-keyboard-response","300","2.0.0","625270","663922bf1ff7589784c76f51","2","18","null","","","","","","","","","<p style='font-size: 30px;'><strong>Okay</strong></p>","null","neutral_feedback","1","test","48","","","","","","","",""
"","","","","","","","","","","","html-button-response","301","2.0.0","711263","663922bf1ff7589784c76f51","2","18","","","","","","","","","","","","cycle_feedback","","","","","","","","","","8270.5","77720.80000001192"
"","","","","","","","","","","","html-button-response","303","2.0.0","714333","663922bf1ff7589784c76f51","2","18","3069","","","","","","","","","","0","start_train","","","","","","","","","","",""
"","","","","","","","","","","","html-button-response","304","2.0.0","718182","663922bf1ff7589784c76f51","2","18","3848","","","","","","","","","<img src= ""rock_img/I_Gabbro_16.jpg"" style=""width:8cm; height:6.44cm;""><p>What type of rock is this?</p>","3","class_response","2","train","1","Gabbro","Gabbro","16","true","4","4","",""
