"width","height","webaudio","browser","browser_version","mobile","os","fullscreen","vsync_rate","webcam","microphone","trial_type","trial_index","plugin_version","time_elapsed","subjID","condition","stimID","rt","url","success","value","timeout","failed_images","failed_audio","failed_video","view_history","stimulus","response","trialType","cycle","phase","trial","resp","cat","token","corr","resp_num","cat_num","time_fb1","time_fb2"
"2204","973","true","chrome","131.0.0","false","Windows 10","true","61.06","true","true","browser-check","0","2.0.0","1004","665f930d862dcdc6bfde540e","2","29","","","","","","","","","","","","","","","","","","","","","","",""
"","","","","","","","","","","","external-html","1","2.0.0","4741","665f930d862dcdc6bfde540e","2","29","3659","consent_form.html","","","","","","","","","","","","","","","","","","","","",""
"","","","","","","","","","","","fullscreen","2","2.0.0","24709","665f930d862dcdc6bfde540e","2","29","18965","","true","","","","","","","","","","","","","","","","","","","",""
"","","","","","","","","","","","call-function","3","2.0.0","24710","665f930d862dcdc6bfde540e","2","29","","","","{}","","","","","","","","","","","","","","","","","","",""
"","","","","","","","","","","","preload","4","2.0.0","27325","665f930d862dcdc6bfde540e","2","29","","","true","","false","[]","[]","[]","","","","","","","","","","","","","","",""
"","","","","","","","","","","","instructions","5","2.0.0","164614","665f930d862dcdc6bfde540e","2","29","137289","","","","","","","","[{""page_index"":0,""viewing_time"":11694},{""page_index"":1,""viewing_time"":22770},{""page_index"":2,""viewing_time"":102825}]","","","","","","","","","","","","","",""
"","","","","","","","","","","","html-button-response","6","2.0.0","168981","665f930d862dcdc6bfde540e","2","29","4365","","","","","","","","","","0","start_test","","","","","","","","","","",""
"","","","","","","","","","","","html-button-response","7","2.0.0","173168","665f930d862dcdc6bfde540e","2","29","4186","","","","","","","","","<img src= ""rock_img/I_Pegmatite_13.jpg"" style=""width:8cm; height:4.95cm;""><p>What type of rock is this?</p>","2","class_response","0","test","1","Diorite","Pegmatite","13","false","3","6","",""
"","","","","","","","","","","","html-keyboard-response","8","2.0.0","173681","665f930d862dcdc6bfde540e","2","29","null","","","","","","","","","<p style='font-size: 30px;'><strong>Okay</strong></p>","null","neutral_feedback","0","test","1","","","","","","","",""
"","","","","","","","","","","","html-button-response","9","2.0.0","177480","665f930d862dcdc6bfde540e","2","29","3798","","","","","","","","","<img src= ""rock_img/I_Diorite_13.jpg"" style=""width:8cm; height:6.29cm;""><p>What type of rock is this?</p>","2","class_response","0","test","2","Diorite","Diorite","13","true","3","3","",""
"","","","","","","","","","","","html-keyboard-response","10","2.0.0","177982","665f930d862dcdc6bfde540e","2","29","null","","","","","","","","","<p style='font-size: 30px;'><strong>Okay</strong></p>","null","neutral_feedback","0","test","2","","","","","","","",""
"","","","","","","","","","","","html-button-response","11","2.0.0","186730","665f930d862dcdc6bfde540e","2","29","8746","","","","","","","","","<img src= ""rock_img/I_Gabbro_03.jpg"" style=""width:8cm; height:8.52cm;""><p>What type of rock is this?</p>","0","class_response","0","test","3","Andesite","Gabbro","03","false","1","4","",""
"","","","","","","","","","","","html-keyboard-response","12","2.0.0","187231","665f930d862dcdc6bfde540e","2","29","null","","","","","","","","","<p style='font-size: 30px;'><strong>Okay</strong></p>","null","neutral_feedback","0","test","3","","","","","","","",""
"","","","","","","","","","","","html-button-response","13","2.0.0","190938","665f930d862dcdc6bfde540e","2","29","3706","","","","","","","","","<img src= ""rock_img/I_Diorite_15.jpg"" style=""width:8cm; height:5.54cm;""><p>What type of rock is this?</p>","3","class_response","0","test","4","Gabbro","Diorite","15","false","4","3","",""
"","","","","","","","","","","","html-keyboard-response","14","2.0.0","191439","665f930d862dcdc6bfde540e","2","29","null","","","","","","","","","<p style='font-size: 30px;'><strong>Okay</strong></p>","null","neutral_feedback","0","test","4","","","","","","","",""
"","","","","","","","","","","","html-button-response","15","2.0.0","195048","665f930d862dcdc6bfde540e","2","29","3608","","","","","","","","","<img src= ""rock_img/I_Andesite_09.jpg"" style=""width:8cm; height:6cm;""><p>What type of rock is this?</p>","2","class_response","0","test","5","Diorite","Andesite","09","false","3","1","",""
"","","","","","","","","","","","html-keyboard-response","16","2.0.0","195552","665f930d862dcdc6bfde540e","2","29","null","","","","","","","","","<p style='font-size: 30px;'><strong>Okay</strong></p>","null","neutral_feedback","0","test","5","","","","","","","",""
"","","","","","","","","","","","html-button-response","17","2.0.0","197029","665f930d862dcdc6bfde540e","2","29","1476","","","","","","","","","<img src= ""rock_img/I_Diorite_12.jpg"" style=""width:8cm; height:4.88cm;""><p>What type of rock is this?</p>","2","class_response","0","test","6","Diorite","Diorite","12","true","3","3","",""
"","","","","","","","","","","","html-keyboard-response","18","2.0.0","197531","665f930d862dcdc6bfde540e","2","29","null","","","","","","","","","<p style='font-size: 30px;'><strong>Okay</strong></p>","null","neutral_feedback","0","test","6","","","","","","","",""
"","","","","","","","","","","","html-button-response","19","2.0.0","209030","665f930d862dcdc6bfde540e","2","29","11498","","","","","","","","","<img src= ""rock_img/I_Pumice_13.jpg"" style=""width:8cm; height:8.200000000000001cm;""><p>What type of rock is this?</p>","6","class_response","0","test","7","Peridotite","Pumice","13","false","7","8","",""
"","","","","","","","","","","","html-keyboard-response","20","2.0.0","209534","665f930d862dcdc6bfde540e","2","29","null","","","","","","","","","<p style='font-size: 30px;'><strong>Okay</strong></p>","null","neutral_feedback","0","test","7","","","","","","","",""
"","","","","","","","","","","","html-button-response","21","2.0.0","214520","665f930d862dcdc6bfde540e","2","29","4985","","","","","","","","","<img src= ""rock_img/I_Gabbro_11.jpg"" style=""width:8cm; height:6.2cm;""><p>What type of rock is this?</p>","4","class_response","0","test","8","Obsidian","Gabbro","11","false","5","4","",""
"","","","","","","","","","","","html-keyboard-response","22","2.0.0","215023","665f930d862dcdc6bfde540e","2","29","null","","","","","","","","","<p style='font-size: 30px;'><strong>Okay</strong></p>","null","neutral_feedback","0","test","8","","","","","","","",""
"","","","","","","","","","","","html-button-response","23","2.0.0","216419","665f930d862dcdc6bfde540e","2","29","1394","","","","","","","","","<img src= ""rock_img/I_Diorite_07.jpg"" style=""width:8cm; height:5.239999999999999cm;""><p>What type of rock is this?</p>","2","class_response","0","test","9","Diorite","Diorite","07","true","3","3","",""
"","","","","","","","","","","","html-keyboard-response","24","2.0.0","216921","665f930d862dcdc6bfde540e","2","29","null","","","","","","","","","<p style='font-size: 30px;'><strong>Okay</strong></p>","null","neutral_feedback","0","test","9","","","","","","","",""
"","","","","","","","","","","","html-button-response","25","2.0.0","218904","665f930d862dcdc6bfde540e","2","29","1982","","","","","","","","","<img src= ""rock_img/I_Andesite_14.jpg"" style=""width:8cm; height:5.449999999999999cm;""><p>What type of rock is this?</p>","1","class_response","0","test","10","Basalt","Andesite","14","false","2","1","",""
"","","","","","","","","","","","html-keyboard-response","26","2.0.0","219406","665f930d862dcdc6bfde540e","2","29","null","","","","","","","","","<p style='font-size: 30px;'><strong>Okay</strong></p>","null","neutral_feedback","0","test","10","","","","","","","",""
"","","","","","","","","","","","html-button-response","27","2.0.0","220555","665f930d862dcdc6bfde540e","2","29","1148","","","","","","","","","<img src= ""rock_img/I_Diorite_11.jpg"" style=""width:8cm; height:7.11cm;""><p>What type of rock is this?</p>","2","class_response","0","test","11","Diorite","Diorite","11","true","3","3","",""
"","","","","","","","","","","","html-keyboard-response","28","2.0.0","221057","665f930d862dcdc6bfde540e","2","29","null","","","","","","","","","<p style='font-size: 30px;'><strong>Okay</strong></p>","null","neutral_feedback","0","test","11","","","","","","","",""
"","","","","","","","","","","","html-button-response","29","2.0.0","222495","665f930d862dcdc6bfde540e","2","29","1437","","","","","","","","","<img src= ""rock_img/I_Pumice_16.jpg"" style=""width:8cm; height:6.79cm;""><p>What type of rock is this?</p>","3","class_response","0","test","12","Gabbro","Pumice","16","false","4","8","",""
"","","","","","","","","","","","html-keyboard-response","30","2.0.0","222997","665f930d862dcdc6bfde540e","2","29","null","","","","","","","","","<p style='font-size: 30px;'><strong>Okay</strong></p>","null","neutral_feedback","0","test","12","","","","","","","",""
"","","","","","","","","","","","html-button-response","31","2.0.0","225451","665f930d862dcdc6bfde540e","2","29","2453","","","","","","","","","<img src= ""rock_img/I_Basalt_06.jpg"" style=""width:8cm; height:7.06cm;""><p>What type of rock is this?</p>","4","class_response","0","test","13","Obsidian","Basalt","06","false","5","2","",""
"","","","","","","","","","","","html-keyboard-response","32","2.0.0","225952","665f930d862dcdc6bfde540e","2","29","null","","","","","","","","","<p style='font-size: 30px;'><strong>Okay</strong></p>","null","neutral_feedback","0","test","13","","","","","","","",""
"","","","","","","","","","","","html-button-response","33","2.0.0","227942","665f930d862dcdc6bfde540e","2","29","1989","","","","","","","","","<img src= ""rock_img/I_Pegmatite_16.jpg"" style=""width:8cm; height:5.8cm;""><p>What type of rock is this?</p>","4","class_response","0","test","14","Obsidian","Pegmatite","16","false","5","6","",""
"","","","","","","","","","","","html-keyboard-response","34","2.0.0","228444","665f930d862dcdc6bfde540e","2","29","null","","","","","","","","","<p style='font-size: 30px;'><strong>Okay</strong></p>","null","neutral_feedback","0","test","14","","","","","","","",""
"","","","","","","","","","","","html-button-response","35","2.0.0","230096","665f930d862dcdc6bfde540e","2","29","1651","","","","","","","","","<img src= ""rock_img/I_Peridotite_13.jpg"" style=""width:8cm; height:7.58cm;""><p>What type of rock is this?</p>","5","class_response","0","test","15","Pegmatite","Peridotite","13","false","6","7","",""
"","","","","","","","","","","","html-keyboard-response","36","2.0.0","230599","665f930d862dcdc6bfde540e","2","29","null","","","","","","","","","<p style='font-size: 30px;'><strong>Okay</strong></p>","null","neutral_feedback","0","test","15","","","","","","","",""
"","","","","","","","","","","","html-button-response","37","2.0.0","233225","665f930d862dcdc6bfde540e","2","29","2625","","","","","","","","","<img src= ""rock_img/I_Gabbro_05.jpg"" style=""width:8cm; height:6cm;""><p>What type of rock is this?</p>","1","class_response","0","test","16","Basalt","Gabbro","05","false","2","4","",""
"","","","","","","","","","","","html-keyboard-response","38","2.0.0","233730","665f930d862dcdc6bfde540e","2","29","null","","","","","","","","","<p style='font-size: 30px;'><strong>Okay</strong></p>","null","neutral_feedback","0","test","16","","","","","","","",""
"","","","","","","","","","","","html-button-response","39","2.0.0","237922","665f930d862dcdc6bfde540e","2","29","4191","","","","","","","","","<img src= ""rock_img/I_Andesite_16.jpg"" style=""width:8cm; height:6.010000000000001cm;""><p>What type of rock is this?</p>","1","class_response","0","test","17","Basalt","Andesite","16","false","2","1","",""
"","","","","","","","","","","","html-keyboard-response","40","2.0.0","238430","665f930d862dcdc6bfde540e","2","29","null","","","","","","","","","<p style='font-size: 30px;'><strong>Okay</strong></p>","null","neutral_feedback","0","test","17","","","","","","","",""
"","","","","","","","","","","","html-button-response","41","2.0.0","240666","665f930d862dcdc6bfde540e","2","29","2235","","","","","","","","","<img src= ""rock_img/I_Diorite_02.jpg"" style=""width:8cm; height:6.27cm;""><p>What type of rock is this?</p>","6","class_response","0","test","18","Peridotite","Diorite","02","false","7","3","",""
"","","","","","","","","","","","html-keyboard-response","42","2.0.0","241174","665f930d862dcdc6bfde540e","2","29","null","","","","","","","","","<p style='font-size: 30px;'><strong>Okay</strong></p>","null","neutral_feedback","0","test","18","","","","","","","",""
"","","","","","","","","","","","html-button-response","43","2.0.0","242288","665f930d862dcdc6bfde540e","2","29","1112","","","","","","","","","<img src= ""rock_img/I_Andesite_03.jpg"" style=""width:8cm; height:5.73cm;""><p>What type of rock is this?</p>","6","class_response","0","test","19","Peridotite","Andesite","03","false","7","1","",""
"","","","","","","","","","","","html-keyboard-response","44","2.0.0","242790","665f930d862dcdc6bfde540e","2","29","null","","","","","","","","","<p style='font-size: 30px;'><strong>Okay</strong></p>","null","neutral_feedback","0","test","19","","","","","","","",""
"","","","","","","","","","","","html-button-response","45","2.0.0","249046","665f930d862dcdc6bfde540e","2","29","6255","","","","","","","","","<img src= ""rock_img/I_Gabbro_16.jpg"" style=""width:8cm; height:6.44cm;""><p>What type of rock is this?</p>","0","class_response","0","test","20","Andesite","Gabbro","16","false","1","4","",""
"","","","","","","","","","","","html-keyboard-response","46","2.0.0","249549","665f930d862dcdc6bfde540e","2","29","null","","","","","","","","","<p style='font-size: 30px;'><strong>Okay</strong></p>","null","neutral_feedback","0","test","20","","","","","","","",""
"","","","","","","","","","","","html-button-response","47","2.0.0","251145","665f930d862dcdc6bfde540e","2","29","1595","","","","","","","","","<img src= ""rock_img/I_Obsidian_05.jpg"" style=""width:8cm; height:6.33cm;""><p>What type of rock is this?</p>","4","class_response","0","test","21","Obsidian","Obsidian","05","true","5","5","",""
"","","","","","","","","","","","html-keyboard-response","48","2.0.0","251655","665f930d862dcdc6bfde540e","2","29","null","","","","","","","","","<p style='font-size: 30px;'><strong>Okay</strong></p>","null","neutral_feedback","0","test","21","","","","","","","",""
"","","","","","","","","","","","html-button-response","49","2.0.0","253635","665f930d862dcdc6bfde540e","2","29","1979","","","","","","","","","<img src= ""rock_img/I_Pegmatite_09.jpg"" style=""width:8cm; height:4.03cm;""><p>What type of rock is this?</p>","4","class_response","0","test","22","Obsidian","Pegmatite","09","false","5","6","",""
"","","","","","","","","","","","html-keyboard-response","50","2.0.0","254137","665f930d862dcdc6bfde540e","2","29","null","","","","","","","","","<p style='font-size: 30px;'><strong>Okay</strong></p>","null","neutral_feedback","0","test","22","","","","","","","",""
"","","","","","","","","","","","html-button-response","51","2.0.0","255569","665f930d862dcdc6bfde540e","2","29","1430","","","","","","","","","<img src= ""rock_img/I_Basalt_08.jpg"" style=""width:8cm; height:10.44cm;""><p>What type of rock is this?</p>","4","class_response","0","test","23","Obsidian","Basalt","08","false","5","2","",""
"","","","","","","","","","","","html-keyboard-response","52","2.0.0","256079","665f930d862dcdc6bfde540e","2","29","null","","","","","","","","","<p style='font-size: 30px;'><strong>Okay</strong></p>","null","neutral_feedback","0","test","23","","","","","","","",""
"","","","","","","","","","","","html-button-response","53","2.0.0","256815","665f930d862dcdc6bfde540e","2","29","734","","","","","","","","","<img src= ""rock_img/I_Obsidian_16.jpg"" style=""width:8cm; height:9.3cm;""><p>What type of rock is this?</p>","4","class_response","0","test","24","Obsidian","Obsidian","16","true","5","5","",""
"","","","","","","","","","","","html-keyboard-response","54","2.0.0","257328","665f930d862dcdc6bfde540e","2","29","null","","","","","","","","","<p style='font-size: 30px;'><strong>Okay</strong></p>","null","neutral_feedback","0","test","24","","","","","","","",""
"","","","","","","","","","","","html-button-response","55","2.0.0","261632","665f930d862dcdc6bfde540e","2","29","4303","","","","","","","","","<img src= ""rock_img/I_Andesite_11.jpg"" style=""width:8cm; height:4.92cm;""><p>What type of rock is this?</p>","7","class_response","0","test","25","Pumice","Andesite","11","false","8","1","",""
"","","","","","","","","","","","html-keyboard-response","56","2.0.0","262146","665f930d862dcdc6bfde540e","2","29","null","","","","","","","","","<p style='font-size: 30px;'><strong>Okay</strong></p>","null","neutral_feedback","0","test","25","","","","","","","",""
"","","","","","","","","","","","html-button-response","57","2.0.0","264984","665f930d862dcdc6bfde540e","2","29","2837","","","","","","","","","<img src= ""rock_img/I_Gabbro_14.jpg"" style=""width:8cm; height:8.48cm;""><p>What type of rock is this?</p>","1","class_response","0","test","26","Basalt","Gabbro","14","false","2","4","",""
"","","","","","","","","","","","html-keyboard-response","58","2.0.0","265493","665f930d862dcdc6bfde540e","2","29","null","","","","","","","","","<p style='font-size: 30px;'><strong>Okay</strong></p>","null","neutral_feedback","0","test","26","","","","","","","",""
"","","","","","","","","","","","html-button-response","59","2.0.0","267153","665f930d862dcdc6bfde540e","2","29","1659","","","","","","","","","<img src= ""rock_img/I_Obsidian_12.jpg"" style=""width:8cm; height:6.53cm;""><p>What type of rock is this?</p>","4","class_response","0","test","27","Obsidian","Obsidian","12","true","5","5","",""
"","","","","","","","","","","","html-keyboard-response","60","2.0.0","267666","665f930d862dcdc6bfde540e","2","29","null","","","","","","","","","<p style='font-size: 30px;'><strong>Okay</strong></p>","null","neutral_feedback","0","test","27","","","","","","","",""
"","","","","","","","","","","","html-button-response","61","2.0.0","270634","665f930d862dcdc6bfde540e","2","29","2967","","","","","","","","","<img src= ""rock_img/I_Pumice_06.jpg"" style=""width:8cm; height:6.9399999999999995cm;""><p>What type of rock is this?</p>","6","class_response","0","test","28","Peridotite","Pumice","06","false","7","8","",""
"","","","","","","","","","","","html-keyboard-response","62","2.0.0","271136","665f930d862dcdc6bfde540e","2","29","null","","","","","","","","","<p style='font-size: 30px;'><strong>Okay</strong></p>","null","neutral_feedback","0","test","28","","","","","","","",""
"","","","","","","","","","","","html-button-response","63","2.0.0","272964","665f930d862dcdc6bfde540e","2","29","1827","","","","","","","","","<img src= ""rock_img/I_Andesite_06.jpg"" style=""width:8cm; height:6.840000000000001cm;""><p>What type of rock is this?</p>","5","class_response","0","test","29","Pegmatite","Andesite","06","false","6","1","",""
"","","","","","","","","","","","html-keyboard-response","64","2.0.0","273465","665f930d862dcdc6bfde540e","2","29","null","","","","","","","","","<p style='font-size: 30px;'><strong>Okay</strong></p>","null","neutral_feedback","0","test","29","","","","","","","",""
"","","","","","","","","","","","html-button-response","65","2.0.0","274649","665f930d862dcdc6bfde540e","2","29","1184","","","","","","","","","<img src= ""rock_img/I_Obsidian_10.jpg"" style=""width:8cm; height:6.260000000000001cm;""><p>What type of rock is this?</p>","4","class_response","0","test","30","Obsidian","Obsidian","10","true","5","5","",""
"","","","","","","","","","","","html-keyboard-response","66","2.0.0","275152","665f930d862dcdc6bfde540e","2","29","null","","","","","","","","","<p style='font-size: 30px;'><strong>Okay</strong></p>","null","neutral_feedback","0","test","30","","","","","","","",""
"","","","","","","","","","","","html-button-response","67","2.0.0","276821","665f930d862dcdc6bfde540e","2","29","1668","","","","","","","","","<img src= ""rock_img/I_Gabbro_09.jpg"" style=""width:8cm; height:7.279999999999999cm;""><p>What type of rock is this?</p>","4","class_response","0","test","31","Obsidian","Gabbro","09","false","5","4","",""
"","","","","","","","","","","","html-keyboard-response","68","2.0.0","277329","665f930d862dcdc6bfde540e","2","29","null","","","","","","","","","<p style='font-size: 30px;'><strong>Okay</strong></p>","null","neutral_feedback","0","test","31","","","","","","","",""
"","","","","","","","","","","","html-button-response","69","2.0.0","279332","665f930d862dcdc6bfde540e","2","29","2001","","","","","","","","","<img src= ""rock_img/I_Peridotite_04.jpg"" style=""width:8cm; height:6.680000000000001cm;""><p>What type of rock is this?</p>","7","class_response","0","test","32","Pumice","Peridotite","04","false","8","7","",""
"","","","","","","","","","","","html-keyboard-response","70","2.0.0","279838","665f930d862dcdc6bfde540e","2","29","null","","","","","","","","","<p style='font-size: 30px;'><strong>Okay</strong></p>","null","neutral_feedback","0","test","32","","","","","","","",""
"","","","","","","","","","","","html-button-response","71","2.0.0","281894","665f930d862dcdc6bfde540e","2","29","2055","","","","","","","","","<img src= ""rock_img/I_Peridotite_02.jpg"" style=""width:8cm; height:5.859999999999999cm;""><p>What type of rock is this?</p>","2","class_response","0","test","33","Diorite","Peridotite","02","false","3","7","",""
"","","","","","","","","","","","html-keyboard-response","72","2.0.0","282402","665f930d862dcdc6bfde540e","2","29","null","","","","","","","","","<p style='font-size: 30px;'><strong>Okay</strong></p>","null","neutral_feedback","0","test","33","","","","","","","",""
"","","","","","","","","","","","html-button-response","73","2.0.0","285134","665f930d862dcdc6bfde540e","2","29","2731","","","","","","","","","<img src= ""rock_img/I_Pumice_14.jpg"" style=""width:8cm; height:6.39cm;""><p>What type of rock is this?</p>","0","class_response","0","test","34","Andesite","Pumice","14","false","1","8","",""
"","","","","","","","","","","","html-keyboard-response","74","2.0.0","285641","665f930d862dcdc6bfde540e","2","29","null","","","","","","","","","<p style='font-size: 30px;'><strong>Okay</strong></p>","null","neutral_feedback","0","test","34","","","","","","","",""
"","","","","","","","","","","","html-button-response","75","2.0.0","292867","665f930d862dcdc6bfde540e","2","29","7224","","","","","","","","","<img src= ""rock_img/I_Basalt_05.jpg"" style=""width:8cm; height:8.18cm;""><p>What type of rock is this?</p>","4","class_response","0","test","35","Obsidian","Basalt","05","false","5","2","",""
"","","","","","","","","","","","html-keyboard-response","76","2.0.0","293376","665f930d862dcdc6bfde540e","2","29","null","","","","","","","","","<p style='font-size: 30px;'><strong>Okay</strong></p>","null","neutral_feedback","0","test","35","","","","","","","",""
"","","","","","","","","","","","html-button-response","77","2.0.0","295395","665f930d862dcdc6bfde540e","2","29","2018","","","","","","","","","<img src= ""rock_img/I_Pumice_10.jpg"" style=""width:8cm; height:7.609999999999999cm;""><p>What type of rock is this?</p>","7","class_response","0","test","36","Pumice","Pumice","10","true","8","8","",""
"","","","","","","","","","","","html-keyboard-response","78","2.0.0","295904","665f930d862dcdc6bfde540e","2","29","null","","","","","","","","","<p style='font-size: 30px;'><strong>Okay</strong></p>","null","neutral_feedback","0","test","36","","","","","","","",""
"","","","","","","","","","","","html-button-response","79","2.0.0","298585","665f930d862dcdc6bfde540e","2","29","2679","","","","","","","","","<img src= ""rock_img/I_Basalt_16.jpg"" style=""width:8cm; height:7.659999999999999cm;""><p>What type of rock is this?</p>","3","class_response","0","test","37","Gabbro","Basalt","16","false","4","2","",""
"","","","","","","","","","","","html-keyboard-response","80","2.0.0","299098","665f930d862dcdc6bfde540e","2","29","null","","","","","","","","","<p style='font-size: 30px;'><strong>Okay</strong></p>","null","neutral_feedback","0","test","37","","","","","","","",""
"","","","","","","","","","","","html-button-response","81","2.0.0","301284","665f930d862dcdc6bfde540e","2","29","2185","","","","","","","","","<img src= ""rock_img/I_Basalt_12.jpg"" style=""width:8cm; height:6.010000000000001cm;""><p>What type of rock is this?</p>","2","class_response","0","test","38","Diorite","Basalt","12","false","3","2","",""
"","","","","","","","","","","","html-keyboard-response","82","2.0.0","301791","665f930d862dcdc6bfde540e","2","29","null","","","","","","","","","<p style='font-size: 30px;'><strong>Okay</strong></p>","null","neutral_feedback","0","test","38","","","","","","","",""
"","","","","","","","","","","","html-button-response","83","2.0.0","303470","665f930d862dcdc6bfde540e","2","29","1677","","","","","","","","","<img src= ""rock_img/I_Pegmatite_07.jpg"" style=""width:8cm; height:6.7cm;""><p>What type of rock is this?</p>","4","class_response","0","test","39","Obsidian","Pegmatite","07","false","5","6","",""
"","","","","","","","","","","","html-keyboard-response","84","2.0.0","303982","665f930d862dcdc6bfde540e","2","29","null","","","","","","","","","<p style='font-size: 30px;'><strong>Okay</strong></p>","null","neutral_feedback","0","test","39","","","","","","","",""
"","","","","","","","","","","","html-button-response","85","2.0.0","305627","665f930d862dcdc6bfde540e","2","29","1644","","","","","","","","","<img src= ""rock_img/I_Peridotite_10.jpg"" style=""width:8cm; height:5.390000000000001cm;""><p>What type of rock is this?</p>","3","class_response","0","test","40","Gabbro","Peridotite","10","false","4","7","",""
"","","","","","","","","","","","html-keyboard-response","86","2.0.0","306128","665f930d862dcdc6bfde540e","2","29","null","","","","","","","","","<p style='font-size: 30px;'><strong>Okay</strong></p>","null","neutral_feedback","0","test","40","","","","","","","",""
"","","","","","","","","","","","html-button-response","87","2.0.0","308014","665f930d862dcdc6bfde540e","2","29","1885","","","","","","","","","<img src= ""rock_img/I_Peridotite_06.jpg"" style=""width:8cm; height:7.53cm;""><p>What type of rock is this?</p>","4","class_response","0","test","41","Obsidian","Peridotite","06","false","5","7","",""
"","","","","","","","","","","","html-keyboard-response","88","2.0.0","308518","665f930d862dcdc6bfde540e","2","29","null","","","","","","","","","<p style='font-size: 30px;'><strong>Okay</strong></p>","null","neutral_feedback","0","test","41","","","","","","","",""
"","","","","","","","","","","","html-button-response","89","2.0.0","311111","665f930d862dcdc6bfde540e","2","29","2592","","","","","","","","","<img src= ""rock_img/I_Pegmatite_08.jpg"" style=""width:8cm; height:7.68cm;""><p>What type of rock is this?</p>","4","class_response","0","test","42","Obsidian","Pegmatite","08","false","5","6","",""
"","","","","","","","","","","","html-keyboard-response","90","2.0.0","311620","665f930d862dcdc6bfde540e","2","29","null","","","","","","","","","<p style='font-size: 30px;'><strong>Okay</strong></p>","null","neutral_feedback","0","test","42","","","","","","","",""
"","","","","","","","","","","","html-button-response","91","2.0.0","312853","665f930d862dcdc6bfde540e","2","29","1232","","","","","","","","","<img src= ""rock_img/I_Obsidian_08.jpg"" style=""width:8cm; height:7.39cm;""><p>What type of rock is this?</p>","4","class_response","0","test","43","Obsidian","Obsidian","08","true","5","5","",""
"","","","","","","","","","","","html-keyboard-response","92","2.0.0","313365","665f930d862dcdc6bfde540e","2","29","null","","","","","","","","","<p style='font-size: 30px;'><strong>Okay</strong></p>","null","neutral_feedback","0","test","43","","","","","","","",""
"","","","","","","","","","","","html-button-response","93","2.0.0","315158","665f930d862dcdc6bfde540e","2","29","1791","","","","","","","","","<img src= ""rock_img/I_Peridotite_15.jpg"" style=""width:8cm; height:6cm;""><p>What type of rock is this?</p>","3","class_response","0","test","44","Gabbro","Peridotite","15","false","4","7","",""
"","","","","","","","","","","","html-keyboard-response","94","2.0.0","315660","665f930d862dcdc6bfde540e","2","29","null","","","","","","","","","<p style='font-size: 30px;'><strong>Okay</strong></p>","null","neutral_feedback","0","test","44","","","","","","","",""
"","","","","","","","","","","","html-button-response","95","2.0.0","319491","665f930d862dcdc6bfde540e","2","29","3830","","","","","","","","","<img src= ""rock_img/I_Basalt_09.jpg"" style=""width:8cm; height:6.2cm;""><p>What type of rock is this?</p>","0","class_response","0","test","45","Andesite","Basalt","09","false","1","2","",""
"","","","","","","","","","","","html-keyboard-response","96","2.0.0","320005","665f930d862dcdc6bfde540e","2","29","null","","","","","","","","","<p style='font-size: 30px;'><strong>Okay</strong></p>","null","neutral_feedback","0","test","45","","","","","","","",""
"","","","","","","","","","","","html-button-response","97","2.0.0","321542","665f930d862dcdc6bfde540e","2","29","1536","","","","","","","","","<img src= ""rock_img/I_Pegmatite_03.jpg"" style=""width:8cm; height:5.239999999999999cm;""><p>What type of rock is this?</p>","2","class_response","0","test","46","Diorite","Pegmatite","03","false","3","6","",""
"","","","","","","","","","","","html-keyboard-response","98","2.0.0","322055","665f930d862dcdc6bfde540e","2","29","null","","","","","","","","","<p style='font-size: 30px;'><strong>Okay</strong></p>","null","neutral_feedback","0","test","46","","","","","","","",""
"","","","","","","","","","","","html-button-response","99","2.0.0","322966","665f930d862dcdc6bfde540e","2","29","910","","","","","","","","","<img src= ""rock_img/I_Obsidian_04.jpg"" style=""width:8cm; height:6.930000000000001cm;""><p>What type of rock is this?</p>","4","class_response","0","test","47","Obsidian","Obsidian","04","true","5","5","",""
"","","","","","","","","","","","html-keyboard-response","100","2.0.0","323477","665f930d862dcdc6bfde540e","2","29","null","","","","","","","","","<p style='font-size: 30px;'><strong>Okay</strong></p>","null","neutral_feedback","0","test","47","","","","","","","",""
"","","","","","","","","","","","html-button-response","101","2.0.0","324852","665f930d862dcdc6bfde540e","2","29","1374","","","","","","","","","<img src= ""rock_img/I_Pumice_02.jpg"" style=""width:8cm; height:7.3999999999999995cm;""><p>What type of rock is this?</p>","7","class_response","0","test","48","Pumice","Pumice","02","true","8","8","",""
"","","","","","","","","","","","html-keyboard-response","102","2.0.0","325354","665f930d862dcdc6bfde540e","2","29","null","","","","","","","","","<p style='font-size: 30px;'><strong>Okay</strong></p>","null","neutral_feedback","0","test","48","","","","","","","",""
"","","","","","","","","","","","instructions","103","2.0.0","355129","665f930d862dcdc6bfde540e","2","29","29753","","","","","","","","[{""page_index"":0,""viewing_time"":7464},{""page_index"":1,""viewing_time"":3651},{""page_index"":2,""viewing_time"":18638}]","","","","","","","","","","","","","",""
"","","","","","","","","","","","html-button-response","104","2.0.0","359475","665f930d862dcdc6bfde540e","2","29","4344","","","","","","","","","","0","start_train","","","","","","","","","","",""
"","","","","","","","","","","","html-button-response","105","2.0.0","362380","665f930d862dcdc6bfde540e","2","29","2904","","","","","","","","","<img src= ""rock_img/I_Pegmatite_15.jpg"" style=""width:8cm; height:6cm;""><p>What type of rock is this?</p>","2","class_response","1","train","1","Diorite","Pegmatite","15","false","3","6","",""
"","","","","","","","","","","","html-button-response","106","2.0.0","389179","665f930d862dcdc6bfde540e","2","29","26797","","","","","","","","","<img src= rock_img/I_Pegmatite_15.jpg style=""width:8cm; height:6cm;""><p style='font-size: 30px; color: red;'><strong>Incorrect!</strong></p><p style='font-size: 30px;'><strong>This rock is pegmatite</strong></p>","0","corr_feedback","1","train","1","","","","","","","",""
"","","","","","","","","","","","html-button-response","107","2.0.0","392652","665f930d862dcdc6bfde540e","2","29","3471","","","","","","","","","<img src= ""rock_img/I_Gabbro_10.jpg"" style=""width:8cm; height:5.680000000000001cm;""><p>What type of rock is this?</p>","1","class_response","1","train","2","Basalt","Gabbro","10","false","2","4","",""
"","","","","","","","","","","","html-button-response","108","2.0.0","412017","665f930d862dcdc6bfde540e","2","29","19363","","","","","","","","","<img src= rock_img/I_Gabbro_10.jpg style=""width:8cm; height:5.680000000000001cm;""><p style='font-size: 30px; color: red;'><strong>Incorrect!</strong></p><p style='font-size: 30px;'><strong>This rock is gabbro</strong></p>","0","corr_feedback","1","train","2","","","","","","","",""
"","","","","","","","","","","","html-button-response","109","2.0.0","416683","665f930d862dcdc6bfde540e","2","29","4665","","","","","","","","","<img src= ""rock_img/I_Basalt_14.jpg"" style=""width:8cm; height:5.82cm;""><p>What type of rock is this?</p>","1","class_response","1","train","3","Basalt","Basalt","14","true","2","2","",""
"","","","","","","","","","","","html-button-response","110","2.0.0","433090","665f930d862dcdc6bfde540e","2","29","16406","","","","","","","","","<img src= rock_img/I_Basalt_14.jpg style=""width:8cm; height:5.82cm;""><p style='font-size: 30px; color: green;'><strong>Correct!</strong></p><p style='font-size: 30px;'><strong>This rock is basalt</strong></p>","0","corr_feedback","1","train","3","","","","","","","",""
"","","","","","","","","","","","html-button-response","111","2.0.0","434656","665f930d862dcdc6bfde540e","2","29","1565","","","","","","","","","<img src= ""rock_img/I_Pumice_15.jpg"" style=""width:8cm; height:7.86cm;""><p>What type of rock is this?</p>","7","class_response","1","train","4","Pumice","Pumice","15","true","8","8","",""
"","","","","","","","","","","","html-button-response","112","2.0.0","442267","665f930d862dcdc6bfde540e","2","29","7610","","","","","","","","","<img src= rock_img/I_Pumice_15.jpg style=""width:8cm; height:7.86cm;""><p style='font-size: 30px; color: green;'><strong>Correct!</strong></p><p style='font-size: 30px;'><strong>This rock is pumice</strong></p>","0","corr_feedback","1","train","4","","","","","","","",""
"","","","","","","","","","","","html-button-response","113","2.0.0","445025","665f930d862dcdc6bfde540e","2","29","2757","","","","","","","","","<img src= ""rock_img/I_Pegmatite_05.jpg"" style=""width:8cm; height:7.300000000000001cm;""><p>What type of rock is this?</p>","2","class_response","1","train","5","Diorite","Pegmatite","05","false","3","6","",""
"","","","","","","","","","","","html-button-response","114","2.0.0","449827","665f930d862dcdc6bfde540e","2","29","4801","","","","","","","","","<img src= rock_img/I_Pegmatite_05.jpg style=""width:8cm; height:7.300000000000001cm;""><p style='font-size: 30px; color: red;'><strong>Incorrect!</strong></p><p style='font-size: 30px;'><strong>This rock is pegmatite</strong></p>","0","corr_feedback","1","train","5","","","","","","","",""
"","","","","","","","","","","","html-button-response","115","2.0.0","452856","665f930d862dcdc6bfde540e","2","29","3028","","","","","","","","","<img src= ""rock_img/I_Peridotite_12.jpg"" style=""width:8cm; height:4.54cm;""><p>What type of rock is this?</p>","0","class_response","1","train","6","Andesite","Peridotite","12","false","1","7","",""
"","","","","","","","","","","","html-button-response","116","2.0.0","470798","665f930d862dcdc6bfde540e","2","29","17940","","","","","","","","","<img src= rock_img/I_Peridotite_12.jpg style=""width:8cm; height:4.54cm;""><p style='font-size: 30px; color: red;'><strong>Incorrect!</strong></p><p style='font-size: 30px;'><strong>This rock is peridotite</strong></p>","0","corr_feedback","1","train","6","","","","","","","",""
"","","","","","","","","","","","html-button-response","117","2.0.0","473667","665f930d862dcdc6bfde540e","2","29","2867","","","","","","","","","<img src= ""rock_img/I_Pegmatite_10.jpg"" style=""width:8cm; height:4.16cm;""><p>What type of rock is this?</p>","0","class_response","1","train","7","Andesite","Pegmatite","10","false","1","6","",""
"","","","","","","","","","","","html-button-response","118","2.0.0","481514","665f930d862dcdc6bfde540e","2","29","7846","","","","","","","","","<img src= rock_img/I_Pegmatite_10.jpg style=""width:8cm; height:4.16cm;""><p style='font-size: 30px; color: red;'><strong>Incorrect!</strong></p><p style='font-size: 30px;'><strong>This rock is pegmatite</strong></p>","0","corr_feedback","1","train","7","","","","","","","",""
"","","","","","","","","","","","html-button-response","119","2.0.0","485573","665f930d862dcdc6bfde540e","2","29","4058","","","","","","","","","<img src= ""rock_img/I_Peridotite_05.jpg"" style=""width:8cm; height:7.1499999999999995cm;""><p>What type of rock is this?</p>","0","class_response","1","train","8","Andesite","Peridotite","05","false","1","7","",""
"","","","","","","","","","","","html-button-response","120","2.0.0","494335","665f930d862dcdc6bfde540e","2","29","8761","","","","","","","","","<img src= rock_img/I_Peridotite_05.jpg style=""width:8cm; height:7.1499999999999995cm;""><p style='font-size: 30px; color: red;'><strong>Incorrect!</strong></p><p style='font-size: 30px;'><strong>This rock is peridotite</strong></p>","0","corr_feedback","1","train","8","","","","","","","",""
"","","","","","","","","","","","html-button-response","121","2.0.0","499800","665f930d862dcdc6bfde540e","2","29","5464","","","","","","","","","<img src= ""rock_img/I_Gabbro_12.jpg"" style=""width:8cm; height:7.800000000000001cm;""><p>What type of rock is this?</p>","3","class_response","1","train","9","Gabbro","Gabbro","12","true","4","4","",""
"","","","","","","","","","","","html-button-response","122","2.0.0","501351","665f930d862dcdc6bfde540e","2","29","1550","","","","","","","","","<img src= rock_img/I_Gabbro_12.jpg style=""width:8cm; height:7.800000000000001cm;""><p style='font-size: 30px; color: green;'><strong>Correct!</strong></p><p style='font-size: 30px;'><strong>This rock is gabbro</strong></p>","0","corr_feedback","1","train","9","","","","","","","",""
"","","","","","","","","","","","html-button-response","123","2.0.0","505605","665f930d862dcdc6bfde540e","2","29","4253","","","","","","","","","<img src= ""rock_img/I_Diorite_09.jpg"" style=""width:8cm; height:5.27cm;""><p>What type of rock is this?</p>","5","class_response","1","train","10","Pegmatite","Diorite","09","false","6","3","",""
"","","","","","","","","","","","html-button-response","124","2.0.0","533213","665f930d862dcdc6bfde540e","2","29","27606","","","","","","","","","<img src= rock_img/I_Diorite_09.jpg style=""width:8cm; height:5.27cm;""><p style='font-size: 30px; color: red;'><strong>Incorrect!</strong></p><p style='font-size: 30px;'><strong>This rock is diorite</strong></p>","0","corr_feedback","1","train","10","","","","","","","",""
"","","","","","","","","","","","html-button-response","125","2.0.0","535525","665f930d862dcdc6bfde540e","2","29","2311","","","","","","","","","<img src= ""rock_img/I_Pumice_03.jpg"" style=""width:8cm; height:6.64cm;""><p>What type of rock is this?</p>","7","class_response","1","train","11","Pumice","Pumice","03","true","8","8","",""
"","","","","","","","","","","","html-button-response","126","2.0.0","536868","665f930d862dcdc6bfde540e","2","29","1342","","","","","","","","","<img src= rock_img/I_Pumice_03.jpg style=""width:8cm; height:6.64cm;""><p style='font-size: 30px; color: green;'><strong>Correct!</strong></p><p style='font-size: 30px;'><strong>This rock is pumice</strong></p>","0","corr_feedback","1","train","11","","","","","","","",""
"","","","","","","","","","","","html-button-response","127","2.0.0","541278","665f930d862dcdc6bfde540e","2","29","4408","","","","","","","","","<img src= ""rock_img/I_Gabbro_13.jpg"" style=""width:8cm; height:5.08cm;""><p>What type of rock is this?</p>","1","class_response","1","train","12","Basalt","Gabbro","13","false","2","4","",""
"","","","","","","","","","","","html-button-response","128","2.0.0","546002","665f930d862dcdc6bfde540e","2","29","4722","","","","","","","","","<img src= rock_img/I_Gabbro_13.jpg style=""width:8cm; height:5.08cm;""><p style='font-size: 30px; color: red;'><strong>Incorrect!</strong></p><p style='font-size: 30px;'><strong>This rock is gabbro</strong></p>","0","corr_feedback","1","train","12","","","","","","","",""
"","","","","","","","","","","","html-button-response","129","2.0.0","549913","665f930d862dcdc6bfde540e","2","29","3910","","","","","","","","","<img src= ""rock_img/I_Andesite_10.jpg"" style=""width:8cm; height:4.16cm;""><p>What type of rock is this?</p>","3","class_response","1","train","13","Gabbro","Andesite","10","false","4","1","",""
"","","","","","","","","","","","html-button-response","130","2.0.0","572050","665f930d862dcdc6bfde540e","2","29","22135","","","","","","","","","<img src= rock_img/I_Andesite_10.jpg style=""width:8cm; height:4.16cm;""><p style='font-size: 30px; color: red;'><strong>Incorrect!</strong></p><p style='font-size: 30px;'><strong>This rock is andesite</strong></p>","0","corr_feedback","1","train","13","","","","","","","",""
"","","","","","","","","","","","html-button-response","131","2.0.0","574136","665f930d862dcdc6bfde540e","2","29","2084","","","","","","","","","<img src= ""rock_img/I_Pumice_04.jpg"" style=""width:8cm; height:6.819999999999999cm;""><p>What type of rock is this?</p>","7","class_response","1","train","14","Pumice","Pumice","04","true","8","8","",""
"","","","","","","","","","","","html-button-response","132","2.0.0","575160","665f930d862dcdc6bfde540e","2","29","1023","","","","","","","","","<img src= rock_img/I_Pumice_04.jpg style=""width:8cm; height:6.819999999999999cm;""><p style='font-size: 30px; color: green;'><strong>Correct!</strong></p><p style='font-size: 30px;'><strong>This rock is pumice</strong></p>","0","corr_feedback","1","train","14","","","","","","","",""
"","","","","","","","","","","","html-button-response","133","2.0.0","581738","665f930d862dcdc6bfde540e","2","29","6576","","","","","","","","","<img src= ""rock_img/I_Peridotite_14.jpg"" style=""width:8cm; height:5.3cm;""><p>What type of rock is this?</p>","6","class_response","1","train","15","Peridotite","Peridotite","14","true","7","7","",""
"","","","","","","","","","","","html-button-response","134","2.0.0","582718","665f930d862dcdc6bfde540e","2","29","979","","","","","","","","","<img src= rock_img/I_Peridotite_14.jpg style=""width:8cm; height:5.3cm;""><p style='font-size: 30px; color: green;'><strong>Correct!</strong></p><p style='font-size: 30px;'><strong>This rock is peridotite</strong></p>","0","corr_feedback","1","train","15","","","","","","","",""
"","","","","","","","","","","","html-button-response","135","2.0.0","588111","665f930d862dcdc6bfde540e","2","29","5392","","","","","","","","","<img src= ""rock_img/I_Gabbro_12.jpg"" style=""width:8cm; height:7.800000000000001cm;""><p>What type of rock is this?</p>","3","class_response","1","train","16","Gabbro","Gabbro","12","true","4","4","",""
"","","","","","","","","","","","html-button-response","136","2.0.0","589351","665f930d862dcdc6bfde540e","2","29","1239","","","","","","","","","<img src= rock_img/I_Gabbro_12.jpg style=""width:8cm; height:7.800000000000001cm;""><p style='font-size: 30px; color: green;'><strong>Correct!</strong></p><p style='font-size: 30px;'><strong>This rock is gabbro</strong></p>","0","corr_feedback","1","train","16","","","","","","","",""
"","","","","","","","","","","","html-button-response","137","2.0.0","598843","665f930d862dcdc6bfde540e","2","29","9490","","","","","","","","","<img src= ""rock_img/I_Andesite_05.jpg"" style=""width:8cm; height:4.12cm;""><p>What type of rock is this?</p>","0","class_response","1","train","17","Andesite","Andesite","05","true","1","1","",""
"","","","","","","","","","","","html-button-response","138","2.0.0","600067","665f930d862dcdc6bfde540e","2","29","1223","","","","","","","","","<img src= rock_img/I_Andesite_05.jpg style=""width:8cm; height:4.12cm;""><p style='font-size: 30px; color: green;'><strong>Correct!</strong></p><p style='font-size: 30px;'><strong>This rock is andesite</strong></p>","0","corr_feedback","1","train","17","","","","","","","",""
"","","","","","","","","","","","html-button-response","139","2.0.0","611262","665f930d862dcdc6bfde540e","2","29","11194","","","","","","","","","<img src= ""rock_img/I_Basalt_01.jpg"" style=""width:8cm; height:7.880000000000001cm;""><p>What type of rock is this?</p>","3","class_response","1","train","18","Gabbro","Basalt","01","false","4","2","",""
"","","","","","","","","","","","html-button-response","140","2.0.0","615217","665f930d862dcdc6bfde540e","2","29","3954","","","","","","","","","<img src= rock_img/I_Basalt_01.jpg style=""width:8cm; height:7.880000000000001cm;""><p style='font-size: 30px; color: red;'><strong>Incorrect!</strong></p><p style='font-size: 30px;'><strong>This rock is basalt</strong></p>","0","corr_feedback","1","train","18","","","","","","","",""
"","","","","","","","","","","","html-button-response","141","2.0.0","619839","665f930d862dcdc6bfde540e","2","29","4621","","","","","","","","","<img src= ""rock_img/I_Peridotite_16.jpg"" style=""width:8cm; height:6.989999999999999cm;""><p>What type of rock is this?</p>","3","class_response","1","train","19","Gabbro","Peridotite","16","false","4","7","",""
"","","","","","","","","","","","html-button-response","142","2.0.0","627918","665f930d862dcdc6bfde540e","2","29","8078","","","","","","","","","<img src= rock_img/I_Peridotite_16.jpg style=""width:8cm; height:6.989999999999999cm;""><p style='font-size: 30px; color: red;'><strong>Incorrect!</strong></p><p style='font-size: 30px;'><strong>This rock is peridotite</strong></p>","0","corr_feedback","1","train","19","","","","","","","",""
"","","","","","","","","","","","html-button-response","143","2.0.0","633290","665f930d862dcdc6bfde540e","2","29","5371","","","","","","","","","<img src= ""rock_img/I_Basalt_10.jpg"" style=""width:8cm; height:5.85cm;""><p>What type of rock is this?</p>","1","class_response","1","train","20","Basalt","Basalt","10","true","2","2","",""
"","","","","","","","","","","","html-button-response","144","2.0.0","634603","665f930d862dcdc6bfde540e","2","29","1311","","","","","","","","","<img src= rock_img/I_Basalt_10.jpg style=""width:8cm; height:5.85cm;""><p style='font-size: 30px; color: green;'><strong>Correct!</strong></p><p style='font-size: 30px;'><strong>This rock is basalt</strong></p>","0","corr_feedback","1","train","20","","","","","","","",""
"","","","","","","","","","","","html-button-response","145","2.0.0","635945","665f930d862dcdc6bfde540e","2","29","1341","","","","","","","","","<img src= ""rock_img/I_Obsidian_11.jpg"" style=""width:8cm; height:6.05cm;""><p>What type of rock is this?</p>","4","class_response","1","train","21","Obsidian","Obsidian","11","true","5","5","",""
"","","","","","","","","","","","html-button-response","146","2.0.0","636918","665f930d862dcdc6bfde540e","2","29","972","","","","","","","","","<img src= rock_img/I_Obsidian_11.jpg style=""width:8cm; height:6.05cm;""><p style='font-size: 30px; color: green;'><strong>Correct!</strong></p><p style='font-size: 30px;'><strong>This rock is obsidian</strong></p>","0","corr_feedback","1","train","21","","","","","","","",""
"","","","","","","","","","","","html-button-response","147","2.0.0","641309","665f930d862dcdc6bfde540e","2","29","4390","","","","","","","","","<img src= ""rock_img/I_Andesite_02.jpg"" style=""width:8cm; height:8.5cm;""><p>What type of rock is this?</p>","2","class_response","1","train","22","Diorite","Andesite","02","false","3","1","",""
"","","","","","","","","","","","html-button-response","148","2.0.0","647004","665f930d862dcdc6bfde540e","2","29","5694","","","","","","","","","<img src= rock_img/I_Andesite_02.jpg style=""width:8cm; height:8.5cm;""><p style='font-size: 30px; color: red;'><strong>Incorrect!</strong></p><p style='font-size: 30px;'><strong>This rock is andesite</strong></p>","0","corr_feedback","1","train","22","","","","","","","",""
"","","","","","","","","","","","html-button-response","149","2.0.0","656838","665f930d862dcdc6bfde540e","2","29","9833","","","","","","","","","<img src= ""rock_img/I_Andesite_04.jpg"" style=""width:8cm; height:5.96cm;""><p>What type of rock is this?</p>","5","class_response","1","train","23","Pegmatite","Andesite","04","false","6","1","",""
"","","","","","","","","","","","html-button-response","150","2.0.0","663277","665f930d862dcdc6bfde540e","2","29","6438","","","","","","","","","<img src= rock_img/I_Andesite_04.jpg style=""width:8cm; height:5.96cm;""><p style='font-size: 30px; color: red;'><strong>Incorrect!</strong></p><p style='font-size: 30px;'><strong>This rock is andesite</strong></p>","0","corr_feedback","1","train","23","","","","","","","",""
"","","","","","","","","","","","html-button-response","151","2.0.0","670381","665f930d862dcdc6bfde540e","2","29","7103","","","","","","","","","<img src= ""rock_img/I_Gabbro_15.jpg"" style=""width:8cm; height:6.29cm;""><p>What type of rock is this?</p>","3","class_response","1","train","24","Gabbro","Gabbro","15","true","4","4","",""
"","","","","","","","","","","","html-button-response","152","2.0.0","671521","665f930d862dcdc6bfde540e","2","29","1139","","","","","","","","","<img src= rock_img/I_Gabbro_15.jpg style=""width:8cm; height:6.29cm;""><p style='font-size: 30px; color: green;'><strong>Correct!</strong></p><p style='font-size: 30px;'><strong>This rock is gabbro</strong></p>","0","corr_feedback","1","train","24","","","","","","","",""
"","","","","","","","","","","","html-button-response","153","2.0.0","678072","665f930d862dcdc6bfde540e","2","29","6550","","","","","","","","","<img src= ""rock_img/I_Gabbro_08.jpg"" style=""width:8cm; height:5.15cm;""><p>What type of rock is this?</p>","0","class_response","1","train","25","Andesite","Gabbro","08","false","1","4","",""
"","","","","","","","","","","","html-button-response","154","2.0.0","681495","665f930d862dcdc6bfde540e","2","29","3422","","","","","","","","","<img src= rock_img/I_Gabbro_08.jpg style=""width:8cm; height:5.15cm;""><p style='font-size: 30px; color: red;'><strong>Incorrect!</strong></p><p style='font-size: 30px;'><strong>This rock is gabbro</strong></p>","0","corr_feedback","1","train","25","","","","","","","",""
"","","","","","","","","","","","html-button-response","155","2.0.0","686931","665f930d862dcdc6bfde540e","2","29","5435","","","","","","","","","<img src= ""rock_img/I_Andesite_01.jpg"" style=""width:8cm; height:5.87cm;""><p>What type of rock is this?</p>","3","class_response","1","train","26","Gabbro","Andesite","01","false","4","1","",""
"","","","","","","","","","","","html-button-response","156","2.0.0","688004","665f930d862dcdc6bfde540e","2","29","1072","","","","","","","","","<img src= rock_img/I_Andesite_01.jpg style=""width:8cm; height:5.87cm;""><p style='font-size: 30px; color: red;'><strong>Incorrect!</strong></p><p style='font-size: 30px;'><strong>This rock is andesite</strong></p>","0","corr_feedback","1","train","26","","","","","","","",""
"","","","","","","","","","","","html-button-response","157","2.0.0","699873","665f930d862dcdc6bfde540e","2","29","11868","","","","","","","","","<img src= ""rock_img/I_Andesite_04.jpg"" style=""width:8cm; height:5.96cm;""><p>What type of rock is this?</p>","0","class_response","1","train","27","Andesite","Andesite","04","true","1","1","",""
"","","","","","","","","","","","html-button-response","158","2.0.0","700825","665f930d862dcdc6bfde540e","2","29","951","","","","","","","","","<img src= rock_img/I_Andesite_04.jpg style=""width:8cm; height:5.96cm;""><p style='font-size: 30px; color: green;'><strong>Correct!</strong></p><p style='font-size: 30px;'><strong>This rock is andesite</strong></p>","0","corr_feedback","1","train","27","","","","","","","",""
"","","","","","","","","","","","html-button-response","159","2.0.0","702763","665f930d862dcdc6bfde540e","2","29","1937","","","","","","","","","<img src= ""rock_img/I_Basalt_04.jpg"" style=""width:8cm; height:7.53cm;""><p>What type of rock is this?</p>","4","class_response","1","train","28","Obsidian","Basalt","04","false","5","2","",""
"","","","","","","","","","","","html-button-response","160","2.0.0","704381","665f930d862dcdc6bfde540e","2","29","1617","","","","","","","","","<img src= rock_img/I_Basalt_04.jpg style=""width:8cm; height:7.53cm;""><p style='font-size: 30px; color: red;'><strong>Incorrect!</strong></p><p style='font-size: 30px;'><strong>This rock is basalt</strong></p>","0","corr_feedback","1","train","28","","","","","","","",""
"","","","","","","","","","","","html-button-response","161","2.0.0","711944","665f930d862dcdc6bfde540e","2","29","7561","","","","","","","","","<img src= ""rock_img/I_Diorite_10.jpg"" style=""width:8cm; height:5.949999999999999cm;""><p>What type of rock is this?</p>","2","class_response","1","train","29","Diorite","Diorite","10","true","3","3","",""
"","","","","","","","","","","","html-button-response","162","2.0.0","712833","665f930d862dcdc6bfde540e","2","29","888","","","","","","","","","<img src= rock_img/I_Diorite_10.jpg style=""width:8cm; height:5.949999999999999cm;""><p style='font-size: 30px; color: green;'><strong>Correct!</strong></p><p style='font-size: 30px;'><strong>This rock is diorite</strong></p>","0","corr_feedback","1","train","29","","","","","","","",""
"","","","","","","","","","","","html-button-response","163","2.0.0","716008","665f930d862dcdc6bfde540e","2","29","3173","","","","","","","","","<img src= ""rock_img/I_Basalt_14.jpg"" style=""width:8cm; height:5.82cm;""><p>What type of rock is this?</p>","1","class_response","1","train","30","Basalt","Basalt","14","true","2","2","",""
"","","","","","","","","","","","html-button-response","164","2.0.0","716749","665f930d862dcdc6bfde540e","2","29","740","","","","","","","","","<img src= rock_img/I_Basalt_14.jpg style=""width:8cm; height:5.82cm;""><p style='font-size: 30px; color: green;'><strong>Correct!</strong></p><p style='font-size: 30px;'><strong>This rock is basalt</strong></p>","0","corr_feedback","1","train","30","","","","","","","",""
"","","","","","","","","","","","html-button-response","165","2.0.0","720776","665f930d862dcdc6bfde540e","2","29","4026","","","","","","","","","<img src= ""rock_img/I_Pegmatite_11.jpg"" style=""width:8cm; height:8.14cm;""><p>What type of rock is this?</p>","5","class_response","1","train","31","Pegmatite","Pegmatite","11","true","6","6","",""
"","","","","","","","","","","","html-button-response","166","2.0.0","721669","665f930d862dcdc6bfde540e","2","29","892","","","","","","","","","<img src= rock_img/I_Pegmatite_11.jpg style=""width:8cm; height:8.14cm;""><p style='font-size: 30px; color: green;'><strong>Correct!</strong></p><p style='font-size: 30px;'><strong>This rock is pegmatite</strong></p>","0","corr_feedback","1","train","31","","","","","","","",""
"","","","","","","","","","","","html-button-response","167","2.0.0","727934","665f930d862dcdc6bfde540e","2","29","6263","","","","","","","","","<img src= ""rock_img/I_Diorite_14.jpg"" style=""width:8cm; height:5.71cm;""><p>What type of rock is this?</p>","2","class_response","1","train","32","Diorite","Diorite","14","true","3","3","",""
"","","","","","","","","","","","html-button-response","168","2.0.0","728955","665f930d862dcdc6bfde540e","2","29","1020","","","","","","","","","<img src= rock_img/I_Diorite_14.jpg style=""width:8cm; height:5.71cm;""><p style='font-size: 30px; color: green;'><strong>Correct!</strong></p><p style='font-size: 30px;'><strong>This rock is diorite</strong></p>","0","corr_feedback","1","train","32","","","","","","","",""
"","","","","","","","","","","","html-button-response","169","2.0.0","736495","665f930d862dcdc6bfde540e","2","29","7539","","","","","","","","","<img src= ""rock_img/I_Pegmatite_12.jpg"" style=""width:8cm; height:5.7cm;""><p>What type of rock is this?</p>","5","class_response","1","train","33","Pegmatite","Pegmatite","12","true","6","6","",""
"","","","","","","","","","","","html-button-response","170","2.0.0","737327","665f930d862dcdc6bfde540e","2","29","831","","","","","","","","","<img src= rock_img/I_Pegmatite_12.jpg style=""width:8cm; height:5.7cm;""><p style='font-size: 30px; color: green;'><strong>Correct!</strong></p><p style='font-size: 30px;'><strong>This rock is pegmatite</strong></p>","0","corr_feedback","1","train","33","","","","","","","",""
"","","","","","","","","","","","html-button-response","171","2.0.0","739406","665f930d862dcdc6bfde540e","2","29","2077","","","","","","","","","<img src= ""rock_img/I_Obsidian_06.jpg"" style=""width:8cm; height:6.8cm;""><p>What type of rock is this?</p>","4","class_response","1","train","34","Obsidian","Obsidian","06","true","5","5","",""
"","","","","","","","","","","","html-button-response","172","2.0.0","740172","665f930d862dcdc6bfde540e","2","29","764","","","","","","","","","<img src= rock_img/I_Obsidian_06.jpg style=""width:8cm; height:6.8cm;""><p style='font-size: 30px; color: green;'><strong>Correct!</strong></p><p style='font-size: 30px;'><strong>This rock is obsidian</strong></p>","0","corr_feedback","1","train","34","","","","","","","",""
"","","","","","","","","","","","html-button-response","173","2.0.0","744286","665f930d862dcdc6bfde540e","2","29","4113","","","","","","","","","<img src= ""rock_img/I_Peridotite_07.jpg"" style=""width:8cm; height:4.83cm;""><p>What type of rock is this?</p>","0","class_response","1","train","35","Andesite","Peridotite","07","false","1","7","",""
"","","","","","","","","","","","html-button-response","174","2.0.0","748617","665f930d862dcdc6bfde540e","2","29","4329","","","","","","","","","<img src= rock_img/I_Peridotite_07.jpg style=""width:8cm; height:4.83cm;""><p style='font-size: 30px; color: red;'><strong>Incorrect!</strong></p><p style='font-size: 30px;'><strong>This rock is peridotite</strong></p>","0","corr_feedback","1","train","35","","","","","","","",""
"","","","","","","","","","","","html-button-response","175","2.0.0","752177","665f930d862dcdc6bfde540e","2","29","3559","","","","","","","","","<img src= ""rock_img/I_Pegmatite_12.jpg"" style=""width:8cm; height:5.7cm;""><p>What type of rock is this?</p>","5","class_response","1","train","36","Pegmatite","Pegmatite","12","true","6","6","",""
"","","","","","","","","","","","html-button-response","176","2.0.0","753222","665f930d862dcdc6bfde540e","2","29","1043","","","","","","","","","<img src= rock_img/I_Pegmatite_12.jpg style=""width:8cm; height:5.7cm;""><p style='font-size: 30px; color: green;'><strong>Correct!</strong></p><p style='font-size: 30px;'><strong>This rock is pegmatite</strong></p>","0","corr_feedback","1","train","36","","","","","","","",""
"","","","","","","","","","","","html-button-response","177","2.0.0","760168","665f930d862dcdc6bfde540e","2","29","6945","","","","","","","","","<img src= ""rock_img/I_Peridotite_05.jpg"" style=""width:8cm; height:7.1499999999999995cm;""><p>What type of rock is this?</p>","1","class_response","1","train","37","Basalt","Peridotite","05","false","2","7","",""
"","","","","","","","","","","","html-button-response","178","2.0.0","764521","665f930d862dcdc6bfde540e","2","29","4351","","","","","","","","","<img src= rock_img/I_Peridotite_05.jpg style=""width:8cm; height:7.1499999999999995cm;""><p style='font-size: 30px; color: red;'><strong>Incorrect!</strong></p><p style='font-size: 30px;'><strong>This rock is peridotite</strong></p>","0","corr_feedback","1","train","37","","","","","","","",""
"","","","","","","","","","","","html-button-response","179","2.0.0","770535","665f930d862dcdc6bfde540e","2","29","6012","","","","","","","","","<img src= ""rock_img/I_Peridotite_08.jpg"" style=""width:8cm; height:6.7cm;""><p>What type of rock is this?</p>","2","class_response","1","train","38","Diorite","Peridotite","08","false","3","7","",""
"","","","","","","","","","","","html-button-response","180","2.0.0","772818","665f930d862dcdc6bfde540e","2","29","2282","","","","","","","","","<img src= rock_img/I_Peridotite_08.jpg style=""width:8cm; height:6.7cm;""><p style='font-size: 30px; color: red;'><strong>Incorrect!</strong></p><p style='font-size: 30px;'><strong>This rock is peridotite</strong></p>","0","corr_feedback","1","train","38","","","","","","","",""
"","","","","","","","","","","","html-button-response","181","2.0.0","777879","665f930d862dcdc6bfde540e","2","29","5060","","","","","","","","","<img src= ""rock_img/I_Gabbro_01.jpg"" style=""width:8cm; height:5.21cm;""><p>What type of rock is this?</p>","0","class_response","1","train","39","Andesite","Gabbro","01","false","1","4","",""
"","","","","","","","","","","","html-button-response","182","2.0.0","779103","665f930d862dcdc6bfde540e","2","29","1222","","","","","","","","","<img src= rock_img/I_Gabbro_01.jpg style=""width:8cm; height:5.21cm;""><p style='font-size: 30px; color: red;'><strong>Incorrect!</strong></p><p style='font-size: 30px;'><strong>This rock is gabbro</strong></p>","0","corr_feedback","1","train","39","","","","","","","",""
"","","","","","","","","","","","html-button-response","183","2.0.0","783710","665f930d862dcdc6bfde540e","2","29","4606","","","","","","","","","<img src= ""rock_img/I_Basalt_02.jpg"" style=""width:8cm; height:6.45cm;""><p>What type of rock is this?</p>","3","class_response","1","train","40","Gabbro","Basalt","02","false","4","2","",""
"","","","","","","","","","","","html-button-response","184","2.0.0","784737","665f930d862dcdc6bfde540e","2","29","1026","","","","","","","","","<img src= rock_img/I_Basalt_02.jpg style=""width:8cm; height:6.45cm;""><p style='font-size: 30px; color: red;'><strong>Incorrect!</strong></p><p style='font-size: 30px;'><strong>This rock is basalt</strong></p>","0","corr_feedback","1","train","40","","","","","","","",""
"","","","","","","","","","","","html-button-response","185","2.0.0","796239","665f930d862dcdc6bfde540e","2","29","11500","","","","","","","","","<img src= ""rock_img/I_Gabbro_13.jpg"" style=""width:8cm; height:5.08cm;""><p>What type of rock is this?</p>","1","class_response","1","train","41","Basalt","Gabbro","13","false","2","4","",""
"","","","","","","","","","","","html-button-response","186","2.0.0","797310","665f930d862dcdc6bfde540e","2","29","1070","","","","","","","","","<img src= rock_img/I_Gabbro_13.jpg style=""width:8cm; height:5.08cm;""><p style='font-size: 30px; color: red;'><strong>Incorrect!</strong></p><p style='font-size: 30px;'><strong>This rock is gabbro</strong></p>","0","corr_feedback","1","train","41","","","","","","","",""
"","","","","","","","","","","","html-button-response","187","2.0.0","805998","665f930d862dcdc6bfde540e","2","29","8686","","","","","","","","","<img src= ""rock_img/I_Diorite_08.jpg"" style=""width:8cm; height:6.37cm;""><p>What type of rock is this?</p>","2","class_response","1","train","42","Diorite","Diorite","08","true","3","3","",""
"","","","","","","","","","","","html-button-response","188","2.0.0","807099","665f930d862dcdc6bfde540e","2","29","1099","","","","","","","","","<img src= rock_img/I_Diorite_08.jpg style=""width:8cm; height:6.37cm;""><p style='font-size: 30px; color: green;'><strong>Correct!</strong></p><p style='font-size: 30px;'><strong>This rock is diorite</strong></p>","0","corr_feedback","1","train","42","","","","","","","",""
"","","","","","","","","","","","html-button-response","189","2.0.0","808857","665f930d862dcdc6bfde540e","2","29","1757","","","","","","","","","<img src= ""rock_img/I_Pumice_05.jpg"" style=""width:8cm; height:7.25cm;""><p>What type of rock is this?</p>","7","class_response","1","train","43","Pumice","Pumice","05","true","8","8","",""
"","","","","","","","","","","","html-button-response","190","2.0.0","809864","665f930d862dcdc6bfde540e","2","29","1006","","","","","","","","","<img src= rock_img/I_Pumice_05.jpg style=""width:8cm; height:7.25cm;""><p style='font-size: 30px; color: green;'><strong>Correct!</strong></p><p style='font-size: 30px;'><strong>This rock is pumice</strong></p>","0","corr_feedback","1","train","43","","","","","","","",""
"","","","","","","","","","","","html-button-response","191","2.0.0","814410","665f930d862dcdc6bfde540e","2","29","4545","","","","","","","","","<img src= ""rock_img/I_Pegmatite_06.jpg"" style=""width:8cm; height:5.17cm;""><p>What type of rock is this?</p>","5","class_response","1","train","44","Pegmatite","Pegmatite","06","true","6","6","",""
"","","","","","","","","","","","html-button-response","192","2.0.0","815302","665f930d862dcdc6bfde540e","2","29","891","","","","","","","","","<img src= rock_img/I_Pegmatite_06.jpg style=""width:8cm; height:5.17cm;""><p style='font-size: 30px; color: green;'><strong>Correct!</strong></p><p style='font-size: 30px;'><strong>This rock is pegmatite</strong></p>","0","corr_feedback","1","train","44","","","","","","","",""
"","","","","","","","","","","","html-button-response","193","2.0.0","824177","665f930d862dcdc6bfde540e","2","29","8874","","","","","","","","","<img src= ""rock_img/I_Andesite_07.jpg"" style=""width:8cm; height:5.93cm;""><p>What type of rock is this?</p>","3","class_response","1","train","45","Gabbro","Andesite","07","false","4","1","",""
"","","","","","","","","","","","html-button-response","194","2.0.0","825740","665f930d862dcdc6bfde540e","2","29","1562","","","","","","","","","<img src= rock_img/I_Andesite_07.jpg style=""width:8cm; height:5.93cm;""><p style='font-size: 30px; color: red;'><strong>Incorrect!</strong></p><p style='font-size: 30px;'><strong>This rock is andesite</strong></p>","0","corr_feedback","1","train","45","","","","","","","",""
"","","","","","","","","","","","html-button-response","195","2.0.0","833117","665f930d862dcdc6bfde540e","2","29","7376","","","","","","","","","<img src= ""rock_img/I_Peridotite_16.jpg"" style=""width:8cm; height:6.989999999999999cm;""><p>What type of rock is this?</p>","3","class_response","1","train","46","Gabbro","Peridotite","16","false","4","7","",""
"","","","","","","","","","","","html-button-response","196","2.0.0","834731","665f930d862dcdc6bfde540e","2","29","1613","","","","","","","","","<img src= rock_img/I_Peridotite_16.jpg style=""width:8cm; height:6.989999999999999cm;""><p style='font-size: 30px; color: red;'><strong>Incorrect!</strong></p><p style='font-size: 30px;'><strong>This rock is peridotite</strong></p>","0","corr_feedback","1","train","46","","","","","","","",""
"","","","","","","","","","","","html-button-response","197","2.0.0","838943","665f930d862dcdc6bfde540e","2","29","4211","","","","","","","","","<img src= ""rock_img/I_Basalt_11.jpg"" style=""width:8cm; height:5.359999999999999cm;""><p>What type of rock is this?</p>","1","class_response","1","train","47","Basalt","Basalt","11","true","2","2","",""
"","","","","","","","","","","","html-button-response","198","2.0.0","839849","665f930d862dcdc6bfde540e","2","29","905","","","","","","","","","<img src= rock_img/I_Basalt_11.jpg style=""width:8cm; height:5.359999999999999cm;""><p style='font-size: 30px; color: green;'><strong>Correct!</strong></p><p style='font-size: 30px;'><strong>This rock is basalt</strong></p>","0","corr_feedback","1","train","47","","","","","","","",""
"","","","","","","","","","","","html-button-response","199","2.0.0","841397","665f930d862dcdc6bfde540e","2","29","1547","","","","","","","","","<img src= ""rock_img/I_Pumice_09.jpg"" style=""width:8cm; height:6.44cm;""><p>What type of rock is this?</p>","7","class_response","1","train","48","Pumice","Pumice","09","true","8","8","",""
"","","","","","","","","","","","html-button-response","200","2.0.0","842204","665f930d862dcdc6bfde540e","2","29","806","","","","","","","","","<img src= rock_img/I_Pumice_09.jpg style=""width:8cm; height:6.44cm;""><p style='font-size: 30px; color: green;'><strong>Correct!</strong></p><p style='font-size: 30px;'><strong>This rock is pumice</strong></p>","0","corr_feedback","1","train","48","","","","","","","",""
"","","","","","","","","","","","instructions","203","2.0.0","866141","665f930d862dcdc6bfde540e","2","29","23935","","","","","","","","[{""page_index"":0,""viewing_time"":8191},{""page_index"":1,""viewing_time"":15744}]","","","","","","","","","","","","","",""
"","","","","","","","","","","","html-button-response","204","2.0.0","868137","665f930d862dcdc6bfde540e","2","29","1995","","","","","","","","","","0","start_test","","","","","","","","","","",""
"","","","","","","","","","","","html-button-response","205","2.0.0","887653","665f930d862dcdc6bfde540e","2","29","19515","","","","","","","","","<img src= ""rock_img/I_Gabbro_09.jpg"" style=""width:8cm; height:7.279999999999999cm;""><p>What type of rock is this?</p>","3","class_response","1","test","1","Gabbro","Gabbro","09","true","4","4","",""
"","","","","","","","","","","","html-keyboard-response","206","2.0.0","888164","665f930d862dcdc6bfde540e","2","29","null","","","","","","","","","<p style='font-size: 30px;'><strong>Okay</strong></p>","null","neutral_feedback","1","test","1","","","","","","","",""
"","","","","","","","","","","","html-button-response","207","2.0.0","900641","665f930d862dcdc6bfde540e","2","29","12476","","","","","","","","","<img src= ""rock_img/I_Diorite_02.jpg"" style=""width:8cm; height:6.27cm;""><p>What type of rock is this?</p>","6","class_response","1","test","2","Peridotite","Diorite","02","false","7","3","",""
"","","","","","","","","","","","html-keyboard-response","208","2.0.0","901156","665f930d862dcdc6bfde540e","2","29","null","","","","","","","","","<p style='font-size: 30px;'><strong>Okay</strong></p>","null","neutral_feedback","1","test","2","","","","","","","",""
"","","","","","","","","","","","html-button-response","209","2.0.0","909781","665f930d862dcdc6bfde540e","2","29","8624","","","","","","","","","<img src= ""rock_img/I_Basalt_05.jpg"" style=""width:8cm; height:8.18cm;""><p>What type of rock is this?</p>","1","class_response","1","test","3","Basalt","Basalt","05","true","2","2","",""
"","","","","","","","","","","","html-keyboard-response","210","2.0.0","910283","665f930d862dcdc6bfde540e","2","29","null","","","","","","","","","<p style='font-size: 30px;'><strong>Okay</strong></p>","null","neutral_feedback","1","test","3","","","","","","","",""
"","","","","","","","","","","","html-button-response","211","2.0.0","913688","665f930d862dcdc6bfde540e","2","29","3404","","","","","","","","","<img src= ""rock_img/I_Obsidian_05.jpg"" style=""width:8cm; height:6.33cm;""><p>What type of rock is this?</p>","4","class_response","1","test","4","Obsidian","Obsidian","05","true","5","5","",""
"","","","","","","","","","","","html-keyboard-response","212","2.0.0","914199","665f930d862dcdc6bfde540e","2","29","null","","","","","","","","","<p style='font-size: 30px;'><strong>Okay</strong></p>","null","neutral_feedback","1","test","4","","","","","","","",""
"","","","","","","","","","","","html-button-response","213","2.0.0","923025","665f930d862dcdc6bfde540e","2","29","8825","","","","","","","","","<img src= ""rock_img/I_Pegmatite_13.jpg"" style=""width:8cm; height:4.95cm;""><p>What type of rock is this?</p>","5","class_response","1","test","5","Pegmatite","Pegmatite","13","true","6","6","",""
"","","","","","","","","","","","html-keyboard-response","214","2.0.0","923528","665f930d862dcdc6bfde540e","2","29","null","","","","","","","","","<p style='font-size: 30px;'><strong>Okay</strong></p>","null","neutral_feedback","1","test","5","","","","","","","",""
"","","","","","","","","","","","html-button-response","215","2.0.0","925052","665f930d862dcdc6bfde540e","2","29","1523","","","","","","","","","<img src= ""rock_img/I_Pumice_14.jpg"" style=""width:8cm; height:6.39cm;""><p>What type of rock is this?</p>","7","class_response","1","test","6","Pumice","Pumice","14","true","8","8","",""
"","","","","","","","","","","","html-keyboard-response","216","2.0.0","925553","665f930d862dcdc6bfde540e","2","29","null","","","","","","","","","<p style='font-size: 30px;'><strong>Okay</strong></p>","null","neutral_feedback","1","test","6","","","","","","","",""
"","","","","","","","","","","","html-button-response","217","2.0.0","932681","665f930d862dcdc6bfde540e","2","29","7127","","","","","","","","","<img src= ""rock_img/I_Basalt_09.jpg"" style=""width:8cm; height:6.2cm;""><p>What type of rock is this?</p>","0","class_response","1","test","7","Andesite","Basalt","09","false","1","2","",""
"","","","","","","","","","","","html-keyboard-response","218","2.0.0","933187","665f930d862dcdc6bfde540e","2","29","null","","","","","","","","","<p style='font-size: 30px;'><strong>Okay</strong></p>","null","neutral_feedback","1","test","7","","","","","","","",""
"","","","","","","","","","","","html-button-response","219","2.0.0","951712","665f930d862dcdc6bfde540e","2","29","18524","","","","","","","","","<img src= ""rock_img/I_Diorite_15.jpg"" style=""width:8cm; height:5.54cm;""><p>What type of rock is this?</p>","2","class_response","1","test","8","Diorite","Diorite","15","true","3","3","",""
"","","","","","","","","","","","html-keyboard-response","220","2.0.0","952225","665f930d862dcdc6bfde540e","2","29","null","","","","","","","","","<p style='font-size: 30px;'><strong>Okay</strong></p>","null","neutral_feedback","1","test","8","","","","","","","",""
"","","","","","","","","","","","html-button-response","221","2.0.0","958206","665f930d862dcdc6bfde540e","2","29","5981","","","","","","","","","<img src= ""rock_img/I_Basalt_08.jpg"" style=""width:8cm; height:10.44cm;""><p>What type of rock is this?</p>","1","class_response","1","test","9","Basalt","Basalt","08","true","2","2","",""
"","","","","","","","","","","","html-keyboard-response","222","2.0.0","958710","665f930d862dcdc6bfde540e","2","29","null","","","","","","","","","<p style='font-size: 30px;'><strong>Okay</strong></p>","null","neutral_feedback","1","test","9","","","","","","","",""
"","","","","","","","","","","","html-button-response","223","2.0.0","962846","665f930d862dcdc6bfde540e","2","29","4135","","","","","","","","","<img src= ""rock_img/I_Pegmatite_07.jpg"" style=""width:8cm; height:6.7cm;""><p>What type of rock is this?</p>","5","class_response","1","test","10","Pegmatite","Pegmatite","07","true","6","6","",""
"","","","","","","","","","","","html-keyboard-response","224","2.0.0","963348","665f930d862dcdc6bfde540e","2","29","null","","","","","","","","","<p style='font-size: 30px;'><strong>Okay</strong></p>","null","neutral_feedback","1","test","10","","","","","","","",""
"","","","","","","","","","","","html-button-response","225","2.0.0","964640","665f930d862dcdc6bfde540e","2","29","1291","","","","","","","","","<img src= ""rock_img/I_Pumice_02.jpg"" style=""width:8cm; height:7.3999999999999995cm;""><p>What type of rock is this?</p>","7","class_response","1","test","11","Pumice","Pumice","02","true","8","8","",""
"","","","","","","","","","","","html-keyboard-response","226","2.0.0","965151","665f930d862dcdc6bfde540e","2","29","null","","","","","","","","","<p style='font-size: 30px;'><strong>Okay</strong></p>","null","neutral_feedback","1","test","11","","","","","","","",""
"","","","","","","","","","","","html-button-response","227","2.0.0","968840","665f930d862dcdc6bfde540e","2","29","3688","","","","","","","","","<img src= ""rock_img/I_Andesite_11.jpg"" style=""width:8cm; height:4.92cm;""><p>What type of rock is this?</p>","0","class_response","1","test","12","Andesite","Andesite","11","true","1","1","",""
"","","","","","","","","","","","html-keyboard-response","228","2.0.0","969346","665f930d862dcdc6bfde540e","2","29","null","","","","","","","","","<p style='font-size: 30px;'><strong>Okay</strong></p>","null","neutral_feedback","1","test","12","","","","","","","",""
"","","","","","","","","","","","html-button-response","229","2.0.0","976498","665f930d862dcdc6bfde540e","2","29","7150","","","","","","","","","<img src= ""rock_img/I_Pumice_13.jpg"" style=""width:8cm; height:8.200000000000001cm;""><p>What type of rock is this?</p>","7","class_response","1","test","13","Pumice","Pumice","13","true","8","8","",""
"","","","","","","","","","","","html-keyboard-response","230","2.0.0","977009","665f930d862dcdc6bfde540e","2","29","null","","","","","","","","","<p style='font-size: 30px;'><strong>Okay</strong></p>","null","neutral_feedback","1","test","13","","","","","","","",""
"","","","","","","","","","","","html-button-response","231","2.0.0","982184","665f930d862dcdc6bfde540e","2","29","5174","","","","","","","","","<img src= ""rock_img/I_Peridotite_15.jpg"" style=""width:8cm; height:6cm;""><p>What type of rock is this?</p>","6","class_response","1","test","14","Peridotite","Peridotite","15","true","7","7","",""
"","","","","","","","","","","","html-keyboard-response","232","2.0.0","982686","665f930d862dcdc6bfde540e","2","29","null","","","","","","","","","<p style='font-size: 30px;'><strong>Okay</strong></p>","null","neutral_feedback","1","test","14","","","","","","","",""
"","","","","","","","","","","","html-button-response","233","2.0.0","991851","665f930d862dcdc6bfde540e","2","29","9164","","","","","","","","","<img src= ""rock_img/I_Andesite_14.jpg"" style=""width:8cm; height:5.449999999999999cm;""><p>What type of rock is this?</p>","2","class_response","1","test","15","Diorite","Andesite","14","false","3","1","",""
"","","","","","","","","","","","html-keyboard-response","234","2.0.0","992369","665f930d862dcdc6bfde540e","2","29","null","","","","","","","","","<p style='font-size: 30px;'><strong>Okay</strong></p>","null","neutral_feedback","1","test","15","","","","","","","",""
"","","","","","","","","","","","html-button-response","235","2.0.0","999690","665f930d862dcdc6bfde540e","2","29","7319","","","","","","","","","<img src= ""rock_img/I_Pegmatite_03.jpg"" style=""width:8cm; height:5.239999999999999cm;""><p>What type of rock is this?</p>","6","class_response","1","test","16","Peridotite","Pegmatite","03","false","7","6","",""
"","","","","","","","","","","","html-keyboard-response","236","2.0.0","1000202","665f930d862dcdc6bfde540e","2","29","null","","","","","","","","","<p style='font-size: 30px;'><strong>Okay</strong></p>","null","neutral_feedback","1","test","16","","","","","","","",""
"","","","","","","","","","","","html-button-response","237","2.0.0","1003950","665f930d862dcdc6bfde540e","2","29","3747","","","","","","","","","<img src= ""rock_img/I_Diorite_11.jpg"" style=""width:8cm; height:7.11cm;""><p>What type of rock is this?</p>","2","class_response","1","test","17","Diorite","Diorite","11","true","3","3","",""
"","","","","","","","","","","","html-keyboard-response","238","2.0.0","1004464","665f930d862dcdc6bfde540e","2","29","null","","","","","","","","","<p style='font-size: 30px;'><strong>Okay</strong></p>","null","neutral_feedback","1","test","17","","","","","","","",""
"","","","","","","","","","","","html-button-response","239","2.0.0","1005703","665f930d862dcdc6bfde540e","2","29","1238","","","","","","","","","<img src= ""rock_img/I_Obsidian_10.jpg"" style=""width:8cm; height:6.260000000000001cm;""><p>What type of rock is this?</p>","4","class_response","1","test","18","Obsidian","Obsidian","10","true","5","5","",""
"","","","","","","","","","","","html-keyboard-response","240","2.0.0","1006213","665f930d862dcdc6bfde540e","2","29","null","","","","","","","","","<p style='font-size: 30px;'><strong>Okay</strong></p>","null","neutral_feedback","1","test","18","","","","","","","",""
"","","","","","","","","","","","html-button-response","241","2.0.0","1009031","665f930d862dcdc6bfde540e","2","29","2817","","","","","","","","","<img src= ""rock_img/I_Gabbro_11.jpg"" style=""width:8cm; height:6.2cm;""><p>What type of rock is this?</p>","1","class_response","1","test","19","Basalt","Gabbro","11","false","2","4","",""
"","","","","","","","","","","","html-keyboard-response","242","2.0.0","1009541","665f930d862dcdc6bfde540e","2","29","null","","","","","","","","","<p style='font-size: 30px;'><strong>Okay</strong></p>","null","neutral_feedback","1","test","19","","","","","","","",""
"","","","","","","","","","","","html-button-response","243","2.0.0","1010671","665f930d862dcdc6bfde540e","2","29","1129","","","","","","","","","<img src= ""rock_img/I_Obsidian_16.jpg"" style=""width:8cm; height:9.3cm;""><p>What type of rock is this?</p>","4","class_response","1","test","20","Obsidian","Obsidian","16","true","5","5","",""
"","","","","","","","","","","","html-keyboard-response","244","2.0.0","1011172","665f930d862dcdc6bfde540e","2","29","null","","","","","","","","","<p style='font-size: 30px;'><strong>Okay</strong></p>","null","neutral_feedback","1","test","20","","","","","","","",""
"","","","","","","","","","","","html-button-response","245","2.0.0","1012933","665f930d862dcdc6bfde540e","2","29","1761","","","","","","","","","<img src= ""rock_img/I_Basalt_16.jpg"" style=""width:8cm; height:7.659999999999999cm;""><p>What type of rock is this?</p>","1","class_response","1","test","21","Basalt","Basalt","16","true","2","2","",""
"","","","","","","","","","","","html-keyboard-response","246","2.0.0","1013435","665f930d862dcdc6bfde540e","2","29","null","","","","","","","","","<p style='font-size: 30px;'><strong>Okay</strong></p>","null","neutral_feedback","1","test","21","","","","","","","",""
"","","","","","","","","","","","html-button-response","247","2.0.0","1024635","665f930d862dcdc6bfde540e","2","29","11199","","","","","","","","","<img src= ""rock_img/I_Gabbro_03.jpg"" style=""width:8cm; height:8.52cm;""><p>What type of rock is this?</p>","6","class_response","1","test","22","Peridotite","Gabbro","03","false","7","4","",""
"","","","","","","","","","","","html-keyboard-response","248","2.0.0","1025147","665f930d862dcdc6bfde540e","2","29","null","","","","","","","","","<p style='font-size: 30px;'><strong>Okay</strong></p>","null","neutral_feedback","1","test","22","","","","","","","",""
"","","","","","","","","","","","html-button-response","249","2.0.0","1028115","665f930d862dcdc6bfde540e","2","29","2966","","","","","","","","","<img src= ""rock_img/I_Peridotite_02.jpg"" style=""width:8cm; height:5.859999999999999cm;""><p>What type of rock is this?</p>","6","class_response","1","test","23","Peridotite","Peridotite","02","true","7","7","",""
"","","","","","","","","","","","html-keyboard-response","250","2.0.0","1028618","665f930d862dcdc6bfde540e","2","29","null","","","","","","","","","<p style='font-size: 30px;'><strong>Okay</strong></p>","null","neutral_feedback","1","test","23","","","","","","","",""
"","","","","","","","","","","","html-button-response","251","2.0.0","1032676","665f930d862dcdc6bfde540e","2","29","4057","","","","","","","","","<img src= ""rock_img/I_Pegmatite_16.jpg"" style=""width:8cm; height:5.8cm;""><p>What type of rock is this?</p>","5","class_response","1","test","24","Pegmatite","Pegmatite","16","true","6","6","",""
"","","","","","","","","","","","html-keyboard-response","252","2.0.0","1033186","665f930d862dcdc6bfde540e","2","29","null","","","","","","","","","<p style='font-size: 30px;'><strong>Okay</strong></p>","null","neutral_feedback","1","test","24","","","","","","","",""
"","","","","","","","","","","","html-button-response","253","2.0.0","1034330","665f930d862dcdc6bfde540e","2","29","1143","","","","","","","","","<img src= ""rock_img/I_Obsidian_12.jpg"" style=""width:8cm; height:6.53cm;""><p>What type of rock is this?</p>","4","class_response","1","test","25","Obsidian","Obsidian","12","true","5","5","",""
"","","","","","","","","","","","html-keyboard-response","254","2.0.0","1034843","665f930d862dcdc6bfde540e","2","29","null","","","","","","","","","<p style='font-size: 30px;'><strong>Okay</strong></p>","null","neutral_feedback","1","test","25","","","","","","","",""
"","","","","","","","","","","","html-button-response","255","2.0.0","1041817","665f930d862dcdc6bfde540e","2","29","6972","","","","","","","","","<img src= ""rock_img/I_Basalt_06.jpg"" style=""width:8cm; height:7.06cm;""><p>What type of rock is this?</p>","1","class_response","1","test","26","Basalt","Basalt","06","true","2","2","",""
"","","","","","","","","","","","html-keyboard-response","256","2.0.0","1042323","665f930d862dcdc6bfde540e","2","29","null","","","","","","","","","<p style='font-size: 30px;'><strong>Okay</strong></p>","null","neutral_feedback","1","test","26","","","","","","","",""
"","","","","","","","","","","","html-button-response","257","2.0.0","1048070","665f930d862dcdc6bfde540e","2","29","5746","","","","","","","","","<img src= ""rock_img/I_Peridotite_10.jpg"" style=""width:8cm; height:5.390000000000001cm;""><p>What type of rock is this?</p>","6","class_response","1","test","27","Peridotite","Peridotite","10","true","7","7","",""
"","","","","","","","","","","","html-keyboard-response","258","2.0.0","1048584","665f930d862dcdc6bfde540e","2","29","null","","","","","","","","","<p style='font-size: 30px;'><strong>Okay</strong></p>","null","neutral_feedback","1","test","27","","","","","","","",""
"","","","","","","","","","","","html-button-response","259","2.0.0","1051912","665f930d862dcdc6bfde540e","2","29","3327","","","","","","","","","<img src= ""rock_img/I_Pegmatite_09.jpg"" style=""width:8cm; height:4.03cm;""><p>What type of rock is this?</p>","5","class_response","1","test","28","Pegmatite","Pegmatite","09","true","6","6","",""
"","","","","","","","","","","","html-keyboard-response","260","2.0.0","1052416","665f930d862dcdc6bfde540e","2","29","null","","","","","","","","","<p style='font-size: 30px;'><strong>Okay</strong></p>","null","neutral_feedback","1","test","28","","","","","","","",""
"","","","","","","","","","","","html-button-response","261","2.0.0","1055908","665f930d862dcdc6bfde540e","2","29","3491","","","","","","","","","<img src= ""rock_img/I_Diorite_07.jpg"" style=""width:8cm; height:5.239999999999999cm;""><p>What type of rock is this?</p>","2","class_response","1","test","29","Diorite","Diorite","07","true","3","3","",""
"","","","","","","","","","","","html-keyboard-response","262","2.0.0","1056419","665f930d862dcdc6bfde540e","2","29","null","","","","","","","","","<p style='font-size: 30px;'><strong>Okay</strong></p>","null","neutral_feedback","1","test","29","","","","","","","",""
"","","","","","","","","","","","html-button-response","263","2.0.0","1062530","665f930d862dcdc6bfde540e","2","29","6110","","","","","","","","","<img src= ""rock_img/I_Andesite_03.jpg"" style=""width:8cm; height:5.73cm;""><p>What type of rock is this?</p>","3","class_response","1","test","30","Gabbro","Andesite","03","false","4","1","",""
"","","","","","","","","","","","html-keyboard-response","264","2.0.0","1063035","665f930d862dcdc6bfde540e","2","29","null","","","","","","","","","<p style='font-size: 30px;'><strong>Okay</strong></p>","null","neutral_feedback","1","test","30","","","","","","","",""
"","","","","","","","","","","","html-button-response","265","2.0.0","1067964","665f930d862dcdc6bfde540e","2","29","4928","","","","","","","","","<img src= ""rock_img/I_Peridotite_06.jpg"" style=""width:8cm; height:7.53cm;""><p>What type of rock is this?</p>","6","class_response","1","test","31","Peridotite","Peridotite","06","true","7","7","",""
"","","","","","","","","","","","html-keyboard-response","266","2.0.0","1068475","665f930d862dcdc6bfde540e","2","29","null","","","","","","","","","<p style='font-size: 30px;'><strong>Okay</strong></p>","null","neutral_feedback","1","test","31","","","","","","","",""
"","","","","","","","","","","","html-button-response","267","2.0.0","1073082","665f930d862dcdc6bfde540e","2","29","4606","","","","","","","","","<img src= ""rock_img/I_Diorite_13.jpg"" style=""width:8cm; height:6.29cm;""><p>What type of rock is this?</p>","2","class_response","1","test","32","Diorite","Diorite","13","true","3","3","",""
"","","","","","","","","","","","html-keyboard-response","268","2.0.0","1073587","665f930d862dcdc6bfde540e","2","29","null","","","","","","","","","<p style='font-size: 30px;'><strong>Okay</strong></p>","null","neutral_feedback","1","test","32","","","","","","","",""
"","","","","","","","","","","","html-button-response","269","2.0.0","1074861","665f930d862dcdc6bfde540e","2","29","1273","","","","","","","","","<img src= ""rock_img/I_Pumice_06.jpg"" style=""width:8cm; height:6.9399999999999995cm;""><p>What type of rock is this?</p>","7","class_response","1","test","33","Pumice","Pumice","06","true","8","8","",""
"","","","","","","","","","","","html-keyboard-response","270","2.0.0","1075372","665f930d862dcdc6bfde540e","2","29","null","","","","","","","","","<p style='font-size: 30px;'><strong>Okay</strong></p>","null","neutral_feedback","1","test","33","","","","","","","",""
"","","","","","","","","","","","html-button-response","271","2.0.0","1086959","665f930d862dcdc6bfde540e","2","29","11586","","","","","","","","","<img src= ""rock_img/I_Peridotite_04.jpg"" style=""width:8cm; height:6.680000000000001cm;""><p>What type of rock is this?</p>","5","class_response","1","test","34","Pegmatite","Peridotite","04","false","6","7","",""
"","","","","","","","","","","","html-keyboard-response","272","2.0.0","1087474","665f930d862dcdc6bfde540e","2","29","null","","","","","","","","","<p style='font-size: 30px;'><strong>Okay</strong></p>","null","neutral_feedback","1","test","34","","","","","","","",""
"","","","","","","","","","","","html-button-response","273","2.0.0","1088671","665f930d862dcdc6bfde540e","2","29","1196","","","","","","","","","<img src= ""rock_img/I_Obsidian_08.jpg"" style=""width:8cm; height:7.39cm;""><p>What type of rock is this?</p>","4","class_response","1","test","35","Obsidian","Obsidian","08","true","5","5","",""
"","","","","","","","","","","","html-keyboard-response","274","2.0.0","1089172","665f930d862dcdc6bfde540e","2","29","null","","","","","","","","","<p style='font-size: 30px;'><strong>Okay</strong></p>","null","neutral_feedback","1","test","35","","","","","","","",""
"","","","","","","","","","","","html-button-response","275","2.0.0","1092537","665f930d862dcdc6bfde540e","2","29","3364","","","","","","","","","<img src= ""rock_img/I_Pegmatite_08.jpg"" style=""width:8cm; height:7.68cm;""><p>What type of rock is this?</p>","5","class_response","1","test","36","Pegmatite","Pegmatite","08","true","6","6","",""
"","","","","","","","","","","","html-keyboard-response","276","2.0.0","1093044","665f930d862dcdc6bfde540e","2","29","null","","","","","","","","","<p style='font-size: 30px;'><strong>Okay</strong></p>","null","neutral_feedback","1","test","36","","","","","","","",""
"","","","","","","","","","","","html-button-response","277","2.0.0","1097919","665f930d862dcdc6bfde540e","2","29","4873","","","","","","","","","<img src= ""rock_img/I_Andesite_09.jpg"" style=""width:8cm; height:6cm;""><p>What type of rock is this?</p>","3","class_response","1","test","37","Gabbro","Andesite","09","false","4","1","",""
"","","","","","","","","","","","html-keyboard-response","278","2.0.0","1098427","665f930d862dcdc6bfde540e","2","29","null","","","","","","","","","<p style='font-size: 30px;'><strong>Okay</strong></p>","null","neutral_feedback","1","test","37","","","","","","","",""
"","","","","","","","","","","","html-button-response","279","2.0.0","1106937","665f930d862dcdc6bfde540e","2","29","8509","","","","","","","","","<img src= ""rock_img/I_Basalt_12.jpg"" style=""width:8cm; height:6.010000000000001cm;""><p>What type of rock is this?</p>","0","class_response","1","test","38","Andesite","Basalt","12","false","1","2","",""
"","","","","","","","","","","","html-keyboard-response","280","2.0.0","1107440","665f930d862dcdc6bfde540e","2","29","null","","","","","","","","","<p style='font-size: 30px;'><strong>Okay</strong></p>","null","neutral_feedback","1","test","38","","","","","","","",""
"","","","","","","","","","","","html-button-response","281","2.0.0","1112598","665f930d862dcdc6bfde540e","2","29","5158","","","","","","","","","<img src= ""rock_img/I_Pumice_16.jpg"" style=""width:8cm; height:6.79cm;""><p>What type of rock is this?</p>","1","class_response","1","test","39","Basalt","Pumice","16","false","2","8","",""
"","","","","","","","","","","","html-keyboard-response","282","2.0.0","1113107","665f930d862dcdc6bfde540e","2","29","null","","","","","","","","","<p style='font-size: 30px;'><strong>Okay</strong></p>","null","neutral_feedback","1","test","39","","","","","","","",""
"","","","","","","","","","","","html-button-response","283","2.0.0","1117433","665f930d862dcdc6bfde540e","2","29","4324","","","","","","","","","<img src= ""rock_img/I_Andesite_16.jpg"" style=""width:8cm; height:6.010000000000001cm;""><p>What type of rock is this?</p>","0","class_response","1","test","40","Andesite","Andesite","16","true","1","1","",""
"","","","","","","","","","","","html-keyboard-response","284","2.0.0","1117934","665f930d862dcdc6bfde540e","2","29","null","","","","","","","","","<p style='font-size: 30px;'><strong>Okay</strong></p>","null","neutral_feedback","1","test","40","","","","","","","",""
"","","","","","","","","","","","html-button-response","285","2.0.0","1121408","665f930d862dcdc6bfde540e","2","29","3473","","","","","","","","","<img src= ""rock_img/I_Gabbro_14.jpg"" style=""width:8cm; height:8.48cm;""><p>What type of rock is this?</p>","3","class_response","1","test","41","Gabbro","Gabbro","14","true","4","4","",""
"","","","","","","","","","","","html-keyboard-response","286","2.0.0","1121914","665f930d862dcdc6bfde540e","2","29","null","","","","","","","","","<p style='font-size: 30px;'><strong>Okay</strong></p>","null","neutral_feedback","1","test","41","","","","","","","",""
"","","","","","","","","","","","html-button-response","287","2.0.0","1129731","665f930d862dcdc6bfde540e","2","29","7816","","","","","","","","","<img src= ""rock_img/I_Diorite_12.jpg"" style=""width:8cm; height:4.88cm;""><p>What type of rock is this?</p>","2","class_response","1","test","42","Diorite","Diorite","12","true","3","3","",""
"","","","","","","","","","","","html-keyboard-response","288","2.0.0","1130242","665f930d862dcdc6bfde540e","2","29","null","","","","","","","","","<p style='font-size: 30px;'><strong>Okay</strong></p>","null","neutral_feedback","1","test","42","","","","","","","",""
"","","","","","","","","","","","html-button-response","289","2.0.0","1136869","665f930d862dcdc6bfde540e","2","29","6626","","","","","","","","","<img src= ""rock_img/I_Peridotite_13.jpg"" style=""width:8cm; height:7.58cm;""><p>What type of rock is this?</p>","3","class_response","1","test","43","Gabbro","Peridotite","13","false","4","7","",""
"","","","","","","","","","","","html-keyboard-response","290","2.0.0","1137384","665f930d862dcdc6bfde540e","2","29","null","","","","","","","","","<p style='font-size: 30px;'><strong>Okay</strong></p>","null","neutral_feedback","1","test","43","","","","","","","",""
"","","","","","","","","","","","html-button-response","291","2.0.0","1139172","665f930d862dcdc6bfde540e","2","29","1787","","","","","","","","","<img src= ""rock_img/I_Pumice_10.jpg"" style=""width:8cm; height:7.609999999999999cm;""><p>What type of rock is this?</p>","7","class_response","1","test","44","Pumice","Pumice","10","true","8","8","",""
"","","","","","","","","","","","html-keyboard-response","292","2.0.0","1139681","665f930d862dcdc6bfde540e","2","29","null","","","","","","","","","<p style='font-size: 30px;'><strong>Okay</strong></p>","null","neutral_feedback","1","test","44","","","","","","","",""
"","","","","","","","","","","","html-button-response","293","2.0.0","1140927","665f930d862dcdc6bfde540e","2","29","1246","","","","","","","","","<img src= ""rock_img/I_Obsidian_04.jpg"" style=""width:8cm; height:6.930000000000001cm;""><p>What type of rock is this?</p>","4","class_response","1","test","45","Obsidian","Obsidian","04","true","5","5","",""
"","","","","","","","","","","","html-keyboard-response","294","2.0.0","1141438","665f930d862dcdc6bfde540e","2","29","null","","","","","","","","","<p style='font-size: 30px;'><strong>Okay</strong></p>","null","neutral_feedback","1","test","45","","","","","","","",""
"","","","","","","","","","","","html-button-response","295","2.0.0","1145498","665f930d862dcdc6bfde540e","2","29","4059","","","","","","","","","<img src= ""rock_img/I_Gabbro_16.jpg"" style=""width:8cm; height:6.44cm;""><p>What type of rock is this?</p>","1","class_response","1","test","46","Basalt","Gabbro","16","false","2","4","",""
"","","","","","","","","","","","html-keyboard-response","296","2.0.0","1146003","665f930d862dcdc6bfde540e","2","29","null","","","","","","","","","<p style='font-size: 30px;'><strong>Okay</strong></p>","null","neutral_feedback","1","test","46","","","","","","","",""
"","","","","","","","","","","","html-button-response","297","2.0.0","1154569","665f930d862dcdc6bfde540e","2","29","8565","","","","","","","","","<img src= ""rock_img/I_Andesite_06.jpg"" style=""width:8cm; height:6.840000000000001cm;""><p>What type of rock is this?</p>","0","class_response","1","test","47","Andesite","Andesite","06","true","1","1","",""
"","","","","","","","","","","","html-keyboard-response","298","2.0.0","1155077","665f930d862dcdc6bfde540e","2","29","null","","","","","","","","","<p style='font-size: 30px;'><strong>Okay</strong></p>","null","neutral_feedback","1","test","47","","","","","","","",""
"","","","","","","","","","","","html-button-response","299","2.0.0","1161209","665f930d862dcdc6bfde540e","2","29","6131","","","","","","","","","<img src= ""rock_img/I_Gabbro_05.jpg"" style=""width:8cm; height:6cm;""><p>What type of rock is this?</p>","6","class_response","1","test","48","Peridotite","Gabbro","05","false","7","4","",""
"","","","","","","","","","","","html-keyboard-response","300","2.0.0","1161712","665f930d862dcdc6bfde540e","2","29","null","","","","","","","","","<p style='font-size: 30px;'><strong>Okay</strong></p>","null","neutral_feedback","1","test","48","","","","","","","",""
"","","","","","","","","","","","html-button-response","301","2.0.0","1187967","665f930d862dcdc6bfde540e","2","29","","","","","","","","","","","","cycle_feedback","","","","","","","","","","11772.899999976158","14478.800000011921"
"","","","","","","","","","","","html-button-response","303","2.0.0","1191957","665f930d862dcdc6bfde540e","2","29","3989","","","","","","","","","","0","start_train","","","","","","","","","","",""
"","","","","","","","","","","","html-button-response","304","2.0.0","1196766","665f930d862dcdc6bfde540e","2","29","4808","","","","","","","","","<img src= ""rock_img/I_Basalt_01.jpg"" style=""width:8cm; height:7.880000000000001cm;""><p>What type of rock is this?</p>","1","class_response","2","train","1","Basalt","Basalt","01","true","2","2","",""
