"width","height","webaudio","browser","browser_version","mobile","os","fullscreen","vsync_rate","webcam","microphone","trial_type","trial_index","plugin_version","time_elapsed","subjID","condition","stimID","rt","url","success","value","timeout","failed_images","failed_audio","failed_video","view_history","stimulus","response","trialType","cycle","phase","trial","resp","cat","token","corr","resp_num","cat_num","time_fb1","time_fb2"
"1280","559","true","chrome","130.0.0","false","Windows 10","true","61.83","false","false","browser-check","0","2.0.0","1021","633f5252efab6885fedfad7d","2","16","","","","","","","","","","","","","","","","","","","","","","",""
"","","","","","","","","","","","external-html","1","2.0.0","5176","633f5252efab6885fedfad7d","2","16","4068","consent_form.html","","","","","","","","","","","","","","","","","","","","",""
"","","","","","","","","","","","fullscreen","2","2.0.0","162887","633f5252efab6885fedfad7d","2","16","156694","","true","","","","","","","","","","","","","","","","","","","",""
"","","","","","","","","","","","call-function","3","2.0.0","162889","633f5252efab6885fedfad7d","2","16","","","","{}","","","","","","","","","","","","","","","","","","",""
"","","","","","","","","","","","preload","4","2.0.0","166522","633f5252efab6885fedfad7d","2","16","","","true","","false","[]","[]","[]","","","","","","","","","","","","","","",""
"","","","","","","","","","","","instructions","5","2.0.0","187976","633f5252efab6885fedfad7d","2","16","21453","","","","","","","","[{""page_index"":0,""viewing_time"":2580},{""page_index"":1,""viewing_time"":11696},{""page_index"":2,""viewing_time"":7176}]","","","","","","","","","","","","","",""
"","","","","","","","","","","","html-button-response","6","2.0.0","190008","633f5252efab6885fedfad7d","2","16","2031","","","","","","","","","","0","start_test","","","","","","","","","","",""
"","","","","","","","","","","","html-button-response","7","2.0.0","192536","633f5252efab6885fedfad7d","2","16","2527","","","","","","","","","<img src= ""rock_img/I_Peridotite_10.jpg"" style=""width:8cm; height:5.390000000000001cm;""><p>What type of rock is this?</p>","1","class_response","0","test","1","Basalt","Peridotite","10","false","2","7","",""
"","","","","","","","","","","","html-keyboard-response","8","2.0.0","193049","633f5252efab6885fedfad7d","2","16","null","","","","","","","","","<p style='font-size: 30px;'><strong>Okay</strong></p>","null","neutral_feedback","0","test","1","","","","","","","",""
"","","","","","","","","","","","html-button-response","9","2.0.0","198328","633f5252efab6885fedfad7d","2","16","5277","","","","","","","","","<img src= ""rock_img/I_Diorite_11.jpg"" style=""width:8cm; height:7.11cm;""><p>What type of rock is this?</p>","5","class_response","0","test","2","Pegmatite","Diorite","11","false","6","3","",""
"","","","","","","","","","","","html-keyboard-response","10","2.0.0","198830","633f5252efab6885fedfad7d","2","16","null","","","","","","","","","<p style='font-size: 30px;'><strong>Okay</strong></p>","null","neutral_feedback","0","test","2","","","","","","","",""
"","","","","","","","","","","","html-button-response","11","2.0.0","200472","633f5252efab6885fedfad7d","2","16","1640","","","","","","","","","<img src= ""rock_img/I_Pegmatite_06.jpg"" style=""width:8cm; height:5.17cm;""><p>What type of rock is this?</p>","2","class_response","0","test","3","Diorite","Pegmatite","06","false","3","6","",""
"","","","","","","","","","","","html-keyboard-response","12","2.0.0","200973","633f5252efab6885fedfad7d","2","16","null","","","","","","","","","<p style='font-size: 30px;'><strong>Okay</strong></p>","null","neutral_feedback","0","test","3","","","","","","","",""
"","","","","","","","","","","","html-button-response","13","2.0.0","201752","633f5252efab6885fedfad7d","2","16","777","","","","","","","","","<img src= ""rock_img/I_Andesite_11.jpg"" style=""width:8cm; height:4.92cm;""><p>What type of rock is this?</p>","6","class_response","0","test","4","Peridotite","Andesite","11","false","7","1","",""
"","","","","","","","","","","","html-keyboard-response","14","2.0.0","202257","633f5252efab6885fedfad7d","2","16","null","","","","","","","","","<p style='font-size: 30px;'><strong>Okay</strong></p>","null","neutral_feedback","0","test","4","","","","","","","",""
"","","","","","","","","","","","html-button-response","15","2.0.0","202968","633f5252efab6885fedfad7d","2","16","710","","","","","","","","","<img src= ""rock_img/I_Pegmatite_05.jpg"" style=""width:8cm; height:7.300000000000001cm;""><p>What type of rock is this?</p>","5","class_response","0","test","5","Pegmatite","Pegmatite","05","true","6","6","",""
"","","","","","","","","","","","html-keyboard-response","16","2.0.0","203471","633f5252efab6885fedfad7d","2","16","null","","","","","","","","","<p style='font-size: 30px;'><strong>Okay</strong></p>","null","neutral_feedback","0","test","5","","","","","","","",""
"","","","","","","","","","","","html-button-response","17","2.0.0","205168","633f5252efab6885fedfad7d","2","16","1696","","","","","","","","","<img src= ""rock_img/I_Gabbro_05.jpg"" style=""width:8cm; height:6cm;""><p>What type of rock is this?</p>","7","class_response","0","test","6","Pumice","Gabbro","05","false","8","4","",""
"","","","","","","","","","","","html-keyboard-response","18","2.0.0","205669","633f5252efab6885fedfad7d","2","16","null","","","","","","","","","<p style='font-size: 30px;'><strong>Okay</strong></p>","null","neutral_feedback","0","test","6","","","","","","","",""
"","","","","","","","","","","","html-button-response","19","2.0.0","206496","633f5252efab6885fedfad7d","2","16","825","","","","","","","","","<img src= ""rock_img/I_Pegmatite_10.jpg"" style=""width:8cm; height:4.16cm;""><p>What type of rock is this?</p>","2","class_response","0","test","7","Diorite","Pegmatite","10","false","3","6","",""
"","","","","","","","","","","","html-keyboard-response","20","2.0.0","207004","633f5252efab6885fedfad7d","2","16","null","","","","","","","","","<p style='font-size: 30px;'><strong>Okay</strong></p>","null","neutral_feedback","0","test","7","","","","","","","",""
"","","","","","","","","","","","html-button-response","21","2.0.0","207840","633f5252efab6885fedfad7d","2","16","835","","","","","","","","","<img src= ""rock_img/I_Peridotite_15.jpg"" style=""width:8cm; height:6cm;""><p>What type of rock is this?</p>","0","class_response","0","test","8","Andesite","Peridotite","15","false","1","7","",""
"","","","","","","","","","","","html-keyboard-response","22","2.0.0","208341","633f5252efab6885fedfad7d","2","16","null","","","","","","","","","<p style='font-size: 30px;'><strong>Okay</strong></p>","null","neutral_feedback","0","test","8","","","","","","","",""
"","","","","","","","","","","","html-button-response","23","2.0.0","213144","633f5252efab6885fedfad7d","2","16","4801","","","","","","","","","<img src= ""rock_img/I_Basalt_16.jpg"" style=""width:8cm; height:7.659999999999999cm;""><p>What type of rock is this?</p>","2","class_response","0","test","9","Diorite","Basalt","16","false","3","2","",""
"","","","","","","","","","","","html-keyboard-response","24","2.0.0","213654","633f5252efab6885fedfad7d","2","16","null","","","","","","","","","<p style='font-size: 30px;'><strong>Okay</strong></p>","null","neutral_feedback","0","test","9","","","","","","","",""
"","","","","","","","","","","","html-button-response","25","2.0.0","218248","633f5252efab6885fedfad7d","2","16","4592","","","","","","","","","<img src= ""rock_img/I_Obsidian_06.jpg"" style=""width:8cm; height:6.8cm;""><p>What type of rock is this?</p>","6","class_response","0","test","10","Peridotite","Obsidian","06","false","7","5","",""
"","","","","","","","","","","","html-keyboard-response","26","2.0.0","218750","633f5252efab6885fedfad7d","2","16","null","","","","","","","","","<p style='font-size: 30px;'><strong>Okay</strong></p>","null","neutral_feedback","0","test","10","","","","","","","",""
"","","","","","","","","","","","html-button-response","27","2.0.0","220736","633f5252efab6885fedfad7d","2","16","1984","","","","","","","","","<img src= ""rock_img/I_Basalt_09.jpg"" style=""width:8cm; height:6.2cm;""><p>What type of rock is this?</p>","3","class_response","0","test","11","Gabbro","Basalt","09","false","4","2","",""
"","","","","","","","","","","","html-keyboard-response","28","2.0.0","221241","633f5252efab6885fedfad7d","2","16","null","","","","","","","","","<p style='font-size: 30px;'><strong>Okay</strong></p>","null","neutral_feedback","0","test","11","","","","","","","",""
"","","","","","","","","","","","html-button-response","29","2.0.0","221960","633f5252efab6885fedfad7d","2","16","718","","","","","","","","","<img src= ""rock_img/I_Gabbro_03.jpg"" style=""width:8cm; height:8.52cm;""><p>What type of rock is this?</p>","2","class_response","0","test","12","Diorite","Gabbro","03","false","3","4","",""
"","","","","","","","","","","","html-keyboard-response","30","2.0.0","222475","633f5252efab6885fedfad7d","2","16","null","","","","","","","","","<p style='font-size: 30px;'><strong>Okay</strong></p>","null","neutral_feedback","0","test","12","","","","","","","",""
"","","","","","","","","","","","html-button-response","31","2.0.0","222816","633f5252efab6885fedfad7d","2","16","339","","","","","","","","","<img src= ""rock_img/I_Pegmatite_15.jpg"" style=""width:8cm; height:6cm;""><p>What type of rock is this?</p>","4","class_response","0","test","13","Obsidian","Pegmatite","15","false","5","6","",""
"","","","","","","","","","","","html-keyboard-response","32","2.0.0","223317","633f5252efab6885fedfad7d","2","16","null","","","","","","","","","<p style='font-size: 30px;'><strong>Okay</strong></p>","null","neutral_feedback","0","test","13","","","","","","","",""
"","","","","","","","","","","","html-button-response","33","2.0.0","225080","633f5252efab6885fedfad7d","2","16","1761","","","","","","","","","<img src= ""rock_img/I_Gabbro_01.jpg"" style=""width:8cm; height:5.21cm;""><p>What type of rock is this?</p>","1","class_response","0","test","14","Basalt","Gabbro","01","false","2","4","",""
"","","","","","","","","","","","html-keyboard-response","34","2.0.0","225583","633f5252efab6885fedfad7d","2","16","null","","","","","","","","","<p style='font-size: 30px;'><strong>Okay</strong></p>","null","neutral_feedback","0","test","14","","","","","","","",""
"","","","","","","","","","","","html-button-response","35","2.0.0","226656","633f5252efab6885fedfad7d","2","16","1071","","","","","","","","","<img src= ""rock_img/I_Andesite_14.jpg"" style=""width:8cm; height:5.449999999999999cm;""><p>What type of rock is this?</p>","0","class_response","0","test","15","Andesite","Andesite","14","true","1","1","",""
"","","","","","","","","","","","html-keyboard-response","36","2.0.0","227157","633f5252efab6885fedfad7d","2","16","null","","","","","","","","","<p style='font-size: 30px;'><strong>Okay</strong></p>","null","neutral_feedback","0","test","15","","","","","","","",""
"","","","","","","","","","","","html-button-response","37","2.0.0","227617","633f5252efab6885fedfad7d","2","16","458","","","","","","","","","<img src= ""rock_img/I_Basalt_12.jpg"" style=""width:8cm; height:6.010000000000001cm;""><p>What type of rock is this?</p>","2","class_response","0","test","16","Diorite","Basalt","12","false","3","2","",""
"","","","","","","","","","","","html-keyboard-response","38","2.0.0","228118","633f5252efab6885fedfad7d","2","16","null","","","","","","","","","<p style='font-size: 30px;'><strong>Okay</strong></p>","null","neutral_feedback","0","test","16","","","","","","","",""
"","","","","","","","","","","","html-button-response","39","2.0.0","228433","633f5252efab6885fedfad7d","2","16","313","","","","","","","","","<img src= ""rock_img/I_Diorite_15.jpg"" style=""width:8cm; height:5.54cm;""><p>What type of rock is this?</p>","7","class_response","0","test","17","Pumice","Diorite","15","false","8","3","",""
"","","","","","","","","","","","html-keyboard-response","40","2.0.0","228933","633f5252efab6885fedfad7d","2","16","null","","","","","","","","","<p style='font-size: 30px;'><strong>Okay</strong></p>","null","neutral_feedback","0","test","17","","","","","","","",""
"","","","","","","","","","","","html-button-response","41","2.0.0","229456","633f5252efab6885fedfad7d","2","16","522","","","","","","","","","<img src= ""rock_img/I_Peridotite_02.jpg"" style=""width:8cm; height:5.859999999999999cm;""><p>What type of rock is this?</p>","2","class_response","0","test","18","Diorite","Peridotite","02","false","3","7","",""
"","","","","","","","","","","","html-keyboard-response","42","2.0.0","229967","633f5252efab6885fedfad7d","2","16","null","","","","","","","","","<p style='font-size: 30px;'><strong>Okay</strong></p>","null","neutral_feedback","0","test","18","","","","","","","",""
"","","","","","","","","","","","html-button-response","43","2.0.0","230176","633f5252efab6885fedfad7d","2","16","208","","","","","","","","","<img src= ""rock_img/I_Gabbro_15.jpg"" style=""width:8cm; height:6.29cm;""><p>What type of rock is this?</p>","1","class_response","0","test","19","Basalt","Gabbro","15","false","2","4","",""
"","","","","","","","","","","","html-keyboard-response","44","2.0.0","230684","633f5252efab6885fedfad7d","2","16","null","","","","","","","","","<p style='font-size: 30px;'><strong>Okay</strong></p>","null","neutral_feedback","0","test","19","","","","","","","",""
"","","","","","","","","","","","html-button-response","45","2.0.0","231056","633f5252efab6885fedfad7d","2","16","371","","","","","","","","","<img src= ""rock_img/I_Gabbro_10.jpg"" style=""width:8cm; height:5.680000000000001cm;""><p>What type of rock is this?</p>","4","class_response","0","test","20","Obsidian","Gabbro","10","false","5","4","",""
"","","","","","","","","","","","html-keyboard-response","46","2.0.0","231571","633f5252efab6885fedfad7d","2","16","null","","","","","","","","","<p style='font-size: 30px;'><strong>Okay</strong></p>","null","neutral_feedback","0","test","20","","","","","","","",""
"","","","","","","","","","","","html-button-response","47","2.0.0","233705","633f5252efab6885fedfad7d","2","16","2131","","","","","","","","","<img src= ""rock_img/I_Peridotite_13.jpg"" style=""width:8cm; height:7.58cm;""><p>What type of rock is this?</p>","7","class_response","0","test","21","Pumice","Peridotite","13","false","8","7","",""
"","","","","","","","","","","","html-keyboard-response","48","2.0.0","234215","633f5252efab6885fedfad7d","2","16","null","","","","","","","","","<p style='font-size: 30px;'><strong>Okay</strong></p>","null","neutral_feedback","0","test","21","","","","","","","",""
"","","","","","","","","","","","html-button-response","49","2.0.0","234664","633f5252efab6885fedfad7d","2","16","448","","","","","","","","","<img src= ""rock_img/I_Obsidian_09.jpg"" style=""width:8cm; height:5cm;""><p>What type of rock is this?</p>","3","class_response","0","test","22","Gabbro","Obsidian","09","false","4","5","",""
"","","","","","","","","","","","html-keyboard-response","50","2.0.0","235166","633f5252efab6885fedfad7d","2","16","null","","","","","","","","","<p style='font-size: 30px;'><strong>Okay</strong></p>","null","neutral_feedback","0","test","22","","","","","","","",""
"","","","","","","","","","","","html-button-response","51","2.0.0","236833","633f5252efab6885fedfad7d","2","16","1665","","","","","","","","","<img src= ""rock_img/I_Pegmatite_08.jpg"" style=""width:8cm; height:7.68cm;""><p>What type of rock is this?</p>","6","class_response","0","test","23","Peridotite","Pegmatite","08","false","7","6","",""
"","","","","","","","","","","","html-keyboard-response","52","2.0.0","237341","633f5252efab6885fedfad7d","2","16","null","","","","","","","","","<p style='font-size: 30px;'><strong>Okay</strong></p>","null","neutral_feedback","0","test","23","","","","","","","",""
"","","","","","","","","","","","html-button-response","53","2.0.0","238784","633f5252efab6885fedfad7d","2","16","1442","","","","","","","","","<img src= ""rock_img/I_Andesite_07.jpg"" style=""width:8cm; height:5.93cm;""><p>What type of rock is this?</p>","2","class_response","0","test","24","Diorite","Andesite","07","false","3","1","",""
"","","","","","","","","","","","html-keyboard-response","54","2.0.0","239300","633f5252efab6885fedfad7d","2","16","null","","","","","","","","","<p style='font-size: 30px;'><strong>Okay</strong></p>","null","neutral_feedback","0","test","24","","","","","","","",""
"","","","","","","","","","","","html-button-response","55","2.0.0","240361","633f5252efab6885fedfad7d","2","16","1059","","","","","","","","","<img src= ""rock_img/I_Obsidian_14.jpg"" style=""width:8cm; height:7.64cm;""><p>What type of rock is this?</p>","5","class_response","0","test","25","Pegmatite","Obsidian","14","false","6","5","",""
"","","","","","","","","","","","html-keyboard-response","56","2.0.0","240863","633f5252efab6885fedfad7d","2","16","null","","","","","","","","","<p style='font-size: 30px;'><strong>Okay</strong></p>","null","neutral_feedback","0","test","25","","","","","","","",""
"","","","","","","","","","","","html-button-response","57","2.0.0","243249","633f5252efab6885fedfad7d","2","16","2384","","","","","","","","","<img src= ""rock_img/I_Basalt_10.jpg"" style=""width:8cm; height:5.85cm;""><p>What type of rock is this?</p>","0","class_response","0","test","26","Andesite","Basalt","10","false","1","2","",""
"","","","","","","","","","","","html-keyboard-response","58","2.0.0","243749","633f5252efab6885fedfad7d","2","16","null","","","","","","","","","<p style='font-size: 30px;'><strong>Okay</strong></p>","null","neutral_feedback","0","test","26","","","","","","","",""
"","","","","","","","","","","","html-button-response","59","2.0.0","244713","633f5252efab6885fedfad7d","2","16","961","","","","","","","","","<img src= ""rock_img/I_Obsidian_12.jpg"" style=""width:8cm; height:6.53cm;""><p>What type of rock is this?</p>","5","class_response","0","test","27","Pegmatite","Obsidian","12","false","6","5","",""
"","","","","","","","","","","","html-keyboard-response","60","2.0.0","245215","633f5252efab6885fedfad7d","2","16","null","","","","","","","","","<p style='font-size: 30px;'><strong>Okay</strong></p>","null","neutral_feedback","0","test","27","","","","","","","",""
"","","","","","","","","","","","html-button-response","61","2.0.0","246577","633f5252efab6885fedfad7d","2","16","1360","","","","","","","","","<img src= ""rock_img/I_Pumice_09.jpg"" style=""width:8cm; height:6.44cm;""><p>What type of rock is this?</p>","2","class_response","0","test","28","Diorite","Pumice","09","false","3","8","",""
"","","","","","","","","","","","html-keyboard-response","62","2.0.0","247086","633f5252efab6885fedfad7d","2","16","null","","","","","","","","","<p style='font-size: 30px;'><strong>Okay</strong></p>","null","neutral_feedback","0","test","28","","","","","","","",""
"","","","","","","","","","","","html-button-response","63","2.0.0","247272","633f5252efab6885fedfad7d","2","16","185","","","","","","","","","<img src= ""rock_img/I_Pumice_05.jpg"" style=""width:8cm; height:7.25cm;""><p>What type of rock is this?</p>","3","class_response","0","test","29","Gabbro","Pumice","05","false","4","8","",""
"","","","","","","","","","","","html-keyboard-response","64","2.0.0","247773","633f5252efab6885fedfad7d","2","16","null","","","","","","","","","<p style='font-size: 30px;'><strong>Okay</strong></p>","null","neutral_feedback","0","test","29","","","","","","","",""
"","","","","","","","","","","","html-button-response","65","2.0.0","248840","633f5252efab6885fedfad7d","2","16","1065","","","","","","","","","<img src= ""rock_img/I_Obsidian_07.jpg"" style=""width:8cm; height:4.76cm;""><p>What type of rock is this?</p>","5","class_response","0","test","30","Pegmatite","Obsidian","07","false","6","5","",""
"","","","","","","","","","","","html-keyboard-response","66","2.0.0","249344","633f5252efab6885fedfad7d","2","16","null","","","","","","","","","<p style='font-size: 30px;'><strong>Okay</strong></p>","null","neutral_feedback","0","test","30","","","","","","","",""
"","","","","","","","","","","","html-button-response","67","2.0.0","249624","633f5252efab6885fedfad7d","2","16","279","","","","","","","","","<img src= ""rock_img/I_Pumice_03.jpg"" style=""width:8cm; height:6.64cm;""><p>What type of rock is this?</p>","4","class_response","0","test","31","Obsidian","Pumice","03","false","5","8","",""
"","","","","","","","","","","","html-keyboard-response","68","2.0.0","250129","633f5252efab6885fedfad7d","2","16","null","","","","","","","","","<p style='font-size: 30px;'><strong>Okay</strong></p>","null","neutral_feedback","0","test","31","","","","","","","",""
"","","","","","","","","","","","html-button-response","69","2.0.0","250464","633f5252efab6885fedfad7d","2","16","334","","","","","","","","","<img src= ""rock_img/I_Diorite_16.jpg"" style=""width:8cm; height:6.74cm;""><p>What type of rock is this?</p>","1","class_response","0","test","32","Basalt","Diorite","16","false","2","3","",""
"","","","","","","","","","","","html-keyboard-response","70","2.0.0","250976","633f5252efab6885fedfad7d","2","16","null","","","","","","","","","<p style='font-size: 30px;'><strong>Okay</strong></p>","null","neutral_feedback","0","test","32","","","","","","","",""
"","","","","","","","","","","","html-button-response","71","2.0.0","251344","633f5252efab6885fedfad7d","2","16","366","","","","","","","","","<img src= ""rock_img/I_Pumice_04.jpg"" style=""width:8cm; height:6.819999999999999cm;""><p>What type of rock is this?</p>","2","class_response","0","test","33","Diorite","Pumice","04","false","3","8","",""
"","","","","","","","","","","","html-keyboard-response","72","2.0.0","251847","633f5252efab6885fedfad7d","2","16","null","","","","","","","","","<p style='font-size: 30px;'><strong>Okay</strong></p>","null","neutral_feedback","0","test","33","","","","","","","",""
"","","","","","","","","","","","html-button-response","73","2.0.0","252440","633f5252efab6885fedfad7d","2","16","592","","","","","","","","","<img src= ""rock_img/I_Diorite_07.jpg"" style=""width:8cm; height:5.239999999999999cm;""><p>What type of rock is this?</p>","6","class_response","0","test","34","Peridotite","Diorite","07","false","7","3","",""
"","","","","","","","","","","","html-keyboard-response","74","2.0.0","252942","633f5252efab6885fedfad7d","2","16","null","","","","","","","","","<p style='font-size: 30px;'><strong>Okay</strong></p>","null","neutral_feedback","0","test","34","","","","","","","",""
"","","","","","","","","","","","html-button-response","75","2.0.0","253705","633f5252efab6885fedfad7d","2","16","762","","","","","","","","","<img src= ""rock_img/I_Basalt_02.jpg"" style=""width:8cm; height:6.45cm;""><p>What type of rock is this?</p>","0","class_response","0","test","35","Andesite","Basalt","02","false","1","2","",""
"","","","","","","","","","","","html-keyboard-response","76","2.0.0","254210","633f5252efab6885fedfad7d","2","16","null","","","","","","","","","<p style='font-size: 30px;'><strong>Okay</strong></p>","null","neutral_feedback","0","test","35","","","","","","","",""
"","","","","","","","","","","","html-button-response","77","2.0.0","254537","633f5252efab6885fedfad7d","2","16","325","","","","","","","","","<img src= ""rock_img/I_Diorite_09.jpg"" style=""width:8cm; height:5.27cm;""><p>What type of rock is this?</p>","2","class_response","0","test","36","Diorite","Diorite","09","true","3","3","",""
"","","","","","","","","","","","html-keyboard-response","78","2.0.0","255053","633f5252efab6885fedfad7d","2","16","null","","","","","","","","","<p style='font-size: 30px;'><strong>Okay</strong></p>","null","neutral_feedback","0","test","36","","","","","","","",""
"","","","","","","","","","","","html-button-response","79","2.0.0","255193","633f5252efab6885fedfad7d","2","16","139","","","","","","","","","<img src= ""rock_img/I_Obsidian_02.jpg"" style=""width:8cm; height:7.51cm;""><p>What type of rock is this?</p>","3","class_response","0","test","37","Gabbro","Obsidian","02","false","4","5","",""
"","","","","","","","","","","","html-keyboard-response","80","2.0.0","255695","633f5252efab6885fedfad7d","2","16","null","","","","","","","","","<p style='font-size: 30px;'><strong>Okay</strong></p>","null","neutral_feedback","0","test","37","","","","","","","",""
"","","","","","","","","","","","html-button-response","81","2.0.0","255969","633f5252efab6885fedfad7d","2","16","272","","","","","","","","","<img src= ""rock_img/I_Gabbro_11.jpg"" style=""width:8cm; height:6.2cm;""><p>What type of rock is this?</p>","7","class_response","0","test","38","Pumice","Gabbro","11","false","8","4","",""
"","","","","","","","","","","","html-keyboard-response","82","2.0.0","256473","633f5252efab6885fedfad7d","2","16","null","","","","","","","","","<p style='font-size: 30px;'><strong>Okay</strong></p>","null","neutral_feedback","0","test","38","","","","","","","",""
"","","","","","","","","","","","html-button-response","83","2.0.0","257200","633f5252efab6885fedfad7d","2","16","726","","","","","","","","","<img src= ""rock_img/I_Pegmatite_03.jpg"" style=""width:8cm; height:5.239999999999999cm;""><p>What type of rock is this?</p>","1","class_response","0","test","39","Basalt","Pegmatite","03","false","2","6","",""
"","","","","","","","","","","","html-keyboard-response","84","2.0.0","257707","633f5252efab6885fedfad7d","2","16","null","","","","","","","","","<p style='font-size: 30px;'><strong>Okay</strong></p>","null","neutral_feedback","0","test","39","","","","","","","",""
"","","","","","","","","","","","html-button-response","85","2.0.0","257792","633f5252efab6885fedfad7d","2","16","84","","","","","","","","","<img src= ""rock_img/I_Andesite_10.jpg"" style=""width:8cm; height:4.16cm;""><p>What type of rock is this?</p>","2","class_response","0","test","40","Diorite","Andesite","10","false","3","1","",""
"","","","","","","","","","","","html-keyboard-response","86","2.0.0","258298","633f5252efab6885fedfad7d","2","16","null","","","","","","","","","<p style='font-size: 30px;'><strong>Okay</strong></p>","null","neutral_feedback","0","test","40","","","","","","","",""
"","","","","","","","","","","","html-button-response","87","2.0.0","258776","633f5252efab6885fedfad7d","2","16","477","","","","","","","","","<img src= ""rock_img/I_Peridotite_06.jpg"" style=""width:8cm; height:7.53cm;""><p>What type of rock is this?</p>","2","class_response","0","test","41","Diorite","Peridotite","06","false","3","7","",""
"","","","","","","","","","","","html-keyboard-response","88","2.0.0","259279","633f5252efab6885fedfad7d","2","16","null","","","","","","","","","<p style='font-size: 30px;'><strong>Okay</strong></p>","null","neutral_feedback","0","test","41","","","","","","","",""
"","","","","","","","","","","","html-button-response","89","2.0.0","259464","633f5252efab6885fedfad7d","2","16","184","","","","","","","","","<img src= ""rock_img/I_Basalt_11.jpg"" style=""width:8cm; height:5.359999999999999cm;""><p>What type of rock is this?</p>","5","class_response","0","test","42","Pegmatite","Basalt","11","false","6","2","",""
"","","","","","","","","","","","html-keyboard-response","90","2.0.0","259966","633f5252efab6885fedfad7d","2","16","null","","","","","","","","","<p style='font-size: 30px;'><strong>Okay</strong></p>","null","neutral_feedback","0","test","42","","","","","","","",""
"","","","","","","","","","","","html-button-response","91","2.0.0","260737","633f5252efab6885fedfad7d","2","16","770","","","","","","","","","<img src= ""rock_img/I_Pumice_14.jpg"" style=""width:8cm; height:6.39cm;""><p>What type of rock is this?</p>","4","class_response","0","test","43","Obsidian","Pumice","14","false","5","8","",""
"","","","","","","","","","","","html-keyboard-response","92","2.0.0","261239","633f5252efab6885fedfad7d","2","16","null","","","","","","","","","<p style='font-size: 30px;'><strong>Okay</strong></p>","null","neutral_feedback","0","test","43","","","","","","","",""
"","","","","","","","","","","","html-button-response","93","2.0.0","261608","633f5252efab6885fedfad7d","2","16","367","","","","","","","","","<img src= ""rock_img/I_Andesite_04.jpg"" style=""width:8cm; height:5.96cm;""><p>What type of rock is this?</p>","1","class_response","0","test","44","Basalt","Andesite","04","false","2","1","",""
"","","","","","","","","","","","html-keyboard-response","94","2.0.0","262114","633f5252efab6885fedfad7d","2","16","null","","","","","","","","","<p style='font-size: 30px;'><strong>Okay</strong></p>","null","neutral_feedback","0","test","44","","","","","","","",""
"","","","","","","","","","","","html-button-response","95","2.0.0","262432","633f5252efab6885fedfad7d","2","16","317","","","","","","","","","<img src= ""rock_img/I_Diorite_06.jpg"" style=""width:8cm; height:6.03cm;""><p>What type of rock is this?</p>","2","class_response","0","test","45","Diorite","Diorite","06","true","3","3","",""
"","","","","","","","","","","","html-keyboard-response","96","2.0.0","262944","633f5252efab6885fedfad7d","2","16","null","","","","","","","","","<p style='font-size: 30px;'><strong>Okay</strong></p>","null","neutral_feedback","0","test","45","","","","","","","",""
"","","","","","","","","","","","html-button-response","97","2.0.0","263208","633f5252efab6885fedfad7d","2","16","263","","","","","","","","","<img src= ""rock_img/I_Peridotite_08.jpg"" style=""width:8cm; height:6.7cm;""><p>What type of rock is this?</p>","3","class_response","0","test","46","Gabbro","Peridotite","08","false","4","7","",""
"","","","","","","","","","","","html-keyboard-response","98","2.0.0","263710","633f5252efab6885fedfad7d","2","16","null","","","","","","","","","<p style='font-size: 30px;'><strong>Okay</strong></p>","null","neutral_feedback","0","test","46","","","","","","","",""
"","","","","","","","","","","","html-button-response","99","2.0.0","264056","633f5252efab6885fedfad7d","2","16","346","","","","","","","","","<img src= ""rock_img/I_Pumice_15.jpg"" style=""width:8cm; height:7.86cm;""><p>What type of rock is this?</p>","5","class_response","0","test","47","Pegmatite","Pumice","15","false","6","8","",""
"","","","","","","","","","","","html-keyboard-response","100","2.0.0","264562","633f5252efab6885fedfad7d","2","16","null","","","","","","","","","<p style='font-size: 30px;'><strong>Okay</strong></p>","null","neutral_feedback","0","test","47","","","","","","","",""
"","","","","","","","","","","","html-button-response","101","2.0.0","265240","633f5252efab6885fedfad7d","2","16","677","","","","","","","","","<img src= ""rock_img/I_Andesite_05.jpg"" style=""width:8cm; height:4.12cm;""><p>What type of rock is this?</p>","4","class_response","0","test","48","Obsidian","Andesite","05","false","5","1","",""
"","","","","","","","","","","","html-keyboard-response","102","2.0.0","265742","633f5252efab6885fedfad7d","2","16","null","","","","","","","","","<p style='font-size: 30px;'><strong>Okay</strong></p>","null","neutral_feedback","0","test","48","","","","","","","",""
"","","","","","","","","","","","instructions","103","2.0.0","285848","633f5252efab6885fedfad7d","2","16","20067","","","","","","","","[{""page_index"":0,""viewing_time"":10571},{""page_index"":1,""viewing_time"":5008},{""page_index"":2,""viewing_time"":4488}]","","","","","","","","","","","","","",""
"","","","","","","","","","","","html-button-response","104","2.0.0","289128","633f5252efab6885fedfad7d","2","16","3279","","","","","","","","","","0","start_train","","","","","","","","","","",""
"","","","","","","","","","","","html-button-response","105","2.0.0","291705","633f5252efab6885fedfad7d","2","16","2575","","","","","","","","","<img src= ""rock_img/I_Pegmatite_07.jpg"" style=""width:8cm; height:6.7cm;""><p>What type of rock is this?</p>","1","class_response","1","train","1","Basalt","Pegmatite","07","false","2","6","",""
"","","","","","","","","","","","html-button-response","106","2.0.0","309072","633f5252efab6885fedfad7d","2","16","17367","","","","","","","","","<img src= rock_img/I_Pegmatite_07.jpg style=""width:8cm; height:6.7cm;""><p style='font-size: 30px; color: red;'><strong>Incorrect!</strong></p><p style='font-size: 30px;'><strong>This rock is pegmatite</strong></p>","0","corr_feedback","1","train","1","","","","","","","",""
"","","","","","","","","","","","html-button-response","107","2.0.0","310672","633f5252efab6885fedfad7d","2","16","1599","","","","","","","","","<img src= ""rock_img/I_Basalt_14.jpg"" style=""width:8cm; height:5.82cm;""><p>What type of rock is this?</p>","1","class_response","1","train","2","Basalt","Basalt","14","true","2","2","",""
"","","","","","","","","","","","html-button-response","108","2.0.0","312376","633f5252efab6885fedfad7d","2","16","1703","","","","","","","","","<img src= rock_img/I_Basalt_14.jpg style=""width:8cm; height:5.82cm;""><p style='font-size: 30px; color: green;'><strong>Correct!</strong></p><p style='font-size: 30px;'><strong>This rock is basalt</strong></p>","0","corr_feedback","1","train","2","","","","","","","",""
"","","","","","","","","","","","html-button-response","109","2.0.0","313624","633f5252efab6885fedfad7d","2","16","1247","","","","","","","","","<img src= ""rock_img/I_Diorite_13.jpg"" style=""width:8cm; height:6.29cm;""><p>What type of rock is this?</p>","2","class_response","1","train","3","Diorite","Diorite","13","true","3","3","",""
"","","","","","","","","","","","html-button-response","110","2.0.0","314840","633f5252efab6885fedfad7d","2","16","1215","","","","","","","","","<img src= rock_img/I_Diorite_13.jpg style=""width:8cm; height:6.29cm;""><p style='font-size: 30px; color: green;'><strong>Correct!</strong></p><p style='font-size: 30px;'><strong>This rock is diorite</strong></p>","0","corr_feedback","1","train","3","","","","","","","",""
"","","","","","","","","","","","html-button-response","111","2.0.0","315976","633f5252efab6885fedfad7d","2","16","1135","","","","","","","","","<img src= ""rock_img/I_Pumice_13.jpg"" style=""width:8cm; height:8.200000000000001cm;""><p>What type of rock is this?</p>","1","class_response","1","train","4","Basalt","Pumice","13","false","2","8","",""
"","","","","","","","","","","","html-button-response","112","2.0.0","317040","633f5252efab6885fedfad7d","2","16","1063","","","","","","","","","<img src= rock_img/I_Pumice_13.jpg style=""width:8cm; height:8.200000000000001cm;""><p style='font-size: 30px; color: red;'><strong>Incorrect!</strong></p><p style='font-size: 30px;'><strong>This rock is pumice</strong></p>","0","corr_feedback","1","train","4","","","","","","","",""
"","","","","","","","","","","","html-button-response","113","2.0.0","318304","633f5252efab6885fedfad7d","2","16","1263","","","","","","","","","<img src= ""rock_img/I_Peridotite_04.jpg"" style=""width:8cm; height:6.680000000000001cm;""><p>What type of rock is this?</p>","5","class_response","1","train","5","Pegmatite","Peridotite","04","false","6","7","",""
"","","","","","","","","","","","html-button-response","114","2.0.0","319400","633f5252efab6885fedfad7d","2","16","1095","","","","","","","","","<img src= rock_img/I_Peridotite_04.jpg style=""width:8cm; height:6.680000000000001cm;""><p style='font-size: 30px; color: red;'><strong>Incorrect!</strong></p><p style='font-size: 30px;'><strong>This rock is peridotite</strong></p>","0","corr_feedback","1","train","5","","","","","","","",""
"","","","","","","","","","","","html-button-response","115","2.0.0","320472","633f5252efab6885fedfad7d","2","16","1071","","","","","","","","","<img src= ""rock_img/I_Basalt_05.jpg"" style=""width:8cm; height:8.18cm;""><p>What type of rock is this?</p>","1","class_response","1","train","6","Basalt","Basalt","05","true","2","2","",""
"","","","","","","","","","","","html-button-response","116","2.0.0","321624","633f5252efab6885fedfad7d","2","16","1151","","","","","","","","","<img src= rock_img/I_Basalt_05.jpg style=""width:8cm; height:8.18cm;""><p style='font-size: 30px; color: green;'><strong>Correct!</strong></p><p style='font-size: 30px;'><strong>This rock is basalt</strong></p>","0","corr_feedback","1","train","6","","","","","","","",""
"","","","","","","","","","","","html-button-response","117","2.0.0","322489","633f5252efab6885fedfad7d","2","16","863","","","","","","","","","<img src= ""rock_img/I_Basalt_01.jpg"" style=""width:8cm; height:7.880000000000001cm;""><p>What type of rock is this?</p>","2","class_response","1","train","7","Diorite","Basalt","01","false","3","2","",""
"","","","","","","","","","","","html-button-response","118","2.0.0","323248","633f5252efab6885fedfad7d","2","16","759","","","","","","","","","<img src= rock_img/I_Basalt_01.jpg style=""width:8cm; height:7.880000000000001cm;""><p style='font-size: 30px; color: red;'><strong>Incorrect!</strong></p><p style='font-size: 30px;'><strong>This rock is basalt</strong></p>","0","corr_feedback","1","train","7","","","","","","","",""
"","","","","","","","","","","","html-button-response","119","2.0.0","324824","633f5252efab6885fedfad7d","2","16","1575","","","","","","","","","<img src= ""rock_img/I_Gabbro_08.jpg"" style=""width:8cm; height:5.15cm;""><p>What type of rock is this?</p>","6","class_response","1","train","8","Peridotite","Gabbro","08","false","7","4","",""
"","","","","","","","","","","","html-button-response","120","2.0.0","325664","633f5252efab6885fedfad7d","2","16","839","","","","","","","","","<img src= rock_img/I_Gabbro_08.jpg style=""width:8cm; height:5.15cm;""><p style='font-size: 30px; color: red;'><strong>Incorrect!</strong></p><p style='font-size: 30px;'><strong>This rock is gabbro</strong></p>","0","corr_feedback","1","train","8","","","","","","","",""
"","","","","","","","","","","","html-button-response","121","2.0.0","326776","633f5252efab6885fedfad7d","2","16","1111","","","","","","","","","<img src= ""rock_img/I_Obsidian_08.jpg"" style=""width:8cm; height:7.39cm;""><p>What type of rock is this?</p>","1","class_response","1","train","9","Basalt","Obsidian","08","false","2","5","",""
"","","","","","","","","","","","html-button-response","122","2.0.0","327608","633f5252efab6885fedfad7d","2","16","831","","","","","","","","","<img src= rock_img/I_Obsidian_08.jpg style=""width:8cm; height:7.39cm;""><p style='font-size: 30px; color: red;'><strong>Incorrect!</strong></p><p style='font-size: 30px;'><strong>This rock is obsidian</strong></p>","0","corr_feedback","1","train","9","","","","","","","",""
"","","","","","","","","","","","html-button-response","123","2.0.0","328824","633f5252efab6885fedfad7d","2","16","1215","","","","","","","","","<img src= ""rock_img/I_Gabbro_12.jpg"" style=""width:8cm; height:7.800000000000001cm;""><p>What type of rock is this?</p>","4","class_response","1","train","10","Obsidian","Gabbro","12","false","5","4","",""
"","","","","","","","","","","","html-button-response","124","2.0.0","330040","633f5252efab6885fedfad7d","2","16","1215","","","","","","","","","<img src= rock_img/I_Gabbro_12.jpg style=""width:8cm; height:7.800000000000001cm;""><p style='font-size: 30px; color: red;'><strong>Incorrect!</strong></p><p style='font-size: 30px;'><strong>This rock is gabbro</strong></p>","0","corr_feedback","1","train","10","","","","","","","",""
"","","","","","","","","","","","html-button-response","125","2.0.0","331056","633f5252efab6885fedfad7d","2","16","1015","","","","","","","","","<img src= ""rock_img/I_Pumice_16.jpg"" style=""width:8cm; height:6.79cm;""><p>What type of rock is this?</p>","2","class_response","1","train","11","Diorite","Pumice","16","false","3","8","",""
"","","","","","","","","","","","html-button-response","126","2.0.0","331664","633f5252efab6885fedfad7d","2","16","607","","","","","","","","","<img src= rock_img/I_Pumice_16.jpg style=""width:8cm; height:6.79cm;""><p style='font-size: 30px; color: red;'><strong>Incorrect!</strong></p><p style='font-size: 30px;'><strong>This rock is pumice</strong></p>","0","corr_feedback","1","train","11","","","","","","","",""
"","","","","","","","","","","","html-button-response","127","2.0.0","333768","633f5252efab6885fedfad7d","2","16","2103","","","","","","","","","<img src= ""rock_img/I_Pegmatite_13.jpg"" style=""width:8cm; height:4.95cm;""><p>What type of rock is this?</p>","3","class_response","1","train","12","Gabbro","Pegmatite","13","false","4","6","",""
"","","","","","","","","","","","html-button-response","128","2.0.0","335000","633f5252efab6885fedfad7d","2","16","1231","","","","","","","","","<img src= rock_img/I_Pegmatite_13.jpg style=""width:8cm; height:4.95cm;""><p style='font-size: 30px; color: red;'><strong>Incorrect!</strong></p><p style='font-size: 30px;'><strong>This rock is pegmatite</strong></p>","0","corr_feedback","1","train","12","","","","","","","",""
"","","","","","","","","","","","html-button-response","129","2.0.0","336656","633f5252efab6885fedfad7d","2","16","1655","","","","","","","","","<img src= ""rock_img/I_Obsidian_04.jpg"" style=""width:8cm; height:6.930000000000001cm;""><p>What type of rock is this?</p>","6","class_response","1","train","13","Peridotite","Obsidian","04","false","7","5","",""
"","","","","","","","","","","","html-button-response","130","2.0.0","337760","633f5252efab6885fedfad7d","2","16","1103","","","","","","","","","<img src= rock_img/I_Obsidian_04.jpg style=""width:8cm; height:6.930000000000001cm;""><p style='font-size: 30px; color: red;'><strong>Incorrect!</strong></p><p style='font-size: 30px;'><strong>This rock is obsidian</strong></p>","0","corr_feedback","1","train","13","","","","","","","",""
"","","","","","","","","","","","html-button-response","131","2.0.0","338912","633f5252efab6885fedfad7d","2","16","1151","","","","","","","","","<img src= ""rock_img/I_Andesite_02.jpg"" style=""width:8cm; height:8.5cm;""><p>What type of rock is this?</p>","7","class_response","1","train","14","Pumice","Andesite","02","false","8","1","",""
"","","","","","","","","","","","html-button-response","132","2.0.0","339976","633f5252efab6885fedfad7d","2","16","1063","","","","","","","","","<img src= rock_img/I_Andesite_02.jpg style=""width:8cm; height:8.5cm;""><p style='font-size: 30px; color: red;'><strong>Incorrect!</strong></p><p style='font-size: 30px;'><strong>This rock is andesite</strong></p>","0","corr_feedback","1","train","14","","","","","","","",""
"","","","","","","","","","","","html-button-response","133","2.0.0","340960","633f5252efab6885fedfad7d","2","16","983","","","","","","","","","<img src= ""rock_img/I_Basalt_04.jpg"" style=""width:8cm; height:7.53cm;""><p>What type of rock is this?</p>","2","class_response","1","train","15","Diorite","Basalt","04","false","3","2","",""
"","","","","","","","","","","","html-button-response","134","2.0.0","341968","633f5252efab6885fedfad7d","2","16","1007","","","","","","","","","<img src= rock_img/I_Basalt_04.jpg style=""width:8cm; height:7.53cm;""><p style='font-size: 30px; color: red;'><strong>Incorrect!</strong></p><p style='font-size: 30px;'><strong>This rock is basalt</strong></p>","0","corr_feedback","1","train","15","","","","","","","",""
"","","","","","","","","","","","html-button-response","135","2.0.0","343176","633f5252efab6885fedfad7d","2","16","1207","","","","","","","","","<img src= ""rock_img/I_Gabbro_09.jpg"" style=""width:8cm; height:7.279999999999999cm;""><p>What type of rock is this?</p>","1","class_response","1","train","16","Basalt","Gabbro","09","false","2","4","",""
"","","","","","","","","","","","html-button-response","136","2.0.0","344016","633f5252efab6885fedfad7d","2","16","839","","","","","","","","","<img src= rock_img/I_Gabbro_09.jpg style=""width:8cm; height:7.279999999999999cm;""><p style='font-size: 30px; color: red;'><strong>Incorrect!</strong></p><p style='font-size: 30px;'><strong>This rock is gabbro</strong></p>","0","corr_feedback","1","train","16","","","","","","","",""
"","","","","","","","","","","","html-button-response","137","2.0.0","345353","633f5252efab6885fedfad7d","2","16","1335","","","","","","","","","<img src= ""rock_img/I_Diorite_12.jpg"" style=""width:8cm; height:4.88cm;""><p>What type of rock is this?</p>","0","class_response","1","train","17","Andesite","Diorite","12","false","1","3","",""
"","","","","","","","","","","","html-button-response","138","2.0.0","346200","633f5252efab6885fedfad7d","2","16","847","","","","","","","","","<img src= rock_img/I_Diorite_12.jpg style=""width:8cm; height:4.88cm;""><p style='font-size: 30px; color: red;'><strong>Incorrect!</strong></p><p style='font-size: 30px;'><strong>This rock is diorite</strong></p>","0","corr_feedback","1","train","17","","","","","","","",""
"","","","","","","","","","","","html-button-response","139","2.0.0","347528","633f5252efab6885fedfad7d","2","16","1327","","","","","","","","","<img src= ""rock_img/I_Peridotite_16.jpg"" style=""width:8cm; height:6.989999999999999cm;""><p>What type of rock is this?</p>","1","class_response","1","train","18","Basalt","Peridotite","16","false","2","7","",""
"","","","","","","","","","","","html-button-response","140","2.0.0","348288","633f5252efab6885fedfad7d","2","16","759","","","","","","","","","<img src= rock_img/I_Peridotite_16.jpg style=""width:8cm; height:6.989999999999999cm;""><p style='font-size: 30px; color: red;'><strong>Incorrect!</strong></p><p style='font-size: 30px;'><strong>This rock is peridotite</strong></p>","0","corr_feedback","1","train","18","","","","","","","",""
"","","","","","","","","","","","html-button-response","141","2.0.0","349224","633f5252efab6885fedfad7d","2","16","935","","","","","","","","","<img src= ""rock_img/I_Andesite_06.jpg"" style=""width:8cm; height:6.840000000000001cm;""><p>What type of rock is this?</p>","4","class_response","1","train","19","Obsidian","Andesite","06","false","5","1","",""
"","","","","","","","","","","","html-button-response","142","2.0.0","350152","633f5252efab6885fedfad7d","2","16","927","","","","","","","","","<img src= rock_img/I_Andesite_06.jpg style=""width:8cm; height:6.840000000000001cm;""><p style='font-size: 30px; color: red;'><strong>Incorrect!</strong></p><p style='font-size: 30px;'><strong>This rock is andesite</strong></p>","0","corr_feedback","1","train","19","","","","","","","",""
"","","","","","","","","","","","html-button-response","143","2.0.0","351080","633f5252efab6885fedfad7d","2","16","926","","","","","","","","","<img src= ""rock_img/I_Obsidian_10.jpg"" style=""width:8cm; height:6.260000000000001cm;""><p>What type of rock is this?</p>","5","class_response","1","train","20","Pegmatite","Obsidian","10","false","6","5","",""
"","","","","","","","","","","","html-button-response","144","2.0.0","351776","633f5252efab6885fedfad7d","2","16","695","","","","","","","","","<img src= rock_img/I_Obsidian_10.jpg style=""width:8cm; height:6.260000000000001cm;""><p style='font-size: 30px; color: red;'><strong>Incorrect!</strong></p><p style='font-size: 30px;'><strong>This rock is obsidian</strong></p>","0","corr_feedback","1","train","20","","","","","","","",""
"","","","","","","","","","","","html-button-response","145","2.0.0","352656","633f5252efab6885fedfad7d","2","16","879","","","","","","","","","<img src= ""rock_img/I_Basalt_06.jpg"" style=""width:8cm; height:7.06cm;""><p>What type of rock is this?</p>","2","class_response","1","train","21","Diorite","Basalt","06","false","3","2","",""
"","","","","","","","","","","","html-button-response","146","2.0.0","353360","633f5252efab6885fedfad7d","2","16","703","","","","","","","","","<img src= rock_img/I_Basalt_06.jpg style=""width:8cm; height:7.06cm;""><p style='font-size: 30px; color: red;'><strong>Incorrect!</strong></p><p style='font-size: 30px;'><strong>This rock is basalt</strong></p>","0","corr_feedback","1","train","21","","","","","","","",""
"","","","","","","","","","","","html-button-response","147","2.0.0","354528","633f5252efab6885fedfad7d","2","16","1167","","","","","","","","","<img src= ""rock_img/I_Diorite_10.jpg"" style=""width:8cm; height:5.949999999999999cm;""><p>What type of rock is this?</p>","3","class_response","1","train","22","Gabbro","Diorite","10","false","4","3","",""
"","","","","","","","","","","","html-button-response","148","2.0.0","355416","633f5252efab6885fedfad7d","2","16","887","","","","","","","","","<img src= rock_img/I_Diorite_10.jpg style=""width:8cm; height:5.949999999999999cm;""><p style='font-size: 30px; color: red;'><strong>Incorrect!</strong></p><p style='font-size: 30px;'><strong>This rock is diorite</strong></p>","0","corr_feedback","1","train","22","","","","","","","",""
"","","","","","","","","","","","html-button-response","149","2.0.0","356280","633f5252efab6885fedfad7d","2","16","863","","","","","","","","","<img src= ""rock_img/I_Pegmatite_11.jpg"" style=""width:8cm; height:8.14cm;""><p>What type of rock is this?</p>","2","class_response","1","train","23","Diorite","Pegmatite","11","false","3","6","",""
"","","","","","","","","","","","html-button-response","150","2.0.0","357112","633f5252efab6885fedfad7d","2","16","831","","","","","","","","","<img src= rock_img/I_Pegmatite_11.jpg style=""width:8cm; height:8.14cm;""><p style='font-size: 30px; color: red;'><strong>Incorrect!</strong></p><p style='font-size: 30px;'><strong>This rock is pegmatite</strong></p>","0","corr_feedback","1","train","23","","","","","","","",""
"","","","","","","","","","","","html-button-response","151","2.0.0","358088","633f5252efab6885fedfad7d","2","16","975","","","","","","","","","<img src= ""rock_img/I_Obsidian_16.jpg"" style=""width:8cm; height:9.3cm;""><p>What type of rock is this?</p>","5","class_response","1","train","24","Pegmatite","Obsidian","16","false","6","5","",""
"","","","","","","","","","","","html-button-response","152","2.0.0","358928","633f5252efab6885fedfad7d","2","16","839","","","","","","","","","<img src= rock_img/I_Obsidian_16.jpg style=""width:8cm; height:9.3cm;""><p style='font-size: 30px; color: red;'><strong>Incorrect!</strong></p><p style='font-size: 30px;'><strong>This rock is obsidian</strong></p>","0","corr_feedback","1","train","24","","","","","","","",""
"","","","","","","","","","","","html-button-response","153","2.0.0","359832","633f5252efab6885fedfad7d","2","16","903","","","","","","","","","<img src= ""rock_img/I_Diorite_08.jpg"" style=""width:8cm; height:6.37cm;""><p>What type of rock is this?</p>","6","class_response","1","train","25","Peridotite","Diorite","08","false","7","3","",""
"","","","","","","","","","","","html-button-response","154","2.0.0","360832","633f5252efab6885fedfad7d","2","16","999","","","","","","","","","<img src= rock_img/I_Diorite_08.jpg style=""width:8cm; height:6.37cm;""><p style='font-size: 30px; color: red;'><strong>Incorrect!</strong></p><p style='font-size: 30px;'><strong>This rock is diorite</strong></p>","0","corr_feedback","1","train","25","","","","","","","",""
"","","","","","","","","","","","html-button-response","155","2.0.0","361712","633f5252efab6885fedfad7d","2","16","879","","","","","","","","","<img src= ""rock_img/I_Pegmatite_12.jpg"" style=""width:8cm; height:5.7cm;""><p>What type of rock is this?</p>","1","class_response","1","train","26","Basalt","Pegmatite","12","false","2","6","",""
"","","","","","","","","","","","html-button-response","156","2.0.0","362568","633f5252efab6885fedfad7d","2","16","855","","","","","","","","","<img src= rock_img/I_Pegmatite_12.jpg style=""width:8cm; height:5.7cm;""><p style='font-size: 30px; color: red;'><strong>Incorrect!</strong></p><p style='font-size: 30px;'><strong>This rock is pegmatite</strong></p>","0","corr_feedback","1","train","26","","","","","","","",""
"","","","","","","","","","","","html-button-response","157","2.0.0","363488","633f5252efab6885fedfad7d","2","16","919","","","","","","","","","<img src= ""rock_img/I_Obsidian_11.jpg"" style=""width:8cm; height:6.05cm;""><p>What type of rock is this?</p>","2","class_response","1","train","27","Diorite","Obsidian","11","false","3","5","",""
"","","","","","","","","","","","html-button-response","158","2.0.0","364480","633f5252efab6885fedfad7d","2","16","991","","","","","","","","","<img src= rock_img/I_Obsidian_11.jpg style=""width:8cm; height:6.05cm;""><p style='font-size: 30px; color: red;'><strong>Incorrect!</strong></p><p style='font-size: 30px;'><strong>This rock is obsidian</strong></p>","0","corr_feedback","1","train","27","","","","","","","",""
"","","","","","","","","","","","html-button-response","159","2.0.0","365744","633f5252efab6885fedfad7d","2","16","1263","","","","","","","","","<img src= ""rock_img/I_Pumice_02.jpg"" style=""width:8cm; height:7.3999999999999995cm;""><p>What type of rock is this?</p>","5","class_response","1","train","28","Pegmatite","Pumice","02","false","6","8","",""
"","","","","","","","","","","","html-button-response","160","2.0.0","366232","633f5252efab6885fedfad7d","2","16","487","","","","","","","","","<img src= rock_img/I_Pumice_02.jpg style=""width:8cm; height:7.3999999999999995cm;""><p style='font-size: 30px; color: red;'><strong>Incorrect!</strong></p><p style='font-size: 30px;'><strong>This rock is pumice</strong></p>","0","corr_feedback","1","train","28","","","","","","","",""
"","","","","","","","","","","","html-button-response","161","2.0.0","366984","633f5252efab6885fedfad7d","2","16","751","","","","","","","","","<img src= ""rock_img/I_Pumice_08.jpg"" style=""width:8cm; height:6.67cm;""><p>What type of rock is this?</p>","5","class_response","1","train","29","Pegmatite","Pumice","08","false","6","8","",""
"","","","","","","","","","","","html-button-response","162","2.0.0","367504","633f5252efab6885fedfad7d","2","16","519","","","","","","","","","<img src= rock_img/I_Pumice_08.jpg style=""width:8cm; height:6.67cm;""><p style='font-size: 30px; color: red;'><strong>Incorrect!</strong></p><p style='font-size: 30px;'><strong>This rock is pumice</strong></p>","0","corr_feedback","1","train","29","","","","","","","",""
"","","","","","","","","","","","html-button-response","163","2.0.0","368520","633f5252efab6885fedfad7d","2","16","1015","","","","","","","","","<img src= ""rock_img/I_Peridotite_12.jpg"" style=""width:8cm; height:4.54cm;""><p>What type of rock is this?</p>","6","class_response","1","train","30","Peridotite","Peridotite","12","true","7","7","",""
"","","","","","","","","","","","html-button-response","164","2.0.0","369432","633f5252efab6885fedfad7d","2","16","911","","","","","","","","","<img src= rock_img/I_Peridotite_12.jpg style=""width:8cm; height:4.54cm;""><p style='font-size: 30px; color: green;'><strong>Correct!</strong></p><p style='font-size: 30px;'><strong>This rock is peridotite</strong></p>","0","corr_feedback","1","train","30","","","","","","","",""
"","","","","","","","","","","","html-button-response","165","2.0.0","370864","633f5252efab6885fedfad7d","2","16","1431","","","","","","","","","<img src= ""rock_img/I_Pegmatite_09.jpg"" style=""width:8cm; height:4.03cm;""><p>What type of rock is this?</p>","1","class_response","1","train","31","Basalt","Pegmatite","09","false","2","6","",""
"","","","","","","","","","","","html-button-response","166","2.0.0","371592","633f5252efab6885fedfad7d","2","16","727","","","","","","","","","<img src= rock_img/I_Pegmatite_09.jpg style=""width:8cm; height:4.03cm;""><p style='font-size: 30px; color: red;'><strong>Incorrect!</strong></p><p style='font-size: 30px;'><strong>This rock is pegmatite</strong></p>","0","corr_feedback","1","train","31","","","","","","","",""
"","","","","","","","","","","","html-button-response","167","2.0.0","372440","633f5252efab6885fedfad7d","2","16","847","","","","","","","","","<img src= ""rock_img/I_Andesite_09.jpg"" style=""width:8cm; height:6cm;""><p>What type of rock is this?</p>","2","class_response","1","train","32","Diorite","Andesite","09","false","3","1","",""
"","","","","","","","","","","","html-button-response","168","2.0.0","373224","633f5252efab6885fedfad7d","2","16","783","","","","","","","","","<img src= rock_img/I_Andesite_09.jpg style=""width:8cm; height:6cm;""><p style='font-size: 30px; color: red;'><strong>Incorrect!</strong></p><p style='font-size: 30px;'><strong>This rock is andesite</strong></p>","0","corr_feedback","1","train","32","","","","","","","",""
"","","","","","","","","","","","html-button-response","169","2.0.0","374456","633f5252efab6885fedfad7d","2","16","1231","","","","","","","","","<img src= ""rock_img/I_Andesite_03.jpg"" style=""width:8cm; height:5.73cm;""><p>What type of rock is this?</p>","3","class_response","1","train","33","Gabbro","Andesite","03","false","4","1","",""
"","","","","","","","","","","","html-button-response","170","2.0.0","375344","633f5252efab6885fedfad7d","2","16","887","","","","","","","","","<img src= rock_img/I_Andesite_03.jpg style=""width:8cm; height:5.73cm;""><p style='font-size: 30px; color: red;'><strong>Incorrect!</strong></p><p style='font-size: 30px;'><strong>This rock is andesite</strong></p>","0","corr_feedback","1","train","33","","","","","","","",""
"","","","","","","","","","","","html-button-response","171","2.0.0","376520","633f5252efab6885fedfad7d","2","16","1175","","","","","","","","","<img src= ""rock_img/I_Peridotite_05.jpg"" style=""width:8cm; height:7.1499999999999995cm;""><p>What type of rock is this?</p>","1","class_response","1","train","34","Basalt","Peridotite","05","false","2","7","",""
"","","","","","","","","","","","html-button-response","172","2.0.0","377296","633f5252efab6885fedfad7d","2","16","775","","","","","","","","","<img src= rock_img/I_Peridotite_05.jpg style=""width:8cm; height:7.1499999999999995cm;""><p style='font-size: 30px; color: red;'><strong>Incorrect!</strong></p><p style='font-size: 30px;'><strong>This rock is peridotite</strong></p>","0","corr_feedback","1","train","34","","","","","","","",""
"","","","","","","","","","","","html-button-response","173","2.0.0","378136","633f5252efab6885fedfad7d","2","16","839","","","","","","","","","<img src= ""rock_img/I_Gabbro_16.jpg"" style=""width:8cm; height:6.44cm;""><p>What type of rock is this?</p>","1","class_response","1","train","35","Basalt","Gabbro","16","false","2","4","",""
"","","","","","","","","","","","html-button-response","174","2.0.0","378776","633f5252efab6885fedfad7d","2","16","639","","","","","","","","","<img src= rock_img/I_Gabbro_16.jpg style=""width:8cm; height:6.44cm;""><p style='font-size: 30px; color: red;'><strong>Incorrect!</strong></p><p style='font-size: 30px;'><strong>This rock is gabbro</strong></p>","0","corr_feedback","1","train","35","","","","","","","",""
"","","","","","","","","","","","html-button-response","175","2.0.0","379480","633f5252efab6885fedfad7d","2","16","703","","","","","","","","","<img src= ""rock_img/I_Obsidian_05.jpg"" style=""width:8cm; height:6.33cm;""><p>What type of rock is this?</p>","2","class_response","1","train","36","Diorite","Obsidian","05","false","3","5","",""
"","","","","","","","","","","","html-button-response","176","2.0.0","380200","633f5252efab6885fedfad7d","2","16","719","","","","","","","","","<img src= rock_img/I_Obsidian_05.jpg style=""width:8cm; height:6.33cm;""><p style='font-size: 30px; color: red;'><strong>Incorrect!</strong></p><p style='font-size: 30px;'><strong>This rock is obsidian</strong></p>","0","corr_feedback","1","train","36","","","","","","","",""
"","","","","","","","","","","","html-button-response","177","2.0.0","381792","633f5252efab6885fedfad7d","2","16","1591","","","","","","","","","<img src= ""rock_img/I_Peridotite_14.jpg"" style=""width:8cm; height:5.3cm;""><p>What type of rock is this?</p>","0","class_response","1","train","37","Andesite","Peridotite","14","false","1","7","",""
"","","","","","","","","","","","html-button-response","178","2.0.0","382632","633f5252efab6885fedfad7d","2","16","839","","","","","","","","","<img src= rock_img/I_Peridotite_14.jpg style=""width:8cm; height:5.3cm;""><p style='font-size: 30px; color: red;'><strong>Incorrect!</strong></p><p style='font-size: 30px;'><strong>This rock is peridotite</strong></p>","0","corr_feedback","1","train","37","","","","","","","",""
"","","","","","","","","","","","html-button-response","179","2.0.0","383584","633f5252efab6885fedfad7d","2","16","951","","","","","","","","","<img src= ""rock_img/I_Andesite_01.jpg"" style=""width:8cm; height:5.87cm;""><p>What type of rock is this?</p>","7","class_response","1","train","38","Pumice","Andesite","01","false","8","1","",""
"","","","","","","","","","","","html-button-response","180","2.0.0","384504","633f5252efab6885fedfad7d","2","16","919","","","","","","","","","<img src= rock_img/I_Andesite_01.jpg style=""width:8cm; height:5.87cm;""><p style='font-size: 30px; color: red;'><strong>Incorrect!</strong></p><p style='font-size: 30px;'><strong>This rock is andesite</strong></p>","0","corr_feedback","1","train","38","","","","","","","",""
"","","","","","","","","","","","html-button-response","181","2.0.0","385560","633f5252efab6885fedfad7d","2","16","1055","","","","","","","","","<img src= ""rock_img/I_Pumice_10.jpg"" style=""width:8cm; height:7.609999999999999cm;""><p>What type of rock is this?</p>","2","class_response","1","train","39","Diorite","Pumice","10","false","3","8","",""
"","","","","","","","","","","","html-button-response","182","2.0.0","386273","633f5252efab6885fedfad7d","2","16","712","","","","","","","","","<img src= rock_img/I_Pumice_10.jpg style=""width:8cm; height:7.609999999999999cm;""><p style='font-size: 30px; color: red;'><strong>Incorrect!</strong></p><p style='font-size: 30px;'><strong>This rock is pumice</strong></p>","0","corr_feedback","1","train","39","","","","","","","",""
"","","","","","","","","","","","html-button-response","183","2.0.0","387616","633f5252efab6885fedfad7d","2","16","1343","","","","","","","","","<img src= ""rock_img/I_Gabbro_13.jpg"" style=""width:8cm; height:5.08cm;""><p>What type of rock is this?</p>","3","class_response","1","train","40","Gabbro","Gabbro","13","true","4","4","",""
"","","","","","","","","","","","html-button-response","184","2.0.0","388728","633f5252efab6885fedfad7d","2","16","1111","","","","","","","","","<img src= rock_img/I_Gabbro_13.jpg style=""width:8cm; height:5.08cm;""><p style='font-size: 30px; color: green;'><strong>Correct!</strong></p><p style='font-size: 30px;'><strong>This rock is gabbro</strong></p>","0","corr_feedback","1","train","40","","","","","","","",""
"","","","","","","","","","","","html-button-response","185","2.0.0","390568","633f5252efab6885fedfad7d","2","16","1839","","","","","","","","","<img src= ""rock_img/I_Diorite_02.jpg"" style=""width:8cm; height:6.27cm;""><p>What type of rock is this?</p>","2","class_response","1","train","41","Diorite","Diorite","02","true","3","3","",""
"","","","","","","","","","","","html-button-response","186","2.0.0","391496","633f5252efab6885fedfad7d","2","16","927","","","","","","","","","<img src= rock_img/I_Diorite_02.jpg style=""width:8cm; height:6.27cm;""><p style='font-size: 30px; color: green;'><strong>Correct!</strong></p><p style='font-size: 30px;'><strong>This rock is diorite</strong></p>","0","corr_feedback","1","train","41","","","","","","","",""
"","","","","","","","","","","","html-button-response","187","2.0.0","394224","633f5252efab6885fedfad7d","2","16","2727","","","","","","","","","<img src= ""rock_img/I_Peridotite_07.jpg"" style=""width:8cm; height:4.83cm;""><p>What type of rock is this?</p>","1","class_response","1","train","42","Basalt","Peridotite","07","false","2","7","",""
"","","","","","","","","","","","html-button-response","188","2.0.0","395264","633f5252efab6885fedfad7d","2","16","1039","","","","","","","","","<img src= rock_img/I_Peridotite_07.jpg style=""width:8cm; height:4.83cm;""><p style='font-size: 30px; color: red;'><strong>Incorrect!</strong></p><p style='font-size: 30px;'><strong>This rock is peridotite</strong></p>","0","corr_feedback","1","train","42","","","","","","","",""
"","","","","","","","","","","","html-button-response","189","2.0.0","396504","633f5252efab6885fedfad7d","2","16","1239","","","","","","","","","<img src= ""rock_img/I_Basalt_05.jpg"" style=""width:8cm; height:8.18cm;""><p>What type of rock is this?</p>","1","class_response","1","train","43","Basalt","Basalt","05","true","2","2","",""
"","","","","","","","","","","","html-button-response","190","2.0.0","397672","633f5252efab6885fedfad7d","2","16","1167","","","","","","","","","<img src= rock_img/I_Basalt_05.jpg style=""width:8cm; height:8.18cm;""><p style='font-size: 30px; color: green;'><strong>Correct!</strong></p><p style='font-size: 30px;'><strong>This rock is basalt</strong></p>","0","corr_feedback","1","train","43","","","","","","","",""
"","","","","","","","","","","","html-button-response","191","2.0.0","399256","633f5252efab6885fedfad7d","2","16","1583","","","","","","","","","<img src= ""rock_img/I_Gabbro_14.jpg"" style=""width:8cm; height:8.48cm;""><p>What type of rock is this?</p>","4","class_response","1","train","44","Obsidian","Gabbro","14","false","5","4","",""
"","","","","","","","","","","","html-button-response","192","2.0.0","400200","633f5252efab6885fedfad7d","2","16","943","","","","","","","","","<img src= rock_img/I_Gabbro_14.jpg style=""width:8cm; height:8.48cm;""><p style='font-size: 30px; color: red;'><strong>Incorrect!</strong></p><p style='font-size: 30px;'><strong>This rock is gabbro</strong></p>","0","corr_feedback","1","train","44","","","","","","","",""
"","","","","","","","","","","","html-button-response","193","2.0.0","404216","633f5252efab6885fedfad7d","2","16","4015","","","","","","","","","<img src= ""rock_img/I_Pumice_06.jpg"" style=""width:8cm; height:6.9399999999999995cm;""><p>What type of rock is this?</p>","7","class_response","1","train","45","Pumice","Pumice","06","true","8","8","",""
"","","","","","","","","","","","html-button-response","194","2.0.0","405128","633f5252efab6885fedfad7d","2","16","911","","","","","","","","","<img src= rock_img/I_Pumice_06.jpg style=""width:8cm; height:6.9399999999999995cm;""><p style='font-size: 30px; color: green;'><strong>Correct!</strong></p><p style='font-size: 30px;'><strong>This rock is pumice</strong></p>","0","corr_feedback","1","train","45","","","","","","","",""
"","","","","","","","","","","","html-button-response","195","2.0.0","406984","633f5252efab6885fedfad7d","2","16","1855","","","","","","","","","<img src= ""rock_img/I_Basalt_08.jpg"" style=""width:8cm; height:10.44cm;""><p>What type of rock is this?</p>","1","class_response","1","train","46","Basalt","Basalt","08","true","2","2","",""
"","","","","","","","","","","","html-button-response","196","2.0.0","407760","633f5252efab6885fedfad7d","2","16","775","","","","","","","","","<img src= rock_img/I_Basalt_08.jpg style=""width:8cm; height:10.44cm;""><p style='font-size: 30px; color: green;'><strong>Correct!</strong></p><p style='font-size: 30px;'><strong>This rock is basalt</strong></p>","0","corr_feedback","1","train","46","","","","","","","",""
"","","","","","","","","","","","html-button-response","197","2.0.0","409256","633f5252efab6885fedfad7d","2","16","1495","","","","","","","","","<img src= ""rock_img/I_Pegmatite_16.jpg"" style=""width:8cm; height:5.8cm;""><p>What type of rock is this?</p>","4","class_response","1","train","47","Obsidian","Pegmatite","16","false","5","6","",""
"","","","","","","","","","","","html-button-response","198","2.0.0","410384","633f5252efab6885fedfad7d","2","16","1127","","","","","","","","","<img src= rock_img/I_Pegmatite_16.jpg style=""width:8cm; height:5.8cm;""><p style='font-size: 30px; color: red;'><strong>Incorrect!</strong></p><p style='font-size: 30px;'><strong>This rock is pegmatite</strong></p>","0","corr_feedback","1","train","47","","","","","","","",""
"","","","","","","","","","","","html-button-response","199","2.0.0","411872","633f5252efab6885fedfad7d","2","16","1487","","","","","","","","","<img src= ""rock_img/I_Diorite_14.jpg"" style=""width:8cm; height:5.71cm;""><p>What type of rock is this?</p>","6","class_response","1","train","48","Peridotite","Diorite","14","false","7","3","",""
"","","","","","","","","","","","html-button-response","200","2.0.0","412608","633f5252efab6885fedfad7d","2","16","735","","","","","","","","","<img src= rock_img/I_Diorite_14.jpg style=""width:8cm; height:5.71cm;""><p style='font-size: 30px; color: red;'><strong>Incorrect!</strong></p><p style='font-size: 30px;'><strong>This rock is diorite</strong></p>","0","corr_feedback","1","train","48","","","","","","","",""
"","","","","","","","","","","","instructions","203","2.0.0","457832","633f5252efab6885fedfad7d","2","16","45223","","","","","","","","[{""page_index"":0,""viewing_time"":35479},{""page_index"":1,""viewing_time"":9744}]","","","","","","","","","","","","","",""
"","","","","","","","","","","","html-button-response","204","2.0.0","459264","633f5252efab6885fedfad7d","2","16","1431","","","","","","","","","","0","start_test","","","","","","","","","","",""
"","","","","","","","","","","","html-button-response","205","2.0.0","476400","633f5252efab6885fedfad7d","2","16","17135","","","","","","","","","<img src= ""rock_img/I_Basalt_09.jpg"" style=""width:8cm; height:6.2cm;""><p>What type of rock is this?</p>","1","class_response","1","test","1","Basalt","Basalt","09","true","2","2","",""
"","","","","","","","","","","","html-keyboard-response","206","2.0.0","476901","633f5252efab6885fedfad7d","2","16","null","","","","","","","","","<p style='font-size: 30px;'><strong>Okay</strong></p>","null","neutral_feedback","1","test","1","","","","","","","",""
"","","","","","","","","","","","html-button-response","207","2.0.0","481880","633f5252efab6885fedfad7d","2","16","4978","","","","","","","","","<img src= ""rock_img/I_Basalt_02.jpg"" style=""width:8cm; height:6.45cm;""><p>What type of rock is this?</p>","1","class_response","1","test","2","Basalt","Basalt","02","true","2","2","",""
"","","","","","","","","","","","html-keyboard-response","208","2.0.0","482396","633f5252efab6885fedfad7d","2","16","null","","","","","","","","","<p style='font-size: 30px;'><strong>Okay</strong></p>","null","neutral_feedback","1","test","2","","","","","","","",""
"","","","","","","","","","","","html-button-response","209","2.0.0","538920","633f5252efab6885fedfad7d","2","16","56523","","","","","","","","","<img src= ""rock_img/I_Pumice_03.jpg"" style=""width:8cm; height:6.64cm;""><p>What type of rock is this?</p>","0","class_response","1","test","3","Andesite","Pumice","03","false","1","8","",""
"","","","","","","","","","","","html-keyboard-response","210","2.0.0","539430","633f5252efab6885fedfad7d","2","16","null","","","","","","","","","<p style='font-size: 30px;'><strong>Okay</strong></p>","null","neutral_feedback","1","test","3","","","","","","","",""
"","","","","","","","","","","","html-button-response","211","2.0.0","583736","633f5252efab6885fedfad7d","2","16","44305","","","","","","","","","<img src= ""rock_img/I_Andesite_04.jpg"" style=""width:8cm; height:5.96cm;""><p>What type of rock is this?</p>","2","class_response","1","test","4","Diorite","Andesite","04","false","3","1","",""
"","","","","","","","","","","","html-keyboard-response","212","2.0.0","584241","633f5252efab6885fedfad7d","2","16","null","","","","","","","","","<p style='font-size: 30px;'><strong>Okay</strong></p>","null","neutral_feedback","1","test","4","","","","","","","",""
"","","","","","","","","","","","html-button-response","213","2.0.0","606296","633f5252efab6885fedfad7d","2","16","22054","","","","","","","","","<img src= ""rock_img/I_Basalt_10.jpg"" style=""width:8cm; height:5.85cm;""><p>What type of rock is this?</p>","3","class_response","1","test","5","Gabbro","Basalt","10","false","4","2","",""
"","","","","","","","","","","","html-keyboard-response","214","2.0.0","606797","633f5252efab6885fedfad7d","2","16","null","","","","","","","","","<p style='font-size: 30px;'><strong>Okay</strong></p>","null","neutral_feedback","1","test","5","","","","","","","",""
"","","","","","","","","","","","html-button-response","215","2.0.0","621512","633f5252efab6885fedfad7d","2","16","14714","","","","","","","","","<img src= ""rock_img/I_Pumice_14.jpg"" style=""width:8cm; height:6.39cm;""><p>What type of rock is this?</p>","7","class_response","1","test","6","Pumice","Pumice","14","true","8","8","",""
"","","","","","","","","","","","html-keyboard-response","216","2.0.0","622014","633f5252efab6885fedfad7d","2","16","null","","","","","","","","","<p style='font-size: 30px;'><strong>Okay</strong></p>","null","neutral_feedback","1","test","6","","","","","","","",""
"","","","","","","","","","","","html-button-response","217","2.0.0","642600","633f5252efab6885fedfad7d","2","16","20584","","","","","","","","","<img src= ""rock_img/I_Pumice_05.jpg"" style=""width:8cm; height:7.25cm;""><p>What type of rock is this?</p>","2","class_response","1","test","7","Diorite","Pumice","05","false","3","8","",""
"","","","","","","","","","","","html-keyboard-response","218","2.0.0","643102","633f5252efab6885fedfad7d","2","16","null","","","","","","","","","<p style='font-size: 30px;'><strong>Okay</strong></p>","null","neutral_feedback","1","test","7","","","","","","","",""
"","","","","","","","","","","","html-button-response","219","2.0.0","654096","633f5252efab6885fedfad7d","2","16","10993","","","","","","","","","<img src= ""rock_img/I_Gabbro_03.jpg"" style=""width:8cm; height:8.52cm;""><p>What type of rock is this?</p>","3","class_response","1","test","8","Gabbro","Gabbro","03","true","4","4","",""
"","","","","","","","","","","","html-keyboard-response","220","2.0.0","654598","633f5252efab6885fedfad7d","2","16","null","","","","","","","","","<p style='font-size: 30px;'><strong>Okay</strong></p>","null","neutral_feedback","1","test","8","","","","","","","",""
"","","","","","","","","","","","html-button-response","221","2.0.0","661216","633f5252efab6885fedfad7d","2","16","6617","","","","","","","","","<img src= ""rock_img/I_Peridotite_02.jpg"" style=""width:8cm; height:5.859999999999999cm;""><p>What type of rock is this?</p>","5","class_response","1","test","9","Pegmatite","Peridotite","02","false","6","7","",""
"","","","","","","","","","","","html-keyboard-response","222","2.0.0","661729","633f5252efab6885fedfad7d","2","16","null","","","","","","","","","<p style='font-size: 30px;'><strong>Okay</strong></p>","null","neutral_feedback","1","test","9","","","","","","","",""
"","","","","","","","","","","","html-button-response","223","2.0.0","688896","633f5252efab6885fedfad7d","2","16","27166","","","","","","","","","<img src= ""rock_img/I_Obsidian_06.jpg"" style=""width:8cm; height:6.8cm;""><p>What type of rock is this?</p>","4","class_response","1","test","10","Obsidian","Obsidian","06","true","5","5","",""
"","","","","","","","","","","","html-keyboard-response","224","2.0.0","689398","633f5252efab6885fedfad7d","2","16","null","","","","","","","","","<p style='font-size: 30px;'><strong>Okay</strong></p>","null","neutral_feedback","1","test","10","","","","","","","",""
"","","","","","","","","","","","html-button-response","225","2.0.0","711392","633f5252efab6885fedfad7d","2","16","21993","","","","","","","","","<img src= ""rock_img/I_Basalt_12.jpg"" style=""width:8cm; height:6.010000000000001cm;""><p>What type of rock is this?</p>","0","class_response","1","test","11","Andesite","Basalt","12","false","1","2","",""
"","","","","","","","","","","","html-keyboard-response","226","2.0.0","711894","633f5252efab6885fedfad7d","2","16","null","","","","","","","","","<p style='font-size: 30px;'><strong>Okay</strong></p>","null","neutral_feedback","1","test","11","","","","","","","",""
"","","","","","","","","","","","html-button-response","227","2.0.0","721400","633f5252efab6885fedfad7d","2","16","9505","","","","","","","","","<img src= ""rock_img/I_Diorite_09.jpg"" style=""width:8cm; height:5.27cm;""><p>What type of rock is this?</p>","2","class_response","1","test","12","Diorite","Diorite","09","true","3","3","",""
"","","","","","","","","","","","html-keyboard-response","228","2.0.0","721902","633f5252efab6885fedfad7d","2","16","null","","","","","","","","","<p style='font-size: 30px;'><strong>Okay</strong></p>","null","neutral_feedback","1","test","12","","","","","","","",""
"","","","","","","","","","","","html-button-response","229","2.0.0","730448","633f5252efab6885fedfad7d","2","16","8545","","","","","","","","","<img src= ""rock_img/I_Pumice_09.jpg"" style=""width:8cm; height:6.44cm;""><p>What type of rock is this?</p>","1","class_response","1","test","13","Basalt","Pumice","09","false","2","8","",""
"","","","","","","","","","","","html-keyboard-response","230","2.0.0","730952","633f5252efab6885fedfad7d","2","16","null","","","","","","","","","<p style='font-size: 30px;'><strong>Okay</strong></p>","null","neutral_feedback","1","test","13","","","","","","","",""
"","","","","","","","","","","","html-button-response","231","2.0.0","738127","633f5252efab6885fedfad7d","2","16","7174","","","","","","","","","<img src= ""rock_img/I_Pumice_15.jpg"" style=""width:8cm; height:7.86cm;""><p>What type of rock is this?</p>","2","class_response","1","test","14","Diorite","Pumice","15","false","3","8","",""
"","","","","","","","","","","","html-keyboard-response","232","2.0.0","738629","633f5252efab6885fedfad7d","2","16","null","","","","","","","","","<p style='font-size: 30px;'><strong>Okay</strong></p>","null","neutral_feedback","1","test","14","","","","","","","",""
"","","","","","","","","","","","html-button-response","233","2.0.0","743000","633f5252efab6885fedfad7d","2","16","4370","","","","","","","","","<img src= ""rock_img/I_Obsidian_07.jpg"" style=""width:8cm; height:4.76cm;""><p>What type of rock is this?</p>","5","class_response","1","test","15","Pegmatite","Obsidian","07","false","6","5","",""
"","","","","","","","","","","","html-keyboard-response","234","2.0.0","743504","633f5252efab6885fedfad7d","2","16","null","","","","","","","","","<p style='font-size: 30px;'><strong>Okay</strong></p>","null","neutral_feedback","1","test","15","","","","","","","",""
"","","","","","","","","","","","html-button-response","235","2.0.0","751911","633f5252efab6885fedfad7d","2","16","8406","","","","","","","","","<img src= ""rock_img/I_Gabbro_15.jpg"" style=""width:8cm; height:6.29cm;""><p>What type of rock is this?</p>","7","class_response","1","test","16","Pumice","Gabbro","15","false","8","4","",""
"","","","","","","","","","","","html-keyboard-response","236","2.0.0","752412","633f5252efab6885fedfad7d","2","16","null","","","","","","","","","<p style='font-size: 30px;'><strong>Okay</strong></p>","null","neutral_feedback","1","test","16","","","","","","","",""
"","","","","","","","","","","","html-button-response","237","2.0.0","766200","633f5252efab6885fedfad7d","2","16","13787","","","","","","","","","<img src= ""rock_img/I_Gabbro_01.jpg"" style=""width:8cm; height:5.21cm;""><p>What type of rock is this?</p>","4","class_response","1","test","17","Obsidian","Gabbro","01","false","5","4","",""
"","","","","","","","","","","","html-keyboard-response","238","2.0.0","766701","633f5252efab6885fedfad7d","2","16","null","","","","","","","","","<p style='font-size: 30px;'><strong>Okay</strong></p>","null","neutral_feedback","1","test","17","","","","","","","",""
"","","","","","","","","","","","html-button-response","239","2.0.0","768255","633f5252efab6885fedfad7d","2","16","1553","","","","","","","","","<img src= ""rock_img/I_Basalt_11.jpg"" style=""width:8cm; height:5.359999999999999cm;""><p>What type of rock is this?</p>","1","class_response","1","test","18","Basalt","Basalt","11","true","2","2","",""
"","","","","","","","","","","","html-keyboard-response","240","2.0.0","768757","633f5252efab6885fedfad7d","2","16","null","","","","","","","","","<p style='font-size: 30px;'><strong>Okay</strong></p>","null","neutral_feedback","1","test","18","","","","","","","",""
"","","","","","","","","","","","html-button-response","241","2.0.0","774263","633f5252efab6885fedfad7d","2","16","5505","","","","","","","","","<img src= ""rock_img/I_Obsidian_09.jpg"" style=""width:8cm; height:5cm;""><p>What type of rock is this?</p>","6","class_response","1","test","19","Peridotite","Obsidian","09","false","7","5","",""
"","","","","","","","","","","","html-keyboard-response","242","2.0.0","774768","633f5252efab6885fedfad7d","2","16","null","","","","","","","","","<p style='font-size: 30px;'><strong>Okay</strong></p>","null","neutral_feedback","1","test","19","","","","","","","",""
"","","","","","","","","","","","html-button-response","243","2.0.0","775496","633f5252efab6885fedfad7d","2","16","726","","","","","","","","","<img src= ""rock_img/I_Andesite_11.jpg"" style=""width:8cm; height:4.92cm;""><p>What type of rock is this?</p>","2","class_response","1","test","20","Diorite","Andesite","11","false","3","1","",""
"","","","","","","","","","","","html-keyboard-response","244","2.0.0","776003","633f5252efab6885fedfad7d","2","16","null","","","","","","","","","<p style='font-size: 30px;'><strong>Okay</strong></p>","null","neutral_feedback","1","test","20","","","","","","","",""
"","","","","","","","","","","","html-button-response","245","2.0.0","783552","633f5252efab6885fedfad7d","2","16","7547","","","","","","","","","<img src= ""rock_img/I_Peridotite_13.jpg"" style=""width:8cm; height:7.58cm;""><p>What type of rock is this?</p>","3","class_response","1","test","21","Gabbro","Peridotite","13","false","4","7","",""
"","","","","","","","","","","","html-keyboard-response","246","2.0.0","784062","633f5252efab6885fedfad7d","2","16","null","","","","","","","","","<p style='font-size: 30px;'><strong>Okay</strong></p>","null","neutral_feedback","1","test","21","","","","","","","",""
"","","","","","","","","","","","html-button-response","247","2.0.0","785127","633f5252efab6885fedfad7d","2","16","1064","","","","","","","","","<img src= ""rock_img/I_Andesite_05.jpg"" style=""width:8cm; height:4.12cm;""><p>What type of rock is this?</p>","2","class_response","1","test","22","Diorite","Andesite","05","false","3","1","",""
"","","","","","","","","","","","html-keyboard-response","248","2.0.0","785628","633f5252efab6885fedfad7d","2","16","null","","","","","","","","","<p style='font-size: 30px;'><strong>Okay</strong></p>","null","neutral_feedback","1","test","22","","","","","","","",""
"","","","","","","","","","","","html-button-response","249","2.0.0","786239","633f5252efab6885fedfad7d","2","16","610","","","","","","","","","<img src= ""rock_img/I_Andesite_14.jpg"" style=""width:8cm; height:5.449999999999999cm;""><p>What type of rock is this?</p>","5","class_response","1","test","23","Pegmatite","Andesite","14","false","6","1","",""
"","","","","","","","","","","","html-keyboard-response","250","2.0.0","786740","633f5252efab6885fedfad7d","2","16","null","","","","","","","","","<p style='font-size: 30px;'><strong>Okay</strong></p>","null","neutral_feedback","1","test","23","","","","","","","",""
"","","","","","","","","","","","html-button-response","251","2.0.0","787319","633f5252efab6885fedfad7d","2","16","578","","","","","","","","","<img src= ""rock_img/I_Pumice_04.jpg"" style=""width:8cm; height:6.819999999999999cm;""><p>What type of rock is this?</p>","7","class_response","1","test","24","Pumice","Pumice","04","true","8","8","",""
"","","","","","","","","","","","html-keyboard-response","252","2.0.0","787824","633f5252efab6885fedfad7d","2","16","null","","","","","","","","","<p style='font-size: 30px;'><strong>Okay</strong></p>","null","neutral_feedback","1","test","24","","","","","","","",""
"","","","","","","","","","","","html-button-response","253","2.0.0","789592","633f5252efab6885fedfad7d","2","16","1766","","","","","","","","","<img src= ""rock_img/I_Gabbro_11.jpg"" style=""width:8cm; height:6.2cm;""><p>What type of rock is this?</p>","1","class_response","1","test","25","Basalt","Gabbro","11","false","2","4","",""
"","","","","","","","","","","","html-keyboard-response","254","2.0.0","790101","633f5252efab6885fedfad7d","2","16","null","","","","","","","","","<p style='font-size: 30px;'><strong>Okay</strong></p>","null","neutral_feedback","1","test","25","","","","","","","",""
"","","","","","","","","","","","html-button-response","255","2.0.0","791232","633f5252efab6885fedfad7d","2","16","1130","","","","","","","","","<img src= ""rock_img/I_Obsidian_02.jpg"" style=""width:8cm; height:7.51cm;""><p>What type of rock is this?</p>","5","class_response","1","test","26","Pegmatite","Obsidian","02","false","6","5","",""
"","","","","","","","","","","","html-keyboard-response","256","2.0.0","791734","633f5252efab6885fedfad7d","2","16","null","","","","","","","","","<p style='font-size: 30px;'><strong>Okay</strong></p>","null","neutral_feedback","1","test","26","","","","","","","",""
"","","","","","","","","","","","html-button-response","257","2.0.0","816072","633f5252efab6885fedfad7d","2","16","24337","","","","","","","","","<img src= ""rock_img/I_Diorite_06.jpg"" style=""width:8cm; height:6.03cm;""><p>What type of rock is this?</p>","6","class_response","1","test","27","Peridotite","Diorite","06","false","7","3","",""
"","","","","","","","","","","","html-keyboard-response","258","2.0.0","816574","633f5252efab6885fedfad7d","2","16","null","","","","","","","","","<p style='font-size: 30px;'><strong>Okay</strong></p>","null","neutral_feedback","1","test","27","","","","","","","",""
"","","","","","","","","","","","html-button-response","259","2.0.0","826168","633f5252efab6885fedfad7d","2","16","9593","","","","","","","","","<img src= ""rock_img/I_Peridotite_15.jpg"" style=""width:8cm; height:6cm;""><p>What type of rock is this?</p>","6","class_response","1","test","28","Peridotite","Peridotite","15","true","7","7","",""
"","","","","","","","","","","","html-keyboard-response","260","2.0.0","826669","633f5252efab6885fedfad7d","2","16","null","","","","","","","","","<p style='font-size: 30px;'><strong>Okay</strong></p>","null","neutral_feedback","1","test","28","","","","","","","",""
"","","","","","","","","","","","html-button-response","261","2.0.0","834200","633f5252efab6885fedfad7d","2","16","7529","","","","","","","","","<img src= ""rock_img/I_Diorite_15.jpg"" style=""width:8cm; height:5.54cm;""><p>What type of rock is this?</p>","0","class_response","1","test","29","Andesite","Diorite","15","false","1","3","",""
"","","","","","","","","","","","html-keyboard-response","262","2.0.0","834702","633f5252efab6885fedfad7d","2","16","null","","","","","","","","","<p style='font-size: 30px;'><strong>Okay</strong></p>","null","neutral_feedback","1","test","29","","","","","","","",""
"","","","","","","","","","","","html-button-response","263","2.0.0","835344","633f5252efab6885fedfad7d","2","16","641","","","","","","","","","<img src= ""rock_img/I_Andesite_07.jpg"" style=""width:8cm; height:5.93cm;""><p>What type of rock is this?</p>","1","class_response","1","test","30","Basalt","Andesite","07","false","2","1","",""
"","","","","","","","","","","","html-keyboard-response","264","2.0.0","835845","633f5252efab6885fedfad7d","2","16","null","","","","","","","","","<p style='font-size: 30px;'><strong>Okay</strong></p>","null","neutral_feedback","1","test","30","","","","","","","",""
"","","","","","","","","","","","html-button-response","265","2.0.0","840816","633f5252efab6885fedfad7d","2","16","4969","","","","","","","","","<img src= ""rock_img/I_Pegmatite_03.jpg"" style=""width:8cm; height:5.239999999999999cm;""><p>What type of rock is this?</p>","7","class_response","1","test","31","Pumice","Pegmatite","03","false","8","6","",""
"","","","","","","","","","","","html-keyboard-response","266","2.0.0","841317","633f5252efab6885fedfad7d","2","16","null","","","","","","","","","<p style='font-size: 30px;'><strong>Okay</strong></p>","null","neutral_feedback","1","test","31","","","","","","","",""
"","","","","","","","","","","","html-button-response","267","2.0.0","842120","633f5252efab6885fedfad7d","2","16","802","","","","","","","","","<img src= ""rock_img/I_Pegmatite_05.jpg"" style=""width:8cm; height:7.300000000000001cm;""><p>What type of rock is this?</p>","3","class_response","1","test","32","Gabbro","Pegmatite","05","false","4","6","",""
"","","","","","","","","","","","html-keyboard-response","268","2.0.0","842622","633f5252efab6885fedfad7d","2","16","null","","","","","","","","","<p style='font-size: 30px;'><strong>Okay</strong></p>","null","neutral_feedback","1","test","32","","","","","","","",""
"","","","","","","","","","","","html-button-response","269","2.0.0","843328","633f5252efab6885fedfad7d","2","16","704","","","","","","","","","<img src= ""rock_img/I_Basalt_16.jpg"" style=""width:8cm; height:7.659999999999999cm;""><p>What type of rock is this?</p>","6","class_response","1","test","33","Peridotite","Basalt","16","false","7","2","",""
"","","","","","","","","","","","html-keyboard-response","270","2.0.0","843831","633f5252efab6885fedfad7d","2","16","null","","","","","","","","","<p style='font-size: 30px;'><strong>Okay</strong></p>","null","neutral_feedback","1","test","33","","","","","","","",""
"","","","","","","","","","","","html-button-response","271","2.0.0","844456","633f5252efab6885fedfad7d","2","16","624","","","","","","","","","<img src= ""rock_img/I_Diorite_16.jpg"" style=""width:8cm; height:6.74cm;""><p>What type of rock is this?</p>","2","class_response","1","test","34","Diorite","Diorite","16","true","3","3","",""
"","","","","","","","","","","","html-keyboard-response","272","2.0.0","844961","633f5252efab6885fedfad7d","2","16","null","","","","","","","","","<p style='font-size: 30px;'><strong>Okay</strong></p>","null","neutral_feedback","1","test","34","","","","","","","",""
"","","","","","","","","","","","html-button-response","273","2.0.0","845584","633f5252efab6885fedfad7d","2","16","622","","","","","","","","","<img src= ""rock_img/I_Gabbro_10.jpg"" style=""width:8cm; height:5.680000000000001cm;""><p>What type of rock is this?</p>","0","class_response","1","test","35","Andesite","Gabbro","10","false","1","4","",""
"","","","","","","","","","","","html-keyboard-response","274","2.0.0","846086","633f5252efab6885fedfad7d","2","16","null","","","","","","","","","<p style='font-size: 30px;'><strong>Okay</strong></p>","null","neutral_feedback","1","test","35","","","","","","","",""
"","","","","","","","","","","","html-button-response","275","2.0.0","846544","633f5252efab6885fedfad7d","2","16","457","","","","","","","","","<img src= ""rock_img/I_Gabbro_05.jpg"" style=""width:8cm; height:6cm;""><p>What type of rock is this?</p>","1","class_response","1","test","36","Basalt","Gabbro","05","false","2","4","",""
"","","","","","","","","","","","html-keyboard-response","276","2.0.0","847051","633f5252efab6885fedfad7d","2","16","null","","","","","","","","","<p style='font-size: 30px;'><strong>Okay</strong></p>","null","neutral_feedback","1","test","36","","","","","","","",""
"","","","","","","","","","","","html-button-response","277","2.0.0","847968","633f5252efab6885fedfad7d","2","16","916","","","","","","","","","<img src= ""rock_img/I_Diorite_11.jpg"" style=""width:8cm; height:7.11cm;""><p>What type of rock is this?</p>","5","class_response","1","test","37","Pegmatite","Diorite","11","false","6","3","",""
"","","","","","","","","","","","html-keyboard-response","278","2.0.0","848469","633f5252efab6885fedfad7d","2","16","null","","","","","","","","","<p style='font-size: 30px;'><strong>Okay</strong></p>","null","neutral_feedback","1","test","37","","","","","","","",""
"","","","","","","","","","","","html-button-response","279","2.0.0","849856","633f5252efab6885fedfad7d","2","16","1385","","","","","","","","","<img src= ""rock_img/I_Obsidian_14.jpg"" style=""width:8cm; height:7.64cm;""><p>What type of rock is this?</p>","1","class_response","1","test","38","Basalt","Obsidian","14","false","2","5","",""
"","","","","","","","","","","","html-keyboard-response","280","2.0.0","850362","633f5252efab6885fedfad7d","2","16","null","","","","","","","","","<p style='font-size: 30px;'><strong>Okay</strong></p>","null","neutral_feedback","1","test","38","","","","","","","",""
"","","","","","","","","","","","html-button-response","281","2.0.0","853336","633f5252efab6885fedfad7d","2","16","2973","","","","","","","","","<img src= ""rock_img/I_Pegmatite_08.jpg"" style=""width:8cm; height:7.68cm;""><p>What type of rock is this?</p>","2","class_response","1","test","39","Diorite","Pegmatite","08","false","3","6","",""
"","","","","","","","","","","","html-keyboard-response","282","2.0.0","853847","633f5252efab6885fedfad7d","2","16","null","","","","","","","","","<p style='font-size: 30px;'><strong>Okay</strong></p>","null","neutral_feedback","1","test","39","","","","","","","",""
"","","","","","","","","","","","html-button-response","283","2.0.0","855168","633f5252efab6885fedfad7d","2","16","1320","","","","","","","","","<img src= ""rock_img/I_Peridotite_10.jpg"" style=""width:8cm; height:5.390000000000001cm;""><p>What type of rock is this?</p>","0","class_response","1","test","40","Andesite","Peridotite","10","false","1","7","",""
"","","","","","","","","","","","html-keyboard-response","284","2.0.0","855670","633f5252efab6885fedfad7d","2","16","null","","","","","","","","","<p style='font-size: 30px;'><strong>Okay</strong></p>","null","neutral_feedback","1","test","40","","","","","","","",""
"","","","","","","","","","","","html-button-response","285","2.0.0","856064","633f5252efab6885fedfad7d","2","16","393","","","","","","","","","<img src= ""rock_img/I_Pegmatite_15.jpg"" style=""width:8cm; height:6cm;""><p>What type of rock is this?</p>","5","class_response","1","test","41","Pegmatite","Pegmatite","15","true","6","6","",""
"","","","","","","","","","","","html-keyboard-response","286","2.0.0","856569","633f5252efab6885fedfad7d","2","16","null","","","","","","","","","<p style='font-size: 30px;'><strong>Okay</strong></p>","null","neutral_feedback","1","test","41","","","","","","","",""
"","","","","","","","","","","","html-button-response","287","2.0.0","857840","633f5252efab6885fedfad7d","2","16","1269","","","","","","","","","<img src= ""rock_img/I_Obsidian_12.jpg"" style=""width:8cm; height:6.53cm;""><p>What type of rock is this?</p>","5","class_response","1","test","42","Pegmatite","Obsidian","12","false","6","5","",""
"","","","","","","","","","","","html-keyboard-response","288","2.0.0","858343","633f5252efab6885fedfad7d","2","16","null","","","","","","","","","<p style='font-size: 30px;'><strong>Okay</strong></p>","null","neutral_feedback","1","test","42","","","","","","","",""
"","","","","","","","","","","","html-button-response","289","2.0.0","858824","633f5252efab6885fedfad7d","2","16","479","","","","","","","","","<img src= ""rock_img/I_Diorite_07.jpg"" style=""width:8cm; height:5.239999999999999cm;""><p>What type of rock is this?</p>","5","class_response","1","test","43","Pegmatite","Diorite","07","false","6","3","",""
"","","","","","","","","","","","html-keyboard-response","290","2.0.0","859325","633f5252efab6885fedfad7d","2","16","null","","","","","","","","","<p style='font-size: 30px;'><strong>Okay</strong></p>","null","neutral_feedback","1","test","43","","","","","","","",""
"","","","","","","","","","","","html-button-response","291","2.0.0","859688","633f5252efab6885fedfad7d","2","16","361","","","","","","","","","<img src= ""rock_img/I_Pegmatite_06.jpg"" style=""width:8cm; height:5.17cm;""><p>What type of rock is this?</p>","6","class_response","1","test","44","Peridotite","Pegmatite","06","false","7","6","",""
"","","","","","","","","","","","html-keyboard-response","292","2.0.0","860190","633f5252efab6885fedfad7d","2","16","null","","","","","","","","","<p style='font-size: 30px;'><strong>Okay</strong></p>","null","neutral_feedback","1","test","44","","","","","","","",""
"","","","","","","","","","","","html-button-response","293","2.0.0","861080","633f5252efab6885fedfad7d","2","16","889","","","","","","","","","<img src= ""rock_img/I_Peridotite_06.jpg"" style=""width:8cm; height:7.53cm;""><p>What type of rock is this?</p>","2","class_response","1","test","45","Diorite","Peridotite","06","false","3","7","",""
"","","","","","","","","","","","html-keyboard-response","294","2.0.0","861585","633f5252efab6885fedfad7d","2","16","null","","","","","","","","","<p style='font-size: 30px;'><strong>Okay</strong></p>","null","neutral_feedback","1","test","45","","","","","","","",""
"","","","","","","","","","","","html-button-response","295","2.0.0","872936","633f5252efab6885fedfad7d","2","16","11350","","","","","","","","","<img src= ""rock_img/I_Pegmatite_10.jpg"" style=""width:8cm; height:4.16cm;""><p>What type of rock is this?</p>","5","class_response","1","test","46","Pegmatite","Pegmatite","10","true","6","6","",""
"","","","","","","","","","","","html-keyboard-response","296","2.0.0","873441","633f5252efab6885fedfad7d","2","16","null","","","","","","","","","<p style='font-size: 30px;'><strong>Okay</strong></p>","null","neutral_feedback","1","test","46","","","","","","","",""
"","","","","","","","","","","","html-button-response","297","2.0.0","886880","633f5252efab6885fedfad7d","2","16","13437","","","","","","","","","<img src= ""rock_img/I_Peridotite_08.jpg"" style=""width:8cm; height:6.7cm;""><p>What type of rock is this?</p>","6","class_response","1","test","47","Peridotite","Peridotite","08","true","7","7","",""
"","","","","","","","","","","","html-keyboard-response","298","2.0.0","887381","633f5252efab6885fedfad7d","2","16","null","","","","","","","","","<p style='font-size: 30px;'><strong>Okay</strong></p>","null","neutral_feedback","1","test","47","","","","","","","",""
"","","","","","","","","","","","html-button-response","299","2.0.0","893112","633f5252efab6885fedfad7d","2","16","5730","","","","","","","","","<img src= ""rock_img/I_Andesite_10.jpg"" style=""width:8cm; height:4.16cm;""><p>What type of rock is this?</p>","0","class_response","1","test","48","Andesite","Andesite","10","true","1","1","",""
"","","","","","","","","","","","html-keyboard-response","300","2.0.0","893624","633f5252efab6885fedfad7d","2","16","null","","","","","","","","","<p style='font-size: 30px;'><strong>Okay</strong></p>","null","neutral_feedback","1","test","48","","","","","","","",""
"","","","","","","","","","","","html-button-response","301","2.0.0","908168","633f5252efab6885fedfad7d","2","16","","","","","","","","","","","","cycle_feedback","","","","","","","","","","4017","10519.900000000373"
"","","","","","","","","","","","html-button-response","303","2.0.0","909624","633f5252efab6885fedfad7d","2","16","1455","","","","","","","","","","0","start_train","","","","","","","","","","",""
"","","","","","","","","","","","html-button-response","304","2.0.0","931368","633f5252efab6885fedfad7d","2","16","21743","","","","","","","","","<img src= ""rock_img/I_Diorite_08.jpg"" style=""width:8cm; height:6.37cm;""><p>What type of rock is this?</p>","2","class_response","2","train","1","Diorite","Diorite","08","true","3","3","",""
