"width","height","webaudio","browser","browser_version","mobile","os","fullscreen","vsync_rate","webcam","microphone","trial_type","trial_index","plugin_version","time_elapsed","subjID","condition","stimID","rt","url","success","value","timeout","failed_images","failed_audio","failed_video","view_history","stimulus","response","trialType","cycle","phase","trial","resp","cat","token","corr","resp_num","cat_num","time_fb1","time_fb2"
"1366","607","true","chrome","131.0.0","false","Windows 10","true","60.77","true","true","browser-check","0","2.0.0","1008","66e9d5a253706d5ba625cf80","2","40","","","","","","","","","","","","","","","","","","","","","","",""
"","","","","","","","","","","","external-html","1","2.0.0","49672","66e9d5a253706d5ba625cf80","2","40","48581","consent_form.html","","","","","","","","","","","","","","","","","","","","",""
"","","","","","","","","","","","fullscreen","2","2.0.0","54552","66e9d5a253706d5ba625cf80","2","40","3874","","true","","","","","","","","","","","","","","","","","","","",""
"","","","","","","","","","","","call-function","3","2.0.0","54554","66e9d5a253706d5ba625cf80","2","40","","","","{}","","","","","","","","","","","","","","","","","","",""
"","","","","","","","","","","","preload","4","2.0.0","58103","66e9d5a253706d5ba625cf80","2","40","","","true","","false","[]","[]","[]","","","","","","","","","","","","","","",""
"","","","","","","","","","","","instructions","5","2.0.0","116023","66e9d5a253706d5ba625cf80","2","40","57919","","","","","","","","[{""page_index"":0,""viewing_time"":10003},{""page_index"":1,""viewing_time"":37702},{""page_index"":2,""viewing_time"":10214}]","","","","","","","","","","","","","",""
"","","","","","","","","","","","html-button-response","6","2.0.0","120752","66e9d5a253706d5ba625cf80","2","40","4726","","","","","","","","","","0","start_test","","","","","","","","","","",""
"","","","","","","","","","","","html-button-response","7","2.0.0","129690","66e9d5a253706d5ba625cf80","2","40","8936","","","","","","","","","<img src= ""rock_img/I_Gabbro_05.jpg"" style=""width:8cm; height:6cm;""><p>What type of rock is this?</p>","6","class_response","0","test","1","Peridotite","Gabbro","05","false","7","4","",""
"","","","","","","","","","","","html-keyboard-response","8","2.0.0","130197","66e9d5a253706d5ba625cf80","2","40","null","","","","","","","","","<p style='font-size: 30px;'><strong>Okay</strong></p>","null","neutral_feedback","0","test","1","","","","","","","",""
"","","","","","","","","","","","html-button-response","9","2.0.0","143822","66e9d5a253706d5ba625cf80","2","40","13622","","","","","","","","","<img src= ""rock_img/I_Gabbro_10.jpg"" style=""width:8cm; height:5.680000000000001cm;""><p>What type of rock is this?</p>","6","class_response","0","test","2","Peridotite","Gabbro","10","false","7","4","",""
"","","","","","","","","","","","html-keyboard-response","10","2.0.0","144334","66e9d5a253706d5ba625cf80","2","40","null","","","","","","","","","<p style='font-size: 30px;'><strong>Okay</strong></p>","null","neutral_feedback","0","test","2","","","","","","","",""
"","","","","","","","","","","","html-button-response","11","2.0.0","146641","66e9d5a253706d5ba625cf80","2","40","2305","","","","","","","","","<img src= ""rock_img/I_Basalt_02.jpg"" style=""width:8cm; height:6.45cm;""><p>What type of rock is this?</p>","1","class_response","0","test","3","Basalt","Basalt","02","true","2","2","",""
"","","","","","","","","","","","html-keyboard-response","12","2.0.0","147143","66e9d5a253706d5ba625cf80","2","40","null","","","","","","","","","<p style='font-size: 30px;'><strong>Okay</strong></p>","null","neutral_feedback","0","test","3","","","","","","","",""
"","","","","","","","","","","","html-button-response","13","2.0.0","152843","66e9d5a253706d5ba625cf80","2","40","5699","","","","","","","","","<img src= ""rock_img/I_Diorite_08.jpg"" style=""width:8cm; height:6.37cm;""><p>What type of rock is this?</p>","2","class_response","0","test","4","Diorite","Diorite","08","true","3","3","",""
"","","","","","","","","","","","html-keyboard-response","14","2.0.0","153350","66e9d5a253706d5ba625cf80","2","40","null","","","","","","","","","<p style='font-size: 30px;'><strong>Okay</strong></p>","null","neutral_feedback","0","test","4","","","","","","","",""
"","","","","","","","","","","","html-button-response","15","2.0.0","158379","66e9d5a253706d5ba625cf80","2","40","5028","","","","","","","","","<img src= ""rock_img/I_Basalt_04.jpg"" style=""width:8cm; height:7.53cm;""><p>What type of rock is this?</p>","4","class_response","0","test","5","Obsidian","Basalt","04","false","5","2","",""
"","","","","","","","","","","","html-keyboard-response","16","2.0.0","158881","66e9d5a253706d5ba625cf80","2","40","null","","","","","","","","","<p style='font-size: 30px;'><strong>Okay</strong></p>","null","neutral_feedback","0","test","5","","","","","","","",""
"","","","","","","","","","","","html-button-response","17","2.0.0","160752","66e9d5a253706d5ba625cf80","2","40","1869","","","","","","","","","<img src= ""rock_img/I_Pumice_08.jpg"" style=""width:8cm; height:6.67cm;""><p>What type of rock is this?</p>","7","class_response","0","test","6","Pumice","Pumice","08","true","8","8","",""
"","","","","","","","","","","","html-keyboard-response","18","2.0.0","161253","66e9d5a253706d5ba625cf80","2","40","null","","","","","","","","","<p style='font-size: 30px;'><strong>Okay</strong></p>","null","neutral_feedback","0","test","6","","","","","","","",""
"","","","","","","","","","","","html-button-response","19","2.0.0","164595","66e9d5a253706d5ba625cf80","2","40","3341","","","","","","","","","<img src= ""rock_img/I_Gabbro_03.jpg"" style=""width:8cm; height:8.52cm;""><p>What type of rock is this?</p>","5","class_response","0","test","7","Pegmatite","Gabbro","03","false","6","4","",""
"","","","","","","","","","","","html-keyboard-response","20","2.0.0","165097","66e9d5a253706d5ba625cf80","2","40","null","","","","","","","","","<p style='font-size: 30px;'><strong>Okay</strong></p>","null","neutral_feedback","0","test","7","","","","","","","",""
"","","","","","","","","","","","html-button-response","21","2.0.0","170205","66e9d5a253706d5ba625cf80","2","40","5107","","","","","","","","","<img src= ""rock_img/I_Pumice_16.jpg"" style=""width:8cm; height:6.79cm;""><p>What type of rock is this?</p>","3","class_response","0","test","8","Gabbro","Pumice","16","false","4","8","",""
"","","","","","","","","","","","html-keyboard-response","22","2.0.0","170706","66e9d5a253706d5ba625cf80","2","40","null","","","","","","","","","<p style='font-size: 30px;'><strong>Okay</strong></p>","null","neutral_feedback","0","test","8","","","","","","","",""
"","","","","","","","","","","","html-button-response","23","2.0.0","173217","66e9d5a253706d5ba625cf80","2","40","2510","","","","","","","","","<img src= ""rock_img/I_Pegmatite_15.jpg"" style=""width:8cm; height:6cm;""><p>What type of rock is this?</p>","0","class_response","0","test","9","Andesite","Pegmatite","15","false","1","6","",""
"","","","","","","","","","","","html-keyboard-response","24","2.0.0","173719","66e9d5a253706d5ba625cf80","2","40","null","","","","","","","","","<p style='font-size: 30px;'><strong>Okay</strong></p>","null","neutral_feedback","0","test","9","","","","","","","",""
"","","","","","","","","","","","html-button-response","25","2.0.0","175363","66e9d5a253706d5ba625cf80","2","40","1643","","","","","","","","","<img src= ""rock_img/I_Obsidian_12.jpg"" style=""width:8cm; height:6.53cm;""><p>What type of rock is this?</p>","4","class_response","0","test","10","Obsidian","Obsidian","12","true","5","5","",""
"","","","","","","","","","","","html-keyboard-response","26","2.0.0","175875","66e9d5a253706d5ba625cf80","2","40","null","","","","","","","","","<p style='font-size: 30px;'><strong>Okay</strong></p>","null","neutral_feedback","0","test","10","","","","","","","",""
"","","","","","","","","","","","html-button-response","27","2.0.0","177575","66e9d5a253706d5ba625cf80","2","40","1699","","","","","","","","","<img src= ""rock_img/I_Obsidian_10.jpg"" style=""width:8cm; height:6.260000000000001cm;""><p>What type of rock is this?</p>","4","class_response","0","test","11","Obsidian","Obsidian","10","true","5","5","",""
"","","","","","","","","","","","html-keyboard-response","28","2.0.0","178089","66e9d5a253706d5ba625cf80","2","40","null","","","","","","","","","<p style='font-size: 30px;'><strong>Okay</strong></p>","null","neutral_feedback","0","test","11","","","","","","","",""
"","","","","","","","","","","","html-button-response","29","2.0.0","180163","66e9d5a253706d5ba625cf80","2","40","2073","","","","","","","","","<img src= ""rock_img/I_Diorite_14.jpg"" style=""width:8cm; height:5.71cm;""><p>What type of rock is this?</p>","5","class_response","0","test","12","Pegmatite","Diorite","14","false","6","3","",""
"","","","","","","","","","","","html-keyboard-response","30","2.0.0","180665","66e9d5a253706d5ba625cf80","2","40","null","","","","","","","","","<p style='font-size: 30px;'><strong>Okay</strong></p>","null","neutral_feedback","0","test","12","","","","","","","",""
"","","","","","","","","","","","html-button-response","31","2.0.0","182597","66e9d5a253706d5ba625cf80","2","40","1931","","","","","","","","","<img src= ""rock_img/I_Pumice_15.jpg"" style=""width:8cm; height:7.86cm;""><p>What type of rock is this?</p>","7","class_response","0","test","13","Pumice","Pumice","15","true","8","8","",""
"","","","","","","","","","","","html-keyboard-response","32","2.0.0","183106","66e9d5a253706d5ba625cf80","2","40","null","","","","","","","","","<p style='font-size: 30px;'><strong>Okay</strong></p>","null","neutral_feedback","0","test","13","","","","","","","",""
"","","","","","","","","","","","html-button-response","33","2.0.0","185931","66e9d5a253706d5ba625cf80","2","40","2824","","","","","","","","","<img src= ""rock_img/I_Peridotite_16.jpg"" style=""width:8cm; height:6.989999999999999cm;""><p>What type of rock is this?</p>","6","class_response","0","test","14","Peridotite","Peridotite","16","true","7","7","",""
"","","","","","","","","","","","html-keyboard-response","34","2.0.0","186437","66e9d5a253706d5ba625cf80","2","40","null","","","","","","","","","<p style='font-size: 30px;'><strong>Okay</strong></p>","null","neutral_feedback","0","test","14","","","","","","","",""
"","","","","","","","","","","","html-button-response","35","2.0.0","189841","66e9d5a253706d5ba625cf80","2","40","3403","","","","","","","","","<img src= ""rock_img/I_Gabbro_14.jpg"" style=""width:8cm; height:8.48cm;""><p>What type of rock is this?</p>","6","class_response","0","test","15","Peridotite","Gabbro","14","false","7","4","",""
"","","","","","","","","","","","html-keyboard-response","36","2.0.0","190350","66e9d5a253706d5ba625cf80","2","40","null","","","","","","","","","<p style='font-size: 30px;'><strong>Okay</strong></p>","null","neutral_feedback","0","test","15","","","","","","","",""
"","","","","","","","","","","","html-button-response","37","2.0.0","191931","66e9d5a253706d5ba625cf80","2","40","1581","","","","","","","","","<img src= ""rock_img/I_Obsidian_04.jpg"" style=""width:8cm; height:6.930000000000001cm;""><p>What type of rock is this?</p>","4","class_response","0","test","16","Obsidian","Obsidian","04","true","5","5","",""
"","","","","","","","","","","","html-keyboard-response","38","2.0.0","192436","66e9d5a253706d5ba625cf80","2","40","null","","","","","","","","","<p style='font-size: 30px;'><strong>Okay</strong></p>","null","neutral_feedback","0","test","16","","","","","","","",""
"","","","","","","","","","","","html-button-response","39","2.0.0","195423","66e9d5a253706d5ba625cf80","2","40","2986","","","","","","","","","<img src= ""rock_img/I_Andesite_11.jpg"" style=""width:8cm; height:4.92cm;""><p>What type of rock is this?</p>","0","class_response","0","test","17","Andesite","Andesite","11","true","1","1","",""
"","","","","","","","","","","","html-keyboard-response","40","2.0.0","195926","66e9d5a253706d5ba625cf80","2","40","null","","","","","","","","","<p style='font-size: 30px;'><strong>Okay</strong></p>","null","neutral_feedback","0","test","17","","","","","","","",""
"","","","","","","","","","","","html-button-response","41","2.0.0","197507","66e9d5a253706d5ba625cf80","2","40","1580","","","","","","","","","<img src= ""rock_img/I_Pegmatite_12.jpg"" style=""width:8cm; height:5.7cm;""><p>What type of rock is this?</p>","0","class_response","0","test","18","Andesite","Pegmatite","12","false","1","6","",""
"","","","","","","","","","","","html-keyboard-response","42","2.0.0","198016","66e9d5a253706d5ba625cf80","2","40","null","","","","","","","","","<p style='font-size: 30px;'><strong>Okay</strong></p>","null","neutral_feedback","0","test","18","","","","","","","",""
"","","","","","","","","","","","html-button-response","43","2.0.0","203533","66e9d5a253706d5ba625cf80","2","40","5516","","","","","","","","","<img src= ""rock_img/I_Peridotite_07.jpg"" style=""width:8cm; height:4.83cm;""><p>What type of rock is this?</p>","6","class_response","0","test","19","Peridotite","Peridotite","07","true","7","7","",""
"","","","","","","","","","","","html-keyboard-response","44","2.0.0","204046","66e9d5a253706d5ba625cf80","2","40","null","","","","","","","","","<p style='font-size: 30px;'><strong>Okay</strong></p>","null","neutral_feedback","0","test","19","","","","","","","",""
"","","","","","","","","","","","html-button-response","45","2.0.0","205519","66e9d5a253706d5ba625cf80","2","40","1472","","","","","","","","","<img src= ""rock_img/I_Diorite_16.jpg"" style=""width:8cm; height:6.74cm;""><p>What type of rock is this?</p>","5","class_response","0","test","20","Pegmatite","Diorite","16","false","6","3","",""
"","","","","","","","","","","","html-keyboard-response","46","2.0.0","206020","66e9d5a253706d5ba625cf80","2","40","null","","","","","","","","","<p style='font-size: 30px;'><strong>Okay</strong></p>","null","neutral_feedback","0","test","20","","","","","","","",""
"","","","","","","","","","","","html-button-response","47","2.0.0","208251","66e9d5a253706d5ba625cf80","2","40","2230","","","","","","","","","<img src= ""rock_img/I_Peridotite_10.jpg"" style=""width:8cm; height:5.390000000000001cm;""><p>What type of rock is this?</p>","6","class_response","0","test","21","Peridotite","Peridotite","10","true","7","7","",""
"","","","","","","","","","","","html-keyboard-response","48","2.0.0","208765","66e9d5a253706d5ba625cf80","2","40","null","","","","","","","","","<p style='font-size: 30px;'><strong>Okay</strong></p>","null","neutral_feedback","0","test","21","","","","","","","",""
"","","","","","","","","","","","html-button-response","49","2.0.0","211511","66e9d5a253706d5ba625cf80","2","40","2745","","","","","","","","","<img src= ""rock_img/I_Gabbro_08.jpg"" style=""width:8cm; height:5.15cm;""><p>What type of rock is this?</p>","4","class_response","0","test","22","Obsidian","Gabbro","08","false","5","4","",""
"","","","","","","","","","","","html-keyboard-response","50","2.0.0","212013","66e9d5a253706d5ba625cf80","2","40","null","","","","","","","","","<p style='font-size: 30px;'><strong>Okay</strong></p>","null","neutral_feedback","0","test","22","","","","","","","",""
"","","","","","","","","","","","html-button-response","51","2.0.0","213739","66e9d5a253706d5ba625cf80","2","40","1725","","","","","","","","","<img src= ""rock_img/I_Diorite_10.jpg"" style=""width:8cm; height:5.949999999999999cm;""><p>What type of rock is this?</p>","0","class_response","0","test","23","Andesite","Diorite","10","false","1","3","",""
"","","","","","","","","","","","html-keyboard-response","52","2.0.0","214251","66e9d5a253706d5ba625cf80","2","40","null","","","","","","","","","<p style='font-size: 30px;'><strong>Okay</strong></p>","null","neutral_feedback","0","test","23","","","","","","","",""
"","","","","","","","","","","","html-button-response","53","2.0.0","215669","66e9d5a253706d5ba625cf80","2","40","1417","","","","","","","","","<img src= ""rock_img/I_Basalt_06.jpg"" style=""width:8cm; height:7.06cm;""><p>What type of rock is this?</p>","4","class_response","0","test","24","Obsidian","Basalt","06","false","5","2","",""
"","","","","","","","","","","","html-keyboard-response","54","2.0.0","216170","66e9d5a253706d5ba625cf80","2","40","null","","","","","","","","","<p style='font-size: 30px;'><strong>Okay</strong></p>","null","neutral_feedback","0","test","24","","","","","","","",""
"","","","","","","","","","","","html-button-response","55","2.0.0","218025","66e9d5a253706d5ba625cf80","2","40","1854","","","","","","","","","<img src= ""rock_img/I_Andesite_16.jpg"" style=""width:8cm; height:6.010000000000001cm;""><p>What type of rock is this?</p>","2","class_response","0","test","25","Diorite","Andesite","16","false","3","1","",""
"","","","","","","","","","","","html-keyboard-response","56","2.0.0","218535","66e9d5a253706d5ba625cf80","2","40","null","","","","","","","","","<p style='font-size: 30px;'><strong>Okay</strong></p>","null","neutral_feedback","0","test","25","","","","","","","",""
"","","","","","","","","","","","html-button-response","57","2.0.0","222053","66e9d5a253706d5ba625cf80","2","40","3517","","","","","","","","","<img src= ""rock_img/I_Peridotite_13.jpg"" style=""width:8cm; height:7.58cm;""><p>What type of rock is this?</p>","3","class_response","0","test","26","Gabbro","Peridotite","13","false","4","7","",""
"","","","","","","","","","","","html-keyboard-response","58","2.0.0","222561","66e9d5a253706d5ba625cf80","2","40","null","","","","","","","","","<p style='font-size: 30px;'><strong>Okay</strong></p>","null","neutral_feedback","0","test","26","","","","","","","",""
"","","","","","","","","","","","html-button-response","59","2.0.0","224322","66e9d5a253706d5ba625cf80","2","40","1759","","","","","","","","","<img src= ""rock_img/I_Obsidian_11.jpg"" style=""width:8cm; height:6.05cm;""><p>What type of rock is this?</p>","4","class_response","0","test","27","Obsidian","Obsidian","11","true","5","5","",""
"","","","","","","","","","","","html-keyboard-response","60","2.0.0","224840","66e9d5a253706d5ba625cf80","2","40","null","","","","","","","","","<p style='font-size: 30px;'><strong>Okay</strong></p>","null","neutral_feedback","0","test","27","","","","","","","",""
"","","","","","","","","","","","html-button-response","61","2.0.0","226499","66e9d5a253706d5ba625cf80","2","40","1658","","","","","","","","","<img src= ""rock_img/I_Obsidian_14.jpg"" style=""width:8cm; height:7.64cm;""><p>What type of rock is this?</p>","4","class_response","0","test","28","Obsidian","Obsidian","14","true","5","5","",""
"","","","","","","","","","","","html-keyboard-response","62","2.0.0","227013","66e9d5a253706d5ba625cf80","2","40","null","","","","","","","","","<p style='font-size: 30px;'><strong>Okay</strong></p>","null","neutral_feedback","0","test","28","","","","","","","",""
"","","","","","","","","","","","html-button-response","63","2.0.0","228615","66e9d5a253706d5ba625cf80","2","40","1601","","","","","","","","","<img src= ""rock_img/I_Diorite_12.jpg"" style=""width:8cm; height:4.88cm;""><p>What type of rock is this?</p>","0","class_response","0","test","29","Andesite","Diorite","12","false","1","3","",""
"","","","","","","","","","","","html-keyboard-response","64","2.0.0","229129","66e9d5a253706d5ba625cf80","2","40","null","","","","","","","","","<p style='font-size: 30px;'><strong>Okay</strong></p>","null","neutral_feedback","0","test","29","","","","","","","",""
"","","","","","","","","","","","html-button-response","65","2.0.0","231379","66e9d5a253706d5ba625cf80","2","40","2249","","","","","","","","","<img src= ""rock_img/I_Andesite_09.jpg"" style=""width:8cm; height:6cm;""><p>What type of rock is this?</p>","1","class_response","0","test","30","Basalt","Andesite","09","false","2","1","",""
"","","","","","","","","","","","html-keyboard-response","66","2.0.0","231886","66e9d5a253706d5ba625cf80","2","40","null","","","","","","","","","<p style='font-size: 30px;'><strong>Okay</strong></p>","null","neutral_feedback","0","test","30","","","","","","","",""
"","","","","","","","","","","","html-button-response","67","2.0.0","233719","66e9d5a253706d5ba625cf80","2","40","1832","","","","","","","","","<img src= ""rock_img/I_Pumice_04.jpg"" style=""width:8cm; height:6.819999999999999cm;""><p>What type of rock is this?</p>","7","class_response","0","test","31","Pumice","Pumice","04","true","8","8","",""
"","","","","","","","","","","","html-keyboard-response","68","2.0.0","234220","66e9d5a253706d5ba625cf80","2","40","null","","","","","","","","","<p style='font-size: 30px;'><strong>Okay</strong></p>","null","neutral_feedback","0","test","31","","","","","","","",""
"","","","","","","","","","","","html-button-response","69","2.0.0","236467","66e9d5a253706d5ba625cf80","2","40","2246","","","","","","","","","<img src= ""rock_img/I_Basalt_16.jpg"" style=""width:8cm; height:7.659999999999999cm;""><p>What type of rock is this?</p>","7","class_response","0","test","32","Pumice","Basalt","16","false","8","2","",""
"","","","","","","","","","","","html-keyboard-response","70","2.0.0","236969","66e9d5a253706d5ba625cf80","2","40","null","","","","","","","","","<p style='font-size: 30px;'><strong>Okay</strong></p>","null","neutral_feedback","0","test","32","","","","","","","",""
"","","","","","","","","","","","html-button-response","71","2.0.0","240377","66e9d5a253706d5ba625cf80","2","40","3407","","","","","","","","","<img src= ""rock_img/I_Basalt_11.jpg"" style=""width:8cm; height:5.359999999999999cm;""><p>What type of rock is this?</p>","2","class_response","0","test","33","Diorite","Basalt","11","false","3","2","",""
"","","","","","","","","","","","html-keyboard-response","72","2.0.0","240879","66e9d5a253706d5ba625cf80","2","40","null","","","","","","","","","<p style='font-size: 30px;'><strong>Okay</strong></p>","null","neutral_feedback","0","test","33","","","","","","","",""
"","","","","","","","","","","","html-button-response","73","2.0.0","243211","66e9d5a253706d5ba625cf80","2","40","2332","","","","","","","","","<img src= ""rock_img/I_Gabbro_09.jpg"" style=""width:8cm; height:7.279999999999999cm;""><p>What type of rock is this?</p>","6","class_response","0","test","34","Peridotite","Gabbro","09","false","7","4","",""
"","","","","","","","","","","","html-keyboard-response","74","2.0.0","243713","66e9d5a253706d5ba625cf80","2","40","null","","","","","","","","","<p style='font-size: 30px;'><strong>Okay</strong></p>","null","neutral_feedback","0","test","34","","","","","","","",""
"","","","","","","","","","","","html-button-response","75","2.0.0","245207","66e9d5a253706d5ba625cf80","2","40","1493","","","","","","","","","<img src= ""rock_img/I_Pumice_02.jpg"" style=""width:8cm; height:7.3999999999999995cm;""><p>What type of rock is this?</p>","7","class_response","0","test","35","Pumice","Pumice","02","true","8","8","",""
"","","","","","","","","","","","html-keyboard-response","76","2.0.0","245712","66e9d5a253706d5ba625cf80","2","40","null","","","","","","","","","<p style='font-size: 30px;'><strong>Okay</strong></p>","null","neutral_feedback","0","test","35","","","","","","","",""
"","","","","","","","","","","","html-button-response","77","2.0.0","247129","66e9d5a253706d5ba625cf80","2","40","1416","","","","","","","","","<img src= ""rock_img/I_Andesite_07.jpg"" style=""width:8cm; height:5.93cm;""><p>What type of rock is this?</p>","0","class_response","0","test","36","Andesite","Andesite","07","true","1","1","",""
"","","","","","","","","","","","html-keyboard-response","78","2.0.0","247631","66e9d5a253706d5ba625cf80","2","40","null","","","","","","","","","<p style='font-size: 30px;'><strong>Okay</strong></p>","null","neutral_feedback","0","test","36","","","","","","","",""
"","","","","","","","","","","","html-button-response","79","2.0.0","249445","66e9d5a253706d5ba625cf80","2","40","1813","","","","","","","","","<img src= ""rock_img/I_Pegmatite_11.jpg"" style=""width:8cm; height:8.14cm;""><p>What type of rock is this?</p>","0","class_response","0","test","37","Andesite","Pegmatite","11","false","1","6","",""
"","","","","","","","","","","","html-keyboard-response","80","2.0.0","249950","66e9d5a253706d5ba625cf80","2","40","null","","","","","","","","","<p style='font-size: 30px;'><strong>Okay</strong></p>","null","neutral_feedback","0","test","37","","","","","","","",""
"","","","","","","","","","","","html-button-response","81","2.0.0","251697","66e9d5a253706d5ba625cf80","2","40","1746","","","","","","","","","<img src= ""rock_img/I_Pegmatite_13.jpg"" style=""width:8cm; height:4.95cm;""><p>What type of rock is this?</p>","4","class_response","0","test","38","Obsidian","Pegmatite","13","false","5","6","",""
"","","","","","","","","","","","html-keyboard-response","82","2.0.0","252208","66e9d5a253706d5ba625cf80","2","40","null","","","","","","","","","<p style='font-size: 30px;'><strong>Okay</strong></p>","null","neutral_feedback","0","test","38","","","","","","","",""
"","","","","","","","","","","","html-button-response","83","2.0.0","254645","66e9d5a253706d5ba625cf80","2","40","2436","","","","","","","","","<img src= ""rock_img/I_Andesite_01.jpg"" style=""width:8cm; height:5.87cm;""><p>What type of rock is this?</p>","1","class_response","0","test","39","Basalt","Andesite","01","false","2","1","",""
"","","","","","","","","","","","html-keyboard-response","84","2.0.0","255146","66e9d5a253706d5ba625cf80","2","40","null","","","","","","","","","<p style='font-size: 30px;'><strong>Okay</strong></p>","null","neutral_feedback","0","test","39","","","","","","","",""
"","","","","","","","","","","","html-button-response","85","2.0.0","256969","66e9d5a253706d5ba625cf80","2","40","1822","","","","","","","","","<img src= ""rock_img/I_Pumice_13.jpg"" style=""width:8cm; height:8.200000000000001cm;""><p>What type of rock is this?</p>","7","class_response","0","test","40","Pumice","Pumice","13","true","8","8","",""
"","","","","","","","","","","","html-keyboard-response","86","2.0.0","257473","66e9d5a253706d5ba625cf80","2","40","null","","","","","","","","","<p style='font-size: 30px;'><strong>Okay</strong></p>","null","neutral_feedback","0","test","40","","","","","","","",""
"","","","","","","","","","","","html-button-response","87","2.0.0","260877","66e9d5a253706d5ba625cf80","2","40","3403","","","","","","","","","<img src= ""rock_img/I_Peridotite_06.jpg"" style=""width:8cm; height:7.53cm;""><p>What type of rock is this?</p>","5","class_response","0","test","41","Pegmatite","Peridotite","06","false","6","7","",""
"","","","","","","","","","","","html-keyboard-response","88","2.0.0","261391","66e9d5a253706d5ba625cf80","2","40","null","","","","","","","","","<p style='font-size: 30px;'><strong>Okay</strong></p>","null","neutral_feedback","0","test","41","","","","","","","",""
"","","","","","","","","","","","html-button-response","89","2.0.0","263881","66e9d5a253706d5ba625cf80","2","40","2489","","","","","","","","","<img src= ""rock_img/I_Andesite_10.jpg"" style=""width:8cm; height:4.16cm;""><p>What type of rock is this?</p>","6","class_response","0","test","42","Peridotite","Andesite","10","false","7","1","",""
"","","","","","","","","","","","html-keyboard-response","90","2.0.0","264383","66e9d5a253706d5ba625cf80","2","40","null","","","","","","","","","<p style='font-size: 30px;'><strong>Okay</strong></p>","null","neutral_feedback","0","test","42","","","","","","","",""
"","","","","","","","","","","","html-button-response","91","2.0.0","266221","66e9d5a253706d5ba625cf80","2","40","1837","","","","","","","","","<img src= ""rock_img/I_Basalt_08.jpg"" style=""width:8cm; height:10.44cm;""><p>What type of rock is this?</p>","4","class_response","0","test","43","Obsidian","Basalt","08","false","5","2","",""
"","","","","","","","","","","","html-keyboard-response","92","2.0.0","266723","66e9d5a253706d5ba625cf80","2","40","null","","","","","","","","","<p style='font-size: 30px;'><strong>Okay</strong></p>","null","neutral_feedback","0","test","43","","","","","","","",""
"","","","","","","","","","","","html-button-response","93","2.0.0","268407","66e9d5a253706d5ba625cf80","2","40","1682","","","","","","","","","<img src= ""rock_img/I_Pegmatite_09.jpg"" style=""width:8cm; height:4.03cm;""><p>What type of rock is this?</p>","0","class_response","0","test","44","Andesite","Pegmatite","09","false","1","6","",""
"","","","","","","","","","","","html-keyboard-response","94","2.0.0","268920","66e9d5a253706d5ba625cf80","2","40","null","","","","","","","","","<p style='font-size: 30px;'><strong>Okay</strong></p>","null","neutral_feedback","0","test","44","","","","","","","",""
"","","","","","","","","","","","html-button-response","95","2.0.0","270555","66e9d5a253706d5ba625cf80","2","40","1634","","","","","","","","","<img src= ""rock_img/I_Pegmatite_06.jpg"" style=""width:8cm; height:5.17cm;""><p>What type of rock is this?</p>","0","class_response","0","test","45","Andesite","Pegmatite","06","false","1","6","",""
"","","","","","","","","","","","html-keyboard-response","96","2.0.0","271068","66e9d5a253706d5ba625cf80","2","40","null","","","","","","","","","<p style='font-size: 30px;'><strong>Okay</strong></p>","null","neutral_feedback","0","test","45","","","","","","","",""
"","","","","","","","","","","","html-button-response","97","2.0.0","272109","66e9d5a253706d5ba625cf80","2","40","1040","","","","","","","","","<img src= ""rock_img/I_Peridotite_12.jpg"" style=""width:8cm; height:4.54cm;""><p>What type of rock is this?</p>","0","class_response","0","test","46","Andesite","Peridotite","12","false","1","7","",""
"","","","","","","","","","","","html-keyboard-response","98","2.0.0","272623","66e9d5a253706d5ba625cf80","2","40","null","","","","","","","","","<p style='font-size: 30px;'><strong>Okay</strong></p>","null","neutral_feedback","0","test","46","","","","","","","",""
"","","","","","","","","","","","html-button-response","99","2.0.0","274057","66e9d5a253706d5ba625cf80","2","40","1433","","","","","","","","","<img src= ""rock_img/I_Obsidian_16.jpg"" style=""width:8cm; height:9.3cm;""><p>What type of rock is this?</p>","4","class_response","0","test","47","Obsidian","Obsidian","16","true","5","5","",""
"","","","","","","","","","","","html-keyboard-response","100","2.0.0","274558","66e9d5a253706d5ba625cf80","2","40","null","","","","","","","","","<p style='font-size: 30px;'><strong>Okay</strong></p>","null","neutral_feedback","0","test","47","","","","","","","",""
"","","","","","","","","","","","html-button-response","101","2.0.0","276155","66e9d5a253706d5ba625cf80","2","40","1596","","","","","","","","","<img src= ""rock_img/I_Diorite_02.jpg"" style=""width:8cm; height:6.27cm;""><p>What type of rock is this?</p>","0","class_response","0","test","48","Andesite","Diorite","02","false","1","3","",""
"","","","","","","","","","","","html-keyboard-response","102","2.0.0","276661","66e9d5a253706d5ba625cf80","2","40","null","","","","","","","","","<p style='font-size: 30px;'><strong>Okay</strong></p>","null","neutral_feedback","0","test","48","","","","","","","",""
"","","","","","","","","","","","instructions","103","2.0.0","316648","66e9d5a253706d5ba625cf80","2","40","39962","","","","","","","","[{""page_index"":0,""viewing_time"":30713},{""page_index"":1,""viewing_time"":4296},{""page_index"":2,""viewing_time"":4954}]","","","","","","","","","","","","","",""
"","","","","","","","","","","","html-button-response","104","2.0.0","321190","66e9d5a253706d5ba625cf80","2","40","4540","","","","","","","","","","0","start_train","","","","","","","","","","",""
"","","","","","","","","","","","html-button-response","105","2.0.0","325724","66e9d5a253706d5ba625cf80","2","40","4532","","","","","","","","","<img src= ""rock_img/I_Andesite_03.jpg"" style=""width:8cm; height:5.73cm;""><p>What type of rock is this?</p>","1","class_response","1","train","1","Basalt","Andesite","03","false","2","1","",""
"","","","","","","","","","","","html-button-response","106","2.0.0","329731","66e9d5a253706d5ba625cf80","2","40","4006","","","","","","","","","<img src= rock_img/I_Andesite_03.jpg style=""width:8cm; height:5.73cm;""><p style='font-size: 30px; color: red;'><strong>Incorrect!</strong></p><p style='font-size: 30px;'><strong>This rock is andesite</strong></p>","0","corr_feedback","1","train","1","","","","","","","",""
"","","","","","","","","","","","html-button-response","107","2.0.0","334250","66e9d5a253706d5ba625cf80","2","40","4516","","","","","","","","","<img src= ""rock_img/I_Diorite_06.jpg"" style=""width:8cm; height:6.03cm;""><p>What type of rock is this?</p>","5","class_response","1","train","2","Pegmatite","Diorite","06","false","6","3","",""
"","","","","","","","","","","","html-button-response","108","2.0.0","336707","66e9d5a253706d5ba625cf80","2","40","2457","","","","","","","","","<img src= rock_img/I_Diorite_06.jpg style=""width:8cm; height:6.03cm;""><p style='font-size: 30px; color: red;'><strong>Incorrect!</strong></p><p style='font-size: 30px;'><strong>This rock is diorite</strong></p>","0","corr_feedback","1","train","2","","","","","","","",""
"","","","","","","","","","","","html-button-response","109","2.0.0","340889","66e9d5a253706d5ba625cf80","2","40","4181","","","","","","","","","<img src= ""rock_img/I_Pegmatite_07.jpg"" style=""width:8cm; height:6.7cm;""><p>What type of rock is this?</p>","5","class_response","1","train","3","Pegmatite","Pegmatite","07","true","6","6","",""
"","","","","","","","","","","","html-button-response","110","2.0.0","343799","66e9d5a253706d5ba625cf80","2","40","2909","","","","","","","","","<img src= rock_img/I_Pegmatite_07.jpg style=""width:8cm; height:6.7cm;""><p style='font-size: 30px; color: green;'><strong>Correct!</strong></p><p style='font-size: 30px;'><strong>This rock is pegmatite</strong></p>","0","corr_feedback","1","train","3","","","","","","","",""
"","","","","","","","","","","","html-button-response","111","2.0.0","345849","66e9d5a253706d5ba625cf80","2","40","2049","","","","","","","","","<img src= ""rock_img/I_Gabbro_01.jpg"" style=""width:8cm; height:5.21cm;""><p>What type of rock is this?</p>","6","class_response","1","train","4","Peridotite","Gabbro","01","false","7","4","",""
"","","","","","","","","","","","html-button-response","112","2.0.0","348245","66e9d5a253706d5ba625cf80","2","40","2395","","","","","","","","","<img src= rock_img/I_Gabbro_01.jpg style=""width:8cm; height:5.21cm;""><p style='font-size: 30px; color: red;'><strong>Incorrect!</strong></p><p style='font-size: 30px;'><strong>This rock is gabbro</strong></p>","0","corr_feedback","1","train","4","","","","","","","",""
"","","","","","","","","","","","html-button-response","113","2.0.0","349975","66e9d5a253706d5ba625cf80","2","40","1729","","","","","","","","","<img src= ""rock_img/I_Peridotite_15.jpg"" style=""width:8cm; height:6cm;""><p>What type of rock is this?</p>","3","class_response","1","train","5","Gabbro","Peridotite","15","false","4","7","",""
"","","","","","","","","","","","html-button-response","114","2.0.0","354113","66e9d5a253706d5ba625cf80","2","40","4137","","","","","","","","","<img src= rock_img/I_Peridotite_15.jpg style=""width:8cm; height:6cm;""><p style='font-size: 30px; color: red;'><strong>Incorrect!</strong></p><p style='font-size: 30px;'><strong>This rock is peridotite</strong></p>","0","corr_feedback","1","train","5","","","","","","","",""
"","","","","","","","","","","","html-button-response","115","2.0.0","355401","66e9d5a253706d5ba625cf80","2","40","1287","","","","","","","","","<img src= ""rock_img/I_Basalt_05.jpg"" style=""width:8cm; height:8.18cm;""><p>What type of rock is this?</p>","4","class_response","1","train","6","Obsidian","Basalt","05","false","5","2","",""
"","","","","","","","","","","","html-button-response","116","2.0.0","356971","66e9d5a253706d5ba625cf80","2","40","1569","","","","","","","","","<img src= rock_img/I_Basalt_05.jpg style=""width:8cm; height:8.18cm;""><p style='font-size: 30px; color: red;'><strong>Incorrect!</strong></p><p style='font-size: 30px;'><strong>This rock is basalt</strong></p>","0","corr_feedback","1","train","6","","","","","","","",""
"","","","","","","","","","","","html-button-response","117","2.0.0","361355","66e9d5a253706d5ba625cf80","2","40","4383","","","","","","","","","<img src= ""rock_img/I_Diorite_13.jpg"" style=""width:8cm; height:6.29cm;""><p>What type of rock is this?</p>","0","class_response","1","train","7","Andesite","Diorite","13","false","1","3","",""
"","","","","","","","","","","","html-button-response","118","2.0.0","362725","66e9d5a253706d5ba625cf80","2","40","1369","","","","","","","","","<img src= rock_img/I_Diorite_13.jpg style=""width:8cm; height:6.29cm;""><p style='font-size: 30px; color: red;'><strong>Incorrect!</strong></p><p style='font-size: 30px;'><strong>This rock is diorite</strong></p>","0","corr_feedback","1","train","7","","","","","","","",""
"","","","","","","","","","","","html-button-response","119","2.0.0","364423","66e9d5a253706d5ba625cf80","2","40","1697","","","","","","","","","<img src= ""rock_img/I_Gabbro_12.jpg"" style=""width:8cm; height:7.800000000000001cm;""><p>What type of rock is this?</p>","1","class_response","1","train","8","Basalt","Gabbro","12","false","2","4","",""
"","","","","","","","","","","","html-button-response","120","2.0.0","366393","66e9d5a253706d5ba625cf80","2","40","1969","","","","","","","","","<img src= rock_img/I_Gabbro_12.jpg style=""width:8cm; height:7.800000000000001cm;""><p style='font-size: 30px; color: red;'><strong>Incorrect!</strong></p><p style='font-size: 30px;'><strong>This rock is gabbro</strong></p>","0","corr_feedback","1","train","8","","","","","","","",""
"","","","","","","","","","","","html-button-response","121","2.0.0","369141","66e9d5a253706d5ba625cf80","2","40","2747","","","","","","","","","<img src= ""rock_img/I_Pegmatite_03.jpg"" style=""width:8cm; height:5.239999999999999cm;""><p>What type of rock is this?</p>","5","class_response","1","train","9","Pegmatite","Pegmatite","03","true","6","6","",""
"","","","","","","","","","","","html-button-response","122","2.0.0","370961","66e9d5a253706d5ba625cf80","2","40","1819","","","","","","","","","<img src= rock_img/I_Pegmatite_03.jpg style=""width:8cm; height:5.239999999999999cm;""><p style='font-size: 30px; color: green;'><strong>Correct!</strong></p><p style='font-size: 30px;'><strong>This rock is pegmatite</strong></p>","0","corr_feedback","1","train","9","","","","","","","",""
"","","","","","","","","","","","html-button-response","123","2.0.0","373613","66e9d5a253706d5ba625cf80","2","40","2651","","","","","","","","","<img src= ""rock_img/I_Peridotite_08.jpg"" style=""width:8cm; height:6.7cm;""><p>What type of rock is this?</p>","6","class_response","1","train","10","Peridotite","Peridotite","08","true","7","7","",""
"","","","","","","","","","","","html-button-response","124","2.0.0","374845","66e9d5a253706d5ba625cf80","2","40","1231","","","","","","","","","<img src= rock_img/I_Peridotite_08.jpg style=""width:8cm; height:6.7cm;""><p style='font-size: 30px; color: green;'><strong>Correct!</strong></p><p style='font-size: 30px;'><strong>This rock is peridotite</strong></p>","0","corr_feedback","1","train","10","","","","","","","",""
"","","","","","","","","","","","html-button-response","125","2.0.0","376543","66e9d5a253706d5ba625cf80","2","40","1697","","","","","","","","","<img src= ""rock_img/I_Pumice_05.jpg"" style=""width:8cm; height:7.25cm;""><p>What type of rock is this?</p>","7","class_response","1","train","11","Pumice","Pumice","05","true","8","8","",""
"","","","","","","","","","","","html-button-response","126","2.0.0","377833","66e9d5a253706d5ba625cf80","2","40","1289","","","","","","","","","<img src= rock_img/I_Pumice_05.jpg style=""width:8cm; height:7.25cm;""><p style='font-size: 30px; color: green;'><strong>Correct!</strong></p><p style='font-size: 30px;'><strong>This rock is pumice</strong></p>","0","corr_feedback","1","train","11","","","","","","","",""
"","","","","","","","","","","","html-button-response","127","2.0.0","379757","66e9d5a253706d5ba625cf80","2","40","1923","","","","","","","","","<img src= ""rock_img/I_Andesite_14.jpg"" style=""width:8cm; height:5.449999999999999cm;""><p>What type of rock is this?</p>","5","class_response","1","train","12","Pegmatite","Andesite","14","false","6","1","",""
"","","","","","","","","","","","html-button-response","128","2.0.0","381623","66e9d5a253706d5ba625cf80","2","40","1865","","","","","","","","","<img src= rock_img/I_Andesite_14.jpg style=""width:8cm; height:5.449999999999999cm;""><p style='font-size: 30px; color: red;'><strong>Incorrect!</strong></p><p style='font-size: 30px;'><strong>This rock is andesite</strong></p>","0","corr_feedback","1","train","12","","","","","","","",""
"","","","","","","","","","","","html-button-response","129","2.0.0","383585","66e9d5a253706d5ba625cf80","2","40","1961","","","","","","","","","<img src= ""rock_img/I_Pegmatite_05.jpg"" style=""width:8cm; height:7.300000000000001cm;""><p>What type of rock is this?</p>","4","class_response","1","train","13","Obsidian","Pegmatite","05","false","5","6","",""
"","","","","","","","","","","","html-button-response","130","2.0.0","384675","66e9d5a253706d5ba625cf80","2","40","1089","","","","","","","","","<img src= rock_img/I_Pegmatite_05.jpg style=""width:8cm; height:7.300000000000001cm;""><p style='font-size: 30px; color: red;'><strong>Incorrect!</strong></p><p style='font-size: 30px;'><strong>This rock is pegmatite</strong></p>","0","corr_feedback","1","train","13","","","","","","","",""
"","","","","","","","","","","","html-button-response","131","2.0.0","387351","66e9d5a253706d5ba625cf80","2","40","2675","","","","","","","","","<img src= ""rock_img/I_Peridotite_04.jpg"" style=""width:8cm; height:6.680000000000001cm;""><p>What type of rock is this?</p>","6","class_response","1","train","14","Peridotite","Peridotite","04","true","7","7","",""
"","","","","","","","","","","","html-button-response","132","2.0.0","389249","66e9d5a253706d5ba625cf80","2","40","1897","","","","","","","","","<img src= rock_img/I_Peridotite_04.jpg style=""width:8cm; height:6.680000000000001cm;""><p style='font-size: 30px; color: green;'><strong>Correct!</strong></p><p style='font-size: 30px;'><strong>This rock is peridotite</strong></p>","0","corr_feedback","1","train","14","","","","","","","",""
"","","","","","","","","","","","html-button-response","133","2.0.0","393447","66e9d5a253706d5ba625cf80","2","40","4197","","","","","","","","","<img src= ""rock_img/I_Andesite_04.jpg"" style=""width:8cm; height:5.96cm;""><p>What type of rock is this?</p>","0","class_response","1","train","15","Andesite","Andesite","04","true","1","1","",""
"","","","","","","","","","","","html-button-response","134","2.0.0","395433","66e9d5a253706d5ba625cf80","2","40","1985","","","","","","","","","<img src= rock_img/I_Andesite_04.jpg style=""width:8cm; height:5.96cm;""><p style='font-size: 30px; color: green;'><strong>Correct!</strong></p><p style='font-size: 30px;'><strong>This rock is andesite</strong></p>","0","corr_feedback","1","train","15","","","","","","","",""
"","","","","","","","","","","","html-button-response","135","2.0.0","397465","66e9d5a253706d5ba625cf80","2","40","2029","","","","","","","","","<img src= ""rock_img/I_Diorite_15.jpg"" style=""width:8cm; height:5.54cm;""><p>What type of rock is this?</p>","2","class_response","1","train","16","Diorite","Diorite","15","true","3","3","",""
"","","","","","","","","","","","html-button-response","136","2.0.0","398783","66e9d5a253706d5ba625cf80","2","40","1313","","","","","","","","","<img src= rock_img/I_Diorite_15.jpg style=""width:8cm; height:5.54cm;""><p style='font-size: 30px; color: green;'><strong>Correct!</strong></p><p style='font-size: 30px;'><strong>This rock is diorite</strong></p>","0","corr_feedback","1","train","16","","","","","","","",""
"","","","","","","","","","","","html-button-response","137","2.0.0","400329","66e9d5a253706d5ba625cf80","2","40","1544","","","","","","","","","<img src= ""rock_img/I_Gabbro_13.jpg"" style=""width:8cm; height:5.08cm;""><p>What type of rock is this?</p>","2","class_response","1","train","17","Diorite","Gabbro","13","false","3","4","",""
"","","","","","","","","","","","html-button-response","138","2.0.0","401481","66e9d5a253706d5ba625cf80","2","40","1151","","","","","","","","","<img src= rock_img/I_Gabbro_13.jpg style=""width:8cm; height:5.08cm;""><p style='font-size: 30px; color: red;'><strong>Incorrect!</strong></p><p style='font-size: 30px;'><strong>This rock is gabbro</strong></p>","0","corr_feedback","1","train","17","","","","","","","",""
"","","","","","","","","","","","html-button-response","139","2.0.0","403229","66e9d5a253706d5ba625cf80","2","40","1747","","","","","","","","","<img src= ""rock_img/I_Peridotite_14.jpg"" style=""width:8cm; height:5.3cm;""><p>What type of rock is this?</p>","2","class_response","1","train","18","Diorite","Peridotite","14","false","3","7","",""
"","","","","","","","","","","","html-button-response","140","2.0.0","404453","66e9d5a253706d5ba625cf80","2","40","1223","","","","","","","","","<img src= rock_img/I_Peridotite_14.jpg style=""width:8cm; height:5.3cm;""><p style='font-size: 30px; color: red;'><strong>Incorrect!</strong></p><p style='font-size: 30px;'><strong>This rock is peridotite</strong></p>","0","corr_feedback","1","train","18","","","","","","","",""
"","","","","","","","","","","","html-button-response","141","2.0.0","407907","66e9d5a253706d5ba625cf80","2","40","3453","","","","","","","","","<img src= ""rock_img/I_Pegmatite_05.jpg"" style=""width:8cm; height:7.300000000000001cm;""><p>What type of rock is this?</p>","5","class_response","1","train","19","Pegmatite","Pegmatite","05","true","6","6","",""
"","","","","","","","","","","","html-button-response","142","2.0.0","409101","66e9d5a253706d5ba625cf80","2","40","1193","","","","","","","","","<img src= rock_img/I_Pegmatite_05.jpg style=""width:8cm; height:7.300000000000001cm;""><p style='font-size: 30px; color: green;'><strong>Correct!</strong></p><p style='font-size: 30px;'><strong>This rock is pegmatite</strong></p>","0","corr_feedback","1","train","19","","","","","","","",""
"","","","","","","","","","","","html-button-response","143","2.0.0","410807","66e9d5a253706d5ba625cf80","2","40","1705","","","","","","","","","<img src= ""rock_img/I_Peridotite_02.jpg"" style=""width:8cm; height:5.859999999999999cm;""><p>What type of rock is this?</p>","6","class_response","1","train","20","Peridotite","Peridotite","02","true","7","7","",""
"","","","","","","","","","","","html-button-response","144","2.0.0","411689","66e9d5a253706d5ba625cf80","2","40","881","","","","","","","","","<img src= rock_img/I_Peridotite_02.jpg style=""width:8cm; height:5.859999999999999cm;""><p style='font-size: 30px; color: green;'><strong>Correct!</strong></p><p style='font-size: 30px;'><strong>This rock is peridotite</strong></p>","0","corr_feedback","1","train","20","","","","","","","",""
"","","","","","","","","","","","html-button-response","145","2.0.0","414275","66e9d5a253706d5ba625cf80","2","40","2585","","","","","","","","","<img src= ""rock_img/I_Andesite_06.jpg"" style=""width:8cm; height:6.840000000000001cm;""><p>What type of rock is this?</p>","0","class_response","1","train","21","Andesite","Andesite","06","true","1","1","",""
"","","","","","","","","","","","html-button-response","146","2.0.0","415577","66e9d5a253706d5ba625cf80","2","40","1299","","","","","","","","","<img src= rock_img/I_Andesite_06.jpg style=""width:8cm; height:6.840000000000001cm;""><p style='font-size: 30px; color: green;'><strong>Correct!</strong></p><p style='font-size: 30px;'><strong>This rock is andesite</strong></p>","0","corr_feedback","1","train","21","","","","","","","",""
"","","","","","","","","","","","html-button-response","147","2.0.0","417343","66e9d5a253706d5ba625cf80","2","40","1762","","","","","","","","","<img src= ""rock_img/I_Gabbro_16.jpg"" style=""width:8cm; height:6.44cm;""><p>What type of rock is this?</p>","1","class_response","1","train","22","Basalt","Gabbro","16","false","2","4","",""
"","","","","","","","","","","","html-button-response","148","2.0.0","418513","66e9d5a253706d5ba625cf80","2","40","1169","","","","","","","","","<img src= rock_img/I_Gabbro_16.jpg style=""width:8cm; height:6.44cm;""><p style='font-size: 30px; color: red;'><strong>Incorrect!</strong></p><p style='font-size: 30px;'><strong>This rock is gabbro</strong></p>","0","corr_feedback","1","train","22","","","","","","","",""
"","","","","","","","","","","","html-button-response","149","2.0.0","423251","66e9d5a253706d5ba625cf80","2","40","4737","","","","","","","","","<img src= ""rock_img/I_Gabbro_01.jpg"" style=""width:8cm; height:5.21cm;""><p>What type of rock is this?</p>","2","class_response","1","train","23","Diorite","Gabbro","01","false","3","4","",""
"","","","","","","","","","","","html-button-response","150","2.0.0","424347","66e9d5a253706d5ba625cf80","2","40","1095","","","","","","","","","<img src= rock_img/I_Gabbro_01.jpg style=""width:8cm; height:5.21cm;""><p style='font-size: 30px; color: red;'><strong>Incorrect!</strong></p><p style='font-size: 30px;'><strong>This rock is gabbro</strong></p>","0","corr_feedback","1","train","23","","","","","","","",""
"","","","","","","","","","","","html-button-response","151","2.0.0","425757","66e9d5a253706d5ba625cf80","2","40","1409","","","","","","","","","<img src= ""rock_img/I_Andesite_02.jpg"" style=""width:8cm; height:8.5cm;""><p>What type of rock is this?</p>","5","class_response","1","train","24","Pegmatite","Andesite","02","false","6","1","",""
"","","","","","","","","","","","html-button-response","152","2.0.0","426887","66e9d5a253706d5ba625cf80","2","40","1129","","","","","","","","","<img src= rock_img/I_Andesite_02.jpg style=""width:8cm; height:8.5cm;""><p style='font-size: 30px; color: red;'><strong>Incorrect!</strong></p><p style='font-size: 30px;'><strong>This rock is andesite</strong></p>","0","corr_feedback","1","train","24","","","","","","","",""
"","","","","","","","","","","","html-button-response","153","2.0.0","428833","66e9d5a253706d5ba625cf80","2","40","1945","","","","","","","","","<img src= ""rock_img/I_Andesite_02.jpg"" style=""width:8cm; height:8.5cm;""><p>What type of rock is this?</p>","0","class_response","1","train","25","Andesite","Andesite","02","true","1","1","",""
"","","","","","","","","","","","html-button-response","154","2.0.0","429923","66e9d5a253706d5ba625cf80","2","40","1089","","","","","","","","","<img src= rock_img/I_Andesite_02.jpg style=""width:8cm; height:8.5cm;""><p style='font-size: 30px; color: green;'><strong>Correct!</strong></p><p style='font-size: 30px;'><strong>This rock is andesite</strong></p>","0","corr_feedback","1","train","25","","","","","","","",""
"","","","","","","","","","","","html-button-response","155","2.0.0","434557","66e9d5a253706d5ba625cf80","2","40","4632","","","","","","","","","<img src= ""rock_img/I_Diorite_11.jpg"" style=""width:8cm; height:7.11cm;""><p>What type of rock is this?</p>","2","class_response","1","train","26","Diorite","Diorite","11","true","3","3","",""
"","","","","","","","","","","","html-button-response","156","2.0.0","435811","66e9d5a253706d5ba625cf80","2","40","1250","","","","","","","","","<img src= rock_img/I_Diorite_11.jpg style=""width:8cm; height:7.11cm;""><p style='font-size: 30px; color: green;'><strong>Correct!</strong></p><p style='font-size: 30px;'><strong>This rock is diorite</strong></p>","0","corr_feedback","1","train","26","","","","","","","",""
"","","","","","","","","","","","html-button-response","157","2.0.0","437551","66e9d5a253706d5ba625cf80","2","40","1739","","","","","","","","","<img src= ""rock_img/I_Basalt_14.jpg"" style=""width:8cm; height:5.82cm;""><p>What type of rock is this?</p>","3","class_response","1","train","27","Gabbro","Basalt","14","false","4","2","",""
"","","","","","","","","","","","html-button-response","158","2.0.0","438791","66e9d5a253706d5ba625cf80","2","40","1238","","","","","","","","","<img src= rock_img/I_Basalt_14.jpg style=""width:8cm; height:5.82cm;""><p style='font-size: 30px; color: red;'><strong>Incorrect!</strong></p><p style='font-size: 30px;'><strong>This rock is basalt</strong></p>","0","corr_feedback","1","train","27","","","","","","","",""
"","","","","","","","","","","","html-button-response","159","2.0.0","440265","66e9d5a253706d5ba625cf80","2","40","1473","","","","","","","","","<img src= ""rock_img/I_Pumice_09.jpg"" style=""width:8cm; height:6.44cm;""><p>What type of rock is this?</p>","7","class_response","1","train","28","Pumice","Pumice","09","true","8","8","",""
"","","","","","","","","","","","html-button-response","160","2.0.0","441387","66e9d5a253706d5ba625cf80","2","40","1121","","","","","","","","","<img src= rock_img/I_Pumice_09.jpg style=""width:8cm; height:6.44cm;""><p style='font-size: 30px; color: green;'><strong>Correct!</strong></p><p style='font-size: 30px;'><strong>This rock is pumice</strong></p>","0","corr_feedback","1","train","28","","","","","","","",""
"","","","","","","","","","","","html-button-response","161","2.0.0","443519","66e9d5a253706d5ba625cf80","2","40","2131","","","","","","","","","<img src= ""rock_img/I_Diorite_07.jpg"" style=""width:8cm; height:5.239999999999999cm;""><p>What type of rock is this?</p>","5","class_response","1","train","29","Pegmatite","Diorite","07","false","6","3","",""
"","","","","","","","","","","","html-button-response","162","2.0.0","444865","66e9d5a253706d5ba625cf80","2","40","1345","","","","","","","","","<img src= rock_img/I_Diorite_07.jpg style=""width:8cm; height:5.239999999999999cm;""><p style='font-size: 30px; color: red;'><strong>Incorrect!</strong></p><p style='font-size: 30px;'><strong>This rock is diorite</strong></p>","0","corr_feedback","1","train","29","","","","","","","",""
"","","","","","","","","","","","html-button-response","163","2.0.0","447853","66e9d5a253706d5ba625cf80","2","40","2987","","","","","","","","","<img src= ""rock_img/I_Andesite_05.jpg"" style=""width:8cm; height:4.12cm;""><p>What type of rock is this?</p>","1","class_response","1","train","30","Basalt","Andesite","05","false","2","1","",""
"","","","","","","","","","","","html-button-response","164","2.0.0","448933","66e9d5a253706d5ba625cf80","2","40","1079","","","","","","","","","<img src= rock_img/I_Andesite_05.jpg style=""width:8cm; height:4.12cm;""><p style='font-size: 30px; color: red;'><strong>Incorrect!</strong></p><p style='font-size: 30px;'><strong>This rock is andesite</strong></p>","0","corr_feedback","1","train","30","","","","","","","",""
"","","","","","","","","","","","html-button-response","165","2.0.0","450889","66e9d5a253706d5ba625cf80","2","40","1955","","","","","","","","","<img src= ""rock_img/I_Basalt_09.jpg"" style=""width:8cm; height:6.2cm;""><p>What type of rock is this?</p>","1","class_response","1","train","31","Basalt","Basalt","09","true","2","2","",""
"","","","","","","","","","","","html-button-response","166","2.0.0","452483","66e9d5a253706d5ba625cf80","2","40","1593","","","","","","","","","<img src= rock_img/I_Basalt_09.jpg style=""width:8cm; height:6.2cm;""><p style='font-size: 30px; color: green;'><strong>Correct!</strong></p><p style='font-size: 30px;'><strong>This rock is basalt</strong></p>","0","corr_feedback","1","train","31","","","","","","","",""
"","","","","","","","","","","","html-button-response","167","2.0.0","453805","66e9d5a253706d5ba625cf80","2","40","1321","","","","","","","","","<img src= ""rock_img/I_Basalt_01.jpg"" style=""width:8cm; height:7.880000000000001cm;""><p>What type of rock is this?</p>","1","class_response","1","train","32","Basalt","Basalt","01","true","2","2","",""
"","","","","","","","","","","","html-button-response","168","2.0.0","454621","66e9d5a253706d5ba625cf80","2","40","815","","","","","","","","","<img src= rock_img/I_Basalt_01.jpg style=""width:8cm; height:7.880000000000001cm;""><p style='font-size: 30px; color: green;'><strong>Correct!</strong></p><p style='font-size: 30px;'><strong>This rock is basalt</strong></p>","0","corr_feedback","1","train","32","","","","","","","",""
"","","","","","","","","","","","html-button-response","169","2.0.0","456719","66e9d5a253706d5ba625cf80","2","40","2097","","","","","","","","","<img src= ""rock_img/I_Basalt_12.jpg"" style=""width:8cm; height:6.010000000000001cm;""><p>What type of rock is this?</p>","1","class_response","1","train","33","Basalt","Basalt","12","true","2","2","",""
"","","","","","","","","","","","html-button-response","170","2.0.0","457569","66e9d5a253706d5ba625cf80","2","40","849","","","","","","","","","<img src= rock_img/I_Basalt_12.jpg style=""width:8cm; height:6.010000000000001cm;""><p style='font-size: 30px; color: green;'><strong>Correct!</strong></p><p style='font-size: 30px;'><strong>This rock is basalt</strong></p>","0","corr_feedback","1","train","33","","","","","","","",""
"","","","","","","","","","","","html-button-response","171","2.0.0","459211","66e9d5a253706d5ba625cf80","2","40","1640","","","","","","","","","<img src= ""rock_img/I_Gabbro_15.jpg"" style=""width:8cm; height:6.29cm;""><p>What type of rock is this?</p>","3","class_response","1","train","34","Gabbro","Gabbro","15","true","4","4","",""
"","","","","","","","","","","","html-button-response","172","2.0.0","460301","66e9d5a253706d5ba625cf80","2","40","1089","","","","","","","","","<img src= rock_img/I_Gabbro_15.jpg style=""width:8cm; height:6.29cm;""><p style='font-size: 30px; color: green;'><strong>Correct!</strong></p><p style='font-size: 30px;'><strong>This rock is gabbro</strong></p>","0","corr_feedback","1","train","34","","","","","","","",""
"","","","","","","","","","","","html-button-response","173","2.0.0","462255","66e9d5a253706d5ba625cf80","2","40","1953","","","","","","","","","<img src= ""rock_img/I_Pegmatite_10.jpg"" style=""width:8cm; height:4.16cm;""><p>What type of rock is this?</p>","6","class_response","1","train","35","Peridotite","Pegmatite","10","false","7","6","",""
"","","","","","","","","","","","html-button-response","174","2.0.0","464091","66e9d5a253706d5ba625cf80","2","40","1835","","","","","","","","","<img src= rock_img/I_Pegmatite_10.jpg style=""width:8cm; height:4.16cm;""><p style='font-size: 30px; color: red;'><strong>Incorrect!</strong></p><p style='font-size: 30px;'><strong>This rock is pegmatite</strong></p>","0","corr_feedback","1","train","35","","","","","","","",""
"","","","","","","","","","","","html-button-response","175","2.0.0","466671","66e9d5a253706d5ba625cf80","2","40","2579","","","","","","","","","<img src= ""rock_img/I_Pegmatite_07.jpg"" style=""width:8cm; height:6.7cm;""><p>What type of rock is this?</p>","5","class_response","1","train","36","Pegmatite","Pegmatite","07","true","6","6","",""
"","","","","","","","","","","","html-button-response","176","2.0.0","467513","66e9d5a253706d5ba625cf80","2","40","841","","","","","","","","","<img src= rock_img/I_Pegmatite_07.jpg style=""width:8cm; height:6.7cm;""><p style='font-size: 30px; color: green;'><strong>Correct!</strong></p><p style='font-size: 30px;'><strong>This rock is pegmatite</strong></p>","0","corr_feedback","1","train","36","","","","","","","",""
"","","","","","","","","","","","html-button-response","177","2.0.0","469419","66e9d5a253706d5ba625cf80","2","40","1905","","","","","","","","","<img src= ""rock_img/I_Gabbro_11.jpg"" style=""width:8cm; height:6.2cm;""><p>What type of rock is this?</p>","1","class_response","1","train","37","Basalt","Gabbro","11","false","2","4","",""
"","","","","","","","","","","","html-button-response","178","2.0.0","470717","66e9d5a253706d5ba625cf80","2","40","1297","","","","","","","","","<img src= rock_img/I_Gabbro_11.jpg style=""width:8cm; height:6.2cm;""><p style='font-size: 30px; color: red;'><strong>Incorrect!</strong></p><p style='font-size: 30px;'><strong>This rock is gabbro</strong></p>","0","corr_feedback","1","train","37","","","","","","","",""
"","","","","","","","","","","","html-button-response","179","2.0.0","472031","66e9d5a253706d5ba625cf80","2","40","1313","","","","","","","","","<img src= ""rock_img/I_Pegmatite_08.jpg"" style=""width:8cm; height:7.68cm;""><p>What type of rock is this?</p>","5","class_response","1","train","38","Pegmatite","Pegmatite","08","true","6","6","",""
"","","","","","","","","","","","html-button-response","180","2.0.0","473031","66e9d5a253706d5ba625cf80","2","40","999","","","","","","","","","<img src= rock_img/I_Pegmatite_08.jpg style=""width:8cm; height:7.68cm;""><p style='font-size: 30px; color: green;'><strong>Correct!</strong></p><p style='font-size: 30px;'><strong>This rock is pegmatite</strong></p>","0","corr_feedback","1","train","38","","","","","","","",""
"","","","","","","","","","","","html-button-response","181","2.0.0","475451","66e9d5a253706d5ba625cf80","2","40","2419","","","","","","","","","<img src= ""rock_img/I_Diorite_15.jpg"" style=""width:8cm; height:5.54cm;""><p>What type of rock is this?</p>","3","class_response","1","train","39","Gabbro","Diorite","15","false","4","3","",""
"","","","","","","","","","","","html-button-response","182","2.0.0","476493","66e9d5a253706d5ba625cf80","2","40","1041","","","","","","","","","<img src= rock_img/I_Diorite_15.jpg style=""width:8cm; height:5.54cm;""><p style='font-size: 30px; color: red;'><strong>Incorrect!</strong></p><p style='font-size: 30px;'><strong>This rock is diorite</strong></p>","0","corr_feedback","1","train","39","","","","","","","",""
"","","","","","","","","","","","html-button-response","183","2.0.0","478335","66e9d5a253706d5ba625cf80","2","40","1841","","","","","","","","","<img src= ""rock_img/I_Obsidian_06.jpg"" style=""width:8cm; height:6.8cm;""><p>What type of rock is this?</p>","4","class_response","1","train","40","Obsidian","Obsidian","06","true","5","5","",""
"","","","","","","","","","","","html-button-response","184","2.0.0","479473","66e9d5a253706d5ba625cf80","2","40","1137","","","","","","","","","<img src= rock_img/I_Obsidian_06.jpg style=""width:8cm; height:6.8cm;""><p style='font-size: 30px; color: green;'><strong>Correct!</strong></p><p style='font-size: 30px;'><strong>This rock is obsidian</strong></p>","0","corr_feedback","1","train","40","","","","","","","",""
"","","","","","","","","","","","html-button-response","185","2.0.0","481232","66e9d5a253706d5ba625cf80","2","40","1756","","","","","","","","","<img src= ""rock_img/I_Pegmatite_16.jpg"" style=""width:8cm; height:5.8cm;""><p>What type of rock is this?</p>","5","class_response","1","train","41","Pegmatite","Pegmatite","16","true","6","6","",""
"","","","","","","","","","","","html-button-response","186","2.0.0","482243","66e9d5a253706d5ba625cf80","2","40","1008","","","","","","","","","<img src= rock_img/I_Pegmatite_16.jpg style=""width:8cm; height:5.8cm;""><p style='font-size: 30px; color: green;'><strong>Correct!</strong></p><p style='font-size: 30px;'><strong>This rock is pegmatite</strong></p>","0","corr_feedback","1","train","41","","","","","","","",""
"","","","","","","","","","","","html-button-response","187","2.0.0","484231","66e9d5a253706d5ba625cf80","2","40","1987","","","","","","","","","<img src= ""rock_img/I_Gabbro_15.jpg"" style=""width:8cm; height:6.29cm;""><p>What type of rock is this?</p>","3","class_response","1","train","42","Gabbro","Gabbro","15","true","4","4","",""
"","","","","","","","","","","","html-button-response","188","2.0.0","485175","66e9d5a253706d5ba625cf80","2","40","943","","","","","","","","","<img src= rock_img/I_Gabbro_15.jpg style=""width:8cm; height:6.29cm;""><p style='font-size: 30px; color: green;'><strong>Correct!</strong></p><p style='font-size: 30px;'><strong>This rock is gabbro</strong></p>","0","corr_feedback","1","train","42","","","","","","","",""
"","","","","","","","","","","","html-button-response","189","2.0.0","486753","66e9d5a253706d5ba625cf80","2","40","1577","","","","","","","","","<img src= ""rock_img/I_Diorite_09.jpg"" style=""width:8cm; height:5.27cm;""><p>What type of rock is this?</p>","2","class_response","1","train","43","Diorite","Diorite","09","true","3","3","",""
"","","","","","","","","","","","html-button-response","190","2.0.0","487651","66e9d5a253706d5ba625cf80","2","40","897","","","","","","","","","<img src= rock_img/I_Diorite_09.jpg style=""width:8cm; height:5.27cm;""><p style='font-size: 30px; color: green;'><strong>Correct!</strong></p><p style='font-size: 30px;'><strong>This rock is diorite</strong></p>","0","corr_feedback","1","train","43","","","","","","","",""
"","","","","","","","","","","","html-button-response","191","2.0.0","488949","66e9d5a253706d5ba625cf80","2","40","1297","","","","","","","","","<img src= ""rock_img/I_Obsidian_08.jpg"" style=""width:8cm; height:7.39cm;""><p>What type of rock is this?</p>","4","class_response","1","train","44","Obsidian","Obsidian","08","true","5","5","",""
"","","","","","","","","","","","html-button-response","192","2.0.0","489861","66e9d5a253706d5ba625cf80","2","40","911","","","","","","","","","<img src= rock_img/I_Obsidian_08.jpg style=""width:8cm; height:7.39cm;""><p style='font-size: 30px; color: green;'><strong>Correct!</strong></p><p style='font-size: 30px;'><strong>This rock is obsidian</strong></p>","0","corr_feedback","1","train","44","","","","","","","",""
"","","","","","","","","","","","html-button-response","193","2.0.0","491427","66e9d5a253706d5ba625cf80","2","40","1564","","","","","","","","","<img src= ""rock_img/I_Basalt_12.jpg"" style=""width:8cm; height:6.010000000000001cm;""><p>What type of rock is this?</p>","1","class_response","1","train","45","Basalt","Basalt","12","true","2","2","",""
"","","","","","","","","","","","html-button-response","194","2.0.0","492401","66e9d5a253706d5ba625cf80","2","40","970","","","","","","","","","<img src= rock_img/I_Basalt_12.jpg style=""width:8cm; height:6.010000000000001cm;""><p style='font-size: 30px; color: green;'><strong>Correct!</strong></p><p style='font-size: 30px;'><strong>This rock is basalt</strong></p>","0","corr_feedback","1","train","45","","","","","","","",""
"","","","","","","","","","","","html-button-response","195","2.0.0","493867","66e9d5a253706d5ba625cf80","2","40","1465","","","","","","","","","<img src= ""rock_img/I_Basalt_10.jpg"" style=""width:8cm; height:5.85cm;""><p>What type of rock is this?</p>","1","class_response","1","train","46","Basalt","Basalt","10","true","2","2","",""
"","","","","","","","","","","","html-button-response","196","2.0.0","494981","66e9d5a253706d5ba625cf80","2","40","1113","","","","","","","","","<img src= rock_img/I_Basalt_10.jpg style=""width:8cm; height:5.85cm;""><p style='font-size: 30px; color: green;'><strong>Correct!</strong></p><p style='font-size: 30px;'><strong>This rock is basalt</strong></p>","0","corr_feedback","1","train","46","","","","","","","",""
"","","","","","","","","","","","html-button-response","197","2.0.0","499850","66e9d5a253706d5ba625cf80","2","40","4866","","","","","","","","","<img src= ""rock_img/I_Pegmatite_10.jpg"" style=""width:8cm; height:4.16cm;""><p>What type of rock is this?</p>","5","class_response","1","train","47","Pegmatite","Pegmatite","10","true","6","6","",""
"","","","","","","","","","","","html-button-response","198","2.0.0","500997","66e9d5a253706d5ba625cf80","2","40","1140","","","","","","","","","<img src= rock_img/I_Pegmatite_10.jpg style=""width:8cm; height:4.16cm;""><p style='font-size: 30px; color: green;'><strong>Correct!</strong></p><p style='font-size: 30px;'><strong>This rock is pegmatite</strong></p>","0","corr_feedback","1","train","47","","","","","","","",""
"","","","","","","","","","","","html-button-response","199","2.0.0","502191","66e9d5a253706d5ba625cf80","2","40","1193","","","","","","","","","<img src= ""rock_img/I_Gabbro_12.jpg"" style=""width:8cm; height:7.800000000000001cm;""><p>What type of rock is this?</p>","1","class_response","1","train","48","Basalt","Gabbro","12","false","2","4","",""
"","","","","","","","","","","","html-button-response","200","2.0.0","503401","66e9d5a253706d5ba625cf80","2","40","1209","","","","","","","","","<img src= rock_img/I_Gabbro_12.jpg style=""width:8cm; height:7.800000000000001cm;""><p style='font-size: 30px; color: red;'><strong>Incorrect!</strong></p><p style='font-size: 30px;'><strong>This rock is gabbro</strong></p>","0","corr_feedback","1","train","48","","","","","","","",""
"","","","","","","","","","","","instructions","203","2.0.0","528985","66e9d5a253706d5ba625cf80","2","40","25583","","","","","","","","[{""page_index"":0,""viewing_time"":11171},{""page_index"":1,""viewing_time"":14412}]","","","","","","","","","","","","","",""
"","","","","","","","","","","","html-button-response","204","2.0.0","530515","66e9d5a253706d5ba625cf80","2","40","1528","","","","","","","","","","0","start_test","","","","","","","","","","",""
"","","","","","","","","","","","html-button-response","205","2.0.0","532669","66e9d5a253706d5ba625cf80","2","40","2153","","","","","","","","","<img src= ""rock_img/I_Pegmatite_12.jpg"" style=""width:8cm; height:5.7cm;""><p>What type of rock is this?</p>","5","class_response","1","test","1","Pegmatite","Pegmatite","12","true","6","6","",""
"","","","","","","","","","","","html-keyboard-response","206","2.0.0","533174","66e9d5a253706d5ba625cf80","2","40","null","","","","","","","","","<p style='font-size: 30px;'><strong>Okay</strong></p>","null","neutral_feedback","1","test","1","","","","","","","",""
"","","","","","","","","","","","html-button-response","207","2.0.0","534905","66e9d5a253706d5ba625cf80","2","40","1730","","","","","","","","","<img src= ""rock_img/I_Pumice_08.jpg"" style=""width:8cm; height:6.67cm;""><p>What type of rock is this?</p>","7","class_response","1","test","2","Pumice","Pumice","08","true","8","8","",""
"","","","","","","","","","","","html-keyboard-response","208","2.0.0","535416","66e9d5a253706d5ba625cf80","2","40","null","","","","","","","","","<p style='font-size: 30px;'><strong>Okay</strong></p>","null","neutral_feedback","1","test","2","","","","","","","",""
"","","","","","","","","","","","html-button-response","209","2.0.0","536779","66e9d5a253706d5ba625cf80","2","40","1362","","","","","","","","","<img src= ""rock_img/I_Obsidian_16.jpg"" style=""width:8cm; height:9.3cm;""><p>What type of rock is this?</p>","4","class_response","1","test","3","Obsidian","Obsidian","16","true","5","5","",""
"","","","","","","","","","","","html-keyboard-response","210","2.0.0","537289","66e9d5a253706d5ba625cf80","2","40","null","","","","","","","","","<p style='font-size: 30px;'><strong>Okay</strong></p>","null","neutral_feedback","1","test","3","","","","","","","",""
"","","","","","","","","","","","html-button-response","211","2.0.0","538695","66e9d5a253706d5ba625cf80","2","40","1405","","","","","","","","","<img src= ""rock_img/I_Obsidian_11.jpg"" style=""width:8cm; height:6.05cm;""><p>What type of rock is this?</p>","4","class_response","1","test","4","Obsidian","Obsidian","11","true","5","5","",""
"","","","","","","","","","","","html-keyboard-response","212","2.0.0","539207","66e9d5a253706d5ba625cf80","2","40","null","","","","","","","","","<p style='font-size: 30px;'><strong>Okay</strong></p>","null","neutral_feedback","1","test","4","","","","","","","",""
"","","","","","","","","","","","html-button-response","213","2.0.0","542397","66e9d5a253706d5ba625cf80","2","40","3189","","","","","","","","","<img src= ""rock_img/I_Gabbro_09.jpg"" style=""width:8cm; height:7.279999999999999cm;""><p>What type of rock is this?</p>","1","class_response","1","test","5","Basalt","Gabbro","09","false","2","4","",""
"","","","","","","","","","","","html-keyboard-response","214","2.0.0","542905","66e9d5a253706d5ba625cf80","2","40","null","","","","","","","","","<p style='font-size: 30px;'><strong>Okay</strong></p>","null","neutral_feedback","1","test","5","","","","","","","",""
"","","","","","","","","","","","html-button-response","215","2.0.0","544961","66e9d5a253706d5ba625cf80","2","40","2055","","","","","","","","","<img src= ""rock_img/I_Basalt_16.jpg"" style=""width:8cm; height:7.659999999999999cm;""><p>What type of rock is this?</p>","3","class_response","1","test","6","Gabbro","Basalt","16","false","4","2","",""
"","","","","","","","","","","","html-keyboard-response","216","2.0.0","545470","66e9d5a253706d5ba625cf80","2","40","null","","","","","","","","","<p style='font-size: 30px;'><strong>Okay</strong></p>","null","neutral_feedback","1","test","6","","","","","","","",""
"","","","","","","","","","","","html-button-response","217","2.0.0","547093","66e9d5a253706d5ba625cf80","2","40","1622","","","","","","","","","<img src= ""rock_img/I_Basalt_02.jpg"" style=""width:8cm; height:6.45cm;""><p>What type of rock is this?</p>","1","class_response","1","test","7","Basalt","Basalt","02","true","2","2","",""
"","","","","","","","","","","","html-keyboard-response","218","2.0.0","547602","66e9d5a253706d5ba625cf80","2","40","null","","","","","","","","","<p style='font-size: 30px;'><strong>Okay</strong></p>","null","neutral_feedback","1","test","7","","","","","","","",""
"","","","","","","","","","","","html-button-response","219","2.0.0","549007","66e9d5a253706d5ba625cf80","2","40","1404","","","","","","","","","<img src= ""rock_img/I_Obsidian_04.jpg"" style=""width:8cm; height:6.930000000000001cm;""><p>What type of rock is this?</p>","4","class_response","1","test","8","Obsidian","Obsidian","04","true","5","5","",""
"","","","","","","","","","","","html-keyboard-response","220","2.0.0","549509","66e9d5a253706d5ba625cf80","2","40","null","","","","","","","","","<p style='font-size: 30px;'><strong>Okay</strong></p>","null","neutral_feedback","1","test","8","","","","","","","",""
"","","","","","","","","","","","html-button-response","221","2.0.0","554025","66e9d5a253706d5ba625cf80","2","40","4514","","","","","","","","","<img src= ""rock_img/I_Peridotite_10.jpg"" style=""width:8cm; height:5.390000000000001cm;""><p>What type of rock is this?</p>","6","class_response","1","test","9","Peridotite","Peridotite","10","true","7","7","",""
"","","","","","","","","","","","html-keyboard-response","222","2.0.0","554528","66e9d5a253706d5ba625cf80","2","40","null","","","","","","","","","<p style='font-size: 30px;'><strong>Okay</strong></p>","null","neutral_feedback","1","test","9","","","","","","","",""
"","","","","","","","","","","","html-button-response","223","2.0.0","556557","66e9d5a253706d5ba625cf80","2","40","2028","","","","","","","","","<img src= ""rock_img/I_Gabbro_05.jpg"" style=""width:8cm; height:6cm;""><p>What type of rock is this?</p>","2","class_response","1","test","10","Diorite","Gabbro","05","false","3","4","",""
"","","","","","","","","","","","html-keyboard-response","224","2.0.0","557063","66e9d5a253706d5ba625cf80","2","40","null","","","","","","","","","<p style='font-size: 30px;'><strong>Okay</strong></p>","null","neutral_feedback","1","test","10","","","","","","","",""
"","","","","","","","","","","","html-button-response","225","2.0.0","559641","66e9d5a253706d5ba625cf80","2","40","2577","","","","","","","","","<img src= ""rock_img/I_Diorite_10.jpg"" style=""width:8cm; height:5.949999999999999cm;""><p>What type of rock is this?</p>","0","class_response","1","test","11","Andesite","Diorite","10","false","1","3","",""
"","","","","","","","","","","","html-keyboard-response","226","2.0.0","560143","66e9d5a253706d5ba625cf80","2","40","null","","","","","","","","","<p style='font-size: 30px;'><strong>Okay</strong></p>","null","neutral_feedback","1","test","11","","","","","","","",""
"","","","","","","","","","","","html-button-response","227","2.0.0","561515","66e9d5a253706d5ba625cf80","2","40","1371","","","","","","","","","<img src= ""rock_img/I_Pegmatite_15.jpg"" style=""width:8cm; height:6cm;""><p>What type of rock is this?</p>","5","class_response","1","test","12","Pegmatite","Pegmatite","15","true","6","6","",""
"","","","","","","","","","","","html-keyboard-response","228","2.0.0","562016","66e9d5a253706d5ba625cf80","2","40","null","","","","","","","","","<p style='font-size: 30px;'><strong>Okay</strong></p>","null","neutral_feedback","1","test","12","","","","","","","",""
"","","","","","","","","","","","html-button-response","229","2.0.0","564511","66e9d5a253706d5ba625cf80","2","40","2494","","","","","","","","","<img src= ""rock_img/I_Peridotite_13.jpg"" style=""width:8cm; height:7.58cm;""><p>What type of rock is this?</p>","6","class_response","1","test","13","Peridotite","Peridotite","13","true","7","7","",""
"","","","","","","","","","","","html-keyboard-response","230","2.0.0","565016","66e9d5a253706d5ba625cf80","2","40","null","","","","","","","","","<p style='font-size: 30px;'><strong>Okay</strong></p>","null","neutral_feedback","1","test","13","","","","","","","",""
"","","","","","","","","","","","html-button-response","231","2.0.0","566235","66e9d5a253706d5ba625cf80","2","40","1218","","","","","","","","","<img src= ""rock_img/I_Pumice_16.jpg"" style=""width:8cm; height:6.79cm;""><p>What type of rock is this?</p>","7","class_response","1","test","14","Pumice","Pumice","16","true","8","8","",""
"","","","","","","","","","","","html-keyboard-response","232","2.0.0","566743","66e9d5a253706d5ba625cf80","2","40","null","","","","","","","","","<p style='font-size: 30px;'><strong>Okay</strong></p>","null","neutral_feedback","1","test","14","","","","","","","",""
"","","","","","","","","","","","html-button-response","233","2.0.0","576225","66e9d5a253706d5ba625cf80","2","40","9477","","","","","","","","","<img src= ""rock_img/I_Peridotite_06.jpg"" style=""width:8cm; height:7.53cm;""><p>What type of rock is this?</p>","6","class_response","1","test","15","Peridotite","Peridotite","06","true","7","7","",""
"","","","","","","","","","","","html-keyboard-response","234","2.0.0","576731","66e9d5a253706d5ba625cf80","2","40","null","","","","","","","","","<p style='font-size: 30px;'><strong>Okay</strong></p>","null","neutral_feedback","1","test","15","","","","","","","",""
"","","","","","","","","","","","html-button-response","235","2.0.0","578493","66e9d5a253706d5ba625cf80","2","40","1761","","","","","","","","","<img src= ""rock_img/I_Pegmatite_09.jpg"" style=""width:8cm; height:4.03cm;""><p>What type of rock is this?</p>","5","class_response","1","test","16","Pegmatite","Pegmatite","09","true","6","6","",""
"","","","","","","","","","","","html-keyboard-response","236","2.0.0","579001","66e9d5a253706d5ba625cf80","2","40","null","","","","","","","","","<p style='font-size: 30px;'><strong>Okay</strong></p>","null","neutral_feedback","1","test","16","","","","","","","",""
"","","","","","","","","","","","html-button-response","237","2.0.0","580335","66e9d5a253706d5ba625cf80","2","40","1332","","","","","","","","","<img src= ""rock_img/I_Pegmatite_11.jpg"" style=""width:8cm; height:8.14cm;""><p>What type of rock is this?</p>","5","class_response","1","test","17","Pegmatite","Pegmatite","11","true","6","6","",""
"","","","","","","","","","","","html-keyboard-response","238","2.0.0","580841","66e9d5a253706d5ba625cf80","2","40","null","","","","","","","","","<p style='font-size: 30px;'><strong>Okay</strong></p>","null","neutral_feedback","1","test","17","","","","","","","",""
"","","","","","","","","","","","html-button-response","239","2.0.0","583765","66e9d5a253706d5ba625cf80","2","40","2923","","","","","","","","","<img src= ""rock_img/I_Basalt_11.jpg"" style=""width:8cm; height:5.359999999999999cm;""><p>What type of rock is this?</p>","1","class_response","1","test","18","Basalt","Basalt","11","true","2","2","",""
"","","","","","","","","","","","html-keyboard-response","240","2.0.0","584271","66e9d5a253706d5ba625cf80","2","40","null","","","","","","","","","<p style='font-size: 30px;'><strong>Okay</strong></p>","null","neutral_feedback","1","test","18","","","","","","","",""
"","","","","","","","","","","","html-button-response","241","2.0.0","587685","66e9d5a253706d5ba625cf80","2","40","3413","","","","","","","","","<img src= ""rock_img/I_Gabbro_10.jpg"" style=""width:8cm; height:5.680000000000001cm;""><p>What type of rock is this?</p>","3","class_response","1","test","19","Gabbro","Gabbro","10","true","4","4","",""
"","","","","","","","","","","","html-keyboard-response","242","2.0.0","588197","66e9d5a253706d5ba625cf80","2","40","null","","","","","","","","","<p style='font-size: 30px;'><strong>Okay</strong></p>","null","neutral_feedback","1","test","19","","","","","","","",""
"","","","","","","","","","","","html-button-response","243","2.0.0","589841","66e9d5a253706d5ba625cf80","2","40","1643","","","","","","","","","<img src= ""rock_img/I_Basalt_04.jpg"" style=""width:8cm; height:7.53cm;""><p>What type of rock is this?</p>","1","class_response","1","test","20","Basalt","Basalt","04","true","2","2","",""
"","","","","","","","","","","","html-keyboard-response","244","2.0.0","590347","66e9d5a253706d5ba625cf80","2","40","null","","","","","","","","","<p style='font-size: 30px;'><strong>Okay</strong></p>","null","neutral_feedback","1","test","20","","","","","","","",""
"","","","","","","","","","","","html-button-response","245","2.0.0","593423","66e9d5a253706d5ba625cf80","2","40","3073","","","","","","","","","<img src= ""rock_img/I_Andesite_09.jpg"" style=""width:8cm; height:6cm;""><p>What type of rock is this?</p>","0","class_response","1","test","21","Andesite","Andesite","09","true","1","1","",""
"","","","","","","","","","","","html-keyboard-response","246","2.0.0","593935","66e9d5a253706d5ba625cf80","2","40","null","","","","","","","","","<p style='font-size: 30px;'><strong>Okay</strong></p>","null","neutral_feedback","1","test","21","","","","","","","",""
"","","","","","","","","","","","html-button-response","247","2.0.0","597517","66e9d5a253706d5ba625cf80","2","40","3578","","","","","","","","","<img src= ""rock_img/I_Pegmatite_13.jpg"" style=""width:8cm; height:4.95cm;""><p>What type of rock is this?</p>","5","class_response","1","test","22","Pegmatite","Pegmatite","13","true","6","6","",""
"","","","","","","","","","","","html-keyboard-response","248","2.0.0","598024","66e9d5a253706d5ba625cf80","2","40","null","","","","","","","","","<p style='font-size: 30px;'><strong>Okay</strong></p>","null","neutral_feedback","1","test","22","","","","","","","",""
"","","","","","","","","","","","html-button-response","249","2.0.0","600239","66e9d5a253706d5ba625cf80","2","40","2214","","","","","","","","","<img src= ""rock_img/I_Peridotite_07.jpg"" style=""width:8cm; height:4.83cm;""><p>What type of rock is this?</p>","2","class_response","1","test","23","Diorite","Peridotite","07","false","3","7","",""
"","","","","","","","","","","","html-keyboard-response","250","2.0.0","600740","66e9d5a253706d5ba625cf80","2","40","null","","","","","","","","","<p style='font-size: 30px;'><strong>Okay</strong></p>","null","neutral_feedback","1","test","23","","","","","","","",""
"","","","","","","","","","","","html-button-response","251","2.0.0","602331","66e9d5a253706d5ba625cf80","2","40","1590","","","","","","","","","<img src= ""rock_img/I_Basalt_06.jpg"" style=""width:8cm; height:7.06cm;""><p>What type of rock is this?</p>","1","class_response","1","test","24","Basalt","Basalt","06","true","2","2","",""
"","","","","","","","","","","","html-keyboard-response","252","2.0.0","602846","66e9d5a253706d5ba625cf80","2","40","null","","","","","","","","","<p style='font-size: 30px;'><strong>Okay</strong></p>","null","neutral_feedback","1","test","24","","","","","","","",""
"","","","","","","","","","","","html-button-response","253","2.0.0","604181","66e9d5a253706d5ba625cf80","2","40","1334","","","","","","","","","<img src= ""rock_img/I_Obsidian_10.jpg"" style=""width:8cm; height:6.260000000000001cm;""><p>What type of rock is this?</p>","4","class_response","1","test","25","Obsidian","Obsidian","10","true","5","5","",""
"","","","","","","","","","","","html-keyboard-response","254","2.0.0","604687","66e9d5a253706d5ba625cf80","2","40","null","","","","","","","","","<p style='font-size: 30px;'><strong>Okay</strong></p>","null","neutral_feedback","1","test","25","","","","","","","",""
"","","","","","","","","","","","html-button-response","255","2.0.0","606121","66e9d5a253706d5ba625cf80","2","40","1433","","","","","","","","","<img src= ""rock_img/I_Diorite_14.jpg"" style=""width:8cm; height:5.71cm;""><p>What type of rock is this?</p>","0","class_response","1","test","26","Andesite","Diorite","14","false","1","3","",""
"","","","","","","","","","","","html-keyboard-response","256","2.0.0","606622","66e9d5a253706d5ba625cf80","2","40","null","","","","","","","","","<p style='font-size: 30px;'><strong>Okay</strong></p>","null","neutral_feedback","1","test","26","","","","","","","",""
"","","","","","","","","","","","html-button-response","257","2.0.0","611833","66e9d5a253706d5ba625cf80","2","40","5210","","","","","","","","","<img src= ""rock_img/I_Gabbro_08.jpg"" style=""width:8cm; height:5.15cm;""><p>What type of rock is this?</p>","3","class_response","1","test","27","Gabbro","Gabbro","08","true","4","4","",""
"","","","","","","","","","","","html-keyboard-response","258","2.0.0","612334","66e9d5a253706d5ba625cf80","2","40","null","","","","","","","","","<p style='font-size: 30px;'><strong>Okay</strong></p>","null","neutral_feedback","1","test","27","","","","","","","",""
"","","","","","","","","","","","html-button-response","259","2.0.0","615093","66e9d5a253706d5ba625cf80","2","40","2758","","","","","","","","","<img src= ""rock_img/I_Andesite_16.jpg"" style=""width:8cm; height:6.010000000000001cm;""><p>What type of rock is this?</p>","0","class_response","1","test","28","Andesite","Andesite","16","true","1","1","",""
"","","","","","","","","","","","html-keyboard-response","260","2.0.0","615605","66e9d5a253706d5ba625cf80","2","40","null","","","","","","","","","<p style='font-size: 30px;'><strong>Okay</strong></p>","null","neutral_feedback","1","test","28","","","","","","","",""
"","","","","","","","","","","","html-button-response","261","2.0.0","617273","66e9d5a253706d5ba625cf80","2","40","1667","","","","","","","","","<img src= ""rock_img/I_Obsidian_14.jpg"" style=""width:8cm; height:7.64cm;""><p>What type of rock is this?</p>","4","class_response","1","test","29","Obsidian","Obsidian","14","true","5","5","",""
"","","","","","","","","","","","html-keyboard-response","262","2.0.0","617785","66e9d5a253706d5ba625cf80","2","40","null","","","","","","","","","<p style='font-size: 30px;'><strong>Okay</strong></p>","null","neutral_feedback","1","test","29","","","","","","","",""
"","","","","","","","","","","","html-button-response","263","2.0.0","619163","66e9d5a253706d5ba625cf80","2","40","1377","","","","","","","","","<img src= ""rock_img/I_Diorite_02.jpg"" style=""width:8cm; height:6.27cm;""><p>What type of rock is this?</p>","0","class_response","1","test","30","Andesite","Diorite","02","false","1","3","",""
"","","","","","","","","","","","html-keyboard-response","264","2.0.0","619668","66e9d5a253706d5ba625cf80","2","40","null","","","","","","","","","<p style='font-size: 30px;'><strong>Okay</strong></p>","null","neutral_feedback","1","test","30","","","","","","","",""
"","","","","","","","","","","","html-button-response","265","2.0.0","621516","66e9d5a253706d5ba625cf80","2","40","1845","","","","","","","","","<img src= ""rock_img/I_Andesite_11.jpg"" style=""width:8cm; height:4.92cm;""><p>What type of rock is this?</p>","5","class_response","1","test","31","Pegmatite","Andesite","11","false","6","1","",""
"","","","","","","","","","","","html-keyboard-response","266","2.0.0","622023","66e9d5a253706d5ba625cf80","2","40","null","","","","","","","","","<p style='font-size: 30px;'><strong>Okay</strong></p>","null","neutral_feedback","1","test","31","","","","","","","",""
"","","","","","","","","","","","html-button-response","267","2.0.0","623659","66e9d5a253706d5ba625cf80","2","40","1632","","","","","","","","","<img src= ""rock_img/I_Andesite_07.jpg"" style=""width:8cm; height:5.93cm;""><p>What type of rock is this?</p>","0","class_response","1","test","32","Andesite","Andesite","07","true","1","1","",""
"","","","","","","","","","","","html-keyboard-response","268","2.0.0","624163","66e9d5a253706d5ba625cf80","2","40","null","","","","","","","","","<p style='font-size: 30px;'><strong>Okay</strong></p>","null","neutral_feedback","1","test","32","","","","","","","",""
"","","","","","","","","","","","html-button-response","269","2.0.0","625909","66e9d5a253706d5ba625cf80","2","40","1745","","","","","","","","","<img src= ""rock_img/I_Pumice_15.jpg"" style=""width:8cm; height:7.86cm;""><p>What type of rock is this?</p>","7","class_response","1","test","33","Pumice","Pumice","15","true","8","8","",""
"","","","","","","","","","","","html-keyboard-response","270","2.0.0","626411","66e9d5a253706d5ba625cf80","2","40","null","","","","","","","","","<p style='font-size: 30px;'><strong>Okay</strong></p>","null","neutral_feedback","1","test","33","","","","","","","",""
"","","","","","","","","","","","html-button-response","271","2.0.0","628665","66e9d5a253706d5ba625cf80","2","40","2253","","","","","","","","","<img src= ""rock_img/I_Pumice_02.jpg"" style=""width:8cm; height:7.3999999999999995cm;""><p>What type of rock is this?</p>","7","class_response","1","test","34","Pumice","Pumice","02","true","8","8","",""
"","","","","","","","","","","","html-keyboard-response","272","2.0.0","629166","66e9d5a253706d5ba625cf80","2","40","null","","","","","","","","","<p style='font-size: 30px;'><strong>Okay</strong></p>","null","neutral_feedback","1","test","34","","","","","","","",""
"","","","","","","","","","","","html-button-response","273","2.0.0","634326","66e9d5a253706d5ba625cf80","2","40","5156","","","","","","","","","<img src= ""rock_img/I_Andesite_01.jpg"" style=""width:8cm; height:5.87cm;""><p>What type of rock is this?</p>","1","class_response","1","test","35","Basalt","Andesite","01","false","2","1","",""
"","","","","","","","","","","","html-keyboard-response","274","2.0.0","634834","66e9d5a253706d5ba625cf80","2","40","null","","","","","","","","","<p style='font-size: 30px;'><strong>Okay</strong></p>","null","neutral_feedback","1","test","35","","","","","","","",""
"","","","","","","","","","","","html-button-response","275","2.0.0","636581","66e9d5a253706d5ba625cf80","2","40","1743","","","","","","","","","<img src= ""rock_img/I_Peridotite_12.jpg"" style=""width:8cm; height:4.54cm;""><p>What type of rock is this?</p>","0","class_response","1","test","36","Andesite","Peridotite","12","false","1","7","",""
"","","","","","","","","","","","html-keyboard-response","276","2.0.0","637093","66e9d5a253706d5ba625cf80","2","40","null","","","","","","","","","<p style='font-size: 30px;'><strong>Okay</strong></p>","null","neutral_feedback","1","test","36","","","","","","","",""
"","","","","","","","","","","","html-button-response","277","2.0.0","640709","66e9d5a253706d5ba625cf80","2","40","3615","","","","","","","","","<img src= ""rock_img/I_Pegmatite_06.jpg"" style=""width:8cm; height:5.17cm;""><p>What type of rock is this?</p>","5","class_response","1","test","37","Pegmatite","Pegmatite","06","true","6","6","",""
"","","","","","","","","","","","html-keyboard-response","278","2.0.0","641213","66e9d5a253706d5ba625cf80","2","40","null","","","","","","","","","<p style='font-size: 30px;'><strong>Okay</strong></p>","null","neutral_feedback","1","test","37","","","","","","","",""
"","","","","","","","","","","","html-button-response","279","2.0.0","642583","66e9d5a253706d5ba625cf80","2","40","1369","","","","","","","","","<img src= ""rock_img/I_Obsidian_12.jpg"" style=""width:8cm; height:6.53cm;""><p>What type of rock is this?</p>","4","class_response","1","test","38","Obsidian","Obsidian","12","true","5","5","",""
"","","","","","","","","","","","html-keyboard-response","280","2.0.0","643088","66e9d5a253706d5ba625cf80","2","40","null","","","","","","","","","<p style='font-size: 30px;'><strong>Okay</strong></p>","null","neutral_feedback","1","test","38","","","","","","","",""
"","","","","","","","","","","","html-button-response","281","2.0.0","644364","66e9d5a253706d5ba625cf80","2","40","1275","","","","","","","","","<img src= ""rock_img/I_Basalt_08.jpg"" style=""width:8cm; height:10.44cm;""><p>What type of rock is this?</p>","1","class_response","1","test","39","Basalt","Basalt","08","true","2","2","",""
"","","","","","","","","","","","html-keyboard-response","282","2.0.0","644872","66e9d5a253706d5ba625cf80","2","40","null","","","","","","","","","<p style='font-size: 30px;'><strong>Okay</strong></p>","null","neutral_feedback","1","test","39","","","","","","","",""
"","","","","","","","","","","","html-button-response","283","2.0.0","646925","66e9d5a253706d5ba625cf80","2","40","2051","","","","","","","","","<img src= ""rock_img/I_Diorite_12.jpg"" style=""width:8cm; height:4.88cm;""><p>What type of rock is this?</p>","0","class_response","1","test","40","Andesite","Diorite","12","false","1","3","",""
"","","","","","","","","","","","html-keyboard-response","284","2.0.0","647427","66e9d5a253706d5ba625cf80","2","40","null","","","","","","","","","<p style='font-size: 30px;'><strong>Okay</strong></p>","null","neutral_feedback","1","test","40","","","","","","","",""
"","","","","","","","","","","","html-button-response","285","2.0.0","648865","66e9d5a253706d5ba625cf80","2","40","1437","","","","","","","","","<img src= ""rock_img/I_Pumice_04.jpg"" style=""width:8cm; height:6.819999999999999cm;""><p>What type of rock is this?</p>","7","class_response","1","test","41","Pumice","Pumice","04","true","8","8","",""
"","","","","","","","","","","","html-keyboard-response","286","2.0.0","649376","66e9d5a253706d5ba625cf80","2","40","null","","","","","","","","","<p style='font-size: 30px;'><strong>Okay</strong></p>","null","neutral_feedback","1","test","41","","","","","","","",""
"","","","","","","","","","","","html-button-response","287","2.0.0","650787","66e9d5a253706d5ba625cf80","2","40","1410","","","","","","","","","<img src= ""rock_img/I_Diorite_16.jpg"" style=""width:8cm; height:6.74cm;""><p>What type of rock is this?</p>","0","class_response","1","test","42","Andesite","Diorite","16","false","1","3","",""
"","","","","","","","","","","","html-keyboard-response","288","2.0.0","651294","66e9d5a253706d5ba625cf80","2","40","null","","","","","","","","","<p style='font-size: 30px;'><strong>Okay</strong></p>","null","neutral_feedback","1","test","42","","","","","","","",""
"","","","","","","","","","","","html-button-response","289","2.0.0","652757","66e9d5a253706d5ba625cf80","2","40","1462","","","","","","","","","<img src= ""rock_img/I_Gabbro_14.jpg"" style=""width:8cm; height:8.48cm;""><p>What type of rock is this?</p>","3","class_response","1","test","43","Gabbro","Gabbro","14","true","4","4","",""
"","","","","","","","","","","","html-keyboard-response","290","2.0.0","653266","66e9d5a253706d5ba625cf80","2","40","null","","","","","","","","","<p style='font-size: 30px;'><strong>Okay</strong></p>","null","neutral_feedback","1","test","43","","","","","","","",""
"","","","","","","","","","","","html-button-response","291","2.0.0","654777","66e9d5a253706d5ba625cf80","2","40","1509","","","","","","","","","<img src= ""rock_img/I_Pumice_13.jpg"" style=""width:8cm; height:8.200000000000001cm;""><p>What type of rock is this?</p>","7","class_response","1","test","44","Pumice","Pumice","13","true","8","8","",""
"","","","","","","","","","","","html-keyboard-response","292","2.0.0","655291","66e9d5a253706d5ba625cf80","2","40","null","","","","","","","","","<p style='font-size: 30px;'><strong>Okay</strong></p>","null","neutral_feedback","1","test","44","","","","","","","",""
"","","","","","","","","","","","html-button-response","293","2.0.0","659119","66e9d5a253706d5ba625cf80","2","40","3826","","","","","","","","","<img src= ""rock_img/I_Peridotite_16.jpg"" style=""width:8cm; height:6.989999999999999cm;""><p>What type of rock is this?</p>","6","class_response","1","test","45","Peridotite","Peridotite","16","true","7","7","",""
"","","","","","","","","","","","html-keyboard-response","294","2.0.0","659622","66e9d5a253706d5ba625cf80","2","40","null","","","","","","","","","<p style='font-size: 30px;'><strong>Okay</strong></p>","null","neutral_feedback","1","test","45","","","","","","","",""
"","","","","","","","","","","","html-button-response","295","2.0.0","663151","66e9d5a253706d5ba625cf80","2","40","3528","","","","","","","","","<img src= ""rock_img/I_Gabbro_03.jpg"" style=""width:8cm; height:8.52cm;""><p>What type of rock is this?</p>","0","class_response","1","test","46","Andesite","Gabbro","03","false","1","4","",""
"","","","","","","","","","","","html-keyboard-response","296","2.0.0","663652","66e9d5a253706d5ba625cf80","2","40","null","","","","","","","","","<p style='font-size: 30px;'><strong>Okay</strong></p>","null","neutral_feedback","1","test","46","","","","","","","",""
"","","","","","","","","","","","html-button-response","297","2.0.0","667221","66e9d5a253706d5ba625cf80","2","40","3568","","","","","","","","","<img src= ""rock_img/I_Andesite_10.jpg"" style=""width:8cm; height:4.16cm;""><p>What type of rock is this?</p>","3","class_response","1","test","47","Gabbro","Andesite","10","false","4","1","",""
"","","","","","","","","","","","html-keyboard-response","298","2.0.0","667735","66e9d5a253706d5ba625cf80","2","40","null","","","","","","","","","<p style='font-size: 30px;'><strong>Okay</strong></p>","null","neutral_feedback","1","test","47","","","","","","","",""
"","","","","","","","","","","","html-button-response","299","2.0.0","669175","66e9d5a253706d5ba625cf80","2","40","1439","","","","","","","","","<img src= ""rock_img/I_Diorite_08.jpg"" style=""width:8cm; height:6.37cm;""><p>What type of rock is this?</p>","0","class_response","1","test","48","Andesite","Diorite","08","false","1","3","",""
"","","","","","","","","","","","html-keyboard-response","300","2.0.0","669687","66e9d5a253706d5ba625cf80","2","40","null","","","","","","","","","<p style='font-size: 30px;'><strong>Okay</strong></p>","null","neutral_feedback","1","test","48","","","","","","","",""
"","","","","","","","","","","","html-button-response","301","2.0.0","700243","66e9d5a253706d5ba625cf80","2","40","","","","","","","","","","","","cycle_feedback","","","","","","","","","","16406.39999999851","14141.79999999702"
"","","","","","","","","","","","html-button-response","303","2.0.0","701485","66e9d5a253706d5ba625cf80","2","40","1241","","","","","","","","","","0","start_train","","","","","","","","","","",""
"","","","","","","","","","","","html-button-response","304","2.0.0","703551","66e9d5a253706d5ba625cf80","2","40","2065","","","","","","","","","<img src= ""rock_img/I_Basalt_09.jpg"" style=""width:8cm; height:6.2cm;""><p>What type of rock is this?</p>","1","class_response","2","train","1","Basalt","Basalt","09","true","2","2","",""
