"width","height","webaudio","browser","browser_version","mobile","os","fullscreen","vsync_rate","webcam","microphone","trial_type","trial_index","plugin_version","time_elapsed","subjID","condition","stimID","rt","url","success","value","timeout","failed_images","failed_audio","failed_video","view_history","stimulus","response","trialType","cycle","phase","trial","resp","cat","token","corr","resp_num","cat_num","time_fb1","time_fb2"
"1470","797","true","chrome","131.0.0","false","Mac OS","true","60.42","true","true","browser-check","0","2.0.0","1001","67322550bd5dfa0cd2958366","2","52","","","","","","","","","","","","","","","","","","","","","","",""
"","","","","","","","","","","","external-html","1","2.0.0","108258","67322550bd5dfa0cd2958366","2","52","107075","consent_form.html","","","","","","","","","","","","","","","","","","","","",""
"","","","","","","","","","","","fullscreen","2","2.0.0","111692","67322550bd5dfa0cd2958366","2","52","2430","","true","","","","","","","","","","","","","","","","","","","",""
"","","","","","","","","","","","call-function","3","2.0.0","111695","67322550bd5dfa0cd2958366","2","52","","","","{}","","","","","","","","","","","","","","","","","","",""
"","","","","","","","","","","","preload","4","2.0.0","124802","67322550bd5dfa0cd2958366","2","52","","","true","","false","[]","[]","[]","","","","","","","","","","","","","","",""
"","","","","","","","","","","","instructions","5","2.0.0","190012","67322550bd5dfa0cd2958366","2","52","65209","","","","","","","","[{""page_index"":0,""viewing_time"":8645},{""page_index"":1,""viewing_time"":19730},{""page_index"":2,""viewing_time"":36834}]","","","","","","","","","","","","","",""
"","","","","","","","","","","","html-button-response","6","2.0.0","192174","67322550bd5dfa0cd2958366","2","52","2160","","","","","","","","","","0","start_test","","","","","","","","","","",""
"","","","","","","","","","","","html-button-response","7","2.0.0","197365","67322550bd5dfa0cd2958366","2","52","5188","","","","","","","","","<img src= ""rock_img/I_Diorite_07.jpg"" style=""width:8cm; height:5.239999999999999cm;""><p>What type of rock is this?</p>","2","class_response","0","test","1","Diorite","Diorite","07","true","3","3","",""
"","","","","","","","","","","","html-keyboard-response","8","2.0.0","197868","67322550bd5dfa0cd2958366","2","52","null","","","","","","","","","<p style='font-size: 30px;'><strong>Okay</strong></p>","null","neutral_feedback","0","test","1","","","","","","","",""
"","","","","","","","","","","","html-button-response","9","2.0.0","202032","67322550bd5dfa0cd2958366","2","52","4161","","","","","","","","","<img src= ""rock_img/I_Andesite_10.jpg"" style=""width:8cm; height:4.16cm;""><p>What type of rock is this?</p>","6","class_response","0","test","2","Peridotite","Andesite","10","false","7","1","",""
"","","","","","","","","","","","html-keyboard-response","10","2.0.0","202534","67322550bd5dfa0cd2958366","2","52","null","","","","","","","","","<p style='font-size: 30px;'><strong>Okay</strong></p>","null","neutral_feedback","0","test","2","","","","","","","",""
"","","","","","","","","","","","html-button-response","11","2.0.0","206618","67322550bd5dfa0cd2958366","2","52","4080","","","","","","","","","<img src= ""rock_img/I_Gabbro_05.jpg"" style=""width:8cm; height:6cm;""><p>What type of rock is this?</p>","3","class_response","0","test","3","Gabbro","Gabbro","05","true","4","4","",""
"","","","","","","","","","","","html-keyboard-response","12","2.0.0","207121","67322550bd5dfa0cd2958366","2","52","null","","","","","","","","","<p style='font-size: 30px;'><strong>Okay</strong></p>","null","neutral_feedback","0","test","3","","","","","","","",""
"","","","","","","","","","","","html-button-response","13","2.0.0","209900","67322550bd5dfa0cd2958366","2","52","2777","","","","","","","","","<img src= ""rock_img/I_Gabbro_14.jpg"" style=""width:8cm; height:8.48cm;""><p>What type of rock is this?</p>","0","class_response","0","test","4","Andesite","Gabbro","14","false","1","4","",""
"","","","","","","","","","","","html-keyboard-response","14","2.0.0","210402","67322550bd5dfa0cd2958366","2","52","null","","","","","","","","","<p style='font-size: 30px;'><strong>Okay</strong></p>","null","neutral_feedback","0","test","4","","","","","","","",""
"","","","","","","","","","","","html-button-response","15","2.0.0","214713","67322550bd5dfa0cd2958366","2","52","4308","","","","","","","","","<img src= ""rock_img/I_Diorite_08.jpg"" style=""width:8cm; height:6.37cm;""><p>What type of rock is this?</p>","5","class_response","0","test","5","Pegmatite","Diorite","08","false","6","3","",""
"","","","","","","","","","","","html-keyboard-response","16","2.0.0","215215","67322550bd5dfa0cd2958366","2","52","null","","","","","","","","","<p style='font-size: 30px;'><strong>Okay</strong></p>","null","neutral_feedback","0","test","5","","","","","","","",""
"","","","","","","","","","","","html-button-response","17","2.0.0","221273","67322550bd5dfa0cd2958366","2","52","6055","","","","","","","","","<img src= ""rock_img/I_Pegmatite_08.jpg"" style=""width:8cm; height:7.68cm;""><p>What type of rock is this?</p>","3","class_response","0","test","6","Gabbro","Pegmatite","08","false","4","6","",""
"","","","","","","","","","","","html-keyboard-response","18","2.0.0","221775","67322550bd5dfa0cd2958366","2","52","null","","","","","","","","","<p style='font-size: 30px;'><strong>Okay</strong></p>","null","neutral_feedback","0","test","6","","","","","","","",""
"","","","","","","","","","","","html-button-response","19","2.0.0","223959","67322550bd5dfa0cd2958366","2","52","2181","","","","","","","","","<img src= ""rock_img/I_Obsidian_10.jpg"" style=""width:8cm; height:6.260000000000001cm;""><p>What type of rock is this?</p>","4","class_response","0","test","7","Obsidian","Obsidian","10","true","5","5","",""
"","","","","","","","","","","","html-keyboard-response","20","2.0.0","224461","67322550bd5dfa0cd2958366","2","52","null","","","","","","","","","<p style='font-size: 30px;'><strong>Okay</strong></p>","null","neutral_feedback","0","test","7","","","","","","","",""
"","","","","","","","","","","","html-button-response","21","2.0.0","226715","67322550bd5dfa0cd2958366","2","52","2252","","","","","","","","","<img src= ""rock_img/I_Peridotite_15.jpg"" style=""width:8cm; height:6cm;""><p>What type of rock is this?</p>","5","class_response","0","test","8","Pegmatite","Peridotite","15","false","6","7","",""
"","","","","","","","","","","","html-keyboard-response","22","2.0.0","227217","67322550bd5dfa0cd2958366","2","52","null","","","","","","","","","<p style='font-size: 30px;'><strong>Okay</strong></p>","null","neutral_feedback","0","test","8","","","","","","","",""
"","","","","","","","","","","","html-button-response","23","2.0.0","229456","67322550bd5dfa0cd2958366","2","52","2237","","","","","","","","","<img src= ""rock_img/I_Pegmatite_15.jpg"" style=""width:8cm; height:6cm;""><p>What type of rock is this?</p>","6","class_response","0","test","9","Peridotite","Pegmatite","15","false","7","6","",""
"","","","","","","","","","","","html-keyboard-response","24","2.0.0","229958","67322550bd5dfa0cd2958366","2","52","null","","","","","","","","","<p style='font-size: 30px;'><strong>Okay</strong></p>","null","neutral_feedback","0","test","9","","","","","","","",""
"","","","","","","","","","","","html-button-response","25","2.0.0","233370","67322550bd5dfa0cd2958366","2","52","3410","","","","","","","","","<img src= ""rock_img/I_Basalt_16.jpg"" style=""width:8cm; height:7.659999999999999cm;""><p>What type of rock is this?</p>","7","class_response","0","test","10","Pumice","Basalt","16","false","8","2","",""
"","","","","","","","","","","","html-keyboard-response","26","2.0.0","233872","67322550bd5dfa0cd2958366","2","52","null","","","","","","","","","<p style='font-size: 30px;'><strong>Okay</strong></p>","null","neutral_feedback","0","test","10","","","","","","","",""
"","","","","","","","","","","","html-button-response","27","2.0.0","236613","67322550bd5dfa0cd2958366","2","52","2739","","","","","","","","","<img src= ""rock_img/I_Basalt_11.jpg"" style=""width:8cm; height:5.359999999999999cm;""><p>What type of rock is this?</p>","1","class_response","0","test","11","Basalt","Basalt","11","true","2","2","",""
"","","","","","","","","","","","html-keyboard-response","28","2.0.0","237115","67322550bd5dfa0cd2958366","2","52","null","","","","","","","","","<p style='font-size: 30px;'><strong>Okay</strong></p>","null","neutral_feedback","0","test","11","","","","","","","",""
"","","","","","","","","","","","html-button-response","29","2.0.0","239727","67322550bd5dfa0cd2958366","2","52","2611","","","","","","","","","<img src= ""rock_img/I_Diorite_09.jpg"" style=""width:8cm; height:5.27cm;""><p>What type of rock is this?</p>","0","class_response","0","test","12","Andesite","Diorite","09","false","1","3","",""
"","","","","","","","","","","","html-keyboard-response","30","2.0.0","240229","67322550bd5dfa0cd2958366","2","52","null","","","","","","","","","<p style='font-size: 30px;'><strong>Okay</strong></p>","null","neutral_feedback","0","test","12","","","","","","","",""
"","","","","","","","","","","","html-button-response","31","2.0.0","242040","67322550bd5dfa0cd2958366","2","52","1809","","","","","","","","","<img src= ""rock_img/I_Diorite_11.jpg"" style=""width:8cm; height:7.11cm;""><p>What type of rock is this?</p>","0","class_response","0","test","13","Andesite","Diorite","11","false","1","3","",""
"","","","","","","","","","","","html-keyboard-response","32","2.0.0","242543","67322550bd5dfa0cd2958366","2","52","null","","","","","","","","","<p style='font-size: 30px;'><strong>Okay</strong></p>","null","neutral_feedback","0","test","13","","","","","","","",""
"","","","","","","","","","","","html-button-response","33","2.0.0","244523","67322550bd5dfa0cd2958366","2","52","1979","","","","","","","","","<img src= ""rock_img/I_Andesite_03.jpg"" style=""width:8cm; height:5.73cm;""><p>What type of rock is this?</p>","1","class_response","0","test","14","Basalt","Andesite","03","false","2","1","",""
"","","","","","","","","","","","html-keyboard-response","34","2.0.0","245025","67322550bd5dfa0cd2958366","2","52","null","","","","","","","","","<p style='font-size: 30px;'><strong>Okay</strong></p>","null","neutral_feedback","0","test","14","","","","","","","",""
"","","","","","","","","","","","html-button-response","35","2.0.0","248527","67322550bd5dfa0cd2958366","2","52","3500","","","","","","","","","<img src= ""rock_img/I_Pegmatite_16.jpg"" style=""width:8cm; height:5.8cm;""><p>What type of rock is this?</p>","2","class_response","0","test","15","Diorite","Pegmatite","16","false","3","6","",""
"","","","","","","","","","","","html-keyboard-response","36","2.0.0","249029","67322550bd5dfa0cd2958366","2","52","null","","","","","","","","","<p style='font-size: 30px;'><strong>Okay</strong></p>","null","neutral_feedback","0","test","15","","","","","","","",""
"","","","","","","","","","","","html-button-response","37","2.0.0","250638","67322550bd5dfa0cd2958366","2","52","1607","","","","","","","","","<img src= ""rock_img/I_Obsidian_08.jpg"" style=""width:8cm; height:7.39cm;""><p>What type of rock is this?</p>","4","class_response","0","test","16","Obsidian","Obsidian","08","true","5","5","",""
"","","","","","","","","","","","html-keyboard-response","38","2.0.0","251140","67322550bd5dfa0cd2958366","2","52","null","","","","","","","","","<p style='font-size: 30px;'><strong>Okay</strong></p>","null","neutral_feedback","0","test","16","","","","","","","",""
"","","","","","","","","","","","html-button-response","39","2.0.0","254989","67322550bd5dfa0cd2958366","2","52","3846","","","","","","","","","<img src= ""rock_img/I_Andesite_04.jpg"" style=""width:8cm; height:5.96cm;""><p>What type of rock is this?</p>","5","class_response","0","test","17","Pegmatite","Andesite","04","false","6","1","",""
"","","","","","","","","","","","html-keyboard-response","40","2.0.0","255490","67322550bd5dfa0cd2958366","2","52","null","","","","","","","","","<p style='font-size: 30px;'><strong>Okay</strong></p>","null","neutral_feedback","0","test","17","","","","","","","",""
"","","","","","","","","","","","html-button-response","41","2.0.0","257180","67322550bd5dfa0cd2958366","2","52","1688","","","","","","","","","<img src= ""rock_img/I_Pumice_08.jpg"" style=""width:8cm; height:6.67cm;""><p>What type of rock is this?</p>","7","class_response","0","test","18","Pumice","Pumice","08","true","8","8","",""
"","","","","","","","","","","","html-keyboard-response","42","2.0.0","257682","67322550bd5dfa0cd2958366","2","52","null","","","","","","","","","<p style='font-size: 30px;'><strong>Okay</strong></p>","null","neutral_feedback","0","test","18","","","","","","","",""
"","","","","","","","","","","","html-button-response","43","2.0.0","260399","67322550bd5dfa0cd2958366","2","52","2715","","","","","","","","","<img src= ""rock_img/I_Andesite_02.jpg"" style=""width:8cm; height:8.5cm;""><p>What type of rock is this?</p>","3","class_response","0","test","19","Gabbro","Andesite","02","false","4","1","",""
"","","","","","","","","","","","html-keyboard-response","44","2.0.0","260901","67322550bd5dfa0cd2958366","2","52","null","","","","","","","","","<p style='font-size: 30px;'><strong>Okay</strong></p>","null","neutral_feedback","0","test","19","","","","","","","",""
"","","","","","","","","","","","html-button-response","45","2.0.0","262097","67322550bd5dfa0cd2958366","2","52","1195","","","","","","","","","<img src= ""rock_img/I_Diorite_16.jpg"" style=""width:8cm; height:6.74cm;""><p>What type of rock is this?</p>","2","class_response","0","test","20","Diorite","Diorite","16","true","3","3","",""
"","","","","","","","","","","","html-keyboard-response","46","2.0.0","262600","67322550bd5dfa0cd2958366","2","52","null","","","","","","","","","<p style='font-size: 30px;'><strong>Okay</strong></p>","null","neutral_feedback","0","test","20","","","","","","","",""
"","","","","","","","","","","","html-button-response","47","2.0.0","263796","67322550bd5dfa0cd2958366","2","52","1195","","","","","","","","","<img src= ""rock_img/I_Diorite_13.jpg"" style=""width:8cm; height:6.29cm;""><p>What type of rock is this?</p>","6","class_response","0","test","21","Peridotite","Diorite","13","false","7","3","",""
"","","","","","","","","","","","html-keyboard-response","48","2.0.0","264299","67322550bd5dfa0cd2958366","2","52","null","","","","","","","","","<p style='font-size: 30px;'><strong>Okay</strong></p>","null","neutral_feedback","0","test","21","","","","","","","",""
"","","","","","","","","","","","html-button-response","49","2.0.0","265753","67322550bd5dfa0cd2958366","2","52","1453","","","","","","","","","<img src= ""rock_img/I_Andesite_16.jpg"" style=""width:8cm; height:6.010000000000001cm;""><p>What type of rock is this?</p>","0","class_response","0","test","22","Andesite","Andesite","16","true","1","1","",""
"","","","","","","","","","","","html-keyboard-response","50","2.0.0","266255","67322550bd5dfa0cd2958366","2","52","null","","","","","","","","","<p style='font-size: 30px;'><strong>Okay</strong></p>","null","neutral_feedback","0","test","22","","","","","","","",""
"","","","","","","","","","","","html-button-response","51","2.0.0","267872","67322550bd5dfa0cd2958366","2","52","1615","","","","","","","","","<img src= ""rock_img/I_Gabbro_03.jpg"" style=""width:8cm; height:8.52cm;""><p>What type of rock is this?</p>","0","class_response","0","test","23","Andesite","Gabbro","03","false","1","4","",""
"","","","","","","","","","","","html-keyboard-response","52","2.0.0","268374","67322550bd5dfa0cd2958366","2","52","null","","","","","","","","","<p style='font-size: 30px;'><strong>Okay</strong></p>","null","neutral_feedback","0","test","23","","","","","","","",""
"","","","","","","","","","","","html-button-response","53","2.0.0","270258","67322550bd5dfa0cd2958366","2","52","1883","","","","","","","","","<img src= ""rock_img/I_Basalt_12.jpg"" style=""width:8cm; height:6.010000000000001cm;""><p>What type of rock is this?</p>","1","class_response","0","test","24","Basalt","Basalt","12","true","2","2","",""
"","","","","","","","","","","","html-keyboard-response","54","2.0.0","270761","67322550bd5dfa0cd2958366","2","52","null","","","","","","","","","<p style='font-size: 30px;'><strong>Okay</strong></p>","null","neutral_feedback","0","test","24","","","","","","","",""
"","","","","","","","","","","","html-button-response","55","2.0.0","273049","67322550bd5dfa0cd2958366","2","52","2287","","","","","","","","","<img src= ""rock_img/I_Basalt_08.jpg"" style=""width:8cm; height:10.44cm;""><p>What type of rock is this?</p>","1","class_response","0","test","25","Basalt","Basalt","08","true","2","2","",""
"","","","","","","","","","","","html-keyboard-response","56","2.0.0","273551","67322550bd5dfa0cd2958366","2","52","null","","","","","","","","","<p style='font-size: 30px;'><strong>Okay</strong></p>","null","neutral_feedback","0","test","25","","","","","","","",""
"","","","","","","","","","","","html-button-response","57","2.0.0","277853","67322550bd5dfa0cd2958366","2","52","4300","","","","","","","","","<img src= ""rock_img/I_Pegmatite_10.jpg"" style=""width:8cm; height:4.16cm;""><p>What type of rock is this?</p>","6","class_response","0","test","26","Peridotite","Pegmatite","10","false","7","6","",""
"","","","","","","","","","","","html-keyboard-response","58","2.0.0","278355","67322550bd5dfa0cd2958366","2","52","null","","","","","","","","","<p style='font-size: 30px;'><strong>Okay</strong></p>","null","neutral_feedback","0","test","26","","","","","","","",""
"","","","","","","","","","","","html-button-response","59","2.0.0","279858","67322550bd5dfa0cd2958366","2","52","1501","","","","","","","","","<img src= ""rock_img/I_Pumice_03.jpg"" style=""width:8cm; height:6.64cm;""><p>What type of rock is this?</p>","7","class_response","0","test","27","Pumice","Pumice","03","true","8","8","",""
"","","","","","","","","","","","html-keyboard-response","60","2.0.0","280360","67322550bd5dfa0cd2958366","2","52","null","","","","","","","","","<p style='font-size: 30px;'><strong>Okay</strong></p>","null","neutral_feedback","0","test","27","","","","","","","",""
"","","","","","","","","","","","html-button-response","61","2.0.0","281937","67322550bd5dfa0cd2958366","2","52","1575","","","","","","","","","<img src= ""rock_img/I_Obsidian_04.jpg"" style=""width:8cm; height:6.930000000000001cm;""><p>What type of rock is this?</p>","4","class_response","0","test","28","Obsidian","Obsidian","04","true","5","5","",""
"","","","","","","","","","","","html-keyboard-response","62","2.0.0","282439","67322550bd5dfa0cd2958366","2","52","null","","","","","","","","","<p style='font-size: 30px;'><strong>Okay</strong></p>","null","neutral_feedback","0","test","28","","","","","","","",""
"","","","","","","","","","","","html-button-response","63","2.0.0","283619","67322550bd5dfa0cd2958366","2","52","1178","","","","","","","","","<img src= ""rock_img/I_Pumice_02.jpg"" style=""width:8cm; height:7.3999999999999995cm;""><p>What type of rock is this?</p>","7","class_response","0","test","29","Pumice","Pumice","02","true","8","8","",""
"","","","","","","","","","","","html-keyboard-response","64","2.0.0","284121","67322550bd5dfa0cd2958366","2","52","null","","","","","","","","","<p style='font-size: 30px;'><strong>Okay</strong></p>","null","neutral_feedback","0","test","29","","","","","","","",""
"","","","","","","","","","","","html-button-response","65","2.0.0","284816","67322550bd5dfa0cd2958366","2","52","693","","","","","","","","","<img src= ""rock_img/I_Pumice_14.jpg"" style=""width:8cm; height:6.39cm;""><p>What type of rock is this?</p>","7","class_response","0","test","30","Pumice","Pumice","14","true","8","8","",""
"","","","","","","","","","","","html-keyboard-response","66","2.0.0","285317","67322550bd5dfa0cd2958366","2","52","null","","","","","","","","","<p style='font-size: 30px;'><strong>Okay</strong></p>","null","neutral_feedback","0","test","30","","","","","","","",""
"","","","","","","","","","","","html-button-response","67","2.0.0","286813","67322550bd5dfa0cd2958366","2","52","1493","","","","","","","","","<img src= ""rock_img/I_Obsidian_16.jpg"" style=""width:8cm; height:9.3cm;""><p>What type of rock is this?</p>","4","class_response","0","test","31","Obsidian","Obsidian","16","true","5","5","",""
"","","","","","","","","","","","html-keyboard-response","68","2.0.0","287315","67322550bd5dfa0cd2958366","2","52","null","","","","","","","","","<p style='font-size: 30px;'><strong>Okay</strong></p>","null","neutral_feedback","0","test","31","","","","","","","",""
"","","","","","","","","","","","html-button-response","69","2.0.0","289361","67322550bd5dfa0cd2958366","2","52","2044","","","","","","","","","<img src= ""rock_img/I_Gabbro_10.jpg"" style=""width:8cm; height:5.680000000000001cm;""><p>What type of rock is this?</p>","1","class_response","0","test","32","Basalt","Gabbro","10","false","2","4","",""
"","","","","","","","","","","","html-keyboard-response","70","2.0.0","289863","67322550bd5dfa0cd2958366","2","52","null","","","","","","","","","<p style='font-size: 30px;'><strong>Okay</strong></p>","null","neutral_feedback","0","test","32","","","","","","","",""
"","","","","","","","","","","","html-button-response","71","2.0.0","291164","67322550bd5dfa0cd2958366","2","52","1299","","","","","","","","","<img src= ""rock_img/I_Basalt_01.jpg"" style=""width:8cm; height:7.880000000000001cm;""><p>What type of rock is this?</p>","1","class_response","0","test","33","Basalt","Basalt","01","true","2","2","",""
"","","","","","","","","","","","html-keyboard-response","72","2.0.0","291666","67322550bd5dfa0cd2958366","2","52","null","","","","","","","","","<p style='font-size: 30px;'><strong>Okay</strong></p>","null","neutral_feedback","0","test","33","","","","","","","",""
"","","","","","","","","","","","html-button-response","73","2.0.0","294392","67322550bd5dfa0cd2958366","2","52","2724","","","","","","","","","<img src= ""rock_img/I_Andesite_11.jpg"" style=""width:8cm; height:4.92cm;""><p>What type of rock is this?</p>","3","class_response","0","test","34","Gabbro","Andesite","11","false","4","1","",""
"","","","","","","","","","","","html-keyboard-response","74","2.0.0","294894","67322550bd5dfa0cd2958366","2","52","null","","","","","","","","","<p style='font-size: 30px;'><strong>Okay</strong></p>","null","neutral_feedback","0","test","34","","","","","","","",""
"","","","","","","","","","","","html-button-response","75","2.0.0","295863","67322550bd5dfa0cd2958366","2","52","967","","","","","","","","","<img src= ""rock_img/I_Basalt_06.jpg"" style=""width:8cm; height:7.06cm;""><p>What type of rock is this?</p>","1","class_response","0","test","35","Basalt","Basalt","06","true","2","2","",""
"","","","","","","","","","","","html-keyboard-response","76","2.0.0","296365","67322550bd5dfa0cd2958366","2","52","null","","","","","","","","","<p style='font-size: 30px;'><strong>Okay</strong></p>","null","neutral_feedback","0","test","35","","","","","","","",""
"","","","","","","","","","","","html-button-response","77","2.0.0","297699","67322550bd5dfa0cd2958366","2","52","1333","","","","","","","","","<img src= ""rock_img/I_Pumice_05.jpg"" style=""width:8cm; height:7.25cm;""><p>What type of rock is this?</p>","7","class_response","0","test","36","Pumice","Pumice","05","true","8","8","",""
"","","","","","","","","","","","html-keyboard-response","78","2.0.0","298200","67322550bd5dfa0cd2958366","2","52","null","","","","","","","","","<p style='font-size: 30px;'><strong>Okay</strong></p>","null","neutral_feedback","0","test","36","","","","","","","",""
"","","","","","","","","","","","html-button-response","79","2.0.0","299291","67322550bd5dfa0cd2958366","2","52","1089","","","","","","","","","<img src= ""rock_img/I_Pumice_10.jpg"" style=""width:8cm; height:7.609999999999999cm;""><p>What type of rock is this?</p>","7","class_response","0","test","37","Pumice","Pumice","10","true","8","8","",""
"","","","","","","","","","","","html-keyboard-response","80","2.0.0","299792","67322550bd5dfa0cd2958366","2","52","null","","","","","","","","","<p style='font-size: 30px;'><strong>Okay</strong></p>","null","neutral_feedback","0","test","37","","","","","","","",""
"","","","","","","","","","","","html-button-response","81","2.0.0","301613","67322550bd5dfa0cd2958366","2","52","1819","","","","","","","","","<img src= ""rock_img/I_Peridotite_08.jpg"" style=""width:8cm; height:6.7cm;""><p>What type of rock is this?</p>","0","class_response","0","test","38","Andesite","Peridotite","08","false","1","7","",""
"","","","","","","","","","","","html-keyboard-response","82","2.0.0","302115","67322550bd5dfa0cd2958366","2","52","null","","","","","","","","","<p style='font-size: 30px;'><strong>Okay</strong></p>","null","neutral_feedback","0","test","38","","","","","","","",""
"","","","","","","","","","","","html-button-response","83","2.0.0","304808","67322550bd5dfa0cd2958366","2","52","2692","","","","","","","","","<img src= ""rock_img/I_Peridotite_14.jpg"" style=""width:8cm; height:5.3cm;""><p>What type of rock is this?</p>","5","class_response","0","test","39","Pegmatite","Peridotite","14","false","6","7","",""
"","","","","","","","","","","","html-keyboard-response","84","2.0.0","305310","67322550bd5dfa0cd2958366","2","52","null","","","","","","","","","<p style='font-size: 30px;'><strong>Okay</strong></p>","null","neutral_feedback","0","test","39","","","","","","","",""
"","","","","","","","","","","","html-button-response","85","2.0.0","307161","67322550bd5dfa0cd2958366","2","52","1849","","","","","","","","","<img src= ""rock_img/I_Obsidian_02.jpg"" style=""width:8cm; height:7.51cm;""><p>What type of rock is this?</p>","4","class_response","0","test","40","Obsidian","Obsidian","02","true","5","5","",""
"","","","","","","","","","","","html-keyboard-response","86","2.0.0","307662","67322550bd5dfa0cd2958366","2","52","null","","","","","","","","","<p style='font-size: 30px;'><strong>Okay</strong></p>","null","neutral_feedback","0","test","40","","","","","","","",""
"","","","","","","","","","","","html-button-response","87","2.0.0","309668","67322550bd5dfa0cd2958366","2","52","2004","","","","","","","","","<img src= ""rock_img/I_Peridotite_02.jpg"" style=""width:8cm; height:5.859999999999999cm;""><p>What type of rock is this?</p>","0","class_response","0","test","41","Andesite","Peridotite","02","false","1","7","",""
"","","","","","","","","","","","html-keyboard-response","88","2.0.0","310170","67322550bd5dfa0cd2958366","2","52","null","","","","","","","","","<p style='font-size: 30px;'><strong>Okay</strong></p>","null","neutral_feedback","0","test","41","","","","","","","",""
"","","","","","","","","","","","html-button-response","89","2.0.0","311341","67322550bd5dfa0cd2958366","2","52","1170","","","","","","","","","<img src= ""rock_img/I_Peridotite_05.jpg"" style=""width:8cm; height:7.1499999999999995cm;""><p>What type of rock is this?</p>","2","class_response","0","test","42","Diorite","Peridotite","05","false","3","7","",""
"","","","","","","","","","","","html-keyboard-response","90","2.0.0","311842","67322550bd5dfa0cd2958366","2","52","null","","","","","","","","","<p style='font-size: 30px;'><strong>Okay</strong></p>","null","neutral_feedback","0","test","42","","","","","","","",""
"","","","","","","","","","","","html-button-response","91","2.0.0","313477","67322550bd5dfa0cd2958366","2","52","1633","","","","","","","","","<img src= ""rock_img/I_Pegmatite_06.jpg"" style=""width:8cm; height:5.17cm;""><p>What type of rock is this?</p>","6","class_response","0","test","43","Peridotite","Pegmatite","06","false","7","6","",""
"","","","","","","","","","","","html-keyboard-response","92","2.0.0","313979","67322550bd5dfa0cd2958366","2","52","null","","","","","","","","","<p style='font-size: 30px;'><strong>Okay</strong></p>","null","neutral_feedback","0","test","43","","","","","","","",""
"","","","","","","","","","","","html-button-response","93","2.0.0","315297","67322550bd5dfa0cd2958366","2","52","1316","","","","","","","","","<img src= ""rock_img/I_Pegmatite_05.jpg"" style=""width:8cm; height:7.300000000000001cm;""><p>What type of rock is this?</p>","6","class_response","0","test","44","Peridotite","Pegmatite","05","false","7","6","",""
"","","","","","","","","","","","html-keyboard-response","94","2.0.0","315798","67322550bd5dfa0cd2958366","2","52","null","","","","","","","","","<p style='font-size: 30px;'><strong>Okay</strong></p>","null","neutral_feedback","0","test","44","","","","","","","",""
"","","","","","","","","","","","html-button-response","95","2.0.0","319098","67322550bd5dfa0cd2958366","2","52","3298","","","","","","","","","<img src= ""rock_img/I_Gabbro_16.jpg"" style=""width:8cm; height:6.44cm;""><p>What type of rock is this?</p>","1","class_response","0","test","45","Basalt","Gabbro","16","false","2","4","",""
"","","","","","","","","","","","html-keyboard-response","96","2.0.0","319600","67322550bd5dfa0cd2958366","2","52","null","","","","","","","","","<p style='font-size: 30px;'><strong>Okay</strong></p>","null","neutral_feedback","0","test","45","","","","","","","",""
"","","","","","","","","","","","html-button-response","97","2.0.0","321338","67322550bd5dfa0cd2958366","2","52","1736","","","","","","","","","<img src= ""rock_img/I_Obsidian_14.jpg"" style=""width:8cm; height:7.64cm;""><p>What type of rock is this?</p>","4","class_response","0","test","46","Obsidian","Obsidian","14","true","5","5","",""
"","","","","","","","","","","","html-keyboard-response","98","2.0.0","321839","67322550bd5dfa0cd2958366","2","52","null","","","","","","","","","<p style='font-size: 30px;'><strong>Okay</strong></p>","null","neutral_feedback","0","test","46","","","","","","","",""
"","","","","","","","","","","","html-button-response","99","2.0.0","323731","67322550bd5dfa0cd2958366","2","52","1890","","","","","","","","","<img src= ""rock_img/I_Gabbro_08.jpg"" style=""width:8cm; height:5.15cm;""><p>What type of rock is this?</p>","3","class_response","0","test","47","Gabbro","Gabbro","08","true","4","4","",""
"","","","","","","","","","","","html-keyboard-response","100","2.0.0","324233","67322550bd5dfa0cd2958366","2","52","null","","","","","","","","","<p style='font-size: 30px;'><strong>Okay</strong></p>","null","neutral_feedback","0","test","47","","","","","","","",""
"","","","","","","","","","","","html-button-response","101","2.0.0","325969","67322550bd5dfa0cd2958366","2","52","1734","","","","","","","","","<img src= ""rock_img/I_Peridotite_07.jpg"" style=""width:8cm; height:4.83cm;""><p>What type of rock is this?</p>","0","class_response","0","test","48","Andesite","Peridotite","07","false","1","7","",""
"","","","","","","","","","","","html-keyboard-response","102","2.0.0","326471","67322550bd5dfa0cd2958366","2","52","null","","","","","","","","","<p style='font-size: 30px;'><strong>Okay</strong></p>","null","neutral_feedback","0","test","48","","","","","","","",""
"","","","","","","","","","","","instructions","103","2.0.0","347654","67322550bd5dfa0cd2958366","2","52","21159","","","","","","","","[{""page_index"":0,""viewing_time"":12116},{""page_index"":1,""viewing_time"":4652},{""page_index"":2,""viewing_time"":4391}]","","","","","","","","","","","","","",""
"","","","","","","","","","","","html-button-response","104","2.0.0","352643","67322550bd5dfa0cd2958366","2","52","4988","","","","","","","","","","0","start_train","","","","","","","","","","",""
"","","","","","","","","","","","html-button-response","105","2.0.0","354633","67322550bd5dfa0cd2958366","2","52","1987","","","","","","","","","<img src= ""rock_img/I_Pegmatite_03.jpg"" style=""width:8cm; height:5.239999999999999cm;""><p>What type of rock is this?</p>","0","class_response","1","train","1","Andesite","Pegmatite","03","false","1","6","",""
"","","","","","","","","","","","html-button-response","106","2.0.0","357519","67322550bd5dfa0cd2958366","2","52","2884","","","","","","","","","<img src= rock_img/I_Pegmatite_03.jpg style=""width:8cm; height:5.239999999999999cm;""><p style='font-size: 30px; color: red;'><strong>Incorrect!</strong></p><p style='font-size: 30px;'><strong>This rock is pegmatite</strong></p>","0","corr_feedback","1","train","1","","","","","","","",""
"","","","","","","","","","","","html-button-response","107","2.0.0","359129","67322550bd5dfa0cd2958366","2","52","1608","","","","","","","","","<img src= ""rock_img/I_Andesite_09.jpg"" style=""width:8cm; height:6cm;""><p>What type of rock is this?</p>","2","class_response","1","train","2","Diorite","Andesite","09","false","3","1","",""
"","","","","","","","","","","","html-button-response","108","2.0.0","361344","67322550bd5dfa0cd2958366","2","52","2214","","","","","","","","","<img src= rock_img/I_Andesite_09.jpg style=""width:8cm; height:6cm;""><p style='font-size: 30px; color: red;'><strong>Incorrect!</strong></p><p style='font-size: 30px;'><strong>This rock is andesite</strong></p>","0","corr_feedback","1","train","2","","","","","","","",""
"","","","","","","","","","","","html-button-response","109","2.0.0","362720","67322550bd5dfa0cd2958366","2","52","1373","","","","","","","","","<img src= ""rock_img/I_Andesite_06.jpg"" style=""width:8cm; height:6.840000000000001cm;""><p>What type of rock is this?</p>","0","class_response","1","train","3","Andesite","Andesite","06","true","1","1","",""
"","","","","","","","","","","","html-button-response","110","2.0.0","364206","67322550bd5dfa0cd2958366","2","52","1485","","","","","","","","","<img src= rock_img/I_Andesite_06.jpg style=""width:8cm; height:6.840000000000001cm;""><p style='font-size: 30px; color: green;'><strong>Correct!</strong></p><p style='font-size: 30px;'><strong>This rock is andesite</strong></p>","0","corr_feedback","1","train","3","","","","","","","",""
"","","","","","","","","","","","html-button-response","111","2.0.0","365517","67322550bd5dfa0cd2958366","2","52","1309","","","","","","","","","<img src= ""rock_img/I_Basalt_04.jpg"" style=""width:8cm; height:7.53cm;""><p>What type of rock is this?</p>","1","class_response","1","train","4","Basalt","Basalt","04","true","2","2","",""
"","","","","","","","","","","","html-button-response","112","2.0.0","366584","67322550bd5dfa0cd2958366","2","52","1065","","","","","","","","","<img src= rock_img/I_Basalt_04.jpg style=""width:8cm; height:7.53cm;""><p style='font-size: 30px; color: green;'><strong>Correct!</strong></p><p style='font-size: 30px;'><strong>This rock is basalt</strong></p>","0","corr_feedback","1","train","4","","","","","","","",""
"","","","","","","","","","","","html-button-response","113","2.0.0","369973","67322550bd5dfa0cd2958366","2","52","3388","","","","","","","","","<img src= ""rock_img/I_Andesite_07.jpg"" style=""width:8cm; height:5.93cm;""><p>What type of rock is this?</p>","3","class_response","1","train","5","Gabbro","Andesite","07","false","4","1","",""
"","","","","","","","","","","","html-button-response","114","2.0.0","372479","67322550bd5dfa0cd2958366","2","52","2504","","","","","","","","","<img src= rock_img/I_Andesite_07.jpg style=""width:8cm; height:5.93cm;""><p style='font-size: 30px; color: red;'><strong>Incorrect!</strong></p><p style='font-size: 30px;'><strong>This rock is andesite</strong></p>","0","corr_feedback","1","train","5","","","","","","","",""
"","","","","","","","","","","","html-button-response","115","2.0.0","374033","67322550bd5dfa0cd2958366","2","52","1552","","","","","","","","","<img src= ""rock_img/I_Gabbro_09.jpg"" style=""width:8cm; height:7.279999999999999cm;""><p>What type of rock is this?</p>","1","class_response","1","train","6","Basalt","Gabbro","09","false","2","4","",""
"","","","","","","","","","","","html-button-response","116","2.0.0","375092","67322550bd5dfa0cd2958366","2","52","1058","","","","","","","","","<img src= rock_img/I_Gabbro_09.jpg style=""width:8cm; height:7.279999999999999cm;""><p style='font-size: 30px; color: red;'><strong>Incorrect!</strong></p><p style='font-size: 30px;'><strong>This rock is gabbro</strong></p>","0","corr_feedback","1","train","6","","","","","","","",""
"","","","","","","","","","","","html-button-response","117","2.0.0","378626","67322550bd5dfa0cd2958366","2","52","3533","","","","","","","","","<img src= ""rock_img/I_Peridotite_06.jpg"" style=""width:8cm; height:7.53cm;""><p>What type of rock is this?</p>","5","class_response","1","train","7","Pegmatite","Peridotite","06","false","6","7","",""
"","","","","","","","","","","","html-button-response","118","2.0.0","379750","67322550bd5dfa0cd2958366","2","52","1122","","","","","","","","","<img src= rock_img/I_Peridotite_06.jpg style=""width:8cm; height:7.53cm;""><p style='font-size: 30px; color: red;'><strong>Incorrect!</strong></p><p style='font-size: 30px;'><strong>This rock is peridotite</strong></p>","0","corr_feedback","1","train","7","","","","","","","",""
"","","","","","","","","","","","html-button-response","119","2.0.0","381432","67322550bd5dfa0cd2958366","2","52","1680","","","","","","","","","<img src= ""rock_img/I_Basalt_10.jpg"" style=""width:8cm; height:5.85cm;""><p>What type of rock is this?</p>","1","class_response","1","train","8","Basalt","Basalt","10","true","2","2","",""
"","","","","","","","","","","","html-button-response","120","2.0.0","382435","67322550bd5dfa0cd2958366","2","52","1001","","","","","","","","","<img src= rock_img/I_Basalt_10.jpg style=""width:8cm; height:5.85cm;""><p style='font-size: 30px; color: green;'><strong>Correct!</strong></p><p style='font-size: 30px;'><strong>This rock is basalt</strong></p>","0","corr_feedback","1","train","8","","","","","","","",""
"","","","","","","","","","","","html-button-response","121","2.0.0","384213","67322550bd5dfa0cd2958366","2","52","1777","","","","","","","","","<img src= ""rock_img/I_Pegmatite_12.jpg"" style=""width:8cm; height:5.7cm;""><p>What type of rock is this?</p>","2","class_response","1","train","9","Diorite","Pegmatite","12","false","3","6","",""
"","","","","","","","","","","","html-button-response","122","2.0.0","385313","67322550bd5dfa0cd2958366","2","52","1099","","","","","","","","","<img src= rock_img/I_Pegmatite_12.jpg style=""width:8cm; height:5.7cm;""><p style='font-size: 30px; color: red;'><strong>Incorrect!</strong></p><p style='font-size: 30px;'><strong>This rock is pegmatite</strong></p>","0","corr_feedback","1","train","9","","","","","","","",""
"","","","","","","","","","","","html-button-response","123","2.0.0","387052","67322550bd5dfa0cd2958366","2","52","1737","","","","","","","","","<img src= ""rock_img/I_Pumice_09.jpg"" style=""width:8cm; height:6.44cm;""><p>What type of rock is this?</p>","7","class_response","1","train","10","Pumice","Pumice","09","true","8","8","",""
"","","","","","","","","","","","html-button-response","124","2.0.0","387988","67322550bd5dfa0cd2958366","2","52","934","","","","","","","","","<img src= rock_img/I_Pumice_09.jpg style=""width:8cm; height:6.44cm;""><p style='font-size: 30px; color: green;'><strong>Correct!</strong></p><p style='font-size: 30px;'><strong>This rock is pumice</strong></p>","0","corr_feedback","1","train","10","","","","","","","",""
"","","","","","","","","","","","html-button-response","125","2.0.0","389962","67322550bd5dfa0cd2958366","2","52","1973","","","","","","","","","<img src= ""rock_img/I_Peridotite_13.jpg"" style=""width:8cm; height:7.58cm;""><p>What type of rock is this?</p>","6","class_response","1","train","11","Peridotite","Peridotite","13","true","7","7","",""
"","","","","","","","","","","","html-button-response","126","2.0.0","393521","67322550bd5dfa0cd2958366","2","52","3557","","","","","","","","","<img src= rock_img/I_Peridotite_13.jpg style=""width:8cm; height:7.58cm;""><p style='font-size: 30px; color: green;'><strong>Correct!</strong></p><p style='font-size: 30px;'><strong>This rock is peridotite</strong></p>","0","corr_feedback","1","train","11","","","","","","","",""
"","","","","","","","","","","","html-button-response","127","2.0.0","394936","67322550bd5dfa0cd2958366","2","52","1414","","","","","","","","","<img src= ""rock_img/I_Peridotite_12.jpg"" style=""width:8cm; height:4.54cm;""><p>What type of rock is this?</p>","0","class_response","1","train","12","Andesite","Peridotite","12","false","1","7","",""
"","","","","","","","","","","","html-button-response","128","2.0.0","397046","67322550bd5dfa0cd2958366","2","52","2108","","","","","","","","","<img src= rock_img/I_Peridotite_12.jpg style=""width:8cm; height:4.54cm;""><p style='font-size: 30px; color: red;'><strong>Incorrect!</strong></p><p style='font-size: 30px;'><strong>This rock is peridotite</strong></p>","0","corr_feedback","1","train","12","","","","","","","",""
"","","","","","","","","","","","html-button-response","129","2.0.0","401769","67322550bd5dfa0cd2958366","2","52","4721","","","","","","","","","<img src= ""rock_img/I_Gabbro_01.jpg"" style=""width:8cm; height:5.21cm;""><p>What type of rock is this?</p>","3","class_response","1","train","13","Gabbro","Gabbro","01","true","4","4","",""
"","","","","","","","","","","","html-button-response","130","2.0.0","402941","67322550bd5dfa0cd2958366","2","52","1171","","","","","","","","","<img src= rock_img/I_Gabbro_01.jpg style=""width:8cm; height:5.21cm;""><p style='font-size: 30px; color: green;'><strong>Correct!</strong></p><p style='font-size: 30px;'><strong>This rock is gabbro</strong></p>","0","corr_feedback","1","train","13","","","","","","","",""
"","","","","","","","","","","","html-button-response","131","2.0.0","406370","67322550bd5dfa0cd2958366","2","52","3427","","","","","","","","","<img src= ""rock_img/I_Peridotite_04.jpg"" style=""width:8cm; height:6.680000000000001cm;""><p>What type of rock is this?</p>","0","class_response","1","train","14","Andesite","Peridotite","04","false","1","7","",""
"","","","","","","","","","","","html-button-response","132","2.0.0","407379","67322550bd5dfa0cd2958366","2","52","1007","","","","","","","","","<img src= rock_img/I_Peridotite_04.jpg style=""width:8cm; height:6.680000000000001cm;""><p style='font-size: 30px; color: red;'><strong>Incorrect!</strong></p><p style='font-size: 30px;'><strong>This rock is peridotite</strong></p>","0","corr_feedback","1","train","14","","","","","","","",""
"","","","","","","","","","","","html-button-response","133","2.0.0","409742","67322550bd5dfa0cd2958366","2","52","2362","","","","","","","","","<img src= ""rock_img/I_Diorite_14.jpg"" style=""width:8cm; height:5.71cm;""><p>What type of rock is this?</p>","0","class_response","1","train","15","Andesite","Diorite","14","false","1","3","",""
"","","","","","","","","","","","html-button-response","134","2.0.0","410777","67322550bd5dfa0cd2958366","2","52","1033","","","","","","","","","<img src= rock_img/I_Diorite_14.jpg style=""width:8cm; height:5.71cm;""><p style='font-size: 30px; color: red;'><strong>Incorrect!</strong></p><p style='font-size: 30px;'><strong>This rock is diorite</strong></p>","0","corr_feedback","1","train","15","","","","","","","",""
"","","","","","","","","","","","html-button-response","135","2.0.0","412734","67322550bd5dfa0cd2958366","2","52","1955","","","","","","","","","<img src= ""rock_img/I_Peridotite_10.jpg"" style=""width:8cm; height:5.390000000000001cm;""><p>What type of rock is this?</p>","6","class_response","1","train","16","Peridotite","Peridotite","10","true","7","7","",""
"","","","","","","","","","","","html-button-response","136","2.0.0","413663","67322550bd5dfa0cd2958366","2","52","927","","","","","","","","","<img src= rock_img/I_Peridotite_10.jpg style=""width:8cm; height:5.390000000000001cm;""><p style='font-size: 30px; color: green;'><strong>Correct!</strong></p><p style='font-size: 30px;'><strong>This rock is peridotite</strong></p>","0","corr_feedback","1","train","16","","","","","","","",""
"","","","","","","","","","","","html-button-response","137","2.0.0","415242","67322550bd5dfa0cd2958366","2","52","1577","","","","","","","","","<img src= ""rock_img/I_Andesite_05.jpg"" style=""width:8cm; height:4.12cm;""><p>What type of rock is this?</p>","5","class_response","1","train","17","Pegmatite","Andesite","05","false","6","1","",""
"","","","","","","","","","","","html-button-response","138","2.0.0","416169","67322550bd5dfa0cd2958366","2","52","925","","","","","","","","","<img src= rock_img/I_Andesite_05.jpg style=""width:8cm; height:4.12cm;""><p style='font-size: 30px; color: red;'><strong>Incorrect!</strong></p><p style='font-size: 30px;'><strong>This rock is andesite</strong></p>","0","corr_feedback","1","train","17","","","","","","","",""
"","","","","","","","","","","","html-button-response","139","2.0.0","417983","67322550bd5dfa0cd2958366","2","52","1813","","","","","","","","","<img src= ""rock_img/I_Pegmatite_12.jpg"" style=""width:8cm; height:5.7cm;""><p>What type of rock is this?</p>","5","class_response","1","train","18","Pegmatite","Pegmatite","12","true","6","6","",""
"","","","","","","","","","","","html-button-response","140","2.0.0","421096","67322550bd5dfa0cd2958366","2","52","3112","","","","","","","","","<img src= rock_img/I_Pegmatite_12.jpg style=""width:8cm; height:5.7cm;""><p style='font-size: 30px; color: green;'><strong>Correct!</strong></p><p style='font-size: 30px;'><strong>This rock is pegmatite</strong></p>","0","corr_feedback","1","train","18","","","","","","","",""
"","","","","","","","","","","","html-button-response","141","2.0.0","422851","67322550bd5dfa0cd2958366","2","52","1753","","","","","","","","","<img src= ""rock_img/I_Peridotite_16.jpg"" style=""width:8cm; height:6.989999999999999cm;""><p>What type of rock is this?</p>","6","class_response","1","train","19","Peridotite","Peridotite","16","true","7","7","",""
"","","","","","","","","","","","html-button-response","142","2.0.0","437306","67322550bd5dfa0cd2958366","2","52","14453","","","","","","","","","<img src= rock_img/I_Peridotite_16.jpg style=""width:8cm; height:6.989999999999999cm;""><p style='font-size: 30px; color: green;'><strong>Correct!</strong></p><p style='font-size: 30px;'><strong>This rock is peridotite</strong></p>","0","corr_feedback","1","train","19","","","","","","","",""
"","","","","","","","","","","","html-button-response","143","2.0.0","438793","67322550bd5dfa0cd2958366","2","52","1486","","","","","","","","","<img src= ""rock_img/I_Pegmatite_03.jpg"" style=""width:8cm; height:5.239999999999999cm;""><p>What type of rock is this?</p>","5","class_response","1","train","20","Pegmatite","Pegmatite","03","true","6","6","",""
"","","","","","","","","","","","html-button-response","144","2.0.0","442989","67322550bd5dfa0cd2958366","2","52","4194","","","","","","","","","<img src= rock_img/I_Pegmatite_03.jpg style=""width:8cm; height:5.239999999999999cm;""><p style='font-size: 30px; color: green;'><strong>Correct!</strong></p><p style='font-size: 30px;'><strong>This rock is pegmatite</strong></p>","0","corr_feedback","1","train","20","","","","","","","",""
"","","","","","","","","","","","html-button-response","145","2.0.0","446710","67322550bd5dfa0cd2958366","2","52","3719","","","","","","","","","<img src= ""rock_img/I_Peridotite_12.jpg"" style=""width:8cm; height:4.54cm;""><p>What type of rock is this?</p>","6","class_response","1","train","21","Peridotite","Peridotite","12","true","7","7","",""
"","","","","","","","","","","","html-button-response","146","2.0.0","447761","67322550bd5dfa0cd2958366","2","52","1049","","","","","","","","","<img src= rock_img/I_Peridotite_12.jpg style=""width:8cm; height:4.54cm;""><p style='font-size: 30px; color: green;'><strong>Correct!</strong></p><p style='font-size: 30px;'><strong>This rock is peridotite</strong></p>","0","corr_feedback","1","train","21","","","","","","","",""
"","","","","","","","","","","","html-button-response","147","2.0.0","450211","67322550bd5dfa0cd2958366","2","52","2449","","","","","","","","","<img src= ""rock_img/I_Andesite_07.jpg"" style=""width:8cm; height:5.93cm;""><p>What type of rock is this?</p>","0","class_response","1","train","22","Andesite","Andesite","07","true","1","1","",""
"","","","","","","","","","","","html-button-response","148","2.0.0","451244","67322550bd5dfa0cd2958366","2","52","1031","","","","","","","","","<img src= rock_img/I_Andesite_07.jpg style=""width:8cm; height:5.93cm;""><p style='font-size: 30px; color: green;'><strong>Correct!</strong></p><p style='font-size: 30px;'><strong>This rock is andesite</strong></p>","0","corr_feedback","1","train","22","","","","","","","",""
"","","","","","","","","","","","html-button-response","149","2.0.0","452653","67322550bd5dfa0cd2958366","2","52","1408","","","","","","","","","<img src= ""rock_img/I_Peridotite_06.jpg"" style=""width:8cm; height:7.53cm;""><p>What type of rock is this?</p>","5","class_response","1","train","23","Pegmatite","Peridotite","06","false","6","7","",""
"","","","","","","","","","","","html-button-response","150","2.0.0","453898","67322550bd5dfa0cd2958366","2","52","1244","","","","","","","","","<img src= rock_img/I_Peridotite_06.jpg style=""width:8cm; height:7.53cm;""><p style='font-size: 30px; color: red;'><strong>Incorrect!</strong></p><p style='font-size: 30px;'><strong>This rock is peridotite</strong></p>","0","corr_feedback","1","train","23","","","","","","","",""
"","","","","","","","","","","","html-button-response","151","2.0.0","455306","67322550bd5dfa0cd2958366","2","52","1406","","","","","","","","","<img src= ""rock_img/I_Pegmatite_13.jpg"" style=""width:8cm; height:4.95cm;""><p>What type of rock is this?</p>","5","class_response","1","train","24","Pegmatite","Pegmatite","13","true","6","6","",""
"","","","","","","","","","","","html-button-response","152","2.0.0","456349","67322550bd5dfa0cd2958366","2","52","1042","","","","","","","","","<img src= rock_img/I_Pegmatite_13.jpg style=""width:8cm; height:4.95cm;""><p style='font-size: 30px; color: green;'><strong>Correct!</strong></p><p style='font-size: 30px;'><strong>This rock is pegmatite</strong></p>","0","corr_feedback","1","train","24","","","","","","","",""
"","","","","","","","","","","","html-button-response","153","2.0.0","458509","67322550bd5dfa0cd2958366","2","52","2158","","","","","","","","","<img src= ""rock_img/I_Pegmatite_09.jpg"" style=""width:8cm; height:4.03cm;""><p>What type of rock is this?</p>","5","class_response","1","train","25","Pegmatite","Pegmatite","09","true","6","6","",""
"","","","","","","","","","","","html-button-response","154","2.0.0","459422","67322550bd5dfa0cd2958366","2","52","912","","","","","","","","","<img src= rock_img/I_Pegmatite_09.jpg style=""width:8cm; height:4.03cm;""><p style='font-size: 30px; color: green;'><strong>Correct!</strong></p><p style='font-size: 30px;'><strong>This rock is pegmatite</strong></p>","0","corr_feedback","1","train","25","","","","","","","",""
"","","","","","","","","","","","html-button-response","155","2.0.0","464605","67322550bd5dfa0cd2958366","2","52","5181","","","","","","","","","<img src= ""rock_img/I_Peridotite_16.jpg"" style=""width:8cm; height:6.989999999999999cm;""><p>What type of rock is this?</p>","6","class_response","1","train","26","Peridotite","Peridotite","16","true","7","7","",""
"","","","","","","","","","","","html-button-response","156","2.0.0","465566","67322550bd5dfa0cd2958366","2","52","960","","","","","","","","","<img src= rock_img/I_Peridotite_16.jpg style=""width:8cm; height:6.989999999999999cm;""><p style='font-size: 30px; color: green;'><strong>Correct!</strong></p><p style='font-size: 30px;'><strong>This rock is peridotite</strong></p>","0","corr_feedback","1","train","26","","","","","","","",""
"","","","","","","","","","","","html-button-response","157","2.0.0","466893","67322550bd5dfa0cd2958366","2","52","1324","","","","","","","","","<img src= ""rock_img/I_Pegmatite_07.jpg"" style=""width:8cm; height:6.7cm;""><p>What type of rock is this?</p>","5","class_response","1","train","27","Pegmatite","Pegmatite","07","true","6","6","",""
"","","","","","","","","","","","html-button-response","158","2.0.0","467814","67322550bd5dfa0cd2958366","2","52","919","","","","","","","","","<img src= rock_img/I_Pegmatite_07.jpg style=""width:8cm; height:6.7cm;""><p style='font-size: 30px; color: green;'><strong>Correct!</strong></p><p style='font-size: 30px;'><strong>This rock is pegmatite</strong></p>","0","corr_feedback","1","train","27","","","","","","","",""
"","","","","","","","","","","","html-button-response","159","2.0.0","469813","67322550bd5dfa0cd2958366","2","52","1997","","","","","","","","","<img src= ""rock_img/I_Gabbro_12.jpg"" style=""width:8cm; height:7.800000000000001cm;""><p>What type of rock is this?</p>","2","class_response","1","train","28","Diorite","Gabbro","12","false","3","4","",""
"","","","","","","","","","","","html-button-response","160","2.0.0","470749","67322550bd5dfa0cd2958366","2","52","934","","","","","","","","","<img src= rock_img/I_Gabbro_12.jpg style=""width:8cm; height:7.800000000000001cm;""><p style='font-size: 30px; color: red;'><strong>Incorrect!</strong></p><p style='font-size: 30px;'><strong>This rock is gabbro</strong></p>","0","corr_feedback","1","train","28","","","","","","","",""
"","","","","","","","","","","","html-button-response","161","2.0.0","472610","67322550bd5dfa0cd2958366","2","52","1861","","","","","","","","","<img src= ""rock_img/I_Diorite_15.jpg"" style=""width:8cm; height:5.54cm;""><p>What type of rock is this?</p>","0","class_response","1","train","29","Andesite","Diorite","15","false","1","3","",""
"","","","","","","","","","","","html-button-response","162","2.0.0","473629","67322550bd5dfa0cd2958366","2","52","1017","","","","","","","","","<img src= rock_img/I_Diorite_15.jpg style=""width:8cm; height:5.54cm;""><p style='font-size: 30px; color: red;'><strong>Incorrect!</strong></p><p style='font-size: 30px;'><strong>This rock is diorite</strong></p>","0","corr_feedback","1","train","29","","","","","","","",""
"","","","","","","","","","","","html-button-response","163","2.0.0","474705","67322550bd5dfa0cd2958366","2","52","1075","","","","","","","","","<img src= ""rock_img/I_Basalt_09.jpg"" style=""width:8cm; height:6.2cm;""><p>What type of rock is this?</p>","1","class_response","1","train","30","Basalt","Basalt","09","true","2","2","",""
"","","","","","","","","","","","html-button-response","164","2.0.0","475593","67322550bd5dfa0cd2958366","2","52","886","","","","","","","","","<img src= rock_img/I_Basalt_09.jpg style=""width:8cm; height:6.2cm;""><p style='font-size: 30px; color: green;'><strong>Correct!</strong></p><p style='font-size: 30px;'><strong>This rock is basalt</strong></p>","0","corr_feedback","1","train","30","","","","","","","",""
"","","","","","","","","","","","html-button-response","165","2.0.0","478301","67322550bd5dfa0cd2958366","2","52","2706","","","","","","","","","<img src= ""rock_img/I_Andesite_05.jpg"" style=""width:8cm; height:4.12cm;""><p>What type of rock is this?</p>","2","class_response","1","train","31","Diorite","Andesite","05","false","3","1","",""
"","","","","","","","","","","","html-button-response","166","2.0.0","479193","67322550bd5dfa0cd2958366","2","52","891","","","","","","","","","<img src= rock_img/I_Andesite_05.jpg style=""width:8cm; height:4.12cm;""><p style='font-size: 30px; color: red;'><strong>Incorrect!</strong></p><p style='font-size: 30px;'><strong>This rock is andesite</strong></p>","0","corr_feedback","1","train","31","","","","","","","",""
"","","","","","","","","","","","html-button-response","167","2.0.0","486695","67322550bd5dfa0cd2958366","2","52","7500","","","","","","","","","<img src= ""rock_img/I_Peridotite_10.jpg"" style=""width:8cm; height:5.390000000000001cm;""><p>What type of rock is this?</p>","6","class_response","1","train","32","Peridotite","Peridotite","10","true","7","7","",""
"","","","","","","","","","","","html-button-response","168","2.0.0","487681","67322550bd5dfa0cd2958366","2","52","985","","","","","","","","","<img src= rock_img/I_Peridotite_10.jpg style=""width:8cm; height:5.390000000000001cm;""><p style='font-size: 30px; color: green;'><strong>Correct!</strong></p><p style='font-size: 30px;'><strong>This rock is peridotite</strong></p>","0","corr_feedback","1","train","32","","","","","","","",""
"","","","","","","","","","","","html-button-response","169","2.0.0","491199","67322550bd5dfa0cd2958366","2","52","3516","","","","","","","","","<img src= ""rock_img/I_Diorite_15.jpg"" style=""width:8cm; height:5.54cm;""><p>What type of rock is this?</p>","2","class_response","1","train","33","Diorite","Diorite","15","true","3","3","",""
"","","","","","","","","","","","html-button-response","170","2.0.0","492282","67322550bd5dfa0cd2958366","2","52","1081","","","","","","","","","<img src= rock_img/I_Diorite_15.jpg style=""width:8cm; height:5.54cm;""><p style='font-size: 30px; color: green;'><strong>Correct!</strong></p><p style='font-size: 30px;'><strong>This rock is diorite</strong></p>","0","corr_feedback","1","train","33","","","","","","","",""
"","","","","","","","","","","","html-button-response","171","2.0.0","503444","67322550bd5dfa0cd2958366","2","52","11160","","","","","","","","","<img src= ""rock_img/I_Andesite_06.jpg"" style=""width:8cm; height:6.840000000000001cm;""><p>What type of rock is this?</p>","0","class_response","1","train","34","Andesite","Andesite","06","true","1","1","",""
"","","","","","","","","","","","html-button-response","172","2.0.0","504397","67322550bd5dfa0cd2958366","2","52","952","","","","","","","","","<img src= rock_img/I_Andesite_06.jpg style=""width:8cm; height:6.840000000000001cm;""><p style='font-size: 30px; color: green;'><strong>Correct!</strong></p><p style='font-size: 30px;'><strong>This rock is andesite</strong></p>","0","corr_feedback","1","train","34","","","","","","","",""
"","","","","","","","","","","","html-button-response","173","2.0.0","507761","67322550bd5dfa0cd2958366","2","52","3362","","","","","","","","","<img src= ""rock_img/I_Gabbro_15.jpg"" style=""width:8cm; height:6.29cm;""><p>What type of rock is this?</p>","3","class_response","1","train","35","Gabbro","Gabbro","15","true","4","4","",""
"","","","","","","","","","","","html-button-response","174","2.0.0","508780","67322550bd5dfa0cd2958366","2","52","1018","","","","","","","","","<img src= rock_img/I_Gabbro_15.jpg style=""width:8cm; height:6.29cm;""><p style='font-size: 30px; color: green;'><strong>Correct!</strong></p><p style='font-size: 30px;'><strong>This rock is gabbro</strong></p>","0","corr_feedback","1","train","35","","","","","","","",""
"","","","","","","","","","","","html-button-response","175","2.0.0","510091","67322550bd5dfa0cd2958366","2","52","1309","","","","","","","","","<img src= ""rock_img/I_Pegmatite_09.jpg"" style=""width:8cm; height:4.03cm;""><p>What type of rock is this?</p>","5","class_response","1","train","36","Pegmatite","Pegmatite","09","true","6","6","",""
"","","","","","","","","","","","html-button-response","176","2.0.0","510947","67322550bd5dfa0cd2958366","2","52","854","","","","","","","","","<img src= rock_img/I_Pegmatite_09.jpg style=""width:8cm; height:4.03cm;""><p style='font-size: 30px; color: green;'><strong>Correct!</strong></p><p style='font-size: 30px;'><strong>This rock is pegmatite</strong></p>","0","corr_feedback","1","train","36","","","","","","","",""
"","","","","","","","","","","","html-button-response","177","2.0.0","512192","67322550bd5dfa0cd2958366","2","52","1244","","","","","","","","","<img src= ""rock_img/I_Gabbro_11.jpg"" style=""width:8cm; height:6.2cm;""><p>What type of rock is this?</p>","1","class_response","1","train","37","Basalt","Gabbro","11","false","2","4","",""
"","","","","","","","","","","","html-button-response","178","2.0.0","513155","67322550bd5dfa0cd2958366","2","52","961","","","","","","","","","<img src= rock_img/I_Gabbro_11.jpg style=""width:8cm; height:6.2cm;""><p style='font-size: 30px; color: red;'><strong>Incorrect!</strong></p><p style='font-size: 30px;'><strong>This rock is gabbro</strong></p>","0","corr_feedback","1","train","37","","","","","","","",""
"","","","","","","","","","","","html-button-response","179","2.0.0","514660","67322550bd5dfa0cd2958366","2","52","1502","","","","","","","","","<img src= ""rock_img/I_Gabbro_13.jpg"" style=""width:8cm; height:5.08cm;""><p>What type of rock is this?</p>","2","class_response","1","train","38","Diorite","Gabbro","13","false","3","4","",""
"","","","","","","","","","","","html-button-response","180","2.0.0","515557","67322550bd5dfa0cd2958366","2","52","895","","","","","","","","","<img src= rock_img/I_Gabbro_13.jpg style=""width:8cm; height:5.08cm;""><p style='font-size: 30px; color: red;'><strong>Incorrect!</strong></p><p style='font-size: 30px;'><strong>This rock is gabbro</strong></p>","0","corr_feedback","1","train","38","","","","","","","",""
"","","","","","","","","","","","html-button-response","181","2.0.0","517991","67322550bd5dfa0cd2958366","2","52","2432","","","","","","","","","<img src= ""rock_img/I_Diorite_06.jpg"" style=""width:8cm; height:6.03cm;""><p>What type of rock is this?</p>","2","class_response","1","train","39","Diorite","Diorite","06","true","3","3","",""
"","","","","","","","","","","","html-button-response","182","2.0.0","518928","67322550bd5dfa0cd2958366","2","52","936","","","","","","","","","<img src= rock_img/I_Diorite_06.jpg style=""width:8cm; height:6.03cm;""><p style='font-size: 30px; color: green;'><strong>Correct!</strong></p><p style='font-size: 30px;'><strong>This rock is diorite</strong></p>","0","corr_feedback","1","train","39","","","","","","","",""
"","","","","","","","","","","","html-button-response","183","2.0.0","520378","67322550bd5dfa0cd2958366","2","52","1448","","","","","","","","","<img src= ""rock_img/I_Pegmatite_11.jpg"" style=""width:8cm; height:8.14cm;""><p>What type of rock is this?</p>","5","class_response","1","train","40","Pegmatite","Pegmatite","11","true","6","6","",""
"","","","","","","","","","","","html-button-response","184","2.0.0","530768","67322550bd5dfa0cd2958366","2","52","10388","","","","","","","","","<img src= rock_img/I_Pegmatite_11.jpg style=""width:8cm; height:8.14cm;""><p style='font-size: 30px; color: green;'><strong>Correct!</strong></p><p style='font-size: 30px;'><strong>This rock is pegmatite</strong></p>","0","corr_feedback","1","train","40","","","","","","","",""
"","","","","","","","","","","","html-button-response","185","2.0.0","533316","67322550bd5dfa0cd2958366","2","52","2546","","","","","","","","","<img src= ""rock_img/I_Gabbro_01.jpg"" style=""width:8cm; height:5.21cm;""><p>What type of rock is this?</p>","2","class_response","1","train","41","Diorite","Gabbro","01","false","3","4","",""
"","","","","","","","","","","","html-button-response","186","2.0.0","534227","67322550bd5dfa0cd2958366","2","52","910","","","","","","","","","<img src= rock_img/I_Gabbro_01.jpg style=""width:8cm; height:5.21cm;""><p style='font-size: 30px; color: red;'><strong>Incorrect!</strong></p><p style='font-size: 30px;'><strong>This rock is gabbro</strong></p>","0","corr_feedback","1","train","41","","","","","","","",""
"","","","","","","","","","","","html-button-response","187","2.0.0","535450","67322550bd5dfa0cd2958366","2","52","1222","","","","","","","","","<img src= ""rock_img/I_Diorite_02.jpg"" style=""width:8cm; height:6.27cm;""><p>What type of rock is this?</p>","2","class_response","1","train","42","Diorite","Diorite","02","true","3","3","",""
"","","","","","","","","","","","html-button-response","188","2.0.0","536435","67322550bd5dfa0cd2958366","2","52","983","","","","","","","","","<img src= rock_img/I_Diorite_02.jpg style=""width:8cm; height:6.27cm;""><p style='font-size: 30px; color: green;'><strong>Correct!</strong></p><p style='font-size: 30px;'><strong>This rock is diorite</strong></p>","0","corr_feedback","1","train","42","","","","","","","",""
"","","","","","","","","","","","html-button-response","189","2.0.0","538338","67322550bd5dfa0cd2958366","2","52","1901","","","","","","","","","<img src= ""rock_img/I_Andesite_01.jpg"" style=""width:8cm; height:5.87cm;""><p>What type of rock is this?</p>","3","class_response","1","train","43","Gabbro","Andesite","01","false","4","1","",""
"","","","","","","","","","","","html-button-response","190","2.0.0","539704","67322550bd5dfa0cd2958366","2","52","1364","","","","","","","","","<img src= rock_img/I_Andesite_01.jpg style=""width:8cm; height:5.87cm;""><p style='font-size: 30px; color: red;'><strong>Incorrect!</strong></p><p style='font-size: 30px;'><strong>This rock is andesite</strong></p>","0","corr_feedback","1","train","43","","","","","","","",""
"","","","","","","","","","","","html-button-response","191","2.0.0","542551","67322550bd5dfa0cd2958366","2","52","2846","","","","","","","","","<img src= ""rock_img/I_Andesite_14.jpg"" style=""width:8cm; height:5.449999999999999cm;""><p>What type of rock is this?</p>","2","class_response","1","train","44","Diorite","Andesite","14","false","3","1","",""
"","","","","","","","","","","","html-button-response","192","2.0.0","543383","67322550bd5dfa0cd2958366","2","52","830","","","","","","","","","<img src= rock_img/I_Andesite_14.jpg style=""width:8cm; height:5.449999999999999cm;""><p style='font-size: 30px; color: red;'><strong>Incorrect!</strong></p><p style='font-size: 30px;'><strong>This rock is andesite</strong></p>","0","corr_feedback","1","train","44","","","","","","","",""
"","","","","","","","","","","","html-button-response","193","2.0.0","544540","67322550bd5dfa0cd2958366","2","52","1156","","","","","","","","","<img src= ""rock_img/I_Pegmatite_07.jpg"" style=""width:8cm; height:6.7cm;""><p>What type of rock is this?</p>","5","class_response","1","train","45","Pegmatite","Pegmatite","07","true","6","6","",""
"","","","","","","","","","","","html-button-response","194","2.0.0","545793","67322550bd5dfa0cd2958366","2","52","1251","","","","","","","","","<img src= rock_img/I_Pegmatite_07.jpg style=""width:8cm; height:6.7cm;""><p style='font-size: 30px; color: green;'><strong>Correct!</strong></p><p style='font-size: 30px;'><strong>This rock is pegmatite</strong></p>","0","corr_feedback","1","train","45","","","","","","","",""
"","","","","","","","","","","","html-button-response","195","2.0.0","547038","67322550bd5dfa0cd2958366","2","52","1244","","","","","","","","","<img src= ""rock_img/I_Diorite_10.jpg"" style=""width:8cm; height:5.949999999999999cm;""><p>What type of rock is this?</p>","0","class_response","1","train","46","Andesite","Diorite","10","false","1","3","",""
"","","","","","","","","","","","html-button-response","196","2.0.0","547984","67322550bd5dfa0cd2958366","2","52","944","","","","","","","","","<img src= rock_img/I_Diorite_10.jpg style=""width:8cm; height:5.949999999999999cm;""><p style='font-size: 30px; color: red;'><strong>Incorrect!</strong></p><p style='font-size: 30px;'><strong>This rock is diorite</strong></p>","0","corr_feedback","1","train","46","","","","","","","",""
"","","","","","","","","","","","html-button-response","197","2.0.0","549310","67322550bd5dfa0cd2958366","2","52","1324","","","","","","","","","<img src= ""rock_img/I_Diorite_12.jpg"" style=""width:8cm; height:4.88cm;""><p>What type of rock is this?</p>","2","class_response","1","train","47","Diorite","Diorite","12","true","3","3","",""
"","","","","","","","","","","","html-button-response","198","2.0.0","550184","67322550bd5dfa0cd2958366","2","52","872","","","","","","","","","<img src= rock_img/I_Diorite_12.jpg style=""width:8cm; height:4.88cm;""><p style='font-size: 30px; color: green;'><strong>Correct!</strong></p><p style='font-size: 30px;'><strong>This rock is diorite</strong></p>","0","corr_feedback","1","train","47","","","","","","","",""
"","","","","","","","","","","","html-button-response","199","2.0.0","551559","67322550bd5dfa0cd2958366","2","52","1373","","","","","","","","","<img src= ""rock_img/I_Obsidian_12.jpg"" style=""width:8cm; height:6.53cm;""><p>What type of rock is this?</p>","4","class_response","1","train","48","Obsidian","Obsidian","12","true","5","5","",""
"","","","","","","","","","","","html-button-response","200","2.0.0","552488","67322550bd5dfa0cd2958366","2","52","928","","","","","","","","","<img src= rock_img/I_Obsidian_12.jpg style=""width:8cm; height:6.53cm;""><p style='font-size: 30px; color: green;'><strong>Correct!</strong></p><p style='font-size: 30px;'><strong>This rock is obsidian</strong></p>","0","corr_feedback","1","train","48","","","","","","","",""
"","","","","","","","","","","","instructions","203","2.0.0","581632","67322550bd5dfa0cd2958366","2","52","29142","","","","","","","","[{""page_index"":0,""viewing_time"":15445},{""page_index"":1,""viewing_time"":13697}]","","","","","","","","","","","","","",""
"","","","","","","","","","","","html-button-response","204","2.0.0","583199","67322550bd5dfa0cd2958366","2","52","1565","","","","","","","","","","0","start_test","","","","","","","","","","",""
"","","","","","","","","","","","html-button-response","205","2.0.0","584793","67322550bd5dfa0cd2958366","2","52","1593","","","","","","","","","<img src= ""rock_img/I_Basalt_01.jpg"" style=""width:8cm; height:7.880000000000001cm;""><p>What type of rock is this?</p>","1","class_response","1","test","1","Basalt","Basalt","01","true","2","2","",""
"","","","","","","","","","","","html-keyboard-response","206","2.0.0","585295","67322550bd5dfa0cd2958366","2","52","null","","","","","","","","","<p style='font-size: 30px;'><strong>Okay</strong></p>","null","neutral_feedback","1","test","1","","","","","","","",""
"","","","","","","","","","","","html-button-response","207","2.0.0","587559","67322550bd5dfa0cd2958366","2","52","2261","","","","","","","","","<img src= ""rock_img/I_Pumice_10.jpg"" style=""width:8cm; height:7.609999999999999cm;""><p>What type of rock is this?</p>","7","class_response","1","test","2","Pumice","Pumice","10","true","8","8","",""
"","","","","","","","","","","","html-keyboard-response","208","2.0.0","588060","67322550bd5dfa0cd2958366","2","52","null","","","","","","","","","<p style='font-size: 30px;'><strong>Okay</strong></p>","null","neutral_feedback","1","test","2","","","","","","","",""
"","","","","","","","","","","","html-button-response","209","2.0.0","589426","67322550bd5dfa0cd2958366","2","52","1364","","","","","","","","","<img src= ""rock_img/I_Peridotite_14.jpg"" style=""width:8cm; height:5.3cm;""><p>What type of rock is this?</p>","6","class_response","1","test","3","Peridotite","Peridotite","14","true","7","7","",""
"","","","","","","","","","","","html-keyboard-response","210","2.0.0","589928","67322550bd5dfa0cd2958366","2","52","null","","","","","","","","","<p style='font-size: 30px;'><strong>Okay</strong></p>","null","neutral_feedback","1","test","3","","","","","","","",""
"","","","","","","","","","","","html-button-response","211","2.0.0","591091","67322550bd5dfa0cd2958366","2","52","1161","","","","","","","","","<img src= ""rock_img/I_Pumice_08.jpg"" style=""width:8cm; height:6.67cm;""><p>What type of rock is this?</p>","7","class_response","1","test","4","Pumice","Pumice","08","true","8","8","",""
"","","","","","","","","","","","html-keyboard-response","212","2.0.0","591594","67322550bd5dfa0cd2958366","2","52","null","","","","","","","","","<p style='font-size: 30px;'><strong>Okay</strong></p>","null","neutral_feedback","1","test","4","","","","","","","",""
"","","","","","","","","","","","html-button-response","213","2.0.0","593001","67322550bd5dfa0cd2958366","2","52","1405","","","","","","","","","<img src= ""rock_img/I_Pegmatite_16.jpg"" style=""width:8cm; height:5.8cm;""><p>What type of rock is this?</p>","5","class_response","1","test","5","Pegmatite","Pegmatite","16","true","6","6","",""
"","","","","","","","","","","","html-keyboard-response","214","2.0.0","593502","67322550bd5dfa0cd2958366","2","52","null","","","","","","","","","<p style='font-size: 30px;'><strong>Okay</strong></p>","null","neutral_feedback","1","test","5","","","","","","","",""
"","","","","","","","","","","","html-button-response","215","2.0.0","596575","67322550bd5dfa0cd2958366","2","52","3070","","","","","","","","","<img src= ""rock_img/I_Andesite_02.jpg"" style=""width:8cm; height:8.5cm;""><p>What type of rock is this?</p>","2","class_response","1","test","6","Diorite","Andesite","02","false","3","1","",""
"","","","","","","","","","","","html-keyboard-response","216","2.0.0","597076","67322550bd5dfa0cd2958366","2","52","null","","","","","","","","","<p style='font-size: 30px;'><strong>Okay</strong></p>","null","neutral_feedback","1","test","6","","","","","","","",""
"","","","","","","","","","","","html-button-response","217","2.0.0","598895","67322550bd5dfa0cd2958366","2","52","1817","","","","","","","","","<img src= ""rock_img/I_Pegmatite_05.jpg"" style=""width:8cm; height:7.300000000000001cm;""><p>What type of rock is this?</p>","5","class_response","1","test","7","Pegmatite","Pegmatite","05","true","6","6","",""
"","","","","","","","","","","","html-keyboard-response","218","2.0.0","599397","67322550bd5dfa0cd2958366","2","52","null","","","","","","","","","<p style='font-size: 30px;'><strong>Okay</strong></p>","null","neutral_feedback","1","test","7","","","","","","","",""
"","","","","","","","","","","","html-button-response","219","2.0.0","602478","67322550bd5dfa0cd2958366","2","52","3079","","","","","","","","","<img src= ""rock_img/I_Obsidian_14.jpg"" style=""width:8cm; height:7.64cm;""><p>What type of rock is this?</p>","4","class_response","1","test","8","Obsidian","Obsidian","14","true","5","5","",""
"","","","","","","","","","","","html-keyboard-response","220","2.0.0","602979","67322550bd5dfa0cd2958366","2","52","null","","","","","","","","","<p style='font-size: 30px;'><strong>Okay</strong></p>","null","neutral_feedback","1","test","8","","","","","","","",""
"","","","","","","","","","","","html-button-response","221","2.0.0","605041","67322550bd5dfa0cd2958366","2","52","2061","","","","","","","","","<img src= ""rock_img/I_Peridotite_02.jpg"" style=""width:8cm; height:5.859999999999999cm;""><p>What type of rock is this?</p>","6","class_response","1","test","9","Peridotite","Peridotite","02","true","7","7","",""
"","","","","","","","","","","","html-keyboard-response","222","2.0.0","605544","67322550bd5dfa0cd2958366","2","52","null","","","","","","","","","<p style='font-size: 30px;'><strong>Okay</strong></p>","null","neutral_feedback","1","test","9","","","","","","","",""
"","","","","","","","","","","","html-button-response","223","2.0.0","607895","67322550bd5dfa0cd2958366","2","52","2350","","","","","","","","","<img src= ""rock_img/I_Peridotite_05.jpg"" style=""width:8cm; height:7.1499999999999995cm;""><p>What type of rock is this?</p>","6","class_response","1","test","10","Peridotite","Peridotite","05","true","7","7","",""
"","","","","","","","","","","","html-keyboard-response","224","2.0.0","608397","67322550bd5dfa0cd2958366","2","52","null","","","","","","","","","<p style='font-size: 30px;'><strong>Okay</strong></p>","null","neutral_feedback","1","test","10","","","","","","","",""
"","","","","","","","","","","","html-button-response","225","2.0.0","610160","67322550bd5dfa0cd2958366","2","52","1761","","","","","","","","","<img src= ""rock_img/I_Gabbro_14.jpg"" style=""width:8cm; height:8.48cm;""><p>What type of rock is this?</p>","2","class_response","1","test","11","Diorite","Gabbro","14","false","3","4","",""
"","","","","","","","","","","","html-keyboard-response","226","2.0.0","610662","67322550bd5dfa0cd2958366","2","52","null","","","","","","","","","<p style='font-size: 30px;'><strong>Okay</strong></p>","null","neutral_feedback","1","test","11","","","","","","","",""
"","","","","","","","","","","","html-button-response","227","2.0.0","613782","67322550bd5dfa0cd2958366","2","52","3118","","","","","","","","","<img src= ""rock_img/I_Gabbro_03.jpg"" style=""width:8cm; height:8.52cm;""><p>What type of rock is this?</p>","2","class_response","1","test","12","Diorite","Gabbro","03","false","3","4","",""
"","","","","","","","","","","","html-keyboard-response","228","2.0.0","614284","67322550bd5dfa0cd2958366","2","52","null","","","","","","","","","<p style='font-size: 30px;'><strong>Okay</strong></p>","null","neutral_feedback","1","test","12","","","","","","","",""
"","","","","","","","","","","","html-button-response","229","2.0.0","615367","67322550bd5dfa0cd2958366","2","52","1082","","","","","","","","","<img src= ""rock_img/I_Andesite_16.jpg"" style=""width:8cm; height:6.010000000000001cm;""><p>What type of rock is this?</p>","0","class_response","1","test","13","Andesite","Andesite","16","true","1","1","",""
"","","","","","","","","","","","html-keyboard-response","230","2.0.0","615869","67322550bd5dfa0cd2958366","2","52","null","","","","","","","","","<p style='font-size: 30px;'><strong>Okay</strong></p>","null","neutral_feedback","1","test","13","","","","","","","",""
"","","","","","","","","","","","html-button-response","231","2.0.0","617122","67322550bd5dfa0cd2958366","2","52","1251","","","","","","","","","<img src= ""rock_img/I_Peridotite_07.jpg"" style=""width:8cm; height:4.83cm;""><p>What type of rock is this?</p>","0","class_response","1","test","14","Andesite","Peridotite","07","false","1","7","",""
"","","","","","","","","","","","html-keyboard-response","232","2.0.0","617623","67322550bd5dfa0cd2958366","2","52","null","","","","","","","","","<p style='font-size: 30px;'><strong>Okay</strong></p>","null","neutral_feedback","1","test","14","","","","","","","",""
"","","","","","","","","","","","html-button-response","233","2.0.0","618860","67322550bd5dfa0cd2958366","2","52","1235","","","","","","","","","<img src= ""rock_img/I_Pegmatite_08.jpg"" style=""width:8cm; height:7.68cm;""><p>What type of rock is this?</p>","5","class_response","1","test","15","Pegmatite","Pegmatite","08","true","6","6","",""
"","","","","","","","","","","","html-keyboard-response","234","2.0.0","619362","67322550bd5dfa0cd2958366","2","52","null","","","","","","","","","<p style='font-size: 30px;'><strong>Okay</strong></p>","null","neutral_feedback","1","test","15","","","","","","","",""
"","","","","","","","","","","","html-button-response","235","2.0.0","621836","67322550bd5dfa0cd2958366","2","52","2472","","","","","","","","","<img src= ""rock_img/I_Basalt_11.jpg"" style=""width:8cm; height:5.359999999999999cm;""><p>What type of rock is this?</p>","3","class_response","1","test","16","Gabbro","Basalt","11","false","4","2","",""
"","","","","","","","","","","","html-keyboard-response","236","2.0.0","622338","67322550bd5dfa0cd2958366","2","52","null","","","","","","","","","<p style='font-size: 30px;'><strong>Okay</strong></p>","null","neutral_feedback","1","test","16","","","","","","","",""
"","","","","","","","","","","","html-button-response","237","2.0.0","623413","67322550bd5dfa0cd2958366","2","52","1073","","","","","","","","","<img src= ""rock_img/I_Peridotite_15.jpg"" style=""width:8cm; height:6cm;""><p>What type of rock is this?</p>","6","class_response","1","test","17","Peridotite","Peridotite","15","true","7","7","",""
"","","","","","","","","","","","html-keyboard-response","238","2.0.0","623914","67322550bd5dfa0cd2958366","2","52","null","","","","","","","","","<p style='font-size: 30px;'><strong>Okay</strong></p>","null","neutral_feedback","1","test","17","","","","","","","",""
"","","","","","","","","","","","html-button-response","239","2.0.0","625046","67322550bd5dfa0cd2958366","2","52","1130","","","","","","","","","<img src= ""rock_img/I_Basalt_06.jpg"" style=""width:8cm; height:7.06cm;""><p>What type of rock is this?</p>","1","class_response","1","test","18","Basalt","Basalt","06","true","2","2","",""
"","","","","","","","","","","","html-keyboard-response","240","2.0.0","625549","67322550bd5dfa0cd2958366","2","52","null","","","","","","","","","<p style='font-size: 30px;'><strong>Okay</strong></p>","null","neutral_feedback","1","test","18","","","","","","","",""
"","","","","","","","","","","","html-button-response","241","2.0.0","626656","67322550bd5dfa0cd2958366","2","52","1105","","","","","","","","","<img src= ""rock_img/I_Pegmatite_15.jpg"" style=""width:8cm; height:6cm;""><p>What type of rock is this?</p>","5","class_response","1","test","19","Pegmatite","Pegmatite","15","true","6","6","",""
"","","","","","","","","","","","html-keyboard-response","242","2.0.0","627157","67322550bd5dfa0cd2958366","2","52","null","","","","","","","","","<p style='font-size: 30px;'><strong>Okay</strong></p>","null","neutral_feedback","1","test","19","","","","","","","",""
"","","","","","","","","","","","html-button-response","243","2.0.0","629211","67322550bd5dfa0cd2958366","2","52","2051","","","","","","","","","<img src= ""rock_img/I_Basalt_12.jpg"" style=""width:8cm; height:6.010000000000001cm;""><p>What type of rock is this?</p>","1","class_response","1","test","20","Basalt","Basalt","12","true","2","2","",""
"","","","","","","","","","","","html-keyboard-response","244","2.0.0","629712","67322550bd5dfa0cd2958366","2","52","null","","","","","","","","","<p style='font-size: 30px;'><strong>Okay</strong></p>","null","neutral_feedback","1","test","20","","","","","","","",""
"","","","","","","","","","","","html-button-response","245","2.0.0","632308","67322550bd5dfa0cd2958366","2","52","2594","","","","","","","","","<img src= ""rock_img/I_Gabbro_16.jpg"" style=""width:8cm; height:6.44cm;""><p>What type of rock is this?</p>","3","class_response","1","test","21","Gabbro","Gabbro","16","true","4","4","",""
"","","","","","","","","","","","html-keyboard-response","246","2.0.0","632810","67322550bd5dfa0cd2958366","2","52","null","","","","","","","","","<p style='font-size: 30px;'><strong>Okay</strong></p>","null","neutral_feedback","1","test","21","","","","","","","",""
"","","","","","","","","","","","html-button-response","247","2.0.0","634006","67322550bd5dfa0cd2958366","2","52","1194","","","","","","","","","<img src= ""rock_img/I_Obsidian_04.jpg"" style=""width:8cm; height:6.930000000000001cm;""><p>What type of rock is this?</p>","4","class_response","1","test","22","Obsidian","Obsidian","04","true","5","5","",""
"","","","","","","","","","","","html-keyboard-response","248","2.0.0","634508","67322550bd5dfa0cd2958366","2","52","null","","","","","","","","","<p style='font-size: 30px;'><strong>Okay</strong></p>","null","neutral_feedback","1","test","22","","","","","","","",""
"","","","","","","","","","","","html-button-response","249","2.0.0","636278","67322550bd5dfa0cd2958366","2","52","1768","","","","","","","","","<img src= ""rock_img/I_Gabbro_10.jpg"" style=""width:8cm; height:5.680000000000001cm;""><p>What type of rock is this?</p>","3","class_response","1","test","23","Gabbro","Gabbro","10","true","4","4","",""
"","","","","","","","","","","","html-keyboard-response","250","2.0.0","636780","67322550bd5dfa0cd2958366","2","52","null","","","","","","","","","<p style='font-size: 30px;'><strong>Okay</strong></p>","null","neutral_feedback","1","test","23","","","","","","","",""
"","","","","","","","","","","","html-button-response","251","2.0.0","640751","67322550bd5dfa0cd2958366","2","52","3969","","","","","","","","","<img src= ""rock_img/I_Diorite_13.jpg"" style=""width:8cm; height:6.29cm;""><p>What type of rock is this?</p>","2","class_response","1","test","24","Diorite","Diorite","13","true","3","3","",""
"","","","","","","","","","","","html-keyboard-response","252","2.0.0","641252","67322550bd5dfa0cd2958366","2","52","null","","","","","","","","","<p style='font-size: 30px;'><strong>Okay</strong></p>","null","neutral_feedback","1","test","24","","","","","","","",""
"","","","","","","","","","","","html-button-response","253","2.0.0","642440","67322550bd5dfa0cd2958366","2","52","1186","","","","","","","","","<img src= ""rock_img/I_Diorite_07.jpg"" style=""width:8cm; height:5.239999999999999cm;""><p>What type of rock is this?</p>","2","class_response","1","test","25","Diorite","Diorite","07","true","3","3","",""
"","","","","","","","","","","","html-keyboard-response","254","2.0.0","642942","67322550bd5dfa0cd2958366","2","52","null","","","","","","","","","<p style='font-size: 30px;'><strong>Okay</strong></p>","null","neutral_feedback","1","test","25","","","","","","","",""
"","","","","","","","","","","","html-button-response","255","2.0.0","644324","67322550bd5dfa0cd2958366","2","52","1380","","","","","","","","","<img src= ""rock_img/I_Pumice_14.jpg"" style=""width:8cm; height:6.39cm;""><p>What type of rock is this?</p>","7","class_response","1","test","26","Pumice","Pumice","14","true","8","8","",""
"","","","","","","","","","","","html-keyboard-response","256","2.0.0","644825","67322550bd5dfa0cd2958366","2","52","null","","","","","","","","","<p style='font-size: 30px;'><strong>Okay</strong></p>","null","neutral_feedback","1","test","26","","","","","","","",""
"","","","","","","","","","","","html-button-response","257","2.0.0","645898","67322550bd5dfa0cd2958366","2","52","1072","","","","","","","","","<img src= ""rock_img/I_Basalt_08.jpg"" style=""width:8cm; height:10.44cm;""><p>What type of rock is this?</p>","1","class_response","1","test","27","Basalt","Basalt","08","true","2","2","",""
"","","","","","","","","","","","html-keyboard-response","258","2.0.0","646400","67322550bd5dfa0cd2958366","2","52","null","","","","","","","","","<p style='font-size: 30px;'><strong>Okay</strong></p>","null","neutral_feedback","1","test","27","","","","","","","",""
"","","","","","","","","","","","html-button-response","259","2.0.0","647947","67322550bd5dfa0cd2958366","2","52","1545","","","","","","","","","<img src= ""rock_img/I_Andesite_03.jpg"" style=""width:8cm; height:5.73cm;""><p>What type of rock is this?</p>","0","class_response","1","test","28","Andesite","Andesite","03","true","1","1","",""
"","","","","","","","","","","","html-keyboard-response","260","2.0.0","648448","67322550bd5dfa0cd2958366","2","52","null","","","","","","","","","<p style='font-size: 30px;'><strong>Okay</strong></p>","null","neutral_feedback","1","test","28","","","","","","","",""
"","","","","","","","","","","","html-button-response","261","2.0.0","649588","67322550bd5dfa0cd2958366","2","52","1138","","","","","","","","","<img src= ""rock_img/I_Obsidian_16.jpg"" style=""width:8cm; height:9.3cm;""><p>What type of rock is this?</p>","4","class_response","1","test","29","Obsidian","Obsidian","16","true","5","5","",""
"","","","","","","","","","","","html-keyboard-response","262","2.0.0","650090","67322550bd5dfa0cd2958366","2","52","null","","","","","","","","","<p style='font-size: 30px;'><strong>Okay</strong></p>","null","neutral_feedback","1","test","29","","","","","","","",""
"","","","","","","","","","","","html-button-response","263","2.0.0","651489","67322550bd5dfa0cd2958366","2","52","1397","","","","","","","","","<img src= ""rock_img/I_Diorite_11.jpg"" style=""width:8cm; height:7.11cm;""><p>What type of rock is this?</p>","6","class_response","1","test","30","Peridotite","Diorite","11","false","7","3","",""
"","","","","","","","","","","","html-keyboard-response","264","2.0.0","651990","67322550bd5dfa0cd2958366","2","52","null","","","","","","","","","<p style='font-size: 30px;'><strong>Okay</strong></p>","null","neutral_feedback","1","test","30","","","","","","","",""
"","","","","","","","","","","","html-button-response","265","2.0.0","653485","67322550bd5dfa0cd2958366","2","52","1493","","","","","","","","","<img src= ""rock_img/I_Gabbro_08.jpg"" style=""width:8cm; height:5.15cm;""><p>What type of rock is this?</p>","3","class_response","1","test","31","Gabbro","Gabbro","08","true","4","4","",""
"","","","","","","","","","","","html-keyboard-response","266","2.0.0","653987","67322550bd5dfa0cd2958366","2","52","null","","","","","","","","","<p style='font-size: 30px;'><strong>Okay</strong></p>","null","neutral_feedback","1","test","31","","","","","","","",""
"","","","","","","","","","","","html-button-response","267","2.0.0","656347","67322550bd5dfa0cd2958366","2","52","2358","","","","","","","","","<img src= ""rock_img/I_Diorite_09.jpg"" style=""width:8cm; height:5.27cm;""><p>What type of rock is this?</p>","2","class_response","1","test","32","Diorite","Diorite","09","true","3","3","",""
"","","","","","","","","","","","html-keyboard-response","268","2.0.0","656849","67322550bd5dfa0cd2958366","2","52","null","","","","","","","","","<p style='font-size: 30px;'><strong>Okay</strong></p>","null","neutral_feedback","1","test","32","","","","","","","",""
"","","","","","","","","","","","html-button-response","269","2.0.0","658353","67322550bd5dfa0cd2958366","2","52","1501","","","","","","","","","<img src= ""rock_img/I_Pumice_02.jpg"" style=""width:8cm; height:7.3999999999999995cm;""><p>What type of rock is this?</p>","7","class_response","1","test","33","Pumice","Pumice","02","true","8","8","",""
"","","","","","","","","","","","html-keyboard-response","270","2.0.0","658854","67322550bd5dfa0cd2958366","2","52","null","","","","","","","","","<p style='font-size: 30px;'><strong>Okay</strong></p>","null","neutral_feedback","1","test","33","","","","","","","",""
"","","","","","","","","","","","html-button-response","271","2.0.0","666365","67322550bd5dfa0cd2958366","2","52","7509","","","","","","","","","<img src= ""rock_img/I_Andesite_11.jpg"" style=""width:8cm; height:4.92cm;""><p>What type of rock is this?</p>","2","class_response","1","test","34","Diorite","Andesite","11","false","3","1","",""
"","","","","","","","","","","","html-keyboard-response","272","2.0.0","666867","67322550bd5dfa0cd2958366","2","52","null","","","","","","","","","<p style='font-size: 30px;'><strong>Okay</strong></p>","null","neutral_feedback","1","test","34","","","","","","","",""
"","","","","","","","","","","","html-button-response","273","2.0.0","669106","67322550bd5dfa0cd2958366","2","52","2238","","","","","","","","","<img src= ""rock_img/I_Gabbro_05.jpg"" style=""width:8cm; height:6cm;""><p>What type of rock is this?</p>","6","class_response","1","test","35","Peridotite","Gabbro","05","false","7","4","",""
"","","","","","","","","","","","html-keyboard-response","274","2.0.0","669607","67322550bd5dfa0cd2958366","2","52","null","","","","","","","","","<p style='font-size: 30px;'><strong>Okay</strong></p>","null","neutral_feedback","1","test","35","","","","","","","",""
"","","","","","","","","","","","html-button-response","275","2.0.0","672963","67322550bd5dfa0cd2958366","2","52","3355","","","","","","","","","<img src= ""rock_img/I_Andesite_10.jpg"" style=""width:8cm; height:4.16cm;""><p>What type of rock is this?</p>","2","class_response","1","test","36","Diorite","Andesite","10","false","3","1","",""
"","","","","","","","","","","","html-keyboard-response","276","2.0.0","673464","67322550bd5dfa0cd2958366","2","52","null","","","","","","","","","<p style='font-size: 30px;'><strong>Okay</strong></p>","null","neutral_feedback","1","test","36","","","","","","","",""
"","","","","","","","","","","","html-button-response","277","2.0.0","674647","67322550bd5dfa0cd2958366","2","52","1181","","","","","","","","","<img src= ""rock_img/I_Peridotite_08.jpg"" style=""width:8cm; height:6.7cm;""><p>What type of rock is this?</p>","6","class_response","1","test","37","Peridotite","Peridotite","08","true","7","7","",""
"","","","","","","","","","","","html-keyboard-response","278","2.0.0","675148","67322550bd5dfa0cd2958366","2","52","null","","","","","","","","","<p style='font-size: 30px;'><strong>Okay</strong></p>","null","neutral_feedback","1","test","37","","","","","","","",""
"","","","","","","","","","","","html-button-response","279","2.0.0","676143","67322550bd5dfa0cd2958366","2","52","992","","","","","","","","","<img src= ""rock_img/I_Pegmatite_06.jpg"" style=""width:8cm; height:5.17cm;""><p>What type of rock is this?</p>","5","class_response","1","test","38","Pegmatite","Pegmatite","06","true","6","6","",""
"","","","","","","","","","","","html-keyboard-response","280","2.0.0","676644","67322550bd5dfa0cd2958366","2","52","null","","","","","","","","","<p style='font-size: 30px;'><strong>Okay</strong></p>","null","neutral_feedback","1","test","38","","","","","","","",""
"","","","","","","","","","","","html-button-response","281","2.0.0","680445","67322550bd5dfa0cd2958366","2","52","3799","","","","","","","","","<img src= ""rock_img/I_Diorite_08.jpg"" style=""width:8cm; height:6.37cm;""><p>What type of rock is this?</p>","0","class_response","1","test","39","Andesite","Diorite","08","false","1","3","",""
"","","","","","","","","","","","html-keyboard-response","282","2.0.0","680946","67322550bd5dfa0cd2958366","2","52","null","","","","","","","","","<p style='font-size: 30px;'><strong>Okay</strong></p>","null","neutral_feedback","1","test","39","","","","","","","",""
"","","","","","","","","","","","html-button-response","283","2.0.0","682255","67322550bd5dfa0cd2958366","2","52","1307","","","","","","","","","<img src= ""rock_img/I_Obsidian_02.jpg"" style=""width:8cm; height:7.51cm;""><p>What type of rock is this?</p>","4","class_response","1","test","40","Obsidian","Obsidian","02","true","5","5","",""
"","","","","","","","","","","","html-keyboard-response","284","2.0.0","682757","67322550bd5dfa0cd2958366","2","52","null","","","","","","","","","<p style='font-size: 30px;'><strong>Okay</strong></p>","null","neutral_feedback","1","test","40","","","","","","","",""
"","","","","","","","","","","","html-button-response","285","2.0.0","683808","67322550bd5dfa0cd2958366","2","52","1049","","","","","","","","","<img src= ""rock_img/I_Obsidian_10.jpg"" style=""width:8cm; height:6.260000000000001cm;""><p>What type of rock is this?</p>","4","class_response","1","test","41","Obsidian","Obsidian","10","true","5","5","",""
"","","","","","","","","","","","html-keyboard-response","286","2.0.0","684310","67322550bd5dfa0cd2958366","2","52","null","","","","","","","","","<p style='font-size: 30px;'><strong>Okay</strong></p>","null","neutral_feedback","1","test","41","","","","","","","",""
"","","","","","","","","","","","html-button-response","287","2.0.0","686841","67322550bd5dfa0cd2958366","2","52","2529","","","","","","","","","<img src= ""rock_img/I_Basalt_16.jpg"" style=""width:8cm; height:7.659999999999999cm;""><p>What type of rock is this?</p>","7","class_response","1","test","42","Pumice","Basalt","16","false","8","2","",""
"","","","","","","","","","","","html-keyboard-response","288","2.0.0","687342","67322550bd5dfa0cd2958366","2","52","null","","","","","","","","","<p style='font-size: 30px;'><strong>Okay</strong></p>","null","neutral_feedback","1","test","42","","","","","","","",""
"","","","","","","","","","","","html-button-response","289","2.0.0","688951","67322550bd5dfa0cd2958366","2","52","1607","","","","","","","","","<img src= ""rock_img/I_Andesite_04.jpg"" style=""width:8cm; height:5.96cm;""><p>What type of rock is this?</p>","0","class_response","1","test","43","Andesite","Andesite","04","true","1","1","",""
"","","","","","","","","","","","html-keyboard-response","290","2.0.0","689453","67322550bd5dfa0cd2958366","2","52","null","","","","","","","","","<p style='font-size: 30px;'><strong>Okay</strong></p>","null","neutral_feedback","1","test","43","","","","","","","",""
"","","","","","","","","","","","html-button-response","291","2.0.0","691594","67322550bd5dfa0cd2958366","2","52","2139","","","","","","","","","<img src= ""rock_img/I_Pegmatite_10.jpg"" style=""width:8cm; height:4.16cm;""><p>What type of rock is this?</p>","6","class_response","1","test","44","Peridotite","Pegmatite","10","false","7","6","",""
"","","","","","","","","","","","html-keyboard-response","292","2.0.0","692096","67322550bd5dfa0cd2958366","2","52","null","","","","","","","","","<p style='font-size: 30px;'><strong>Okay</strong></p>","null","neutral_feedback","1","test","44","","","","","","","",""
"","","","","","","","","","","","html-button-response","293","2.0.0","693521","67322550bd5dfa0cd2958366","2","52","1424","","","","","","","","","<img src= ""rock_img/I_Pumice_05.jpg"" style=""width:8cm; height:7.25cm;""><p>What type of rock is this?</p>","7","class_response","1","test","45","Pumice","Pumice","05","true","8","8","",""
"","","","","","","","","","","","html-keyboard-response","294","2.0.0","694023","67322550bd5dfa0cd2958366","2","52","null","","","","","","","","","<p style='font-size: 30px;'><strong>Okay</strong></p>","null","neutral_feedback","1","test","45","","","","","","","",""
"","","","","","","","","","","","html-button-response","295","2.0.0","695154","67322550bd5dfa0cd2958366","2","52","1129","","","","","","","","","<img src= ""rock_img/I_Obsidian_08.jpg"" style=""width:8cm; height:7.39cm;""><p>What type of rock is this?</p>","4","class_response","1","test","46","Obsidian","Obsidian","08","true","5","5","",""
"","","","","","","","","","","","html-keyboard-response","296","2.0.0","695655","67322550bd5dfa0cd2958366","2","52","null","","","","","","","","","<p style='font-size: 30px;'><strong>Okay</strong></p>","null","neutral_feedback","1","test","46","","","","","","","",""
"","","","","","","","","","","","html-button-response","297","2.0.0","696908","67322550bd5dfa0cd2958366","2","52","1251","","","","","","","","","<img src= ""rock_img/I_Pumice_03.jpg"" style=""width:8cm; height:6.64cm;""><p>What type of rock is this?</p>","7","class_response","1","test","47","Pumice","Pumice","03","true","8","8","",""
"","","","","","","","","","","","html-keyboard-response","298","2.0.0","697410","67322550bd5dfa0cd2958366","2","52","null","","","","","","","","","<p style='font-size: 30px;'><strong>Okay</strong></p>","null","neutral_feedback","1","test","47","","","","","","","",""
"","","","","","","","","","","","html-button-response","299","2.0.0","700863","67322550bd5dfa0cd2958366","2","52","3451","","","","","","","","","<img src= ""rock_img/I_Diorite_16.jpg"" style=""width:8cm; height:6.74cm;""><p>What type of rock is this?</p>","2","class_response","1","test","48","Diorite","Diorite","16","true","3","3","",""
"","","","","","","","","","","","html-keyboard-response","300","2.0.0","701364","67322550bd5dfa0cd2958366","2","52","null","","","","","","","","","<p style='font-size: 30px;'><strong>Okay</strong></p>","null","neutral_feedback","1","test","48","","","","","","","",""
"","","","","","","","","","","","html-button-response","301","2.0.0","723901","67322550bd5dfa0cd2958366","2","52","","","","","","","","","","","","cycle_feedback","","","","","","","","","","11567","10963.29999999702"
"","","","","","","","","","","","html-button-response","303","2.0.0","729811","67322550bd5dfa0cd2958366","2","52","5908","","","","","","","","","","0","start_train","","","","","","","","","","",""
"","","","","","","","","","","","html-button-response","304","2.0.0","730991","67322550bd5dfa0cd2958366","2","52","1178","","","","","","","","","<img src= ""rock_img/I_Basalt_04.jpg"" style=""width:8cm; height:7.53cm;""><p>What type of rock is this?</p>","1","class_response","2","train","1","Basalt","Basalt","04","true","2","2","",""
