"width","height","webaudio","browser","browser_version","mobile","os","fullscreen","vsync_rate","webcam","microphone","trial_type","trial_index","plugin_version","time_elapsed","subjID","condition","stimID","rt","url","success","value","timeout","failed_images","failed_audio","failed_video","view_history","stimulus","response","trialType","cycle","phase","trial","resp","cat","token","corr","resp_num","cat_num","time_fb1","time_fb2"
"1920","953","true","chrome","131.0.0","false","Windows 10","true","60.65","true","true","browser-check","0","2.0.0","1009","6127c369bdff7dc17f0724a2","2","47","","","","","","","","","","","","","","","","","","","","","","",""
"","","","","","","","","","","","external-html","1","2.0.0","8294","6127c369bdff7dc17f0724a2","2","47","7224","consent_form.html","","","","","","","","","","","","","","","","","","","","",""
"","","","","","","","","","","","fullscreen","2","2.0.0","10770","6127c369bdff7dc17f0724a2","2","47","1474","","true","","","","","","","","","","","","","","","","","","","",""
"","","","","","","","","","","","call-function","3","2.0.0","10772","6127c369bdff7dc17f0724a2","2","47","","","","{}","","","","","","","","","","","","","","","","","","",""
"","","","","","","","","","","","preload","4","2.0.0","11921","6127c369bdff7dc17f0724a2","2","47","","","true","","false","[]","[]","[]","","","","","","","","","","","","","","",""
"","","","","","","","","","","","instructions","5","2.0.0","102537","6127c369bdff7dc17f0724a2","2","47","90616","","","","","","","","[{""page_index"":0,""viewing_time"":10567},{""page_index"":1,""viewing_time"":69864},{""page_index"":2,""viewing_time"":10186}]","","","","","","","","","","","","","",""
"","","","","","","","","","","","html-button-response","6","2.0.0","103864","6127c369bdff7dc17f0724a2","2","47","1325","","","","","","","","","","0","start_test","","","","","","","","","","",""
"","","","","","","","","","","","html-button-response","7","2.0.0","110874","6127c369bdff7dc17f0724a2","2","47","7009","","","","","","","","","<img src= ""rock_img/I_Obsidian_08.jpg"" style=""width:8cm; height:7.39cm;""><p>What type of rock is this?</p>","7","class_response","0","test","1","Pumice","Obsidian","08","false","8","5","",""
"","","","","","","","","","","","html-keyboard-response","8","2.0.0","111387","6127c369bdff7dc17f0724a2","2","47","null","","","","","","","","","<p style='font-size: 30px;'><strong>Okay</strong></p>","null","neutral_feedback","0","test","1","","","","","","","",""
"","","","","","","","","","","","html-button-response","9","2.0.0","113761","6127c369bdff7dc17f0724a2","2","47","2373","","","","","","","","","<img src= ""rock_img/I_Obsidian_04.jpg"" style=""width:8cm; height:6.930000000000001cm;""><p>What type of rock is this?</p>","4","class_response","0","test","2","Obsidian","Obsidian","04","true","5","5","",""
"","","","","","","","","","","","html-keyboard-response","10","2.0.0","114263","6127c369bdff7dc17f0724a2","2","47","null","","","","","","","","","<p style='font-size: 30px;'><strong>Okay</strong></p>","null","neutral_feedback","0","test","2","","","","","","","",""
"","","","","","","","","","","","html-button-response","11","2.0.0","117467","6127c369bdff7dc17f0724a2","2","47","3204","","","","","","","","","<img src= ""rock_img/I_Peridotite_04.jpg"" style=""width:8cm; height:6.680000000000001cm;""><p>What type of rock is this?</p>","2","class_response","0","test","3","Diorite","Peridotite","04","false","3","7","",""
"","","","","","","","","","","","html-keyboard-response","12","2.0.0","117971","6127c369bdff7dc17f0724a2","2","47","null","","","","","","","","","<p style='font-size: 30px;'><strong>Okay</strong></p>","null","neutral_feedback","0","test","3","","","","","","","",""
"","","","","","","","","","","","html-button-response","13","2.0.0","119283","6127c369bdff7dc17f0724a2","2","47","1310","","","","","","","","","<img src= ""rock_img/I_Obsidian_07.jpg"" style=""width:8cm; height:4.76cm;""><p>What type of rock is this?</p>","5","class_response","0","test","4","Pegmatite","Obsidian","07","false","6","5","",""
"","","","","","","","","","","","html-keyboard-response","14","2.0.0","119789","6127c369bdff7dc17f0724a2","2","47","null","","","","","","","","","<p style='font-size: 30px;'><strong>Okay</strong></p>","null","neutral_feedback","0","test","4","","","","","","","",""
"","","","","","","","","","","","html-button-response","15","2.0.0","121551","6127c369bdff7dc17f0724a2","2","47","1761","","","","","","","","","<img src= ""rock_img/I_Basalt_02.jpg"" style=""width:8cm; height:6.45cm;""><p>What type of rock is this?</p>","6","class_response","0","test","5","Peridotite","Basalt","02","false","7","2","",""
"","","","","","","","","","","","html-keyboard-response","16","2.0.0","122055","6127c369bdff7dc17f0724a2","2","47","null","","","","","","","","","<p style='font-size: 30px;'><strong>Okay</strong></p>","null","neutral_feedback","0","test","5","","","","","","","",""
"","","","","","","","","","","","html-button-response","17","2.0.0","123675","6127c369bdff7dc17f0724a2","2","47","1619","","","","","","","","","<img src= ""rock_img/I_Pegmatite_05.jpg"" style=""width:8cm; height:7.300000000000001cm;""><p>What type of rock is this?</p>","0","class_response","0","test","6","Andesite","Pegmatite","05","false","1","6","",""
"","","","","","","","","","","","html-keyboard-response","18","2.0.0","124179","6127c369bdff7dc17f0724a2","2","47","null","","","","","","","","","<p style='font-size: 30px;'><strong>Okay</strong></p>","null","neutral_feedback","0","test","6","","","","","","","",""
"","","","","","","","","","","","html-button-response","19","2.0.0","127051","6127c369bdff7dc17f0724a2","2","47","2866","","","","","","","","","<img src= ""rock_img/I_Diorite_10.jpg"" style=""width:8cm; height:5.949999999999999cm;""><p>What type of rock is this?</p>","3","class_response","0","test","7","Gabbro","Diorite","10","false","4","3","",""
"","","","","","","","","","","","html-keyboard-response","20","2.0.0","127554","6127c369bdff7dc17f0724a2","2","47","null","","","","","","","","","<p style='font-size: 30px;'><strong>Okay</strong></p>","null","neutral_feedback","0","test","7","","","","","","","",""
"","","","","","","","","","","","html-button-response","21","2.0.0","129288","6127c369bdff7dc17f0724a2","2","47","1732","","","","","","","","","<img src= ""rock_img/I_Peridotite_15.jpg"" style=""width:8cm; height:6cm;""><p>What type of rock is this?</p>","5","class_response","0","test","8","Pegmatite","Peridotite","15","false","6","7","",""
"","","","","","","","","","","","html-keyboard-response","22","2.0.0","129795","6127c369bdff7dc17f0724a2","2","47","null","","","","","","","","","<p style='font-size: 30px;'><strong>Okay</strong></p>","null","neutral_feedback","0","test","8","","","","","","","",""
"","","","","","","","","","","","html-button-response","23","2.0.0","131125","6127c369bdff7dc17f0724a2","2","47","1330","","","","","","","","","<img src= ""rock_img/I_Gabbro_10.jpg"" style=""width:8cm; height:5.680000000000001cm;""><p>What type of rock is this?</p>","1","class_response","0","test","9","Basalt","Gabbro","10","false","2","4","",""
"","","","","","","","","","","","html-keyboard-response","24","2.0.0","131636","6127c369bdff7dc17f0724a2","2","47","null","","","","","","","","","<p style='font-size: 30px;'><strong>Okay</strong></p>","null","neutral_feedback","0","test","9","","","","","","","",""
"","","","","","","","","","","","html-button-response","25","2.0.0","134008","6127c369bdff7dc17f0724a2","2","47","2371","","","","","","","","","<img src= ""rock_img/I_Gabbro_15.jpg"" style=""width:8cm; height:6.29cm;""><p>What type of rock is this?</p>","2","class_response","0","test","10","Diorite","Gabbro","15","false","3","4","",""
"","","","","","","","","","","","html-keyboard-response","26","2.0.0","134520","6127c369bdff7dc17f0724a2","2","47","null","","","","","","","","","<p style='font-size: 30px;'><strong>Okay</strong></p>","null","neutral_feedback","0","test","10","","","","","","","",""
"","","","","","","","","","","","html-button-response","27","2.0.0","136974","6127c369bdff7dc17f0724a2","2","47","2452","","","","","","","","","<img src= ""rock_img/I_Obsidian_09.jpg"" style=""width:8cm; height:5cm;""><p>What type of rock is this?</p>","4","class_response","0","test","11","Obsidian","Obsidian","09","true","5","5","",""
"","","","","","","","","","","","html-keyboard-response","28","2.0.0","137475","6127c369bdff7dc17f0724a2","2","47","null","","","","","","","","","<p style='font-size: 30px;'><strong>Okay</strong></p>","null","neutral_feedback","0","test","11","","","","","","","",""
"","","","","","","","","","","","html-button-response","29","2.0.0","138947","6127c369bdff7dc17f0724a2","2","47","1469","","","","","","","","","<img src= ""rock_img/I_Pumice_05.jpg"" style=""width:8cm; height:7.25cm;""><p>What type of rock is this?</p>","3","class_response","0","test","12","Gabbro","Pumice","05","false","4","8","",""
"","","","","","","","","","","","html-keyboard-response","30","2.0.0","139454","6127c369bdff7dc17f0724a2","2","47","null","","","","","","","","","<p style='font-size: 30px;'><strong>Okay</strong></p>","null","neutral_feedback","0","test","12","","","","","","","",""
"","","","","","","","","","","","html-button-response","31","2.0.0","142284","6127c369bdff7dc17f0724a2","2","47","2828","","","","","","","","","<img src= ""rock_img/I_Pumice_06.jpg"" style=""width:8cm; height:6.9399999999999995cm;""><p>What type of rock is this?</p>","7","class_response","0","test","13","Pumice","Pumice","06","true","8","8","",""
"","","","","","","","","","","","html-keyboard-response","32","2.0.0","142786","6127c369bdff7dc17f0724a2","2","47","null","","","","","","","","","<p style='font-size: 30px;'><strong>Okay</strong></p>","null","neutral_feedback","0","test","13","","","","","","","",""
"","","","","","","","","","","","html-button-response","33","2.0.0","144069","6127c369bdff7dc17f0724a2","2","47","1283","","","","","","","","","<img src= ""rock_img/I_Pumice_08.jpg"" style=""width:8cm; height:6.67cm;""><p>What type of rock is this?</p>","7","class_response","0","test","14","Pumice","Pumice","08","true","8","8","",""
"","","","","","","","","","","","html-keyboard-response","34","2.0.0","144584","6127c369bdff7dc17f0724a2","2","47","null","","","","","","","","","<p style='font-size: 30px;'><strong>Okay</strong></p>","null","neutral_feedback","0","test","14","","","","","","","",""
"","","","","","","","","","","","html-button-response","35","2.0.0","146039","6127c369bdff7dc17f0724a2","2","47","1454","","","","","","","","","<img src= ""rock_img/I_Basalt_14.jpg"" style=""width:8cm; height:5.82cm;""><p>What type of rock is this?</p>","6","class_response","0","test","15","Peridotite","Basalt","14","false","7","2","",""
"","","","","","","","","","","","html-keyboard-response","36","2.0.0","146548","6127c369bdff7dc17f0724a2","2","47","null","","","","","","","","","<p style='font-size: 30px;'><strong>Okay</strong></p>","null","neutral_feedback","0","test","15","","","","","","","",""
"","","","","","","","","","","","html-button-response","37","2.0.0","147757","6127c369bdff7dc17f0724a2","2","47","1206","","","","","","","","","<img src= ""rock_img/I_Gabbro_12.jpg"" style=""width:8cm; height:7.800000000000001cm;""><p>What type of rock is this?</p>","1","class_response","0","test","16","Basalt","Gabbro","12","false","2","4","",""
"","","","","","","","","","","","html-keyboard-response","38","2.0.0","148272","6127c369bdff7dc17f0724a2","2","47","null","","","","","","","","","<p style='font-size: 30px;'><strong>Okay</strong></p>","null","neutral_feedback","0","test","16","","","","","","","",""
"","","","","","","","","","","","html-button-response","39","2.0.0","149729","6127c369bdff7dc17f0724a2","2","47","1456","","","","","","","","","<img src= ""rock_img/I_Gabbro_08.jpg"" style=""width:8cm; height:5.15cm;""><p>What type of rock is this?</p>","0","class_response","0","test","17","Andesite","Gabbro","08","false","1","4","",""
"","","","","","","","","","","","html-keyboard-response","40","2.0.0","150233","6127c369bdff7dc17f0724a2","2","47","null","","","","","","","","","<p style='font-size: 30px;'><strong>Okay</strong></p>","null","neutral_feedback","0","test","17","","","","","","","",""
"","","","","","","","","","","","html-button-response","41","2.0.0","151604","6127c369bdff7dc17f0724a2","2","47","1370","","","","","","","","","<img src= ""rock_img/I_Gabbro_09.jpg"" style=""width:8cm; height:7.279999999999999cm;""><p>What type of rock is this?</p>","2","class_response","0","test","18","Diorite","Gabbro","09","false","3","4","",""
"","","","","","","","","","","","html-keyboard-response","42","2.0.0","152117","6127c369bdff7dc17f0724a2","2","47","null","","","","","","","","","<p style='font-size: 30px;'><strong>Okay</strong></p>","null","neutral_feedback","0","test","18","","","","","","","",""
"","","","","","","","","","","","html-button-response","43","2.0.0","163755","6127c369bdff7dc17f0724a2","2","47","11637","","","","","","","","","<img src= ""rock_img/I_Pumice_16.jpg"" style=""width:8cm; height:6.79cm;""><p>What type of rock is this?</p>","3","class_response","0","test","19","Gabbro","Pumice","16","false","4","8","",""
"","","","","","","","","","","","html-keyboard-response","44","2.0.0","164268","6127c369bdff7dc17f0724a2","2","47","null","","","","","","","","","<p style='font-size: 30px;'><strong>Okay</strong></p>","null","neutral_feedback","0","test","19","","","","","","","",""
"","","","","","","","","","","","html-button-response","45","2.0.0","166831","6127c369bdff7dc17f0724a2","2","47","2562","","","","","","","","","<img src= ""rock_img/I_Andesite_01.jpg"" style=""width:8cm; height:5.87cm;""><p>What type of rock is this?</p>","0","class_response","0","test","20","Andesite","Andesite","01","true","1","1","",""
"","","","","","","","","","","","html-keyboard-response","46","2.0.0","167348","6127c369bdff7dc17f0724a2","2","47","null","","","","","","","","","<p style='font-size: 30px;'><strong>Okay</strong></p>","null","neutral_feedback","0","test","20","","","","","","","",""
"","","","","","","","","","","","html-button-response","47","2.0.0","169737","6127c369bdff7dc17f0724a2","2","47","2386","","","","","","","","","<img src= ""rock_img/I_Andesite_09.jpg"" style=""width:8cm; height:6cm;""><p>What type of rock is this?</p>","5","class_response","0","test","21","Pegmatite","Andesite","09","false","6","1","",""
"","","","","","","","","","","","html-keyboard-response","48","2.0.0","170250","6127c369bdff7dc17f0724a2","2","47","null","","","","","","","","","<p style='font-size: 30px;'><strong>Okay</strong></p>","null","neutral_feedback","0","test","21","","","","","","","",""
"","","","","","","","","","","","html-button-response","49","2.0.0","171676","6127c369bdff7dc17f0724a2","2","47","1425","","","","","","","","","<img src= ""rock_img/I_Peridotite_05.jpg"" style=""width:8cm; height:7.1499999999999995cm;""><p>What type of rock is this?</p>","6","class_response","0","test","22","Peridotite","Peridotite","05","true","7","7","",""
"","","","","","","","","","","","html-keyboard-response","50","2.0.0","172180","6127c369bdff7dc17f0724a2","2","47","null","","","","","","","","","<p style='font-size: 30px;'><strong>Okay</strong></p>","null","neutral_feedback","0","test","22","","","","","","","",""
"","","","","","","","","","","","html-button-response","51","2.0.0","173350","6127c369bdff7dc17f0724a2","2","47","1167","","","","","","","","","<img src= ""rock_img/I_Andesite_06.jpg"" style=""width:8cm; height:6.840000000000001cm;""><p>What type of rock is this?</p>","2","class_response","0","test","23","Diorite","Andesite","06","false","3","1","",""
"","","","","","","","","","","","html-keyboard-response","52","2.0.0","173865","6127c369bdff7dc17f0724a2","2","47","null","","","","","","","","","<p style='font-size: 30px;'><strong>Okay</strong></p>","null","neutral_feedback","0","test","23","","","","","","","",""
"","","","","","","","","","","","html-button-response","53","2.0.0","175209","6127c369bdff7dc17f0724a2","2","47","1343","","","","","","","","","<img src= ""rock_img/I_Andesite_04.jpg"" style=""width:8cm; height:5.96cm;""><p>What type of rock is this?</p>","1","class_response","0","test","24","Basalt","Andesite","04","false","2","1","",""
"","","","","","","","","","","","html-keyboard-response","54","2.0.0","175723","6127c369bdff7dc17f0724a2","2","47","null","","","","","","","","","<p style='font-size: 30px;'><strong>Okay</strong></p>","null","neutral_feedback","0","test","24","","","","","","","",""
"","","","","","","","","","","","html-button-response","55","2.0.0","177665","6127c369bdff7dc17f0724a2","2","47","1941","","","","","","","","","<img src= ""rock_img/I_Gabbro_11.jpg"" style=""width:8cm; height:6.2cm;""><p>What type of rock is this?</p>","3","class_response","0","test","25","Gabbro","Gabbro","11","true","4","4","",""
"","","","","","","","","","","","html-keyboard-response","56","2.0.0","178167","6127c369bdff7dc17f0724a2","2","47","null","","","","","","","","","<p style='font-size: 30px;'><strong>Okay</strong></p>","null","neutral_feedback","0","test","25","","","","","","","",""
"","","","","","","","","","","","html-button-response","57","2.0.0","179989","6127c369bdff7dc17f0724a2","2","47","1821","","","","","","","","","<img src= ""rock_img/I_Diorite_02.jpg"" style=""width:8cm; height:6.27cm;""><p>What type of rock is this?</p>","4","class_response","0","test","26","Obsidian","Diorite","02","false","5","3","",""
"","","","","","","","","","","","html-keyboard-response","58","2.0.0","180495","6127c369bdff7dc17f0724a2","2","47","null","","","","","","","","","<p style='font-size: 30px;'><strong>Okay</strong></p>","null","neutral_feedback","0","test","26","","","","","","","",""
"","","","","","","","","","","","html-button-response","59","2.0.0","182641","6127c369bdff7dc17f0724a2","2","47","2145","","","","","","","","","<img src= ""rock_img/I_Diorite_06.jpg"" style=""width:8cm; height:6.03cm;""><p>What type of rock is this?</p>","7","class_response","0","test","27","Pumice","Diorite","06","false","8","3","",""
"","","","","","","","","","","","html-keyboard-response","60","2.0.0","183154","6127c369bdff7dc17f0724a2","2","47","null","","","","","","","","","<p style='font-size: 30px;'><strong>Okay</strong></p>","null","neutral_feedback","0","test","27","","","","","","","",""
"","","","","","","","","","","","html-button-response","61","2.0.0","184895","6127c369bdff7dc17f0724a2","2","47","1740","","","","","","","","","<img src= ""rock_img/I_Pegmatite_09.jpg"" style=""width:8cm; height:4.03cm;""><p>What type of rock is this?</p>","6","class_response","0","test","28","Peridotite","Pegmatite","09","false","7","6","",""
"","","","","","","","","","","","html-keyboard-response","62","2.0.0","185397","6127c369bdff7dc17f0724a2","2","47","null","","","","","","","","","<p style='font-size: 30px;'><strong>Okay</strong></p>","null","neutral_feedback","0","test","28","","","","","","","",""
"","","","","","","","","","","","html-button-response","63","2.0.0","187219","6127c369bdff7dc17f0724a2","2","47","1821","","","","","","","","","<img src= ""rock_img/I_Basalt_11.jpg"" style=""width:8cm; height:5.359999999999999cm;""><p>What type of rock is this?</p>","7","class_response","0","test","29","Pumice","Basalt","11","false","8","2","",""
"","","","","","","","","","","","html-keyboard-response","64","2.0.0","187727","6127c369bdff7dc17f0724a2","2","47","null","","","","","","","","","<p style='font-size: 30px;'><strong>Okay</strong></p>","null","neutral_feedback","0","test","29","","","","","","","",""
"","","","","","","","","","","","html-button-response","65","2.0.0","189009","6127c369bdff7dc17f0724a2","2","47","1281","","","","","","","","","<img src= ""rock_img/I_Diorite_16.jpg"" style=""width:8cm; height:6.74cm;""><p>What type of rock is this?</p>","5","class_response","0","test","30","Pegmatite","Diorite","16","false","6","3","",""
"","","","","","","","","","","","html-keyboard-response","66","2.0.0","189524","6127c369bdff7dc17f0724a2","2","47","null","","","","","","","","","<p style='font-size: 30px;'><strong>Okay</strong></p>","null","neutral_feedback","0","test","30","","","","","","","",""
"","","","","","","","","","","","html-button-response","67","2.0.0","194597","6127c369bdff7dc17f0724a2","2","47","5071","","","","","","","","","<img src= ""rock_img/I_Basalt_08.jpg"" style=""width:8cm; height:10.44cm;""><p>What type of rock is this?</p>","4","class_response","0","test","31","Obsidian","Basalt","08","false","5","2","",""
"","","","","","","","","","","","html-keyboard-response","68","2.0.0","195107","6127c369bdff7dc17f0724a2","2","47","null","","","","","","","","","<p style='font-size: 30px;'><strong>Okay</strong></p>","null","neutral_feedback","0","test","31","","","","","","","",""
"","","","","","","","","","","","html-button-response","69","2.0.0","210271","6127c369bdff7dc17f0724a2","2","47","15163","","","","","","","","","<img src= ""rock_img/I_Peridotite_07.jpg"" style=""width:8cm; height:4.83cm;""><p>What type of rock is this?</p>","2","class_response","0","test","32","Diorite","Peridotite","07","false","3","7","",""
"","","","","","","","","","","","html-keyboard-response","70","2.0.0","210784","6127c369bdff7dc17f0724a2","2","47","null","","","","","","","","","<p style='font-size: 30px;'><strong>Okay</strong></p>","null","neutral_feedback","0","test","32","","","","","","","",""
"","","","","","","","","","","","html-button-response","71","2.0.0","212163","6127c369bdff7dc17f0724a2","2","47","1378","","","","","","","","","<img src= ""rock_img/I_Obsidian_10.jpg"" style=""width:8cm; height:6.260000000000001cm;""><p>What type of rock is this?</p>","4","class_response","0","test","33","Obsidian","Obsidian","10","true","5","5","",""
"","","","","","","","","","","","html-keyboard-response","72","2.0.0","212679","6127c369bdff7dc17f0724a2","2","47","null","","","","","","","","","<p style='font-size: 30px;'><strong>Okay</strong></p>","null","neutral_feedback","0","test","33","","","","","","","",""
"","","","","","","","","","","","html-button-response","73","2.0.0","214350","6127c369bdff7dc17f0724a2","2","47","1667","","","","","","","","","<img src= ""rock_img/I_Obsidian_05.jpg"" style=""width:8cm; height:6.33cm;""><p>What type of rock is this?</p>","4","class_response","0","test","34","Obsidian","Obsidian","05","true","5","5","",""
"","","","","","","","","","","","html-keyboard-response","74","2.0.0","214856","6127c369bdff7dc17f0724a2","2","47","null","","","","","","","","","<p style='font-size: 30px;'><strong>Okay</strong></p>","null","neutral_feedback","0","test","34","","","","","","","",""
"","","","","","","","","","","","html-button-response","75","2.0.0","215859","6127c369bdff7dc17f0724a2","2","47","1003","","","","","","","","","<img src= ""rock_img/I_Pegmatite_06.jpg"" style=""width:8cm; height:5.17cm;""><p>What type of rock is this?</p>","3","class_response","0","test","35","Gabbro","Pegmatite","06","false","4","6","",""
"","","","","","","","","","","","html-keyboard-response","76","2.0.0","216368","6127c369bdff7dc17f0724a2","2","47","null","","","","","","","","","<p style='font-size: 30px;'><strong>Okay</strong></p>","null","neutral_feedback","0","test","35","","","","","","","",""
"","","","","","","","","","","","html-button-response","77","2.0.0","218231","6127c369bdff7dc17f0724a2","2","47","1862","","","","","","","","","<img src= ""rock_img/I_Andesite_14.jpg"" style=""width:8cm; height:5.449999999999999cm;""><p>What type of rock is this?</p>","1","class_response","0","test","36","Basalt","Andesite","14","false","2","1","",""
"","","","","","","","","","","","html-keyboard-response","78","2.0.0","218734","6127c369bdff7dc17f0724a2","2","47","null","","","","","","","","","<p style='font-size: 30px;'><strong>Okay</strong></p>","null","neutral_feedback","0","test","36","","","","","","","",""
"","","","","","","","","","","","html-button-response","79","2.0.0","220233","6127c369bdff7dc17f0724a2","2","47","1498","","","","","","","","","<img src= ""rock_img/I_Peridotite_06.jpg"" style=""width:8cm; height:7.53cm;""><p>What type of rock is this?</p>","0","class_response","0","test","37","Andesite","Peridotite","06","false","1","7","",""
"","","","","","","","","","","","html-keyboard-response","80","2.0.0","220739","6127c369bdff7dc17f0724a2","2","47","null","","","","","","","","","<p style='font-size: 30px;'><strong>Okay</strong></p>","null","neutral_feedback","0","test","37","","","","","","","",""
"","","","","","","","","","","","html-button-response","81","2.0.0","221787","6127c369bdff7dc17f0724a2","2","47","1047","","","","","","","","","<img src= ""rock_img/I_Basalt_01.jpg"" style=""width:8cm; height:7.880000000000001cm;""><p>What type of rock is this?</p>","5","class_response","0","test","38","Pegmatite","Basalt","01","false","6","2","",""
"","","","","","","","","","","","html-keyboard-response","82","2.0.0","222291","6127c369bdff7dc17f0724a2","2","47","null","","","","","","","","","<p style='font-size: 30px;'><strong>Okay</strong></p>","null","neutral_feedback","0","test","38","","","","","","","",""
"","","","","","","","","","","","html-button-response","83","2.0.0","223395","6127c369bdff7dc17f0724a2","2","47","1103","","","","","","","","","<img src= ""rock_img/I_Diorite_14.jpg"" style=""width:8cm; height:5.71cm;""><p>What type of rock is this?</p>","1","class_response","0","test","39","Basalt","Diorite","14","false","2","3","",""
"","","","","","","","","","","","html-keyboard-response","84","2.0.0","223899","6127c369bdff7dc17f0724a2","2","47","null","","","","","","","","","<p style='font-size: 30px;'><strong>Okay</strong></p>","null","neutral_feedback","0","test","39","","","","","","","",""
"","","","","","","","","","","","html-button-response","85","2.0.0","226224","6127c369bdff7dc17f0724a2","2","47","2324","","","","","","","","","<img src= ""rock_img/I_Pegmatite_07.jpg"" style=""width:8cm; height:6.7cm;""><p>What type of rock is this?</p>","2","class_response","0","test","40","Diorite","Pegmatite","07","false","3","6","",""
"","","","","","","","","","","","html-keyboard-response","86","2.0.0","226739","6127c369bdff7dc17f0724a2","2","47","null","","","","","","","","","<p style='font-size: 30px;'><strong>Okay</strong></p>","null","neutral_feedback","0","test","40","","","","","","","",""
"","","","","","","","","","","","html-button-response","87","2.0.0","227747","6127c369bdff7dc17f0724a2","2","47","1004","","","","","","","","","<img src= ""rock_img/I_Pumice_10.jpg"" style=""width:8cm; height:7.609999999999999cm;""><p>What type of rock is this?</p>","7","class_response","0","test","41","Pumice","Pumice","10","true","8","8","",""
"","","","","","","","","","","","html-keyboard-response","88","2.0.0","228260","6127c369bdff7dc17f0724a2","2","47","null","","","","","","","","","<p style='font-size: 30px;'><strong>Okay</strong></p>","null","neutral_feedback","0","test","41","","","","","","","",""
"","","","","","","","","","","","html-button-response","89","2.0.0","229917","6127c369bdff7dc17f0724a2","2","47","1654","","","","","","","","","<img src= ""rock_img/I_Pegmatite_03.jpg"" style=""width:8cm; height:5.239999999999999cm;""><p>What type of rock is this?</p>","3","class_response","0","test","42","Gabbro","Pegmatite","03","false","4","6","",""
"","","","","","","","","","","","html-keyboard-response","90","2.0.0","230421","6127c369bdff7dc17f0724a2","2","47","null","","","","","","","","","<p style='font-size: 30px;'><strong>Okay</strong></p>","null","neutral_feedback","0","test","42","","","","","","","",""
"","","","","","","","","","","","html-button-response","91","2.0.0","231783","6127c369bdff7dc17f0724a2","2","47","1361","","","","","","","","","<img src= ""rock_img/I_Pegmatite_13.jpg"" style=""width:8cm; height:4.95cm;""><p>What type of rock is this?</p>","2","class_response","0","test","43","Diorite","Pegmatite","13","false","3","6","",""
"","","","","","","","","","","","html-keyboard-response","92","2.0.0","232298","6127c369bdff7dc17f0724a2","2","47","null","","","","","","","","","<p style='font-size: 30px;'><strong>Okay</strong></p>","null","neutral_feedback","0","test","43","","","","","","","",""
"","","","","","","","","","","","html-button-response","93","2.0.0","233671","6127c369bdff7dc17f0724a2","2","47","1373","","","","","","","","","<img src= ""rock_img/I_Basalt_09.jpg"" style=""width:8cm; height:6.2cm;""><p>What type of rock is this?</p>","4","class_response","0","test","44","Obsidian","Basalt","09","false","5","2","",""
"","","","","","","","","","","","html-keyboard-response","94","2.0.0","234175","6127c369bdff7dc17f0724a2","2","47","null","","","","","","","","","<p style='font-size: 30px;'><strong>Okay</strong></p>","null","neutral_feedback","0","test","44","","","","","","","",""
"","","","","","","","","","","","html-button-response","95","2.0.0","235609","6127c369bdff7dc17f0724a2","2","47","1429","","","","","","","","","<img src= ""rock_img/I_Pumice_13.jpg"" style=""width:8cm; height:8.200000000000001cm;""><p>What type of rock is this?</p>","1","class_response","0","test","45","Basalt","Pumice","13","false","2","8","",""
"","","","","","","","","","","","html-keyboard-response","96","2.0.0","236116","6127c369bdff7dc17f0724a2","2","47","null","","","","","","","","","<p style='font-size: 30px;'><strong>Okay</strong></p>","null","neutral_feedback","0","test","45","","","","","","","",""
"","","","","","","","","","","","html-button-response","97","2.0.0","249752","6127c369bdff7dc17f0724a2","2","47","13634","","","","","","","","","<img src= ""rock_img/I_Andesite_10.jpg"" style=""width:8cm; height:4.16cm;""><p>What type of rock is this?</p>","7","class_response","0","test","46","Pumice","Andesite","10","false","8","1","",""
"","","","","","","","","","","","html-keyboard-response","98","2.0.0","250261","6127c369bdff7dc17f0724a2","2","47","null","","","","","","","","","<p style='font-size: 30px;'><strong>Okay</strong></p>","null","neutral_feedback","0","test","46","","","","","","","",""
"","","","","","","","","","","","html-button-response","99","2.0.0","252059","6127c369bdff7dc17f0724a2","2","47","1796","","","","","","","","","<img src= ""rock_img/I_Diorite_08.jpg"" style=""width:8cm; height:6.37cm;""><p>What type of rock is this?</p>","4","class_response","0","test","47","Obsidian","Diorite","08","false","5","3","",""
"","","","","","","","","","","","html-keyboard-response","100","2.0.0","252564","6127c369bdff7dc17f0724a2","2","47","null","","","","","","","","","<p style='font-size: 30px;'><strong>Okay</strong></p>","null","neutral_feedback","0","test","47","","","","","","","",""
"","","","","","","","","","","","html-button-response","101","2.0.0","253919","6127c369bdff7dc17f0724a2","2","47","1353","","","","","","","","","<img src= ""rock_img/I_Peridotite_14.jpg"" style=""width:8cm; height:5.3cm;""><p>What type of rock is this?</p>","5","class_response","0","test","48","Pegmatite","Peridotite","14","false","6","7","",""
"","","","","","","","","","","","html-keyboard-response","102","2.0.0","254430","6127c369bdff7dc17f0724a2","2","47","null","","","","","","","","","<p style='font-size: 30px;'><strong>Okay</strong></p>","null","neutral_feedback","0","test","48","","","","","","","",""
"","","","","","","","","","","","instructions","103","2.0.0","285773","6127c369bdff7dc17f0724a2","2","47","31321","","","","","","","","[{""page_index"":0,""viewing_time"":16880},{""page_index"":1,""viewing_time"":5926},{""page_index"":2,""viewing_time"":8516}]","","","","","","","","","","","","","",""
"","","","","","","","","","","","html-button-response","104","2.0.0","294555","6127c369bdff7dc17f0724a2","2","47","8781","","","","","","","","","","0","start_train","","","","","","","","","","",""
"","","","","","","","","","","","html-button-response","105","2.0.0","297335","6127c369bdff7dc17f0724a2","2","47","2779","","","","","","","","","<img src= ""rock_img/I_Diorite_09.jpg"" style=""width:8cm; height:5.27cm;""><p>What type of rock is this?</p>","1","class_response","1","train","1","Basalt","Diorite","09","false","2","3","",""
"","","","","","","","","","","","html-button-response","106","2.0.0","301616","6127c369bdff7dc17f0724a2","2","47","4279","","","","","","","","","<img src= rock_img/I_Diorite_09.jpg style=""width:8cm; height:5.27cm;""><p style='font-size: 30px; color: red;'><strong>Incorrect!</strong></p><p style='font-size: 30px;'><strong>This rock is diorite</strong></p>","0","corr_feedback","1","train","1","","","","","","","",""
"","","","","","","","","","","","html-button-response","107","2.0.0","302962","6127c369bdff7dc17f0724a2","2","47","1345","","","","","","","","","<img src= ""rock_img/I_Diorite_09.jpg"" style=""width:8cm; height:5.27cm;""><p>What type of rock is this?</p>","2","class_response","1","train","2","Diorite","Diorite","09","true","3","3","",""
"","","","","","","","","","","","html-button-response","108","2.0.0","304852","6127c369bdff7dc17f0724a2","2","47","1889","","","","","","","","","<img src= rock_img/I_Diorite_09.jpg style=""width:8cm; height:5.27cm;""><p style='font-size: 30px; color: green;'><strong>Correct!</strong></p><p style='font-size: 30px;'><strong>This rock is diorite</strong></p>","0","corr_feedback","1","train","2","","","","","","","",""
"","","","","","","","","","","","html-button-response","109","2.0.0","306706","6127c369bdff7dc17f0724a2","2","47","1853","","","","","","","","","<img src= ""rock_img/I_Obsidian_12.jpg"" style=""width:8cm; height:6.53cm;""><p>What type of rock is this?</p>","4","class_response","1","train","3","Obsidian","Obsidian","12","true","5","5","",""
"","","","","","","","","","","","html-button-response","110","2.0.0","307817","6127c369bdff7dc17f0724a2","2","47","1110","","","","","","","","","<img src= rock_img/I_Obsidian_12.jpg style=""width:8cm; height:6.53cm;""><p style='font-size: 30px; color: green;'><strong>Correct!</strong></p><p style='font-size: 30px;'><strong>This rock is obsidian</strong></p>","0","corr_feedback","1","train","3","","","","","","","",""
"","","","","","","","","","","","html-button-response","111","2.0.0","310750","6127c369bdff7dc17f0724a2","2","47","2933","","","","","","","","","<img src= ""rock_img/I_Pegmatite_08.jpg"" style=""width:8cm; height:7.68cm;""><p>What type of rock is this?</p>","3","class_response","1","train","4","Gabbro","Pegmatite","08","false","4","6","",""
"","","","","","","","","","","","html-button-response","112","2.0.0","312075","6127c369bdff7dc17f0724a2","2","47","1323","","","","","","","","","<img src= rock_img/I_Pegmatite_08.jpg style=""width:8cm; height:7.68cm;""><p style='font-size: 30px; color: red;'><strong>Incorrect!</strong></p><p style='font-size: 30px;'><strong>This rock is pegmatite</strong></p>","0","corr_feedback","1","train","4","","","","","","","",""
"","","","","","","","","","","","html-button-response","113","2.0.0","313502","6127c369bdff7dc17f0724a2","2","47","1425","","","","","","","","","<img src= ""rock_img/I_Gabbro_13.jpg"" style=""width:8cm; height:5.08cm;""><p>What type of rock is this?</p>","5","class_response","1","train","5","Pegmatite","Gabbro","13","false","6","4","",""
"","","","","","","","","","","","html-button-response","114","2.0.0","316508","6127c369bdff7dc17f0724a2","2","47","3005","","","","","","","","","<img src= rock_img/I_Gabbro_13.jpg style=""width:8cm; height:5.08cm;""><p style='font-size: 30px; color: red;'><strong>Incorrect!</strong></p><p style='font-size: 30px;'><strong>This rock is gabbro</strong></p>","0","corr_feedback","1","train","5","","","","","","","",""
"","","","","","","","","","","","html-button-response","115","2.0.0","318706","6127c369bdff7dc17f0724a2","2","47","2196","","","","","","","","","<img src= ""rock_img/I_Basalt_10.jpg"" style=""width:8cm; height:5.85cm;""><p>What type of rock is this?</p>","1","class_response","1","train","6","Basalt","Basalt","10","true","2","2","",""
"","","","","","","","","","","","html-button-response","116","2.0.0","320883","6127c369bdff7dc17f0724a2","2","47","2176","","","","","","","","","<img src= rock_img/I_Basalt_10.jpg style=""width:8cm; height:5.85cm;""><p style='font-size: 30px; color: green;'><strong>Correct!</strong></p><p style='font-size: 30px;'><strong>This rock is basalt</strong></p>","0","corr_feedback","1","train","6","","","","","","","",""
"","","","","","","","","","","","html-button-response","117","2.0.0","322418","6127c369bdff7dc17f0724a2","2","47","1534","","","","","","","","","<img src= ""rock_img/I_Pegmatite_10.jpg"" style=""width:8cm; height:4.16cm;""><p>What type of rock is this?</p>","0","class_response","1","train","7","Andesite","Pegmatite","10","false","1","6","",""
"","","","","","","","","","","","html-button-response","118","2.0.0","323652","6127c369bdff7dc17f0724a2","2","47","1233","","","","","","","","","<img src= rock_img/I_Pegmatite_10.jpg style=""width:8cm; height:4.16cm;""><p style='font-size: 30px; color: red;'><strong>Incorrect!</strong></p><p style='font-size: 30px;'><strong>This rock is pegmatite</strong></p>","0","corr_feedback","1","train","7","","","","","","","",""
"","","","","","","","","","","","html-button-response","119","2.0.0","325598","6127c369bdff7dc17f0724a2","2","47","1945","","","","","","","","","<img src= ""rock_img/I_Diorite_11.jpg"" style=""width:8cm; height:7.11cm;""><p>What type of rock is this?</p>","6","class_response","1","train","8","Peridotite","Diorite","11","false","7","3","",""
"","","","","","","","","","","","html-button-response","120","2.0.0","326782","6127c369bdff7dc17f0724a2","2","47","1182","","","","","","","","","<img src= rock_img/I_Diorite_11.jpg style=""width:8cm; height:7.11cm;""><p style='font-size: 30px; color: red;'><strong>Incorrect!</strong></p><p style='font-size: 30px;'><strong>This rock is diorite</strong></p>","0","corr_feedback","1","train","8","","","","","","","",""
"","","","","","","","","","","","html-button-response","121","2.0.0","328871","6127c369bdff7dc17f0724a2","2","47","2087","","","","","","","","","<img src= ""rock_img/I_Pegmatite_11.jpg"" style=""width:8cm; height:8.14cm;""><p>What type of rock is this?</p>","4","class_response","1","train","9","Obsidian","Pegmatite","11","false","5","6","",""
"","","","","","","","","","","","html-button-response","122","2.0.0","329898","6127c369bdff7dc17f0724a2","2","47","1027","","","","","","","","","<img src= rock_img/I_Pegmatite_11.jpg style=""width:8cm; height:8.14cm;""><p style='font-size: 30px; color: red;'><strong>Incorrect!</strong></p><p style='font-size: 30px;'><strong>This rock is pegmatite</strong></p>","0","corr_feedback","1","train","9","","","","","","","",""
"","","","","","","","","","","","html-button-response","123","2.0.0","331925","6127c369bdff7dc17f0724a2","2","47","2026","","","","","","","","","<img src= ""rock_img/I_Peridotite_13.jpg"" style=""width:8cm; height:7.58cm;""><p>What type of rock is this?</p>","6","class_response","1","train","10","Peridotite","Peridotite","13","true","7","7","",""
"","","","","","","","","","","","html-button-response","124","2.0.0","383946","6127c369bdff7dc17f0724a2","2","47","52018","","","","","","","","","<img src= rock_img/I_Peridotite_13.jpg style=""width:8cm; height:7.58cm;""><p style='font-size: 30px; color: green;'><strong>Correct!</strong></p><p style='font-size: 30px;'><strong>This rock is peridotite</strong></p>","0","corr_feedback","1","train","10","","","","","","","",""
"","","","","","","","","","","","html-button-response","125","2.0.0","386051","6127c369bdff7dc17f0724a2","2","47","2098","","","","","","","","","<img src= ""rock_img/I_Andesite_11.jpg"" style=""width:8cm; height:4.92cm;""><p>What type of rock is this?</p>","3","class_response","1","train","11","Gabbro","Andesite","11","false","4","1","",""
"","","","","","","","","","","","html-button-response","126","2.0.0","387122","6127c369bdff7dc17f0724a2","2","47","1070","","","","","","","","","<img src= rock_img/I_Andesite_11.jpg style=""width:8cm; height:4.92cm;""><p style='font-size: 30px; color: red;'><strong>Incorrect!</strong></p><p style='font-size: 30px;'><strong>This rock is andesite</strong></p>","0","corr_feedback","1","train","11","","","","","","","",""
"","","","","","","","","","","","html-button-response","127","2.0.0","388566","6127c369bdff7dc17f0724a2","2","47","1444","","","","","","","","","<img src= ""rock_img/I_Peridotite_02.jpg"" style=""width:8cm; height:5.859999999999999cm;""><p>What type of rock is this?</p>","6","class_response","1","train","12","Peridotite","Peridotite","02","true","7","7","",""
"","","","","","","","","","","","html-button-response","128","2.0.0","389651","6127c369bdff7dc17f0724a2","2","47","1083","","","","","","","","","<img src= rock_img/I_Peridotite_02.jpg style=""width:8cm; height:5.859999999999999cm;""><p style='font-size: 30px; color: green;'><strong>Correct!</strong></p><p style='font-size: 30px;'><strong>This rock is peridotite</strong></p>","0","corr_feedback","1","train","12","","","","","","","",""
"","","","","","","","","","","","html-button-response","129","2.0.0","390654","6127c369bdff7dc17f0724a2","2","47","1003","","","","","","","","","<img src= ""rock_img/I_Basalt_06.jpg"" style=""width:8cm; height:7.06cm;""><p>What type of rock is this?</p>","4","class_response","1","train","13","Obsidian","Basalt","06","false","5","2","",""
"","","","","","","","","","","","html-button-response","130","2.0.0","391550","6127c369bdff7dc17f0724a2","2","47","894","","","","","","","","","<img src= rock_img/I_Basalt_06.jpg style=""width:8cm; height:7.06cm;""><p style='font-size: 30px; color: red;'><strong>Incorrect!</strong></p><p style='font-size: 30px;'><strong>This rock is basalt</strong></p>","0","corr_feedback","1","train","13","","","","","","","",""
"","","","","","","","","","","","html-button-response","131","2.0.0","393204","6127c369bdff7dc17f0724a2","2","47","1654","","","","","","","","","<img src= ""rock_img/I_Pumice_02.jpg"" style=""width:8cm; height:7.3999999999999995cm;""><p>What type of rock is this?</p>","7","class_response","1","train","14","Pumice","Pumice","02","true","8","8","",""
"","","","","","","","","","","","html-button-response","132","2.0.0","394216","6127c369bdff7dc17f0724a2","2","47","1010","","","","","","","","","<img src= rock_img/I_Pumice_02.jpg style=""width:8cm; height:7.3999999999999995cm;""><p style='font-size: 30px; color: green;'><strong>Correct!</strong></p><p style='font-size: 30px;'><strong>This rock is pumice</strong></p>","0","corr_feedback","1","train","14","","","","","","","",""
"","","","","","","","","","","","html-button-response","133","2.0.0","397208","6127c369bdff7dc17f0724a2","2","47","2991","","","","","","","","","<img src= ""rock_img/I_Gabbro_16.jpg"" style=""width:8cm; height:6.44cm;""><p>What type of rock is this?</p>","3","class_response","1","train","15","Gabbro","Gabbro","16","true","4","4","",""
"","","","","","","","","","","","html-button-response","134","2.0.0","398371","6127c369bdff7dc17f0724a2","2","47","1158","","","","","","","","","<img src= rock_img/I_Gabbro_16.jpg style=""width:8cm; height:6.44cm;""><p style='font-size: 30px; color: green;'><strong>Correct!</strong></p><p style='font-size: 30px;'><strong>This rock is gabbro</strong></p>","0","corr_feedback","1","train","15","","","","","","","",""
"","","","","","","","","","","","html-button-response","135","2.0.0","400662","6127c369bdff7dc17f0724a2","2","47","2291","","","","","","","","","<img src= ""rock_img/I_Andesite_16.jpg"" style=""width:8cm; height:6.010000000000001cm;""><p>What type of rock is this?</p>","0","class_response","1","train","16","Andesite","Andesite","16","true","1","1","",""
"","","","","","","","","","","","html-button-response","136","2.0.0","401572","6127c369bdff7dc17f0724a2","2","47","909","","","","","","","","","<img src= rock_img/I_Andesite_16.jpg style=""width:8cm; height:6.010000000000001cm;""><p style='font-size: 30px; color: green;'><strong>Correct!</strong></p><p style='font-size: 30px;'><strong>This rock is andesite</strong></p>","0","corr_feedback","1","train","16","","","","","","","",""
"","","","","","","","","","","","html-button-response","137","2.0.0","404650","6127c369bdff7dc17f0724a2","2","47","3077","","","","","","","","","<img src= ""rock_img/I_Basalt_04.jpg"" style=""width:8cm; height:7.53cm;""><p>What type of rock is this?</p>","2","class_response","1","train","17","Diorite","Basalt","04","false","3","2","",""
"","","","","","","","","","","","html-button-response","138","2.0.0","405687","6127c369bdff7dc17f0724a2","2","47","1036","","","","","","","","","<img src= rock_img/I_Basalt_04.jpg style=""width:8cm; height:7.53cm;""><p style='font-size: 30px; color: red;'><strong>Incorrect!</strong></p><p style='font-size: 30px;'><strong>This rock is basalt</strong></p>","0","corr_feedback","1","train","17","","","","","","","",""
"","","","","","","","","","","","html-button-response","139","2.0.0","407020","6127c369bdff7dc17f0724a2","2","47","1333","","","","","","","","","<img src= ""rock_img/I_Pumice_14.jpg"" style=""width:8cm; height:6.39cm;""><p>What type of rock is this?</p>","7","class_response","1","train","18","Pumice","Pumice","14","true","8","8","",""
"","","","","","","","","","","","html-button-response","140","2.0.0","407882","6127c369bdff7dc17f0724a2","2","47","860","","","","","","","","","<img src= rock_img/I_Pumice_14.jpg style=""width:8cm; height:6.39cm;""><p style='font-size: 30px; color: green;'><strong>Correct!</strong></p><p style='font-size: 30px;'><strong>This rock is pumice</strong></p>","0","corr_feedback","1","train","18","","","","","","","",""
"","","","","","","","","","","","html-button-response","141","2.0.0","410617","6127c369bdff7dc17f0724a2","2","47","2733","","","","","","","","","<img src= ""rock_img/I_Basalt_04.jpg"" style=""width:8cm; height:7.53cm;""><p>What type of rock is this?</p>","0","class_response","1","train","19","Andesite","Basalt","04","false","1","2","",""
"","","","","","","","","","","","html-button-response","142","2.0.0","411482","6127c369bdff7dc17f0724a2","2","47","865","","","","","","","","","<img src= rock_img/I_Basalt_04.jpg style=""width:8cm; height:7.53cm;""><p style='font-size: 30px; color: red;'><strong>Incorrect!</strong></p><p style='font-size: 30px;'><strong>This rock is basalt</strong></p>","0","corr_feedback","1","train","19","","","","","","","",""
"","","","","","","","","","","","html-button-response","143","2.0.0","414516","6127c369bdff7dc17f0724a2","2","47","3033","","","","","","","","","<img src= ""rock_img/I_Gabbro_03.jpg"" style=""width:8cm; height:8.52cm;""><p>What type of rock is this?</p>","2","class_response","1","train","20","Diorite","Gabbro","03","false","3","4","",""
"","","","","","","","","","","","html-button-response","144","2.0.0","415250","6127c369bdff7dc17f0724a2","2","47","733","","","","","","","","","<img src= rock_img/I_Gabbro_03.jpg style=""width:8cm; height:8.52cm;""><p style='font-size: 30px; color: red;'><strong>Incorrect!</strong></p><p style='font-size: 30px;'><strong>This rock is gabbro</strong></p>","0","corr_feedback","1","train","20","","","","","","","",""
"","","","","","","","","","","","html-button-response","145","2.0.0","417366","6127c369bdff7dc17f0724a2","2","47","2115","","","","","","","","","<img src= ""rock_img/I_Diorite_15.jpg"" style=""width:8cm; height:5.54cm;""><p>What type of rock is this?</p>","3","class_response","1","train","21","Gabbro","Diorite","15","false","4","3","",""
"","","","","","","","","","","","html-button-response","146","2.0.0","418198","6127c369bdff7dc17f0724a2","2","47","831","","","","","","","","","<img src= rock_img/I_Diorite_15.jpg style=""width:8cm; height:5.54cm;""><p style='font-size: 30px; color: red;'><strong>Incorrect!</strong></p><p style='font-size: 30px;'><strong>This rock is diorite</strong></p>","0","corr_feedback","1","train","21","","","","","","","",""
"","","","","","","","","","","","html-button-response","147","2.0.0","420018","6127c369bdff7dc17f0724a2","2","47","1818","","","","","","","","","<img src= ""rock_img/I_Peridotite_10.jpg"" style=""width:8cm; height:5.390000000000001cm;""><p>What type of rock is this?</p>","6","class_response","1","train","22","Peridotite","Peridotite","10","true","7","7","",""
"","","","","","","","","","","","html-button-response","148","2.0.0","420804","6127c369bdff7dc17f0724a2","2","47","785","","","","","","","","","<img src= rock_img/I_Peridotite_10.jpg style=""width:8cm; height:5.390000000000001cm;""><p style='font-size: 30px; color: green;'><strong>Correct!</strong></p><p style='font-size: 30px;'><strong>This rock is peridotite</strong></p>","0","corr_feedback","1","train","22","","","","","","","",""
"","","","","","","","","","","","html-button-response","149","2.0.0","422116","6127c369bdff7dc17f0724a2","2","47","1312","","","","","","","","","<img src= ""rock_img/I_Obsidian_11.jpg"" style=""width:8cm; height:6.05cm;""><p>What type of rock is this?</p>","4","class_response","1","train","23","Obsidian","Obsidian","11","true","5","5","",""
"","","","","","","","","","","","html-button-response","150","2.0.0","422940","6127c369bdff7dc17f0724a2","2","47","823","","","","","","","","","<img src= rock_img/I_Obsidian_11.jpg style=""width:8cm; height:6.05cm;""><p style='font-size: 30px; color: green;'><strong>Correct!</strong></p><p style='font-size: 30px;'><strong>This rock is obsidian</strong></p>","0","corr_feedback","1","train","23","","","","","","","",""
"","","","","","","","","","","","html-button-response","151","2.0.0","425492","6127c369bdff7dc17f0724a2","2","47","2551","","","","","","","","","<img src= ""rock_img/I_Pegmatite_16.jpg"" style=""width:8cm; height:5.8cm;""><p>What type of rock is this?</p>","5","class_response","1","train","24","Pegmatite","Pegmatite","16","true","6","6","",""
"","","","","","","","","","","","html-button-response","152","2.0.0","426684","6127c369bdff7dc17f0724a2","2","47","1191","","","","","","","","","<img src= rock_img/I_Pegmatite_16.jpg style=""width:8cm; height:5.8cm;""><p style='font-size: 30px; color: green;'><strong>Correct!</strong></p><p style='font-size: 30px;'><strong>This rock is pegmatite</strong></p>","0","corr_feedback","1","train","24","","","","","","","",""
"","","","","","","","","","","","html-button-response","153","2.0.0","430250","6127c369bdff7dc17f0724a2","2","47","3564","","","","","","","","","<img src= ""rock_img/I_Andesite_02.jpg"" style=""width:8cm; height:8.5cm;""><p>What type of rock is this?</p>","6","class_response","1","train","25","Peridotite","Andesite","02","false","7","1","",""
"","","","","","","","","","","","html-button-response","154","2.0.0","431252","6127c369bdff7dc17f0724a2","2","47","1002","","","","","","","","","<img src= rock_img/I_Andesite_02.jpg style=""width:8cm; height:8.5cm;""><p style='font-size: 30px; color: red;'><strong>Incorrect!</strong></p><p style='font-size: 30px;'><strong>This rock is andesite</strong></p>","0","corr_feedback","1","train","25","","","","","","","",""
"","","","","","","","","","","","html-button-response","155","2.0.0","433732","6127c369bdff7dc17f0724a2","2","47","2479","","","","","","","","","<img src= ""rock_img/I_Gabbro_05.jpg"" style=""width:8cm; height:6cm;""><p>What type of rock is this?</p>","6","class_response","1","train","26","Peridotite","Gabbro","05","false","7","4","",""
"","","","","","","","","","","","html-button-response","156","2.0.0","434926","6127c369bdff7dc17f0724a2","2","47","1193","","","","","","","","","<img src= rock_img/I_Gabbro_05.jpg style=""width:8cm; height:6cm;""><p style='font-size: 30px; color: red;'><strong>Incorrect!</strong></p><p style='font-size: 30px;'><strong>This rock is gabbro</strong></p>","0","corr_feedback","1","train","26","","","","","","","",""
"","","","","","","","","","","","html-button-response","157","2.0.0","436166","6127c369bdff7dc17f0724a2","2","47","1239","","","","","","","","","<img src= ""rock_img/I_Obsidian_06.jpg"" style=""width:8cm; height:6.8cm;""><p>What type of rock is this?</p>","2","class_response","1","train","27","Diorite","Obsidian","06","false","3","5","",""
"","","","","","","","","","","","html-button-response","158","2.0.0","437645","6127c369bdff7dc17f0724a2","2","47","1476","","","","","","","","","<img src= rock_img/I_Obsidian_06.jpg style=""width:8cm; height:6.8cm;""><p style='font-size: 30px; color: red;'><strong>Incorrect!</strong></p><p style='font-size: 30px;'><strong>This rock is obsidian</strong></p>","0","corr_feedback","1","train","27","","","","","","","",""
"","","","","","","","","","","","html-button-response","159","2.0.0","441998","6127c369bdff7dc17f0724a2","2","47","4349","","","","","","","","","<img src= ""rock_img/I_Andesite_03.jpg"" style=""width:8cm; height:5.73cm;""><p>What type of rock is this?</p>","0","class_response","1","train","28","Andesite","Andesite","03","true","1","1","",""
"","","","","","","","","","","","html-button-response","160","2.0.0","442850","6127c369bdff7dc17f0724a2","2","47","850","","","","","","","","","<img src= rock_img/I_Andesite_03.jpg style=""width:8cm; height:5.73cm;""><p style='font-size: 30px; color: green;'><strong>Correct!</strong></p><p style='font-size: 30px;'><strong>This rock is andesite</strong></p>","0","corr_feedback","1","train","28","","","","","","","",""
"","","","","","","","","","","","html-button-response","161","2.0.0","445186","6127c369bdff7dc17f0724a2","2","47","2336","","","","","","","","","<img src= ""rock_img/I_Basalt_16.jpg"" style=""width:8cm; height:7.659999999999999cm;""><p>What type of rock is this?</p>","2","class_response","1","train","29","Diorite","Basalt","16","false","3","2","",""
"","","","","","","","","","","","html-button-response","162","2.0.0","446120","6127c369bdff7dc17f0724a2","2","47","933","","","","","","","","","<img src= rock_img/I_Basalt_16.jpg style=""width:8cm; height:7.659999999999999cm;""><p style='font-size: 30px; color: red;'><strong>Incorrect!</strong></p><p style='font-size: 30px;'><strong>This rock is basalt</strong></p>","0","corr_feedback","1","train","29","","","","","","","",""
"","","","","","","","","","","","html-button-response","163","2.0.0","447583","6127c369bdff7dc17f0724a2","2","47","1463","","","","","","","","","<img src= ""rock_img/I_Diorite_12.jpg"" style=""width:8cm; height:4.88cm;""><p>What type of rock is this?</p>","1","class_response","1","train","30","Basalt","Diorite","12","false","2","3","",""
"","","","","","","","","","","","html-button-response","164","2.0.0","448562","6127c369bdff7dc17f0724a2","2","47","978","","","","","","","","","<img src= rock_img/I_Diorite_12.jpg style=""width:8cm; height:4.88cm;""><p style='font-size: 30px; color: red;'><strong>Incorrect!</strong></p><p style='font-size: 30px;'><strong>This rock is diorite</strong></p>","0","corr_feedback","1","train","30","","","","","","","",""
"","","","","","","","","","","","html-button-response","165","2.0.0","450509","6127c369bdff7dc17f0724a2","2","47","1945","","","","","","","","","<img src= ""rock_img/I_Pumice_03.jpg"" style=""width:8cm; height:6.64cm;""><p>What type of rock is this?</p>","7","class_response","1","train","31","Pumice","Pumice","03","true","8","8","",""
"","","","","","","","","","","","html-button-response","166","2.0.0","451230","6127c369bdff7dc17f0724a2","2","47","715","","","","","","","","","<img src= rock_img/I_Pumice_03.jpg style=""width:8cm; height:6.64cm;""><p style='font-size: 30px; color: green;'><strong>Correct!</strong></p><p style='font-size: 30px;'><strong>This rock is pumice</strong></p>","0","corr_feedback","1","train","31","","","","","","","",""
"","","","","","","","","","","","html-button-response","167","2.0.0","455572","6127c369bdff7dc17f0724a2","2","47","4342","","","","","","","","","<img src= ""rock_img/I_Diorite_13.jpg"" style=""width:8cm; height:6.29cm;""><p>What type of rock is this?</p>","5","class_response","1","train","32","Pegmatite","Diorite","13","false","6","3","",""
"","","","","","","","","","","","html-button-response","168","2.0.0","456617","6127c369bdff7dc17f0724a2","2","47","1044","","","","","","","","","<img src= rock_img/I_Diorite_13.jpg style=""width:8cm; height:6.29cm;""><p style='font-size: 30px; color: red;'><strong>Incorrect!</strong></p><p style='font-size: 30px;'><strong>This rock is diorite</strong></p>","0","corr_feedback","1","train","32","","","","","","","",""
"","","","","","","","","","","","html-button-response","169","2.0.0","460526","6127c369bdff7dc17f0724a2","2","47","3908","","","","","","","","","<img src= ""rock_img/I_Basalt_12.jpg"" style=""width:8cm; height:6.010000000000001cm;""><p>What type of rock is this?</p>","1","class_response","1","train","33","Basalt","Basalt","12","true","2","2","",""
"","","","","","","","","","","","html-button-response","170","2.0.0","461750","6127c369bdff7dc17f0724a2","2","47","1224","","","","","","","","","<img src= rock_img/I_Basalt_12.jpg style=""width:8cm; height:6.010000000000001cm;""><p style='font-size: 30px; color: green;'><strong>Correct!</strong></p><p style='font-size: 30px;'><strong>This rock is basalt</strong></p>","0","corr_feedback","1","train","33","","","","","","","",""
"","","","","","","","","","","","html-button-response","171","2.0.0","463085","6127c369bdff7dc17f0724a2","2","47","1333","","","","","","","","","<img src= ""rock_img/I_Peridotite_12.jpg"" style=""width:8cm; height:4.54cm;""><p>What type of rock is this?</p>","6","class_response","1","train","34","Peridotite","Peridotite","12","true","7","7","",""
"","","","","","","","","","","","html-button-response","172","2.0.0","465817","6127c369bdff7dc17f0724a2","2","47","2731","","","","","","","","","<img src= rock_img/I_Peridotite_12.jpg style=""width:8cm; height:4.54cm;""><p style='font-size: 30px; color: green;'><strong>Correct!</strong></p><p style='font-size: 30px;'><strong>This rock is peridotite</strong></p>","0","corr_feedback","1","train","34","","","","","","","",""
"","","","","","","","","","","","html-button-response","173","2.0.0","467104","6127c369bdff7dc17f0724a2","2","47","1286","","","","","","","","","<img src= ""rock_img/I_Peridotite_16.jpg"" style=""width:8cm; height:6.989999999999999cm;""><p>What type of rock is this?</p>","6","class_response","1","train","35","Peridotite","Peridotite","16","true","7","7","",""
"","","","","","","","","","","","html-button-response","174","2.0.0","467850","6127c369bdff7dc17f0724a2","2","47","745","","","","","","","","","<img src= rock_img/I_Peridotite_16.jpg style=""width:8cm; height:6.989999999999999cm;""><p style='font-size: 30px; color: green;'><strong>Correct!</strong></p><p style='font-size: 30px;'><strong>This rock is peridotite</strong></p>","0","corr_feedback","1","train","35","","","","","","","",""
"","","","","","","","","","","","html-button-response","175","2.0.0","470116","6127c369bdff7dc17f0724a2","2","47","2264","","","","","","","","","<img src= ""rock_img/I_Diorite_07.jpg"" style=""width:8cm; height:5.239999999999999cm;""><p>What type of rock is this?</p>","1","class_response","1","train","36","Basalt","Diorite","07","false","2","3","",""
"","","","","","","","","","","","html-button-response","176","2.0.0","472554","6127c369bdff7dc17f0724a2","2","47","2437","","","","","","","","","<img src= rock_img/I_Diorite_07.jpg style=""width:8cm; height:5.239999999999999cm;""><p style='font-size: 30px; color: red;'><strong>Incorrect!</strong></p><p style='font-size: 30px;'><strong>This rock is diorite</strong></p>","0","corr_feedback","1","train","36","","","","","","","",""
"","","","","","","","","","","","html-button-response","177","2.0.0","474970","6127c369bdff7dc17f0724a2","2","47","2415","","","","","","","","","<img src= ""rock_img/I_Pegmatite_15.jpg"" style=""width:8cm; height:6cm;""><p>What type of rock is this?</p>","4","class_response","1","train","37","Obsidian","Pegmatite","15","false","5","6","",""
"","","","","","","","","","","","html-button-response","178","2.0.0","475934","6127c369bdff7dc17f0724a2","2","47","963","","","","","","","","","<img src= rock_img/I_Pegmatite_15.jpg style=""width:8cm; height:6cm;""><p style='font-size: 30px; color: red;'><strong>Incorrect!</strong></p><p style='font-size: 30px;'><strong>This rock is pegmatite</strong></p>","0","corr_feedback","1","train","37","","","","","","","",""
"","","","","","","","","","","","html-button-response","179","2.0.0","477804","6127c369bdff7dc17f0724a2","2","47","1869","","","","","","","","","<img src= ""rock_img/I_Basalt_05.jpg"" style=""width:8cm; height:8.18cm;""><p>What type of rock is this?</p>","0","class_response","1","train","38","Andesite","Basalt","05","false","1","2","",""
"","","","","","","","","","","","html-button-response","180","2.0.0","478636","6127c369bdff7dc17f0724a2","2","47","831","","","","","","","","","<img src= rock_img/I_Basalt_05.jpg style=""width:8cm; height:8.18cm;""><p style='font-size: 30px; color: red;'><strong>Incorrect!</strong></p><p style='font-size: 30px;'><strong>This rock is basalt</strong></p>","0","corr_feedback","1","train","38","","","","","","","",""
"","","","","","","","","","","","html-button-response","181","2.0.0","480321","6127c369bdff7dc17f0724a2","2","47","1685","","","","","","","","","<img src= ""rock_img/I_Pegmatite_11.jpg"" style=""width:8cm; height:8.14cm;""><p>What type of rock is this?</p>","4","class_response","1","train","39","Obsidian","Pegmatite","11","false","5","6","",""
"","","","","","","","","","","","html-button-response","182","2.0.0","481201","6127c369bdff7dc17f0724a2","2","47","879","","","","","","","","","<img src= rock_img/I_Pegmatite_11.jpg style=""width:8cm; height:8.14cm;""><p style='font-size: 30px; color: red;'><strong>Incorrect!</strong></p><p style='font-size: 30px;'><strong>This rock is pegmatite</strong></p>","0","corr_feedback","1","train","39","","","","","","","",""
"","","","","","","","","","","","html-button-response","183","2.0.0","484716","6127c369bdff7dc17f0724a2","2","47","3512","","","","","","","","","<img src= ""rock_img/I_Andesite_05.jpg"" style=""width:8cm; height:4.12cm;""><p>What type of rock is this?</p>","5","class_response","1","train","40","Pegmatite","Andesite","05","false","6","1","",""
"","","","","","","","","","","","html-button-response","184","2.0.0","485449","6127c369bdff7dc17f0724a2","2","47","732","","","","","","","","","<img src= rock_img/I_Andesite_05.jpg style=""width:8cm; height:4.12cm;""><p style='font-size: 30px; color: red;'><strong>Incorrect!</strong></p><p style='font-size: 30px;'><strong>This rock is andesite</strong></p>","0","corr_feedback","1","train","40","","","","","","","",""
"","","","","","","","","","","","html-button-response","185","2.0.0","486816","6127c369bdff7dc17f0724a2","2","47","1366","","","","","","","","","<img src= ""rock_img/I_Gabbro_14.jpg"" style=""width:8cm; height:8.48cm;""><p>What type of rock is this?</p>","1","class_response","1","train","41","Basalt","Gabbro","14","false","2","4","",""
"","","","","","","","","","","","html-button-response","186","2.0.0","487616","6127c369bdff7dc17f0724a2","2","47","799","","","","","","","","","<img src= rock_img/I_Gabbro_14.jpg style=""width:8cm; height:8.48cm;""><p style='font-size: 30px; color: red;'><strong>Incorrect!</strong></p><p style='font-size: 30px;'><strong>This rock is gabbro</strong></p>","0","corr_feedback","1","train","41","","","","","","","",""
"","","","","","","","","","","","html-button-response","187","2.0.0","490292","6127c369bdff7dc17f0724a2","2","47","2675","","","","","","","","","<img src= ""rock_img/I_Diorite_15.jpg"" style=""width:8cm; height:5.54cm;""><p>What type of rock is this?</p>","3","class_response","1","train","42","Gabbro","Diorite","15","false","4","3","",""
"","","","","","","","","","","","html-button-response","188","2.0.0","490982","6127c369bdff7dc17f0724a2","2","47","690","","","","","","","","","<img src= rock_img/I_Diorite_15.jpg style=""width:8cm; height:5.54cm;""><p style='font-size: 30px; color: red;'><strong>Incorrect!</strong></p><p style='font-size: 30px;'><strong>This rock is diorite</strong></p>","0","corr_feedback","1","train","42","","","","","","","",""
"","","","","","","","","","","","html-button-response","189","2.0.0","493306","6127c369bdff7dc17f0724a2","2","47","2323","","","","","","","","","<img src= ""rock_img/I_Pumice_04.jpg"" style=""width:8cm; height:6.819999999999999cm;""><p>What type of rock is this?</p>","7","class_response","1","train","43","Pumice","Pumice","04","true","8","8","",""
"","","","","","","","","","","","html-button-response","190","2.0.0","493982","6127c369bdff7dc17f0724a2","2","47","676","","","","","","","","","<img src= rock_img/I_Pumice_04.jpg style=""width:8cm; height:6.819999999999999cm;""><p style='font-size: 30px; color: green;'><strong>Correct!</strong></p><p style='font-size: 30px;'><strong>This rock is pumice</strong></p>","0","corr_feedback","1","train","43","","","","","","","",""
"","","","","","","","","","","","html-button-response","191","2.0.0","496390","6127c369bdff7dc17f0724a2","2","47","2407","","","","","","","","","<img src= ""rock_img/I_Andesite_07.jpg"" style=""width:8cm; height:5.93cm;""><p>What type of rock is this?</p>","2","class_response","1","train","44","Diorite","Andesite","07","false","3","1","",""
"","","","","","","","","","","","html-button-response","192","2.0.0","497284","6127c369bdff7dc17f0724a2","2","47","893","","","","","","","","","<img src= rock_img/I_Andesite_07.jpg style=""width:8cm; height:5.93cm;""><p style='font-size: 30px; color: red;'><strong>Incorrect!</strong></p><p style='font-size: 30px;'><strong>This rock is andesite</strong></p>","0","corr_feedback","1","train","44","","","","","","","",""
"","","","","","","","","","","","html-button-response","193","2.0.0","499287","6127c369bdff7dc17f0724a2","2","47","2002","","","","","","","","","<img src= ""rock_img/I_Basalt_12.jpg"" style=""width:8cm; height:6.010000000000001cm;""><p>What type of rock is this?</p>","1","class_response","1","train","45","Basalt","Basalt","12","true","2","2","",""
"","","","","","","","","","","","html-button-response","194","2.0.0","499994","6127c369bdff7dc17f0724a2","2","47","706","","","","","","","","","<img src= rock_img/I_Basalt_12.jpg style=""width:8cm; height:6.010000000000001cm;""><p style='font-size: 30px; color: green;'><strong>Correct!</strong></p><p style='font-size: 30px;'><strong>This rock is basalt</strong></p>","0","corr_feedback","1","train","45","","","","","","","",""
"","","","","","","","","","","","html-button-response","195","2.0.0","501140","6127c369bdff7dc17f0724a2","2","47","1145","","","","","","","","","<img src= ""rock_img/I_Peridotite_08.jpg"" style=""width:8cm; height:6.7cm;""><p>What type of rock is this?</p>","6","class_response","1","train","46","Peridotite","Peridotite","08","true","7","7","",""
"","","","","","","","","","","","html-button-response","196","2.0.0","501760","6127c369bdff7dc17f0724a2","2","47","619","","","","","","","","","<img src= rock_img/I_Peridotite_08.jpg style=""width:8cm; height:6.7cm;""><p style='font-size: 30px; color: green;'><strong>Correct!</strong></p><p style='font-size: 30px;'><strong>This rock is peridotite</strong></p>","0","corr_feedback","1","train","46","","","","","","","",""
"","","","","","","","","","","","html-button-response","197","2.0.0","505558","6127c369bdff7dc17f0724a2","2","47","3797","","","","","","","","","<img src= ""rock_img/I_Gabbro_01.jpg"" style=""width:8cm; height:5.21cm;""><p>What type of rock is this?</p>","0","class_response","1","train","47","Andesite","Gabbro","01","false","1","4","",""
"","","","","","","","","","","","html-button-response","198","2.0.0","506532","6127c369bdff7dc17f0724a2","2","47","973","","","","","","","","","<img src= rock_img/I_Gabbro_01.jpg style=""width:8cm; height:5.21cm;""><p style='font-size: 30px; color: red;'><strong>Incorrect!</strong></p><p style='font-size: 30px;'><strong>This rock is gabbro</strong></p>","0","corr_feedback","1","train","47","","","","","","","",""
"","","","","","","","","","","","html-button-response","199","2.0.0","508006","6127c369bdff7dc17f0724a2","2","47","1473","","","","","","","","","<img src= ""rock_img/I_Pegmatite_12.jpg"" style=""width:8cm; height:5.7cm;""><p>What type of rock is this?</p>","0","class_response","1","train","48","Andesite","Pegmatite","12","false","1","6","",""
"","","","","","","","","","","","html-button-response","200","2.0.0","508838","6127c369bdff7dc17f0724a2","2","47","831","","","","","","","","","<img src= rock_img/I_Pegmatite_12.jpg style=""width:8cm; height:5.7cm;""><p style='font-size: 30px; color: red;'><strong>Incorrect!</strong></p><p style='font-size: 30px;'><strong>This rock is pegmatite</strong></p>","0","corr_feedback","1","train","48","","","","","","","",""
"","","","","","","","","","","","instructions","203","2.0.0","640953","6127c369bdff7dc17f0724a2","2","47","132115","","","","","","","","[{""page_index"":0,""viewing_time"":85221},{""page_index"":1,""viewing_time"":46893}]","","","","","","","","","","","","","",""
"","","","","","","","","","","","html-button-response","204","2.0.0","646971","6127c369bdff7dc17f0724a2","2","47","6018","","","","","","","","","","0","start_test","","","","","","","","","","",""
"","","","","","","","","","","","html-button-response","205","2.0.0","653186","6127c369bdff7dc17f0724a2","2","47","6213","","","","","","","","","<img src= ""rock_img/I_Andesite_01.jpg"" style=""width:8cm; height:5.87cm;""><p>What type of rock is this?</p>","1","class_response","1","test","1","Basalt","Andesite","01","false","2","1","",""
"","","","","","","","","","","","html-keyboard-response","206","2.0.0","653689","6127c369bdff7dc17f0724a2","2","47","null","","","","","","","","","<p style='font-size: 30px;'><strong>Okay</strong></p>","null","neutral_feedback","1","test","1","","","","","","","",""
"","","","","","","","","","","","html-button-response","207","2.0.0","654917","6127c369bdff7dc17f0724a2","2","47","1227","","","","","","","","","<img src= ""rock_img/I_Obsidian_10.jpg"" style=""width:8cm; height:6.260000000000001cm;""><p>What type of rock is this?</p>","4","class_response","1","test","2","Obsidian","Obsidian","10","true","5","5","",""
"","","","","","","","","","","","html-keyboard-response","208","2.0.0","655428","6127c369bdff7dc17f0724a2","2","47","null","","","","","","","","","<p style='font-size: 30px;'><strong>Okay</strong></p>","null","neutral_feedback","1","test","2","","","","","","","",""
"","","","","","","","","","","","html-button-response","209","2.0.0","658309","6127c369bdff7dc17f0724a2","2","47","2879","","","","","","","","","<img src= ""rock_img/I_Gabbro_12.jpg"" style=""width:8cm; height:7.800000000000001cm;""><p>What type of rock is this?</p>","1","class_response","1","test","3","Basalt","Gabbro","12","false","2","4","",""
"","","","","","","","","","","","html-keyboard-response","210","2.0.0","658814","6127c369bdff7dc17f0724a2","2","47","null","","","","","","","","","<p style='font-size: 30px;'><strong>Okay</strong></p>","null","neutral_feedback","1","test","3","","","","","","","",""
"","","","","","","","","","","","html-button-response","211","2.0.0","659893","6127c369bdff7dc17f0724a2","2","47","1078","","","","","","","","","<img src= ""rock_img/I_Peridotite_06.jpg"" style=""width:8cm; height:7.53cm;""><p>What type of rock is this?</p>","6","class_response","1","test","4","Peridotite","Peridotite","06","true","7","7","",""
"","","","","","","","","","","","html-keyboard-response","212","2.0.0","660399","6127c369bdff7dc17f0724a2","2","47","null","","","","","","","","","<p style='font-size: 30px;'><strong>Okay</strong></p>","null","neutral_feedback","1","test","4","","","","","","","",""
"","","","","","","","","","","","html-button-response","213","2.0.0","662416","6127c369bdff7dc17f0724a2","2","47","2015","","","","","","","","","<img src= ""rock_img/I_Pumice_13.jpg"" style=""width:8cm; height:8.200000000000001cm;""><p>What type of rock is this?</p>","7","class_response","1","test","5","Pumice","Pumice","13","true","8","8","",""
"","","","","","","","","","","","html-keyboard-response","214","2.0.0","662932","6127c369bdff7dc17f0724a2","2","47","null","","","","","","","","","<p style='font-size: 30px;'><strong>Okay</strong></p>","null","neutral_feedback","1","test","5","","","","","","","",""
"","","","","","","","","","","","html-button-response","215","2.0.0","665374","6127c369bdff7dc17f0724a2","2","47","2441","","","","","","","","","<img src= ""rock_img/I_Pegmatite_13.jpg"" style=""width:8cm; height:4.95cm;""><p>What type of rock is this?</p>","3","class_response","1","test","6","Gabbro","Pegmatite","13","false","4","6","",""
"","","","","","","","","","","","html-keyboard-response","216","2.0.0","665888","6127c369bdff7dc17f0724a2","2","47","null","","","","","","","","","<p style='font-size: 30px;'><strong>Okay</strong></p>","null","neutral_feedback","1","test","6","","","","","","","",""
"","","","","","","","","","","","html-button-response","217","2.0.0","668017","6127c369bdff7dc17f0724a2","2","47","2125","","","","","","","","","<img src= ""rock_img/I_Andesite_10.jpg"" style=""width:8cm; height:4.16cm;""><p>What type of rock is this?</p>","2","class_response","1","test","7","Diorite","Andesite","10","false","3","1","",""
"","","","","","","","","","","","html-keyboard-response","218","2.0.0","668523","6127c369bdff7dc17f0724a2","2","47","null","","","","","","","","","<p style='font-size: 30px;'><strong>Okay</strong></p>","null","neutral_feedback","1","test","7","","","","","","","",""
"","","","","","","","","","","","html-button-response","219","2.0.0","671015","6127c369bdff7dc17f0724a2","2","47","2490","","","","","","","","","<img src= ""rock_img/I_Peridotite_07.jpg"" style=""width:8cm; height:4.83cm;""><p>What type of rock is this?</p>","6","class_response","1","test","8","Peridotite","Peridotite","07","true","7","7","",""
"","","","","","","","","","","","html-keyboard-response","220","2.0.0","671528","6127c369bdff7dc17f0724a2","2","47","null","","","","","","","","","<p style='font-size: 30px;'><strong>Okay</strong></p>","null","neutral_feedback","1","test","8","","","","","","","",""
"","","","","","","","","","","","html-button-response","221","2.0.0","674716","6127c369bdff7dc17f0724a2","2","47","3187","","","","","","","","","<img src= ""rock_img/I_Gabbro_10.jpg"" style=""width:8cm; height:5.680000000000001cm;""><p>What type of rock is this?</p>","1","class_response","1","test","9","Basalt","Gabbro","10","false","2","4","",""
"","","","","","","","","","","","html-keyboard-response","222","2.0.0","675217","6127c369bdff7dc17f0724a2","2","47","null","","","","","","","","","<p style='font-size: 30px;'><strong>Okay</strong></p>","null","neutral_feedback","1","test","9","","","","","","","",""
"","","","","","","","","","","","html-button-response","223","2.0.0","678283","6127c369bdff7dc17f0724a2","2","47","3066","","","","","","","","","<img src= ""rock_img/I_Basalt_11.jpg"" style=""width:8cm; height:5.359999999999999cm;""><p>What type of rock is this?</p>","0","class_response","1","test","10","Andesite","Basalt","11","false","1","2","",""
"","","","","","","","","","","","html-keyboard-response","224","2.0.0","678790","6127c369bdff7dc17f0724a2","2","47","null","","","","","","","","","<p style='font-size: 30px;'><strong>Okay</strong></p>","null","neutral_feedback","1","test","10","","","","","","","",""
"","","","","","","","","","","","html-button-response","225","2.0.0","681431","6127c369bdff7dc17f0724a2","2","47","2640","","","","","","","","","<img src= ""rock_img/I_Diorite_10.jpg"" style=""width:8cm; height:5.949999999999999cm;""><p>What type of rock is this?</p>","2","class_response","1","test","11","Diorite","Diorite","10","true","3","3","",""
"","","","","","","","","","","","html-keyboard-response","226","2.0.0","681947","6127c369bdff7dc17f0724a2","2","47","null","","","","","","","","","<p style='font-size: 30px;'><strong>Okay</strong></p>","null","neutral_feedback","1","test","11","","","","","","","",""
"","","","","","","","","","","","html-button-response","227","2.0.0","683206","6127c369bdff7dc17f0724a2","2","47","1257","","","","","","","","","<img src= ""rock_img/I_Peridotite_04.jpg"" style=""width:8cm; height:6.680000000000001cm;""><p>What type of rock is this?</p>","6","class_response","1","test","12","Peridotite","Peridotite","04","true","7","7","",""
"","","","","","","","","","","","html-keyboard-response","228","2.0.0","683715","6127c369bdff7dc17f0724a2","2","47","null","","","","","","","","","<p style='font-size: 30px;'><strong>Okay</strong></p>","null","neutral_feedback","1","test","12","","","","","","","",""
"","","","","","","","","","","","html-button-response","229","2.0.0","684665","6127c369bdff7dc17f0724a2","2","47","950","","","","","","","","","<img src= ""rock_img/I_Pumice_05.jpg"" style=""width:8cm; height:7.25cm;""><p>What type of rock is this?</p>","6","class_response","1","test","13","Peridotite","Pumice","05","false","7","8","",""
"","","","","","","","","","","","html-keyboard-response","230","2.0.0","685176","6127c369bdff7dc17f0724a2","2","47","null","","","","","","","","","<p style='font-size: 30px;'><strong>Okay</strong></p>","null","neutral_feedback","1","test","13","","","","","","","",""
"","","","","","","","","","","","html-button-response","231","2.0.0","687851","6127c369bdff7dc17f0724a2","2","47","2671","","","","","","","","","<img src= ""rock_img/I_Basalt_01.jpg"" style=""width:8cm; height:7.880000000000001cm;""><p>What type of rock is this?</p>","0","class_response","1","test","14","Andesite","Basalt","01","false","1","2","",""
"","","","","","","","","","","","html-keyboard-response","232","2.0.0","688358","6127c369bdff7dc17f0724a2","2","47","null","","","","","","","","","<p style='font-size: 30px;'><strong>Okay</strong></p>","null","neutral_feedback","1","test","14","","","","","","","",""
"","","","","","","","","","","","html-button-response","233","2.0.0","689631","6127c369bdff7dc17f0724a2","2","47","1272","","","","","","","","","<img src= ""rock_img/I_Pegmatite_09.jpg"" style=""width:8cm; height:4.03cm;""><p>What type of rock is this?</p>","6","class_response","1","test","15","Peridotite","Pegmatite","09","false","7","6","",""
"","","","","","","","","","","","html-keyboard-response","234","2.0.0","690138","6127c369bdff7dc17f0724a2","2","47","null","","","","","","","","","<p style='font-size: 30px;'><strong>Okay</strong></p>","null","neutral_feedback","1","test","15","","","","","","","",""
"","","","","","","","","","","","html-button-response","235","2.0.0","693006","6127c369bdff7dc17f0724a2","2","47","2867","","","","","","","","","<img src= ""rock_img/I_Andesite_06.jpg"" style=""width:8cm; height:6.840000000000001cm;""><p>What type of rock is this?</p>","3","class_response","1","test","16","Gabbro","Andesite","06","false","4","1","",""
"","","","","","","","","","","","html-keyboard-response","236","2.0.0","693516","6127c369bdff7dc17f0724a2","2","47","null","","","","","","","","","<p style='font-size: 30px;'><strong>Okay</strong></p>","null","neutral_feedback","1","test","16","","","","","","","",""
"","","","","","","","","","","","html-button-response","237","2.0.0","695250","6127c369bdff7dc17f0724a2","2","47","1732","","","","","","","","","<img src= ""rock_img/I_Basalt_02.jpg"" style=""width:8cm; height:6.45cm;""><p>What type of rock is this?</p>","1","class_response","1","test","17","Basalt","Basalt","02","true","2","2","",""
"","","","","","","","","","","","html-keyboard-response","238","2.0.0","695758","6127c369bdff7dc17f0724a2","2","47","null","","","","","","","","","<p style='font-size: 30px;'><strong>Okay</strong></p>","null","neutral_feedback","1","test","17","","","","","","","",""
"","","","","","","","","","","","html-button-response","239","2.0.0","697189","6127c369bdff7dc17f0724a2","2","47","1431","","","","","","","","","<img src= ""rock_img/I_Obsidian_07.jpg"" style=""width:8cm; height:4.76cm;""><p>What type of rock is this?</p>","4","class_response","1","test","18","Obsidian","Obsidian","07","true","5","5","",""
"","","","","","","","","","","","html-keyboard-response","240","2.0.0","697694","6127c369bdff7dc17f0724a2","2","47","null","","","","","","","","","<p style='font-size: 30px;'><strong>Okay</strong></p>","null","neutral_feedback","1","test","18","","","","","","","",""
"","","","","","","","","","","","html-button-response","241","2.0.0","699229","6127c369bdff7dc17f0724a2","2","47","1534","","","","","","","","","<img src= ""rock_img/I_Gabbro_15.jpg"" style=""width:8cm; height:6.29cm;""><p>What type of rock is this?</p>","5","class_response","1","test","19","Pegmatite","Gabbro","15","false","6","4","",""
"","","","","","","","","","","","html-keyboard-response","242","2.0.0","699731","6127c369bdff7dc17f0724a2","2","47","null","","","","","","","","","<p style='font-size: 30px;'><strong>Okay</strong></p>","null","neutral_feedback","1","test","19","","","","","","","",""
"","","","","","","","","","","","html-button-response","243","2.0.0","701090","6127c369bdff7dc17f0724a2","2","47","1356","","","","","","","","","<img src= ""rock_img/I_Peridotite_05.jpg"" style=""width:8cm; height:7.1499999999999995cm;""><p>What type of rock is this?</p>","6","class_response","1","test","20","Peridotite","Peridotite","05","true","7","7","",""
"","","","","","","","","","","","html-keyboard-response","244","2.0.0","701594","6127c369bdff7dc17f0724a2","2","47","null","","","","","","","","","<p style='font-size: 30px;'><strong>Okay</strong></p>","null","neutral_feedback","1","test","20","","","","","","","",""
"","","","","","","","","","","","html-button-response","245","2.0.0","713153","6127c369bdff7dc17f0724a2","2","47","11558","","","","","","","","","<img src= ""rock_img/I_Diorite_06.jpg"" style=""width:8cm; height:6.03cm;""><p>What type of rock is this?</p>","3","class_response","1","test","21","Gabbro","Diorite","06","false","4","3","",""
"","","","","","","","","","","","html-keyboard-response","246","2.0.0","713668","6127c369bdff7dc17f0724a2","2","47","null","","","","","","","","","<p style='font-size: 30px;'><strong>Okay</strong></p>","null","neutral_feedback","1","test","21","","","","","","","",""
"","","","","","","","","","","","html-button-response","247","2.0.0","715391","6127c369bdff7dc17f0724a2","2","47","1721","","","","","","","","","<img src= ""rock_img/I_Pegmatite_05.jpg"" style=""width:8cm; height:7.300000000000001cm;""><p>What type of rock is this?</p>","4","class_response","1","test","22","Obsidian","Pegmatite","05","false","5","6","",""
"","","","","","","","","","","","html-keyboard-response","248","2.0.0","715900","6127c369bdff7dc17f0724a2","2","47","null","","","","","","","","","<p style='font-size: 30px;'><strong>Okay</strong></p>","null","neutral_feedback","1","test","22","","","","","","","",""
"","","","","","","","","","","","html-button-response","249","2.0.0","718783","6127c369bdff7dc17f0724a2","2","47","2882","","","","","","","","","<img src= ""rock_img/I_Basalt_08.jpg"" style=""width:8cm; height:10.44cm;""><p>What type of rock is this?</p>","1","class_response","1","test","23","Basalt","Basalt","08","true","2","2","",""
"","","","","","","","","","","","html-keyboard-response","250","2.0.0","719298","6127c369bdff7dc17f0724a2","2","47","null","","","","","","","","","<p style='font-size: 30px;'><strong>Okay</strong></p>","null","neutral_feedback","1","test","23","","","","","","","",""
"","","","","","","","","","","","html-button-response","251","2.0.0","720751","6127c369bdff7dc17f0724a2","2","47","1453","","","","","","","","","<img src= ""rock_img/I_Andesite_09.jpg"" style=""width:8cm; height:6cm;""><p>What type of rock is this?</p>","0","class_response","1","test","24","Andesite","Andesite","09","true","1","1","",""
"","","","","","","","","","","","html-keyboard-response","252","2.0.0","721255","6127c369bdff7dc17f0724a2","2","47","null","","","","","","","","","<p style='font-size: 30px;'><strong>Okay</strong></p>","null","neutral_feedback","1","test","24","","","","","","","",""
"","","","","","","","","","","","html-button-response","253","2.0.0","725255","6127c369bdff7dc17f0724a2","2","47","3999","","","","","","","","","<img src= ""rock_img/I_Pegmatite_03.jpg"" style=""width:8cm; height:5.239999999999999cm;""><p>What type of rock is this?</p>","2","class_response","1","test","25","Diorite","Pegmatite","03","false","3","6","",""
"","","","","","","","","","","","html-keyboard-response","254","2.0.0","725760","6127c369bdff7dc17f0724a2","2","47","null","","","","","","","","","<p style='font-size: 30px;'><strong>Okay</strong></p>","null","neutral_feedback","1","test","25","","","","","","","",""
"","","","","","","","","","","","html-button-response","255","2.0.0","727482","6127c369bdff7dc17f0724a2","2","47","1721","","","","","","","","","<img src= ""rock_img/I_Basalt_14.jpg"" style=""width:8cm; height:5.82cm;""><p>What type of rock is this?</p>","5","class_response","1","test","26","Pegmatite","Basalt","14","false","6","2","",""
"","","","","","","","","","","","html-keyboard-response","256","2.0.0","727985","6127c369bdff7dc17f0724a2","2","47","null","","","","","","","","","<p style='font-size: 30px;'><strong>Okay</strong></p>","null","neutral_feedback","1","test","26","","","","","","","",""
"","","","","","","","","","","","html-button-response","257","2.0.0","729008","6127c369bdff7dc17f0724a2","2","47","1021","","","","","","","","","<img src= ""rock_img/I_Obsidian_04.jpg"" style=""width:8cm; height:6.930000000000001cm;""><p>What type of rock is this?</p>","4","class_response","1","test","27","Obsidian","Obsidian","04","true","5","5","",""
"","","","","","","","","","","","html-keyboard-response","258","2.0.0","729527","6127c369bdff7dc17f0724a2","2","47","null","","","","","","","","","<p style='font-size: 30px;'><strong>Okay</strong></p>","null","neutral_feedback","1","test","27","","","","","","","",""
"","","","","","","","","","","","html-button-response","259","2.0.0","731229","6127c369bdff7dc17f0724a2","2","47","1701","","","","","","","","","<img src= ""rock_img/I_Andesite_14.jpg"" style=""width:8cm; height:5.449999999999999cm;""><p>What type of rock is this?</p>","0","class_response","1","test","28","Andesite","Andesite","14","true","1","1","",""
"","","","","","","","","","","","html-keyboard-response","260","2.0.0","731730","6127c369bdff7dc17f0724a2","2","47","null","","","","","","","","","<p style='font-size: 30px;'><strong>Okay</strong></p>","null","neutral_feedback","1","test","28","","","","","","","",""
"","","","","","","","","","","","html-button-response","261","2.0.0","736815","6127c369bdff7dc17f0724a2","2","47","5083","","","","","","","","","<img src= ""rock_img/I_Basalt_09.jpg"" style=""width:8cm; height:6.2cm;""><p>What type of rock is this?</p>","1","class_response","1","test","29","Basalt","Basalt","09","true","2","2","",""
"","","","","","","","","","","","html-keyboard-response","262","2.0.0","737321","6127c369bdff7dc17f0724a2","2","47","null","","","","","","","","","<p style='font-size: 30px;'><strong>Okay</strong></p>","null","neutral_feedback","1","test","29","","","","","","","",""
"","","","","","","","","","","","html-button-response","263","2.0.0","738285","6127c369bdff7dc17f0724a2","2","47","963","","","","","","","","","<img src= ""rock_img/I_Pumice_10.jpg"" style=""width:8cm; height:7.609999999999999cm;""><p>What type of rock is this?</p>","7","class_response","1","test","30","Pumice","Pumice","10","true","8","8","",""
"","","","","","","","","","","","html-keyboard-response","264","2.0.0","738800","6127c369bdff7dc17f0724a2","2","47","null","","","","","","","","","<p style='font-size: 30px;'><strong>Okay</strong></p>","null","neutral_feedback","1","test","30","","","","","","","",""
"","","","","","","","","","","","html-button-response","265","2.0.0","739840","6127c369bdff7dc17f0724a2","2","47","1039","","","","","","","","","<img src= ""rock_img/I_Obsidian_08.jpg"" style=""width:8cm; height:7.39cm;""><p>What type of rock is this?</p>","4","class_response","1","test","31","Obsidian","Obsidian","08","true","5","5","",""
"","","","","","","","","","","","html-keyboard-response","266","2.0.0","740350","6127c369bdff7dc17f0724a2","2","47","null","","","","","","","","","<p style='font-size: 30px;'><strong>Okay</strong></p>","null","neutral_feedback","1","test","31","","","","","","","",""
"","","","","","","","","","","","html-button-response","267","2.0.0","741385","6127c369bdff7dc17f0724a2","2","47","1034","","","","","","","","","<img src= ""rock_img/I_Peridotite_14.jpg"" style=""width:8cm; height:5.3cm;""><p>What type of rock is this?</p>","6","class_response","1","test","32","Peridotite","Peridotite","14","true","7","7","",""
"","","","","","","","","","","","html-keyboard-response","268","2.0.0","741896","6127c369bdff7dc17f0724a2","2","47","null","","","","","","","","","<p style='font-size: 30px;'><strong>Okay</strong></p>","null","neutral_feedback","1","test","32","","","","","","","",""
"","","","","","","","","","","","html-button-response","269","2.0.0","743582","6127c369bdff7dc17f0724a2","2","47","1685","","","","","","","","","<img src= ""rock_img/I_Gabbro_11.jpg"" style=""width:8cm; height:6.2cm;""><p>What type of rock is this?</p>","2","class_response","1","test","33","Diorite","Gabbro","11","false","3","4","",""
"","","","","","","","","","","","html-keyboard-response","270","2.0.0","744092","6127c369bdff7dc17f0724a2","2","47","null","","","","","","","","","<p style='font-size: 30px;'><strong>Okay</strong></p>","null","neutral_feedback","1","test","33","","","","","","","",""
"","","","","","","","","","","","html-button-response","271","2.0.0","747193","6127c369bdff7dc17f0724a2","2","47","3100","","","","","","","","","<img src= ""rock_img/I_Gabbro_08.jpg"" style=""width:8cm; height:5.15cm;""><p>What type of rock is this?</p>","2","class_response","1","test","34","Diorite","Gabbro","08","false","3","4","",""
"","","","","","","","","","","","html-keyboard-response","272","2.0.0","747700","6127c369bdff7dc17f0724a2","2","47","null","","","","","","","","","<p style='font-size: 30px;'><strong>Okay</strong></p>","null","neutral_feedback","1","test","34","","","","","","","",""
"","","","","","","","","","","","html-button-response","273","2.0.0","751055","6127c369bdff7dc17f0724a2","2","47","3355","","","","","","","","","<img src= ""rock_img/I_Diorite_16.jpg"" style=""width:8cm; height:6.74cm;""><p>What type of rock is this?</p>","0","class_response","1","test","35","Andesite","Diorite","16","false","1","3","",""
"","","","","","","","","","","","html-keyboard-response","274","2.0.0","751570","6127c369bdff7dc17f0724a2","2","47","null","","","","","","","","","<p style='font-size: 30px;'><strong>Okay</strong></p>","null","neutral_feedback","1","test","35","","","","","","","",""
"","","","","","","","","","","","html-button-response","275","2.0.0","752642","6127c369bdff7dc17f0724a2","2","47","1070","","","","","","","","","<img src= ""rock_img/I_Pumice_08.jpg"" style=""width:8cm; height:6.67cm;""><p>What type of rock is this?</p>","7","class_response","1","test","36","Pumice","Pumice","08","true","8","8","",""
"","","","","","","","","","","","html-keyboard-response","276","2.0.0","753148","6127c369bdff7dc17f0724a2","2","47","null","","","","","","","","","<p style='font-size: 30px;'><strong>Okay</strong></p>","null","neutral_feedback","1","test","36","","","","","","","",""
"","","","","","","","","","","","html-button-response","277","2.0.0","755215","6127c369bdff7dc17f0724a2","2","47","2065","","","","","","","","","<img src= ""rock_img/I_Gabbro_09.jpg"" style=""width:8cm; height:7.279999999999999cm;""><p>What type of rock is this?</p>","1","class_response","1","test","37","Basalt","Gabbro","09","false","2","4","",""
"","","","","","","","","","","","html-keyboard-response","278","2.0.0","755731","6127c369bdff7dc17f0724a2","2","47","null","","","","","","","","","<p style='font-size: 30px;'><strong>Okay</strong></p>","null","neutral_feedback","1","test","37","","","","","","","",""
"","","","","","","","","","","","html-button-response","279","2.0.0","757749","6127c369bdff7dc17f0724a2","2","47","2018","","","","","","","","","<img src= ""rock_img/I_Diorite_14.jpg"" style=""width:8cm; height:5.71cm;""><p>What type of rock is this?</p>","2","class_response","1","test","38","Diorite","Diorite","14","true","3","3","",""
"","","","","","","","","","","","html-keyboard-response","280","2.0.0","758264","6127c369bdff7dc17f0724a2","2","47","null","","","","","","","","","<p style='font-size: 30px;'><strong>Okay</strong></p>","null","neutral_feedback","1","test","38","","","","","","","",""
"","","","","","","","","","","","html-button-response","281","2.0.0","760951","6127c369bdff7dc17f0724a2","2","47","2686","","","","","","","","","<img src= ""rock_img/I_Diorite_08.jpg"" style=""width:8cm; height:6.37cm;""><p>What type of rock is this?</p>","2","class_response","1","test","39","Diorite","Diorite","08","true","3","3","",""
"","","","","","","","","","","","html-keyboard-response","282","2.0.0","761463","6127c369bdff7dc17f0724a2","2","47","null","","","","","","","","","<p style='font-size: 30px;'><strong>Okay</strong></p>","null","neutral_feedback","1","test","39","","","","","","","",""
"","","","","","","","","","","","html-button-response","283","2.0.0","763851","6127c369bdff7dc17f0724a2","2","47","2386","","","","","","","","","<img src= ""rock_img/I_Andesite_04.jpg"" style=""width:8cm; height:5.96cm;""><p>What type of rock is this?</p>","5","class_response","1","test","40","Pegmatite","Andesite","04","false","6","1","",""
"","","","","","","","","","","","html-keyboard-response","284","2.0.0","764367","6127c369bdff7dc17f0724a2","2","47","null","","","","","","","","","<p style='font-size: 30px;'><strong>Okay</strong></p>","null","neutral_feedback","1","test","40","","","","","","","",""
"","","","","","","","","","","","html-button-response","285","2.0.0","767339","6127c369bdff7dc17f0724a2","2","47","2971","","","","","","","","","<img src= ""rock_img/I_Pegmatite_06.jpg"" style=""width:8cm; height:5.17cm;""><p>What type of rock is this?</p>","3","class_response","1","test","41","Gabbro","Pegmatite","06","false","4","6","",""
"","","","","","","","","","","","html-keyboard-response","286","2.0.0","767852","6127c369bdff7dc17f0724a2","2","47","null","","","","","","","","","<p style='font-size: 30px;'><strong>Okay</strong></p>","null","neutral_feedback","1","test","41","","","","","","","",""
"","","","","","","","","","","","html-button-response","287","2.0.0","769027","6127c369bdff7dc17f0724a2","2","47","1175","","","","","","","","","<img src= ""rock_img/I_Pumice_06.jpg"" style=""width:8cm; height:6.9399999999999995cm;""><p>What type of rock is this?</p>","7","class_response","1","test","42","Pumice","Pumice","06","true","8","8","",""
"","","","","","","","","","","","html-keyboard-response","288","2.0.0","769531","6127c369bdff7dc17f0724a2","2","47","null","","","","","","","","","<p style='font-size: 30px;'><strong>Okay</strong></p>","null","neutral_feedback","1","test","42","","","","","","","",""
"","","","","","","","","","","","html-button-response","289","2.0.0","770871","6127c369bdff7dc17f0724a2","2","47","1337","","","","","","","","","<img src= ""rock_img/I_Pumice_16.jpg"" style=""width:8cm; height:6.79cm;""><p>What type of rock is this?</p>","7","class_response","1","test","43","Pumice","Pumice","16","true","8","8","",""
"","","","","","","","","","","","html-keyboard-response","290","2.0.0","771381","6127c369bdff7dc17f0724a2","2","47","null","","","","","","","","","<p style='font-size: 30px;'><strong>Okay</strong></p>","null","neutral_feedback","1","test","43","","","","","","","",""
"","","","","","","","","","","","html-button-response","291","2.0.0","774199","6127c369bdff7dc17f0724a2","2","47","2816","","","","","","","","","<img src= ""rock_img/I_Pegmatite_07.jpg"" style=""width:8cm; height:6.7cm;""><p>What type of rock is this?</p>","2","class_response","1","test","44","Diorite","Pegmatite","07","false","3","6","",""
"","","","","","","","","","","","html-keyboard-response","292","2.0.0","774707","6127c369bdff7dc17f0724a2","2","47","null","","","","","","","","","<p style='font-size: 30px;'><strong>Okay</strong></p>","null","neutral_feedback","1","test","44","","","","","","","",""
"","","","","","","","","","","","html-button-response","293","2.0.0","776067","6127c369bdff7dc17f0724a2","2","47","1359","","","","","","","","","<img src= ""rock_img/I_Peridotite_15.jpg"" style=""width:8cm; height:6cm;""><p>What type of rock is this?</p>","6","class_response","1","test","45","Peridotite","Peridotite","15","true","7","7","",""
"","","","","","","","","","","","html-keyboard-response","294","2.0.0","776578","6127c369bdff7dc17f0724a2","2","47","null","","","","","","","","","<p style='font-size: 30px;'><strong>Okay</strong></p>","null","neutral_feedback","1","test","45","","","","","","","",""
"","","","","","","","","","","","html-button-response","295","2.0.0","778882","6127c369bdff7dc17f0724a2","2","47","2299","","","","","","","","","<img src= ""rock_img/I_Diorite_02.jpg"" style=""width:8cm; height:6.27cm;""><p>What type of rock is this?</p>","1","class_response","1","test","46","Basalt","Diorite","02","false","2","3","",""
"","","","","","","","","","","","html-keyboard-response","296","2.0.0","779390","6127c369bdff7dc17f0724a2","2","47","null","","","","","","","","","<p style='font-size: 30px;'><strong>Okay</strong></p>","null","neutral_feedback","1","test","46","","","","","","","",""
"","","","","","","","","","","","html-button-response","297","2.0.0","780869","6127c369bdff7dc17f0724a2","2","47","1478","","","","","","","","","<img src= ""rock_img/I_Obsidian_09.jpg"" style=""width:8cm; height:5cm;""><p>What type of rock is this?</p>","4","class_response","1","test","47","Obsidian","Obsidian","09","true","5","5","",""
"","","","","","","","","","","","html-keyboard-response","298","2.0.0","781380","6127c369bdff7dc17f0724a2","2","47","null","","","","","","","","","<p style='font-size: 30px;'><strong>Okay</strong></p>","null","neutral_feedback","1","test","47","","","","","","","",""
"","","","","","","","","","","","html-button-response","299","2.0.0","787439","6127c369bdff7dc17f0724a2","2","47","6058","","","","","","","","","<img src= ""rock_img/I_Obsidian_05.jpg"" style=""width:8cm; height:6.33cm;""><p>What type of rock is this?</p>","4","class_response","1","test","48","Obsidian","Obsidian","05","true","5","5","",""
"","","","","","","","","","","","html-keyboard-response","300","2.0.0","787948","6127c369bdff7dc17f0724a2","2","47","null","","","","","","","","","<p style='font-size: 30px;'><strong>Okay</strong></p>","null","neutral_feedback","1","test","48","","","","","","","",""
"","","","","","","","","","","","html-button-response","301","2.0.0","820049","6127c369bdff7dc17f0724a2","2","47","","","","","","","","","","","","cycle_feedback","","","","","","","","","","13785.59999999404","18311.59999999404"
"","","","","","","","","","","","html-button-response","303","2.0.0","826853","6127c369bdff7dc17f0724a2","2","47","6803","","","","","","","","","","0","start_train","","","","","","","","","","",""
"","","","","","","","","","","","html-button-response","304","2.0.0","830307","6127c369bdff7dc17f0724a2","2","47","3453","","","","","","","","","<img src= ""rock_img/I_Gabbro_16.jpg"" style=""width:8cm; height:6.44cm;""><p>What type of rock is this?</p>","5","class_response","2","train","1","Pegmatite","Gabbro","16","false","6","4","",""
