"width","height","webaudio","browser","browser_version","mobile","os","fullscreen","vsync_rate","webcam","microphone","trial_type","trial_index","plugin_version","time_elapsed","subjID","condition","stimID","rt","url","success","value","timeout","failed_images","failed_audio","failed_video","view_history","stimulus","response","trialType","cycle","phase","trial","resp","cat","token","corr","resp_num","cat_num","time_fb1","time_fb2"
"1536","730","true","chrome","131.0.0","false","Windows 10","true","46.49","false","false","browser-check","0","2.0.0","1319","63c0a40fed93c574b9ec5643","2","33","","","","","","","","","","","","","","","","","","","","","","",""
"","","","","","","","","","","","external-html","1","2.0.0","13906","63c0a40fed93c574b9ec5643","2","33","12076","consent_form.html","","","","","","","","","","","","","","","","","","","","",""
"","","","","","","","","","","","fullscreen","2","2.0.0","99187","63c0a40fed93c574b9ec5643","2","33","84263","","true","","","","","","","","","","","","","","","","","","","",""
"","","","","","","","","","","","call-function","3","2.0.0","99191","63c0a40fed93c574b9ec5643","2","33","","","","{}","","","","","","","","","","","","","","","","","","",""
"","","","","","","","","","","","preload","4","2.0.0","169455","63c0a40fed93c574b9ec5643","2","33","","","true","","false","[]","[]","[]","","","","","","","","","","","","","","",""
"","","","","","","","","","","","instructions","5","2.0.0","380227","63c0a40fed93c574b9ec5643","2","33","210770","","","","","","","","[{""page_index"":0,""viewing_time"":153189},{""page_index"":1,""viewing_time"":42477},{""page_index"":2,""viewing_time"":15103}]","","","","","","","","","","","","","",""
"","","","","","","","","","","","html-button-response","6","2.0.0","384512","63c0a40fed93c574b9ec5643","2","33","4270","","","","","","","","","","0","start_test","","","","","","","","","","",""
"","","","","","","","","","","","html-button-response","7","2.0.0","388920","63c0a40fed93c574b9ec5643","2","33","4403","","","","","","","","","<img src= ""rock_img/I_Gabbro_13.jpg"" style=""width:8cm; height:5.08cm;""><p>What type of rock is this?</p>","4","class_response","0","test","1","Obsidian","Gabbro","13","false","5","4","",""
"","","","","","","","","","","","html-keyboard-response","8","2.0.0","389434","63c0a40fed93c574b9ec5643","2","33","null","","","","","","","","","<p style='font-size: 30px;'><strong>Okay</strong></p>","null","neutral_feedback","0","test","1","","","","","","","",""
"","","","","","","","","","","","html-button-response","9","2.0.0","396576","63c0a40fed93c574b9ec5643","2","33","7138","","","","","","","","","<img src= ""rock_img/I_Gabbro_08.jpg"" style=""width:8cm; height:5.15cm;""><p>What type of rock is this?</p>","1","class_response","0","test","2","Basalt","Gabbro","08","false","2","4","",""
"","","","","","","","","","","","html-keyboard-response","10","2.0.0","397092","63c0a40fed93c574b9ec5643","2","33","null","","","","","","","","","<p style='font-size: 30px;'><strong>Okay</strong></p>","null","neutral_feedback","0","test","2","","","","","","","",""
"","","","","","","","","","","","html-button-response","11","2.0.0","404887","63c0a40fed93c574b9ec5643","2","33","7791","","","","","","","","","<img src= ""rock_img/I_Obsidian_09.jpg"" style=""width:8cm; height:5cm;""><p>What type of rock is this?</p>","4","class_response","0","test","3","Obsidian","Obsidian","09","true","5","5","",""
"","","","","","","","","","","","html-keyboard-response","12","2.0.0","405411","63c0a40fed93c574b9ec5643","2","33","null","","","","","","","","","<p style='font-size: 30px;'><strong>Okay</strong></p>","null","neutral_feedback","0","test","3","","","","","","","",""
"","","","","","","","","","","","html-button-response","13","2.0.0","410476","63c0a40fed93c574b9ec5643","2","33","5062","","","","","","","","","<img src= ""rock_img/I_Obsidian_12.jpg"" style=""width:8cm; height:6.53cm;""><p>What type of rock is this?</p>","0","class_response","0","test","4","Andesite","Obsidian","12","false","1","5","",""
"","","","","","","","","","","","html-keyboard-response","14","2.0.0","410989","63c0a40fed93c574b9ec5643","2","33","null","","","","","","","","","<p style='font-size: 30px;'><strong>Okay</strong></p>","null","neutral_feedback","0","test","4","","","","","","","",""
"","","","","","","","","","","","html-button-response","15","2.0.0","415839","63c0a40fed93c574b9ec5643","2","33","4848","","","","","","","","","<img src= ""rock_img/I_Diorite_14.jpg"" style=""width:8cm; height:5.71cm;""><p>What type of rock is this?</p>","5","class_response","0","test","5","Pegmatite","Diorite","14","false","6","3","",""
"","","","","","","","","","","","html-keyboard-response","16","2.0.0","416352","63c0a40fed93c574b9ec5643","2","33","null","","","","","","","","","<p style='font-size: 30px;'><strong>Okay</strong></p>","null","neutral_feedback","0","test","5","","","","","","","",""
"","","","","","","","","","","","html-button-response","17","2.0.0","419506","63c0a40fed93c574b9ec5643","2","33","3151","","","","","","","","","<img src= ""rock_img/I_Gabbro_10.jpg"" style=""width:8cm; height:5.680000000000001cm;""><p>What type of rock is this?</p>","7","class_response","0","test","6","Pumice","Gabbro","10","false","8","4","",""
"","","","","","","","","","","","html-keyboard-response","18","2.0.0","420014","63c0a40fed93c574b9ec5643","2","33","null","","","","","","","","","<p style='font-size: 30px;'><strong>Okay</strong></p>","null","neutral_feedback","0","test","6","","","","","","","",""
"","","","","","","","","","","","html-button-response","19","2.0.0","423008","63c0a40fed93c574b9ec5643","2","33","2991","","","","","","","","","<img src= ""rock_img/I_Andesite_09.jpg"" style=""width:8cm; height:6cm;""><p>What type of rock is this?</p>","6","class_response","0","test","7","Peridotite","Andesite","09","false","7","1","",""
"","","","","","","","","","","","html-keyboard-response","20","2.0.0","423519","63c0a40fed93c574b9ec5643","2","33","null","","","","","","","","","<p style='font-size: 30px;'><strong>Okay</strong></p>","null","neutral_feedback","0","test","7","","","","","","","",""
"","","","","","","","","","","","html-button-response","21","2.0.0","427873","63c0a40fed93c574b9ec5643","2","33","4352","","","","","","","","","<img src= ""rock_img/I_Pegmatite_10.jpg"" style=""width:8cm; height:4.16cm;""><p>What type of rock is this?</p>","2","class_response","0","test","8","Diorite","Pegmatite","10","false","3","6","",""
"","","","","","","","","","","","html-keyboard-response","22","2.0.0","428378","63c0a40fed93c574b9ec5643","2","33","null","","","","","","","","","<p style='font-size: 30px;'><strong>Okay</strong></p>","null","neutral_feedback","0","test","8","","","","","","","",""
"","","","","","","","","","","","html-button-response","23","2.0.0","432949","63c0a40fed93c574b9ec5643","2","33","4568","","","","","","","","","<img src= ""rock_img/I_Pumice_14.jpg"" style=""width:8cm; height:6.39cm;""><p>What type of rock is this?</p>","5","class_response","0","test","9","Pegmatite","Pumice","14","false","6","8","",""
"","","","","","","","","","","","html-keyboard-response","24","2.0.0","433457","63c0a40fed93c574b9ec5643","2","33","null","","","","","","","","","<p style='font-size: 30px;'><strong>Okay</strong></p>","null","neutral_feedback","0","test","9","","","","","","","",""
"","","","","","","","","","","","html-button-response","25","2.0.0","434949","63c0a40fed93c574b9ec5643","2","33","1490","","","","","","","","","<img src= ""rock_img/I_Peridotite_08.jpg"" style=""width:8cm; height:6.7cm;""><p>What type of rock is this?</p>","6","class_response","0","test","10","Peridotite","Peridotite","08","true","7","7","",""
"","","","","","","","","","","","html-keyboard-response","26","2.0.0","435462","63c0a40fed93c574b9ec5643","2","33","null","","","","","","","","","<p style='font-size: 30px;'><strong>Okay</strong></p>","null","neutral_feedback","0","test","10","","","","","","","",""
"","","","","","","","","","","","html-button-response","27","2.0.0","438365","63c0a40fed93c574b9ec5643","2","33","2900","","","","","","","","","<img src= ""rock_img/I_Pumice_06.jpg"" style=""width:8cm; height:6.9399999999999995cm;""><p>What type of rock is this?</p>","5","class_response","0","test","11","Pegmatite","Pumice","06","false","6","8","",""
"","","","","","","","","","","","html-keyboard-response","28","2.0.0","438878","63c0a40fed93c574b9ec5643","2","33","null","","","","","","","","","<p style='font-size: 30px;'><strong>Okay</strong></p>","null","neutral_feedback","0","test","11","","","","","","","",""
"","","","","","","","","","","","html-button-response","29","2.0.0","441278","63c0a40fed93c574b9ec5643","2","33","2397","","","","","","","","","<img src= ""rock_img/I_Basalt_04.jpg"" style=""width:8cm; height:7.53cm;""><p>What type of rock is this?</p>","6","class_response","0","test","12","Peridotite","Basalt","04","false","7","2","",""
"","","","","","","","","","","","html-keyboard-response","30","2.0.0","441780","63c0a40fed93c574b9ec5643","2","33","null","","","","","","","","","<p style='font-size: 30px;'><strong>Okay</strong></p>","null","neutral_feedback","0","test","12","","","","","","","",""
"","","","","","","","","","","","html-button-response","31","2.0.0","443763","63c0a40fed93c574b9ec5643","2","33","1979","","","","","","","","","<img src= ""rock_img/I_Pegmatite_15.jpg"" style=""width:8cm; height:6cm;""><p>What type of rock is this?</p>","1","class_response","0","test","13","Basalt","Pegmatite","15","false","2","6","",""
"","","","","","","","","","","","html-keyboard-response","32","2.0.0","444280","63c0a40fed93c574b9ec5643","2","33","null","","","","","","","","","<p style='font-size: 30px;'><strong>Okay</strong></p>","null","neutral_feedback","0","test","13","","","","","","","",""
"","","","","","","","","","","","html-button-response","33","2.0.0","446711","63c0a40fed93c574b9ec5643","2","33","2428","","","","","","","","","<img src= ""rock_img/I_Diorite_16.jpg"" style=""width:8cm; height:6.74cm;""><p>What type of rock is this?</p>","3","class_response","0","test","14","Gabbro","Diorite","16","false","4","3","",""
"","","","","","","","","","","","html-keyboard-response","34","2.0.0","447213","63c0a40fed93c574b9ec5643","2","33","null","","","","","","","","","<p style='font-size: 30px;'><strong>Okay</strong></p>","null","neutral_feedback","0","test","14","","","","","","","",""
"","","","","","","","","","","","html-button-response","35","2.0.0","450332","63c0a40fed93c574b9ec5643","2","33","3116","","","","","","","","","<img src= ""rock_img/I_Andesite_10.jpg"" style=""width:8cm; height:4.16cm;""><p>What type of rock is this?</p>","2","class_response","0","test","15","Diorite","Andesite","10","false","3","1","",""
"","","","","","","","","","","","html-keyboard-response","36","2.0.0","450842","63c0a40fed93c574b9ec5643","2","33","null","","","","","","","","","<p style='font-size: 30px;'><strong>Okay</strong></p>","null","neutral_feedback","0","test","15","","","","","","","",""
"","","","","","","","","","","","html-button-response","37","2.0.0","454135","63c0a40fed93c574b9ec5643","2","33","3291","","","","","","","","","<img src= ""rock_img/I_Diorite_15.jpg"" style=""width:8cm; height:5.54cm;""><p>What type of rock is this?</p>","2","class_response","0","test","16","Diorite","Diorite","15","true","3","3","",""
"","","","","","","","","","","","html-keyboard-response","38","2.0.0","454648","63c0a40fed93c574b9ec5643","2","33","null","","","","","","","","","<p style='font-size: 30px;'><strong>Okay</strong></p>","null","neutral_feedback","0","test","16","","","","","","","",""
"","","","","","","","","","","","html-button-response","39","2.0.0","457944","63c0a40fed93c574b9ec5643","2","33","3293","","","","","","","","","<img src= ""rock_img/I_Basalt_08.jpg"" style=""width:8cm; height:10.44cm;""><p>What type of rock is this?</p>","5","class_response","0","test","17","Pegmatite","Basalt","08","false","6","2","",""
"","","","","","","","","","","","html-keyboard-response","40","2.0.0","458450","63c0a40fed93c574b9ec5643","2","33","null","","","","","","","","","<p style='font-size: 30px;'><strong>Okay</strong></p>","null","neutral_feedback","0","test","17","","","","","","","",""
"","","","","","","","","","","","html-button-response","41","2.0.0","463184","63c0a40fed93c574b9ec5643","2","33","4732","","","","","","","","","<img src= ""rock_img/I_Pegmatite_12.jpg"" style=""width:8cm; height:5.7cm;""><p>What type of rock is this?</p>","6","class_response","0","test","18","Peridotite","Pegmatite","12","false","7","6","",""
"","","","","","","","","","","","html-keyboard-response","42","2.0.0","463698","63c0a40fed93c574b9ec5643","2","33","null","","","","","","","","","<p style='font-size: 30px;'><strong>Okay</strong></p>","null","neutral_feedback","0","test","18","","","","","","","",""
"","","","","","","","","","","","html-button-response","43","2.0.0","465829","63c0a40fed93c574b9ec5643","2","33","2129","","","","","","","","","<img src= ""rock_img/I_Andesite_02.jpg"" style=""width:8cm; height:8.5cm;""><p>What type of rock is this?</p>","5","class_response","0","test","19","Pegmatite","Andesite","02","false","6","1","",""
"","","","","","","","","","","","html-keyboard-response","44","2.0.0","466331","63c0a40fed93c574b9ec5643","2","33","null","","","","","","","","","<p style='font-size: 30px;'><strong>Okay</strong></p>","null","neutral_feedback","0","test","19","","","","","","","",""
"","","","","","","","","","","","html-button-response","45","2.0.0","468123","63c0a40fed93c574b9ec5643","2","33","1789","","","","","","","","","<img src= ""rock_img/I_Andesite_16.jpg"" style=""width:8cm; height:6.010000000000001cm;""><p>What type of rock is this?</p>","7","class_response","0","test","20","Pumice","Andesite","16","false","8","1","",""
"","","","","","","","","","","","html-keyboard-response","46","2.0.0","468639","63c0a40fed93c574b9ec5643","2","33","null","","","","","","","","","<p style='font-size: 30px;'><strong>Okay</strong></p>","null","neutral_feedback","0","test","20","","","","","","","",""
"","","","","","","","","","","","html-button-response","47","2.0.0","471000","63c0a40fed93c574b9ec5643","2","33","2358","","","","","","","","","<img src= ""rock_img/I_Andesite_01.jpg"" style=""width:8cm; height:5.87cm;""><p>What type of rock is this?</p>","3","class_response","0","test","21","Gabbro","Andesite","01","false","4","1","",""
"","","","","","","","","","","","html-keyboard-response","48","2.0.0","471508","63c0a40fed93c574b9ec5643","2","33","null","","","","","","","","","<p style='font-size: 30px;'><strong>Okay</strong></p>","null","neutral_feedback","0","test","21","","","","","","","",""
"","","","","","","","","","","","html-button-response","49","2.0.0","473888","63c0a40fed93c574b9ec5643","2","33","2378","","","","","","","","","<img src= ""rock_img/I_Pegmatite_06.jpg"" style=""width:8cm; height:5.17cm;""><p>What type of rock is this?</p>","2","class_response","0","test","22","Diorite","Pegmatite","06","false","3","6","",""
"","","","","","","","","","","","html-keyboard-response","50","2.0.0","474396","63c0a40fed93c574b9ec5643","2","33","null","","","","","","","","","<p style='font-size: 30px;'><strong>Okay</strong></p>","null","neutral_feedback","0","test","22","","","","","","","",""
"","","","","","","","","","","","html-button-response","51","2.0.0","476816","63c0a40fed93c574b9ec5643","2","33","2418","","","","","","","","","<img src= ""rock_img/I_Pumice_03.jpg"" style=""width:8cm; height:6.64cm;""><p>What type of rock is this?</p>","5","class_response","0","test","23","Pegmatite","Pumice","03","false","6","8","",""
"","","","","","","","","","","","html-keyboard-response","52","2.0.0","477323","63c0a40fed93c574b9ec5643","2","33","null","","","","","","","","","<p style='font-size: 30px;'><strong>Okay</strong></p>","null","neutral_feedback","0","test","23","","","","","","","",""
"","","","","","","","","","","","html-button-response","53","2.0.0","479300","63c0a40fed93c574b9ec5643","2","33","1974","","","","","","","","","<img src= ""rock_img/I_Gabbro_14.jpg"" style=""width:8cm; height:8.48cm;""><p>What type of rock is this?</p>","0","class_response","0","test","24","Andesite","Gabbro","14","false","1","4","",""
"","","","","","","","","","","","html-keyboard-response","54","2.0.0","479811","63c0a40fed93c574b9ec5643","2","33","null","","","","","","","","","<p style='font-size: 30px;'><strong>Okay</strong></p>","null","neutral_feedback","0","test","24","","","","","","","",""
"","","","","","","","","","","","html-button-response","55","2.0.0","482479","63c0a40fed93c574b9ec5643","2","33","2666","","","","","","","","","<img src= ""rock_img/I_Obsidian_05.jpg"" style=""width:8cm; height:6.33cm;""><p>What type of rock is this?</p>","5","class_response","0","test","25","Pegmatite","Obsidian","05","false","6","5","",""
"","","","","","","","","","","","html-keyboard-response","56","2.0.0","482985","63c0a40fed93c574b9ec5643","2","33","null","","","","","","","","","<p style='font-size: 30px;'><strong>Okay</strong></p>","null","neutral_feedback","0","test","25","","","","","","","",""
"","","","","","","","","","","","html-button-response","57","2.0.0","484466","63c0a40fed93c574b9ec5643","2","33","1480","","","","","","","","","<img src= ""rock_img/I_Basalt_10.jpg"" style=""width:8cm; height:5.85cm;""><p>What type of rock is this?</p>","1","class_response","0","test","26","Basalt","Basalt","10","true","2","2","",""
"","","","","","","","","","","","html-keyboard-response","58","2.0.0","484982","63c0a40fed93c574b9ec5643","2","33","null","","","","","","","","","<p style='font-size: 30px;'><strong>Okay</strong></p>","null","neutral_feedback","0","test","26","","","","","","","",""
"","","","","","","","","","","","html-button-response","59","2.0.0","488957","63c0a40fed93c574b9ec5643","2","33","3973","","","","","","","","","<img src= ""rock_img/I_Peridotite_05.jpg"" style=""width:8cm; height:7.1499999999999995cm;""><p>What type of rock is this?</p>","6","class_response","0","test","27","Peridotite","Peridotite","05","true","7","7","",""
"","","","","","","","","","","","html-keyboard-response","60","2.0.0","489473","63c0a40fed93c574b9ec5643","2","33","null","","","","","","","","","<p style='font-size: 30px;'><strong>Okay</strong></p>","null","neutral_feedback","0","test","27","","","","","","","",""
"","","","","","","","","","","","html-button-response","61","2.0.0","491523","63c0a40fed93c574b9ec5643","2","33","2047","","","","","","","","","<img src= ""rock_img/I_Pegmatite_03.jpg"" style=""width:8cm; height:5.239999999999999cm;""><p>What type of rock is this?</p>","4","class_response","0","test","28","Obsidian","Pegmatite","03","false","5","6","",""
"","","","","","","","","","","","html-keyboard-response","62","2.0.0","492030","63c0a40fed93c574b9ec5643","2","33","null","","","","","","","","","<p style='font-size: 30px;'><strong>Okay</strong></p>","null","neutral_feedback","0","test","28","","","","","","","",""
"","","","","","","","","","","","html-button-response","63","2.0.0","497127","63c0a40fed93c574b9ec5643","2","33","5094","","","","","","","","","<img src= ""rock_img/I_Pegmatite_05.jpg"" style=""width:8cm; height:7.300000000000001cm;""><p>What type of rock is this?</p>","2","class_response","0","test","29","Diorite","Pegmatite","05","false","3","6","",""
"","","","","","","","","","","","html-keyboard-response","64","2.0.0","497639","63c0a40fed93c574b9ec5643","2","33","null","","","","","","","","","<p style='font-size: 30px;'><strong>Okay</strong></p>","null","neutral_feedback","0","test","29","","","","","","","",""
"","","","","","","","","","","","html-button-response","65","2.0.0","499652","63c0a40fed93c574b9ec5643","2","33","2011","","","","","","","","","<img src= ""rock_img/I_Basalt_16.jpg"" style=""width:8cm; height:7.659999999999999cm;""><p>What type of rock is this?</p>","3","class_response","0","test","30","Gabbro","Basalt","16","false","4","2","",""
"","","","","","","","","","","","html-keyboard-response","66","2.0.0","500156","63c0a40fed93c574b9ec5643","2","33","null","","","","","","","","","<p style='font-size: 30px;'><strong>Okay</strong></p>","null","neutral_feedback","0","test","30","","","","","","","",""
"","","","","","","","","","","","html-button-response","67","2.0.0","501895","63c0a40fed93c574b9ec5643","2","33","1737","","","","","","","","","<img src= ""rock_img/I_Peridotite_07.jpg"" style=""width:8cm; height:4.83cm;""><p>What type of rock is this?</p>","7","class_response","0","test","31","Pumice","Peridotite","07","false","8","7","",""
"","","","","","","","","","","","html-keyboard-response","68","2.0.0","502411","63c0a40fed93c574b9ec5643","2","33","null","","","","","","","","","<p style='font-size: 30px;'><strong>Okay</strong></p>","null","neutral_feedback","0","test","31","","","","","","","",""
"","","","","","","","","","","","html-button-response","69","2.0.0","505680","63c0a40fed93c574b9ec5643","2","33","3267","","","","","","","","","<img src= ""rock_img/I_Andesite_06.jpg"" style=""width:8cm; height:6.840000000000001cm;""><p>What type of rock is this?</p>","1","class_response","0","test","32","Basalt","Andesite","06","false","2","1","",""
"","","","","","","","","","","","html-keyboard-response","70","2.0.0","506185","63c0a40fed93c574b9ec5643","2","33","null","","","","","","","","","<p style='font-size: 30px;'><strong>Okay</strong></p>","null","neutral_feedback","0","test","32","","","","","","","",""
"","","","","","","","","","","","html-button-response","71","2.0.0","508789","63c0a40fed93c574b9ec5643","2","33","2601","","","","","","","","","<img src= ""rock_img/I_Diorite_09.jpg"" style=""width:8cm; height:5.27cm;""><p>What type of rock is this?</p>","6","class_response","0","test","33","Peridotite","Diorite","09","false","7","3","",""
"","","","","","","","","","","","html-keyboard-response","72","2.0.0","509296","63c0a40fed93c574b9ec5643","2","33","null","","","","","","","","","<p style='font-size: 30px;'><strong>Okay</strong></p>","null","neutral_feedback","0","test","33","","","","","","","",""
"","","","","","","","","","","","html-button-response","73","2.0.0","510396","63c0a40fed93c574b9ec5643","2","33","1098","","","","","","","","","<img src= ""rock_img/I_Gabbro_16.jpg"" style=""width:8cm; height:6.44cm;""><p>What type of rock is this?</p>","2","class_response","0","test","34","Diorite","Gabbro","16","false","3","4","",""
"","","","","","","","","","","","html-keyboard-response","74","2.0.0","510900","63c0a40fed93c574b9ec5643","2","33","null","","","","","","","","","<p style='font-size: 30px;'><strong>Okay</strong></p>","null","neutral_feedback","0","test","34","","","","","","","",""
"","","","","","","","","","","","html-button-response","75","2.0.0","512785","63c0a40fed93c574b9ec5643","2","33","1882","","","","","","","","","<img src= ""rock_img/I_Peridotite_13.jpg"" style=""width:8cm; height:7.58cm;""><p>What type of rock is this?</p>","3","class_response","0","test","35","Gabbro","Peridotite","13","false","4","7","",""
"","","","","","","","","","","","html-keyboard-response","76","2.0.0","513297","63c0a40fed93c574b9ec5643","2","33","null","","","","","","","","","<p style='font-size: 30px;'><strong>Okay</strong></p>","null","neutral_feedback","0","test","35","","","","","","","",""
"","","","","","","","","","","","html-button-response","77","2.0.0","515138","63c0a40fed93c574b9ec5643","2","33","1837","","","","","","","","","<img src= ""rock_img/I_Peridotite_16.jpg"" style=""width:8cm; height:6.989999999999999cm;""><p>What type of rock is this?</p>","2","class_response","0","test","36","Diorite","Peridotite","16","false","3","7","",""
"","","","","","","","","","","","html-keyboard-response","78","2.0.0","515653","63c0a40fed93c574b9ec5643","2","33","null","","","","","","","","","<p style='font-size: 30px;'><strong>Okay</strong></p>","null","neutral_feedback","0","test","36","","","","","","","",""
"","","","","","","","","","","","html-button-response","79","2.0.0","519518","63c0a40fed93c574b9ec5643","2","33","3862","","","","","","","","","<img src= ""rock_img/I_Pumice_09.jpg"" style=""width:8cm; height:6.44cm;""><p>What type of rock is this?</p>","5","class_response","0","test","37","Pegmatite","Pumice","09","false","6","8","",""
"","","","","","","","","","","","html-keyboard-response","80","2.0.0","520028","63c0a40fed93c574b9ec5643","2","33","null","","","","","","","","","<p style='font-size: 30px;'><strong>Okay</strong></p>","null","neutral_feedback","0","test","37","","","","","","","",""
"","","","","","","","","","","","html-button-response","81","2.0.0","522022","63c0a40fed93c574b9ec5643","2","33","1991","","","","","","","","","<img src= ""rock_img/I_Obsidian_06.jpg"" style=""width:8cm; height:6.8cm;""><p>What type of rock is this?</p>","1","class_response","0","test","38","Basalt","Obsidian","06","false","2","5","",""
"","","","","","","","","","","","html-keyboard-response","82","2.0.0","522530","63c0a40fed93c574b9ec5643","2","33","null","","","","","","","","","<p style='font-size: 30px;'><strong>Okay</strong></p>","null","neutral_feedback","0","test","38","","","","","","","",""
"","","","","","","","","","","","html-button-response","83","2.0.0","524797","63c0a40fed93c574b9ec5643","2","33","2264","","","","","","","","","<img src= ""rock_img/I_Pumice_05.jpg"" style=""width:8cm; height:7.25cm;""><p>What type of rock is this?</p>","6","class_response","0","test","39","Peridotite","Pumice","05","false","7","8","",""
"","","","","","","","","","","","html-keyboard-response","84","2.0.0","525300","63c0a40fed93c574b9ec5643","2","33","null","","","","","","","","","<p style='font-size: 30px;'><strong>Okay</strong></p>","null","neutral_feedback","0","test","39","","","","","","","",""
"","","","","","","","","","","","html-button-response","85","2.0.0","526971","63c0a40fed93c574b9ec5643","2","33","1668","","","","","","","","","<img src= ""rock_img/I_Obsidian_08.jpg"" style=""width:8cm; height:7.39cm;""><p>What type of rock is this?</p>","1","class_response","0","test","40","Basalt","Obsidian","08","false","2","5","",""
"","","","","","","","","","","","html-keyboard-response","86","2.0.0","527474","63c0a40fed93c574b9ec5643","2","33","null","","","","","","","","","<p style='font-size: 30px;'><strong>Okay</strong></p>","null","neutral_feedback","0","test","40","","","","","","","",""
"","","","","","","","","","","","html-button-response","87","2.0.0","529801","63c0a40fed93c574b9ec5643","2","33","2325","","","","","","","","","<img src= ""rock_img/I_Diorite_10.jpg"" style=""width:8cm; height:5.949999999999999cm;""><p>What type of rock is this?</p>","0","class_response","0","test","41","Andesite","Diorite","10","false","1","3","",""
"","","","","","","","","","","","html-keyboard-response","88","2.0.0","530313","63c0a40fed93c574b9ec5643","2","33","null","","","","","","","","","<p style='font-size: 30px;'><strong>Okay</strong></p>","null","neutral_feedback","0","test","41","","","","","","","",""
"","","","","","","","","","","","html-button-response","89","2.0.0","532094","63c0a40fed93c574b9ec5643","2","33","1778","","","","","","","","","<img src= ""rock_img/I_Gabbro_03.jpg"" style=""width:8cm; height:8.52cm;""><p>What type of rock is this?</p>","5","class_response","0","test","42","Pegmatite","Gabbro","03","false","6","4","",""
"","","","","","","","","","","","html-keyboard-response","90","2.0.0","532601","63c0a40fed93c574b9ec5643","2","33","null","","","","","","","","","<p style='font-size: 30px;'><strong>Okay</strong></p>","null","neutral_feedback","0","test","42","","","","","","","",""
"","","","","","","","","","","","html-button-response","91","2.0.0","534129","63c0a40fed93c574b9ec5643","2","33","1526","","","","","","","","","<img src= ""rock_img/I_Basalt_11.jpg"" style=""width:8cm; height:5.359999999999999cm;""><p>What type of rock is this?</p>","1","class_response","0","test","43","Basalt","Basalt","11","true","2","2","",""
"","","","","","","","","","","","html-keyboard-response","92","2.0.0","534633","63c0a40fed93c574b9ec5643","2","33","null","","","","","","","","","<p style='font-size: 30px;'><strong>Okay</strong></p>","null","neutral_feedback","0","test","43","","","","","","","",""
"","","","","","","","","","","","html-button-response","93","2.0.0","536209","63c0a40fed93c574b9ec5643","2","33","1573","","","","","","","","","<img src= ""rock_img/I_Pumice_02.jpg"" style=""width:8cm; height:7.3999999999999995cm;""><p>What type of rock is this?</p>","2","class_response","0","test","44","Diorite","Pumice","02","false","3","8","",""
"","","","","","","","","","","","html-keyboard-response","94","2.0.0","536717","63c0a40fed93c574b9ec5643","2","33","null","","","","","","","","","<p style='font-size: 30px;'><strong>Okay</strong></p>","null","neutral_feedback","0","test","44","","","","","","","",""
"","","","","","","","","","","","html-button-response","95","2.0.0","540601","63c0a40fed93c574b9ec5643","2","33","3882","","","","","","","","","<img src= ""rock_img/I_Peridotite_04.jpg"" style=""width:8cm; height:6.680000000000001cm;""><p>What type of rock is this?</p>","6","class_response","0","test","45","Peridotite","Peridotite","04","true","7","7","",""
"","","","","","","","","","","","html-keyboard-response","96","2.0.0","541107","63c0a40fed93c574b9ec5643","2","33","null","","","","","","","","","<p style='font-size: 30px;'><strong>Okay</strong></p>","null","neutral_feedback","0","test","45","","","","","","","",""
"","","","","","","","","","","","html-button-response","97","2.0.0","545255","63c0a40fed93c574b9ec5643","2","33","4146","","","","","","","","","<img src= ""rock_img/I_Basalt_06.jpg"" style=""width:8cm; height:7.06cm;""><p>What type of rock is this?</p>","5","class_response","0","test","46","Pegmatite","Basalt","06","false","6","2","",""
"","","","","","","","","","","","html-keyboard-response","98","2.0.0","545770","63c0a40fed93c574b9ec5643","2","33","null","","","","","","","","","<p style='font-size: 30px;'><strong>Okay</strong></p>","null","neutral_feedback","0","test","46","","","","","","","",""
"","","","","","","","","","","","html-button-response","99","2.0.0","547563","63c0a40fed93c574b9ec5643","2","33","1791","","","","","","","","","<img src= ""rock_img/I_Obsidian_16.jpg"" style=""width:8cm; height:9.3cm;""><p>What type of rock is this?</p>","4","class_response","0","test","47","Obsidian","Obsidian","16","true","5","5","",""
"","","","","","","","","","","","html-keyboard-response","100","2.0.0","548078","63c0a40fed93c574b9ec5643","2","33","null","","","","","","","","","<p style='font-size: 30px;'><strong>Okay</strong></p>","null","neutral_feedback","0","test","47","","","","","","","",""
"","","","","","","","","","","","html-button-response","101","2.0.0","551068","63c0a40fed93c574b9ec5643","2","33","2987","","","","","","","","","<img src= ""rock_img/I_Diorite_02.jpg"" style=""width:8cm; height:6.27cm;""><p>What type of rock is this?</p>","3","class_response","0","test","48","Gabbro","Diorite","02","false","4","3","",""
"","","","","","","","","","","","html-keyboard-response","102","2.0.0","551583","63c0a40fed93c574b9ec5643","2","33","null","","","","","","","","","<p style='font-size: 30px;'><strong>Okay</strong></p>","null","neutral_feedback","0","test","48","","","","","","","",""
"","","","","","","","","","","","instructions","103","2.0.0","577211","63c0a40fed93c574b9ec5643","2","33","25604","","","","","","","","[{""page_index"":0,""viewing_time"":16916},{""page_index"":1,""viewing_time"":3264},{""page_index"":2,""viewing_time"":5424}]","","","","","","","","","","","","","",""
"","","","","","","","","","","","html-button-response","104","2.0.0","581298","63c0a40fed93c574b9ec5643","2","33","4084","","","","","","","","","","0","start_train","","","","","","","","","","",""
"","","","","","","","","","","","html-button-response","105","2.0.0","583816","63c0a40fed93c574b9ec5643","2","33","2514","","","","","","","","","<img src= ""rock_img/I_Pegmatite_08.jpg"" style=""width:8cm; height:7.68cm;""><p>What type of rock is this?</p>","2","class_response","1","train","1","Diorite","Pegmatite","08","false","3","6","",""
"","","","","","","","","","","","html-button-response","106","2.0.0","599659","63c0a40fed93c574b9ec5643","2","33","15840","","","","","","","","","<img src= rock_img/I_Pegmatite_08.jpg style=""width:8cm; height:7.68cm;""><p style='font-size: 30px; color: red;'><strong>Incorrect!</strong></p><p style='font-size: 30px;'><strong>This rock is pegmatite</strong></p>","0","corr_feedback","1","train","1","","","","","","","",""
"","","","","","","","","","","","html-button-response","107","2.0.0","604691","63c0a40fed93c574b9ec5643","2","33","5029","","","","","","","","","<img src= ""rock_img/I_Pumice_16.jpg"" style=""width:8cm; height:6.79cm;""><p>What type of rock is this?</p>","1","class_response","1","train","2","Basalt","Pumice","16","false","2","8","",""
"","","","","","","","","","","","html-button-response","108","2.0.0","611365","63c0a40fed93c574b9ec5643","2","33","6672","","","","","","","","","<img src= rock_img/I_Pumice_16.jpg style=""width:8cm; height:6.79cm;""><p style='font-size: 30px; color: red;'><strong>Incorrect!</strong></p><p style='font-size: 30px;'><strong>This rock is pumice</strong></p>","0","corr_feedback","1","train","2","","","","","","","",""
"","","","","","","","","","","","html-button-response","109","2.0.0","616114","63c0a40fed93c574b9ec5643","2","33","4746","","","","","","","","","<img src= ""rock_img/I_Obsidian_14.jpg"" style=""width:8cm; height:7.64cm;""><p>What type of rock is this?</p>","4","class_response","1","train","3","Obsidian","Obsidian","14","true","5","5","",""
"","","","","","","","","","","","html-button-response","110","2.0.0","626218","63c0a40fed93c574b9ec5643","2","33","10101","","","","","","","","","<img src= rock_img/I_Obsidian_14.jpg style=""width:8cm; height:7.64cm;""><p style='font-size: 30px; color: green;'><strong>Correct!</strong></p><p style='font-size: 30px;'><strong>This rock is obsidian</strong></p>","0","corr_feedback","1","train","3","","","","","","","",""
"","","","","","","","","","","","html-button-response","111","2.0.0","631022","63c0a40fed93c574b9ec5643","2","33","4801","","","","","","","","","<img src= ""rock_img/I_Gabbro_11.jpg"" style=""width:8cm; height:6.2cm;""><p>What type of rock is this?</p>","1","class_response","1","train","4","Basalt","Gabbro","11","false","2","4","",""
"","","","","","","","","","","","html-button-response","112","2.0.0","639705","63c0a40fed93c574b9ec5643","2","33","8680","","","","","","","","","<img src= rock_img/I_Gabbro_11.jpg style=""width:8cm; height:6.2cm;""><p style='font-size: 30px; color: red;'><strong>Incorrect!</strong></p><p style='font-size: 30px;'><strong>This rock is gabbro</strong></p>","0","corr_feedback","1","train","4","","","","","","","",""
"","","","","","","","","","","","html-button-response","113","2.0.0","642469","63c0a40fed93c574b9ec5643","2","33","2762","","","","","","","","","<img src= ""rock_img/I_Basalt_14.jpg"" style=""width:8cm; height:5.82cm;""><p>What type of rock is this?</p>","3","class_response","1","train","5","Gabbro","Basalt","14","false","4","2","",""
"","","","","","","","","","","","html-button-response","114","2.0.0","648931","63c0a40fed93c574b9ec5643","2","33","6459","","","","","","","","","<img src= rock_img/I_Basalt_14.jpg style=""width:8cm; height:5.82cm;""><p style='font-size: 30px; color: red;'><strong>Incorrect!</strong></p><p style='font-size: 30px;'><strong>This rock is basalt</strong></p>","0","corr_feedback","1","train","5","","","","","","","",""
"","","","","","","","","","","","html-button-response","115","2.0.0","650267","63c0a40fed93c574b9ec5643","2","33","1333","","","","","","","","","<img src= ""rock_img/I_Pumice_15.jpg"" style=""width:8cm; height:7.86cm;""><p>What type of rock is this?</p>","0","class_response","1","train","6","Andesite","Pumice","15","false","1","8","",""
"","","","","","","","","","","","html-button-response","116","2.0.0","658006","63c0a40fed93c574b9ec5643","2","33","7736","","","","","","","","","<img src= rock_img/I_Pumice_15.jpg style=""width:8cm; height:7.86cm;""><p style='font-size: 30px; color: red;'><strong>Incorrect!</strong></p><p style='font-size: 30px;'><strong>This rock is pumice</strong></p>","0","corr_feedback","1","train","6","","","","","","","",""
"","","","","","","","","","","","html-button-response","117","2.0.0","660313","63c0a40fed93c574b9ec5643","2","33","2305","","","","","","","","","<img src= ""rock_img/I_Pumice_10.jpg"" style=""width:8cm; height:7.609999999999999cm;""><p>What type of rock is this?</p>","1","class_response","1","train","7","Basalt","Pumice","10","false","2","8","",""
"","","","","","","","","","","","html-button-response","118","2.0.0","672597","63c0a40fed93c574b9ec5643","2","33","12283","","","","","","","","","<img src= rock_img/I_Pumice_10.jpg style=""width:8cm; height:7.609999999999999cm;""><p style='font-size: 30px; color: red;'><strong>Incorrect!</strong></p><p style='font-size: 30px;'><strong>This rock is pumice</strong></p>","0","corr_feedback","1","train","7","","","","","","","",""
"","","","","","","","","","","","html-button-response","119","2.0.0","676015","63c0a40fed93c574b9ec5643","2","33","3416","","","","","","","","","<img src= ""rock_img/I_Gabbro_05.jpg"" style=""width:8cm; height:6cm;""><p>What type of rock is this?</p>","1","class_response","1","train","8","Basalt","Gabbro","05","false","2","4","",""
"","","","","","","","","","","","html-button-response","120","2.0.0","683878","63c0a40fed93c574b9ec5643","2","33","7862","","","","","","","","","<img src= rock_img/I_Gabbro_05.jpg style=""width:8cm; height:6cm;""><p style='font-size: 30px; color: red;'><strong>Incorrect!</strong></p><p style='font-size: 30px;'><strong>This rock is gabbro</strong></p>","0","corr_feedback","1","train","8","","","","","","","",""
"","","","","","","","","","","","html-button-response","121","2.0.0","691572","63c0a40fed93c574b9ec5643","2","33","7692","","","","","","","","","<img src= ""rock_img/I_Basalt_12.jpg"" style=""width:8cm; height:6.010000000000001cm;""><p>What type of rock is this?</p>","7","class_response","1","train","9","Pumice","Basalt","12","false","8","2","",""
"","","","","","","","","","","","html-button-response","122","2.0.0","705714","63c0a40fed93c574b9ec5643","2","33","14139","","","","","","","","","<img src= rock_img/I_Basalt_12.jpg style=""width:8cm; height:6.010000000000001cm;""><p style='font-size: 30px; color: red;'><strong>Incorrect!</strong></p><p style='font-size: 30px;'><strong>This rock is basalt</strong></p>","0","corr_feedback","1","train","9","","","","","","","",""
"","","","","","","","","","","","html-button-response","123","2.0.0","714972","63c0a40fed93c574b9ec5643","2","33","9255","","","","","","","","","<img src= ""rock_img/I_Peridotite_06.jpg"" style=""width:8cm; height:7.53cm;""><p>What type of rock is this?</p>","3","class_response","1","train","10","Gabbro","Peridotite","06","false","4","7","",""
"","","","","","","","","","","","html-button-response","124","2.0.0","723723","63c0a40fed93c574b9ec5643","2","33","8749","","","","","","","","","<img src= rock_img/I_Peridotite_06.jpg style=""width:8cm; height:7.53cm;""><p style='font-size: 30px; color: red;'><strong>Incorrect!</strong></p><p style='font-size: 30px;'><strong>This rock is peridotite</strong></p>","0","corr_feedback","1","train","10","","","","","","","",""
"","","","","","","","","","","","html-button-response","125","2.0.0","725830","63c0a40fed93c574b9ec5643","2","33","2104","","","","","","","","","<img src= ""rock_img/I_Pumice_13.jpg"" style=""width:8cm; height:8.200000000000001cm;""><p>What type of rock is this?</p>","7","class_response","1","train","11","Pumice","Pumice","13","true","8","8","",""
"","","","","","","","","","","","html-button-response","126","2.0.0","728146","63c0a40fed93c574b9ec5643","2","33","2314","","","","","","","","","<img src= rock_img/I_Pumice_13.jpg style=""width:8cm; height:8.200000000000001cm;""><p style='font-size: 30px; color: green;'><strong>Correct!</strong></p><p style='font-size: 30px;'><strong>This rock is pumice</strong></p>","0","corr_feedback","1","train","11","","","","","","","",""
"","","","","","","","","","","","html-button-response","127","2.0.0","750560","63c0a40fed93c574b9ec5643","2","33","22411","","","","","","","","","<img src= ""rock_img/I_Basalt_02.jpg"" style=""width:8cm; height:6.45cm;""><p>What type of rock is this?</p>","2","class_response","1","train","12","Diorite","Basalt","02","false","3","2","",""
"","","","","","","","","","","","html-button-response","128","2.0.0","774959","63c0a40fed93c574b9ec5643","2","33","24397","","","","","","","","","<img src= rock_img/I_Basalt_02.jpg style=""width:8cm; height:6.45cm;""><p style='font-size: 30px; color: red;'><strong>Incorrect!</strong></p><p style='font-size: 30px;'><strong>This rock is basalt</strong></p>","0","corr_feedback","1","train","12","","","","","","","",""
"","","","","","","","","","","","html-button-response","129","2.0.0","777724","63c0a40fed93c574b9ec5643","2","33","2762","","","","","","","","","<img src= ""rock_img/I_Pumice_15.jpg"" style=""width:8cm; height:7.86cm;""><p>What type of rock is this?</p>","7","class_response","1","train","13","Pumice","Pumice","15","true","8","8","",""
"","","","","","","","","","","","html-button-response","130","2.0.0","779046","63c0a40fed93c574b9ec5643","2","33","1320","","","","","","","","","<img src= rock_img/I_Pumice_15.jpg style=""width:8cm; height:7.86cm;""><p style='font-size: 30px; color: green;'><strong>Correct!</strong></p><p style='font-size: 30px;'><strong>This rock is pumice</strong></p>","0","corr_feedback","1","train","13","","","","","","","",""
"","","","","","","","","","","","html-button-response","131","2.0.0","780286","63c0a40fed93c574b9ec5643","2","33","1236","","","","","","","","","<img src= ""rock_img/I_Obsidian_11.jpg"" style=""width:8cm; height:6.05cm;""><p>What type of rock is this?</p>","4","class_response","1","train","14","Obsidian","Obsidian","11","true","5","5","",""
"","","","","","","","","","","","html-button-response","132","2.0.0","781189","63c0a40fed93c574b9ec5643","2","33","901","","","","","","","","","<img src= rock_img/I_Obsidian_11.jpg style=""width:8cm; height:6.05cm;""><p style='font-size: 30px; color: green;'><strong>Correct!</strong></p><p style='font-size: 30px;'><strong>This rock is obsidian</strong></p>","0","corr_feedback","1","train","14","","","","","","","",""
"","","","","","","","","","","","html-button-response","133","2.0.0","792144","63c0a40fed93c574b9ec5643","2","33","10952","","","","","","","","","<img src= ""rock_img/I_Diorite_12.jpg"" style=""width:8cm; height:4.88cm;""><p>What type of rock is this?</p>","3","class_response","1","train","15","Gabbro","Diorite","12","false","4","3","",""
"","","","","","","","","","","","html-button-response","134","2.0.0","800272","63c0a40fed93c574b9ec5643","2","33","8125","","","","","","","","","<img src= rock_img/I_Diorite_12.jpg style=""width:8cm; height:4.88cm;""><p style='font-size: 30px; color: red;'><strong>Incorrect!</strong></p><p style='font-size: 30px;'><strong>This rock is diorite</strong></p>","0","corr_feedback","1","train","15","","","","","","","",""
"","","","","","","","","","","","html-button-response","135","2.0.0","809003","63c0a40fed93c574b9ec5643","2","33","8729","","","","","","","","","<img src= ""rock_img/I_Andesite_11.jpg"" style=""width:8cm; height:4.92cm;""><p>What type of rock is this?</p>","7","class_response","1","train","16","Pumice","Andesite","11","false","8","1","",""
"","","","","","","","","","","","html-button-response","136","2.0.0","818491","63c0a40fed93c574b9ec5643","2","33","9485","","","","","","","","","<img src= rock_img/I_Andesite_11.jpg style=""width:8cm; height:4.92cm;""><p style='font-size: 30px; color: red;'><strong>Incorrect!</strong></p><p style='font-size: 30px;'><strong>This rock is andesite</strong></p>","0","corr_feedback","1","train","16","","","","","","","",""
"","","","","","","","","","","","html-button-response","137","2.0.0","827808","63c0a40fed93c574b9ec5643","2","33","9314","","","","","","","","","<img src= ""rock_img/I_Pegmatite_11.jpg"" style=""width:8cm; height:8.14cm;""><p>What type of rock is this?</p>","5","class_response","1","train","17","Pegmatite","Pegmatite","11","true","6","6","",""
"","","","","","","","","","","","html-button-response","138","2.0.0","837116","63c0a40fed93c574b9ec5643","2","33","9307","","","","","","","","","<img src= rock_img/I_Pegmatite_11.jpg style=""width:8cm; height:8.14cm;""><p style='font-size: 30px; color: green;'><strong>Correct!</strong></p><p style='font-size: 30px;'><strong>This rock is pegmatite</strong></p>","0","corr_feedback","1","train","17","","","","","","","",""
"","","","","","","","","","","","html-button-response","139","2.0.0","881833","63c0a40fed93c574b9ec5643","2","33","44713","","","","","","","","","<img src= ""rock_img/I_Andesite_03.jpg"" style=""width:8cm; height:5.73cm;""><p>What type of rock is this?</p>","1","class_response","1","train","18","Basalt","Andesite","03","false","2","1","",""
"","","","","","","","","","","","html-button-response","140","2.0.0","892614","63c0a40fed93c574b9ec5643","2","33","10779","","","","","","","","","<img src= rock_img/I_Andesite_03.jpg style=""width:8cm; height:5.73cm;""><p style='font-size: 30px; color: red;'><strong>Incorrect!</strong></p><p style='font-size: 30px;'><strong>This rock is andesite</strong></p>","0","corr_feedback","1","train","18","","","","","","","",""
"","","","","","","","","","","","html-button-response","141","2.0.0","902284","63c0a40fed93c574b9ec5643","2","33","9667","","","","","","","","","<img src= ""rock_img/I_Andesite_07.jpg"" style=""width:8cm; height:5.93cm;""><p>What type of rock is this?</p>","2","class_response","1","train","19","Diorite","Andesite","07","false","3","1","",""
"","","","","","","","","","","","html-button-response","142","2.0.0","916797","63c0a40fed93c574b9ec5643","2","33","14510","","","","","","","","","<img src= rock_img/I_Andesite_07.jpg style=""width:8cm; height:5.93cm;""><p style='font-size: 30px; color: red;'><strong>Incorrect!</strong></p><p style='font-size: 30px;'><strong>This rock is andesite</strong></p>","0","corr_feedback","1","train","19","","","","","","","",""
"","","","","","","","","","","","html-button-response","143","2.0.0","939570","63c0a40fed93c574b9ec5643","2","33","22771","","","","","","","","","<img src= ""rock_img/I_Gabbro_01.jpg"" style=""width:8cm; height:5.21cm;""><p>What type of rock is this?</p>","0","class_response","1","train","20","Andesite","Gabbro","01","false","1","4","",""
"","","","","","","","","","","","html-button-response","144","2.0.0","957737","63c0a40fed93c574b9ec5643","2","33","18164","","","","","","","","","<img src= rock_img/I_Gabbro_01.jpg style=""width:8cm; height:5.21cm;""><p style='font-size: 30px; color: red;'><strong>Incorrect!</strong></p><p style='font-size: 30px;'><strong>This rock is gabbro</strong></p>","0","corr_feedback","1","train","20","","","","","","","",""
"","","","","","","","","","","","html-button-response","145","2.0.0","974214","63c0a40fed93c574b9ec5643","2","33","16475","","","","","","","","","<img src= ""rock_img/I_Pumice_08.jpg"" style=""width:8cm; height:6.67cm;""><p>What type of rock is this?</p>","1","class_response","1","train","21","Basalt","Pumice","08","false","2","8","",""
"","","","","","","","","","","","html-button-response","146","2.0.0","977082","63c0a40fed93c574b9ec5643","2","33","2865","","","","","","","","","<img src= rock_img/I_Pumice_08.jpg style=""width:8cm; height:6.67cm;""><p style='font-size: 30px; color: red;'><strong>Incorrect!</strong></p><p style='font-size: 30px;'><strong>This rock is pumice</strong></p>","0","corr_feedback","1","train","21","","","","","","","",""
"","","","","","","","","","","","html-button-response","147","2.0.0","978501","63c0a40fed93c574b9ec5643","2","33","1417","","","","","","","","","<img src= ""rock_img/I_Obsidian_10.jpg"" style=""width:8cm; height:6.260000000000001cm;""><p>What type of rock is this?</p>","4","class_response","1","train","22","Obsidian","Obsidian","10","true","5","5","",""
"","","","","","","","","","","","html-button-response","148","2.0.0","979585","63c0a40fed93c574b9ec5643","2","33","1081","","","","","","","","","<img src= rock_img/I_Obsidian_10.jpg style=""width:8cm; height:6.260000000000001cm;""><p style='font-size: 30px; color: green;'><strong>Correct!</strong></p><p style='font-size: 30px;'><strong>This rock is obsidian</strong></p>","0","corr_feedback","1","train","22","","","","","","","",""
"","","","","","","","","","","","html-button-response","149","2.0.0","986736","63c0a40fed93c574b9ec5643","2","33","7149","","","","","","","","","<img src= ""rock_img/I_Peridotite_15.jpg"" style=""width:8cm; height:6cm;""><p>What type of rock is this?</p>","2","class_response","1","train","23","Diorite","Peridotite","15","false","3","7","",""
"","","","","","","","","","","","html-button-response","150","2.0.0","988010","63c0a40fed93c574b9ec5643","2","33","1272","","","","","","","","","<img src= rock_img/I_Peridotite_15.jpg style=""width:8cm; height:6cm;""><p style='font-size: 30px; color: red;'><strong>Incorrect!</strong></p><p style='font-size: 30px;'><strong>This rock is peridotite</strong></p>","0","corr_feedback","1","train","23","","","","","","","",""
"","","","","","","","","","","","html-button-response","151","2.0.0","1003745","63c0a40fed93c574b9ec5643","2","33","15732","","","","","","","","","<img src= ""rock_img/I_Basalt_09.jpg"" style=""width:8cm; height:6.2cm;""><p>What type of rock is this?</p>","0","class_response","1","train","24","Andesite","Basalt","09","false","1","2","",""
"","","","","","","","","","","","html-button-response","152","2.0.0","1005705","63c0a40fed93c574b9ec5643","2","33","1958","","","","","","","","","<img src= rock_img/I_Basalt_09.jpg style=""width:8cm; height:6.2cm;""><p style='font-size: 30px; color: red;'><strong>Incorrect!</strong></p><p style='font-size: 30px;'><strong>This rock is basalt</strong></p>","0","corr_feedback","1","train","24","","","","","","","",""
"","","","","","","","","","","","html-button-response","153","2.0.0","1012876","63c0a40fed93c574b9ec5643","2","33","7169","","","","","","","","","<img src= ""rock_img/I_Diorite_11.jpg"" style=""width:8cm; height:7.11cm;""><p>What type of rock is this?</p>","2","class_response","1","train","25","Diorite","Diorite","11","true","3","3","",""
"","","","","","","","","","","","html-button-response","154","2.0.0","1015256","63c0a40fed93c574b9ec5643","2","33","2377","","","","","","","","","<img src= rock_img/I_Diorite_11.jpg style=""width:8cm; height:7.11cm;""><p style='font-size: 30px; color: green;'><strong>Correct!</strong></p><p style='font-size: 30px;'><strong>This rock is diorite</strong></p>","0","corr_feedback","1","train","25","","","","","","","",""
"","","","","","","","","","","","html-button-response","155","2.0.0","1030532","63c0a40fed93c574b9ec5643","2","33","15274","","","","","","","","","<img src= ""rock_img/I_Andesite_11.jpg"" style=""width:8cm; height:4.92cm;""><p>What type of rock is this?</p>","3","class_response","1","train","26","Gabbro","Andesite","11","false","4","1","",""
"","","","","","","","","","","","html-button-response","156","2.0.0","1041074","63c0a40fed93c574b9ec5643","2","33","10539","","","","","","","","","<img src= rock_img/I_Andesite_11.jpg style=""width:8cm; height:4.92cm;""><p style='font-size: 30px; color: red;'><strong>Incorrect!</strong></p><p style='font-size: 30px;'><strong>This rock is andesite</strong></p>","0","corr_feedback","1","train","26","","","","","","","",""
"","","","","","","","","","","","html-button-response","157","2.0.0","1068312","63c0a40fed93c574b9ec5643","2","33","27234","","","","","","","","","<img src= ""rock_img/I_Andesite_14.jpg"" style=""width:8cm; height:5.449999999999999cm;""><p>What type of rock is this?</p>","1","class_response","1","train","27","Basalt","Andesite","14","false","2","1","",""
"","","","","","","","","","","","html-button-response","158","2.0.0","1077310","63c0a40fed93c574b9ec5643","2","33","8995","","","","","","","","","<img src= rock_img/I_Andesite_14.jpg style=""width:8cm; height:5.449999999999999cm;""><p style='font-size: 30px; color: red;'><strong>Incorrect!</strong></p><p style='font-size: 30px;'><strong>This rock is andesite</strong></p>","0","corr_feedback","1","train","27","","","","","","","",""
"","","","","","","","","","","","html-button-response","159","2.0.0","1086164","63c0a40fed93c574b9ec5643","2","33","8852","","","","","","","","","<img src= ""rock_img/I_Pegmatite_07.jpg"" style=""width:8cm; height:6.7cm;""><p>What type of rock is this?</p>","5","class_response","1","train","28","Pegmatite","Pegmatite","07","true","6","6","",""
"","","","","","","","","","","","html-button-response","160","2.0.0","1087220","63c0a40fed93c574b9ec5643","2","33","1054","","","","","","","","","<img src= rock_img/I_Pegmatite_07.jpg style=""width:8cm; height:6.7cm;""><p style='font-size: 30px; color: green;'><strong>Correct!</strong></p><p style='font-size: 30px;'><strong>This rock is pegmatite</strong></p>","0","corr_feedback","1","train","28","","","","","","","",""
"","","","","","","","","","","","html-button-response","161","2.0.0","1093094","63c0a40fed93c574b9ec5643","2","33","5870","","","","","","","","","<img src= ""rock_img/I_Pegmatite_16.jpg"" style=""width:8cm; height:5.8cm;""><p>What type of rock is this?</p>","5","class_response","1","train","29","Pegmatite","Pegmatite","16","true","6","6","",""
"","","","","","","","","","","","html-button-response","162","2.0.0","1094307","63c0a40fed93c574b9ec5643","2","33","1211","","","","","","","","","<img src= rock_img/I_Pegmatite_16.jpg style=""width:8cm; height:5.8cm;""><p style='font-size: 30px; color: green;'><strong>Correct!</strong></p><p style='font-size: 30px;'><strong>This rock is pegmatite</strong></p>","0","corr_feedback","1","train","29","","","","","","","",""
"","","","","","","","","","","","html-button-response","163","2.0.0","1095596","63c0a40fed93c574b9ec5643","2","33","1285","","","","","","","","","<img src= ""rock_img/I_Pumice_04.jpg"" style=""width:8cm; height:6.819999999999999cm;""><p>What type of rock is this?</p>","7","class_response","1","train","30","Pumice","Pumice","04","true","8","8","",""
"","","","","","","","","","","","html-button-response","164","2.0.0","1096567","63c0a40fed93c574b9ec5643","2","33","968","","","","","","","","","<img src= rock_img/I_Pumice_04.jpg style=""width:8cm; height:6.819999999999999cm;""><p style='font-size: 30px; color: green;'><strong>Correct!</strong></p><p style='font-size: 30px;'><strong>This rock is pumice</strong></p>","0","corr_feedback","1","train","30","","","","","","","",""
"","","","","","","","","","","","html-button-response","165","2.0.0","1101077","63c0a40fed93c574b9ec5643","2","33","4508","","","","","","","","","<img src= ""rock_img/I_Gabbro_15.jpg"" style=""width:8cm; height:6.29cm;""><p>What type of rock is this?</p>","2","class_response","1","train","31","Diorite","Gabbro","15","false","3","4","",""
"","","","","","","","","","","","html-button-response","166","2.0.0","1103147","63c0a40fed93c574b9ec5643","2","33","2068","","","","","","","","","<img src= rock_img/I_Gabbro_15.jpg style=""width:8cm; height:6.29cm;""><p style='font-size: 30px; color: red;'><strong>Incorrect!</strong></p><p style='font-size: 30px;'><strong>This rock is gabbro</strong></p>","0","corr_feedback","1","train","31","","","","","","","",""
"","","","","","","","","","","","html-button-response","167","2.0.0","1105955","63c0a40fed93c574b9ec5643","2","33","2806","","","","","","","","","<img src= ""rock_img/I_Diorite_13.jpg"" style=""width:8cm; height:6.29cm;""><p>What type of rock is this?</p>","2","class_response","1","train","32","Diorite","Diorite","13","true","3","3","",""
"","","","","","","","","","","","html-button-response","168","2.0.0","1107156","63c0a40fed93c574b9ec5643","2","33","1198","","","","","","","","","<img src= rock_img/I_Diorite_13.jpg style=""width:8cm; height:6.29cm;""><p style='font-size: 30px; color: green;'><strong>Correct!</strong></p><p style='font-size: 30px;'><strong>This rock is diorite</strong></p>","0","corr_feedback","1","train","32","","","","","","","",""
"","","","","","","","","","","","html-button-response","169","2.0.0","1115771","63c0a40fed93c574b9ec5643","2","33","8611","","","","","","","","","<img src= ""rock_img/I_Gabbro_12.jpg"" style=""width:8cm; height:7.800000000000001cm;""><p>What type of rock is this?</p>","3","class_response","1","train","33","Gabbro","Gabbro","12","true","4","4","",""
"","","","","","","","","","","","html-button-response","170","2.0.0","1116881","63c0a40fed93c574b9ec5643","2","33","1107","","","","","","","","","<img src= rock_img/I_Gabbro_12.jpg style=""width:8cm; height:7.800000000000001cm;""><p style='font-size: 30px; color: green;'><strong>Correct!</strong></p><p style='font-size: 30px;'><strong>This rock is gabbro</strong></p>","0","corr_feedback","1","train","33","","","","","","","",""
"","","","","","","","","","","","html-button-response","171","2.0.0","1124689","63c0a40fed93c574b9ec5643","2","33","7805","","","","","","","","","<img src= ""rock_img/I_Basalt_05.jpg"" style=""width:8cm; height:8.18cm;""><p>What type of rock is this?</p>","1","class_response","1","train","34","Basalt","Basalt","05","true","2","2","",""
"","","","","","","","","","","","html-button-response","172","2.0.0","1125490","63c0a40fed93c574b9ec5643","2","33","798","","","","","","","","","<img src= rock_img/I_Basalt_05.jpg style=""width:8cm; height:8.18cm;""><p style='font-size: 30px; color: green;'><strong>Correct!</strong></p><p style='font-size: 30px;'><strong>This rock is basalt</strong></p>","0","corr_feedback","1","train","34","","","","","","","",""
"","","","","","","","","","","","html-button-response","173","2.0.0","1130133","63c0a40fed93c574b9ec5643","2","33","4640","","","","","","","","","<img src= ""rock_img/I_Diorite_07.jpg"" style=""width:8cm; height:5.239999999999999cm;""><p>What type of rock is this?</p>","2","class_response","1","train","35","Diorite","Diorite","07","true","3","3","",""
"","","","","","","","","","","","html-button-response","174","2.0.0","1130968","63c0a40fed93c574b9ec5643","2","33","832","","","","","","","","","<img src= rock_img/I_Diorite_07.jpg style=""width:8cm; height:5.239999999999999cm;""><p style='font-size: 30px; color: green;'><strong>Correct!</strong></p><p style='font-size: 30px;'><strong>This rock is diorite</strong></p>","0","corr_feedback","1","train","35","","","","","","","",""
"","","","","","","","","","","","html-button-response","175","2.0.0","1134661","63c0a40fed93c574b9ec5643","2","33","3689","","","","","","","","","<img src= ""rock_img/I_Diorite_08.jpg"" style=""width:8cm; height:6.37cm;""><p>What type of rock is this?</p>","2","class_response","1","train","36","Diorite","Diorite","08","true","3","3","",""
"","","","","","","","","","","","html-button-response","176","2.0.0","1135426","63c0a40fed93c574b9ec5643","2","33","763","","","","","","","","","<img src= rock_img/I_Diorite_08.jpg style=""width:8cm; height:6.37cm;""><p style='font-size: 30px; color: green;'><strong>Correct!</strong></p><p style='font-size: 30px;'><strong>This rock is diorite</strong></p>","0","corr_feedback","1","train","36","","","","","","","",""
"","","","","","","","","","","","html-button-response","177","2.0.0","1147447","63c0a40fed93c574b9ec5643","2","33","12018","","","","","","","","","<img src= ""rock_img/I_Gabbro_09.jpg"" style=""width:8cm; height:7.279999999999999cm;""><p>What type of rock is this?</p>","3","class_response","1","train","37","Gabbro","Gabbro","09","true","4","4","",""
"","","","","","","","","","","","html-button-response","178","2.0.0","1148351","63c0a40fed93c574b9ec5643","2","33","902","","","","","","","","","<img src= rock_img/I_Gabbro_09.jpg style=""width:8cm; height:7.279999999999999cm;""><p style='font-size: 30px; color: green;'><strong>Correct!</strong></p><p style='font-size: 30px;'><strong>This rock is gabbro</strong></p>","0","corr_feedback","1","train","37","","","","","","","",""
"","","","","","","","","","","","html-button-response","179","2.0.0","1167109","63c0a40fed93c574b9ec5643","2","33","18755","","","","","","","","","<img src= ""rock_img/I_Diorite_06.jpg"" style=""width:8cm; height:6.03cm;""><p>What type of rock is this?</p>","3","class_response","1","train","38","Gabbro","Diorite","06","false","4","3","",""
"","","","","","","","","","","","html-button-response","180","2.0.0","1169609","63c0a40fed93c574b9ec5643","2","33","2498","","","","","","","","","<img src= rock_img/I_Diorite_06.jpg style=""width:8cm; height:6.03cm;""><p style='font-size: 30px; color: red;'><strong>Incorrect!</strong></p><p style='font-size: 30px;'><strong>This rock is diorite</strong></p>","0","corr_feedback","1","train","38","","","","","","","",""
"","","","","","","","","","","","html-button-response","181","2.0.0","1180952","63c0a40fed93c574b9ec5643","2","33","11340","","","","","","","","","<img src= ""rock_img/I_Peridotite_10.jpg"" style=""width:8cm; height:5.390000000000001cm;""><p>What type of rock is this?</p>","0","class_response","1","train","39","Andesite","Peridotite","10","false","1","7","",""
"","","","","","","","","","","","html-button-response","182","2.0.0","1182343","63c0a40fed93c574b9ec5643","2","33","1388","","","","","","","","","<img src= rock_img/I_Peridotite_10.jpg style=""width:8cm; height:5.390000000000001cm;""><p style='font-size: 30px; color: red;'><strong>Incorrect!</strong></p><p style='font-size: 30px;'><strong>This rock is peridotite</strong></p>","0","corr_feedback","1","train","39","","","","","","","",""
"","","","","","","","","","","","html-button-response","183","2.0.0","1186395","63c0a40fed93c574b9ec5643","2","33","4049","","","","","","","","","<img src= ""rock_img/I_Andesite_05.jpg"" style=""width:8cm; height:4.12cm;""><p>What type of rock is this?</p>","6","class_response","1","train","40","Peridotite","Andesite","05","false","7","1","",""
"","","","","","","","","","","","html-button-response","184","2.0.0","1189333","63c0a40fed93c574b9ec5643","2","33","2936","","","","","","","","","<img src= rock_img/I_Andesite_05.jpg style=""width:8cm; height:4.12cm;""><p style='font-size: 30px; color: red;'><strong>Incorrect!</strong></p><p style='font-size: 30px;'><strong>This rock is andesite</strong></p>","0","corr_feedback","1","train","40","","","","","","","",""
"","","","","","","","","","","","html-button-response","185","2.0.0","1195365","63c0a40fed93c574b9ec5643","2","33","6030","","","","","","","","","<img src= ""rock_img/I_Gabbro_01.jpg"" style=""width:8cm; height:5.21cm;""><p>What type of rock is this?</p>","0","class_response","1","train","41","Andesite","Gabbro","01","false","1","4","",""
"","","","","","","","","","","","html-button-response","186","2.0.0","1200923","63c0a40fed93c574b9ec5643","2","33","5555","","","","","","","","","<img src= rock_img/I_Gabbro_01.jpg style=""width:8cm; height:5.21cm;""><p style='font-size: 30px; color: red;'><strong>Incorrect!</strong></p><p style='font-size: 30px;'><strong>This rock is gabbro</strong></p>","0","corr_feedback","1","train","41","","","","","","","",""
"","","","","","","","","","","","html-button-response","187","2.0.0","1216063","63c0a40fed93c574b9ec5643","2","33","15137","","","","","","","","","<img src= ""rock_img/I_Andesite_04.jpg"" style=""width:8cm; height:5.96cm;""><p>What type of rock is this?</p>","5","class_response","1","train","42","Pegmatite","Andesite","04","false","6","1","",""
"","","","","","","","","","","","html-button-response","188","2.0.0","1217164","63c0a40fed93c574b9ec5643","2","33","1099","","","","","","","","","<img src= rock_img/I_Andesite_04.jpg style=""width:8cm; height:5.96cm;""><p style='font-size: 30px; color: red;'><strong>Incorrect!</strong></p><p style='font-size: 30px;'><strong>This rock is andesite</strong></p>","0","corr_feedback","1","train","42","","","","","","","",""
"","","","","","","","","","","","html-button-response","189","2.0.0","1218492","63c0a40fed93c574b9ec5643","2","33","1325","","","","","","","","","<img src= ""rock_img/I_Obsidian_07.jpg"" style=""width:8cm; height:4.76cm;""><p>What type of rock is this?</p>","4","class_response","1","train","43","Obsidian","Obsidian","07","true","5","5","",""
"","","","","","","","","","","","html-button-response","190","2.0.0","1219224","63c0a40fed93c574b9ec5643","2","33","729","","","","","","","","","<img src= rock_img/I_Obsidian_07.jpg style=""width:8cm; height:4.76cm;""><p style='font-size: 30px; color: green;'><strong>Correct!</strong></p><p style='font-size: 30px;'><strong>This rock is obsidian</strong></p>","0","corr_feedback","1","train","43","","","","","","","",""
"","","","","","","","","","","","html-button-response","191","2.0.0","1220347","63c0a40fed93c574b9ec5643","2","33","1120","","","","","","","","","<img src= ""rock_img/I_Pegmatite_11.jpg"" style=""width:8cm; height:8.14cm;""><p>What type of rock is this?</p>","5","class_response","1","train","44","Pegmatite","Pegmatite","11","true","6","6","",""
"","","","","","","","","","","","html-button-response","192","2.0.0","1220999","63c0a40fed93c574b9ec5643","2","33","650","","","","","","","","","<img src= rock_img/I_Pegmatite_11.jpg style=""width:8cm; height:8.14cm;""><p style='font-size: 30px; color: green;'><strong>Correct!</strong></p><p style='font-size: 30px;'><strong>This rock is pegmatite</strong></p>","0","corr_feedback","1","train","44","","","","","","","",""
"","","","","","","","","","","","html-button-response","193","2.0.0","1240237","63c0a40fed93c574b9ec5643","2","33","19236","","","","","","","","","<img src= ""rock_img/I_Peridotite_12.jpg"" style=""width:8cm; height:4.54cm;""><p>What type of rock is this?</p>","6","class_response","1","train","45","Peridotite","Peridotite","12","true","7","7","",""
"","","","","","","","","","","","html-button-response","194","2.0.0","1241089","63c0a40fed93c574b9ec5643","2","33","849","","","","","","","","","<img src= rock_img/I_Peridotite_12.jpg style=""width:8cm; height:4.54cm;""><p style='font-size: 30px; color: green;'><strong>Correct!</strong></p><p style='font-size: 30px;'><strong>This rock is peridotite</strong></p>","0","corr_feedback","1","train","45","","","","","","","",""
"","","","","","","","","","","","html-button-response","195","2.0.0","1242730","63c0a40fed93c574b9ec5643","2","33","1638","","","","","","","","","<img src= ""rock_img/I_Obsidian_04.jpg"" style=""width:8cm; height:6.930000000000001cm;""><p>What type of rock is this?</p>","4","class_response","1","train","46","Obsidian","Obsidian","04","true","5","5","",""
"","","","","","","","","","","","html-button-response","196","2.0.0","1243455","63c0a40fed93c574b9ec5643","2","33","723","","","","","","","","","<img src= rock_img/I_Obsidian_04.jpg style=""width:8cm; height:6.930000000000001cm;""><p style='font-size: 30px; color: green;'><strong>Correct!</strong></p><p style='font-size: 30px;'><strong>This rock is obsidian</strong></p>","0","corr_feedback","1","train","46","","","","","","","",""
"","","","","","","","","","","","html-button-response","197","2.0.0","1244942","63c0a40fed93c574b9ec5643","2","33","1484","","","","","","","","","<img src= ""rock_img/I_Pegmatite_09.jpg"" style=""width:8cm; height:4.03cm;""><p>What type of rock is this?</p>","5","class_response","1","train","47","Pegmatite","Pegmatite","09","true","6","6","",""
"","","","","","","","","","","","html-button-response","198","2.0.0","1245580","63c0a40fed93c574b9ec5643","2","33","636","","","","","","","","","<img src= rock_img/I_Pegmatite_09.jpg style=""width:8cm; height:4.03cm;""><p style='font-size: 30px; color: green;'><strong>Correct!</strong></p><p style='font-size: 30px;'><strong>This rock is pegmatite</strong></p>","0","corr_feedback","1","train","47","","","","","","","",""
"","","","","","","","","","","","html-button-response","199","2.0.0","1247426","63c0a40fed93c574b9ec5643","2","33","1843","","","","","","","","","<img src= ""rock_img/I_Pegmatite_13.jpg"" style=""width:8cm; height:4.95cm;""><p>What type of rock is this?</p>","1","class_response","1","train","48","Basalt","Pegmatite","13","false","2","6","",""
"","","","","","","","","","","","html-button-response","200","2.0.0","1258366","63c0a40fed93c574b9ec5643","2","33","10938","","","","","","","","","<img src= rock_img/I_Pegmatite_13.jpg style=""width:8cm; height:4.95cm;""><p style='font-size: 30px; color: red;'><strong>Incorrect!</strong></p><p style='font-size: 30px;'><strong>This rock is pegmatite</strong></p>","0","corr_feedback","1","train","48","","","","","","","",""
"","","","","","","","","","","","instructions","203","2.0.0","1280743","63c0a40fed93c574b9ec5643","2","33","22373","","","","","","","","[{""page_index"":0,""viewing_time"":8877},{""page_index"":1,""viewing_time"":13496}]","","","","","","","","","","","","","",""
"","","","","","","","","","","","html-button-response","204","2.0.0","1285103","63c0a40fed93c574b9ec5643","2","33","4358","","","","","","","","","","0","start_test","","","","","","","","","","",""
"","","","","","","","","","","","html-button-response","205","2.0.0","1301809","63c0a40fed93c574b9ec5643","2","33","16703","","","","","","","","","<img src= ""rock_img/I_Gabbro_03.jpg"" style=""width:8cm; height:8.52cm;""><p>What type of rock is this?</p>","0","class_response","1","test","1","Andesite","Gabbro","03","false","1","4","",""
"","","","","","","","","","","","html-keyboard-response","206","2.0.0","1302334","63c0a40fed93c574b9ec5643","2","33","null","","","","","","","","","<p style='font-size: 30px;'><strong>Okay</strong></p>","null","neutral_feedback","1","test","1","","","","","","","",""
"","","","","","","","","","","","html-button-response","207","2.0.0","1310574","63c0a40fed93c574b9ec5643","2","33","8237","","","","","","","","","<img src= ""rock_img/I_Andesite_10.jpg"" style=""width:8cm; height:4.16cm;""><p>What type of rock is this?</p>","0","class_response","1","test","2","Andesite","Andesite","10","true","1","1","",""
"","","","","","","","","","","","html-keyboard-response","208","2.0.0","1311078","63c0a40fed93c574b9ec5643","2","33","null","","","","","","","","","<p style='font-size: 30px;'><strong>Okay</strong></p>","null","neutral_feedback","1","test","2","","","","","","","",""
"","","","","","","","","","","","html-button-response","209","2.0.0","1312516","63c0a40fed93c574b9ec5643","2","33","1436","","","","","","","","","<img src= ""rock_img/I_Obsidian_08.jpg"" style=""width:8cm; height:7.39cm;""><p>What type of rock is this?</p>","4","class_response","1","test","3","Obsidian","Obsidian","08","true","5","5","",""
"","","","","","","","","","","","html-keyboard-response","210","2.0.0","1313028","63c0a40fed93c574b9ec5643","2","33","null","","","","","","","","","<p style='font-size: 30px;'><strong>Okay</strong></p>","null","neutral_feedback","1","test","3","","","","","","","",""
"","","","","","","","","","","","html-button-response","211","2.0.0","1314406","63c0a40fed93c574b9ec5643","2","33","1376","","","","","","","","","<img src= ""rock_img/I_Obsidian_06.jpg"" style=""width:8cm; height:6.8cm;""><p>What type of rock is this?</p>","4","class_response","1","test","4","Obsidian","Obsidian","06","true","5","5","",""
"","","","","","","","","","","","html-keyboard-response","212","2.0.0","1314922","63c0a40fed93c574b9ec5643","2","33","null","","","","","","","","","<p style='font-size: 30px;'><strong>Okay</strong></p>","null","neutral_feedback","1","test","4","","","","","","","",""
"","","","","","","","","","","","html-button-response","213","2.0.0","1316229","63c0a40fed93c574b9ec5643","2","33","1304","","","","","","","","","<img src= ""rock_img/I_Obsidian_12.jpg"" style=""width:8cm; height:6.53cm;""><p>What type of rock is this?</p>","4","class_response","1","test","5","Obsidian","Obsidian","12","true","5","5","",""
"","","","","","","","","","","","html-keyboard-response","214","2.0.0","1316732","63c0a40fed93c574b9ec5643","2","33","null","","","","","","","","","<p style='font-size: 30px;'><strong>Okay</strong></p>","null","neutral_feedback","1","test","5","","","","","","","",""
"","","","","","","","","","","","html-button-response","215","2.0.0","1318788","63c0a40fed93c574b9ec5643","2","33","2053","","","","","","","","","<img src= ""rock_img/I_Peridotite_04.jpg"" style=""width:8cm; height:6.680000000000001cm;""><p>What type of rock is this?</p>","5","class_response","1","test","6","Pegmatite","Peridotite","04","false","6","7","",""
"","","","","","","","","","","","html-keyboard-response","216","2.0.0","1319303","63c0a40fed93c574b9ec5643","2","33","null","","","","","","","","","<p style='font-size: 30px;'><strong>Okay</strong></p>","null","neutral_feedback","1","test","6","","","","","","","",""
"","","","","","","","","","","","html-button-response","217","2.0.0","1345572","63c0a40fed93c574b9ec5643","2","33","26267","","","","","","","","","<img src= ""rock_img/I_Peridotite_05.jpg"" style=""width:8cm; height:7.1499999999999995cm;""><p>What type of rock is this?</p>","3","class_response","1","test","7","Gabbro","Peridotite","05","false","4","7","",""
"","","","","","","","","","","","html-keyboard-response","218","2.0.0","1346078","63c0a40fed93c574b9ec5643","2","33","null","","","","","","","","","<p style='font-size: 30px;'><strong>Okay</strong></p>","null","neutral_feedback","1","test","7","","","","","","","",""
"","","","","","","","","","","","html-button-response","219","2.0.0","1366942","63c0a40fed93c574b9ec5643","2","33","20862","","","","","","","","","<img src= ""rock_img/I_Gabbro_13.jpg"" style=""width:8cm; height:5.08cm;""><p>What type of rock is this?</p>","2","class_response","1","test","8","Diorite","Gabbro","13","false","3","4","",""
"","","","","","","","","","","","html-keyboard-response","220","2.0.0","1367451","63c0a40fed93c574b9ec5643","2","33","null","","","","","","","","","<p style='font-size: 30px;'><strong>Okay</strong></p>","null","neutral_feedback","1","test","8","","","","","","","",""
"","","","","","","","","","","","html-button-response","221","2.0.0","1368752","63c0a40fed93c574b9ec5643","2","33","1298","","","","","","","","","<img src= ""rock_img/I_Basalt_10.jpg"" style=""width:8cm; height:5.85cm;""><p>What type of rock is this?</p>","4","class_response","1","test","9","Obsidian","Basalt","10","false","5","2","",""
"","","","","","","","","","","","html-keyboard-response","222","2.0.0","1369267","63c0a40fed93c574b9ec5643","2","33","null","","","","","","","","","<p style='font-size: 30px;'><strong>Okay</strong></p>","null","neutral_feedback","1","test","9","","","","","","","",""
"","","","","","","","","","","","html-button-response","223","2.0.0","1371456","63c0a40fed93c574b9ec5643","2","33","2187","","","","","","","","","<img src= ""rock_img/I_Gabbro_16.jpg"" style=""width:8cm; height:6.44cm;""><p>What type of rock is this?</p>","1","class_response","1","test","10","Basalt","Gabbro","16","false","2","4","",""
"","","","","","","","","","","","html-keyboard-response","224","2.0.0","1371959","63c0a40fed93c574b9ec5643","2","33","null","","","","","","","","","<p style='font-size: 30px;'><strong>Okay</strong></p>","null","neutral_feedback","1","test","10","","","","","","","",""
"","","","","","","","","","","","html-button-response","225","2.0.0","1373113","63c0a40fed93c574b9ec5643","2","33","1152","","","","","","","","","<img src= ""rock_img/I_Gabbro_10.jpg"" style=""width:8cm; height:5.680000000000001cm;""><p>What type of rock is this?</p>","6","class_response","1","test","11","Peridotite","Gabbro","10","false","7","4","",""
"","","","","","","","","","","","html-keyboard-response","226","2.0.0","1373626","63c0a40fed93c574b9ec5643","2","33","null","","","","","","","","","<p style='font-size: 30px;'><strong>Okay</strong></p>","null","neutral_feedback","1","test","11","","","","","","","",""
"","","","","","","","","","","","html-button-response","227","2.0.0","1375802","63c0a40fed93c574b9ec5643","2","33","2173","","","","","","","","","<img src= ""rock_img/I_Basalt_16.jpg"" style=""width:8cm; height:7.659999999999999cm;""><p>What type of rock is this?</p>","7","class_response","1","test","12","Pumice","Basalt","16","false","8","2","",""
"","","","","","","","","","","","html-keyboard-response","228","2.0.0","1376317","63c0a40fed93c574b9ec5643","2","33","null","","","","","","","","","<p style='font-size: 30px;'><strong>Okay</strong></p>","null","neutral_feedback","1","test","12","","","","","","","",""
"","","","","","","","","","","","html-button-response","229","2.0.0","1377314","63c0a40fed93c574b9ec5643","2","33","994","","","","","","","","","<img src= ""rock_img/I_Pumice_06.jpg"" style=""width:8cm; height:6.9399999999999995cm;""><p>What type of rock is this?</p>","7","class_response","1","test","13","Pumice","Pumice","06","true","8","8","",""
"","","","","","","","","","","","html-keyboard-response","230","2.0.0","1377828","63c0a40fed93c574b9ec5643","2","33","null","","","","","","","","","<p style='font-size: 30px;'><strong>Okay</strong></p>","null","neutral_feedback","1","test","13","","","","","","","",""
"","","","","","","","","","","","html-button-response","231","2.0.0","1379635","63c0a40fed93c574b9ec5643","2","33","1805","","","","","","","","","<img src= ""rock_img/I_Basalt_11.jpg"" style=""width:8cm; height:5.359999999999999cm;""><p>What type of rock is this?</p>","1","class_response","1","test","14","Basalt","Basalt","11","true","2","2","",""
"","","","","","","","","","","","html-keyboard-response","232","2.0.0","1380151","63c0a40fed93c574b9ec5643","2","33","null","","","","","","","","","<p style='font-size: 30px;'><strong>Okay</strong></p>","null","neutral_feedback","1","test","14","","","","","","","",""
"","","","","","","","","","","","html-button-response","233","2.0.0","1381294","63c0a40fed93c574b9ec5643","2","33","1141","","","","","","","","","<img src= ""rock_img/I_Obsidian_09.jpg"" style=""width:8cm; height:5cm;""><p>What type of rock is this?</p>","4","class_response","1","test","15","Obsidian","Obsidian","09","true","5","5","",""
"","","","","","","","","","","","html-keyboard-response","234","2.0.0","1381810","63c0a40fed93c574b9ec5643","2","33","null","","","","","","","","","<p style='font-size: 30px;'><strong>Okay</strong></p>","null","neutral_feedback","1","test","15","","","","","","","",""
"","","","","","","","","","","","html-button-response","235","2.0.0","1386435","63c0a40fed93c574b9ec5643","2","33","4622","","","","","","","","","<img src= ""rock_img/I_Diorite_09.jpg"" style=""width:8cm; height:5.27cm;""><p>What type of rock is this?</p>","0","class_response","1","test","16","Andesite","Diorite","09","false","1","3","",""
"","","","","","","","","","","","html-keyboard-response","236","2.0.0","1386949","63c0a40fed93c574b9ec5643","2","33","null","","","","","","","","","<p style='font-size: 30px;'><strong>Okay</strong></p>","null","neutral_feedback","1","test","16","","","","","","","",""
"","","","","","","","","","","","html-button-response","237","2.0.0","1388385","63c0a40fed93c574b9ec5643","2","33","1432","","","","","","","","","<img src= ""rock_img/I_Pegmatite_03.jpg"" style=""width:8cm; height:5.239999999999999cm;""><p>What type of rock is this?</p>","5","class_response","1","test","17","Pegmatite","Pegmatite","03","true","6","6","",""
"","","","","","","","","","","","html-keyboard-response","238","2.0.0","1388890","63c0a40fed93c574b9ec5643","2","33","null","","","","","","","","","<p style='font-size: 30px;'><strong>Okay</strong></p>","null","neutral_feedback","1","test","17","","","","","","","",""
"","","","","","","","","","","","html-button-response","239","2.0.0","1391373","63c0a40fed93c574b9ec5643","2","33","2481","","","","","","","","","<img src= ""rock_img/I_Peridotite_16.jpg"" style=""width:8cm; height:6.989999999999999cm;""><p>What type of rock is this?</p>","6","class_response","1","test","18","Peridotite","Peridotite","16","true","7","7","",""
"","","","","","","","","","","","html-keyboard-response","240","2.0.0","1391882","63c0a40fed93c574b9ec5643","2","33","null","","","","","","","","","<p style='font-size: 30px;'><strong>Okay</strong></p>","null","neutral_feedback","1","test","18","","","","","","","",""
"","","","","","","","","","","","html-button-response","241","2.0.0","1404105","63c0a40fed93c574b9ec5643","2","33","12220","","","","","","","","","<img src= ""rock_img/I_Pegmatite_15.jpg"" style=""width:8cm; height:6cm;""><p>What type of rock is this?</p>","6","class_response","1","test","19","Peridotite","Pegmatite","15","false","7","6","",""
"","","","","","","","","","","","html-keyboard-response","242","2.0.0","1404607","63c0a40fed93c574b9ec5643","2","33","null","","","","","","","","","<p style='font-size: 30px;'><strong>Okay</strong></p>","null","neutral_feedback","1","test","19","","","","","","","",""
"","","","","","","","","","","","html-button-response","243","2.0.0","1406133","63c0a40fed93c574b9ec5643","2","33","1523","","","","","","","","","<img src= ""rock_img/I_Pumice_14.jpg"" style=""width:8cm; height:6.39cm;""><p>What type of rock is this?</p>","7","class_response","1","test","20","Pumice","Pumice","14","true","8","8","",""
"","","","","","","","","","","","html-keyboard-response","244","2.0.0","1406636","63c0a40fed93c574b9ec5643","2","33","null","","","","","","","","","<p style='font-size: 30px;'><strong>Okay</strong></p>","null","neutral_feedback","1","test","20","","","","","","","",""
"","","","","","","","","","","","html-button-response","245","2.0.0","1408478","63c0a40fed93c574b9ec5643","2","33","1840","","","","","","","","","<img src= ""rock_img/I_Diorite_14.jpg"" style=""width:8cm; height:5.71cm;""><p>What type of rock is this?</p>","1","class_response","1","test","21","Basalt","Diorite","14","false","2","3","",""
"","","","","","","","","","","","html-keyboard-response","246","2.0.0","1408987","63c0a40fed93c574b9ec5643","2","33","null","","","","","","","","","<p style='font-size: 30px;'><strong>Okay</strong></p>","null","neutral_feedback","1","test","21","","","","","","","",""
"","","","","","","","","","","","html-button-response","247","2.0.0","1415798","63c0a40fed93c574b9ec5643","2","33","6808","","","","","","","","","<img src= ""rock_img/I_Pumice_05.jpg"" style=""width:8cm; height:7.25cm;""><p>What type of rock is this?</p>","7","class_response","1","test","22","Pumice","Pumice","05","true","8","8","",""
"","","","","","","","","","","","html-keyboard-response","248","2.0.0","1416301","63c0a40fed93c574b9ec5643","2","33","null","","","","","","","","","<p style='font-size: 30px;'><strong>Okay</strong></p>","null","neutral_feedback","1","test","22","","","","","","","",""
"","","","","","","","","","","","html-button-response","249","2.0.0","1417698","63c0a40fed93c574b9ec5643","2","33","1394","","","","","","","","","<img src= ""rock_img/I_Basalt_04.jpg"" style=""width:8cm; height:7.53cm;""><p>What type of rock is this?</p>","4","class_response","1","test","23","Obsidian","Basalt","04","false","5","2","",""
"","","","","","","","","","","","html-keyboard-response","250","2.0.0","1418203","63c0a40fed93c574b9ec5643","2","33","null","","","","","","","","","<p style='font-size: 30px;'><strong>Okay</strong></p>","null","neutral_feedback","1","test","23","","","","","","","",""
"","","","","","","","","","","","html-button-response","251","2.0.0","1419857","63c0a40fed93c574b9ec5643","2","33","1652","","","","","","","","","<img src= ""rock_img/I_Peridotite_08.jpg"" style=""width:8cm; height:6.7cm;""><p>What type of rock is this?</p>","0","class_response","1","test","24","Andesite","Peridotite","08","false","1","7","",""
"","","","","","","","","","","","html-keyboard-response","252","2.0.0","1420362","63c0a40fed93c574b9ec5643","2","33","null","","","","","","","","","<p style='font-size: 30px;'><strong>Okay</strong></p>","null","neutral_feedback","1","test","24","","","","","","","",""
"","","","","","","","","","","","html-button-response","253","2.0.0","1422936","63c0a40fed93c574b9ec5643","2","33","2571","","","","","","","","","<img src= ""rock_img/I_Diorite_15.jpg"" style=""width:8cm; height:5.54cm;""><p>What type of rock is this?</p>","0","class_response","1","test","25","Andesite","Diorite","15","false","1","3","",""
"","","","","","","","","","","","html-keyboard-response","254","2.0.0","1423451","63c0a40fed93c574b9ec5643","2","33","null","","","","","","","","","<p style='font-size: 30px;'><strong>Okay</strong></p>","null","neutral_feedback","1","test","25","","","","","","","",""
"","","","","","","","","","","","html-button-response","255","2.0.0","1424725","63c0a40fed93c574b9ec5643","2","33","1271","","","","","","","","","<img src= ""rock_img/I_Obsidian_05.jpg"" style=""width:8cm; height:6.33cm;""><p>What type of rock is this?</p>","4","class_response","1","test","26","Obsidian","Obsidian","05","true","5","5","",""
"","","","","","","","","","","","html-keyboard-response","256","2.0.0","1425242","63c0a40fed93c574b9ec5643","2","33","null","","","","","","","","","<p style='font-size: 30px;'><strong>Okay</strong></p>","null","neutral_feedback","1","test","26","","","","","","","",""
"","","","","","","","","","","","html-button-response","257","2.0.0","1426573","63c0a40fed93c574b9ec5643","2","33","1328","","","","","","","","","<img src= ""rock_img/I_Peridotite_07.jpg"" style=""width:8cm; height:4.83cm;""><p>What type of rock is this?</p>","1","class_response","1","test","27","Basalt","Peridotite","07","false","2","7","",""
"","","","","","","","","","","","html-keyboard-response","258","2.0.0","1427082","63c0a40fed93c574b9ec5643","2","33","null","","","","","","","","","<p style='font-size: 30px;'><strong>Okay</strong></p>","null","neutral_feedback","1","test","27","","","","","","","",""
"","","","","","","","","","","","html-button-response","259","2.0.0","1428384","63c0a40fed93c574b9ec5643","2","33","1299","","","","","","","","","<img src= ""rock_img/I_Gabbro_14.jpg"" style=""width:8cm; height:8.48cm;""><p>What type of rock is this?</p>","5","class_response","1","test","28","Pegmatite","Gabbro","14","false","6","4","",""
"","","","","","","","","","","","html-keyboard-response","260","2.0.0","1428889","63c0a40fed93c574b9ec5643","2","33","null","","","","","","","","","<p style='font-size: 30px;'><strong>Okay</strong></p>","null","neutral_feedback","1","test","28","","","","","","","",""
"","","","","","","","","","","","html-button-response","261","2.0.0","1430563","63c0a40fed93c574b9ec5643","2","33","1671","","","","","","","","","<img src= ""rock_img/I_Pegmatite_10.jpg"" style=""width:8cm; height:4.16cm;""><p>What type of rock is this?</p>","6","class_response","1","test","29","Peridotite","Pegmatite","10","false","7","6","",""
"","","","","","","","","","","","html-keyboard-response","262","2.0.0","1431076","63c0a40fed93c574b9ec5643","2","33","null","","","","","","","","","<p style='font-size: 30px;'><strong>Okay</strong></p>","null","neutral_feedback","1","test","29","","","","","","","",""
"","","","","","","","","","","","html-button-response","263","2.0.0","1433957","63c0a40fed93c574b9ec5643","2","33","2878","","","","","","","","","<img src= ""rock_img/I_Pegmatite_06.jpg"" style=""width:8cm; height:5.17cm;""><p>What type of rock is this?</p>","5","class_response","1","test","30","Pegmatite","Pegmatite","06","true","6","6","",""
"","","","","","","","","","","","html-keyboard-response","264","2.0.0","1434474","63c0a40fed93c574b9ec5643","2","33","null","","","","","","","","","<p style='font-size: 30px;'><strong>Okay</strong></p>","null","neutral_feedback","1","test","30","","","","","","","",""
"","","","","","","","","","","","html-button-response","265","2.0.0","1436097","63c0a40fed93c574b9ec5643","2","33","1621","","","","","","","","","<img src= ""rock_img/I_Pumice_09.jpg"" style=""width:8cm; height:6.44cm;""><p>What type of rock is this?</p>","2","class_response","1","test","31","Diorite","Pumice","09","false","3","8","",""
"","","","","","","","","","","","html-keyboard-response","266","2.0.0","1436607","63c0a40fed93c574b9ec5643","2","33","null","","","","","","","","","<p style='font-size: 30px;'><strong>Okay</strong></p>","null","neutral_feedback","1","test","31","","","","","","","",""
"","","","","","","","","","","","html-button-response","267","2.0.0","1437918","63c0a40fed93c574b9ec5643","2","33","1308","","","","","","","","","<img src= ""rock_img/I_Andesite_01.jpg"" style=""width:8cm; height:5.87cm;""><p>What type of rock is this?</p>","1","class_response","1","test","32","Basalt","Andesite","01","false","2","1","",""
"","","","","","","","","","","","html-keyboard-response","268","2.0.0","1438427","63c0a40fed93c574b9ec5643","2","33","null","","","","","","","","","<p style='font-size: 30px;'><strong>Okay</strong></p>","null","neutral_feedback","1","test","32","","","","","","","",""
"","","","","","","","","","","","html-button-response","269","2.0.0","1439912","63c0a40fed93c574b9ec5643","2","33","1482","","","","","","","","","<img src= ""rock_img/I_Pumice_03.jpg"" style=""width:8cm; height:6.64cm;""><p>What type of rock is this?</p>","7","class_response","1","test","33","Pumice","Pumice","03","true","8","8","",""
"","","","","","","","","","","","html-keyboard-response","270","2.0.0","1440423","63c0a40fed93c574b9ec5643","2","33","null","","","","","","","","","<p style='font-size: 30px;'><strong>Okay</strong></p>","null","neutral_feedback","1","test","33","","","","","","","",""
"","","","","","","","","","","","html-button-response","271","2.0.0","1449039","63c0a40fed93c574b9ec5643","2","33","8614","","","","","","","","","<img src= ""rock_img/I_Basalt_06.jpg"" style=""width:8cm; height:7.06cm;""><p>What type of rock is this?</p>","1","class_response","1","test","34","Basalt","Basalt","06","true","2","2","",""
"","","","","","","","","","","","html-keyboard-response","272","2.0.0","1449549","63c0a40fed93c574b9ec5643","2","33","null","","","","","","","","","<p style='font-size: 30px;'><strong>Okay</strong></p>","null","neutral_feedback","1","test","34","","","","","","","",""
"","","","","","","","","","","","html-button-response","273","2.0.0","1458332","63c0a40fed93c574b9ec5643","2","33","8781","","","","","","","","","<img src= ""rock_img/I_Andesite_16.jpg"" style=""width:8cm; height:6.010000000000001cm;""><p>What type of rock is this?</p>","3","class_response","1","test","35","Gabbro","Andesite","16","false","4","1","",""
"","","","","","","","","","","","html-keyboard-response","274","2.0.0","1458834","63c0a40fed93c574b9ec5643","2","33","null","","","","","","","","","<p style='font-size: 30px;'><strong>Okay</strong></p>","null","neutral_feedback","1","test","35","","","","","","","",""
"","","","","","","","","","","","html-button-response","275","2.0.0","1460161","63c0a40fed93c574b9ec5643","2","33","1325","","","","","","","","","<img src= ""rock_img/I_Obsidian_16.jpg"" style=""width:8cm; height:9.3cm;""><p>What type of rock is this?</p>","4","class_response","1","test","36","Obsidian","Obsidian","16","true","5","5","",""
"","","","","","","","","","","","html-keyboard-response","276","2.0.0","1460674","63c0a40fed93c574b9ec5643","2","33","null","","","","","","","","","<p style='font-size: 30px;'><strong>Okay</strong></p>","null","neutral_feedback","1","test","36","","","","","","","",""
"","","","","","","","","","","","html-button-response","277","2.0.0","1463286","63c0a40fed93c574b9ec5643","2","33","2610","","","","","","","","","<img src= ""rock_img/I_Basalt_08.jpg"" style=""width:8cm; height:10.44cm;""><p>What type of rock is this?</p>","4","class_response","1","test","37","Obsidian","Basalt","08","false","5","2","",""
"","","","","","","","","","","","html-keyboard-response","278","2.0.0","1463797","63c0a40fed93c574b9ec5643","2","33","null","","","","","","","","","<p style='font-size: 30px;'><strong>Okay</strong></p>","null","neutral_feedback","1","test","37","","","","","","","",""
"","","","","","","","","","","","html-button-response","279","2.0.0","1468467","63c0a40fed93c574b9ec5643","2","33","4667","","","","","","","","","<img src= ""rock_img/I_Diorite_02.jpg"" style=""width:8cm; height:6.27cm;""><p>What type of rock is this?</p>","0","class_response","1","test","38","Andesite","Diorite","02","false","1","3","",""
"","","","","","","","","","","","html-keyboard-response","280","2.0.0","1468984","63c0a40fed93c574b9ec5643","2","33","null","","","","","","","","","<p style='font-size: 30px;'><strong>Okay</strong></p>","null","neutral_feedback","1","test","38","","","","","","","",""
"","","","","","","","","","","","html-button-response","281","2.0.0","1470017","63c0a40fed93c574b9ec5643","2","33","1030","","","","","","","","","<img src= ""rock_img/I_Diorite_16.jpg"" style=""width:8cm; height:6.74cm;""><p>What type of rock is this?</p>","0","class_response","1","test","39","Andesite","Diorite","16","false","1","3","",""
"","","","","","","","","","","","html-keyboard-response","282","2.0.0","1470533","63c0a40fed93c574b9ec5643","2","33","null","","","","","","","","","<p style='font-size: 30px;'><strong>Okay</strong></p>","null","neutral_feedback","1","test","39","","","","","","","",""
"","","","","","","","","","","","html-button-response","283","2.0.0","1472061","63c0a40fed93c574b9ec5643","2","33","1526","","","","","","","","","<img src= ""rock_img/I_Pegmatite_12.jpg"" style=""width:8cm; height:5.7cm;""><p>What type of rock is this?</p>","6","class_response","1","test","40","Peridotite","Pegmatite","12","false","7","6","",""
"","","","","","","","","","","","html-keyboard-response","284","2.0.0","1472570","63c0a40fed93c574b9ec5643","2","33","null","","","","","","","","","<p style='font-size: 30px;'><strong>Okay</strong></p>","null","neutral_feedback","1","test","40","","","","","","","",""
"","","","","","","","","","","","html-button-response","285","2.0.0","1474758","63c0a40fed93c574b9ec5643","2","33","2186","","","","","","","","","<img src= ""rock_img/I_Gabbro_08.jpg"" style=""width:8cm; height:5.15cm;""><p>What type of rock is this?</p>","1","class_response","1","test","41","Basalt","Gabbro","08","false","2","4","",""
"","","","","","","","","","","","html-keyboard-response","286","2.0.0","1475268","63c0a40fed93c574b9ec5643","2","33","null","","","","","","","","","<p style='font-size: 30px;'><strong>Okay</strong></p>","null","neutral_feedback","1","test","41","","","","","","","",""
"","","","","","","","","","","","html-button-response","287","2.0.0","1476548","63c0a40fed93c574b9ec5643","2","33","1277","","","","","","","","","<img src= ""rock_img/I_Pegmatite_05.jpg"" style=""width:8cm; height:7.300000000000001cm;""><p>What type of rock is this?</p>","5","class_response","1","test","42","Pegmatite","Pegmatite","05","true","6","6","",""
"","","","","","","","","","","","html-keyboard-response","288","2.0.0","1477052","63c0a40fed93c574b9ec5643","2","33","null","","","","","","","","","<p style='font-size: 30px;'><strong>Okay</strong></p>","null","neutral_feedback","1","test","42","","","","","","","",""
"","","","","","","","","","","","html-button-response","289","2.0.0","1479796","63c0a40fed93c574b9ec5643","2","33","2741","","","","","","","","","<img src= ""rock_img/I_Andesite_09.jpg"" style=""width:8cm; height:6cm;""><p>What type of rock is this?</p>","2","class_response","1","test","43","Diorite","Andesite","09","false","3","1","",""
"","","","","","","","","","","","html-keyboard-response","290","2.0.0","1480311","63c0a40fed93c574b9ec5643","2","33","null","","","","","","","","","<p style='font-size: 30px;'><strong>Okay</strong></p>","null","neutral_feedback","1","test","43","","","","","","","",""
"","","","","","","","","","","","html-button-response","291","2.0.0","1481738","63c0a40fed93c574b9ec5643","2","33","1425","","","","","","","","","<img src= ""rock_img/I_Andesite_06.jpg"" style=""width:8cm; height:6.840000000000001cm;""><p>What type of rock is this?</p>","2","class_response","1","test","44","Diorite","Andesite","06","false","3","1","",""
"","","","","","","","","","","","html-keyboard-response","292","2.0.0","1482248","63c0a40fed93c574b9ec5643","2","33","null","","","","","","","","","<p style='font-size: 30px;'><strong>Okay</strong></p>","null","neutral_feedback","1","test","44","","","","","","","",""
"","","","","","","","","","","","html-button-response","293","2.0.0","1483492","63c0a40fed93c574b9ec5643","2","33","1241","","","","","","","","","<img src= ""rock_img/I_Andesite_02.jpg"" style=""width:8cm; height:8.5cm;""><p>What type of rock is this?</p>","1","class_response","1","test","45","Basalt","Andesite","02","false","2","1","",""
"","","","","","","","","","","","html-keyboard-response","294","2.0.0","1483998","63c0a40fed93c574b9ec5643","2","33","null","","","","","","","","","<p style='font-size: 30px;'><strong>Okay</strong></p>","null","neutral_feedback","1","test","45","","","","","","","",""
"","","","","","","","","","","","html-button-response","295","2.0.0","1486315","63c0a40fed93c574b9ec5643","2","33","2314","","","","","","","","","<img src= ""rock_img/I_Diorite_10.jpg"" style=""width:8cm; height:5.949999999999999cm;""><p>What type of rock is this?</p>","1","class_response","1","test","46","Basalt","Diorite","10","false","2","3","",""
"","","","","","","","","","","","html-keyboard-response","296","2.0.0","1486826","63c0a40fed93c574b9ec5643","2","33","null","","","","","","","","","<p style='font-size: 30px;'><strong>Okay</strong></p>","null","neutral_feedback","1","test","46","","","","","","","",""
"","","","","","","","","","","","html-button-response","297","2.0.0","1488317","63c0a40fed93c574b9ec5643","2","33","1489","","","","","","","","","<img src= ""rock_img/I_Pumice_02.jpg"" style=""width:8cm; height:7.3999999999999995cm;""><p>What type of rock is this?</p>","6","class_response","1","test","47","Peridotite","Pumice","02","false","7","8","",""
"","","","","","","","","","","","html-keyboard-response","298","2.0.0","1488823","63c0a40fed93c574b9ec5643","2","33","null","","","","","","","","","<p style='font-size: 30px;'><strong>Okay</strong></p>","null","neutral_feedback","1","test","47","","","","","","","",""
"","","","","","","","","","","","html-button-response","299","2.0.0","1490158","63c0a40fed93c574b9ec5643","2","33","1332","","","","","","","","","<img src= ""rock_img/I_Peridotite_13.jpg"" style=""width:8cm; height:7.58cm;""><p>What type of rock is this?</p>","5","class_response","1","test","48","Pegmatite","Peridotite","13","false","6","7","",""
"","","","","","","","","","","","html-keyboard-response","300","2.0.0","1490674","63c0a40fed93c574b9ec5643","2","33","null","","","","","","","","","<p style='font-size: 30px;'><strong>Okay</strong></p>","null","neutral_feedback","1","test","48","","","","","","","",""
"","","","","","","","","","","","html-button-response","301","2.0.0","1507803","63c0a40fed93c574b9ec5643","2","33","","","","","","","","","","","","cycle_feedback","","","","","","","","","","8012.099999904633","9109.900000095367"
"","","","","","","","","","","","html-button-response","303","2.0.0","1510891","63c0a40fed93c574b9ec5643","2","33","3085","","","","","","","","","","0","start_train","","","","","","","","","","",""
"","","","","","","","","","","","html-button-response","304","2.0.0","1517298","63c0a40fed93c574b9ec5643","2","33","6405","","","","","","","","","<img src= ""rock_img/I_Gabbro_11.jpg"" style=""width:8cm; height:6.2cm;""><p>What type of rock is this?</p>","0","class_response","2","train","1","Andesite","Gabbro","11","false","1","4","",""
