width,height,webaudio,browser,browser_version,mobile,os,fullscreen,vsync_rate,webcam,microphone,trial_type,trial_index,plugin_version,time_elapsed,subjID,condition,stimID,rt,url,success,value,timeout,failed_images,failed_audio,failed_video,view_history,stimulus,response,trialType,cycle,phase,trial,resp,cat,token,corr,resp_num,cat_num,time_fb1,time_fb2
1920,925,TRUE,firefox,132.0.0,FALSE,Windows 10,TRUE,51.59,TRUE,TRUE,browser-check,0,2.0.0,1857,5dd9b725954d19948f95327c,2,4,,,,,,,,,,,,,,,,,,,,,,,
,,,,,,,,,,,external-html,1,2.0.0,107764,5dd9b725954d19948f95327c,2,4,105826,consent_form.html,,,,,,,,,,,,,,,,,,,,,
,,,,,,,,,,,fullscreen,2,2.0.0,113633,5dd9b725954d19948f95327c,2,4,4853,,TRUE,,,,,,,,,,,,,,,,,,,,
,,,,,,,,,,,call-function,3,2.0.0,113634,5dd9b725954d19948f95327c,2,4,,,,{},,,,,,,,,,,,,,,,,,,
,,,,,,,,,,,preload,4,2.0.0,115767,5dd9b725954d19948f95327c,2,4,,,TRUE,,FALSE,[],[],[],,,,,,,,,,,,,,,
,,,,,,,,,,,instructions,5,2.0.0,217797,5dd9b725954d19948f95327c,2,4,102029,,,,,,,,"[{""page_index"":0,""viewing_time"":20003},{""page_index"":1,""viewing_time"":12150},{""page_index"":2,""viewing_time"":69876}]",,,,,,,,,,,,,,
,,,,,,,,,,,html-button-response,6,2.0.0,219596,5dd9b725954d19948f95327c,2,4,1797,,,,,,,,,,0,start_test,,,,,,,,,,,
,,,,,,,,,,,html-button-response,7,2.0.0,225538,5dd9b725954d19948f95327c,2,4,5940,,,,,,,,,"<img src= ""rock_img/I_Andesite_01.jpg"" style=""width:8cm; height:5.87cm;""><p>What type of rock is this?</p>",7,class_response,0,test,1,Pumice,Andesite,1,FALSE,8,1,,
,,,,,,,,,,,html-keyboard-response,8,2.0.0,226042,5dd9b725954d19948f95327c,2,4,null,,,,,,,,,<p style='font-size: 30px;'><strong>Okay</strong></p>,null,neutral_feedback,0,test,1,,,,,,,,
,,,,,,,,,,,html-button-response,9,2.0.0,229787,5dd9b725954d19948f95327c,2,4,3744,,,,,,,,,"<img src= ""rock_img/I_Diorite_11.jpg"" style=""width:8cm; height:7.11cm;""><p>What type of rock is this?</p>",1,class_response,0,test,2,Basalt,Diorite,11,FALSE,2,3,,
,,,,,,,,,,,html-keyboard-response,10,2.0.0,230298,5dd9b725954d19948f95327c,2,4,null,,,,,,,,,<p style='font-size: 30px;'><strong>Okay</strong></p>,null,neutral_feedback,0,test,2,,,,,,,,
,,,,,,,,,,,html-button-response,11,2.0.0,235192,5dd9b725954d19948f95327c,2,4,4892,,,,,,,,,"<img src= ""rock_img/I_Diorite_06.jpg"" style=""width:8cm; height:6.03cm;""><p>What type of rock is this?</p>",2,class_response,0,test,3,Diorite,Diorite,6,TRUE,3,3,,
,,,,,,,,,,,html-keyboard-response,12,2.0.0,235695,5dd9b725954d19948f95327c,2,4,null,,,,,,,,,<p style='font-size: 30px;'><strong>Okay</strong></p>,null,neutral_feedback,0,test,3,,,,,,,,
,,,,,,,,,,,html-button-response,13,2.0.0,237490,5dd9b725954d19948f95327c,2,4,1795,,,,,,,,,"<img src= ""rock_img/I_Andesite_05.jpg"" style=""width:8cm; height:4.12cm;""><p>What type of rock is this?</p>",0,class_response,0,test,4,Andesite,Andesite,5,TRUE,1,1,,
,,,,,,,,,,,html-keyboard-response,14,2.0.0,238017,5dd9b725954d19948f95327c,2,4,null,,,,,,,,,<p style='font-size: 30px;'><strong>Okay</strong></p>,null,neutral_feedback,0,test,4,,,,,,,,
,,,,,,,,,,,html-button-response,15,2.0.0,241448,5dd9b725954d19948f95327c,2,4,3429,,,,,,,,,"<img src= ""rock_img/I_Peridotite_16.jpg"" style=""width:8cm; height:6.989999999999999cm;""><p>What type of rock is this?</p>",6,class_response,0,test,5,Peridotite,Peridotite,16,TRUE,7,7,,
,,,,,,,,,,,html-keyboard-response,16,2.0.0,241955,5dd9b725954d19948f95327c,2,4,null,,,,,,,,,<p style='font-size: 30px;'><strong>Okay</strong></p>,null,neutral_feedback,0,test,5,,,,,,,,
,,,,,,,,,,,html-button-response,17,2.0.0,244850,5dd9b725954d19948f95327c,2,4,2894,,,,,,,,,"<img src= ""rock_img/I_Pumice_14.jpg"" style=""width:8cm; height:6.39cm;""><p>What type of rock is this?</p>",7,class_response,0,test,6,Pumice,Pumice,14,TRUE,8,8,,
,,,,,,,,,,,html-keyboard-response,18,2.0.0,245408,5dd9b725954d19948f95327c,2,4,null,,,,,,,,,<p style='font-size: 30px;'><strong>Okay</strong></p>,null,neutral_feedback,0,test,6,,,,,,,,
,,,,,,,,,,,html-button-response,19,2.0.0,247158,5dd9b725954d19948f95327c,2,4,1749,,,,,,,,,"<img src= ""rock_img/I_Andesite_03.jpg"" style=""width:8cm; height:5.73cm;""><p>What type of rock is this?</p>",3,class_response,0,test,7,Gabbro,Andesite,3,FALSE,4,1,,
,,,,,,,,,,,html-keyboard-response,20,2.0.0,247674,5dd9b725954d19948f95327c,2,4,null,,,,,,,,,<p style='font-size: 30px;'><strong>Okay</strong></p>,null,neutral_feedback,0,test,7,,,,,,,,
,,,,,,,,,,,html-button-response,21,2.0.0,250733,5dd9b725954d19948f95327c,2,4,3059,,,,,,,,,"<img src= ""rock_img/I_Diorite_12.jpg"" style=""width:8cm; height:4.88cm;""><p>What type of rock is this?</p>",5,class_response,0,test,8,Pegmatite,Diorite,12,FALSE,6,3,,
,,,,,,,,,,,html-keyboard-response,22,2.0.0,251242,5dd9b725954d19948f95327c,2,4,null,,,,,,,,,<p style='font-size: 30px;'><strong>Okay</strong></p>,null,neutral_feedback,0,test,8,,,,,,,,
,,,,,,,,,,,html-button-response,23,2.0.0,253070,5dd9b725954d19948f95327c,2,4,1826,,,,,,,,,"<img src= ""rock_img/I_Peridotite_05.jpg"" style=""width:8cm; height:7.1499999999999995cm;""><p>What type of rock is this?</p>",4,class_response,0,test,9,Obsidian,Peridotite,5,FALSE,5,7,,
,,,,,,,,,,,html-keyboard-response,24,2.0.0,253575,5dd9b725954d19948f95327c,2,4,null,,,,,,,,,<p style='font-size: 30px;'><strong>Okay</strong></p>,null,neutral_feedback,0,test,9,,,,,,,,
,,,,,,,,,,,html-button-response,25,2.0.0,255652,5dd9b725954d19948f95327c,2,4,2076,,,,,,,,,"<img src= ""rock_img/I_Peridotite_02.jpg"" style=""width:8cm; height:5.859999999999999cm;""><p>What type of rock is this?</p>",6,class_response,0,test,10,Peridotite,Peridotite,2,TRUE,7,7,,
,,,,,,,,,,,html-keyboard-response,26,2.0.0,256166,5dd9b725954d19948f95327c,2,4,null,,,,,,,,,<p style='font-size: 30px;'><strong>Okay</strong></p>,null,neutral_feedback,0,test,10,,,,,,,,
,,,,,,,,,,,html-button-response,27,2.0.0,257572,5dd9b725954d19948f95327c,2,4,1405,,,,,,,,,"<img src= ""rock_img/I_Gabbro_16.jpg"" style=""width:8cm; height:6.44cm;""><p>What type of rock is this?</p>",2,class_response,0,test,11,Diorite,Gabbro,16,FALSE,3,4,,
,,,,,,,,,,,html-keyboard-response,28,2.0.0,258073,5dd9b725954d19948f95327c,2,4,null,,,,,,,,,<p style='font-size: 30px;'><strong>Okay</strong></p>,null,neutral_feedback,0,test,11,,,,,,,,
,,,,,,,,,,,html-button-response,29,2.0.0,259580,5dd9b725954d19948f95327c,2,4,1505,,,,,,,,,"<img src= ""rock_img/I_Pumice_04.jpg"" style=""width:8cm; height:6.819999999999999cm;""><p>What type of rock is this?</p>",7,class_response,0,test,12,Pumice,Pumice,4,TRUE,8,8,,
,,,,,,,,,,,html-keyboard-response,30,2.0.0,260090,5dd9b725954d19948f95327c,2,4,null,,,,,,,,,<p style='font-size: 30px;'><strong>Okay</strong></p>,null,neutral_feedback,0,test,12,,,,,,,,
,,,,,,,,,,,html-button-response,31,2.0.0,261514,5dd9b725954d19948f95327c,2,4,1423,,,,,,,,,"<img src= ""rock_img/I_Peridotite_08.jpg"" style=""width:8cm; height:6.7cm;""><p>What type of rock is this?</p>",3,class_response,0,test,13,Gabbro,Peridotite,8,FALSE,4,7,,
,,,,,,,,,,,html-keyboard-response,32,2.0.0,262028,5dd9b725954d19948f95327c,2,4,null,,,,,,,,,<p style='font-size: 30px;'><strong>Okay</strong></p>,null,neutral_feedback,0,test,13,,,,,,,,
,,,,,,,,,,,html-button-response,33,2.0.0,263705,5dd9b725954d19948f95327c,2,4,1677,,,,,,,,,"<img src= ""rock_img/I_Basalt_04.jpg"" style=""width:8cm; height:7.53cm;""><p>What type of rock is this?</p>",4,class_response,0,test,14,Obsidian,Basalt,4,FALSE,5,2,,
,,,,,,,,,,,html-keyboard-response,34,2.0.0,264217,5dd9b725954d19948f95327c,2,4,null,,,,,,,,,<p style='font-size: 30px;'><strong>Okay</strong></p>,null,neutral_feedback,0,test,14,,,,,,,,
,,,,,,,,,,,html-button-response,35,2.0.0,265474,5dd9b725954d19948f95327c,2,4,1255,,,,,,,,,"<img src= ""rock_img/I_Pegmatite_07.jpg"" style=""width:8cm; height:6.7cm;""><p>What type of rock is this?</p>",4,class_response,0,test,15,Obsidian,Pegmatite,7,FALSE,5,6,,
,,,,,,,,,,,html-keyboard-response,36,2.0.0,265985,5dd9b725954d19948f95327c,2,4,null,,,,,,,,,<p style='font-size: 30px;'><strong>Okay</strong></p>,null,neutral_feedback,0,test,15,,,,,,,,
,,,,,,,,,,,html-button-response,37,2.0.0,267230,5dd9b725954d19948f95327c,2,4,1243,,,,,,,,,"<img src= ""rock_img/I_Obsidian_14.jpg"" style=""width:8cm; height:7.64cm;""><p>What type of rock is this?</p>",4,class_response,0,test,16,Obsidian,Obsidian,14,TRUE,5,5,,
,,,,,,,,,,,html-keyboard-response,38,2.0.0,267733,5dd9b725954d19948f95327c,2,4,null,,,,,,,,,<p style='font-size: 30px;'><strong>Okay</strong></p>,null,neutral_feedback,0,test,16,,,,,,,,
,,,,,,,,,,,html-button-response,39,2.0.0,269122,5dd9b725954d19948f95327c,2,4,1387,,,,,,,,,"<img src= ""rock_img/I_Basalt_09.jpg"" style=""width:8cm; height:6.2cm;""><p>What type of rock is this?</p>",0,class_response,0,test,17,Andesite,Basalt,9,FALSE,1,2,,
,,,,,,,,,,,html-keyboard-response,40,2.0.0,269627,5dd9b725954d19948f95327c,2,4,null,,,,,,,,,<p style='font-size: 30px;'><strong>Okay</strong></p>,null,neutral_feedback,0,test,17,,,,,,,,
,,,,,,,,,,,html-button-response,41,2.0.0,271356,5dd9b725954d19948f95327c,2,4,1727,,,,,,,,,"<img src= ""rock_img/I_Peridotite_12.jpg"" style=""width:8cm; height:4.54cm;""><p>What type of rock is this?</p>",0,class_response,0,test,18,Andesite,Peridotite,12,FALSE,1,7,,
,,,,,,,,,,,html-keyboard-response,42,2.0.0,271860,5dd9b725954d19948f95327c,2,4,null,,,,,,,,,<p style='font-size: 30px;'><strong>Okay</strong></p>,null,neutral_feedback,0,test,18,,,,,,,,
,,,,,,,,,,,html-button-response,43,2.0.0,273387,5dd9b725954d19948f95327c,2,4,1527,,,,,,,,,"<img src= ""rock_img/I_Pumice_03.jpg"" style=""width:8cm; height:6.64cm;""><p>What type of rock is this?</p>",7,class_response,0,test,19,Pumice,Pumice,3,TRUE,8,8,,
,,,,,,,,,,,html-keyboard-response,44,2.0.0,273903,5dd9b725954d19948f95327c,2,4,null,,,,,,,,,<p style='font-size: 30px;'><strong>Okay</strong></p>,null,neutral_feedback,0,test,19,,,,,,,,
,,,,,,,,,,,html-button-response,45,2.0.0,274962,5dd9b725954d19948f95327c,2,4,1057,,,,,,,,,"<img src= ""rock_img/I_Pumice_09.jpg"" style=""width:8cm; height:6.44cm;""><p>What type of rock is this?</p>",7,class_response,0,test,20,Pumice,Pumice,9,TRUE,8,8,,
,,,,,,,,,,,html-keyboard-response,46,2.0.0,275472,5dd9b725954d19948f95327c,2,4,null,,,,,,,,,<p style='font-size: 30px;'><strong>Okay</strong></p>,null,neutral_feedback,0,test,20,,,,,,,,
,,,,,,,,,,,html-button-response,47,2.0.0,277477,5dd9b725954d19948f95327c,2,4,2003,,,,,,,,,"<img src= ""rock_img/I_Pegmatite_12.jpg"" style=""width:8cm; height:5.7cm;""><p>What type of rock is this?</p>",5,class_response,0,test,21,Pegmatite,Pegmatite,12,TRUE,6,6,,
,,,,,,,,,,,html-keyboard-response,48,2.0.0,277987,5dd9b725954d19948f95327c,2,4,null,,,,,,,,,<p style='font-size: 30px;'><strong>Okay</strong></p>,null,neutral_feedback,0,test,21,,,,,,,,
,,,,,,,,,,,html-button-response,49,2.0.0,279280,5dd9b725954d19948f95327c,2,4,1292,,,,,,,,,"<img src= ""rock_img/I_Basalt_10.jpg"" style=""width:8cm; height:5.85cm;""><p>What type of rock is this?</p>",4,class_response,0,test,22,Obsidian,Basalt,10,FALSE,5,2,,
,,,,,,,,,,,html-keyboard-response,50,2.0.0,279787,5dd9b725954d19948f95327c,2,4,null,,,,,,,,,<p style='font-size: 30px;'><strong>Okay</strong></p>,null,neutral_feedback,0,test,22,,,,,,,,
,,,,,,,,,,,html-button-response,51,2.0.0,280890,5dd9b725954d19948f95327c,2,4,1101,,,,,,,,,"<img src= ""rock_img/I_Diorite_15.jpg"" style=""width:8cm; height:5.54cm;""><p>What type of rock is this?</p>",2,class_response,0,test,23,Diorite,Diorite,15,TRUE,3,3,,
,,,,,,,,,,,html-keyboard-response,52,2.0.0,281402,5dd9b725954d19948f95327c,2,4,null,,,,,,,,,<p style='font-size: 30px;'><strong>Okay</strong></p>,null,neutral_feedback,0,test,23,,,,,,,,
,,,,,,,,,,,html-button-response,53,2.0.0,283012,5dd9b725954d19948f95327c,2,4,1607,,,,,,,,,"<img src= ""rock_img/I_Pumice_15.jpg"" style=""width:8cm; height:7.86cm;""><p>What type of rock is this?</p>",3,class_response,0,test,24,Gabbro,Pumice,15,FALSE,4,8,,
,,,,,,,,,,,html-keyboard-response,54,2.0.0,283514,5dd9b725954d19948f95327c,2,4,null,,,,,,,,,<p style='font-size: 30px;'><strong>Okay</strong></p>,null,neutral_feedback,0,test,24,,,,,,,,
,,,,,,,,,,,html-button-response,55,2.0.0,284776,5dd9b725954d19948f95327c,2,4,1260,,,,,,,,,"<img src= ""rock_img/I_Andesite_06.jpg"" style=""width:8cm; height:6.840000000000001cm;""><p>What type of rock is this?</p>",1,class_response,0,test,25,Basalt,Andesite,6,FALSE,2,1,,
,,,,,,,,,,,html-keyboard-response,56,2.0.0,285286,5dd9b725954d19948f95327c,2,4,null,,,,,,,,,<p style='font-size: 30px;'><strong>Okay</strong></p>,null,neutral_feedback,0,test,25,,,,,,,,
,,,,,,,,,,,html-button-response,57,2.0.0,286813,5dd9b725954d19948f95327c,2,4,1526,,,,,,,,,"<img src= ""rock_img/I_Diorite_16.jpg"" style=""width:8cm; height:6.74cm;""><p>What type of rock is this?</p>",0,class_response,0,test,26,Andesite,Diorite,16,FALSE,1,3,,
,,,,,,,,,,,html-keyboard-response,58,2.0.0,287324,5dd9b725954d19948f95327c,2,4,null,,,,,,,,,<p style='font-size: 30px;'><strong>Okay</strong></p>,null,neutral_feedback,0,test,26,,,,,,,,
,,,,,,,,,,,html-button-response,59,2.0.0,288674,5dd9b725954d19948f95327c,2,4,1348,,,,,,,,,"<img src= ""rock_img/I_Basalt_08.jpg"" style=""width:8cm; height:10.44cm;""><p>What type of rock is this?</p>",4,class_response,0,test,27,Obsidian,Basalt,8,FALSE,5,2,,
,,,,,,,,,,,html-keyboard-response,60,2.0.0,289176,5dd9b725954d19948f95327c,2,4,null,,,,,,,,,<p style='font-size: 30px;'><strong>Okay</strong></p>,null,neutral_feedback,0,test,27,,,,,,,,
,,,,,,,,,,,html-button-response,61,2.0.0,290247,5dd9b725954d19948f95327c,2,4,1071,,,,,,,,,"<img src= ""rock_img/I_Gabbro_01.jpg"" style=""width:8cm; height:5.21cm;""><p>What type of rock is this?</p>",5,class_response,0,test,28,Pegmatite,Gabbro,1,FALSE,6,4,,
,,,,,,,,,,,html-keyboard-response,62,2.0.0,290749,5dd9b725954d19948f95327c,2,4,null,,,,,,,,,<p style='font-size: 30px;'><strong>Okay</strong></p>,null,neutral_feedback,0,test,28,,,,,,,,
,,,,,,,,,,,html-button-response,63,2.0.0,291872,5dd9b725954d19948f95327c,2,4,1121,,,,,,,,,"<img src= ""rock_img/I_Obsidian_07.jpg"" style=""width:8cm; height:4.76cm;""><p>What type of rock is this?</p>",4,class_response,0,test,29,Obsidian,Obsidian,7,TRUE,5,5,,
,,,,,,,,,,,html-keyboard-response,64,2.0.0,292384,5dd9b725954d19948f95327c,2,4,null,,,,,,,,,<p style='font-size: 30px;'><strong>Okay</strong></p>,null,neutral_feedback,0,test,29,,,,,,,,
,,,,,,,,,,,html-button-response,65,2.0.0,293232,5dd9b725954d19948f95327c,2,4,846,,,,,,,,,"<img src= ""rock_img/I_Obsidian_09.jpg"" style=""width:8cm; height:5cm;""><p>What type of rock is this?</p>",4,class_response,0,test,30,Obsidian,Obsidian,9,TRUE,5,5,,
,,,,,,,,,,,html-keyboard-response,66,2.0.0,293735,5dd9b725954d19948f95327c,2,4,null,,,,,,,,,<p style='font-size: 30px;'><strong>Okay</strong></p>,null,neutral_feedback,0,test,30,,,,,,,,
,,,,,,,,,,,html-button-response,67,2.0.0,294726,5dd9b725954d19948f95327c,2,4,990,,,,,,,,,"<img src= ""rock_img/I_Gabbro_10.jpg"" style=""width:8cm; height:5.680000000000001cm;""><p>What type of rock is this?</p>",4,class_response,0,test,31,Obsidian,Gabbro,10,FALSE,5,4,,
,,,,,,,,,,,html-keyboard-response,68,2.0.0,295240,5dd9b725954d19948f95327c,2,4,null,,,,,,,,,<p style='font-size: 30px;'><strong>Okay</strong></p>,null,neutral_feedback,0,test,31,,,,,,,,
,,,,,,,,,,,html-button-response,69,2.0.0,296446,5dd9b725954d19948f95327c,2,4,1207,,,,,,,,,"<img src= ""rock_img/I_Gabbro_14.jpg"" style=""width:8cm; height:8.48cm;""><p>What type of rock is this?</p>",1,class_response,0,test,32,Basalt,Gabbro,14,FALSE,2,4,,
,,,,,,,,,,,html-keyboard-response,70,2.0.0,296950,5dd9b725954d19948f95327c,2,4,null,,,,,,,,,<p style='font-size: 30px;'><strong>Okay</strong></p>,null,neutral_feedback,0,test,32,,,,,,,,
,,,,,,,,,,,html-button-response,71,2.0.0,298178,5dd9b725954d19948f95327c,2,4,1227,,,,,,,,,"<img src= ""rock_img/I_Obsidian_02.jpg"" style=""width:8cm; height:7.51cm;""><p>What type of rock is this?</p>",4,class_response,0,test,33,Obsidian,Obsidian,2,TRUE,5,5,,
,,,,,,,,,,,html-keyboard-response,72,2.0.0,298692,5dd9b725954d19948f95327c,2,4,null,,,,,,,,,<p style='font-size: 30px;'><strong>Okay</strong></p>,null,neutral_feedback,0,test,33,,,,,,,,
,,,,,,,,,,,html-button-response,73,2.0.0,299657,5dd9b725954d19948f95327c,2,4,965,,,,,,,,,"<img src= ""rock_img/I_Basalt_06.jpg"" style=""width:8cm; height:7.06cm;""><p>What type of rock is this?</p>",4,class_response,0,test,34,Obsidian,Basalt,6,FALSE,5,2,,
,,,,,,,,,,,html-keyboard-response,74,2.0.0,300164,5dd9b725954d19948f95327c,2,4,null,,,,,,,,,<p style='font-size: 30px;'><strong>Okay</strong></p>,null,neutral_feedback,0,test,34,,,,,,,,
,,,,,,,,,,,html-button-response,75,2.0.0,301858,5dd9b725954d19948f95327c,2,4,1694,,,,,,,,,"<img src= ""rock_img/I_Pegmatite_10.jpg"" style=""width:8cm; height:4.16cm;""><p>What type of rock is this?</p>",2,class_response,0,test,35,Diorite,Pegmatite,10,FALSE,3,6,,
,,,,,,,,,,,html-keyboard-response,76,2.0.0,302368,5dd9b725954d19948f95327c,2,4,null,,,,,,,,,<p style='font-size: 30px;'><strong>Okay</strong></p>,null,neutral_feedback,0,test,35,,,,,,,,
,,,,,,,,,,,html-button-response,77,2.0.0,303532,5dd9b725954d19948f95327c,2,4,1163,,,,,,,,,"<img src= ""rock_img/I_Obsidian_04.jpg"" style=""width:8cm; height:6.930000000000001cm;""><p>What type of rock is this?</p>",4,class_response,0,test,36,Obsidian,Obsidian,4,TRUE,5,5,,
,,,,,,,,,,,html-keyboard-response,78,2.0.0,304037,5dd9b725954d19948f95327c,2,4,null,,,,,,,,,<p style='font-size: 30px;'><strong>Okay</strong></p>,null,neutral_feedback,0,test,36,,,,,,,,
,,,,,,,,,,,html-button-response,79,2.0.0,305209,5dd9b725954d19948f95327c,2,4,1171,,,,,,,,,"<img src= ""rock_img/I_Peridotite_07.jpg"" style=""width:8cm; height:4.83cm;""><p>What type of rock is this?</p>",6,class_response,0,test,37,Peridotite,Peridotite,7,TRUE,7,7,,
,,,,,,,,,,,html-keyboard-response,80,2.0.0,305716,5dd9b725954d19948f95327c,2,4,null,,,,,,,,,<p style='font-size: 30px;'><strong>Okay</strong></p>,null,neutral_feedback,0,test,37,,,,,,,,
,,,,,,,,,,,html-button-response,81,2.0.0,307055,5dd9b725954d19948f95327c,2,4,1340,,,,,,,,,"<img src= ""rock_img/I_Basalt_16.jpg"" style=""width:8cm; height:7.659999999999999cm;""><p>What type of rock is this?</p>",1,class_response,0,test,38,Basalt,Basalt,16,TRUE,2,2,,
,,,,,,,,,,,html-keyboard-response,82,2.0.0,307570,5dd9b725954d19948f95327c,2,4,null,,,,,,,,,<p style='font-size: 30px;'><strong>Okay</strong></p>,null,neutral_feedback,0,test,38,,,,,,,,
,,,,,,,,,,,html-button-response,83,2.0.0,309051,5dd9b725954d19948f95327c,2,4,1481,,,,,,,,,"<img src= ""rock_img/I_Gabbro_08.jpg"" style=""width:8cm; height:5.15cm;""><p>What type of rock is this?</p>",1,class_response,0,test,39,Basalt,Gabbro,8,FALSE,2,4,,
,,,,,,,,,,,html-keyboard-response,84,2.0.0,309557,5dd9b725954d19948f95327c,2,4,null,,,,,,,,,<p style='font-size: 30px;'><strong>Okay</strong></p>,null,neutral_feedback,0,test,39,,,,,,,,
,,,,,,,,,,,html-button-response,85,2.0.0,311732,5dd9b725954d19948f95327c,2,4,2173,,,,,,,,,"<img src= ""rock_img/I_Pegmatite_15.jpg"" style=""width:8cm; height:6cm;""><p>What type of rock is this?</p>",6,class_response,0,test,40,Peridotite,Pegmatite,15,FALSE,7,6,,
,,,,,,,,,,,html-keyboard-response,86,2.0.0,312243,5dd9b725954d19948f95327c,2,4,null,,,,,,,,,<p style='font-size: 30px;'><strong>Okay</strong></p>,null,neutral_feedback,0,test,40,,,,,,,,
,,,,,,,,,,,html-button-response,87,2.0.0,313951,5dd9b725954d19948f95327c,2,4,1707,,,,,,,,,"<img src= ""rock_img/I_Obsidian_10.jpg"" style=""width:8cm; height:6.260000000000001cm;""><p>What type of rock is this?</p>",4,class_response,0,test,41,Obsidian,Obsidian,10,TRUE,5,5,,
,,,,,,,,,,,html-keyboard-response,88,2.0.0,314467,5dd9b725954d19948f95327c,2,4,null,,,,,,,,,<p style='font-size: 30px;'><strong>Okay</strong></p>,null,neutral_feedback,0,test,41,,,,,,,,
,,,,,,,,,,,html-button-response,89,2.0.0,315791,5dd9b725954d19948f95327c,2,4,1322,,,,,,,,,"<img src= ""rock_img/I_Diorite_07.jpg"" style=""width:8cm; height:5.239999999999999cm;""><p>What type of rock is this?</p>",0,class_response,0,test,42,Andesite,Diorite,7,FALSE,1,3,,
,,,,,,,,,,,html-keyboard-response,90,2.0.0,316347,5dd9b725954d19948f95327c,2,4,null,,,,,,,,,<p style='font-size: 30px;'><strong>Okay</strong></p>,null,neutral_feedback,0,test,42,,,,,,,,
,,,,,,,,,,,html-button-response,91,2.0.0,317705,5dd9b725954d19948f95327c,2,4,1357,,,,,,,,,"<img src= ""rock_img/I_Andesite_02.jpg"" style=""width:8cm; height:8.5cm;""><p>What type of rock is this?</p>",0,class_response,0,test,43,Andesite,Andesite,2,TRUE,1,1,,
,,,,,,,,,,,html-keyboard-response,92,2.0.0,318214,5dd9b725954d19948f95327c,2,4,null,,,,,,,,,<p style='font-size: 30px;'><strong>Okay</strong></p>,null,neutral_feedback,0,test,43,,,,,,,,
,,,,,,,,,,,html-button-response,93,2.0.0,320394,5dd9b725954d19948f95327c,2,4,2180,,,,,,,,,"<img src= ""rock_img/I_Pegmatite_13.jpg"" style=""width:8cm; height:4.95cm;""><p>What type of rock is this?</p>",5,class_response,0,test,44,Pegmatite,Pegmatite,13,TRUE,6,6,,
,,,,,,,,,,,html-keyboard-response,94,2.0.0,320908,5dd9b725954d19948f95327c,2,4,null,,,,,,,,,<p style='font-size: 30px;'><strong>Okay</strong></p>,null,neutral_feedback,0,test,44,,,,,,,,
,,,,,,,,,,,html-button-response,95,2.0.0,322340,5dd9b725954d19948f95327c,2,4,1430,,,,,,,,,"<img src= ""rock_img/I_Andesite_07.jpg"" style=""width:8cm; height:5.93cm;""><p>What type of rock is this?</p>",3,class_response,0,test,45,Gabbro,Andesite,7,FALSE,4,1,,
,,,,,,,,,,,html-keyboard-response,96,2.0.0,322854,5dd9b725954d19948f95327c,2,4,null,,,,,,,,,<p style='font-size: 30px;'><strong>Okay</strong></p>,null,neutral_feedback,0,test,45,,,,,,,,
,,,,,,,,,,,html-button-response,97,2.0.0,324474,5dd9b725954d19948f95327c,2,4,1619,,,,,,,,,"<img src= ""rock_img/I_Gabbro_12.jpg"" style=""width:8cm; height:7.800000000000001cm;""><p>What type of rock is this?</p>",2,class_response,0,test,46,Diorite,Gabbro,12,FALSE,3,4,,
,,,,,,,,,,,html-keyboard-response,98,2.0.0,324979,5dd9b725954d19948f95327c,2,4,null,,,,,,,,,<p style='font-size: 30px;'><strong>Okay</strong></p>,null,neutral_feedback,0,test,46,,,,,,,,
,,,,,,,,,,,html-button-response,99,2.0.0,326464,5dd9b725954d19948f95327c,2,4,1483,,,,,,,,,"<img src= ""rock_img/I_Pegmatite_16.jpg"" style=""width:8cm; height:5.8cm;""><p>What type of rock is this?</p>",4,class_response,0,test,47,Obsidian,Pegmatite,16,FALSE,5,6,,
,,,,,,,,,,,html-keyboard-response,100,2.0.0,326968,5dd9b725954d19948f95327c,2,4,null,,,,,,,,,<p style='font-size: 30px;'><strong>Okay</strong></p>,null,neutral_feedback,0,test,47,,,,,,,,
,,,,,,,,,,,html-button-response,101,2.0.0,328242,5dd9b725954d19948f95327c,2,4,1272,,,,,,,,,"<img src= ""rock_img/I_Pumice_05.jpg"" style=""width:8cm; height:7.25cm;""><p>What type of rock is this?</p>",7,class_response,0,test,48,Pumice,Pumice,5,TRUE,8,8,,
,,,,,,,,,,,html-keyboard-response,102,2.0.0,328753,5dd9b725954d19948f95327c,2,4,null,,,,,,,,,<p style='font-size: 30px;'><strong>Okay</strong></p>,null,neutral_feedback,0,test,48,,,,,,,,
,,,,,,,,,,,instructions,103,2.0.0,351407,5dd9b725954d19948f95327c,2,4,22631,,,,,,,,"[{""page_index"":0,""viewing_time"":11633},{""page_index"":1,""viewing_time"":4501},{""page_index"":2,""viewing_time"":6497}]",,,,,,,,,,,,,,
,,,,,,,,,,,html-button-response,104,2.0.0,356714,5dd9b725954d19948f95327c,2,4,5304,,,,,,,,,,0,start_train,,,,,,,,,,,
,,,,,,,,,,,html-button-response,105,2.0.0,358676,5dd9b725954d19948f95327c,2,4,1960,,,,,,,,,"<img src= ""rock_img/I_Obsidian_16.jpg"" style=""width:8cm; height:9.3cm;""><p>What type of rock is this?</p>",4,class_response,1,train,1,Obsidian,Obsidian,16,TRUE,5,5,,
,,,,,,,,,,,html-button-response,106,2.0.0,360187,5dd9b725954d19948f95327c,2,4,1508,,,,,,,,,"<img src= rock_img/I_Obsidian_16.jpg style=""width:8cm; height:9.3cm;""><p style='font-size: 30px; color: green;'><strong>Correct!</strong></p><p style='font-size: 30px;'><strong>This rock is obsidian</strong></p>",0,corr_feedback,1,train,1,,,,,,,,
,,,,,,,,,,,html-button-response,107,2.0.0,363950,5dd9b725954d19948f95327c,2,4,3762,,,,,,,,,"<img src= ""rock_img/I_Gabbro_11.jpg"" style=""width:8cm; height:6.2cm;""><p>What type of rock is this?</p>",5,class_response,1,train,2,Pegmatite,Gabbro,11,FALSE,6,4,,
,,,,,,,,,,,html-button-response,108,2.0.0,365202,5dd9b725954d19948f95327c,2,4,1250,,,,,,,,,"<img src= rock_img/I_Gabbro_11.jpg style=""width:8cm; height:6.2cm;""><p style='font-size: 30px; color: red;'><strong>Incorrect!</strong></p><p style='font-size: 30px;'><strong>This rock is gabbro</strong></p>",0,corr_feedback,1,train,2,,,,,,,,
,,,,,,,,,,,html-button-response,109,2.0.0,367981,5dd9b725954d19948f95327c,2,4,2779,,,,,,,,,"<img src= ""rock_img/I_Gabbro_05.jpg"" style=""width:8cm; height:6cm;""><p>What type of rock is this?</p>",3,class_response,1,train,3,Gabbro,Gabbro,5,TRUE,4,4,,
,,,,,,,,,,,html-button-response,110,2.0.0,369584,5dd9b725954d19948f95327c,2,4,1601,,,,,,,,,"<img src= rock_img/I_Gabbro_05.jpg style=""width:8cm; height:6cm;""><p style='font-size: 30px; color: green;'><strong>Correct!</strong></p><p style='font-size: 30px;'><strong>This rock is gabbro</strong></p>",0,corr_feedback,1,train,3,,,,,,,,
,,,,,,,,,,,html-button-response,111,2.0.0,370983,5dd9b725954d19948f95327c,2,4,1398,,,,,,,,,"<img src= ""rock_img/I_Gabbro_03.jpg"" style=""width:8cm; height:8.52cm;""><p>What type of rock is this?</p>",3,class_response,1,train,4,Gabbro,Gabbro,3,TRUE,4,4,,
,,,,,,,,,,,html-button-response,112,2.0.0,372113,5dd9b725954d19948f95327c,2,4,1129,,,,,,,,,"<img src= rock_img/I_Gabbro_03.jpg style=""width:8cm; height:8.52cm;""><p style='font-size: 30px; color: green;'><strong>Correct!</strong></p><p style='font-size: 30px;'><strong>This rock is gabbro</strong></p>",0,corr_feedback,1,train,4,,,,,,,,
,,,,,,,,,,,html-button-response,113,2.0.0,373262,5dd9b725954d19948f95327c,2,4,1146,,,,,,,,,"<img src= ""rock_img/I_Andesite_16.jpg"" style=""width:8cm; height:6.010000000000001cm;""><p>What type of rock is this?</p>",3,class_response,1,train,5,Gabbro,Andesite,16,FALSE,4,1,,
,,,,,,,,,,,html-button-response,114,2.0.0,374405,5dd9b725954d19948f95327c,2,4,1143,,,,,,,,,"<img src= rock_img/I_Andesite_16.jpg style=""width:8cm; height:6.010000000000001cm;""><p style='font-size: 30px; color: red;'><strong>Incorrect!</strong></p><p style='font-size: 30px;'><strong>This rock is andesite</strong></p>",0,corr_feedback,1,train,5,,,,,,,,
,,,,,,,,,,,html-button-response,115,2.0.0,375628,5dd9b725954d19948f95327c,2,4,1221,,,,,,,,,"<img src= ""rock_img/I_Peridotite_14.jpg"" style=""width:8cm; height:5.3cm;""><p>What type of rock is this?</p>",0,class_response,1,train,6,Andesite,Peridotite,14,FALSE,1,7,,
,,,,,,,,,,,html-button-response,116,2.0.0,376648,5dd9b725954d19948f95327c,2,4,1020,,,,,,,,,"<img src= rock_img/I_Peridotite_14.jpg style=""width:8cm; height:5.3cm;""><p style='font-size: 30px; color: red;'><strong>Incorrect!</strong></p><p style='font-size: 30px;'><strong>This rock is peridotite</strong></p>",0,corr_feedback,1,train,6,,,,,,,,
,,,,,,,,,,,html-button-response,117,2.0.0,378508,5dd9b725954d19948f95327c,2,4,1857,,,,,,,,,"<img src= ""rock_img/I_Diorite_14.jpg"" style=""width:8cm; height:5.71cm;""><p>What type of rock is this?</p>",2,class_response,1,train,7,Diorite,Diorite,14,TRUE,3,3,,
,,,,,,,,,,,html-button-response,118,2.0.0,380259,5dd9b725954d19948f95327c,2,4,1750,,,,,,,,,"<img src= rock_img/I_Diorite_14.jpg style=""width:8cm; height:5.71cm;""><p style='font-size: 30px; color: green;'><strong>Correct!</strong></p><p style='font-size: 30px;'><strong>This rock is diorite</strong></p>",0,corr_feedback,1,train,7,,,,,,,,
,,,,,,,,,,,html-button-response,119,2.0.0,382337,5dd9b725954d19948f95327c,2,4,2076,,,,,,,,,"<img src= ""rock_img/I_Diorite_13.jpg"" style=""width:8cm; height:6.29cm;""><p>What type of rock is this?</p>",1,class_response,1,train,8,Basalt,Diorite,13,FALSE,2,3,,
,,,,,,,,,,,html-button-response,120,2.0.0,383304,5dd9b725954d19948f95327c,2,4,965,,,,,,,,,"<img src= rock_img/I_Diorite_13.jpg style=""width:8cm; height:6.29cm;""><p style='font-size: 30px; color: red;'><strong>Incorrect!</strong></p><p style='font-size: 30px;'><strong>This rock is diorite</strong></p>",0,corr_feedback,1,train,8,,,,,,,,
,,,,,,,,,,,html-button-response,121,2.0.0,386694,5dd9b725954d19948f95327c,2,4,3388,,,,,,,,,"<img src= ""rock_img/I_Pegmatite_09.jpg"" style=""width:8cm; height:4.03cm;""><p>What type of rock is this?</p>",1,class_response,1,train,9,Basalt,Pegmatite,9,FALSE,2,6,,
,,,,,,,,,,,html-button-response,122,2.0.0,387521,5dd9b725954d19948f95327c,2,4,827,,,,,,,,,"<img src= rock_img/I_Pegmatite_09.jpg style=""width:8cm; height:4.03cm;""><p style='font-size: 30px; color: red;'><strong>Incorrect!</strong></p><p style='font-size: 30px;'><strong>This rock is pegmatite</strong></p>",0,corr_feedback,1,train,9,,,,,,,,
,,,,,,,,,,,html-button-response,123,2.0.0,389858,5dd9b725954d19948f95327c,2,4,2335,,,,,,,,,"<img src= ""rock_img/I_Basalt_01.jpg"" style=""width:8cm; height:7.880000000000001cm;""><p>What type of rock is this?</p>",4,class_response,1,train,10,Obsidian,Basalt,1,FALSE,5,2,,
,,,,,,,,,,,html-button-response,124,2.0.0,390760,5dd9b725954d19948f95327c,2,4,900,,,,,,,,,"<img src= rock_img/I_Basalt_01.jpg style=""width:8cm; height:7.880000000000001cm;""><p style='font-size: 30px; color: red;'><strong>Incorrect!</strong></p><p style='font-size: 30px;'><strong>This rock is basalt</strong></p>",0,corr_feedback,1,train,10,,,,,,,,
,,,,,,,,,,,html-button-response,125,2.0.0,392164,5dd9b725954d19948f95327c,2,4,1403,,,,,,,,,"<img src= ""rock_img/I_Obsidian_05.jpg"" style=""width:8cm; height:6.33cm;""><p>What type of rock is this?</p>",4,class_response,1,train,11,Obsidian,Obsidian,5,TRUE,5,5,,
,,,,,,,,,,,html-button-response,126,2.0.0,393020,5dd9b725954d19948f95327c,2,4,854,,,,,,,,,"<img src= rock_img/I_Obsidian_05.jpg style=""width:8cm; height:6.33cm;""><p style='font-size: 30px; color: green;'><strong>Correct!</strong></p><p style='font-size: 30px;'><strong>This rock is obsidian</strong></p>",0,corr_feedback,1,train,11,,,,,,,,
,,,,,,,,,,,html-button-response,127,2.0.0,395042,5dd9b725954d19948f95327c,2,4,2021,,,,,,,,,"<img src= ""rock_img/I_Pegmatite_06.jpg"" style=""width:8cm; height:5.17cm;""><p>What type of rock is this?</p>",5,class_response,1,train,12,Pegmatite,Pegmatite,6,TRUE,6,6,,
,,,,,,,,,,,html-button-response,128,2.0.0,402042,5dd9b725954d19948f95327c,2,4,6999,,,,,,,,,"<img src= rock_img/I_Pegmatite_06.jpg style=""width:8cm; height:5.17cm;""><p style='font-size: 30px; color: green;'><strong>Correct!</strong></p><p style='font-size: 30px;'><strong>This rock is pegmatite</strong></p>",0,corr_feedback,1,train,12,,,,,,,,
,,,,,,,,,,,html-button-response,129,2.0.0,404062,5dd9b725954d19948f95327c,2,4,2018,,,,,,,,,"<img src= ""rock_img/I_Diorite_08.jpg"" style=""width:8cm; height:6.37cm;""><p>What type of rock is this?</p>",6,class_response,1,train,13,Peridotite,Diorite,8,FALSE,7,3,,
,,,,,,,,,,,html-button-response,130,2.0.0,404985,5dd9b725954d19948f95327c,2,4,923,,,,,,,,,"<img src= rock_img/I_Diorite_08.jpg style=""width:8cm; height:6.37cm;""><p style='font-size: 30px; color: red;'><strong>Incorrect!</strong></p><p style='font-size: 30px;'><strong>This rock is diorite</strong></p>",0,corr_feedback,1,train,13,,,,,,,,
,,,,,,,,,,,html-button-response,131,2.0.0,406476,5dd9b725954d19948f95327c,2,4,1489,,,,,,,,,"<img src= ""rock_img/I_Pegmatite_08.jpg"" style=""width:8cm; height:7.68cm;""><p>What type of rock is this?</p>",4,class_response,1,train,14,Obsidian,Pegmatite,8,FALSE,5,6,,
,,,,,,,,,,,html-button-response,132,2.0.0,407293,5dd9b725954d19948f95327c,2,4,816,,,,,,,,,"<img src= rock_img/I_Pegmatite_08.jpg style=""width:8cm; height:7.68cm;""><p style='font-size: 30px; color: red;'><strong>Incorrect!</strong></p><p style='font-size: 30px;'><strong>This rock is pegmatite</strong></p>",0,corr_feedback,1,train,14,,,,,,,,
,,,,,,,,,,,html-button-response,133,2.0.0,410809,5dd9b725954d19948f95327c,2,4,3514,,,,,,,,,"<img src= ""rock_img/I_Pegmatite_03.jpg"" style=""width:8cm; height:5.239999999999999cm;""><p>What type of rock is this?</p>",1,class_response,1,train,15,Basalt,Pegmatite,3,FALSE,2,6,,
,,,,,,,,,,,html-button-response,134,2.0.0,411589,5dd9b725954d19948f95327c,2,4,778,,,,,,,,,"<img src= rock_img/I_Pegmatite_03.jpg style=""width:8cm; height:5.239999999999999cm;""><p style='font-size: 30px; color: red;'><strong>Incorrect!</strong></p><p style='font-size: 30px;'><strong>This rock is pegmatite</strong></p>",0,corr_feedback,1,train,15,,,,,,,,
,,,,,,,,,,,html-button-response,135,2.0.0,413683,5dd9b725954d19948f95327c,2,4,2092,,,,,,,,,"<img src= ""rock_img/I_Basalt_12.jpg"" style=""width:8cm; height:6.010000000000001cm;""><p>What type of rock is this?</p>",7,class_response,1,train,16,Pumice,Basalt,12,FALSE,8,2,,
,,,,,,,,,,,html-button-response,136,2.0.0,414447,5dd9b725954d19948f95327c,2,4,762,,,,,,,,,"<img src= rock_img/I_Basalt_12.jpg style=""width:8cm; height:6.010000000000001cm;""><p style='font-size: 30px; color: red;'><strong>Incorrect!</strong></p><p style='font-size: 30px;'><strong>This rock is basalt</strong></p>",0,corr_feedback,1,train,16,,,,,,,,
,,,,,,,,,,,html-button-response,137,2.0.0,416513,5dd9b725954d19948f95327c,2,4,2065,,,,,,,,,"<img src= ""rock_img/I_Gabbro_05.jpg"" style=""width:8cm; height:6cm;""><p>What type of rock is this?</p>",1,class_response,1,train,17,Basalt,Gabbro,5,FALSE,2,4,,
,,,,,,,,,,,html-button-response,138,2.0.0,417169,5dd9b725954d19948f95327c,2,4,655,,,,,,,,,"<img src= rock_img/I_Gabbro_05.jpg style=""width:8cm; height:6cm;""><p style='font-size: 30px; color: red;'><strong>Incorrect!</strong></p><p style='font-size: 30px;'><strong>This rock is gabbro</strong></p>",0,corr_feedback,1,train,17,,,,,,,,
,,,,,,,,,,,html-button-response,139,2.0.0,418743,5dd9b725954d19948f95327c,2,4,1572,,,,,,,,,"<img src= ""rock_img/I_Pumice_08.jpg"" style=""width:8cm; height:6.67cm;""><p>What type of rock is this?</p>",7,class_response,1,train,18,Pumice,Pumice,8,TRUE,8,8,,
,,,,,,,,,,,html-button-response,140,2.0.0,419775,5dd9b725954d19948f95327c,2,4,1030,,,,,,,,,"<img src= rock_img/I_Pumice_08.jpg style=""width:8cm; height:6.67cm;""><p style='font-size: 30px; color: green;'><strong>Correct!</strong></p><p style='font-size: 30px;'><strong>This rock is pumice</strong></p>",0,corr_feedback,1,train,18,,,,,,,,
,,,,,,,,,,,html-button-response,141,2.0.0,420943,5dd9b725954d19948f95327c,2,4,1167,,,,,,,,,"<img src= ""rock_img/I_Pumice_06.jpg"" style=""width:8cm; height:6.9399999999999995cm;""><p>What type of rock is this?</p>",7,class_response,1,train,19,Pumice,Pumice,6,TRUE,8,8,,
,,,,,,,,,,,html-button-response,142,2.0.0,421633,5dd9b725954d19948f95327c,2,4,688,,,,,,,,,"<img src= rock_img/I_Pumice_06.jpg style=""width:8cm; height:6.9399999999999995cm;""><p style='font-size: 30px; color: green;'><strong>Correct!</strong></p><p style='font-size: 30px;'><strong>This rock is pumice</strong></p>",0,corr_feedback,1,train,19,,,,,,,,
,,,,,,,,,,,html-button-response,143,2.0.0,423958,5dd9b725954d19948f95327c,2,4,2323,,,,,,,,,"<img src= ""rock_img/I_Andesite_14.jpg"" style=""width:8cm; height:5.449999999999999cm;""><p>What type of rock is this?</p>",2,class_response,1,train,20,Diorite,Andesite,14,FALSE,3,1,,
,,,,,,,,,,,html-button-response,144,2.0.0,424816,5dd9b725954d19948f95327c,2,4,856,,,,,,,,,"<img src= rock_img/I_Andesite_14.jpg style=""width:8cm; height:5.449999999999999cm;""><p style='font-size: 30px; color: red;'><strong>Incorrect!</strong></p><p style='font-size: 30px;'><strong>This rock is andesite</strong></p>",0,corr_feedback,1,train,20,,,,,,,,
,,,,,,,,,,,html-button-response,145,2.0.0,428391,5dd9b725954d19948f95327c,2,4,3575,,,,,,,,,"<img src= ""rock_img/I_Peridotite_06.jpg"" style=""width:8cm; height:7.53cm;""><p>What type of rock is this?</p>",4,class_response,1,train,21,Obsidian,Peridotite,6,FALSE,5,7,,
,,,,,,,,,,,html-button-response,146,2.0.0,429239,5dd9b725954d19948f95327c,2,4,847,,,,,,,,,"<img src= rock_img/I_Peridotite_06.jpg style=""width:8cm; height:7.53cm;""><p style='font-size: 30px; color: red;'><strong>Incorrect!</strong></p><p style='font-size: 30px;'><strong>This rock is peridotite</strong></p>",0,corr_feedback,1,train,21,,,,,,,,
,,,,,,,,,,,html-button-response,147,2.0.0,430755,5dd9b725954d19948f95327c,2,4,1515,,,,,,,,,"<img src= ""rock_img/I_Basalt_14.jpg"" style=""width:8cm; height:5.82cm;""><p>What type of rock is this?</p>",4,class_response,1,train,22,Obsidian,Basalt,14,FALSE,5,2,,
,,,,,,,,,,,html-button-response,148,2.0.0,431445,5dd9b725954d19948f95327c,2,4,688,,,,,,,,,"<img src= rock_img/I_Basalt_14.jpg style=""width:8cm; height:5.82cm;""><p style='font-size: 30px; color: red;'><strong>Incorrect!</strong></p><p style='font-size: 30px;'><strong>This rock is basalt</strong></p>",0,corr_feedback,1,train,22,,,,,,,,
,,,,,,,,,,,html-button-response,149,2.0.0,432573,5dd9b725954d19948f95327c,2,4,1127,,,,,,,,,"<img src= ""rock_img/I_Gabbro_09.jpg"" style=""width:8cm; height:7.279999999999999cm;""><p>What type of rock is this?</p>",4,class_response,1,train,23,Obsidian,Gabbro,9,FALSE,5,4,,
,,,,,,,,,,,html-button-response,150,2.0.0,433252,5dd9b725954d19948f95327c,2,4,676,,,,,,,,,"<img src= rock_img/I_Gabbro_09.jpg style=""width:8cm; height:7.279999999999999cm;""><p style='font-size: 30px; color: red;'><strong>Incorrect!</strong></p><p style='font-size: 30px;'><strong>This rock is gabbro</strong></p>",0,corr_feedback,1,train,23,,,,,,,,
,,,,,,,,,,,html-button-response,151,2.0.0,436227,5dd9b725954d19948f95327c,2,4,2975,,,,,,,,,"<img src= ""rock_img/I_Gabbro_03.jpg"" style=""width:8cm; height:8.52cm;""><p>What type of rock is this?</p>",2,class_response,1,train,24,Diorite,Gabbro,3,FALSE,3,4,,
,,,,,,,,,,,html-button-response,152,2.0.0,436914,5dd9b725954d19948f95327c,2,4,684,,,,,,,,,"<img src= rock_img/I_Gabbro_03.jpg style=""width:8cm; height:8.52cm;""><p style='font-size: 30px; color: red;'><strong>Incorrect!</strong></p><p style='font-size: 30px;'><strong>This rock is gabbro</strong></p>",0,corr_feedback,1,train,24,,,,,,,,
,,,,,,,,,,,html-button-response,153,2.0.0,438024,5dd9b725954d19948f95327c,2,4,1109,,,,,,,,,"<img src= ""rock_img/I_Peridotite_10.jpg"" style=""width:8cm; height:5.390000000000001cm;""><p>What type of rock is this?</p>",3,class_response,1,train,25,Gabbro,Peridotite,10,FALSE,4,7,,
,,,,,,,,,,,html-button-response,154,2.0.0,438734,5dd9b725954d19948f95327c,2,4,709,,,,,,,,,"<img src= rock_img/I_Peridotite_10.jpg style=""width:8cm; height:5.390000000000001cm;""><p style='font-size: 30px; color: red;'><strong>Incorrect!</strong></p><p style='font-size: 30px;'><strong>This rock is peridotite</strong></p>",0,corr_feedback,1,train,25,,,,,,,,
,,,,,,,,,,,html-button-response,155,2.0.0,441897,5dd9b725954d19948f95327c,2,4,3162,,,,,,,,,"<img src= ""rock_img/I_Andesite_04.jpg"" style=""width:8cm; height:5.96cm;""><p>What type of rock is this?</p>",7,class_response,1,train,26,Pumice,Andesite,4,FALSE,8,1,,
,,,,,,,,,,,html-button-response,156,2.0.0,442543,5dd9b725954d19948f95327c,2,4,645,,,,,,,,,"<img src= rock_img/I_Andesite_04.jpg style=""width:8cm; height:5.96cm;""><p style='font-size: 30px; color: red;'><strong>Incorrect!</strong></p><p style='font-size: 30px;'><strong>This rock is andesite</strong></p>",0,corr_feedback,1,train,26,,,,,,,,
,,,,,,,,,,,html-button-response,157,2.0.0,444509,5dd9b725954d19948f95327c,2,4,1964,,,,,,,,,"<img src= ""rock_img/I_Diorite_10.jpg"" style=""width:8cm; height:5.949999999999999cm;""><p>What type of rock is this?</p>",1,class_response,1,train,27,Basalt,Diorite,10,FALSE,2,3,,
,,,,,,,,,,,html-button-response,158,2.0.0,445175,5dd9b725954d19948f95327c,2,4,665,,,,,,,,,"<img src= rock_img/I_Diorite_10.jpg style=""width:8cm; height:5.949999999999999cm;""><p style='font-size: 30px; color: red;'><strong>Incorrect!</strong></p><p style='font-size: 30px;'><strong>This rock is diorite</strong></p>",0,corr_feedback,1,train,27,,,,,,,,
,,,,,,,,,,,html-button-response,159,2.0.0,446543,5dd9b725954d19948f95327c,2,4,1367,,,,,,,,,"<img src= ""rock_img/I_Diorite_09.jpg"" style=""width:8cm; height:5.27cm;""><p>What type of rock is this?</p>",5,class_response,1,train,28,Pegmatite,Diorite,9,FALSE,6,3,,
,,,,,,,,,,,html-button-response,160,2.0.0,447185,5dd9b725954d19948f95327c,2,4,641,,,,,,,,,"<img src= rock_img/I_Diorite_09.jpg style=""width:8cm; height:5.27cm;""><p style='font-size: 30px; color: red;'><strong>Incorrect!</strong></p><p style='font-size: 30px;'><strong>This rock is diorite</strong></p>",0,corr_feedback,1,train,28,,,,,,,,
,,,,,,,,,,,html-button-response,161,2.0.0,448663,5dd9b725954d19948f95327c,2,4,1476,,,,,,,,,"<img src= ""rock_img/I_Diorite_02.jpg"" style=""width:8cm; height:6.27cm;""><p>What type of rock is this?</p>",4,class_response,1,train,29,Obsidian,Diorite,2,FALSE,5,3,,
,,,,,,,,,,,html-button-response,162,2.0.0,449276,5dd9b725954d19948f95327c,2,4,611,,,,,,,,,"<img src= rock_img/I_Diorite_02.jpg style=""width:8cm; height:6.27cm;""><p style='font-size: 30px; color: red;'><strong>Incorrect!</strong></p><p style='font-size: 30px;'><strong>This rock is diorite</strong></p>",0,corr_feedback,1,train,29,,,,,,,,
,,,,,,,,,,,html-button-response,163,2.0.0,450435,5dd9b725954d19948f95327c,2,4,1158,,,,,,,,,"<img src= ""rock_img/I_Andesite_09.jpg"" style=""width:8cm; height:6cm;""><p>What type of rock is this?</p>",2,class_response,1,train,30,Diorite,Andesite,9,FALSE,3,1,,
,,,,,,,,,,,html-button-response,164,2.0.0,451004,5dd9b725954d19948f95327c,2,4,566,,,,,,,,,"<img src= rock_img/I_Andesite_09.jpg style=""width:8cm; height:6cm;""><p style='font-size: 30px; color: red;'><strong>Incorrect!</strong></p><p style='font-size: 30px;'><strong>This rock is andesite</strong></p>",0,corr_feedback,1,train,30,,,,,,,,
,,,,,,,,,,,html-button-response,165,2.0.0,453401,5dd9b725954d19948f95327c,2,4,2397,,,,,,,,,"<img src= ""rock_img/I_Andesite_10.jpg"" style=""width:8cm; height:4.16cm;""><p>What type of rock is this?</p>",7,class_response,1,train,31,Pumice,Andesite,10,FALSE,8,1,,
,,,,,,,,,,,html-button-response,166,2.0.0,454069,5dd9b725954d19948f95327c,2,4,666,,,,,,,,,"<img src= rock_img/I_Andesite_10.jpg style=""width:8cm; height:4.16cm;""><p style='font-size: 30px; color: red;'><strong>Incorrect!</strong></p><p style='font-size: 30px;'><strong>This rock is andesite</strong></p>",0,corr_feedback,1,train,31,,,,,,,,
,,,,,,,,,,,html-button-response,167,2.0.0,456002,5dd9b725954d19948f95327c,2,4,1931,,,,,,,,,"<img src= ""rock_img/I_Basalt_01.jpg"" style=""width:8cm; height:7.880000000000001cm;""><p>What type of rock is this?</p>",4,class_response,1,train,32,Obsidian,Basalt,1,FALSE,5,2,,
,,,,,,,,,,,html-button-response,168,2.0.0,456703,5dd9b725954d19948f95327c,2,4,700,,,,,,,,,"<img src= rock_img/I_Basalt_01.jpg style=""width:8cm; height:7.880000000000001cm;""><p style='font-size: 30px; color: red;'><strong>Incorrect!</strong></p><p style='font-size: 30px;'><strong>This rock is basalt</strong></p>",0,corr_feedback,1,train,32,,,,,,,,
,,,,,,,,,,,html-button-response,169,2.0.0,458149,5dd9b725954d19948f95327c,2,4,1445,,,,,,,,,"<img src= ""rock_img/I_Pegmatite_08.jpg"" style=""width:8cm; height:7.68cm;""><p>What type of rock is this?</p>",4,class_response,1,train,33,Obsidian,Pegmatite,8,FALSE,5,6,,
,,,,,,,,,,,html-button-response,170,2.0.0,458832,5dd9b725954d19948f95327c,2,4,681,,,,,,,,,"<img src= rock_img/I_Pegmatite_08.jpg style=""width:8cm; height:7.68cm;""><p style='font-size: 30px; color: red;'><strong>Incorrect!</strong></p><p style='font-size: 30px;'><strong>This rock is pegmatite</strong></p>",0,corr_feedback,1,train,33,,,,,,,,
,,,,,,,,,,,html-button-response,171,2.0.0,460353,5dd9b725954d19948f95327c,2,4,1520,,,,,,,,,"<img src= ""rock_img/I_Gabbro_13.jpg"" style=""width:8cm; height:5.08cm;""><p>What type of rock is this?</p>",2,class_response,1,train,34,Diorite,Gabbro,13,FALSE,3,4,,
,,,,,,,,,,,html-button-response,172,2.0.0,461054,5dd9b725954d19948f95327c,2,4,698,,,,,,,,,"<img src= rock_img/I_Gabbro_13.jpg style=""width:8cm; height:5.08cm;""><p style='font-size: 30px; color: red;'><strong>Incorrect!</strong></p><p style='font-size: 30px;'><strong>This rock is gabbro</strong></p>",0,corr_feedback,1,train,34,,,,,,,,
,,,,,,,,,,,html-button-response,173,2.0.0,462606,5dd9b725954d19948f95327c,2,4,1550,,,,,,,,,"<img src= ""rock_img/I_Andesite_11.jpg"" style=""width:8cm; height:4.92cm;""><p>What type of rock is this?</p>",5,class_response,1,train,35,Pegmatite,Andesite,11,FALSE,6,1,,
,,,,,,,,,,,html-button-response,174,2.0.0,463291,5dd9b725954d19948f95327c,2,4,684,,,,,,,,,"<img src= rock_img/I_Andesite_11.jpg style=""width:8cm; height:4.92cm;""><p style='font-size: 30px; color: red;'><strong>Incorrect!</strong></p><p style='font-size: 30px;'><strong>This rock is andesite</strong></p>",0,corr_feedback,1,train,35,,,,,,,,
,,,,,,,,,,,html-button-response,175,2.0.0,465335,5dd9b725954d19948f95327c,2,4,2042,,,,,,,,,"<img src= ""rock_img/I_Andesite_11.jpg"" style=""width:8cm; height:4.92cm;""><p>What type of rock is this?</p>",0,class_response,1,train,36,Andesite,Andesite,11,TRUE,1,1,,
,,,,,,,,,,,html-button-response,176,2.0.0,466073,5dd9b725954d19948f95327c,2,4,736,,,,,,,,,"<img src= rock_img/I_Andesite_11.jpg style=""width:8cm; height:4.92cm;""><p style='font-size: 30px; color: green;'><strong>Correct!</strong></p><p style='font-size: 30px;'><strong>This rock is andesite</strong></p>",0,corr_feedback,1,train,36,,,,,,,,
,,,,,,,,,,,html-button-response,177,2.0.0,467531,5dd9b725954d19948f95327c,2,4,1457,,,,,,,,,"<img src= ""rock_img/I_Pegmatite_05.jpg"" style=""width:8cm; height:7.300000000000001cm;""><p>What type of rock is this?</p>",4,class_response,1,train,37,Obsidian,Pegmatite,5,FALSE,5,6,,
,,,,,,,,,,,html-button-response,178,2.0.0,468229,5dd9b725954d19948f95327c,2,4,697,,,,,,,,,"<img src= rock_img/I_Pegmatite_05.jpg style=""width:8cm; height:7.300000000000001cm;""><p style='font-size: 30px; color: red;'><strong>Incorrect!</strong></p><p style='font-size: 30px;'><strong>This rock is pegmatite</strong></p>",0,corr_feedback,1,train,37,,,,,,,,
,,,,,,,,,,,html-button-response,179,2.0.0,470318,5dd9b725954d19948f95327c,2,4,2087,,,,,,,,,"<img src= ""rock_img/I_Diorite_08.jpg"" style=""width:8cm; height:6.37cm;""><p>What type of rock is this?</p>",5,class_response,1,train,38,Pegmatite,Diorite,8,FALSE,6,3,,
,,,,,,,,,,,html-button-response,180,2.0.0,471145,5dd9b725954d19948f95327c,2,4,827,,,,,,,,,"<img src= rock_img/I_Diorite_08.jpg style=""width:8cm; height:6.37cm;""><p style='font-size: 30px; color: red;'><strong>Incorrect!</strong></p><p style='font-size: 30px;'><strong>This rock is diorite</strong></p>",0,corr_feedback,1,train,38,,,,,,,,
,,,,,,,,,,,html-button-response,181,2.0.0,472387,5dd9b725954d19948f95327c,2,4,1241,,,,,,,,,"<img src= ""rock_img/I_Gabbro_15.jpg"" style=""width:8cm; height:6.29cm;""><p>What type of rock is this?</p>",5,class_response,1,train,39,Pegmatite,Gabbro,15,FALSE,6,4,,
,,,,,,,,,,,html-button-response,182,2.0.0,473033,5dd9b725954d19948f95327c,2,4,644,,,,,,,,,"<img src= rock_img/I_Gabbro_15.jpg style=""width:8cm; height:6.29cm;""><p style='font-size: 30px; color: red;'><strong>Incorrect!</strong></p><p style='font-size: 30px;'><strong>This rock is gabbro</strong></p>",0,corr_feedback,1,train,39,,,,,,,,
,,,,,,,,,,,html-button-response,183,2.0.0,476522,5dd9b725954d19948f95327c,2,4,3487,,,,,,,,,"<img src= ""rock_img/I_Basalt_05.jpg"" style=""width:8cm; height:8.18cm;""><p>What type of rock is this?</p>",6,class_response,1,train,40,Peridotite,Basalt,5,FALSE,7,2,,
,,,,,,,,,,,html-button-response,184,2.0.0,477159,5dd9b725954d19948f95327c,2,4,636,,,,,,,,,"<img src= rock_img/I_Basalt_05.jpg style=""width:8cm; height:8.18cm;""><p style='font-size: 30px; color: red;'><strong>Incorrect!</strong></p><p style='font-size: 30px;'><strong>This rock is basalt</strong></p>",0,corr_feedback,1,train,40,,,,,,,,
,,,,,,,,,,,html-button-response,185,2.0.0,479861,5dd9b725954d19948f95327c,2,4,2701,,,,,,,,,"<img src= ""rock_img/I_Peridotite_04.jpg"" style=""width:8cm; height:6.680000000000001cm;""><p>What type of rock is this?</p>",0,class_response,1,train,41,Andesite,Peridotite,4,FALSE,1,7,,
,,,,,,,,,,,html-button-response,186,2.0.0,480620,5dd9b725954d19948f95327c,2,4,757,,,,,,,,,"<img src= rock_img/I_Peridotite_04.jpg style=""width:8cm; height:6.680000000000001cm;""><p style='font-size: 30px; color: red;'><strong>Incorrect!</strong></p><p style='font-size: 30px;'><strong>This rock is peridotite</strong></p>",0,corr_feedback,1,train,41,,,,,,,,
,,,,,,,,,,,html-button-response,187,2.0.0,482343,5dd9b725954d19948f95327c,2,4,1722,,,,,,,,,"<img src= ""rock_img/I_Pegmatite_11.jpg"" style=""width:8cm; height:8.14cm;""><p>What type of rock is this?</p>",6,class_response,1,train,42,Peridotite,Pegmatite,11,FALSE,7,6,,
,,,,,,,,,,,html-button-response,188,2.0.0,483174,5dd9b725954d19948f95327c,2,4,829,,,,,,,,,"<img src= rock_img/I_Pegmatite_11.jpg style=""width:8cm; height:8.14cm;""><p style='font-size: 30px; color: red;'><strong>Incorrect!</strong></p><p style='font-size: 30px;'><strong>This rock is pegmatite</strong></p>",0,corr_feedback,1,train,42,,,,,,,,
,,,,,,,,,,,html-button-response,189,2.0.0,484983,5dd9b725954d19948f95327c,2,4,1809,,,,,,,,,"<img src= ""rock_img/I_Peridotite_13.jpg"" style=""width:8cm; height:7.58cm;""><p>What type of rock is this?</p>",6,class_response,1,train,43,Peridotite,Peridotite,13,TRUE,7,7,,
,,,,,,,,,,,html-button-response,190,2.0.0,486433,5dd9b725954d19948f95327c,2,4,1449,,,,,,,,,"<img src= rock_img/I_Peridotite_13.jpg style=""width:8cm; height:7.58cm;""><p style='font-size: 30px; color: green;'><strong>Correct!</strong></p><p style='font-size: 30px;'><strong>This rock is peridotite</strong></p>",0,corr_feedback,1,train,43,,,,,,,,
,,,,,,,,,,,html-button-response,191,2.0.0,487827,5dd9b725954d19948f95327c,2,4,1392,,,,,,,,,"<img src= ""rock_img/I_Basalt_12.jpg"" style=""width:8cm; height:6.010000000000001cm;""><p>What type of rock is this?</p>",7,class_response,1,train,44,Pumice,Basalt,12,FALSE,8,2,,
,,,,,,,,,,,html-button-response,192,2.0.0,488580,5dd9b725954d19948f95327c,2,4,751,,,,,,,,,"<img src= rock_img/I_Basalt_12.jpg style=""width:8cm; height:6.010000000000001cm;""><p style='font-size: 30px; color: red;'><strong>Incorrect!</strong></p><p style='font-size: 30px;'><strong>This rock is basalt</strong></p>",0,corr_feedback,1,train,44,,,,,,,,
,,,,,,,,,,,html-button-response,193,2.0.0,489558,5dd9b725954d19948f95327c,2,4,977,,,,,,,,,"<img src= ""rock_img/I_Basalt_11.jpg"" style=""width:8cm; height:5.359999999999999cm;""><p>What type of rock is this?</p>",7,class_response,1,train,45,Pumice,Basalt,11,FALSE,8,2,,
,,,,,,,,,,,html-button-response,194,2.0.0,490184,5dd9b725954d19948f95327c,2,4,624,,,,,,,,,"<img src= rock_img/I_Basalt_11.jpg style=""width:8cm; height:5.359999999999999cm;""><p style='font-size: 30px; color: red;'><strong>Incorrect!</strong></p><p style='font-size: 30px;'><strong>This rock is basalt</strong></p>",0,corr_feedback,1,train,45,,,,,,,,
,,,,,,,,,,,html-button-response,195,2.0.0,492333,5dd9b725954d19948f95327c,2,4,2148,,,,,,,,,"<img src= ""rock_img/I_Basalt_02.jpg"" style=""width:8cm; height:6.45cm;""><p>What type of rock is this?</p>",4,class_response,1,train,46,Obsidian,Basalt,2,FALSE,5,2,,
,,,,,,,,,,,html-button-response,196,2.0.0,493035,5dd9b725954d19948f95327c,2,4,701,,,,,,,,,"<img src= rock_img/I_Basalt_02.jpg style=""width:8cm; height:6.45cm;""><p style='font-size: 30px; color: red;'><strong>Incorrect!</strong></p><p style='font-size: 30px;'><strong>This rock is basalt</strong></p>",0,corr_feedback,1,train,46,,,,,,,,
,,,,,,,,,,,html-button-response,197,2.0.0,494539,5dd9b725954d19948f95327c,2,4,1503,,,,,,,,,"<img src= ""rock_img/I_Gabbro_15.jpg"" style=""width:8cm; height:6.29cm;""><p>What type of rock is this?</p>",4,class_response,1,train,47,Obsidian,Gabbro,15,FALSE,5,4,,
,,,,,,,,,,,html-button-response,198,2.0.0,495160,5dd9b725954d19948f95327c,2,4,619,,,,,,,,,"<img src= rock_img/I_Gabbro_15.jpg style=""width:8cm; height:6.29cm;""><p style='font-size: 30px; color: red;'><strong>Incorrect!</strong></p><p style='font-size: 30px;'><strong>This rock is gabbro</strong></p>",0,corr_feedback,1,train,47,,,,,,,,
,,,,,,,,,,,html-button-response,199,2.0.0,497653,5dd9b725954d19948f95327c,2,4,2493,,,,,,,,,"<img src= ""rock_img/I_Gabbro_11.jpg"" style=""width:8cm; height:6.2cm;""><p>What type of rock is this?</p>",6,class_response,1,train,48,Peridotite,Gabbro,11,FALSE,7,4,,
,,,,,,,,,,,html-button-response,200,2.0.0,498299,5dd9b725954d19948f95327c,2,4,644,,,,,,,,,"<img src= rock_img/I_Gabbro_11.jpg style=""width:8cm; height:6.2cm;""><p style='font-size: 30px; color: red;'><strong>Incorrect!</strong></p><p style='font-size: 30px;'><strong>This rock is gabbro</strong></p>",0,corr_feedback,1,train,48,,,,,,,,
,,,,,,,,,,,instructions,203,2.0.0,515041,5dd9b725954d19948f95327c,2,4,16739,,,,,,,,"[{""page_index"":0,""viewing_time"":5629},{""page_index"":1,""viewing_time"":11110}]",,,,,,,,,,,,,,
,,,,,,,,,,,html-button-response,204,2.0.0,517028,5dd9b725954d19948f95327c,2,4,1984,,,,,,,,,,0,start_test,,,,,,,,,,,
,,,,,,,,,,,html-button-response,205,2.0.0,521849,5dd9b725954d19948f95327c,2,4,4821,,,,,,,,,"<img src= ""rock_img/I_Peridotite_12.jpg"" style=""width:8cm; height:4.54cm;""><p>What type of rock is this?</p>",3,class_response,1,test,1,Gabbro,Peridotite,12,FALSE,4,7,,
,,,,,,,,,,,html-keyboard-response,206,2.0.0,522351,5dd9b725954d19948f95327c,2,4,null,,,,,,,,,<p style='font-size: 30px;'><strong>Okay</strong></p>,null,neutral_feedback,1,test,1,,,,,,,,
,,,,,,,,,,,html-button-response,207,2.0.0,524905,5dd9b725954d19948f95327c,2,4,2553,,,,,,,,,"<img src= ""rock_img/I_Andesite_02.jpg"" style=""width:8cm; height:8.5cm;""><p>What type of rock is this?</p>",2,class_response,1,test,2,Diorite,Andesite,2,FALSE,3,1,,
,,,,,,,,,,,html-keyboard-response,208,2.0.0,525417,5dd9b725954d19948f95327c,2,4,null,,,,,,,,,<p style='font-size: 30px;'><strong>Okay</strong></p>,null,neutral_feedback,1,test,2,,,,,,,,
,,,,,,,,,,,html-button-response,209,2.0.0,528602,5dd9b725954d19948f95327c,2,4,3185,,,,,,,,,"<img src= ""rock_img/I_Gabbro_08.jpg"" style=""width:8cm; height:5.15cm;""><p>What type of rock is this?</p>",1,class_response,1,test,3,Basalt,Gabbro,8,FALSE,2,4,,
,,,,,,,,,,,html-keyboard-response,210,2.0.0,529104,5dd9b725954d19948f95327c,2,4,null,,,,,,,,,<p style='font-size: 30px;'><strong>Okay</strong></p>,null,neutral_feedback,1,test,3,,,,,,,,
,,,,,,,,,,,html-button-response,211,2.0.0,530460,5dd9b725954d19948f95327c,2,4,1354,,,,,,,,,"<img src= ""rock_img/I_Pumice_03.jpg"" style=""width:8cm; height:6.64cm;""><p>What type of rock is this?</p>",7,class_response,1,test,4,Pumice,Pumice,3,TRUE,8,8,,
,,,,,,,,,,,html-keyboard-response,212,2.0.0,530970,5dd9b725954d19948f95327c,2,4,null,,,,,,,,,<p style='font-size: 30px;'><strong>Okay</strong></p>,null,neutral_feedback,1,test,4,,,,,,,,
,,,,,,,,,,,html-button-response,213,2.0.0,533109,5dd9b725954d19948f95327c,2,4,2138,,,,,,,,,"<img src= ""rock_img/I_Diorite_06.jpg"" style=""width:8cm; height:6.03cm;""><p>What type of rock is this?</p>",6,class_response,1,test,5,Peridotite,Diorite,6,FALSE,7,3,,
,,,,,,,,,,,html-keyboard-response,214,2.0.0,533623,5dd9b725954d19948f95327c,2,4,null,,,,,,,,,<p style='font-size: 30px;'><strong>Okay</strong></p>,null,neutral_feedback,1,test,5,,,,,,,,
,,,,,,,,,,,html-button-response,215,2.0.0,535145,5dd9b725954d19948f95327c,2,4,1521,,,,,,,,,"<img src= ""rock_img/I_Andesite_01.jpg"" style=""width:8cm; height:5.87cm;""><p>What type of rock is this?</p>",4,class_response,1,test,6,Obsidian,Andesite,1,FALSE,5,1,,
,,,,,,,,,,,html-keyboard-response,216,2.0.0,535658,5dd9b725954d19948f95327c,2,4,null,,,,,,,,,<p style='font-size: 30px;'><strong>Okay</strong></p>,null,neutral_feedback,1,test,6,,,,,,,,
,,,,,,,,,,,html-button-response,217,2.0.0,538022,5dd9b725954d19948f95327c,2,4,2362,,,,,,,,,"<img src= ""rock_img/I_Basalt_08.jpg"" style=""width:8cm; height:10.44cm;""><p>What type of rock is this?</p>",4,class_response,1,test,7,Obsidian,Basalt,8,FALSE,5,2,,
,,,,,,,,,,,html-keyboard-response,218,2.0.0,538532,5dd9b725954d19948f95327c,2,4,null,,,,,,,,,<p style='font-size: 30px;'><strong>Okay</strong></p>,null,neutral_feedback,1,test,7,,,,,,,,
,,,,,,,,,,,html-button-response,219,2.0.0,540893,5dd9b725954d19948f95327c,2,4,2360,,,,,,,,,"<img src= ""rock_img/I_Andesite_05.jpg"" style=""width:8cm; height:4.12cm;""><p>What type of rock is this?</p>",3,class_response,1,test,8,Gabbro,Andesite,5,FALSE,4,1,,
,,,,,,,,,,,html-keyboard-response,220,2.0.0,541406,5dd9b725954d19948f95327c,2,4,null,,,,,,,,,<p style='font-size: 30px;'><strong>Okay</strong></p>,null,neutral_feedback,1,test,8,,,,,,,,
,,,,,,,,,,,html-button-response,221,2.0.0,542595,5dd9b725954d19948f95327c,2,4,1189,,,,,,,,,"<img src= ""rock_img/I_Obsidian_02.jpg"" style=""width:8cm; height:7.51cm;""><p>What type of rock is this?</p>",4,class_response,1,test,9,Obsidian,Obsidian,2,TRUE,5,5,,
,,,,,,,,,,,html-keyboard-response,222,2.0.0,543098,5dd9b725954d19948f95327c,2,4,null,,,,,,,,,<p style='font-size: 30px;'><strong>Okay</strong></p>,null,neutral_feedback,1,test,9,,,,,,,,
,,,,,,,,,,,html-button-response,223,2.0.0,545545,5dd9b725954d19948f95327c,2,4,2446,,,,,,,,,"<img src= ""rock_img/I_Peridotite_02.jpg"" style=""width:8cm; height:5.859999999999999cm;""><p>What type of rock is this?</p>",5,class_response,1,test,10,Pegmatite,Peridotite,2,FALSE,6,7,,
,,,,,,,,,,,html-keyboard-response,224,2.0.0,546049,5dd9b725954d19948f95327c,2,4,null,,,,,,,,,<p style='font-size: 30px;'><strong>Okay</strong></p>,null,neutral_feedback,1,test,10,,,,,,,,
,,,,,,,,,,,html-button-response,225,2.0.0,547801,5dd9b725954d19948f95327c,2,4,1752,,,,,,,,,"<img src= ""rock_img/I_Gabbro_14.jpg"" style=""width:8cm; height:8.48cm;""><p>What type of rock is this?</p>",0,class_response,1,test,11,Andesite,Gabbro,14,FALSE,1,4,,
,,,,,,,,,,,html-keyboard-response,226,2.0.0,548315,5dd9b725954d19948f95327c,2,4,null,,,,,,,,,<p style='font-size: 30px;'><strong>Okay</strong></p>,null,neutral_feedback,1,test,11,,,,,,,,
,,,,,,,,,,,html-button-response,227,2.0.0,549593,5dd9b725954d19948f95327c,2,4,1278,,,,,,,,,"<img src= ""rock_img/I_Peridotite_16.jpg"" style=""width:8cm; height:6.989999999999999cm;""><p>What type of rock is this?</p>",5,class_response,1,test,12,Pegmatite,Peridotite,16,FALSE,6,7,,
,,,,,,,,,,,html-keyboard-response,228,2.0.0,550094,5dd9b725954d19948f95327c,2,4,null,,,,,,,,,<p style='font-size: 30px;'><strong>Okay</strong></p>,null,neutral_feedback,1,test,12,,,,,,,,
,,,,,,,,,,,html-button-response,229,2.0.0,551001,5dd9b725954d19948f95327c,2,4,906,,,,,,,,,"<img src= ""rock_img/I_Peridotite_08.jpg"" style=""width:8cm; height:6.7cm;""><p>What type of rock is this?</p>",5,class_response,1,test,13,Pegmatite,Peridotite,8,FALSE,6,7,,
,,,,,,,,,,,html-keyboard-response,230,2.0.0,551510,5dd9b725954d19948f95327c,2,4,null,,,,,,,,,<p style='font-size: 30px;'><strong>Okay</strong></p>,null,neutral_feedback,1,test,13,,,,,,,,
,,,,,,,,,,,html-button-response,231,2.0.0,552925,5dd9b725954d19948f95327c,2,4,1415,,,,,,,,,"<img src= ""rock_img/I_Pumice_15.jpg"" style=""width:8cm; height:7.86cm;""><p>What type of rock is this?</p>",7,class_response,1,test,14,Pumice,Pumice,15,TRUE,8,8,,
,,,,,,,,,,,html-keyboard-response,232,2.0.0,553437,5dd9b725954d19948f95327c,2,4,null,,,,,,,,,<p style='font-size: 30px;'><strong>Okay</strong></p>,null,neutral_feedback,1,test,14,,,,,,,,
,,,,,,,,,,,html-button-response,233,2.0.0,554836,5dd9b725954d19948f95327c,2,4,1398,,,,,,,,,"<img src= ""rock_img/I_Pegmatite_12.jpg"" style=""width:8cm; height:5.7cm;""><p>What type of rock is this?</p>",6,class_response,1,test,15,Peridotite,Pegmatite,12,FALSE,7,6,,
,,,,,,,,,,,html-keyboard-response,234,2.0.0,555351,5dd9b725954d19948f95327c,2,4,null,,,,,,,,,<p style='font-size: 30px;'><strong>Okay</strong></p>,null,neutral_feedback,1,test,15,,,,,,,,
,,,,,,,,,,,html-button-response,235,2.0.0,557141,5dd9b725954d19948f95327c,2,4,1790,,,,,,,,,"<img src= ""rock_img/I_Gabbro_16.jpg"" style=""width:8cm; height:6.44cm;""><p>What type of rock is this?</p>",2,class_response,1,test,16,Diorite,Gabbro,16,FALSE,3,4,,
,,,,,,,,,,,html-keyboard-response,236,2.0.0,557654,5dd9b725954d19948f95327c,2,4,null,,,,,,,,,<p style='font-size: 30px;'><strong>Okay</strong></p>,null,neutral_feedback,1,test,16,,,,,,,,
,,,,,,,,,,,html-button-response,237,2.0.0,558807,5dd9b725954d19948f95327c,2,4,1153,,,,,,,,,"<img src= ""rock_img/I_Pumice_09.jpg"" style=""width:8cm; height:6.44cm;""><p>What type of rock is this?</p>",7,class_response,1,test,17,Pumice,Pumice,9,TRUE,8,8,,
,,,,,,,,,,,html-keyboard-response,238,2.0.0,559319,5dd9b725954d19948f95327c,2,4,null,,,,,,,,,<p style='font-size: 30px;'><strong>Okay</strong></p>,null,neutral_feedback,1,test,17,,,,,,,,
,,,,,,,,,,,html-button-response,239,2.0.0,560533,5dd9b725954d19948f95327c,2,4,1214,,,,,,,,,"<img src= ""rock_img/I_Obsidian_10.jpg"" style=""width:8cm; height:6.260000000000001cm;""><p>What type of rock is this?</p>",4,class_response,1,test,18,Obsidian,Obsidian,10,TRUE,5,5,,
,,,,,,,,,,,html-keyboard-response,240,2.0.0,561043,5dd9b725954d19948f95327c,2,4,null,,,,,,,,,<p style='font-size: 30px;'><strong>Okay</strong></p>,null,neutral_feedback,1,test,18,,,,,,,,
,,,,,,,,,,,html-button-response,241,2.0.0,564249,5dd9b725954d19948f95327c,2,4,3205,,,,,,,,,"<img src= ""rock_img/I_Diorite_15.jpg"" style=""width:8cm; height:5.54cm;""><p>What type of rock is this?</p>",3,class_response,1,test,19,Gabbro,Diorite,15,FALSE,4,3,,
,,,,,,,,,,,html-keyboard-response,242,2.0.0,564757,5dd9b725954d19948f95327c,2,4,null,,,,,,,,,<p style='font-size: 30px;'><strong>Okay</strong></p>,null,neutral_feedback,1,test,19,,,,,,,,
,,,,,,,,,,,html-button-response,243,2.0.0,566043,5dd9b725954d19948f95327c,2,4,1283,,,,,,,,,"<img src= ""rock_img/I_Andesite_03.jpg"" style=""width:8cm; height:5.73cm;""><p>What type of rock is this?</p>",2,class_response,1,test,20,Diorite,Andesite,3,FALSE,3,1,,
,,,,,,,,,,,html-keyboard-response,244,2.0.0,566559,5dd9b725954d19948f95327c,2,4,null,,,,,,,,,<p style='font-size: 30px;'><strong>Okay</strong></p>,null,neutral_feedback,1,test,20,,,,,,,,
,,,,,,,,,,,html-button-response,245,2.0.0,567927,5dd9b725954d19948f95327c,2,4,1368,,,,,,,,,"<img src= ""rock_img/I_Basalt_09.jpg"" style=""width:8cm; height:6.2cm;""><p>What type of rock is this?</p>",1,class_response,1,test,21,Basalt,Basalt,9,TRUE,2,2,,
,,,,,,,,,,,html-keyboard-response,246,2.0.0,568433,5dd9b725954d19948f95327c,2,4,null,,,,,,,,,<p style='font-size: 30px;'><strong>Okay</strong></p>,null,neutral_feedback,1,test,21,,,,,,,,
,,,,,,,,,,,html-button-response,247,2.0.0,569569,5dd9b725954d19948f95327c,2,4,1135,,,,,,,,,"<img src= ""rock_img/I_Basalt_06.jpg"" style=""width:8cm; height:7.06cm;""><p>What type of rock is this?</p>",4,class_response,1,test,22,Obsidian,Basalt,6,FALSE,5,2,,
,,,,,,,,,,,html-keyboard-response,248,2.0.0,570082,5dd9b725954d19948f95327c,2,4,null,,,,,,,,,<p style='font-size: 30px;'><strong>Okay</strong></p>,null,neutral_feedback,1,test,22,,,,,,,,
,,,,,,,,,,,html-button-response,249,2.0.0,571483,5dd9b725954d19948f95327c,2,4,1400,,,,,,,,,"<img src= ""rock_img/I_Pegmatite_10.jpg"" style=""width:8cm; height:4.16cm;""><p>What type of rock is this?</p>",5,class_response,1,test,23,Pegmatite,Pegmatite,10,TRUE,6,6,,
,,,,,,,,,,,html-keyboard-response,250,2.0.0,571984,5dd9b725954d19948f95327c,2,4,null,,,,,,,,,<p style='font-size: 30px;'><strong>Okay</strong></p>,null,neutral_feedback,1,test,23,,,,,,,,
,,,,,,,,,,,html-button-response,251,2.0.0,573149,5dd9b725954d19948f95327c,2,4,1163,,,,,,,,,"<img src= ""rock_img/I_Peridotite_05.jpg"" style=""width:8cm; height:7.1499999999999995cm;""><p>What type of rock is this?</p>",5,class_response,1,test,24,Pegmatite,Peridotite,5,FALSE,6,7,,
,,,,,,,,,,,html-keyboard-response,252,2.0.0,573652,5dd9b725954d19948f95327c,2,4,null,,,,,,,,,<p style='font-size: 30px;'><strong>Okay</strong></p>,null,neutral_feedback,1,test,24,,,,,,,,
,,,,,,,,,,,html-button-response,253,2.0.0,575065,5dd9b725954d19948f95327c,2,4,1412,,,,,,,,,"<img src= ""rock_img/I_Pegmatite_13.jpg"" style=""width:8cm; height:4.95cm;""><p>What type of rock is this?</p>",6,class_response,1,test,25,Peridotite,Pegmatite,13,FALSE,7,6,,
,,,,,,,,,,,html-keyboard-response,254,2.0.0,575580,5dd9b725954d19948f95327c,2,4,null,,,,,,,,,<p style='font-size: 30px;'><strong>Okay</strong></p>,null,neutral_feedback,1,test,25,,,,,,,,
,,,,,,,,,,,html-button-response,255,2.0.0,577293,5dd9b725954d19948f95327c,2,4,1712,,,,,,,,,"<img src= ""rock_img/I_Basalt_10.jpg"" style=""width:8cm; height:5.85cm;""><p>What type of rock is this?</p>",4,class_response,1,test,26,Obsidian,Basalt,10,FALSE,5,2,,
,,,,,,,,,,,html-keyboard-response,256,2.0.0,577801,5dd9b725954d19948f95327c,2,4,null,,,,,,,,,<p style='font-size: 30px;'><strong>Okay</strong></p>,null,neutral_feedback,1,test,26,,,,,,,,
,,,,,,,,,,,html-button-response,257,2.0.0,579976,5dd9b725954d19948f95327c,2,4,2173,,,,,,,,,"<img src= ""rock_img/I_Basalt_04.jpg"" style=""width:8cm; height:7.53cm;""><p>What type of rock is this?</p>",0,class_response,1,test,27,Andesite,Basalt,4,FALSE,1,2,,
,,,,,,,,,,,html-keyboard-response,258,2.0.0,580488,5dd9b725954d19948f95327c,2,4,null,,,,,,,,,<p style='font-size: 30px;'><strong>Okay</strong></p>,null,neutral_feedback,1,test,27,,,,,,,,
,,,,,,,,,,,html-button-response,259,2.0.0,581513,5dd9b725954d19948f95327c,2,4,1024,,,,,,,,,"<img src= ""rock_img/I_Obsidian_04.jpg"" style=""width:8cm; height:6.930000000000001cm;""><p>What type of rock is this?</p>",4,class_response,1,test,28,Obsidian,Obsidian,4,TRUE,5,5,,
,,,,,,,,,,,html-keyboard-response,260,2.0.0,582021,5dd9b725954d19948f95327c,2,4,null,,,,,,,,,<p style='font-size: 30px;'><strong>Okay</strong></p>,null,neutral_feedback,1,test,28,,,,,,,,
,,,,,,,,,,,html-button-response,261,2.0.0,583367,5dd9b725954d19948f95327c,2,4,1345,,,,,,,,,"<img src= ""rock_img/I_Gabbro_10.jpg"" style=""width:8cm; height:5.680000000000001cm;""><p>What type of rock is this?</p>",2,class_response,1,test,29,Diorite,Gabbro,10,FALSE,3,4,,
,,,,,,,,,,,html-keyboard-response,262,2.0.0,583870,5dd9b725954d19948f95327c,2,4,null,,,,,,,,,<p style='font-size: 30px;'><strong>Okay</strong></p>,null,neutral_feedback,1,test,29,,,,,,,,
,,,,,,,,,,,html-button-response,263,2.0.0,585369,5dd9b725954d19948f95327c,2,4,1498,,,,,,,,,"<img src= ""rock_img/I_Peridotite_07.jpg"" style=""width:8cm; height:4.83cm;""><p>What type of rock is this?</p>",5,class_response,1,test,30,Pegmatite,Peridotite,7,FALSE,6,7,,
,,,,,,,,,,,html-keyboard-response,264,2.0.0,585877,5dd9b725954d19948f95327c,2,4,null,,,,,,,,,<p style='font-size: 30px;'><strong>Okay</strong></p>,null,neutral_feedback,1,test,30,,,,,,,,
,,,,,,,,,,,html-button-response,265,2.0.0,586943,5dd9b725954d19948f95327c,2,4,1066,,,,,,,,,"<img src= ""rock_img/I_Pumice_14.jpg"" style=""width:8cm; height:6.39cm;""><p>What type of rock is this?</p>",7,class_response,1,test,31,Pumice,Pumice,14,TRUE,8,8,,
,,,,,,,,,,,html-keyboard-response,266,2.0.0,587450,5dd9b725954d19948f95327c,2,4,null,,,,,,,,,<p style='font-size: 30px;'><strong>Okay</strong></p>,null,neutral_feedback,1,test,31,,,,,,,,
,,,,,,,,,,,html-button-response,267,2.0.0,589771,5dd9b725954d19948f95327c,2,4,2321,,,,,,,,,"<img src= ""rock_img/I_Pegmatite_15.jpg"" style=""width:8cm; height:6cm;""><p>What type of rock is this?</p>",6,class_response,1,test,32,Peridotite,Pegmatite,15,FALSE,7,6,,
,,,,,,,,,,,html-keyboard-response,268,2.0.0,590277,5dd9b725954d19948f95327c,2,4,null,,,,,,,,,<p style='font-size: 30px;'><strong>Okay</strong></p>,null,neutral_feedback,1,test,32,,,,,,,,
,,,,,,,,,,,html-button-response,269,2.0.0,591295,5dd9b725954d19948f95327c,2,4,1016,,,,,,,,,"<img src= ""rock_img/I_Gabbro_12.jpg"" style=""width:8cm; height:7.800000000000001cm;""><p>What type of rock is this?</p>",3,class_response,1,test,33,Gabbro,Gabbro,12,TRUE,4,4,,
,,,,,,,,,,,html-keyboard-response,270,2.0.0,591800,5dd9b725954d19948f95327c,2,4,null,,,,,,,,,<p style='font-size: 30px;'><strong>Okay</strong></p>,null,neutral_feedback,1,test,33,,,,,,,,
,,,,,,,,,,,html-button-response,271,2.0.0,592953,5dd9b725954d19948f95327c,2,4,1151,,,,,,,,,"<img src= ""rock_img/I_Obsidian_09.jpg"" style=""width:8cm; height:5cm;""><p>What type of rock is this?</p>",4,class_response,1,test,34,Obsidian,Obsidian,9,TRUE,5,5,,
,,,,,,,,,,,html-keyboard-response,272,2.0.0,593464,5dd9b725954d19948f95327c,2,4,null,,,,,,,,,<p style='font-size: 30px;'><strong>Okay</strong></p>,null,neutral_feedback,1,test,34,,,,,,,,
,,,,,,,,,,,html-button-response,273,2.0.0,594717,5dd9b725954d19948f95327c,2,4,1253,,,,,,,,,"<img src= ""rock_img/I_Obsidian_07.jpg"" style=""width:8cm; height:4.76cm;""><p>What type of rock is this?</p>",4,class_response,1,test,35,Obsidian,Obsidian,7,TRUE,5,5,,
,,,,,,,,,,,html-keyboard-response,274,2.0.0,595222,5dd9b725954d19948f95327c,2,4,null,,,,,,,,,<p style='font-size: 30px;'><strong>Okay</strong></p>,null,neutral_feedback,1,test,35,,,,,,,,
,,,,,,,,,,,html-button-response,275,2.0.0,597111,5dd9b725954d19948f95327c,2,4,1887,,,,,,,,,"<img src= ""rock_img/I_Andesite_06.jpg"" style=""width:8cm; height:6.840000000000001cm;""><p>What type of rock is this?</p>",1,class_response,1,test,36,Basalt,Andesite,6,FALSE,2,1,,
,,,,,,,,,,,html-keyboard-response,276,2.0.0,597617,5dd9b725954d19948f95327c,2,4,null,,,,,,,,,<p style='font-size: 30px;'><strong>Okay</strong></p>,null,neutral_feedback,1,test,36,,,,,,,,
,,,,,,,,,,,html-button-response,277,2.0.0,598864,5dd9b725954d19948f95327c,2,4,1246,,,,,,,,,"<img src= ""rock_img/I_Andesite_07.jpg"" style=""width:8cm; height:5.93cm;""><p>What type of rock is this?</p>",1,class_response,1,test,37,Basalt,Andesite,7,FALSE,2,1,,
,,,,,,,,,,,html-keyboard-response,278,2.0.0,599367,5dd9b725954d19948f95327c,2,4,null,,,,,,,,,<p style='font-size: 30px;'><strong>Okay</strong></p>,null,neutral_feedback,1,test,37,,,,,,,,
,,,,,,,,,,,html-button-response,279,2.0.0,601015,5dd9b725954d19948f95327c,2,4,1647,,,,,,,,,"<img src= ""rock_img/I_Diorite_11.jpg"" style=""width:8cm; height:7.11cm;""><p>What type of rock is this?</p>",1,class_response,1,test,38,Basalt,Diorite,11,FALSE,2,3,,
,,,,,,,,,,,html-keyboard-response,280,2.0.0,601521,5dd9b725954d19948f95327c,2,4,null,,,,,,,,,<p style='font-size: 30px;'><strong>Okay</strong></p>,null,neutral_feedback,1,test,38,,,,,,,,
,,,,,,,,,,,html-button-response,281,2.0.0,603323,5dd9b725954d19948f95327c,2,4,1802,,,,,,,,,"<img src= ""rock_img/I_Pegmatite_07.jpg"" style=""width:8cm; height:6.7cm;""><p>What type of rock is this?</p>",2,class_response,1,test,39,Diorite,Pegmatite,7,FALSE,3,6,,
,,,,,,,,,,,html-keyboard-response,282,2.0.0,603838,5dd9b725954d19948f95327c,2,4,null,,,,,,,,,<p style='font-size: 30px;'><strong>Okay</strong></p>,null,neutral_feedback,1,test,39,,,,,,,,
,,,,,,,,,,,html-button-response,283,2.0.0,604887,5dd9b725954d19948f95327c,2,4,1048,,,,,,,,,"<img src= ""rock_img/I_Pumice_04.jpg"" style=""width:8cm; height:6.819999999999999cm;""><p>What type of rock is this?</p>",7,class_response,1,test,40,Pumice,Pumice,4,TRUE,8,8,,
,,,,,,,,,,,html-keyboard-response,284,2.0.0,605390,5dd9b725954d19948f95327c,2,4,null,,,,,,,,,<p style='font-size: 30px;'><strong>Okay</strong></p>,null,neutral_feedback,1,test,40,,,,,,,,
,,,,,,,,,,,html-button-response,285,2.0.0,607809,5dd9b725954d19948f95327c,2,4,2418,,,,,,,,,"<img src= ""rock_img/I_Diorite_07.jpg"" style=""width:8cm; height:5.239999999999999cm;""><p>What type of rock is this?</p>",0,class_response,1,test,41,Andesite,Diorite,7,FALSE,1,3,,
,,,,,,,,,,,html-keyboard-response,286,2.0.0,608322,5dd9b725954d19948f95327c,2,4,null,,,,,,,,,<p style='font-size: 30px;'><strong>Okay</strong></p>,null,neutral_feedback,1,test,41,,,,,,,,
,,,,,,,,,,,html-button-response,287,2.0.0,609355,5dd9b725954d19948f95327c,2,4,1031,,,,,,,,,"<img src= ""rock_img/I_Diorite_12.jpg"" style=""width:8cm; height:4.88cm;""><p>What type of rock is this?</p>",5,class_response,1,test,42,Pegmatite,Diorite,12,FALSE,6,3,,
,,,,,,,,,,,html-keyboard-response,288,2.0.0,609858,5dd9b725954d19948f95327c,2,4,null,,,,,,,,,<p style='font-size: 30px;'><strong>Okay</strong></p>,null,neutral_feedback,1,test,42,,,,,,,,
,,,,,,,,,,,html-button-response,289,2.0.0,610881,5dd9b725954d19948f95327c,2,4,1022,,,,,,,,,"<img src= ""rock_img/I_Diorite_16.jpg"" style=""width:8cm; height:6.74cm;""><p>What type of rock is this?</p>",5,class_response,1,test,43,Pegmatite,Diorite,16,FALSE,6,3,,
,,,,,,,,,,,html-keyboard-response,290,2.0.0,611398,5dd9b725954d19948f95327c,2,4,null,,,,,,,,,<p style='font-size: 30px;'><strong>Okay</strong></p>,null,neutral_feedback,1,test,43,,,,,,,,
,,,,,,,,,,,html-button-response,291,2.0.0,612806,5dd9b725954d19948f95327c,2,4,1407,,,,,,,,,"<img src= ""rock_img/I_Pumice_05.jpg"" style=""width:8cm; height:7.25cm;""><p>What type of rock is this?</p>",7,class_response,1,test,44,Pumice,Pumice,5,TRUE,8,8,,
,,,,,,,,,,,html-keyboard-response,292,2.0.0,613309,5dd9b725954d19948f95327c,2,4,null,,,,,,,,,<p style='font-size: 30px;'><strong>Okay</strong></p>,null,neutral_feedback,1,test,44,,,,,,,,
,,,,,,,,,,,html-button-response,293,2.0.0,614777,5dd9b725954d19948f95327c,2,4,1467,,,,,,,,,"<img src= ""rock_img/I_Basalt_16.jpg"" style=""width:8cm; height:7.659999999999999cm;""><p>What type of rock is this?</p>",3,class_response,1,test,45,Gabbro,Basalt,16,FALSE,4,2,,
,,,,,,,,,,,html-keyboard-response,294,2.0.0,615282,5dd9b725954d19948f95327c,2,4,null,,,,,,,,,<p style='font-size: 30px;'><strong>Okay</strong></p>,null,neutral_feedback,1,test,45,,,,,,,,
,,,,,,,,,,,html-button-response,295,2.0.0,616501,5dd9b725954d19948f95327c,2,4,1219,,,,,,,,,"<img src= ""rock_img/I_Gabbro_01.jpg"" style=""width:8cm; height:5.21cm;""><p>What type of rock is this?</p>",6,class_response,1,test,46,Peridotite,Gabbro,1,FALSE,7,4,,
,,,,,,,,,,,html-keyboard-response,296,2.0.0,617002,5dd9b725954d19948f95327c,2,4,null,,,,,,,,,<p style='font-size: 30px;'><strong>Okay</strong></p>,null,neutral_feedback,1,test,46,,,,,,,,
,,,,,,,,,,,html-button-response,297,2.0.0,618511,5dd9b725954d19948f95327c,2,4,1508,,,,,,,,,"<img src= ""rock_img/I_Pegmatite_16.jpg"" style=""width:8cm; height:5.8cm;""><p>What type of rock is this?</p>",2,class_response,1,test,47,Diorite,Pegmatite,16,FALSE,3,6,,
,,,,,,,,,,,html-keyboard-response,298,2.0.0,619017,5dd9b725954d19948f95327c,2,4,null,,,,,,,,,<p style='font-size: 30px;'><strong>Okay</strong></p>,null,neutral_feedback,1,test,47,,,,,,,,
,,,,,,,,,,,html-button-response,299,2.0.0,620175,5dd9b725954d19948f95327c,2,4,1157,,,,,,,,,"<img src= ""rock_img/I_Obsidian_14.jpg"" style=""width:8cm; height:7.64cm;""><p>What type of rock is this?</p>",4,class_response,1,test,48,Obsidian,Obsidian,14,TRUE,5,5,,
,,,,,,,,,,,html-keyboard-response,300,2.0.0,620682,5dd9b725954d19948f95327c,2,4,null,,,,,,,,,<p style='font-size: 30px;'><strong>Okay</strong></p>,null,neutral_feedback,1,test,48,,,,,,,,
,,,,,,,,,,,html-button-response,301,2.0.0,679671,5dd9b725954d19948f95327c,2,4,,,,,,,,,,,,cycle_feedback,,,,,,,,,,11089,47895
,,,,,,,,,,,html-button-response,303,2.0.0,682539,5dd9b725954d19948f95327c,2,4,2866,,,,,,,,,,0,start_train,,,,,,,,,,,
,,,,,,,,,,,html-button-response,304,2.0.0,685994,5dd9b725954d19948f95327c,2,4,3453,,,,,,,,,"<img src= ""rock_img/I_Basalt_14.jpg"" style=""width:8cm; height:5.82cm;""><p>What type of rock is this?</p>",2,class_response,2,train,1,Diorite,Basalt,14,FALSE,3,2,,
,,,,,,,,,,,html-button-response,305,2.0.0,687265,5dd9b725954d19948f95327c,2,4,1268,,,,,,,,,"<img src= rock_img/I_Basalt_14.jpg style=""width:8cm; height:5.82cm;""><p style='font-size: 30px; color: red;'><strong>Incorrect!</strong></p><p style='font-size: 30px;'><strong>This rock is basalt</strong></p>",0,corr_feedback,2,train,1,,,,,,,,
,,,,,,,,,,,html-button-response,306,2.0.0,690985,5dd9b725954d19948f95327c,2,4,3719,,,,,,,,,"<img src= ""rock_img/I_Gabbro_09.jpg"" style=""width:8cm; height:7.279999999999999cm;""><p>What type of rock is this?</p>",0,class_response,2,train,2,Andesite,Gabbro,9,FALSE,1,4,,
,,,,,,,,,,,html-button-response,307,2.0.0,691759,5dd9b725954d19948f95327c,2,4,773,,,,,,,,,"<img src= rock_img/I_Gabbro_09.jpg style=""width:8cm; height:7.279999999999999cm;""><p style='font-size: 30px; color: red;'><strong>Incorrect!</strong></p><p style='font-size: 30px;'><strong>This rock is gabbro</strong></p>",0,corr_feedback,2,train,2,,,,,,,,
,,,,,,,,,,,html-button-response,308,2.0.0,693552,5dd9b725954d19948f95327c,2,4,1791,,,,,,,,,"<img src= ""rock_img/I_Gabbro_03.jpg"" style=""width:8cm; height:8.52cm;""><p>What type of rock is this?</p>",1,class_response,2,train,3,Basalt,Gabbro,3,FALSE,2,4,,
,,,,,,,,,,,html-button-response,309,2.0.0,694207,5dd9b725954d19948f95327c,2,4,654,,,,,,,,,"<img src= rock_img/I_Gabbro_03.jpg style=""width:8cm; height:8.52cm;""><p style='font-size: 30px; color: red;'><strong>Incorrect!</strong></p><p style='font-size: 30px;'><strong>This rock is gabbro</strong></p>",0,corr_feedback,2,train,3,,,,,,,,
,,,,,,,,,,,html-button-response,310,2.0.0,695889,5dd9b725954d19948f95327c,2,4,1681,,,,,,,,,"<img src= ""rock_img/I_Diorite_13.jpg"" style=""width:8cm; height:6.29cm;""><p>What type of rock is this?</p>",6,class_response,2,train,4,Peridotite,Diorite,13,FALSE,7,3,,
,,,,,,,,,,,html-button-response,311,2.0.0,696632,5dd9b725954d19948f95327c,2,4,742,,,,,,,,,"<img src= rock_img/I_Diorite_13.jpg style=""width:8cm; height:6.29cm;""><p style='font-size: 30px; color: red;'><strong>Incorrect!</strong></p><p style='font-size: 30px;'><strong>This rock is diorite</strong></p>",0,corr_feedback,2,train,4,,,,,,,,
,,,,,,,,,,,html-button-response,312,2.0.0,698045,5dd9b725954d19948f95327c,2,4,1410,,,,,,,,,"<img src= ""rock_img/I_Pegmatite_11.jpg"" style=""width:8cm; height:8.14cm;""><p>What type of rock is this?</p>",6,class_response,2,train,5,Peridotite,Pegmatite,11,FALSE,7,6,,
,,,,,,,,,,,html-button-response,313,2.0.0,698740,5dd9b725954d19948f95327c,2,4,693,,,,,,,,,"<img src= rock_img/I_Pegmatite_11.jpg style=""width:8cm; height:8.14cm;""><p style='font-size: 30px; color: red;'><strong>Incorrect!</strong></p><p style='font-size: 30px;'><strong>This rock is pegmatite</strong></p>",0,corr_feedback,2,train,5,,,,,,,,
,,,,,,,,,,,html-button-response,314,2.0.0,700507,5dd9b725954d19948f95327c,2,4,1766,,,,,,,,,"<img src= ""rock_img/I_Gabbro_05.jpg"" style=""width:8cm; height:6cm;""><p>What type of rock is this?</p>",6,class_response,2,train,6,Peridotite,Gabbro,5,FALSE,7,4,,
,,,,,,,,,,,html-button-response,315,2.0.0,701075,5dd9b725954d19948f95327c,2,4,567,,,,,,,,,"<img src= rock_img/I_Gabbro_05.jpg style=""width:8cm; height:6cm;""><p style='font-size: 30px; color: red;'><strong>Incorrect!</strong></p><p style='font-size: 30px;'><strong>This rock is gabbro</strong></p>",0,corr_feedback,2,train,6,,,,,,,,
,,,,,,,,,,,html-button-response,316,2.0.0,702983,5dd9b725954d19948f95327c,2,4,1906,,,,,,,,,"<img src= ""rock_img/I_Basalt_11.jpg"" style=""width:8cm; height:5.359999999999999cm;""><p>What type of rock is this?</p>",7,class_response,2,train,7,Pumice,Basalt,11,FALSE,8,2,,
,,,,,,,,,,,html-button-response,317,2.0.0,703611,5dd9b725954d19948f95327c,2,4,627,,,,,,,,,"<img src= rock_img/I_Basalt_11.jpg style=""width:8cm; height:5.359999999999999cm;""><p style='font-size: 30px; color: red;'><strong>Incorrect!</strong></p><p style='font-size: 30px;'><strong>This rock is basalt</strong></p>",0,corr_feedback,2,train,7,,,,,,,,
,,,,,,,,,,,html-button-response,318,2.0.0,704838,5dd9b725954d19948f95327c,2,4,1227,,,,,,,,,"<img src= ""rock_img/I_Peridotite_15.jpg"" style=""width:8cm; height:6cm;""><p>What type of rock is this?</p>",5,class_response,2,train,8,Pegmatite,Peridotite,15,FALSE,6,7,,
,,,,,,,,,,,html-button-response,319,2.0.0,705869,5dd9b725954d19948f95327c,2,4,1029,,,,,,,,,"<img src= rock_img/I_Peridotite_15.jpg style=""width:8cm; height:6cm;""><p style='font-size: 30px; color: red;'><strong>Incorrect!</strong></p><p style='font-size: 30px;'><strong>This rock is peridotite</strong></p>",0,corr_feedback,2,train,8,,,,,,,,
,,,,,,,,,,,html-button-response,320,2.0.0,706857,5dd9b725954d19948f95327c,2,4,987,,,,,,,,,"<img src= ""rock_img/I_Peridotite_14.jpg"" style=""width:8cm; height:5.3cm;""><p>What type of rock is this?</p>",6,class_response,2,train,9,Peridotite,Peridotite,14,TRUE,7,7,,
,,,,,,,,,,,html-button-response,321,2.0.0,707559,5dd9b725954d19948f95327c,2,4,700,,,,,,,,,"<img src= rock_img/I_Peridotite_14.jpg style=""width:8cm; height:5.3cm;""><p style='font-size: 30px; color: green;'><strong>Correct!</strong></p><p style='font-size: 30px;'><strong>This rock is peridotite</strong></p>",0,corr_feedback,2,train,9,,,,,,,,
,,,,,,,,,,,html-button-response,322,2.0.0,709055,5dd9b725954d19948f95327c,2,4,1495,,,,,,,,,"<img src= ""rock_img/I_Diorite_14.jpg"" style=""width:8cm; height:5.71cm;""><p>What type of rock is this?</p>",5,class_response,2,train,10,Pegmatite,Diorite,14,FALSE,6,3,,
,,,,,,,,,,,html-button-response,323,2.0.0,709675,5dd9b725954d19948f95327c,2,4,619,,,,,,,,,"<img src= rock_img/I_Diorite_14.jpg style=""width:8cm; height:5.71cm;""><p style='font-size: 30px; color: red;'><strong>Incorrect!</strong></p><p style='font-size: 30px;'><strong>This rock is diorite</strong></p>",0,corr_feedback,2,train,10,,,,,,,,
,,,,,,,,,,,html-button-response,324,2.0.0,711122,5dd9b725954d19948f95327c,2,4,1446,,,,,,,,,"<img src= ""rock_img/I_Pumice_02.jpg"" style=""width:8cm; height:7.3999999999999995cm;""><p>What type of rock is this?</p>",7,class_response,2,train,11,Pumice,Pumice,2,TRUE,8,8,,
,,,,,,,,,,,html-button-response,325,2.0.0,711739,5dd9b725954d19948f95327c,2,4,615,,,,,,,,,"<img src= rock_img/I_Pumice_02.jpg style=""width:8cm; height:7.3999999999999995cm;""><p style='font-size: 30px; color: green;'><strong>Correct!</strong></p><p style='font-size: 30px;'><strong>This rock is pumice</strong></p>",0,corr_feedback,2,train,11,,,,,,,,
,,,,,,,,,,,html-button-response,326,2.0.0,712861,5dd9b725954d19948f95327c,2,4,1120,,,,,,,,,"<img src= ""rock_img/I_Obsidian_06.jpg"" style=""width:8cm; height:6.8cm;""><p>What type of rock is this?</p>",4,class_response,2,train,12,Obsidian,Obsidian,6,TRUE,5,5,,
,,,,,,,,,,,html-button-response,327,2.0.0,713524,5dd9b725954d19948f95327c,2,4,661,,,,,,,,,"<img src= rock_img/I_Obsidian_06.jpg style=""width:8cm; height:6.8cm;""><p style='font-size: 30px; color: green;'><strong>Correct!</strong></p><p style='font-size: 30px;'><strong>This rock is obsidian</strong></p>",0,corr_feedback,2,train,12,,,,,,,,
,,,,,,,,,,,html-button-response,328,2.0.0,715319,5dd9b725954d19948f95327c,2,4,1795,,,,,,,,,"<img src= ""rock_img/I_Andesite_14.jpg"" style=""width:8cm; height:5.449999999999999cm;""><p>What type of rock is this?</p>",2,class_response,2,train,13,Diorite,Andesite,14,FALSE,3,1,,
,,,,,,,,,,,html-button-response,329,2.0.0,715944,5dd9b725954d19948f95327c,2,4,622,,,,,,,,,"<img src= rock_img/I_Andesite_14.jpg style=""width:8cm; height:5.449999999999999cm;""><p style='font-size: 30px; color: red;'><strong>Incorrect!</strong></p><p style='font-size: 30px;'><strong>This rock is andesite</strong></p>",0,corr_feedback,2,train,13,,,,,,,,
,,,,,,,,,,,html-button-response,330,2.0.0,717667,5dd9b725954d19948f95327c,2,4,1722,,,,,,,,,"<img src= ""rock_img/I_Pegmatite_09.jpg"" style=""width:8cm; height:4.03cm;""><p>What type of rock is this?</p>",6,class_response,2,train,14,Peridotite,Pegmatite,9,FALSE,7,6,,
,,,,,,,,,,,html-button-response,331,2.0.0,718265,5dd9b725954d19948f95327c,2,4,596,,,,,,,,,"<img src= rock_img/I_Pegmatite_09.jpg style=""width:8cm; height:4.03cm;""><p style='font-size: 30px; color: red;'><strong>Incorrect!</strong></p><p style='font-size: 30px;'><strong>This rock is pegmatite</strong></p>",0,corr_feedback,2,train,14,,,,,,,,
,,,,,,,,,,,html-button-response,332,2.0.0,721022,5dd9b725954d19948f95327c,2,4,2754,,,,,,,,,"<img src= ""rock_img/I_Diorite_02.jpg"" style=""width:8cm; height:6.27cm;""><p>What type of rock is this?</p>",1,class_response,2,train,15,Basalt,Diorite,2,FALSE,2,3,,
,,,,,,,,,,,html-button-response,333,2.0.0,721657,5dd9b725954d19948f95327c,2,4,634,,,,,,,,,"<img src= rock_img/I_Diorite_02.jpg style=""width:8cm; height:6.27cm;""><p style='font-size: 30px; color: red;'><strong>Incorrect!</strong></p><p style='font-size: 30px;'><strong>This rock is diorite</strong></p>",0,corr_feedback,2,train,15,,,,,,,,
,,,,,,,,,,,html-button-response,334,2.0.0,723443,5dd9b725954d19948f95327c,2,4,1785,,,,,,,,,"<img src= ""rock_img/I_Andesite_10.jpg"" style=""width:8cm; height:4.16cm;""><p>What type of rock is this?</p>",2,class_response,2,train,16,Diorite,Andesite,10,FALSE,3,1,,
,,,,,,,,,,,html-button-response,335,2.0.0,724091,5dd9b725954d19948f95327c,2,4,646,,,,,,,,,"<img src= rock_img/I_Andesite_10.jpg style=""width:8cm; height:4.16cm;""><p style='font-size: 30px; color: red;'><strong>Incorrect!</strong></p><p style='font-size: 30px;'><strong>This rock is andesite</strong></p>",0,corr_feedback,2,train,16,,,,,,,,
,,,,,,,,,,,html-button-response,336,2.0.0,725995,5dd9b725954d19948f95327c,2,4,1903,,,,,,,,,"<img src= ""rock_img/I_Peridotite_06.jpg"" style=""width:8cm; height:7.53cm;""><p>What type of rock is this?</p>",5,class_response,2,train,17,Pegmatite,Peridotite,6,FALSE,6,7,,
,,,,,,,,,,,html-button-response,337,2.0.0,726567,5dd9b725954d19948f95327c,2,4,570,,,,,,,,,"<img src= rock_img/I_Peridotite_06.jpg style=""width:8cm; height:7.53cm;""><p style='font-size: 30px; color: red;'><strong>Incorrect!</strong></p><p style='font-size: 30px;'><strong>This rock is peridotite</strong></p>",0,corr_feedback,2,train,17,,,,,,,,
,,,,,,,,,,,html-button-response,338,2.0.0,727910,5dd9b725954d19948f95327c,2,4,1341,,,,,,,,,"<img src= ""rock_img/I_Basalt_14.jpg"" style=""width:8cm; height:5.82cm;""><p>What type of rock is this?</p>",2,class_response,2,train,18,Diorite,Basalt,14,FALSE,3,2,,
,,,,,,,,,,,html-button-response,339,2.0.0,728500,5dd9b725954d19948f95327c,2,4,591,,,,,,,,,"<img src= rock_img/I_Basalt_14.jpg style=""width:8cm; height:5.82cm;""><p style='font-size: 30px; color: red;'><strong>Incorrect!</strong></p><p style='font-size: 30px;'><strong>This rock is basalt</strong></p>",0,corr_feedback,2,train,18,,,,,,,,
,,,,,,,,,,,html-button-response,340,2.0.0,729949,5dd9b725954d19948f95327c,2,4,1447,,,,,,,,,"<img src= ""rock_img/I_Diorite_13.jpg"" style=""width:8cm; height:6.29cm;""><p>What type of rock is this?</p>",6,class_response,2,train,19,Peridotite,Diorite,13,FALSE,7,3,,
,,,,,,,,,,,html-button-response,341,2.0.0,730545,5dd9b725954d19948f95327c,2,4,595,,,,,,,,,"<img src= rock_img/I_Diorite_13.jpg style=""width:8cm; height:6.29cm;""><p style='font-size: 30px; color: red;'><strong>Incorrect!</strong></p><p style='font-size: 30px;'><strong>This rock is diorite</strong></p>",0,corr_feedback,2,train,19,,,,,,,,
,,,,,,,,,,,html-button-response,342,2.0.0,731843,5dd9b725954d19948f95327c,2,4,1296,,,,,,,,,"<img src= ""rock_img/I_Andesite_09.jpg"" style=""width:8cm; height:6cm;""><p>What type of rock is this?</p>",3,class_response,2,train,20,Gabbro,Andesite,9,FALSE,4,1,,
,,,,,,,,,,,html-button-response,343,2.0.0,732418,5dd9b725954d19948f95327c,2,4,574,,,,,,,,,"<img src= rock_img/I_Andesite_09.jpg style=""width:8cm; height:6cm;""><p style='font-size: 30px; color: red;'><strong>Incorrect!</strong></p><p style='font-size: 30px;'><strong>This rock is andesite</strong></p>",0,corr_feedback,2,train,20,,,,,,,,
,,,,,,,,,,,html-button-response,344,2.0.0,733684,5dd9b725954d19948f95327c,2,4,1264,,,,,,,,,"<img src= ""rock_img/I_Peridotite_10.jpg"" style=""width:8cm; height:5.390000000000001cm;""><p>What type of rock is this?</p>",5,class_response,2,train,21,Pegmatite,Peridotite,10,FALSE,6,7,,
,,,,,,,,,,,html-button-response,345,2.0.0,734253,5dd9b725954d19948f95327c,2,4,567,,,,,,,,,"<img src= rock_img/I_Peridotite_10.jpg style=""width:8cm; height:5.390000000000001cm;""><p style='font-size: 30px; color: red;'><strong>Incorrect!</strong></p><p style='font-size: 30px;'><strong>This rock is peridotite</strong></p>",0,corr_feedback,2,train,21,,,,,,,,
,,,,,,,,,,,html-button-response,346,2.0.0,738102,5dd9b725954d19948f95327c,2,4,3846,,,,,,,,,"<img src= ""rock_img/I_Gabbro_09.jpg"" style=""width:8cm; height:7.279999999999999cm;""><p>What type of rock is this?</p>",1,class_response,2,train,22,Basalt,Gabbro,9,FALSE,2,4,,
,,,,,,,,,,,html-button-response,347,2.0.0,738747,5dd9b725954d19948f95327c,2,4,644,,,,,,,,,"<img src= rock_img/I_Gabbro_09.jpg style=""width:8cm; height:7.279999999999999cm;""><p style='font-size: 30px; color: red;'><strong>Incorrect!</strong></p><p style='font-size: 30px;'><strong>This rock is gabbro</strong></p>",0,corr_feedback,2,train,22,,,,,,,,
,,,,,,,,,,,html-button-response,348,2.0.0,740827,5dd9b725954d19948f95327c,2,4,2079,,,,,,,,,"<img src= ""rock_img/I_Diorite_09.jpg"" style=""width:8cm; height:5.27cm;""><p>What type of rock is this?</p>",2,class_response,2,train,23,Diorite,Diorite,9,TRUE,3,3,,
,,,,,,,,,,,html-button-response,349,2.0.0,741593,5dd9b725954d19948f95327c,2,4,765,,,,,,,,,"<img src= rock_img/I_Diorite_09.jpg style=""width:8cm; height:5.27cm;""><p style='font-size: 30px; color: green;'><strong>Correct!</strong></p><p style='font-size: 30px;'><strong>This rock is diorite</strong></p>",0,corr_feedback,2,train,23,,,,,,,,
,,,,,,,,,,,html-button-response,350,2.0.0,743361,5dd9b725954d19948f95327c,2,4,1766,,,,,,,,,"<img src= ""rock_img/I_Peridotite_13.jpg"" style=""width:8cm; height:7.58cm;""><p>What type of rock is this?</p>",5,class_response,2,train,24,Pegmatite,Peridotite,13,FALSE,6,7,,
,,,,,,,,,,,html-button-response,351,2.0.0,743925,5dd9b725954d19948f95327c,2,4,563,,,,,,,,,"<img src= rock_img/I_Peridotite_13.jpg style=""width:8cm; height:7.58cm;""><p style='font-size: 30px; color: red;'><strong>Incorrect!</strong></p><p style='font-size: 30px;'><strong>This rock is peridotite</strong></p>",0,corr_feedback,2,train,24,,,,,,,,
,,,,,,,,,,,html-button-response,352,2.0.0,746553,5dd9b725954d19948f95327c,2,4,2627,,,,,,,,,"<img src= ""rock_img/I_Gabbro_15.jpg"" style=""width:8cm; height:6.29cm;""><p>What type of rock is this?</p>",1,class_response,2,train,25,Basalt,Gabbro,15,FALSE,2,4,,
,,,,,,,,,,,html-button-response,353,2.0.0,747165,5dd9b725954d19948f95327c,2,4,610,,,,,,,,,"<img src= rock_img/I_Gabbro_15.jpg style=""width:8cm; height:6.29cm;""><p style='font-size: 30px; color: red;'><strong>Incorrect!</strong></p><p style='font-size: 30px;'><strong>This rock is gabbro</strong></p>",0,corr_feedback,2,train,25,,,,,,,,
,,,,,,,,,,,html-button-response,354,2.0.0,748877,5dd9b725954d19948f95327c,2,4,1710,,,,,,,,,"<img src= ""rock_img/I_Andesite_11.jpg"" style=""width:8cm; height:4.92cm;""><p>What type of rock is this?</p>",1,class_response,2,train,26,Basalt,Andesite,11,FALSE,2,1,,
,,,,,,,,,,,html-button-response,355,2.0.0,749403,5dd9b725954d19948f95327c,2,4,524,,,,,,,,,"<img src= rock_img/I_Andesite_11.jpg style=""width:8cm; height:4.92cm;""><p style='font-size: 30px; color: red;'><strong>Incorrect!</strong></p><p style='font-size: 30px;'><strong>This rock is andesite</strong></p>",0,corr_feedback,2,train,26,,,,,,,,
,,,,,,,,,,,html-button-response,356,2.0.0,750751,5dd9b725954d19948f95327c,2,4,1348,,,,,,,,,"<img src= ""rock_img/I_Peridotite_04.jpg"" style=""width:8cm; height:6.680000000000001cm;""><p>What type of rock is this?</p>",1,class_response,2,train,27,Basalt,Peridotite,4,FALSE,2,7,,
,,,,,,,,,,,html-button-response,357,2.0.0,751263,5dd9b725954d19948f95327c,2,4,511,,,,,,,,,"<img src= rock_img/I_Peridotite_04.jpg style=""width:8cm; height:6.680000000000001cm;""><p style='font-size: 30px; color: red;'><strong>Incorrect!</strong></p><p style='font-size: 30px;'><strong>This rock is peridotite</strong></p>",0,corr_feedback,2,train,27,,,,,,,,
,,,,,,,,,,,html-button-response,358,2.0.0,752484,5dd9b725954d19948f95327c,2,4,1219,,,,,,,,,"<img src= ""rock_img/I_Diorite_09.jpg"" style=""width:8cm; height:5.27cm;""><p>What type of rock is this?</p>",6,class_response,2,train,28,Peridotite,Diorite,9,FALSE,7,3,,
,,,,,,,,,,,html-button-response,359,2.0.0,753059,5dd9b725954d19948f95327c,2,4,574,,,,,,,,,"<img src= rock_img/I_Diorite_09.jpg style=""width:8cm; height:5.27cm;""><p style='font-size: 30px; color: red;'><strong>Incorrect!</strong></p><p style='font-size: 30px;'><strong>This rock is diorite</strong></p>",0,corr_feedback,2,train,28,,,,,,,,
,,,,,,,,,,,html-button-response,360,2.0.0,754207,5dd9b725954d19948f95327c,2,4,1147,,,,,,,,,"<img src= ""rock_img/I_Gabbro_13.jpg"" style=""width:8cm; height:5.08cm;""><p>What type of rock is this?</p>",2,class_response,2,train,29,Diorite,Gabbro,13,FALSE,3,4,,
,,,,,,,,,,,html-button-response,361,2.0.0,754787,5dd9b725954d19948f95327c,2,4,577,,,,,,,,,"<img src= rock_img/I_Gabbro_13.jpg style=""width:8cm; height:5.08cm;""><p style='font-size: 30px; color: red;'><strong>Incorrect!</strong></p><p style='font-size: 30px;'><strong>This rock is gabbro</strong></p>",0,corr_feedback,2,train,29,,,,,,,,
,,,,,,,,,,,html-button-response,362,2.0.0,756410,5dd9b725954d19948f95327c,2,4,1621,,,,,,,,,"<img src= ""rock_img/I_Pegmatite_08.jpg"" style=""width:8cm; height:7.68cm;""><p>What type of rock is this?</p>",6,class_response,2,train,30,Peridotite,Pegmatite,8,FALSE,7,6,,
,,,,,,,,,,,html-button-response,363,2.0.0,757311,5dd9b725954d19948f95327c,2,4,900,,,,,,,,,"<img src= rock_img/I_Pegmatite_08.jpg style=""width:8cm; height:7.68cm;""><p style='font-size: 30px; color: red;'><strong>Incorrect!</strong></p><p style='font-size: 30px;'><strong>This rock is pegmatite</strong></p>",0,corr_feedback,2,train,30,,,,,,,,
,,,,,,,,,,,html-button-response,364,2.0.0,759490,5dd9b725954d19948f95327c,2,4,2176,,,,,,,,,"<img src= ""rock_img/I_Basalt_05.jpg"" style=""width:8cm; height:8.18cm;""><p>What type of rock is this?</p>",1,class_response,2,train,31,Basalt,Basalt,5,TRUE,2,2,,
,,,,,,,,,,,html-button-response,365,2.0.0,760559,5dd9b725954d19948f95327c,2,4,1068,,,,,,,,,"<img src= rock_img/I_Basalt_05.jpg style=""width:8cm; height:8.18cm;""><p style='font-size: 30px; color: green;'><strong>Correct!</strong></p><p style='font-size: 30px;'><strong>This rock is basalt</strong></p>",0,corr_feedback,2,train,31,,,,,,,,
,,,,,,,,,,,html-button-response,366,2.0.0,762561,5dd9b725954d19948f95327c,2,4,2001,,,,,,,,,"<img src= ""rock_img/I_Pegmatite_11.jpg"" style=""width:8cm; height:8.14cm;""><p>What type of rock is this?</p>",5,class_response,2,train,32,Pegmatite,Pegmatite,11,TRUE,6,6,,
,,,,,,,,,,,html-button-response,367,2.0.0,763361,5dd9b725954d19948f95327c,2,4,799,,,,,,,,,"<img src= rock_img/I_Pegmatite_11.jpg style=""width:8cm; height:8.14cm;""><p style='font-size: 30px; color: green;'><strong>Correct!</strong></p><p style='font-size: 30px;'><strong>This rock is pegmatite</strong></p>",0,corr_feedback,2,train,32,,,,,,,,
,,,,,,,,,,,html-button-response,368,2.0.0,764623,5dd9b725954d19948f95327c,2,4,1260,,,,,,,,,"<img src= ""rock_img/I_Pegmatite_03.jpg"" style=""width:8cm; height:5.239999999999999cm;""><p>What type of rock is this?</p>",5,class_response,2,train,33,Pegmatite,Pegmatite,3,TRUE,6,6,,
,,,,,,,,,,,html-button-response,369,2.0.0,765328,5dd9b725954d19948f95327c,2,4,704,,,,,,,,,"<img src= rock_img/I_Pegmatite_03.jpg style=""width:8cm; height:5.239999999999999cm;""><p style='font-size: 30px; color: green;'><strong>Correct!</strong></p><p style='font-size: 30px;'><strong>This rock is pegmatite</strong></p>",0,corr_feedback,2,train,33,,,,,,,,
,,,,,,,,,,,html-button-response,370,2.0.0,770329,5dd9b725954d19948f95327c,2,4,4999,,,,,,,,,"<img src= ""rock_img/I_Andesite_16.jpg"" style=""width:8cm; height:6.010000000000001cm;""><p>What type of rock is this?</p>",2,class_response,2,train,34,Diorite,Andesite,16,FALSE,3,1,,
,,,,,,,,,,,html-button-response,371,2.0.0,770990,5dd9b725954d19948f95327c,2,4,660,,,,,,,,,"<img src= rock_img/I_Andesite_16.jpg style=""width:8cm; height:6.010000000000001cm;""><p style='font-size: 30px; color: red;'><strong>Incorrect!</strong></p><p style='font-size: 30px;'><strong>This rock is andesite</strong></p>",0,corr_feedback,2,train,34,,,,,,,,
,,,,,,,,,,,html-button-response,372,2.0.0,772285,5dd9b725954d19948f95327c,2,4,1293,,,,,,,,,"<img src= ""rock_img/I_Basalt_05.jpg"" style=""width:8cm; height:8.18cm;""><p>What type of rock is this?</p>",1,class_response,2,train,35,Basalt,Basalt,5,TRUE,2,2,,
,,,,,,,,,,,html-button-response,373,2.0.0,773340,5dd9b725954d19948f95327c,2,4,1053,,,,,,,,,"<img src= rock_img/I_Basalt_05.jpg style=""width:8cm; height:8.18cm;""><p style='font-size: 30px; color: green;'><strong>Correct!</strong></p><p style='font-size: 30px;'><strong>This rock is basalt</strong></p>",0,corr_feedback,2,train,35,,,,,,,,
,,,,,,,,,,,html-button-response,374,2.0.0,775479,5dd9b725954d19948f95327c,2,4,2139,,,,,,,,,"<img src= ""rock_img/I_Andesite_04.jpg"" style=""width:8cm; height:5.96cm;""><p>What type of rock is this?</p>",0,class_response,2,train,36,Andesite,Andesite,4,TRUE,1,1,,
,,,,,,,,,,,html-button-response,375,2.0.0,776426,5dd9b725954d19948f95327c,2,4,946,,,,,,,,,"<img src= rock_img/I_Andesite_04.jpg style=""width:8cm; height:5.96cm;""><p style='font-size: 30px; color: green;'><strong>Correct!</strong></p><p style='font-size: 30px;'><strong>This rock is andesite</strong></p>",0,corr_feedback,2,train,36,,,,,,,,
,,,,,,,,,,,html-button-response,376,2.0.0,778263,5dd9b725954d19948f95327c,2,4,1834,,,,,,,,,"<img src= ""rock_img/I_Gabbro_11.jpg"" style=""width:8cm; height:6.2cm;""><p>What type of rock is this?</p>",2,class_response,2,train,37,Diorite,Gabbro,11,FALSE,3,4,,
,,,,,,,,,,,html-button-response,377,2.0.0,778895,5dd9b725954d19948f95327c,2,4,631,,,,,,,,,"<img src= rock_img/I_Gabbro_11.jpg style=""width:8cm; height:6.2cm;""><p style='font-size: 30px; color: red;'><strong>Incorrect!</strong></p><p style='font-size: 30px;'><strong>This rock is gabbro</strong></p>",0,corr_feedback,2,train,37,,,,,,,,
,,,,,,,,,,,html-button-response,378,2.0.0,780245,5dd9b725954d19948f95327c,2,4,1349,,,,,,,,,"<img src= ""rock_img/I_Basalt_01.jpg"" style=""width:8cm; height:7.880000000000001cm;""><p>What type of rock is this?</p>",3,class_response,2,train,38,Gabbro,Basalt,1,FALSE,4,2,,
,,,,,,,,,,,html-button-response,379,2.0.0,780962,5dd9b725954d19948f95327c,2,4,716,,,,,,,,,"<img src= rock_img/I_Basalt_01.jpg style=""width:8cm; height:7.880000000000001cm;""><p style='font-size: 30px; color: red;'><strong>Incorrect!</strong></p><p style='font-size: 30px;'><strong>This rock is basalt</strong></p>",0,corr_feedback,2,train,38,,,,,,,,
,,,,,,,,,,,html-button-response,380,2.0.0,783275,5dd9b725954d19948f95327c,2,4,2310,,,,,,,,,"<img src= ""rock_img/I_Diorite_08.jpg"" style=""width:8cm; height:6.37cm;""><p>What type of rock is this?</p>",5,class_response,2,train,39,Pegmatite,Diorite,8,FALSE,6,3,,
,,,,,,,,,,,html-button-response,381,2.0.0,783931,5dd9b725954d19948f95327c,2,4,655,,,,,,,,,"<img src= rock_img/I_Diorite_08.jpg style=""width:8cm; height:6.37cm;""><p style='font-size: 30px; color: red;'><strong>Incorrect!</strong></p><p style='font-size: 30px;'><strong>This rock is diorite</strong></p>",0,corr_feedback,2,train,39,,,,,,,,
,,,,,,,,,,,html-button-response,382,2.0.0,786037,5dd9b725954d19948f95327c,2,4,2103,,,,,,,,,"<img src= ""rock_img/I_Gabbro_13.jpg"" style=""width:8cm; height:5.08cm;""><p>What type of rock is this?</p>",6,class_response,2,train,40,Peridotite,Gabbro,13,FALSE,7,4,,
,,,,,,,,,,,html-button-response,383,2.0.0,786653,5dd9b725954d19948f95327c,2,4,615,,,,,,,,,"<img src= rock_img/I_Gabbro_13.jpg style=""width:8cm; height:5.08cm;""><p style='font-size: 30px; color: red;'><strong>Incorrect!</strong></p><p style='font-size: 30px;'><strong>This rock is gabbro</strong></p>",0,corr_feedback,2,train,40,,,,,,,,
,,,,,,,,,,,html-button-response,384,2.0.0,788033,5dd9b725954d19948f95327c,2,4,1378,,,,,,,,,"<img src= ""rock_img/I_Diorite_10.jpg"" style=""width:8cm; height:5.949999999999999cm;""><p>What type of rock is this?</p>",6,class_response,2,train,41,Peridotite,Diorite,10,FALSE,7,3,,
,,,,,,,,,,,html-button-response,385,2.0.0,788585,5dd9b725954d19948f95327c,2,4,552,,,,,,,,,"<img src= rock_img/I_Diorite_10.jpg style=""width:8cm; height:5.949999999999999cm;""><p style='font-size: 30px; color: red;'><strong>Incorrect!</strong></p><p style='font-size: 30px;'><strong>This rock is diorite</strong></p>",0,corr_feedback,2,train,41,,,,,,,,
,,,,,,,,,,,html-button-response,386,2.0.0,789895,5dd9b725954d19948f95327c,2,4,1309,,,,,,,,,"<img src= ""rock_img/I_Pegmatite_06.jpg"" style=""width:8cm; height:5.17cm;""><p>What type of rock is this?</p>",5,class_response,2,train,42,Pegmatite,Pegmatite,6,TRUE,6,6,,
