"width","height","webaudio","browser","browser_version","mobile","os","fullscreen","vsync_rate","webcam","microphone","trial_type","trial_index","plugin_version","time_elapsed","subjID","condition","stimID","rt","url","success","value","timeout","failed_images","failed_audio","failed_video","view_history","stimulus","response","trialType","cycle","phase","trial","resp","cat","token","corr","resp_num","cat_num","time_fb1","time_fb2"
"1439","754","true","chrome","131.0.0","false","Mac OS","true","60.93","true","true","browser-check","0","2.0.0","1007","6228f5900f303f54ca6ab186","2","42","","","","","","","","","","","","","","","","","","","","","","",""
"","","","","","","","","","","","external-html","1","2.0.0","239903","6228f5900f303f54ca6ab186","2","42","238822","consent_form.html","","","","","","","","","","","","","","","","","","","","",""
"","","","","","","","","","","","fullscreen","2","2.0.0","242976","6228f5900f303f54ca6ab186","2","42","2068","","true","","","","","","","","","","","","","","","","","","","",""
"","","","","","","","","","","","call-function","3","2.0.0","242979","6228f5900f303f54ca6ab186","2","42","","","","{}","","","","","","","","","","","","","","","","","","",""
"","","","","","","","","","","","preload","4","2.0.0","244595","6228f5900f303f54ca6ab186","2","42","","","true","","false","[]","[]","[]","","","","","","","","","","","","","","",""
"","","","","","","","","","","","instructions","5","2.0.0","311079","6228f5900f303f54ca6ab186","2","42","66483","","","","","","","","[{""page_index"":0,""viewing_time"":14966},{""page_index"":1,""viewing_time"":26453},{""page_index"":2,""viewing_time"":25064}]","","","","","","","","","","","","","",""
"","","","","","","","","","","","html-button-response","6","2.0.0","314518","6228f5900f303f54ca6ab186","2","42","3437","","","","","","","","","","0","start_test","","","","","","","","","","",""
"","","","","","","","","","","","html-button-response","7","2.0.0","322331","6228f5900f303f54ca6ab186","2","42","7812","","","","","","","","","<img src= ""rock_img/I_Peridotite_16.jpg"" style=""width:8cm; height:6.989999999999999cm;""><p>What type of rock is this?</p>","2","class_response","0","test","1","Diorite","Peridotite","16","false","3","7","",""
"","","","","","","","","","","","html-keyboard-response","8","2.0.0","322833","6228f5900f303f54ca6ab186","2","42","null","","","","","","","","","<p style='font-size: 30px;'><strong>Okay</strong></p>","null","neutral_feedback","0","test","1","","","","","","","",""
"","","","","","","","","","","","html-button-response","9","2.0.0","332195","6228f5900f303f54ca6ab186","2","42","9359","","","","","","","","","<img src= ""rock_img/I_Diorite_02.jpg"" style=""width:8cm; height:6.27cm;""><p>What type of rock is this?</p>","5","class_response","0","test","2","Pegmatite","Diorite","02","false","6","3","",""
"","","","","","","","","","","","html-keyboard-response","10","2.0.0","332698","6228f5900f303f54ca6ab186","2","42","null","","","","","","","","","<p style='font-size: 30px;'><strong>Okay</strong></p>","null","neutral_feedback","0","test","2","","","","","","","",""
"","","","","","","","","","","","html-button-response","11","2.0.0","337766","6228f5900f303f54ca6ab186","2","42","5064","","","","","","","","","<img src= ""rock_img/I_Obsidian_05.jpg"" style=""width:8cm; height:6.33cm;""><p>What type of rock is this?</p>","4","class_response","0","test","3","Obsidian","Obsidian","05","true","5","5","",""
"","","","","","","","","","","","html-keyboard-response","12","2.0.0","338269","6228f5900f303f54ca6ab186","2","42","null","","","","","","","","","<p style='font-size: 30px;'><strong>Okay</strong></p>","null","neutral_feedback","0","test","3","","","","","","","",""
"","","","","","","","","","","","html-button-response","13","2.0.0","344885","6228f5900f303f54ca6ab186","2","42","6614","","","","","","","","","<img src= ""rock_img/I_Andesite_03.jpg"" style=""width:8cm; height:5.73cm;""><p>What type of rock is this?</p>","0","class_response","0","test","4","Andesite","Andesite","03","true","1","1","",""
"","","","","","","","","","","","html-keyboard-response","14","2.0.0","345387","6228f5900f303f54ca6ab186","2","42","null","","","","","","","","","<p style='font-size: 30px;'><strong>Okay</strong></p>","null","neutral_feedback","0","test","4","","","","","","","",""
"","","","","","","","","","","","html-button-response","15","2.0.0","349502","6228f5900f303f54ca6ab186","2","42","4113","","","","","","","","","<img src= ""rock_img/I_Andesite_09.jpg"" style=""width:8cm; height:6cm;""><p>What type of rock is this?</p>","7","class_response","0","test","5","Pumice","Andesite","09","false","8","1","",""
"","","","","","","","","","","","html-keyboard-response","16","2.0.0","350005","6228f5900f303f54ca6ab186","2","42","null","","","","","","","","","<p style='font-size: 30px;'><strong>Okay</strong></p>","null","neutral_feedback","0","test","5","","","","","","","",""
"","","","","","","","","","","","html-button-response","17","2.0.0","394233","6228f5900f303f54ca6ab186","2","42","44227","","","","","","","","","<img src= ""rock_img/I_Basalt_06.jpg"" style=""width:8cm; height:7.06cm;""><p>What type of rock is this?</p>","2","class_response","0","test","6","Diorite","Basalt","06","false","3","2","",""
"","","","","","","","","","","","html-keyboard-response","18","2.0.0","394735","6228f5900f303f54ca6ab186","2","42","null","","","","","","","","","<p style='font-size: 30px;'><strong>Okay</strong></p>","null","neutral_feedback","0","test","6","","","","","","","",""
"","","","","","","","","","","","html-button-response","19","2.0.0","398186","6228f5900f303f54ca6ab186","2","42","3448","","","","","","","","","<img src= ""rock_img/I_Andesite_02.jpg"" style=""width:8cm; height:8.5cm;""><p>What type of rock is this?</p>","7","class_response","0","test","7","Pumice","Andesite","02","false","8","1","",""
"","","","","","","","","","","","html-keyboard-response","20","2.0.0","398689","6228f5900f303f54ca6ab186","2","42","null","","","","","","","","","<p style='font-size: 30px;'><strong>Okay</strong></p>","null","neutral_feedback","0","test","7","","","","","","","",""
"","","","","","","","","","","","html-button-response","21","2.0.0","401256","6228f5900f303f54ca6ab186","2","42","2565","","","","","","","","","<img src= ""rock_img/I_Pegmatite_11.jpg"" style=""width:8cm; height:8.14cm;""><p>What type of rock is this?</p>","4","class_response","0","test","8","Obsidian","Pegmatite","11","false","5","6","",""
"","","","","","","","","","","","html-keyboard-response","22","2.0.0","401758","6228f5900f303f54ca6ab186","2","42","null","","","","","","","","","<p style='font-size: 30px;'><strong>Okay</strong></p>","null","neutral_feedback","0","test","8","","","","","","","",""
"","","","","","","","","","","","html-button-response","23","2.0.0","405650","6228f5900f303f54ca6ab186","2","42","3889","","","","","","","","","<img src= ""rock_img/I_Gabbro_14.jpg"" style=""width:8cm; height:8.48cm;""><p>What type of rock is this?</p>","5","class_response","0","test","9","Pegmatite","Gabbro","14","false","6","4","",""
"","","","","","","","","","","","html-keyboard-response","24","2.0.0","406152","6228f5900f303f54ca6ab186","2","42","null","","","","","","","","","<p style='font-size: 30px;'><strong>Okay</strong></p>","null","neutral_feedback","0","test","9","","","","","","","",""
"","","","","","","","","","","","html-button-response","25","2.0.0","413919","6228f5900f303f54ca6ab186","2","42","7765","","","","","","","","","<img src= ""rock_img/I_Pegmatite_16.jpg"" style=""width:8cm; height:5.8cm;""><p>What type of rock is this?</p>","2","class_response","0","test","10","Diorite","Pegmatite","16","false","3","6","",""
"","","","","","","","","","","","html-keyboard-response","26","2.0.0","414422","6228f5900f303f54ca6ab186","2","42","null","","","","","","","","","<p style='font-size: 30px;'><strong>Okay</strong></p>","null","neutral_feedback","0","test","10","","","","","","","",""
"","","","","","","","","","","","html-button-response","27","2.0.0","418614","6228f5900f303f54ca6ab186","2","42","4190","","","","","","","","","<img src= ""rock_img/I_Diorite_06.jpg"" style=""width:8cm; height:6.03cm;""><p>What type of rock is this?</p>","3","class_response","0","test","11","Gabbro","Diorite","06","false","4","3","",""
"","","","","","","","","","","","html-keyboard-response","28","2.0.0","419116","6228f5900f303f54ca6ab186","2","42","null","","","","","","","","","<p style='font-size: 30px;'><strong>Okay</strong></p>","null","neutral_feedback","0","test","11","","","","","","","",""
"","","","","","","","","","","","html-button-response","29","2.0.0","421826","6228f5900f303f54ca6ab186","2","42","2708","","","","","","","","","<img src= ""rock_img/I_Pegmatite_05.jpg"" style=""width:8cm; height:7.300000000000001cm;""><p>What type of rock is this?</p>","4","class_response","0","test","12","Obsidian","Pegmatite","05","false","5","6","",""
"","","","","","","","","","","","html-keyboard-response","30","2.0.0","422328","6228f5900f303f54ca6ab186","2","42","null","","","","","","","","","<p style='font-size: 30px;'><strong>Okay</strong></p>","null","neutral_feedback","0","test","12","","","","","","","",""
"","","","","","","","","","","","html-button-response","31","2.0.0","428560","6228f5900f303f54ca6ab186","2","42","6230","","","","","","","","","<img src= ""rock_img/I_Gabbro_05.jpg"" style=""width:8cm; height:6cm;""><p>What type of rock is this?</p>","0","class_response","0","test","13","Andesite","Gabbro","05","false","1","4","",""
"","","","","","","","","","","","html-keyboard-response","32","2.0.0","429061","6228f5900f303f54ca6ab186","2","42","null","","","","","","","","","<p style='font-size: 30px;'><strong>Okay</strong></p>","null","neutral_feedback","0","test","13","","","","","","","",""
"","","","","","","","","","","","html-button-response","33","2.0.0","434646","6228f5900f303f54ca6ab186","2","42","5582","","","","","","","","","<img src= ""rock_img/I_Gabbro_09.jpg"" style=""width:8cm; height:7.279999999999999cm;""><p>What type of rock is this?</p>","1","class_response","0","test","14","Basalt","Gabbro","09","false","2","4","",""
"","","","","","","","","","","","html-keyboard-response","34","2.0.0","435148","6228f5900f303f54ca6ab186","2","42","null","","","","","","","","","<p style='font-size: 30px;'><strong>Okay</strong></p>","null","neutral_feedback","0","test","14","","","","","","","",""
"","","","","","","","","","","","html-button-response","35","2.0.0","442278","6228f5900f303f54ca6ab186","2","42","7128","","","","","","","","","<img src= ""rock_img/I_Peridotite_04.jpg"" style=""width:8cm; height:6.680000000000001cm;""><p>What type of rock is this?</p>","5","class_response","0","test","15","Pegmatite","Peridotite","04","false","6","7","",""
"","","","","","","","","","","","html-keyboard-response","36","2.0.0","442779","6228f5900f303f54ca6ab186","2","42","null","","","","","","","","","<p style='font-size: 30px;'><strong>Okay</strong></p>","null","neutral_feedback","0","test","15","","","","","","","",""
"","","","","","","","","","","","html-button-response","37","2.0.0","447143","6228f5900f303f54ca6ab186","2","42","4361","","","","","","","","","<img src= ""rock_img/I_Basalt_01.jpg"" style=""width:8cm; height:7.880000000000001cm;""><p>What type of rock is this?</p>","2","class_response","0","test","16","Diorite","Basalt","01","false","3","2","",""
"","","","","","","","","","","","html-keyboard-response","38","2.0.0","447645","6228f5900f303f54ca6ab186","2","42","null","","","","","","","","","<p style='font-size: 30px;'><strong>Okay</strong></p>","null","neutral_feedback","0","test","16","","","","","","","",""
"","","","","","","","","","","","html-button-response","39","2.0.0","451867","6228f5900f303f54ca6ab186","2","42","4220","","","","","","","","","<img src= ""rock_img/I_Diorite_16.jpg"" style=""width:8cm; height:6.74cm;""><p>What type of rock is this?</p>","6","class_response","0","test","17","Peridotite","Diorite","16","false","7","3","",""
"","","","","","","","","","","","html-keyboard-response","40","2.0.0","452368","6228f5900f303f54ca6ab186","2","42","null","","","","","","","","","<p style='font-size: 30px;'><strong>Okay</strong></p>","null","neutral_feedback","0","test","17","","","","","","","",""
"","","","","","","","","","","","html-button-response","41","2.0.0","455912","6228f5900f303f54ca6ab186","2","42","3543","","","","","","","","","<img src= ""rock_img/I_Pegmatite_13.jpg"" style=""width:8cm; height:4.95cm;""><p>What type of rock is this?</p>","3","class_response","0","test","18","Gabbro","Pegmatite","13","false","4","6","",""
"","","","","","","","","","","","html-keyboard-response","42","2.0.0","456413","6228f5900f303f54ca6ab186","2","42","null","","","","","","","","","<p style='font-size: 30px;'><strong>Okay</strong></p>","null","neutral_feedback","0","test","18","","","","","","","",""
"","","","","","","","","","","","html-button-response","43","2.0.0","461201","6228f5900f303f54ca6ab186","2","42","4785","","","","","","","","","<img src= ""rock_img/I_Obsidian_14.jpg"" style=""width:8cm; height:7.64cm;""><p>What type of rock is this?</p>","0","class_response","0","test","19","Andesite","Obsidian","14","false","1","5","",""
"","","","","","","","","","","","html-keyboard-response","44","2.0.0","461702","6228f5900f303f54ca6ab186","2","42","null","","","","","","","","","<p style='font-size: 30px;'><strong>Okay</strong></p>","null","neutral_feedback","0","test","19","","","","","","","",""
"","","","","","","","","","","","html-button-response","45","2.0.0","469238","6228f5900f303f54ca6ab186","2","42","7534","","","","","","","","","<img src= ""rock_img/I_Pegmatite_06.jpg"" style=""width:8cm; height:5.17cm;""><p>What type of rock is this?</p>","5","class_response","0","test","20","Pegmatite","Pegmatite","06","true","6","6","",""
"","","","","","","","","","","","html-keyboard-response","46","2.0.0","469740","6228f5900f303f54ca6ab186","2","42","null","","","","","","","","","<p style='font-size: 30px;'><strong>Okay</strong></p>","null","neutral_feedback","0","test","20","","","","","","","",""
"","","","","","","","","","","","html-button-response","47","2.0.0","471326","6228f5900f303f54ca6ab186","2","42","1584","","","","","","","","","<img src= ""rock_img/I_Obsidian_02.jpg"" style=""width:8cm; height:7.51cm;""><p>What type of rock is this?</p>","4","class_response","0","test","21","Obsidian","Obsidian","02","true","5","5","",""
"","","","","","","","","","","","html-keyboard-response","48","2.0.0","471828","6228f5900f303f54ca6ab186","2","42","null","","","","","","","","","<p style='font-size: 30px;'><strong>Okay</strong></p>","null","neutral_feedback","0","test","21","","","","","","","",""
"","","","","","","","","","","","html-button-response","49","2.0.0","475312","6228f5900f303f54ca6ab186","2","42","3481","","","","","","","","","<img src= ""rock_img/I_Andesite_04.jpg"" style=""width:8cm; height:5.96cm;""><p>What type of rock is this?</p>","1","class_response","0","test","22","Basalt","Andesite","04","false","2","1","",""
"","","","","","","","","","","","html-keyboard-response","50","2.0.0","475813","6228f5900f303f54ca6ab186","2","42","null","","","","","","","","","<p style='font-size: 30px;'><strong>Okay</strong></p>","null","neutral_feedback","0","test","22","","","","","","","",""
"","","","","","","","","","","","html-button-response","51","2.0.0","481877","6228f5900f303f54ca6ab186","2","42","6063","","","","","","","","","<img src= ""rock_img/I_Basalt_10.jpg"" style=""width:8cm; height:5.85cm;""><p>What type of rock is this?</p>","6","class_response","0","test","23","Peridotite","Basalt","10","false","7","2","",""
"","","","","","","","","","","","html-keyboard-response","52","2.0.0","482380","6228f5900f303f54ca6ab186","2","42","null","","","","","","","","","<p style='font-size: 30px;'><strong>Okay</strong></p>","null","neutral_feedback","0","test","23","","","","","","","",""
"","","","","","","","","","","","html-button-response","53","2.0.0","486697","6228f5900f303f54ca6ab186","2","42","4315","","","","","","","","","<img src= ""rock_img/I_Gabbro_08.jpg"" style=""width:8cm; height:5.15cm;""><p>What type of rock is this?</p>","1","class_response","0","test","24","Basalt","Gabbro","08","false","2","4","",""
"","","","","","","","","","","","html-keyboard-response","54","2.0.0","487200","6228f5900f303f54ca6ab186","2","42","null","","","","","","","","","<p style='font-size: 30px;'><strong>Okay</strong></p>","null","neutral_feedback","0","test","24","","","","","","","",""
"","","","","","","","","","","","html-button-response","55","2.0.0","493134","6228f5900f303f54ca6ab186","2","42","5932","","","","","","","","","<img src= ""rock_img/I_Peridotite_12.jpg"" style=""width:8cm; height:4.54cm;""><p>What type of rock is this?</p>","2","class_response","0","test","25","Diorite","Peridotite","12","false","3","7","",""
"","","","","","","","","","","","html-keyboard-response","56","2.0.0","493635","6228f5900f303f54ca6ab186","2","42","null","","","","","","","","","<p style='font-size: 30px;'><strong>Okay</strong></p>","null","neutral_feedback","0","test","25","","","","","","","",""
"","","","","","","","","","","","html-button-response","57","2.0.0","498123","6228f5900f303f54ca6ab186","2","42","4485","","","","","","","","","<img src= ""rock_img/I_Basalt_04.jpg"" style=""width:8cm; height:7.53cm;""><p>What type of rock is this?</p>","5","class_response","0","test","26","Pegmatite","Basalt","04","false","6","2","",""
"","","","","","","","","","","","html-keyboard-response","58","2.0.0","498626","6228f5900f303f54ca6ab186","2","42","null","","","","","","","","","<p style='font-size: 30px;'><strong>Okay</strong></p>","null","neutral_feedback","0","test","26","","","","","","","",""
"","","","","","","","","","","","html-button-response","59","2.0.0","503358","6228f5900f303f54ca6ab186","2","42","4730","","","","","","","","","<img src= ""rock_img/I_Gabbro_16.jpg"" style=""width:8cm; height:6.44cm;""><p>What type of rock is this?</p>","0","class_response","0","test","27","Andesite","Gabbro","16","false","1","4","",""
"","","","","","","","","","","","html-keyboard-response","60","2.0.0","503860","6228f5900f303f54ca6ab186","2","42","null","","","","","","","","","<p style='font-size: 30px;'><strong>Okay</strong></p>","null","neutral_feedback","0","test","27","","","","","","","",""
"","","","","","","","","","","","html-button-response","61","2.0.0","505535","6228f5900f303f54ca6ab186","2","42","1673","","","","","","","","","<img src= ""rock_img/I_Pumice_05.jpg"" style=""width:8cm; height:7.25cm;""><p>What type of rock is this?</p>","7","class_response","0","test","28","Pumice","Pumice","05","true","8","8","",""
"","","","","","","","","","","","html-keyboard-response","62","2.0.0","506036","6228f5900f303f54ca6ab186","2","42","null","","","","","","","","","<p style='font-size: 30px;'><strong>Okay</strong></p>","null","neutral_feedback","0","test","28","","","","","","","",""
"","","","","","","","","","","","html-button-response","63","2.0.0","508431","6228f5900f303f54ca6ab186","2","42","2392","","","","","","","","","<img src= ""rock_img/I_Gabbro_03.jpg"" style=""width:8cm; height:8.52cm;""><p>What type of rock is this?</p>","6","class_response","0","test","29","Peridotite","Gabbro","03","false","7","4","",""
"","","","","","","","","","","","html-keyboard-response","64","2.0.0","508932","6228f5900f303f54ca6ab186","2","42","null","","","","","","","","","<p style='font-size: 30px;'><strong>Okay</strong></p>","null","neutral_feedback","0","test","29","","","","","","","",""
"","","","","","","","","","","","html-button-response","65","2.0.0","519626","6228f5900f303f54ca6ab186","2","42","10692","","","","","","","","","<img src= ""rock_img/I_Pegmatite_10.jpg"" style=""width:8cm; height:4.16cm;""><p>What type of rock is this?</p>","3","class_response","0","test","30","Gabbro","Pegmatite","10","false","4","6","",""
"","","","","","","","","","","","html-keyboard-response","66","2.0.0","520127","6228f5900f303f54ca6ab186","2","42","null","","","","","","","","","<p style='font-size: 30px;'><strong>Okay</strong></p>","null","neutral_feedback","0","test","30","","","","","","","",""
"","","","","","","","","","","","html-button-response","67","2.0.0","523665","6228f5900f303f54ca6ab186","2","42","3536","","","","","","","","","<img src= ""rock_img/I_Basalt_14.jpg"" style=""width:8cm; height:5.82cm;""><p>What type of rock is this?</p>","2","class_response","0","test","31","Diorite","Basalt","14","false","3","2","",""
"","","","","","","","","","","","html-keyboard-response","68","2.0.0","524167","6228f5900f303f54ca6ab186","2","42","null","","","","","","","","","<p style='font-size: 30px;'><strong>Okay</strong></p>","null","neutral_feedback","0","test","31","","","","","","","",""
"","","","","","","","","","","","html-button-response","69","2.0.0","527724","6228f5900f303f54ca6ab186","2","42","3556","","","","","","","","","<img src= ""rock_img/I_Peridotite_13.jpg"" style=""width:8cm; height:7.58cm;""><p>What type of rock is this?</p>","7","class_response","0","test","32","Pumice","Peridotite","13","false","8","7","",""
"","","","","","","","","","","","html-keyboard-response","70","2.0.0","528226","6228f5900f303f54ca6ab186","2","42","null","","","","","","","","","<p style='font-size: 30px;'><strong>Okay</strong></p>","null","neutral_feedback","0","test","32","","","","","","","",""
"","","","","","","","","","","","html-button-response","71","2.0.0","532209","6228f5900f303f54ca6ab186","2","42","3981","","","","","","","","","<img src= ""rock_img/I_Andesite_06.jpg"" style=""width:8cm; height:6.840000000000001cm;""><p>What type of rock is this?</p>","1","class_response","0","test","33","Basalt","Andesite","06","false","2","1","",""
"","","","","","","","","","","","html-keyboard-response","72","2.0.0","532711","6228f5900f303f54ca6ab186","2","42","null","","","","","","","","","<p style='font-size: 30px;'><strong>Okay</strong></p>","null","neutral_feedback","0","test","33","","","","","","","",""
"","","","","","","","","","","","html-button-response","73","2.0.0","535895","6228f5900f303f54ca6ab186","2","42","3183","","","","","","","","","<img src= ""rock_img/I_Basalt_02.jpg"" style=""width:8cm; height:6.45cm;""><p>What type of rock is this?</p>","0","class_response","0","test","34","Andesite","Basalt","02","false","1","2","",""
"","","","","","","","","","","","html-keyboard-response","74","2.0.0","536396","6228f5900f303f54ca6ab186","2","42","null","","","","","","","","","<p style='font-size: 30px;'><strong>Okay</strong></p>","null","neutral_feedback","0","test","34","","","","","","","",""
"","","","","","","","","","","","html-button-response","75","2.0.0","543260","6228f5900f303f54ca6ab186","2","42","6862","","","","","","","","","<img src= ""rock_img/I_Peridotite_07.jpg"" style=""width:8cm; height:4.83cm;""><p>What type of rock is this?</p>","7","class_response","0","test","35","Pumice","Peridotite","07","false","8","7","",""
"","","","","","","","","","","","html-keyboard-response","76","2.0.0","543762","6228f5900f303f54ca6ab186","2","42","null","","","","","","","","","<p style='font-size: 30px;'><strong>Okay</strong></p>","null","neutral_feedback","0","test","35","","","","","","","",""
"","","","","","","","","","","","html-button-response","77","2.0.0","546762","6228f5900f303f54ca6ab186","2","42","2998","","","","","","","","","<img src= ""rock_img/I_Diorite_12.jpg"" style=""width:8cm; height:4.88cm;""><p>What type of rock is this?</p>","2","class_response","0","test","36","Diorite","Diorite","12","true","3","3","",""
"","","","","","","","","","","","html-keyboard-response","78","2.0.0","547263","6228f5900f303f54ca6ab186","2","42","null","","","","","","","","","<p style='font-size: 30px;'><strong>Okay</strong></p>","null","neutral_feedback","0","test","36","","","","","","","",""
"","","","","","","","","","","","html-button-response","79","2.0.0","548722","6228f5900f303f54ca6ab186","2","42","1456","","","","","","","","","<img src= ""rock_img/I_Pumice_04.jpg"" style=""width:8cm; height:6.819999999999999cm;""><p>What type of rock is this?</p>","7","class_response","0","test","37","Pumice","Pumice","04","true","8","8","",""
"","","","","","","","","","","","html-keyboard-response","80","2.0.0","549223","6228f5900f303f54ca6ab186","2","42","null","","","","","","","","","<p style='font-size: 30px;'><strong>Okay</strong></p>","null","neutral_feedback","0","test","37","","","","","","","",""
"","","","","","","","","","","","html-button-response","81","2.0.0","551735","6228f5900f303f54ca6ab186","2","42","2509","","","","","","","","","<img src= ""rock_img/I_Peridotite_02.jpg"" style=""width:8cm; height:5.859999999999999cm;""><p>What type of rock is this?</p>","5","class_response","0","test","38","Pegmatite","Peridotite","02","false","6","7","",""
"","","","","","","","","","","","html-keyboard-response","82","2.0.0","552236","6228f5900f303f54ca6ab186","2","42","null","","","","","","","","","<p style='font-size: 30px;'><strong>Okay</strong></p>","null","neutral_feedback","0","test","38","","","","","","","",""
"","","","","","","","","","","","html-button-response","83","2.0.0","553661","6228f5900f303f54ca6ab186","2","42","1423","","","","","","","","","<img src= ""rock_img/I_Pumice_03.jpg"" style=""width:8cm; height:6.64cm;""><p>What type of rock is this?</p>","7","class_response","0","test","39","Pumice","Pumice","03","true","8","8","",""
"","","","","","","","","","","","html-keyboard-response","84","2.0.0","554163","6228f5900f303f54ca6ab186","2","42","null","","","","","","","","","<p style='font-size: 30px;'><strong>Okay</strong></p>","null","neutral_feedback","0","test","39","","","","","","","",""
"","","","","","","","","","","","html-button-response","85","2.0.0","555650","6228f5900f303f54ca6ab186","2","42","1485","","","","","","","","","<img src= ""rock_img/I_Obsidian_11.jpg"" style=""width:8cm; height:6.05cm;""><p>What type of rock is this?</p>","4","class_response","0","test","40","Obsidian","Obsidian","11","true","5","5","",""
"","","","","","","","","","","","html-keyboard-response","86","2.0.0","556151","6228f5900f303f54ca6ab186","2","42","null","","","","","","","","","<p style='font-size: 30px;'><strong>Okay</strong></p>","null","neutral_feedback","0","test","40","","","","","","","",""
"","","","","","","","","","","","html-button-response","87","2.0.0","558694","6228f5900f303f54ca6ab186","2","42","2542","","","","","","","","","<img src= ""rock_img/I_Pumice_16.jpg"" style=""width:8cm; height:6.79cm;""><p>What type of rock is this?</p>","7","class_response","0","test","41","Pumice","Pumice","16","true","8","8","",""
"","","","","","","","","","","","html-keyboard-response","88","2.0.0","559195","6228f5900f303f54ca6ab186","2","42","null","","","","","","","","","<p style='font-size: 30px;'><strong>Okay</strong></p>","null","neutral_feedback","0","test","41","","","","","","","",""
"","","","","","","","","","","","html-button-response","89","2.0.0","561111","6228f5900f303f54ca6ab186","2","42","1914","","","","","","","","","<img src= ""rock_img/I_Diorite_15.jpg"" style=""width:8cm; height:5.54cm;""><p>What type of rock is this?</p>","0","class_response","0","test","42","Andesite","Diorite","15","false","1","3","",""
"","","","","","","","","","","","html-keyboard-response","90","2.0.0","561613","6228f5900f303f54ca6ab186","2","42","null","","","","","","","","","<p style='font-size: 30px;'><strong>Okay</strong></p>","null","neutral_feedback","0","test","42","","","","","","","",""
"","","","","","","","","","","","html-button-response","91","2.0.0","563094","6228f5900f303f54ca6ab186","2","42","1479","","","","","","","","","<img src= ""rock_img/I_Pumice_02.jpg"" style=""width:8cm; height:7.3999999999999995cm;""><p>What type of rock is this?</p>","7","class_response","0","test","43","Pumice","Pumice","02","true","8","8","",""
"","","","","","","","","","","","html-keyboard-response","92","2.0.0","563595","6228f5900f303f54ca6ab186","2","42","null","","","","","","","","","<p style='font-size: 30px;'><strong>Okay</strong></p>","null","neutral_feedback","0","test","43","","","","","","","",""
"","","","","","","","","","","","html-button-response","93","2.0.0","565112","6228f5900f303f54ca6ab186","2","42","1515","","","","","","","","","<img src= ""rock_img/I_Pumice_10.jpg"" style=""width:8cm; height:7.609999999999999cm;""><p>What type of rock is this?</p>","7","class_response","0","test","44","Pumice","Pumice","10","true","8","8","",""
"","","","","","","","","","","","html-keyboard-response","94","2.0.0","565614","6228f5900f303f54ca6ab186","2","42","null","","","","","","","","","<p style='font-size: 30px;'><strong>Okay</strong></p>","null","neutral_feedback","0","test","44","","","","","","","",""
"","","","","","","","","","","","html-button-response","95","2.0.0","567843","6228f5900f303f54ca6ab186","2","42","2227","","","","","","","","","<img src= ""rock_img/I_Andesite_07.jpg"" style=""width:8cm; height:5.93cm;""><p>What type of rock is this?</p>","3","class_response","0","test","45","Gabbro","Andesite","07","false","4","1","",""
"","","","","","","","","","","","html-keyboard-response","96","2.0.0","568345","6228f5900f303f54ca6ab186","2","42","null","","","","","","","","","<p style='font-size: 30px;'><strong>Okay</strong></p>","null","neutral_feedback","0","test","45","","","","","","","",""
"","","","","","","","","","","","html-button-response","97","2.0.0","570023","6228f5900f303f54ca6ab186","2","42","1676","","","","","","","","","<img src= ""rock_img/I_Obsidian_10.jpg"" style=""width:8cm; height:6.260000000000001cm;""><p>What type of rock is this?</p>","4","class_response","0","test","46","Obsidian","Obsidian","10","true","5","5","",""
"","","","","","","","","","","","html-keyboard-response","98","2.0.0","570525","6228f5900f303f54ca6ab186","2","42","null","","","","","","","","","<p style='font-size: 30px;'><strong>Okay</strong></p>","null","neutral_feedback","0","test","46","","","","","","","",""
"","","","","","","","","","","","html-button-response","99","2.0.0","577672","6228f5900f303f54ca6ab186","2","42","7146","","","","","","","","","<img src= ""rock_img/I_Diorite_11.jpg"" style=""width:8cm; height:7.11cm;""><p>What type of rock is this?</p>","2","class_response","0","test","47","Diorite","Diorite","11","true","3","3","",""
"","","","","","","","","","","","html-keyboard-response","100","2.0.0","578174","6228f5900f303f54ca6ab186","2","42","null","","","","","","","","","<p style='font-size: 30px;'><strong>Okay</strong></p>","null","neutral_feedback","0","test","47","","","","","","","",""
"","","","","","","","","","","","html-button-response","101","2.0.0","579650","6228f5900f303f54ca6ab186","2","42","1475","","","","","","","","","<img src= ""rock_img/I_Obsidian_04.jpg"" style=""width:8cm; height:6.930000000000001cm;""><p>What type of rock is this?</p>","4","class_response","0","test","48","Obsidian","Obsidian","04","true","5","5","",""
"","","","","","","","","","","","html-keyboard-response","102","2.0.0","580153","6228f5900f303f54ca6ab186","2","42","null","","","","","","","","","<p style='font-size: 30px;'><strong>Okay</strong></p>","null","neutral_feedback","0","test","48","","","","","","","",""
"","","","","","","","","","","","instructions","103","2.0.0","624218","6228f5900f303f54ca6ab186","2","42","44037","","","","","","","","[{""page_index"":0,""viewing_time"":31523},{""page_index"":1,""viewing_time"":7032},{""page_index"":2,""viewing_time"":5482}]","","","","","","","","","","","","","",""
"","","","","","","","","","","","html-button-response","104","2.0.0","628789","6228f5900f303f54ca6ab186","2","42","4570","","","","","","","","","","0","start_train","","","","","","","","","","",""
"","","","","","","","","","","","html-button-response","105","2.0.0","635050","6228f5900f303f54ca6ab186","2","42","6259","","","","","","","","","<img src= ""rock_img/I_Gabbro_01.jpg"" style=""width:8cm; height:5.21cm;""><p>What type of rock is this?</p>","1","class_response","1","train","1","Basalt","Gabbro","01","false","2","4","",""
"","","","","","","","","","","","html-button-response","106","2.0.0","640373","6228f5900f303f54ca6ab186","2","42","5321","","","","","","","","","<img src= rock_img/I_Gabbro_01.jpg style=""width:8cm; height:5.21cm;""><p style='font-size: 30px; color: red;'><strong>Incorrect!</strong></p><p style='font-size: 30px;'><strong>This rock is gabbro</strong></p>","0","corr_feedback","1","train","1","","","","","","","",""
"","","","","","","","","","","","html-button-response","107","2.0.0","645342","6228f5900f303f54ca6ab186","2","42","4967","","","","","","","","","<img src= ""rock_img/I_Diorite_08.jpg"" style=""width:8cm; height:6.37cm;""><p>What type of rock is this?</p>","1","class_response","1","train","2","Basalt","Diorite","08","false","2","3","",""
"","","","","","","","","","","","html-button-response","108","2.0.0","650545","6228f5900f303f54ca6ab186","2","42","5201","","","","","","","","","<img src= rock_img/I_Diorite_08.jpg style=""width:8cm; height:6.37cm;""><p style='font-size: 30px; color: red;'><strong>Incorrect!</strong></p><p style='font-size: 30px;'><strong>This rock is diorite</strong></p>","0","corr_feedback","1","train","2","","","","","","","",""
"","","","","","","","","","","","html-button-response","109","2.0.0","654356","6228f5900f303f54ca6ab186","2","42","3810","","","","","","","","","<img src= ""rock_img/I_Diorite_14.jpg"" style=""width:8cm; height:5.71cm;""><p>What type of rock is this?</p>","2","class_response","1","train","3","Diorite","Diorite","14","true","3","3","",""
"","","","","","","","","","","","html-button-response","110","2.0.0","656133","6228f5900f303f54ca6ab186","2","42","1776","","","","","","","","","<img src= rock_img/I_Diorite_14.jpg style=""width:8cm; height:5.71cm;""><p style='font-size: 30px; color: green;'><strong>Correct!</strong></p><p style='font-size: 30px;'><strong>This rock is diorite</strong></p>","0","corr_feedback","1","train","3","","","","","","","",""
"","","","","","","","","","","","html-button-response","111","2.0.0","658447","6228f5900f303f54ca6ab186","2","42","2313","","","","","","","","","<img src= ""rock_img/I_Basalt_12.jpg"" style=""width:8cm; height:6.010000000000001cm;""><p>What type of rock is this?</p>","7","class_response","1","train","4","Pumice","Basalt","12","false","8","2","",""
"","","","","","","","","","","","html-button-response","112","2.0.0","662711","6228f5900f303f54ca6ab186","2","42","4262","","","","","","","","","<img src= rock_img/I_Basalt_12.jpg style=""width:8cm; height:6.010000000000001cm;""><p style='font-size: 30px; color: red;'><strong>Incorrect!</strong></p><p style='font-size: 30px;'><strong>This rock is basalt</strong></p>","0","corr_feedback","1","train","4","","","","","","","",""
"","","","","","","","","","","","html-button-response","113","2.0.0","668827","6228f5900f303f54ca6ab186","2","42","6115","","","","","","","","","<img src= ""rock_img/I_Andesite_05.jpg"" style=""width:8cm; height:4.12cm;""><p>What type of rock is this?</p>","6","class_response","1","train","5","Peridotite","Andesite","05","false","7","1","",""
"","","","","","","","","","","","html-button-response","114","2.0.0","671031","6228f5900f303f54ca6ab186","2","42","2203","","","","","","","","","<img src= rock_img/I_Andesite_05.jpg style=""width:8cm; height:4.12cm;""><p style='font-size: 30px; color: red;'><strong>Incorrect!</strong></p><p style='font-size: 30px;'><strong>This rock is andesite</strong></p>","0","corr_feedback","1","train","5","","","","","","","",""
"","","","","","","","","","","","html-button-response","115","2.0.0","675335","6228f5900f303f54ca6ab186","2","42","4302","","","","","","","","","<img src= ""rock_img/I_Gabbro_10.jpg"" style=""width:8cm; height:5.680000000000001cm;""><p>What type of rock is this?</p>","1","class_response","1","train","6","Basalt","Gabbro","10","false","2","4","",""
"","","","","","","","","","","","html-button-response","116","2.0.0","678836","6228f5900f303f54ca6ab186","2","42","3500","","","","","","","","","<img src= rock_img/I_Gabbro_10.jpg style=""width:8cm; height:5.680000000000001cm;""><p style='font-size: 30px; color: red;'><strong>Incorrect!</strong></p><p style='font-size: 30px;'><strong>This rock is gabbro</strong></p>","0","corr_feedback","1","train","6","","","","","","","",""
"","","","","","","","","","","","html-button-response","117","2.0.0","682444","6228f5900f303f54ca6ab186","2","42","3607","","","","","","","","","<img src= ""rock_img/I_Peridotite_15.jpg"" style=""width:8cm; height:6cm;""><p>What type of rock is this?</p>","5","class_response","1","train","7","Pegmatite","Peridotite","15","false","6","7","",""
"","","","","","","","","","","","html-button-response","118","2.0.0","686743","6228f5900f303f54ca6ab186","2","42","4298","","","","","","","","","<img src= rock_img/I_Peridotite_15.jpg style=""width:8cm; height:6cm;""><p style='font-size: 30px; color: red;'><strong>Incorrect!</strong></p><p style='font-size: 30px;'><strong>This rock is peridotite</strong></p>","0","corr_feedback","1","train","7","","","","","","","",""
"","","","","","","","","","","","html-button-response","119","2.0.0","691308","6228f5900f303f54ca6ab186","2","42","4563","","","","","","","","","<img src= ""rock_img/I_Diorite_10.jpg"" style=""width:8cm; height:5.949999999999999cm;""><p>What type of rock is this?</p>","2","class_response","1","train","8","Diorite","Diorite","10","true","3","3","",""
"","","","","","","","","","","","html-button-response","120","2.0.0","692650","6228f5900f303f54ca6ab186","2","42","1340","","","","","","","","","<img src= rock_img/I_Diorite_10.jpg style=""width:8cm; height:5.949999999999999cm;""><p style='font-size: 30px; color: green;'><strong>Correct!</strong></p><p style='font-size: 30px;'><strong>This rock is diorite</strong></p>","0","corr_feedback","1","train","8","","","","","","","",""
"","","","","","","","","","","","html-button-response","121","2.0.0","698407","6228f5900f303f54ca6ab186","2","42","5756","","","","","","","","","<img src= ""rock_img/I_Peridotite_05.jpg"" style=""width:8cm; height:7.1499999999999995cm;""><p>What type of rock is this?</p>","7","class_response","1","train","9","Pumice","Peridotite","05","false","8","7","",""
"","","","","","","","","","","","html-button-response","122","2.0.0","699833","6228f5900f303f54ca6ab186","2","42","1424","","","","","","","","","<img src= rock_img/I_Peridotite_05.jpg style=""width:8cm; height:7.1499999999999995cm;""><p style='font-size: 30px; color: red;'><strong>Incorrect!</strong></p><p style='font-size: 30px;'><strong>This rock is peridotite</strong></p>","0","corr_feedback","1","train","9","","","","","","","",""
"","","","","","","","","","","","html-button-response","123","2.0.0","704055","6228f5900f303f54ca6ab186","2","42","4220","","","","","","","","","<img src= ""rock_img/I_Gabbro_15.jpg"" style=""width:8cm; height:6.29cm;""><p>What type of rock is this?</p>","2","class_response","1","train","10","Diorite","Gabbro","15","false","3","4","",""
"","","","","","","","","","","","html-button-response","124","2.0.0","705990","6228f5900f303f54ca6ab186","2","42","1934","","","","","","","","","<img src= rock_img/I_Gabbro_15.jpg style=""width:8cm; height:6.29cm;""><p style='font-size: 30px; color: red;'><strong>Incorrect!</strong></p><p style='font-size: 30px;'><strong>This rock is gabbro</strong></p>","0","corr_feedback","1","train","10","","","","","","","",""
"","","","","","","","","","","","html-button-response","125","2.0.0","708427","6228f5900f303f54ca6ab186","2","42","2436","","","","","","","","","<img src= ""rock_img/I_Gabbro_13.jpg"" style=""width:8cm; height:5.08cm;""><p>What type of rock is this?</p>","3","class_response","1","train","11","Gabbro","Gabbro","13","true","4","4","",""
"","","","","","","","","","","","html-button-response","126","2.0.0","709681","6228f5900f303f54ca6ab186","2","42","1252","","","","","","","","","<img src= rock_img/I_Gabbro_13.jpg style=""width:8cm; height:5.08cm;""><p style='font-size: 30px; color: green;'><strong>Correct!</strong></p><p style='font-size: 30px;'><strong>This rock is gabbro</strong></p>","0","corr_feedback","1","train","11","","","","","","","",""
"","","","","","","","","","","","html-button-response","127","2.0.0","713150","6228f5900f303f54ca6ab186","2","42","3468","","","","","","","","","<img src= ""rock_img/I_Basalt_16.jpg"" style=""width:8cm; height:7.659999999999999cm;""><p>What type of rock is this?</p>","5","class_response","1","train","12","Pegmatite","Basalt","16","false","6","2","",""
"","","","","","","","","","","","html-button-response","128","2.0.0","715303","6228f5900f303f54ca6ab186","2","42","2151","","","","","","","","","<img src= rock_img/I_Basalt_16.jpg style=""width:8cm; height:7.659999999999999cm;""><p style='font-size: 30px; color: red;'><strong>Incorrect!</strong></p><p style='font-size: 30px;'><strong>This rock is basalt</strong></p>","0","corr_feedback","1","train","12","","","","","","","",""
"","","","","","","","","","","","html-button-response","129","2.0.0","723200","6228f5900f303f54ca6ab186","2","42","7896","","","","","","","","","<img src= ""rock_img/I_Andesite_01.jpg"" style=""width:8cm; height:5.87cm;""><p>What type of rock is this?</p>","2","class_response","1","train","13","Diorite","Andesite","01","false","3","1","",""
"","","","","","","","","","","","html-button-response","130","2.0.0","724751","6228f5900f303f54ca6ab186","2","42","1550","","","","","","","","","<img src= rock_img/I_Andesite_01.jpg style=""width:8cm; height:5.87cm;""><p style='font-size: 30px; color: red;'><strong>Incorrect!</strong></p><p style='font-size: 30px;'><strong>This rock is andesite</strong></p>","0","corr_feedback","1","train","13","","","","","","","",""
"","","","","","","","","","","","html-button-response","131","2.0.0","731345","6228f5900f303f54ca6ab186","2","42","6593","","","","","","","","","<img src= ""rock_img/I_Andesite_14.jpg"" style=""width:8cm; height:5.449999999999999cm;""><p>What type of rock is this?</p>","2","class_response","1","train","14","Diorite","Andesite","14","false","3","1","",""
"","","","","","","","","","","","html-button-response","132","2.0.0","732424","6228f5900f303f54ca6ab186","2","42","1078","","","","","","","","","<img src= rock_img/I_Andesite_14.jpg style=""width:8cm; height:5.449999999999999cm;""><p style='font-size: 30px; color: red;'><strong>Incorrect!</strong></p><p style='font-size: 30px;'><strong>This rock is andesite</strong></p>","0","corr_feedback","1","train","14","","","","","","","",""
"","","","","","","","","","","","html-button-response","133","2.0.0","737100","6228f5900f303f54ca6ab186","2","42","4675","","","","","","","","","<img src= ""rock_img/I_Peridotite_10.jpg"" style=""width:8cm; height:5.390000000000001cm;""><p>What type of rock is this?</p>","6","class_response","1","train","15","Peridotite","Peridotite","10","true","7","7","",""
"","","","","","","","","","","","html-button-response","134","2.0.0","738056","6228f5900f303f54ca6ab186","2","42","954","","","","","","","","","<img src= rock_img/I_Peridotite_10.jpg style=""width:8cm; height:5.390000000000001cm;""><p style='font-size: 30px; color: green;'><strong>Correct!</strong></p><p style='font-size: 30px;'><strong>This rock is peridotite</strong></p>","0","corr_feedback","1","train","15","","","","","","","",""
"","","","","","","","","","","","html-button-response","135","2.0.0","740803","6228f5900f303f54ca6ab186","2","42","2745","","","","","","","","","<img src= ""rock_img/I_Diorite_07.jpg"" style=""width:8cm; height:5.239999999999999cm;""><p>What type of rock is this?</p>","2","class_response","1","train","16","Diorite","Diorite","07","true","3","3","",""
"","","","","","","","","","","","html-button-response","136","2.0.0","741772","6228f5900f303f54ca6ab186","2","42","968","","","","","","","","","<img src= rock_img/I_Diorite_07.jpg style=""width:8cm; height:5.239999999999999cm;""><p style='font-size: 30px; color: green;'><strong>Correct!</strong></p><p style='font-size: 30px;'><strong>This rock is diorite</strong></p>","0","corr_feedback","1","train","16","","","","","","","",""
"","","","","","","","","","","","html-button-response","137","2.0.0","743229","6228f5900f303f54ca6ab186","2","42","1456","","","","","","","","","<img src= ""rock_img/I_Obsidian_07.jpg"" style=""width:8cm; height:4.76cm;""><p>What type of rock is this?</p>","4","class_response","1","train","17","Obsidian","Obsidian","07","true","5","5","",""
"","","","","","","","","","","","html-button-response","138","2.0.0","745071","6228f5900f303f54ca6ab186","2","42","1840","","","","","","","","","<img src= rock_img/I_Obsidian_07.jpg style=""width:8cm; height:4.76cm;""><p style='font-size: 30px; color: green;'><strong>Correct!</strong></p><p style='font-size: 30px;'><strong>This rock is obsidian</strong></p>","0","corr_feedback","1","train","17","","","","","","","",""
"","","","","","","","","","","","html-button-response","139","2.0.0","747883","6228f5900f303f54ca6ab186","2","42","2811","","","","","","","","","<img src= ""rock_img/I_Pegmatite_08.jpg"" style=""width:8cm; height:7.68cm;""><p>What type of rock is this?</p>","5","class_response","1","train","18","Pegmatite","Pegmatite","08","true","6","6","",""
"","","","","","","","","","","","html-button-response","140","2.0.0","749187","6228f5900f303f54ca6ab186","2","42","1302","","","","","","","","","<img src= rock_img/I_Pegmatite_08.jpg style=""width:8cm; height:7.68cm;""><p style='font-size: 30px; color: green;'><strong>Correct!</strong></p><p style='font-size: 30px;'><strong>This rock is pegmatite</strong></p>","0","corr_feedback","1","train","18","","","","","","","",""
"","","","","","","","","","","","html-button-response","141","2.0.0","751422","6228f5900f303f54ca6ab186","2","42","2234","","","","","","","","","<img src= ""rock_img/I_Diorite_13.jpg"" style=""width:8cm; height:6.29cm;""><p>What type of rock is this?</p>","2","class_response","1","train","19","Diorite","Diorite","13","true","3","3","",""
"","","","","","","","","","","","html-button-response","142","2.0.0","752318","6228f5900f303f54ca6ab186","2","42","895","","","","","","","","","<img src= rock_img/I_Diorite_13.jpg style=""width:8cm; height:6.29cm;""><p style='font-size: 30px; color: green;'><strong>Correct!</strong></p><p style='font-size: 30px;'><strong>This rock is diorite</strong></p>","0","corr_feedback","1","train","19","","","","","","","",""
"","","","","","","","","","","","html-button-response","143","2.0.0","754084","6228f5900f303f54ca6ab186","2","42","1765","","","","","","","","","<img src= ""rock_img/I_Basalt_09.jpg"" style=""width:8cm; height:6.2cm;""><p>What type of rock is this?</p>","1","class_response","1","train","20","Basalt","Basalt","09","true","2","2","",""
"","","","","","","","","","","","html-button-response","144","2.0.0","755031","6228f5900f303f54ca6ab186","2","42","945","","","","","","","","","<img src= rock_img/I_Basalt_09.jpg style=""width:8cm; height:6.2cm;""><p style='font-size: 30px; color: green;'><strong>Correct!</strong></p><p style='font-size: 30px;'><strong>This rock is basalt</strong></p>","0","corr_feedback","1","train","20","","","","","","","",""
"","","","","","","","","","","","html-button-response","145","2.0.0","756565","6228f5900f303f54ca6ab186","2","42","1533","","","","","","","","","<img src= ""rock_img/I_Gabbro_11.jpg"" style=""width:8cm; height:6.2cm;""><p>What type of rock is this?</p>","1","class_response","1","train","21","Basalt","Gabbro","11","false","2","4","",""
"","","","","","","","","","","","html-button-response","146","2.0.0","757751","6228f5900f303f54ca6ab186","2","42","1185","","","","","","","","","<img src= rock_img/I_Gabbro_11.jpg style=""width:8cm; height:6.2cm;""><p style='font-size: 30px; color: red;'><strong>Incorrect!</strong></p><p style='font-size: 30px;'><strong>This rock is gabbro</strong></p>","0","corr_feedback","1","train","21","","","","","","","",""
"","","","","","","","","","","","html-button-response","147","2.0.0","761367","6228f5900f303f54ca6ab186","2","42","3614","","","","","","","","","<img src= ""rock_img/I_Gabbro_12.jpg"" style=""width:8cm; height:7.800000000000001cm;""><p>What type of rock is this?</p>","1","class_response","1","train","22","Basalt","Gabbro","12","false","2","4","",""
"","","","","","","","","","","","html-button-response","148","2.0.0","762390","6228f5900f303f54ca6ab186","2","42","1021","","","","","","","","","<img src= rock_img/I_Gabbro_12.jpg style=""width:8cm; height:7.800000000000001cm;""><p style='font-size: 30px; color: red;'><strong>Incorrect!</strong></p><p style='font-size: 30px;'><strong>This rock is gabbro</strong></p>","0","corr_feedback","1","train","22","","","","","","","",""
"","","","","","","","","","","","html-button-response","149","2.0.0","763957","6228f5900f303f54ca6ab186","2","42","1566","","","","","","","","","<img src= ""rock_img/I_Basalt_16.jpg"" style=""width:8cm; height:7.659999999999999cm;""><p>What type of rock is this?</p>","1","class_response","1","train","23","Basalt","Basalt","16","true","2","2","",""
"","","","","","","","","","","","html-button-response","150","2.0.0","764724","6228f5900f303f54ca6ab186","2","42","765","","","","","","","","","<img src= rock_img/I_Basalt_16.jpg style=""width:8cm; height:7.659999999999999cm;""><p style='font-size: 30px; color: green;'><strong>Correct!</strong></p><p style='font-size: 30px;'><strong>This rock is basalt</strong></p>","0","corr_feedback","1","train","23","","","","","","","",""
"","","","","","","","","","","","html-button-response","151","2.0.0","766256","6228f5900f303f54ca6ab186","2","42","1530","","","","","","","","","<img src= ""rock_img/I_Pumice_09.jpg"" style=""width:8cm; height:6.44cm;""><p>What type of rock is this?</p>","7","class_response","1","train","24","Pumice","Pumice","09","true","8","8","",""
"","","","","","","","","","","","html-button-response","152","2.0.0","767255","6228f5900f303f54ca6ab186","2","42","997","","","","","","","","","<img src= rock_img/I_Pumice_09.jpg style=""width:8cm; height:6.44cm;""><p style='font-size: 30px; color: green;'><strong>Correct!</strong></p><p style='font-size: 30px;'><strong>This rock is pumice</strong></p>","0","corr_feedback","1","train","24","","","","","","","",""
"","","","","","","","","","","","html-button-response","153","2.0.0","771001","6228f5900f303f54ca6ab186","2","42","3744","","","","","","","","","<img src= ""rock_img/I_Basalt_08.jpg"" style=""width:8cm; height:10.44cm;""><p>What type of rock is this?</p>","1","class_response","1","train","25","Basalt","Basalt","08","true","2","2","",""
"","","","","","","","","","","","html-button-response","154","2.0.0","771902","6228f5900f303f54ca6ab186","2","42","900","","","","","","","","","<img src= rock_img/I_Basalt_08.jpg style=""width:8cm; height:10.44cm;""><p style='font-size: 30px; color: green;'><strong>Correct!</strong></p><p style='font-size: 30px;'><strong>This rock is basalt</strong></p>","0","corr_feedback","1","train","25","","","","","","","",""
"","","","","","","","","","","","html-button-response","155","2.0.0","773914","6228f5900f303f54ca6ab186","2","42","2010","","","","","","","","","<img src= ""rock_img/I_Andesite_10.jpg"" style=""width:8cm; height:4.16cm;""><p>What type of rock is this?</p>","2","class_response","1","train","26","Diorite","Andesite","10","false","3","1","",""
"","","","","","","","","","","","html-button-response","156","2.0.0","775082","6228f5900f303f54ca6ab186","2","42","1167","","","","","","","","","<img src= rock_img/I_Andesite_10.jpg style=""width:8cm; height:4.16cm;""><p style='font-size: 30px; color: red;'><strong>Incorrect!</strong></p><p style='font-size: 30px;'><strong>This rock is andesite</strong></p>","0","corr_feedback","1","train","26","","","","","","","",""
"","","","","","","","","","","","html-button-response","157","2.0.0","776583","6228f5900f303f54ca6ab186","2","42","1500","","","","","","","","","<img src= ""rock_img/I_Peridotite_08.jpg"" style=""width:8cm; height:6.7cm;""><p>What type of rock is this?</p>","0","class_response","1","train","27","Andesite","Peridotite","08","false","1","7","",""
"","","","","","","","","","","","html-button-response","158","2.0.0","777730","6228f5900f303f54ca6ab186","2","42","1146","","","","","","","","","<img src= rock_img/I_Peridotite_08.jpg style=""width:8cm; height:6.7cm;""><p style='font-size: 30px; color: red;'><strong>Incorrect!</strong></p><p style='font-size: 30px;'><strong>This rock is peridotite</strong></p>","0","corr_feedback","1","train","27","","","","","","","",""
"","","","","","","","","","","","html-button-response","159","2.0.0","786926","6228f5900f303f54ca6ab186","2","42","9194","","","","","","","","","<img src= ""rock_img/I_Andesite_11.jpg"" style=""width:8cm; height:4.92cm;""><p>What type of rock is this?</p>","3","class_response","1","train","28","Gabbro","Andesite","11","false","4","1","",""
"","","","","","","","","","","","html-button-response","160","2.0.0","787969","6228f5900f303f54ca6ab186","2","42","1042","","","","","","","","","<img src= rock_img/I_Andesite_11.jpg style=""width:8cm; height:4.92cm;""><p style='font-size: 30px; color: red;'><strong>Incorrect!</strong></p><p style='font-size: 30px;'><strong>This rock is andesite</strong></p>","0","corr_feedback","1","train","28","","","","","","","",""
"","","","","","","","","","","","html-button-response","161","2.0.0","790037","6228f5900f303f54ca6ab186","2","42","2066","","","","","","","","","<img src= ""rock_img/I_Basalt_12.jpg"" style=""width:8cm; height:6.010000000000001cm;""><p>What type of rock is this?</p>","7","class_response","1","train","29","Pumice","Basalt","12","false","8","2","",""
"","","","","","","","","","","","html-button-response","162","2.0.0","791110","6228f5900f303f54ca6ab186","2","42","1072","","","","","","","","","<img src= rock_img/I_Basalt_12.jpg style=""width:8cm; height:6.010000000000001cm;""><p style='font-size: 30px; color: red;'><strong>Incorrect!</strong></p><p style='font-size: 30px;'><strong>This rock is basalt</strong></p>","0","corr_feedback","1","train","29","","","","","","","",""
"","","","","","","","","","","","html-button-response","163","2.0.0","796027","6228f5900f303f54ca6ab186","2","42","4915","","","","","","","","","<img src= ""rock_img/I_Pegmatite_12.jpg"" style=""width:8cm; height:5.7cm;""><p>What type of rock is this?</p>","5","class_response","1","train","30","Pegmatite","Pegmatite","12","true","6","6","",""
"","","","","","","","","","","","html-button-response","164","2.0.0","797017","6228f5900f303f54ca6ab186","2","42","989","","","","","","","","","<img src= rock_img/I_Pegmatite_12.jpg style=""width:8cm; height:5.7cm;""><p style='font-size: 30px; color: green;'><strong>Correct!</strong></p><p style='font-size: 30px;'><strong>This rock is pegmatite</strong></p>","0","corr_feedback","1","train","30","","","","","","","",""
"","","","","","","","","","","","html-button-response","165","2.0.0","798916","6228f5900f303f54ca6ab186","2","42","1898","","","","","","","","","<img src= ""rock_img/I_Pumice_08.jpg"" style=""width:8cm; height:6.67cm;""><p>What type of rock is this?</p>","7","class_response","1","train","31","Pumice","Pumice","08","true","8","8","",""
"","","","","","","","","","","","html-button-response","166","2.0.0","800075","6228f5900f303f54ca6ab186","2","42","1158","","","","","","","","","<img src= rock_img/I_Pumice_08.jpg style=""width:8cm; height:6.67cm;""><p style='font-size: 30px; color: green;'><strong>Correct!</strong></p><p style='font-size: 30px;'><strong>This rock is pumice</strong></p>","0","corr_feedback","1","train","31","","","","","","","",""
"","","","","","","","","","","","html-button-response","167","2.0.0","804900","6228f5900f303f54ca6ab186","2","42","4823","","","","","","","","","<img src= ""rock_img/I_Peridotite_05.jpg"" style=""width:8cm; height:7.1499999999999995cm;""><p>What type of rock is this?</p>","3","class_response","1","train","32","Gabbro","Peridotite","05","false","4","7","",""
"","","","","","","","","","","","html-button-response","168","2.0.0","806169","6228f5900f303f54ca6ab186","2","42","1268","","","","","","","","","<img src= rock_img/I_Peridotite_05.jpg style=""width:8cm; height:7.1499999999999995cm;""><p style='font-size: 30px; color: red;'><strong>Incorrect!</strong></p><p style='font-size: 30px;'><strong>This rock is peridotite</strong></p>","0","corr_feedback","1","train","32","","","","","","","",""
"","","","","","","","","","","","html-button-response","169","2.0.0","807654","6228f5900f303f54ca6ab186","2","42","1483","","","","","","","","","<img src= ""rock_img/I_Peridotite_15.jpg"" style=""width:8cm; height:6cm;""><p>What type of rock is this?</p>","3","class_response","1","train","33","Gabbro","Peridotite","15","false","4","7","",""
"","","","","","","","","","","","html-button-response","170","2.0.0","809518","6228f5900f303f54ca6ab186","2","42","1863","","","","","","","","","<img src= rock_img/I_Peridotite_15.jpg style=""width:8cm; height:6cm;""><p style='font-size: 30px; color: red;'><strong>Incorrect!</strong></p><p style='font-size: 30px;'><strong>This rock is peridotite</strong></p>","0","corr_feedback","1","train","33","","","","","","","",""
"","","","","","","","","","","","html-button-response","171","2.0.0","812191","6228f5900f303f54ca6ab186","2","42","2671","","","","","","","","","<img src= ""rock_img/I_Basalt_05.jpg"" style=""width:8cm; height:8.18cm;""><p>What type of rock is this?</p>","1","class_response","1","train","34","Basalt","Basalt","05","true","2","2","",""
"","","","","","","","","","","","html-button-response","172","2.0.0","813092","6228f5900f303f54ca6ab186","2","42","901","","","","","","","","","<img src= rock_img/I_Basalt_05.jpg style=""width:8cm; height:8.18cm;""><p style='font-size: 30px; color: green;'><strong>Correct!</strong></p><p style='font-size: 30px;'><strong>This rock is basalt</strong></p>","0","corr_feedback","1","train","34","","","","","","","",""
"","","","","","","","","","","","html-button-response","173","2.0.0","816057","6228f5900f303f54ca6ab186","2","42","2963","","","","","","","","","<img src= ""rock_img/I_Pegmatite_15.jpg"" style=""width:8cm; height:6cm;""><p>What type of rock is this?</p>","5","class_response","1","train","35","Pegmatite","Pegmatite","15","true","6","6","",""
"","","","","","","","","","","","html-button-response","174","2.0.0","816993","6228f5900f303f54ca6ab186","2","42","935","","","","","","","","","<img src= rock_img/I_Pegmatite_15.jpg style=""width:8cm; height:6cm;""><p style='font-size: 30px; color: green;'><strong>Correct!</strong></p><p style='font-size: 30px;'><strong>This rock is pegmatite</strong></p>","0","corr_feedback","1","train","35","","","","","","","",""
"","","","","","","","","","","","html-button-response","175","2.0.0","821406","6228f5900f303f54ca6ab186","2","42","4411","","","","","","","","","<img src= ""rock_img/I_Gabbro_13.jpg"" style=""width:8cm; height:5.08cm;""><p>What type of rock is this?</p>","3","class_response","1","train","36","Gabbro","Gabbro","13","true","4","4","",""
"","","","","","","","","","","","html-button-response","176","2.0.0","822386","6228f5900f303f54ca6ab186","2","42","979","","","","","","","","","<img src= rock_img/I_Gabbro_13.jpg style=""width:8cm; height:5.08cm;""><p style='font-size: 30px; color: green;'><strong>Correct!</strong></p><p style='font-size: 30px;'><strong>This rock is gabbro</strong></p>","0","corr_feedback","1","train","36","","","","","","","",""
"","","","","","","","","","","","html-button-response","177","2.0.0","823848","6228f5900f303f54ca6ab186","2","42","1461","","","","","","","","","<img src= ""rock_img/I_Diorite_09.jpg"" style=""width:8cm; height:5.27cm;""><p>What type of rock is this?</p>","2","class_response","1","train","37","Diorite","Diorite","09","true","3","3","",""
"","","","","","","","","","","","html-button-response","178","2.0.0","824711","6228f5900f303f54ca6ab186","2","42","862","","","","","","","","","<img src= rock_img/I_Diorite_09.jpg style=""width:8cm; height:5.27cm;""><p style='font-size: 30px; color: green;'><strong>Correct!</strong></p><p style='font-size: 30px;'><strong>This rock is diorite</strong></p>","0","corr_feedback","1","train","37","","","","","","","",""
"","","","","","","","","","","","html-button-response","179","2.0.0","829452","6228f5900f303f54ca6ab186","2","42","4739","","","","","","","","","<img src= ""rock_img/I_Pegmatite_07.jpg"" style=""width:8cm; height:6.7cm;""><p>What type of rock is this?</p>","5","class_response","1","train","38","Pegmatite","Pegmatite","07","true","6","6","",""
"","","","","","","","","","","","html-button-response","180","2.0.0","830451","6228f5900f303f54ca6ab186","2","42","997","","","","","","","","","<img src= rock_img/I_Pegmatite_07.jpg style=""width:8cm; height:6.7cm;""><p style='font-size: 30px; color: green;'><strong>Correct!</strong></p><p style='font-size: 30px;'><strong>This rock is pegmatite</strong></p>","0","corr_feedback","1","train","38","","","","","","","",""
"","","","","","","","","","","","html-button-response","181","2.0.0","831819","6228f5900f303f54ca6ab186","2","42","1367","","","","","","","","","<img src= ""rock_img/I_Pegmatite_03.jpg"" style=""width:8cm; height:5.239999999999999cm;""><p>What type of rock is this?</p>","5","class_response","1","train","39","Pegmatite","Pegmatite","03","true","6","6","",""
"","","","","","","","","","","","html-button-response","182","2.0.0","832785","6228f5900f303f54ca6ab186","2","42","965","","","","","","","","","<img src= rock_img/I_Pegmatite_03.jpg style=""width:8cm; height:5.239999999999999cm;""><p style='font-size: 30px; color: green;'><strong>Correct!</strong></p><p style='font-size: 30px;'><strong>This rock is pegmatite</strong></p>","0","corr_feedback","1","train","39","","","","","","","",""
"","","","","","","","","","","","html-button-response","183","2.0.0","836630","6228f5900f303f54ca6ab186","2","42","3844","","","","","","","","","<img src= ""rock_img/I_Peridotite_14.jpg"" style=""width:8cm; height:5.3cm;""><p>What type of rock is this?</p>","3","class_response","1","train","40","Gabbro","Peridotite","14","false","4","7","",""
"","","","","","","","","","","","html-button-response","184","2.0.0","839158","6228f5900f303f54ca6ab186","2","42","2527","","","","","","","","","<img src= rock_img/I_Peridotite_14.jpg style=""width:8cm; height:5.3cm;""><p style='font-size: 30px; color: red;'><strong>Incorrect!</strong></p><p style='font-size: 30px;'><strong>This rock is peridotite</strong></p>","0","corr_feedback","1","train","40","","","","","","","",""
"","","","","","","","","","","","html-button-response","185","2.0.0","845737","6228f5900f303f54ca6ab186","2","42","6578","","","","","","","","","<img src= ""rock_img/I_Andesite_11.jpg"" style=""width:8cm; height:4.92cm;""><p>What type of rock is this?</p>","6","class_response","1","train","41","Peridotite","Andesite","11","false","7","1","",""
"","","","","","","","","","","","html-button-response","186","2.0.0","846682","6228f5900f303f54ca6ab186","2","42","943","","","","","","","","","<img src= rock_img/I_Andesite_11.jpg style=""width:8cm; height:4.92cm;""><p style='font-size: 30px; color: red;'><strong>Incorrect!</strong></p><p style='font-size: 30px;'><strong>This rock is andesite</strong></p>","0","corr_feedback","1","train","41","","","","","","","",""
"","","","","","","","","","","","html-button-response","187","2.0.0","852750","6228f5900f303f54ca6ab186","2","42","6067","","","","","","","","","<img src= ""rock_img/I_Gabbro_01.jpg"" style=""width:8cm; height:5.21cm;""><p>What type of rock is this?</p>","3","class_response","1","train","42","Gabbro","Gabbro","01","true","4","4","",""
"","","","","","","","","","","","html-button-response","188","2.0.0","853641","6228f5900f303f54ca6ab186","2","42","890","","","","","","","","","<img src= rock_img/I_Gabbro_01.jpg style=""width:8cm; height:5.21cm;""><p style='font-size: 30px; color: green;'><strong>Correct!</strong></p><p style='font-size: 30px;'><strong>This rock is gabbro</strong></p>","0","corr_feedback","1","train","42","","","","","","","",""
"","","","","","","","","","","","html-button-response","189","2.0.0","854972","6228f5900f303f54ca6ab186","2","42","1329","","","","","","","","","<img src= ""rock_img/I_Obsidian_09.jpg"" style=""width:8cm; height:5cm;""><p>What type of rock is this?</p>","4","class_response","1","train","43","Obsidian","Obsidian","09","true","5","5","",""
"","","","","","","","","","","","html-button-response","190","2.0.0","855927","6228f5900f303f54ca6ab186","2","42","953","","","","","","","","","<img src= rock_img/I_Obsidian_09.jpg style=""width:8cm; height:5cm;""><p style='font-size: 30px; color: green;'><strong>Correct!</strong></p><p style='font-size: 30px;'><strong>This rock is obsidian</strong></p>","0","corr_feedback","1","train","43","","","","","","","",""
"","","","","","","","","","","","html-button-response","191","2.0.0","857241","6228f5900f303f54ca6ab186","2","42","1313","","","","","","","","","<img src= ""rock_img/I_Pegmatite_09.jpg"" style=""width:8cm; height:4.03cm;""><p>What type of rock is this?</p>","5","class_response","1","train","44","Pegmatite","Pegmatite","09","true","6","6","",""
"","","","","","","","","","","","html-button-response","192","2.0.0","858046","6228f5900f303f54ca6ab186","2","42","804","","","","","","","","","<img src= rock_img/I_Pegmatite_09.jpg style=""width:8cm; height:4.03cm;""><p style='font-size: 30px; color: green;'><strong>Correct!</strong></p><p style='font-size: 30px;'><strong>This rock is pegmatite</strong></p>","0","corr_feedback","1","train","44","","","","","","","",""
"","","","","","","","","","","","html-button-response","193","2.0.0","864506","6228f5900f303f54ca6ab186","2","42","6458","","","","","","","","","<img src= ""rock_img/I_Andesite_16.jpg"" style=""width:8cm; height:6.010000000000001cm;""><p>What type of rock is this?</p>","2","class_response","1","train","45","Diorite","Andesite","16","false","3","1","",""
"","","","","","","","","","","","html-button-response","194","2.0.0","865377","6228f5900f303f54ca6ab186","2","42","870","","","","","","","","","<img src= rock_img/I_Andesite_16.jpg style=""width:8cm; height:6.010000000000001cm;""><p style='font-size: 30px; color: red;'><strong>Incorrect!</strong></p><p style='font-size: 30px;'><strong>This rock is andesite</strong></p>","0","corr_feedback","1","train","45","","","","","","","",""
"","","","","","","","","","","","html-button-response","195","2.0.0","867800","6228f5900f303f54ca6ab186","2","42","2422","","","","","","","","","<img src= ""rock_img/I_Pegmatite_12.jpg"" style=""width:8cm; height:5.7cm;""><p>What type of rock is this?</p>","5","class_response","1","train","46","Pegmatite","Pegmatite","12","true","6","6","",""
"","","","","","","","","","","","html-button-response","196","2.0.0","868551","6228f5900f303f54ca6ab186","2","42","750","","","","","","","","","<img src= rock_img/I_Pegmatite_12.jpg style=""width:8cm; height:5.7cm;""><p style='font-size: 30px; color: green;'><strong>Correct!</strong></p><p style='font-size: 30px;'><strong>This rock is pegmatite</strong></p>","0","corr_feedback","1","train","46","","","","","","","",""
"","","","","","","","","","","","html-button-response","197","2.0.0","870194","6228f5900f303f54ca6ab186","2","42","1641","","","","","","","","","<img src= ""rock_img/I_Peridotite_06.jpg"" style=""width:8cm; height:7.53cm;""><p>What type of rock is this?</p>","3","class_response","1","train","47","Gabbro","Peridotite","06","false","4","7","",""
"","","","","","","","","","","","html-button-response","198","2.0.0","871289","6228f5900f303f54ca6ab186","2","42","1094","","","","","","","","","<img src= rock_img/I_Peridotite_06.jpg style=""width:8cm; height:7.53cm;""><p style='font-size: 30px; color: red;'><strong>Incorrect!</strong></p><p style='font-size: 30px;'><strong>This rock is peridotite</strong></p>","0","corr_feedback","1","train","47","","","","","","","",""
"","","","","","","","","","","","html-button-response","199","2.0.0","878303","6228f5900f303f54ca6ab186","2","42","7012","","","","","","","","","<img src= ""rock_img/I_Basalt_11.jpg"" style=""width:8cm; height:5.359999999999999cm;""><p>What type of rock is this?</p>","6","class_response","1","train","48","Peridotite","Basalt","11","false","7","2","",""
"","","","","","","","","","","","html-button-response","200","2.0.0","879436","6228f5900f303f54ca6ab186","2","42","1132","","","","","","","","","<img src= rock_img/I_Basalt_11.jpg style=""width:8cm; height:5.359999999999999cm;""><p style='font-size: 30px; color: red;'><strong>Incorrect!</strong></p><p style='font-size: 30px;'><strong>This rock is basalt</strong></p>","0","corr_feedback","1","train","48","","","","","","","",""
"","","","","","","","","","","","instructions","203","2.0.0","937184","6228f5900f303f54ca6ab186","2","42","57747","","","","","","","","[{""page_index"":0,""viewing_time"":22852},{""page_index"":1,""viewing_time"":34895}]","","","","","","","","","","","","","",""
"","","","","","","","","","","","html-button-response","204","2.0.0","939552","6228f5900f303f54ca6ab186","2","42","2368","","","","","","","","","","0","start_test","","","","","","","","","","",""
"","","","","","","","","","","","html-button-response","205","2.0.0","943741","6228f5900f303f54ca6ab186","2","42","4187","","","","","","","","","<img src= ""rock_img/I_Basalt_06.jpg"" style=""width:8cm; height:7.06cm;""><p>What type of rock is this?</p>","1","class_response","1","test","1","Basalt","Basalt","06","true","2","2","",""
"","","","","","","","","","","","html-keyboard-response","206","2.0.0","944243","6228f5900f303f54ca6ab186","2","42","null","","","","","","","","","<p style='font-size: 30px;'><strong>Okay</strong></p>","null","neutral_feedback","1","test","1","","","","","","","",""
"","","","","","","","","","","","html-button-response","207","2.0.0","945878","6228f5900f303f54ca6ab186","2","42","1633","","","","","","","","","<img src= ""rock_img/I_Obsidian_10.jpg"" style=""width:8cm; height:6.260000000000001cm;""><p>What type of rock is this?</p>","4","class_response","1","test","2","Obsidian","Obsidian","10","true","5","5","",""
"","","","","","","","","","","","html-keyboard-response","208","2.0.0","946380","6228f5900f303f54ca6ab186","2","42","null","","","","","","","","","<p style='font-size: 30px;'><strong>Okay</strong></p>","null","neutral_feedback","1","test","2","","","","","","","",""
"","","","","","","","","","","","html-button-response","209","2.0.0","955050","6228f5900f303f54ca6ab186","2","42","8668","","","","","","","","","<img src= ""rock_img/I_Gabbro_08.jpg"" style=""width:8cm; height:5.15cm;""><p>What type of rock is this?</p>","0","class_response","1","test","3","Andesite","Gabbro","08","false","1","4","",""
"","","","","","","","","","","","html-keyboard-response","210","2.0.0","955551","6228f5900f303f54ca6ab186","2","42","null","","","","","","","","","<p style='font-size: 30px;'><strong>Okay</strong></p>","null","neutral_feedback","1","test","3","","","","","","","",""
"","","","","","","","","","","","html-button-response","211","2.0.0","957915","6228f5900f303f54ca6ab186","2","42","2361","","","","","","","","","<img src= ""rock_img/I_Pumice_10.jpg"" style=""width:8cm; height:7.609999999999999cm;""><p>What type of rock is this?</p>","7","class_response","1","test","4","Pumice","Pumice","10","true","8","8","",""
"","","","","","","","","","","","html-keyboard-response","212","2.0.0","958417","6228f5900f303f54ca6ab186","2","42","null","","","","","","","","","<p style='font-size: 30px;'><strong>Okay</strong></p>","null","neutral_feedback","1","test","4","","","","","","","",""
"","","","","","","","","","","","html-button-response","213","2.0.0","961658","6228f5900f303f54ca6ab186","2","42","3239","","","","","","","","","<img src= ""rock_img/I_Andesite_03.jpg"" style=""width:8cm; height:5.73cm;""><p>What type of rock is this?</p>","2","class_response","1","test","5","Diorite","Andesite","03","false","3","1","",""
"","","","","","","","","","","","html-keyboard-response","214","2.0.0","962159","6228f5900f303f54ca6ab186","2","42","null","","","","","","","","","<p style='font-size: 30px;'><strong>Okay</strong></p>","null","neutral_feedback","1","test","5","","","","","","","",""
"","","","","","","","","","","","html-button-response","215","2.0.0","964130","6228f5900f303f54ca6ab186","2","42","1969","","","","","","","","","<img src= ""rock_img/I_Gabbro_14.jpg"" style=""width:8cm; height:8.48cm;""><p>What type of rock is this?</p>","3","class_response","1","test","6","Gabbro","Gabbro","14","true","4","4","",""
"","","","","","","","","","","","html-keyboard-response","216","2.0.0","964631","6228f5900f303f54ca6ab186","2","42","null","","","","","","","","","<p style='font-size: 30px;'><strong>Okay</strong></p>","null","neutral_feedback","1","test","6","","","","","","","",""
"","","","","","","","","","","","html-button-response","217","2.0.0","968216","6228f5900f303f54ca6ab186","2","42","3582","","","","","","","","","<img src= ""rock_img/I_Pegmatite_06.jpg"" style=""width:8cm; height:5.17cm;""><p>What type of rock is this?</p>","3","class_response","1","test","7","Gabbro","Pegmatite","06","false","4","6","",""
"","","","","","","","","","","","html-keyboard-response","218","2.0.0","968717","6228f5900f303f54ca6ab186","2","42","null","","","","","","","","","<p style='font-size: 30px;'><strong>Okay</strong></p>","null","neutral_feedback","1","test","7","","","","","","","",""
"","","","","","","","","","","","html-button-response","219","2.0.0","970354","6228f5900f303f54ca6ab186","2","42","1635","","","","","","","","","<img src= ""rock_img/I_Pumice_03.jpg"" style=""width:8cm; height:6.64cm;""><p>What type of rock is this?</p>","7","class_response","1","test","8","Pumice","Pumice","03","true","8","8","",""
"","","","","","","","","","","","html-keyboard-response","220","2.0.0","970856","6228f5900f303f54ca6ab186","2","42","null","","","","","","","","","<p style='font-size: 30px;'><strong>Okay</strong></p>","null","neutral_feedback","1","test","8","","","","","","","",""
"","","","","","","","","","","","html-button-response","221","2.0.0","974412","6228f5900f303f54ca6ab186","2","42","3554","","","","","","","","","<img src= ""rock_img/I_Peridotite_13.jpg"" style=""width:8cm; height:7.58cm;""><p>What type of rock is this?</p>","2","class_response","1","test","9","Diorite","Peridotite","13","false","3","7","",""
"","","","","","","","","","","","html-keyboard-response","222","2.0.0","974913","6228f5900f303f54ca6ab186","2","42","null","","","","","","","","","<p style='font-size: 30px;'><strong>Okay</strong></p>","null","neutral_feedback","1","test","9","","","","","","","",""
"","","","","","","","","","","","html-button-response","223","2.0.0","976533","6228f5900f303f54ca6ab186","2","42","1617","","","","","","","","","<img src= ""rock_img/I_Diorite_11.jpg"" style=""width:8cm; height:7.11cm;""><p>What type of rock is this?</p>","2","class_response","1","test","10","Diorite","Diorite","11","true","3","3","",""
"","","","","","","","","","","","html-keyboard-response","224","2.0.0","977035","6228f5900f303f54ca6ab186","2","42","null","","","","","","","","","<p style='font-size: 30px;'><strong>Okay</strong></p>","null","neutral_feedback","1","test","10","","","","","","","",""
"","","","","","","","","","","","html-button-response","225","2.0.0","982084","6228f5900f303f54ca6ab186","2","42","5047","","","","","","","","","<img src= ""rock_img/I_Andesite_09.jpg"" style=""width:8cm; height:6cm;""><p>What type of rock is this?</p>","1","class_response","1","test","11","Basalt","Andesite","09","false","2","1","",""
"","","","","","","","","","","","html-keyboard-response","226","2.0.0","982585","6228f5900f303f54ca6ab186","2","42","null","","","","","","","","","<p style='font-size: 30px;'><strong>Okay</strong></p>","null","neutral_feedback","1","test","11","","","","","","","",""
"","","","","","","","","","","","html-button-response","227","2.0.0","984305","6228f5900f303f54ca6ab186","2","42","1718","","","","","","","","","<img src= ""rock_img/I_Andesite_07.jpg"" style=""width:8cm; height:5.93cm;""><p>What type of rock is this?</p>","2","class_response","1","test","12","Diorite","Andesite","07","false","3","1","",""
"","","","","","","","","","","","html-keyboard-response","228","2.0.0","984807","6228f5900f303f54ca6ab186","2","42","null","","","","","","","","","<p style='font-size: 30px;'><strong>Okay</strong></p>","null","neutral_feedback","1","test","12","","","","","","","",""
"","","","","","","","","","","","html-button-response","229","2.0.0","988408","6228f5900f303f54ca6ab186","2","42","3599","","","","","","","","","<img src= ""rock_img/I_Peridotite_16.jpg"" style=""width:8cm; height:6.989999999999999cm;""><p>What type of rock is this?</p>","6","class_response","1","test","13","Peridotite","Peridotite","16","true","7","7","",""
"","","","","","","","","","","","html-keyboard-response","230","2.0.0","988910","6228f5900f303f54ca6ab186","2","42","null","","","","","","","","","<p style='font-size: 30px;'><strong>Okay</strong></p>","null","neutral_feedback","1","test","13","","","","","","","",""
"","","","","","","","","","","","html-button-response","231","2.0.0","993209","6228f5900f303f54ca6ab186","2","42","4297","","","","","","","","","<img src= ""rock_img/I_Andesite_04.jpg"" style=""width:8cm; height:5.96cm;""><p>What type of rock is this?</p>","0","class_response","1","test","14","Andesite","Andesite","04","true","1","1","",""
"","","","","","","","","","","","html-keyboard-response","232","2.0.0","993711","6228f5900f303f54ca6ab186","2","42","null","","","","","","","","","<p style='font-size: 30px;'><strong>Okay</strong></p>","null","neutral_feedback","1","test","14","","","","","","","",""
"","","","","","","","","","","","html-button-response","233","2.0.0","995202","6228f5900f303f54ca6ab186","2","42","1489","","","","","","","","","<img src= ""rock_img/I_Pegmatite_11.jpg"" style=""width:8cm; height:8.14cm;""><p>What type of rock is this?</p>","5","class_response","1","test","15","Pegmatite","Pegmatite","11","true","6","6","",""
"","","","","","","","","","","","html-keyboard-response","234","2.0.0","995703","6228f5900f303f54ca6ab186","2","42","null","","","","","","","","","<p style='font-size: 30px;'><strong>Okay</strong></p>","null","neutral_feedback","1","test","15","","","","","","","",""
"","","","","","","","","","","","html-button-response","235","2.0.0","996980","6228f5900f303f54ca6ab186","2","42","1276","","","","","","","","","<img src= ""rock_img/I_Obsidian_04.jpg"" style=""width:8cm; height:6.930000000000001cm;""><p>What type of rock is this?</p>","4","class_response","1","test","16","Obsidian","Obsidian","04","true","5","5","",""
"","","","","","","","","","","","html-keyboard-response","236","2.0.0","997482","6228f5900f303f54ca6ab186","2","42","null","","","","","","","","","<p style='font-size: 30px;'><strong>Okay</strong></p>","null","neutral_feedback","1","test","16","","","","","","","",""
"","","","","","","","","","","","html-button-response","237","2.0.0","999089","6228f5900f303f54ca6ab186","2","42","1604","","","","","","","","","<img src= ""rock_img/I_Pumice_04.jpg"" style=""width:8cm; height:6.819999999999999cm;""><p>What type of rock is this?</p>","7","class_response","1","test","17","Pumice","Pumice","04","true","8","8","",""
"","","","","","","","","","","","html-keyboard-response","238","2.0.0","999590","6228f5900f303f54ca6ab186","2","42","null","","","","","","","","","<p style='font-size: 30px;'><strong>Okay</strong></p>","null","neutral_feedback","1","test","17","","","","","","","",""
"","","","","","","","","","","","html-button-response","239","2.0.0","1001581","6228f5900f303f54ca6ab186","2","42","1989","","","","","","","","","<img src= ""rock_img/I_Basalt_10.jpg"" style=""width:8cm; height:5.85cm;""><p>What type of rock is this?</p>","1","class_response","1","test","18","Basalt","Basalt","10","true","2","2","",""
"","","","","","","","","","","","html-keyboard-response","240","2.0.0","1002082","6228f5900f303f54ca6ab186","2","42","null","","","","","","","","","<p style='font-size: 30px;'><strong>Okay</strong></p>","null","neutral_feedback","1","test","18","","","","","","","",""
"","","","","","","","","","","","html-button-response","241","2.0.0","1003453","6228f5900f303f54ca6ab186","2","42","1369","","","","","","","","","<img src= ""rock_img/I_Diorite_02.jpg"" style=""width:8cm; height:6.27cm;""><p>What type of rock is this?</p>","2","class_response","1","test","19","Diorite","Diorite","02","true","3","3","",""
"","","","","","","","","","","","html-keyboard-response","242","2.0.0","1003955","6228f5900f303f54ca6ab186","2","42","null","","","","","","","","","<p style='font-size: 30px;'><strong>Okay</strong></p>","null","neutral_feedback","1","test","19","","","","","","","",""
"","","","","","","","","","","","html-button-response","243","2.0.0","1005813","6228f5900f303f54ca6ab186","2","42","1856","","","","","","","","","<img src= ""rock_img/I_Basalt_02.jpg"" style=""width:8cm; height:6.45cm;""><p>What type of rock is this?</p>","1","class_response","1","test","20","Basalt","Basalt","02","true","2","2","",""
"","","","","","","","","","","","html-keyboard-response","244","2.0.0","1006315","6228f5900f303f54ca6ab186","2","42","null","","","","","","","","","<p style='font-size: 30px;'><strong>Okay</strong></p>","null","neutral_feedback","1","test","20","","","","","","","",""
"","","","","","","","","","","","html-button-response","245","2.0.0","1007623","6228f5900f303f54ca6ab186","2","42","1305","","","","","","","","","<img src= ""rock_img/I_Diorite_16.jpg"" style=""width:8cm; height:6.74cm;""><p>What type of rock is this?</p>","2","class_response","1","test","21","Diorite","Diorite","16","true","3","3","",""
"","","","","","","","","","","","html-keyboard-response","246","2.0.0","1008124","6228f5900f303f54ca6ab186","2","42","null","","","","","","","","","<p style='font-size: 30px;'><strong>Okay</strong></p>","null","neutral_feedback","1","test","21","","","","","","","",""
"","","","","","","","","","","","html-button-response","247","2.0.0","1010022","6228f5900f303f54ca6ab186","2","42","1896","","","","","","","","","<img src= ""rock_img/I_Pegmatite_10.jpg"" style=""width:8cm; height:4.16cm;""><p>What type of rock is this?</p>","5","class_response","1","test","22","Pegmatite","Pegmatite","10","true","6","6","",""
"","","","","","","","","","","","html-keyboard-response","248","2.0.0","1010523","6228f5900f303f54ca6ab186","2","42","null","","","","","","","","","<p style='font-size: 30px;'><strong>Okay</strong></p>","null","neutral_feedback","1","test","22","","","","","","","",""
"","","","","","","","","","","","html-button-response","249","2.0.0","1016469","6228f5900f303f54ca6ab186","2","42","5944","","","","","","","","","<img src= ""rock_img/I_Andesite_06.jpg"" style=""width:8cm; height:6.840000000000001cm;""><p>What type of rock is this?</p>","0","class_response","1","test","23","Andesite","Andesite","06","true","1","1","",""
"","","","","","","","","","","","html-keyboard-response","250","2.0.0","1016971","6228f5900f303f54ca6ab186","2","42","null","","","","","","","","","<p style='font-size: 30px;'><strong>Okay</strong></p>","null","neutral_feedback","1","test","23","","","","","","","",""
"","","","","","","","","","","","html-button-response","251","2.0.0","1018368","6228f5900f303f54ca6ab186","2","42","1395","","","","","","","","","<img src= ""rock_img/I_Obsidian_02.jpg"" style=""width:8cm; height:7.51cm;""><p>What type of rock is this?</p>","4","class_response","1","test","24","Obsidian","Obsidian","02","true","5","5","",""
"","","","","","","","","","","","html-keyboard-response","252","2.0.0","1018870","6228f5900f303f54ca6ab186","2","42","null","","","","","","","","","<p style='font-size: 30px;'><strong>Okay</strong></p>","null","neutral_feedback","1","test","24","","","","","","","",""
"","","","","","","","","","","","html-button-response","253","2.0.0","1022964","6228f5900f303f54ca6ab186","2","42","4092","","","","","","","","","<img src= ""rock_img/I_Andesite_02.jpg"" style=""width:8cm; height:8.5cm;""><p>What type of rock is this?</p>","3","class_response","1","test","25","Gabbro","Andesite","02","false","4","1","",""
"","","","","","","","","","","","html-keyboard-response","254","2.0.0","1023466","6228f5900f303f54ca6ab186","2","42","null","","","","","","","","","<p style='font-size: 30px;'><strong>Okay</strong></p>","null","neutral_feedback","1","test","25","","","","","","","",""
"","","","","","","","","","","","html-button-response","255","2.0.0","1025126","6228f5900f303f54ca6ab186","2","42","1659","","","","","","","","","<img src= ""rock_img/I_Gabbro_03.jpg"" style=""width:8cm; height:8.52cm;""><p>What type of rock is this?</p>","2","class_response","1","test","26","Diorite","Gabbro","03","false","3","4","",""
"","","","","","","","","","","","html-keyboard-response","256","2.0.0","1025628","6228f5900f303f54ca6ab186","2","42","null","","","","","","","","","<p style='font-size: 30px;'><strong>Okay</strong></p>","null","neutral_feedback","1","test","26","","","","","","","",""
"","","","","","","","","","","","html-button-response","257","2.0.0","1028271","6228f5900f303f54ca6ab186","2","42","2642","","","","","","","","","<img src= ""rock_img/I_Basalt_14.jpg"" style=""width:8cm; height:5.82cm;""><p>What type of rock is this?</p>","3","class_response","1","test","27","Gabbro","Basalt","14","false","4","2","",""
"","","","","","","","","","","","html-keyboard-response","258","2.0.0","1028773","6228f5900f303f54ca6ab186","2","42","null","","","","","","","","","<p style='font-size: 30px;'><strong>Okay</strong></p>","null","neutral_feedback","1","test","27","","","","","","","",""
"","","","","","","","","","","","html-button-response","259","2.0.0","1033905","6228f5900f303f54ca6ab186","2","42","5130","","","","","","","","","<img src= ""rock_img/I_Obsidian_14.jpg"" style=""width:8cm; height:7.64cm;""><p>What type of rock is this?</p>","1","class_response","1","test","28","Basalt","Obsidian","14","false","2","5","",""
"","","","","","","","","","","","html-keyboard-response","260","2.0.0","1034406","6228f5900f303f54ca6ab186","2","42","null","","","","","","","","","<p style='font-size: 30px;'><strong>Okay</strong></p>","null","neutral_feedback","1","test","28","","","","","","","",""
"","","","","","","","","","","","html-button-response","261","2.0.0","1035991","6228f5900f303f54ca6ab186","2","42","1582","","","","","","","","","<img src= ""rock_img/I_Pumice_05.jpg"" style=""width:8cm; height:7.25cm;""><p>What type of rock is this?</p>","7","class_response","1","test","29","Pumice","Pumice","05","true","8","8","",""
"","","","","","","","","","","","html-keyboard-response","262","2.0.0","1036492","6228f5900f303f54ca6ab186","2","42","null","","","","","","","","","<p style='font-size: 30px;'><strong>Okay</strong></p>","null","neutral_feedback","1","test","29","","","","","","","",""
"","","","","","","","","","","","html-button-response","263","2.0.0","1038524","6228f5900f303f54ca6ab186","2","42","2030","","","","","","","","","<img src= ""rock_img/I_Basalt_01.jpg"" style=""width:8cm; height:7.880000000000001cm;""><p>What type of rock is this?</p>","1","class_response","1","test","30","Basalt","Basalt","01","true","2","2","",""
"","","","","","","","","","","","html-keyboard-response","264","2.0.0","1039027","6228f5900f303f54ca6ab186","2","42","null","","","","","","","","","<p style='font-size: 30px;'><strong>Okay</strong></p>","null","neutral_feedback","1","test","30","","","","","","","",""
"","","","","","","","","","","","html-button-response","265","2.0.0","1040391","6228f5900f303f54ca6ab186","2","42","1363","","","","","","","","","<img src= ""rock_img/I_Pegmatite_16.jpg"" style=""width:8cm; height:5.8cm;""><p>What type of rock is this?</p>","5","class_response","1","test","31","Pegmatite","Pegmatite","16","true","6","6","",""
"","","","","","","","","","","","html-keyboard-response","266","2.0.0","1040893","6228f5900f303f54ca6ab186","2","42","null","","","","","","","","","<p style='font-size: 30px;'><strong>Okay</strong></p>","null","neutral_feedback","1","test","31","","","","","","","",""
"","","","","","","","","","","","html-button-response","267","2.0.0","1043427","6228f5900f303f54ca6ab186","2","42","2532","","","","","","","","","<img src= ""rock_img/I_Gabbro_16.jpg"" style=""width:8cm; height:6.44cm;""><p>What type of rock is this?</p>","3","class_response","1","test","32","Gabbro","Gabbro","16","true","4","4","",""
"","","","","","","","","","","","html-keyboard-response","268","2.0.0","1043929","6228f5900f303f54ca6ab186","2","42","null","","","","","","","","","<p style='font-size: 30px;'><strong>Okay</strong></p>","null","neutral_feedback","1","test","32","","","","","","","",""
"","","","","","","","","","","","html-button-response","269","2.0.0","1049779","6228f5900f303f54ca6ab186","2","42","5848","","","","","","","","","<img src= ""rock_img/I_Peridotite_12.jpg"" style=""width:8cm; height:4.54cm;""><p>What type of rock is this?</p>","2","class_response","1","test","33","Diorite","Peridotite","12","false","3","7","",""
"","","","","","","","","","","","html-keyboard-response","270","2.0.0","1050281","6228f5900f303f54ca6ab186","2","42","null","","","","","","","","","<p style='font-size: 30px;'><strong>Okay</strong></p>","null","neutral_feedback","1","test","33","","","","","","","",""
"","","","","","","","","","","","html-button-response","271","2.0.0","1051565","6228f5900f303f54ca6ab186","2","42","1282","","","","","","","","","<img src= ""rock_img/I_Diorite_12.jpg"" style=""width:8cm; height:4.88cm;""><p>What type of rock is this?</p>","2","class_response","1","test","34","Diorite","Diorite","12","true","3","3","",""
"","","","","","","","","","","","html-keyboard-response","272","2.0.0","1052067","6228f5900f303f54ca6ab186","2","42","null","","","","","","","","","<p style='font-size: 30px;'><strong>Okay</strong></p>","null","neutral_feedback","1","test","34","","","","","","","",""
"","","","","","","","","","","","html-button-response","273","2.0.0","1056814","6228f5900f303f54ca6ab186","2","42","4746","","","","","","","","","<img src= ""rock_img/I_Peridotite_02.jpg"" style=""width:8cm; height:5.859999999999999cm;""><p>What type of rock is this?</p>","6","class_response","1","test","35","Peridotite","Peridotite","02","true","7","7","",""
"","","","","","","","","","","","html-keyboard-response","274","2.0.0","1057317","6228f5900f303f54ca6ab186","2","42","null","","","","","","","","","<p style='font-size: 30px;'><strong>Okay</strong></p>","null","neutral_feedback","1","test","35","","","","","","","",""
"","","","","","","","","","","","html-button-response","275","2.0.0","1058981","6228f5900f303f54ca6ab186","2","42","1663","","","","","","","","","<img src= ""rock_img/I_Pegmatite_05.jpg"" style=""width:8cm; height:7.300000000000001cm;""><p>What type of rock is this?</p>","5","class_response","1","test","36","Pegmatite","Pegmatite","05","true","6","6","",""
"","","","","","","","","","","","html-keyboard-response","276","2.0.0","1059484","6228f5900f303f54ca6ab186","2","42","null","","","","","","","","","<p style='font-size: 30px;'><strong>Okay</strong></p>","null","neutral_feedback","1","test","36","","","","","","","",""
"","","","","","","","","","","","html-button-response","277","2.0.0","1062334","6228f5900f303f54ca6ab186","2","42","2848","","","","","","","","","<img src= ""rock_img/I_Gabbro_09.jpg"" style=""width:8cm; height:7.279999999999999cm;""><p>What type of rock is this?</p>","3","class_response","1","test","37","Gabbro","Gabbro","09","true","4","4","",""
"","","","","","","","","","","","html-keyboard-response","278","2.0.0","1062837","6228f5900f303f54ca6ab186","2","42","null","","","","","","","","","<p style='font-size: 30px;'><strong>Okay</strong></p>","null","neutral_feedback","1","test","37","","","","","","","",""
"","","","","","","","","","","","html-button-response","279","2.0.0","1066708","6228f5900f303f54ca6ab186","2","42","3869","","","","","","","","","<img src= ""rock_img/I_Pumice_16.jpg"" style=""width:8cm; height:6.79cm;""><p>What type of rock is this?</p>","0","class_response","1","test","38","Andesite","Pumice","16","false","1","8","",""
"","","","","","","","","","","","html-keyboard-response","280","2.0.0","1067210","6228f5900f303f54ca6ab186","2","42","null","","","","","","","","","<p style='font-size: 30px;'><strong>Okay</strong></p>","null","neutral_feedback","1","test","38","","","","","","","",""
"","","","","","","","","","","","html-button-response","281","2.0.0","1068767","6228f5900f303f54ca6ab186","2","42","1555","","","","","","","","","<img src= ""rock_img/I_Diorite_15.jpg"" style=""width:8cm; height:5.54cm;""><p>What type of rock is this?</p>","2","class_response","1","test","39","Diorite","Diorite","15","true","3","3","",""
"","","","","","","","","","","","html-keyboard-response","282","2.0.0","1069268","6228f5900f303f54ca6ab186","2","42","null","","","","","","","","","<p style='font-size: 30px;'><strong>Okay</strong></p>","null","neutral_feedback","1","test","39","","","","","","","",""
"","","","","","","","","","","","html-button-response","283","2.0.0","1070656","6228f5900f303f54ca6ab186","2","42","1385","","","","","","","","","<img src= ""rock_img/I_Pegmatite_13.jpg"" style=""width:8cm; height:4.95cm;""><p>What type of rock is this?</p>","5","class_response","1","test","40","Pegmatite","Pegmatite","13","true","6","6","",""
"","","","","","","","","","","","html-keyboard-response","284","2.0.0","1071158","6228f5900f303f54ca6ab186","2","42","null","","","","","","","","","<p style='font-size: 30px;'><strong>Okay</strong></p>","null","neutral_feedback","1","test","40","","","","","","","",""
"","","","","","","","","","","","html-button-response","285","2.0.0","1078856","6228f5900f303f54ca6ab186","2","42","7700","","","","","","","","","<img src= ""rock_img/I_Peridotite_07.jpg"" style=""width:8cm; height:4.83cm;""><p>What type of rock is this?</p>","6","class_response","1","test","41","Peridotite","Peridotite","07","true","7","7","",""
"","","","","","","","","","","","html-keyboard-response","286","2.0.0","1079358","6228f5900f303f54ca6ab186","2","42","null","","","","","","","","","<p style='font-size: 30px;'><strong>Okay</strong></p>","null","neutral_feedback","1","test","41","","","","","","","",""
"","","","","","","","","","","","html-button-response","287","2.0.0","1081362","6228f5900f303f54ca6ab186","2","42","2003","","","","","","","","","<img src= ""rock_img/I_Diorite_06.jpg"" style=""width:8cm; height:6.03cm;""><p>What type of rock is this?</p>","2","class_response","1","test","42","Diorite","Diorite","06","true","3","3","",""
"","","","","","","","","","","","html-keyboard-response","288","2.0.0","1081863","6228f5900f303f54ca6ab186","2","42","null","","","","","","","","","<p style='font-size: 30px;'><strong>Okay</strong></p>","null","neutral_feedback","1","test","42","","","","","","","",""
"","","","","","","","","","","","html-button-response","289","2.0.0","1086728","6228f5900f303f54ca6ab186","2","42","4866","","","","","","","","","<img src= ""rock_img/I_Gabbro_05.jpg"" style=""width:8cm; height:6cm;""><p>What type of rock is this?</p>","0","class_response","1","test","43","Andesite","Gabbro","05","false","1","4","",""
"","","","","","","","","","","","html-keyboard-response","290","2.0.0","1087230","6228f5900f303f54ca6ab186","2","42","null","","","","","","","","","<p style='font-size: 30px;'><strong>Okay</strong></p>","null","neutral_feedback","1","test","43","","","","","","","",""
"","","","","","","","","","","","html-button-response","291","2.0.0","1088965","6228f5900f303f54ca6ab186","2","42","1734","","","","","","","","","<img src= ""rock_img/I_Obsidian_05.jpg"" style=""width:8cm; height:6.33cm;""><p>What type of rock is this?</p>","4","class_response","1","test","44","Obsidian","Obsidian","05","true","5","5","",""
"","","","","","","","","","","","html-keyboard-response","292","2.0.0","1089467","6228f5900f303f54ca6ab186","2","42","null","","","","","","","","","<p style='font-size: 30px;'><strong>Okay</strong></p>","null","neutral_feedback","1","test","44","","","","","","","",""
"","","","","","","","","","","","html-button-response","293","2.0.0","1090760","6228f5900f303f54ca6ab186","2","42","1291","","","","","","","","","<img src= ""rock_img/I_Obsidian_11.jpg"" style=""width:8cm; height:6.05cm;""><p>What type of rock is this?</p>","4","class_response","1","test","45","Obsidian","Obsidian","11","true","5","5","",""
"","","","","","","","","","","","html-keyboard-response","294","2.0.0","1091261","6228f5900f303f54ca6ab186","2","42","null","","","","","","","","","<p style='font-size: 30px;'><strong>Okay</strong></p>","null","neutral_feedback","1","test","45","","","","","","","",""
"","","","","","","","","","","","html-button-response","295","2.0.0","1092911","6228f5900f303f54ca6ab186","2","42","1648","","","","","","","","","<img src= ""rock_img/I_Pumice_02.jpg"" style=""width:8cm; height:7.3999999999999995cm;""><p>What type of rock is this?</p>","7","class_response","1","test","46","Pumice","Pumice","02","true","8","8","",""
"","","","","","","","","","","","html-keyboard-response","296","2.0.0","1093413","6228f5900f303f54ca6ab186","2","42","null","","","","","","","","","<p style='font-size: 30px;'><strong>Okay</strong></p>","null","neutral_feedback","1","test","46","","","","","","","",""
"","","","","","","","","","","","html-button-response","297","2.0.0","1098522","6228f5900f303f54ca6ab186","2","42","5109","","","","","","","","","<img src= ""rock_img/I_Peridotite_04.jpg"" style=""width:8cm; height:6.680000000000001cm;""><p>What type of rock is this?</p>","3","class_response","1","test","47","Gabbro","Peridotite","04","false","4","7","",""
"","","","","","","","","","","","html-keyboard-response","298","2.0.0","1099023","6228f5900f303f54ca6ab186","2","42","null","","","","","","","","","<p style='font-size: 30px;'><strong>Okay</strong></p>","null","neutral_feedback","1","test","47","","","","","","","",""
"","","","","","","","","","","","html-button-response","299","2.0.0","1100756","6228f5900f303f54ca6ab186","2","42","1732","","","","","","","","","<img src= ""rock_img/I_Basalt_04.jpg"" style=""width:8cm; height:7.53cm;""><p>What type of rock is this?</p>","1","class_response","1","test","48","Basalt","Basalt","04","true","2","2","",""
"","","","","","","","","","","","html-keyboard-response","300","2.0.0","1101258","6228f5900f303f54ca6ab186","2","42","null","","","","","","","","","<p style='font-size: 30px;'><strong>Okay</strong></p>","null","neutral_feedback","1","test","48","","","","","","","",""
"","","","","","","","","","","","html-button-response","301","2.0.0","1179163","6228f5900f303f54ca6ab186","2","42","","","","","","","","","","","","cycle_feedback","","","","","","","","","","44403.30000000005","33496"
"","","","","","","","","","","","html-button-response","303","2.0.0","1180942","6228f5900f303f54ca6ab186","2","42","1777","","","","","","","","","","0","start_train","","","","","","","","","","",""
"","","","","","","","","","","","html-button-response","304","2.0.0","1191331","6228f5900f303f54ca6ab186","2","42","10387","","","","","","","","","<img src= ""rock_img/I_Peridotite_05.jpg"" style=""width:8cm; height:7.1499999999999995cm;""><p>What type of rock is this?</p>","6","class_response","2","train","1","Peridotite","Peridotite","05","true","7","7","",""
