"width","height","webaudio","browser","browser_version","mobile","os","fullscreen","vsync_rate","webcam","microphone","trial_type","trial_index","plugin_version","time_elapsed","subjID","condition","stimID","rt","url","success","value","timeout","failed_images","failed_audio","failed_video","view_history","stimulus","response","trialType","cycle","phase","trial","resp","cat","token","corr","resp_num","cat_num","time_fb1","time_fb2"
"1728","992","true","chrome","130.0.0","false","Mac OS","true","120.22","true","true","browser-check","0","2.0.0","507","6604276e62cf4a8392d9a5eb","2","28","","","","","","","","","","","","","","","","","","","","","","",""
"","","","","","","","","","","","external-html","1","2.0.0","16184","6604276e62cf4a8392d9a5eb","2","28","15594","consent_form.html","","","","","","","","","","","","","","","","","","","","",""
"","","","","","","","","","","","fullscreen","2","2.0.0","18735","6604276e62cf4a8392d9a5eb","2","28","1547","","true","","","","","","","","","","","","","","","","","","","",""
"","","","","","","","","","","","call-function","3","2.0.0","18738","6604276e62cf4a8392d9a5eb","2","28","","","","{}","","","","","","","","","","","","","","","","","","",""
"","","","","","","","","","","","preload","4","2.0.0","22297","6604276e62cf4a8392d9a5eb","2","28","","","true","","false","[]","[]","[]","","","","","","","","","","","","","","",""
"","","","","","","","","","","","instructions","5","2.0.0","89565","6604276e62cf4a8392d9a5eb","2","28","67266","","","","","","","","[{""page_index"":0,""viewing_time"":7146},{""page_index"":1,""viewing_time"":53752},{""page_index"":2,""viewing_time"":6368}]","","","","","","","","","","","","","",""
"","","","","","","","","","","","html-button-response","6","2.0.0","91723","6604276e62cf4a8392d9a5eb","2","28","2154","","","","","","","","","","0","start_test","","","","","","","","","","",""
"","","","","","","","","","","","html-button-response","7","2.0.0","244206","6604276e62cf4a8392d9a5eb","2","28","152479","","","","","","","","","<img src= ""rock_img/I_Gabbro_15.jpg"" style=""width:8cm; height:6.29cm;""><p>What type of rock is this?</p>","3","class_response","0","test","1","Gabbro","Gabbro","15","true","4","4","",""
"","","","","","","","","","","","html-keyboard-response","8","2.0.0","244709","6604276e62cf4a8392d9a5eb","2","28","null","","","","","","","","","<p style='font-size: 30px;'><strong>Okay</strong></p>","null","neutral_feedback","0","test","1","","","","","","","",""
"","","","","","","","","","","","html-button-response","9","2.0.0","284239","6604276e62cf4a8392d9a5eb","2","28","39526","","","","","","","","","<img src= ""rock_img/I_Pegmatite_11.jpg"" style=""width:8cm; height:8.14cm;""><p>What type of rock is this?</p>","4","class_response","0","test","2","Obsidian","Pegmatite","11","false","5","6","",""
"","","","","","","","","","","","html-keyboard-response","10","2.0.0","284742","6604276e62cf4a8392d9a5eb","2","28","null","","","","","","","","","<p style='font-size: 30px;'><strong>Okay</strong></p>","null","neutral_feedback","0","test","2","","","","","","","",""
"","","","","","","","","","","","html-button-response","11","2.0.0","341233","6604276e62cf4a8392d9a5eb","2","28","56487","","","","","","","","","<img src= ""rock_img/I_Diorite_12.jpg"" style=""width:8cm; height:4.88cm;""><p>What type of rock is this?</p>","2","class_response","0","test","3","Diorite","Diorite","12","true","3","3","",""
"","","","","","","","","","","","html-keyboard-response","12","2.0.0","341735","6604276e62cf4a8392d9a5eb","2","28","null","","","","","","","","","<p style='font-size: 30px;'><strong>Okay</strong></p>","null","neutral_feedback","0","test","3","","","","","","","",""
"","","","","","","","","","","","html-button-response","13","2.0.0","355801","6604276e62cf4a8392d9a5eb","2","28","14063","","","","","","","","","<img src= ""rock_img/I_Pegmatite_08.jpg"" style=""width:8cm; height:7.68cm;""><p>What type of rock is this?</p>","5","class_response","0","test","4","Pegmatite","Pegmatite","08","true","6","6","",""
"","","","","","","","","","","","html-keyboard-response","14","2.0.0","356303","6604276e62cf4a8392d9a5eb","2","28","null","","","","","","","","","<p style='font-size: 30px;'><strong>Okay</strong></p>","null","neutral_feedback","0","test","4","","","","","","","",""
"","","","","","","","","","","","html-button-response","15","2.0.0","370409","6604276e62cf4a8392d9a5eb","2","28","14102","","","","","","","","","<img src= ""rock_img/I_Basalt_11.jpg"" style=""width:8cm; height:5.359999999999999cm;""><p>What type of rock is this?</p>","7","class_response","0","test","5","Pumice","Basalt","11","false","8","2","",""
"","","","","","","","","","","","html-keyboard-response","16","2.0.0","370911","6604276e62cf4a8392d9a5eb","2","28","null","","","","","","","","","<p style='font-size: 30px;'><strong>Okay</strong></p>","null","neutral_feedback","0","test","5","","","","","","","",""
"","","","","","","","","","","","html-button-response","17","2.0.0","372806","6604276e62cf4a8392d9a5eb","2","28","1892","","","","","","","","","<img src= ""rock_img/I_Obsidian_09.jpg"" style=""width:8cm; height:5cm;""><p>What type of rock is this?</p>","4","class_response","0","test","6","Obsidian","Obsidian","09","true","5","5","",""
"","","","","","","","","","","","html-keyboard-response","18","2.0.0","373307","6604276e62cf4a8392d9a5eb","2","28","null","","","","","","","","","<p style='font-size: 30px;'><strong>Okay</strong></p>","null","neutral_feedback","0","test","6","","","","","","","",""
"","","","","","","","","","","","html-button-response","19","2.0.0","389964","6604276e62cf4a8392d9a5eb","2","28","16655","","","","","","","","","<img src= ""rock_img/I_Gabbro_10.jpg"" style=""width:8cm; height:5.680000000000001cm;""><p>What type of rock is this?</p>","1","class_response","0","test","7","Basalt","Gabbro","10","false","2","4","",""
"","","","","","","","","","","","html-keyboard-response","20","2.0.0","390466","6604276e62cf4a8392d9a5eb","2","28","null","","","","","","","","","<p style='font-size: 30px;'><strong>Okay</strong></p>","null","neutral_feedback","0","test","7","","","","","","","",""
"","","","","","","","","","","","html-button-response","21","2.0.0","392632","6604276e62cf4a8392d9a5eb","2","28","2165","","","","","","","","","<img src= ""rock_img/I_Pumice_04.jpg"" style=""width:8cm; height:6.819999999999999cm;""><p>What type of rock is this?</p>","7","class_response","0","test","8","Pumice","Pumice","04","true","8","8","",""
"","","","","","","","","","","","html-keyboard-response","22","2.0.0","393134","6604276e62cf4a8392d9a5eb","2","28","null","","","","","","","","","<p style='font-size: 30px;'><strong>Okay</strong></p>","null","neutral_feedback","0","test","8","","","","","","","",""
"","","","","","","","","","","","html-button-response","23","2.0.0","400430","6604276e62cf4a8392d9a5eb","2","28","7295","","","","","","","","","<img src= ""rock_img/I_Basalt_02.jpg"" style=""width:8cm; height:6.45cm;""><p>What type of rock is this?</p>","1","class_response","0","test","9","Basalt","Basalt","02","true","2","2","",""
"","","","","","","","","","","","html-keyboard-response","24","2.0.0","400932","6604276e62cf4a8392d9a5eb","2","28","null","","","","","","","","","<p style='font-size: 30px;'><strong>Okay</strong></p>","null","neutral_feedback","0","test","9","","","","","","","",""
"","","","","","","","","","","","html-button-response","25","2.0.0","411428","6604276e62cf4a8392d9a5eb","2","28","10493","","","","","","","","","<img src= ""rock_img/I_Peridotite_14.jpg"" style=""width:8cm; height:5.3cm;""><p>What type of rock is this?</p>","6","class_response","0","test","10","Peridotite","Peridotite","14","true","7","7","",""
"","","","","","","","","","","","html-keyboard-response","26","2.0.0","411930","6604276e62cf4a8392d9a5eb","2","28","null","","","","","","","","","<p style='font-size: 30px;'><strong>Okay</strong></p>","null","neutral_feedback","0","test","10","","","","","","","",""
"","","","","","","","","","","","html-button-response","27","2.0.0","424293","6604276e62cf4a8392d9a5eb","2","28","12360","","","","","","","","","<img src= ""rock_img/I_Gabbro_08.jpg"" style=""width:8cm; height:5.15cm;""><p>What type of rock is this?</p>","0","class_response","0","test","11","Andesite","Gabbro","08","false","1","4","",""
"","","","","","","","","","","","html-keyboard-response","28","2.0.0","424795","6604276e62cf4a8392d9a5eb","2","28","null","","","","","","","","","<p style='font-size: 30px;'><strong>Okay</strong></p>","null","neutral_feedback","0","test","11","","","","","","","",""
"","","","","","","","","","","","html-button-response","29","2.0.0","464003","6604276e62cf4a8392d9a5eb","2","28","39207","","","","","","","","","<img src= ""rock_img/I_Gabbro_09.jpg"" style=""width:8cm; height:7.279999999999999cm;""><p>What type of rock is this?</p>","5","class_response","0","test","12","Pegmatite","Gabbro","09","false","6","4","",""
"","","","","","","","","","","","html-keyboard-response","30","2.0.0","464506","6604276e62cf4a8392d9a5eb","2","28","null","","","","","","","","","<p style='font-size: 30px;'><strong>Okay</strong></p>","null","neutral_feedback","0","test","12","","","","","","","",""
"","","","","","","","","","","","html-button-response","31","2.0.0","499193","6604276e62cf4a8392d9a5eb","2","28","34685","","","","","","","","","<img src= ""rock_img/I_Obsidian_07.jpg"" style=""width:8cm; height:4.76cm;""><p>What type of rock is this?</p>","4","class_response","0","test","13","Obsidian","Obsidian","07","true","5","5","",""
"","","","","","","","","","","","html-keyboard-response","32","2.0.0","499696","6604276e62cf4a8392d9a5eb","2","28","null","","","","","","","","","<p style='font-size: 30px;'><strong>Okay</strong></p>","null","neutral_feedback","0","test","13","","","","","","","",""
"","","","","","","","","","","","html-button-response","33","2.0.0","502323","6604276e62cf4a8392d9a5eb","2","28","2625","","","","","","","","","<img src= ""rock_img/I_Obsidian_05.jpg"" style=""width:8cm; height:6.33cm;""><p>What type of rock is this?</p>","6","class_response","0","test","14","Peridotite","Obsidian","05","false","7","5","",""
"","","","","","","","","","","","html-keyboard-response","34","2.0.0","502826","6604276e62cf4a8392d9a5eb","2","28","null","","","","","","","","","<p style='font-size: 30px;'><strong>Okay</strong></p>","null","neutral_feedback","0","test","14","","","","","","","",""
"","","","","","","","","","","","html-button-response","35","2.0.0","504436","6604276e62cf4a8392d9a5eb","2","28","1607","","","","","","","","","<img src= ""rock_img/I_Peridotite_07.jpg"" style=""width:8cm; height:4.83cm;""><p>What type of rock is this?</p>","6","class_response","0","test","15","Peridotite","Peridotite","07","true","7","7","",""
"","","","","","","","","","","","html-keyboard-response","36","2.0.0","504938","6604276e62cf4a8392d9a5eb","2","28","null","","","","","","","","","<p style='font-size: 30px;'><strong>Okay</strong></p>","null","neutral_feedback","0","test","15","","","","","","","",""
"","","","","","","","","","","","html-button-response","37","2.0.0","512842","6604276e62cf4a8392d9a5eb","2","28","7901","","","","","","","","","<img src= ""rock_img/I_Basalt_04.jpg"" style=""width:8cm; height:7.53cm;""><p>What type of rock is this?</p>","1","class_response","0","test","16","Basalt","Basalt","04","true","2","2","",""
"","","","","","","","","","","","html-keyboard-response","38","2.0.0","513344","6604276e62cf4a8392d9a5eb","2","28","null","","","","","","","","","<p style='font-size: 30px;'><strong>Okay</strong></p>","null","neutral_feedback","0","test","16","","","","","","","",""
"","","","","","","","","","","","html-button-response","39","2.0.0","515702","6604276e62cf4a8392d9a5eb","2","28","2356","","","","","","","","","<img src= ""rock_img/I_Peridotite_05.jpg"" style=""width:8cm; height:7.1499999999999995cm;""><p>What type of rock is this?</p>","6","class_response","0","test","17","Peridotite","Peridotite","05","true","7","7","",""
"","","","","","","","","","","","html-keyboard-response","40","2.0.0","516205","6604276e62cf4a8392d9a5eb","2","28","null","","","","","","","","","<p style='font-size: 30px;'><strong>Okay</strong></p>","null","neutral_feedback","0","test","17","","","","","","","",""
"","","","","","","","","","","","html-button-response","41","2.0.0","523157","6604276e62cf4a8392d9a5eb","2","28","6949","","","","","","","","","<img src= ""rock_img/I_Andesite_03.jpg"" style=""width:8cm; height:5.73cm;""><p>What type of rock is this?</p>","0","class_response","0","test","18","Andesite","Andesite","03","true","1","1","",""
"","","","","","","","","","","","html-keyboard-response","42","2.0.0","523660","6604276e62cf4a8392d9a5eb","2","28","null","","","","","","","","","<p style='font-size: 30px;'><strong>Okay</strong></p>","null","neutral_feedback","0","test","18","","","","","","","",""
"","","","","","","","","","","","html-button-response","43","2.0.0","553818","6604276e62cf4a8392d9a5eb","2","28","30157","","","","","","","","","<img src= ""rock_img/I_Diorite_15.jpg"" style=""width:8cm; height:5.54cm;""><p>What type of rock is this?</p>","2","class_response","0","test","19","Diorite","Diorite","15","true","3","3","",""
"","","","","","","","","","","","html-keyboard-response","44","2.0.0","554320","6604276e62cf4a8392d9a5eb","2","28","null","","","","","","","","","<p style='font-size: 30px;'><strong>Okay</strong></p>","null","neutral_feedback","0","test","19","","","","","","","",""
"","","","","","","","","","","","html-button-response","45","2.0.0","564851","6604276e62cf4a8392d9a5eb","2","28","10529","","","","","","","","","<img src= ""rock_img/I_Basalt_01.jpg"" style=""width:8cm; height:7.880000000000001cm;""><p>What type of rock is this?</p>","1","class_response","0","test","20","Basalt","Basalt","01","true","2","2","",""
"","","","","","","","","","","","html-keyboard-response","46","2.0.0","565352","6604276e62cf4a8392d9a5eb","2","28","null","","","","","","","","","<p style='font-size: 30px;'><strong>Okay</strong></p>","null","neutral_feedback","0","test","20","","","","","","","",""
"","","","","","","","","","","","html-button-response","47","2.0.0","566623","6604276e62cf4a8392d9a5eb","2","28","1269","","","","","","","","","<img src= ""rock_img/I_Pumice_14.jpg"" style=""width:8cm; height:6.39cm;""><p>What type of rock is this?</p>","7","class_response","0","test","21","Pumice","Pumice","14","true","8","8","",""
"","","","","","","","","","","","html-keyboard-response","48","2.0.0","567124","6604276e62cf4a8392d9a5eb","2","28","null","","","","","","","","","<p style='font-size: 30px;'><strong>Okay</strong></p>","null","neutral_feedback","0","test","21","","","","","","","",""
"","","","","","","","","","","","html-button-response","49","2.0.0","577252","6604276e62cf4a8392d9a5eb","2","28","10126","","","","","","","","","<img src= ""rock_img/I_Diorite_16.jpg"" style=""width:8cm; height:6.74cm;""><p>What type of rock is this?</p>","3","class_response","0","test","22","Gabbro","Diorite","16","false","4","3","",""
"","","","","","","","","","","","html-keyboard-response","50","2.0.0","577754","6604276e62cf4a8392d9a5eb","2","28","null","","","","","","","","","<p style='font-size: 30px;'><strong>Okay</strong></p>","null","neutral_feedback","0","test","22","","","","","","","",""
"","","","","","","","","","","","html-button-response","51","2.0.0","584255","6604276e62cf4a8392d9a5eb","2","28","6498","","","","","","","","","<img src= ""rock_img/I_Andesite_02.jpg"" style=""width:8cm; height:8.5cm;""><p>What type of rock is this?</p>","3","class_response","0","test","23","Gabbro","Andesite","02","false","4","1","",""
"","","","","","","","","","","","html-keyboard-response","52","2.0.0","584757","6604276e62cf4a8392d9a5eb","2","28","null","","","","","","","","","<p style='font-size: 30px;'><strong>Okay</strong></p>","null","neutral_feedback","0","test","23","","","","","","","",""
"","","","","","","","","","","","html-button-response","53","2.0.0","586184","6604276e62cf4a8392d9a5eb","2","28","1424","","","","","","","","","<img src= ""rock_img/I_Obsidian_16.jpg"" style=""width:8cm; height:9.3cm;""><p>What type of rock is this?</p>","4","class_response","0","test","24","Obsidian","Obsidian","16","true","5","5","",""
"","","","","","","","","","","","html-keyboard-response","54","2.0.0","586686","6604276e62cf4a8392d9a5eb","2","28","null","","","","","","","","","<p style='font-size: 30px;'><strong>Okay</strong></p>","null","neutral_feedback","0","test","24","","","","","","","",""
"","","","","","","","","","","","html-button-response","55","2.0.0","601209","6604276e62cf4a8392d9a5eb","2","28","14522","","","","","","","","","<img src= ""rock_img/I_Pegmatite_15.jpg"" style=""width:8cm; height:6cm;""><p>What type of rock is this?</p>","5","class_response","0","test","25","Pegmatite","Pegmatite","15","true","6","6","",""
"","","","","","","","","","","","html-keyboard-response","56","2.0.0","601711","6604276e62cf4a8392d9a5eb","2","28","null","","","","","","","","","<p style='font-size: 30px;'><strong>Okay</strong></p>","null","neutral_feedback","0","test","25","","","","","","","",""
"","","","","","","","","","","","html-button-response","57","2.0.0","612939","6604276e62cf4a8392d9a5eb","2","28","11226","","","","","","","","","<img src= ""rock_img/I_Andesite_07.jpg"" style=""width:8cm; height:5.93cm;""><p>What type of rock is this?</p>","2","class_response","0","test","26","Diorite","Andesite","07","false","3","1","",""
"","","","","","","","","","","","html-keyboard-response","58","2.0.0","613442","6604276e62cf4a8392d9a5eb","2","28","null","","","","","","","","","<p style='font-size: 30px;'><strong>Okay</strong></p>","null","neutral_feedback","0","test","26","","","","","","","",""
"","","","","","","","","","","","html-button-response","59","2.0.0","616027","6604276e62cf4a8392d9a5eb","2","28","2583","","","","","","","","","<img src= ""rock_img/I_Gabbro_12.jpg"" style=""width:8cm; height:7.800000000000001cm;""><p>What type of rock is this?</p>","0","class_response","0","test","27","Andesite","Gabbro","12","false","1","4","",""
"","","","","","","","","","","","html-keyboard-response","60","2.0.0","616530","6604276e62cf4a8392d9a5eb","2","28","null","","","","","","","","","<p style='font-size: 30px;'><strong>Okay</strong></p>","null","neutral_feedback","0","test","27","","","","","","","",""
"","","","","","","","","","","","html-button-response","61","2.0.0","619342","6604276e62cf4a8392d9a5eb","2","28","2809","","","","","","","","","<img src= ""rock_img/I_Obsidian_10.jpg"" style=""width:8cm; height:6.260000000000001cm;""><p>What type of rock is this?</p>","4","class_response","0","test","28","Obsidian","Obsidian","10","true","5","5","",""
"","","","","","","","","","","","html-keyboard-response","62","2.0.0","619843","6604276e62cf4a8392d9a5eb","2","28","null","","","","","","","","","<p style='font-size: 30px;'><strong>Okay</strong></p>","null","neutral_feedback","0","test","28","","","","","","","",""
"","","","","","","","","","","","html-button-response","63","2.0.0","621574","6604276e62cf4a8392d9a5eb","2","28","1728","","","","","","","","","<img src= ""rock_img/I_Pegmatite_09.jpg"" style=""width:8cm; height:4.03cm;""><p>What type of rock is this?</p>","6","class_response","0","test","29","Peridotite","Pegmatite","09","false","7","6","",""
"","","","","","","","","","","","html-keyboard-response","64","2.0.0","622076","6604276e62cf4a8392d9a5eb","2","28","null","","","","","","","","","<p style='font-size: 30px;'><strong>Okay</strong></p>","null","neutral_feedback","0","test","29","","","","","","","",""
"","","","","","","","","","","","html-button-response","65","2.0.0","623423","6604276e62cf4a8392d9a5eb","2","28","1344","","","","","","","","","<img src= ""rock_img/I_Basalt_09.jpg"" style=""width:8cm; height:6.2cm;""><p>What type of rock is this?</p>","1","class_response","0","test","30","Basalt","Basalt","09","true","2","2","",""
"","","","","","","","","","","","html-keyboard-response","66","2.0.0","623926","6604276e62cf4a8392d9a5eb","2","28","null","","","","","","","","","<p style='font-size: 30px;'><strong>Okay</strong></p>","null","neutral_feedback","0","test","30","","","","","","","",""
"","","","","","","","","","","","html-button-response","67","2.0.0","625035","6604276e62cf4a8392d9a5eb","2","28","1107","","","","","","","","","<img src= ""rock_img/I_Peridotite_15.jpg"" style=""width:8cm; height:6cm;""><p>What type of rock is this?</p>","6","class_response","0","test","31","Peridotite","Peridotite","15","true","7","7","",""
"","","","","","","","","","","","html-keyboard-response","68","2.0.0","625537","6604276e62cf4a8392d9a5eb","2","28","null","","","","","","","","","<p style='font-size: 30px;'><strong>Okay</strong></p>","null","neutral_feedback","0","test","31","","","","","","","",""
"","","","","","","","","","","","html-button-response","69","2.0.0","626748","6604276e62cf4a8392d9a5eb","2","28","1208","","","","","","","","","<img src= ""rock_img/I_Pumice_10.jpg"" style=""width:8cm; height:7.609999999999999cm;""><p>What type of rock is this?</p>","7","class_response","0","test","32","Pumice","Pumice","10","true","8","8","",""
"","","","","","","","","","","","html-keyboard-response","70","2.0.0","627249","6604276e62cf4a8392d9a5eb","2","28","null","","","","","","","","","<p style='font-size: 30px;'><strong>Okay</strong></p>","null","neutral_feedback","0","test","32","","","","","","","",""
"","","","","","","","","","","","html-button-response","71","2.0.0","628542","6604276e62cf4a8392d9a5eb","2","28","1290","","","","","","","","","<img src= ""rock_img/I_Obsidian_11.jpg"" style=""width:8cm; height:6.05cm;""><p>What type of rock is this?</p>","4","class_response","0","test","33","Obsidian","Obsidian","11","true","5","5","",""
"","","","","","","","","","","","html-keyboard-response","72","2.0.0","629043","6604276e62cf4a8392d9a5eb","2","28","null","","","","","","","","","<p style='font-size: 30px;'><strong>Okay</strong></p>","null","neutral_feedback","0","test","33","","","","","","","",""
"","","","","","","","","","","","html-button-response","73","2.0.0","630161","6604276e62cf4a8392d9a5eb","2","28","1115","","","","","","","","","<img src= ""rock_img/I_Pumice_02.jpg"" style=""width:8cm; height:7.3999999999999995cm;""><p>What type of rock is this?</p>","7","class_response","0","test","34","Pumice","Pumice","02","true","8","8","",""
"","","","","","","","","","","","html-keyboard-response","74","2.0.0","630664","6604276e62cf4a8392d9a5eb","2","28","null","","","","","","","","","<p style='font-size: 30px;'><strong>Okay</strong></p>","null","neutral_feedback","0","test","34","","","","","","","",""
"","","","","","","","","","","","html-button-response","75","2.0.0","631819","6604276e62cf4a8392d9a5eb","2","28","1154","","","","","","","","","<img src= ""rock_img/I_Peridotite_02.jpg"" style=""width:8cm; height:5.859999999999999cm;""><p>What type of rock is this?</p>","6","class_response","0","test","35","Peridotite","Peridotite","02","true","7","7","",""
"","","","","","","","","","","","html-keyboard-response","76","2.0.0","632321","6604276e62cf4a8392d9a5eb","2","28","null","","","","","","","","","<p style='font-size: 30px;'><strong>Okay</strong></p>","null","neutral_feedback","0","test","35","","","","","","","",""
"","","","","","","","","","","","html-button-response","77","2.0.0","649044","6604276e62cf4a8392d9a5eb","2","28","16721","","","","","","","","","<img src= ""rock_img/I_Andesite_11.jpg"" style=""width:8cm; height:4.92cm;""><p>What type of rock is this?</p>","0","class_response","0","test","36","Andesite","Andesite","11","true","1","1","",""
"","","","","","","","","","","","html-keyboard-response","78","2.0.0","649546","6604276e62cf4a8392d9a5eb","2","28","null","","","","","","","","","<p style='font-size: 30px;'><strong>Okay</strong></p>","null","neutral_feedback","0","test","36","","","","","","","",""
"","","","","","","","","","","","html-button-response","79","2.0.0","650518","6604276e62cf4a8392d9a5eb","2","28","970","","","","","","","","","<img src= ""rock_img/I_Peridotite_13.jpg"" style=""width:8cm; height:7.58cm;""><p>What type of rock is this?</p>","6","class_response","0","test","37","Peridotite","Peridotite","13","true","7","7","",""
"","","","","","","","","","","","html-keyboard-response","80","2.0.0","651020","6604276e62cf4a8392d9a5eb","2","28","null","","","","","","","","","<p style='font-size: 30px;'><strong>Okay</strong></p>","null","neutral_feedback","0","test","37","","","","","","","",""
"","","","","","","","","","","","html-button-response","81","2.0.0","700119","6604276e62cf4a8392d9a5eb","2","28","49097","","","","","","","","","<img src= ""rock_img/I_Basalt_16.jpg"" style=""width:8cm; height:7.659999999999999cm;""><p>What type of rock is this?</p>","1","class_response","0","test","38","Basalt","Basalt","16","true","2","2","",""
"","","","","","","","","","","","html-keyboard-response","82","2.0.0","700621","6604276e62cf4a8392d9a5eb","2","28","null","","","","","","","","","<p style='font-size: 30px;'><strong>Okay</strong></p>","null","neutral_feedback","0","test","38","","","","","","","",""
"","","","","","","","","","","","html-button-response","83","2.0.0","711738","6604276e62cf4a8392d9a5eb","2","28","11116","","","","","","","","","<img src= ""rock_img/I_Gabbro_16.jpg"" style=""width:8cm; height:6.44cm;""><p>What type of rock is this?</p>","1","class_response","0","test","39","Basalt","Gabbro","16","false","2","4","",""
"","","","","","","","","","","","html-keyboard-response","84","2.0.0","712239","6604276e62cf4a8392d9a5eb","2","28","null","","","","","","","","","<p style='font-size: 30px;'><strong>Okay</strong></p>","null","neutral_feedback","0","test","39","","","","","","","",""
"","","","","","","","","","","","html-button-response","85","2.0.0","716425","6604276e62cf4a8392d9a5eb","2","28","4183","","","","","","","","","<img src= ""rock_img/I_Pegmatite_16.jpg"" style=""width:8cm; height:5.8cm;""><p>What type of rock is this?</p>","5","class_response","0","test","40","Pegmatite","Pegmatite","16","true","6","6","",""
"","","","","","","","","","","","html-keyboard-response","86","2.0.0","716928","6604276e62cf4a8392d9a5eb","2","28","null","","","","","","","","","<p style='font-size: 30px;'><strong>Okay</strong></p>","null","neutral_feedback","0","test","40","","","","","","","",""
"","","","","","","","","","","","html-button-response","87","2.0.0","720223","6604276e62cf4a8392d9a5eb","2","28","3293","","","","","","","","","<img src= ""rock_img/I_Andesite_16.jpg"" style=""width:8cm; height:6.010000000000001cm;""><p>What type of rock is this?</p>","3","class_response","0","test","41","Gabbro","Andesite","16","false","4","1","",""
"","","","","","","","","","","","html-keyboard-response","88","2.0.0","720725","6604276e62cf4a8392d9a5eb","2","28","null","","","","","","","","","<p style='font-size: 30px;'><strong>Okay</strong></p>","null","neutral_feedback","0","test","41","","","","","","","",""
"","","","","","","","","","","","html-button-response","89","2.0.0","722677","6604276e62cf4a8392d9a5eb","2","28","1949","","","","","","","","","<img src= ""rock_img/I_Diorite_07.jpg"" style=""width:8cm; height:5.239999999999999cm;""><p>What type of rock is this?</p>","2","class_response","0","test","42","Diorite","Diorite","07","true","3","3","",""
"","","","","","","","","","","","html-keyboard-response","90","2.0.0","723179","6604276e62cf4a8392d9a5eb","2","28","null","","","","","","","","","<p style='font-size: 30px;'><strong>Okay</strong></p>","null","neutral_feedback","0","test","42","","","","","","","",""
"","","","","","","","","","","","html-button-response","91","2.0.0","725033","6604276e62cf4a8392d9a5eb","2","28","1852","","","","","","","","","<img src= ""rock_img/I_Diorite_11.jpg"" style=""width:8cm; height:7.11cm;""><p>What type of rock is this?</p>","2","class_response","0","test","43","Diorite","Diorite","11","true","3","3","",""
"","","","","","","","","","","","html-keyboard-response","92","2.0.0","725535","6604276e62cf4a8392d9a5eb","2","28","null","","","","","","","","","<p style='font-size: 30px;'><strong>Okay</strong></p>","null","neutral_feedback","0","test","43","","","","","","","",""
"","","","","","","","","","","","html-button-response","93","2.0.0","732423","6604276e62cf4a8392d9a5eb","2","28","6886","","","","","","","","","<img src= ""rock_img/I_Pegmatite_13.jpg"" style=""width:8cm; height:4.95cm;""><p>What type of rock is this?</p>","5","class_response","0","test","44","Pegmatite","Pegmatite","13","true","6","6","",""
"","","","","","","","","","","","html-keyboard-response","94","2.0.0","732925","6604276e62cf4a8392d9a5eb","2","28","null","","","","","","","","","<p style='font-size: 30px;'><strong>Okay</strong></p>","null","neutral_feedback","0","test","44","","","","","","","",""
"","","","","","","","","","","","html-button-response","95","2.0.0","736778","6604276e62cf4a8392d9a5eb","2","28","3851","","","","","","","","","<img src= ""rock_img/I_Andesite_01.jpg"" style=""width:8cm; height:5.87cm;""><p>What type of rock is this?</p>","3","class_response","0","test","45","Gabbro","Andesite","01","false","4","1","",""
"","","","","","","","","","","","html-keyboard-response","96","2.0.0","737280","6604276e62cf4a8392d9a5eb","2","28","null","","","","","","","","","<p style='font-size: 30px;'><strong>Okay</strong></p>","null","neutral_feedback","0","test","45","","","","","","","",""
"","","","","","","","","","","","html-button-response","97","2.0.0","738804","6604276e62cf4a8392d9a5eb","2","28","1521","","","","","","","","","<img src= ""rock_img/I_Pumice_16.jpg"" style=""width:8cm; height:6.79cm;""><p>What type of rock is this?</p>","7","class_response","0","test","46","Pumice","Pumice","16","true","8","8","",""
"","","","","","","","","","","","html-keyboard-response","98","2.0.0","739306","6604276e62cf4a8392d9a5eb","2","28","null","","","","","","","","","<p style='font-size: 30px;'><strong>Okay</strong></p>","null","neutral_feedback","0","test","46","","","","","","","",""
"","","","","","","","","","","","html-button-response","99","2.0.0","744476","6604276e62cf4a8392d9a5eb","2","28","5168","","","","","","","","","<img src= ""rock_img/I_Diorite_09.jpg"" style=""width:8cm; height:5.27cm;""><p>What type of rock is this?</p>","2","class_response","0","test","47","Diorite","Diorite","09","true","3","3","",""
"","","","","","","","","","","","html-keyboard-response","100","2.0.0","744979","6604276e62cf4a8392d9a5eb","2","28","null","","","","","","","","","<p style='font-size: 30px;'><strong>Okay</strong></p>","null","neutral_feedback","0","test","47","","","","","","","",""
"","","","","","","","","","","","html-button-response","101","2.0.0","746034","6604276e62cf4a8392d9a5eb","2","28","1053","","","","","","","","","<img src= ""rock_img/I_Pumice_05.jpg"" style=""width:8cm; height:7.25cm;""><p>What type of rock is this?</p>","7","class_response","0","test","48","Pumice","Pumice","05","true","8","8","",""
"","","","","","","","","","","","html-keyboard-response","102","2.0.0","746536","6604276e62cf4a8392d9a5eb","2","28","null","","","","","","","","","<p style='font-size: 30px;'><strong>Okay</strong></p>","null","neutral_feedback","0","test","48","","","","","","","",""
"","","","","","","","","","","","instructions","103","2.0.0","765063","6604276e62cf4a8392d9a5eb","2","28","18504","","","","","","","","[{""page_index"":0,""viewing_time"":11838},{""page_index"":1,""viewing_time"":3180},{""page_index"":2,""viewing_time"":3487}]","","","","","","","","","","","","","",""
"","","","","","","","","","","","html-button-response","104","2.0.0","768178","6604276e62cf4a8392d9a5eb","2","28","3112","","","","","","","","","","0","start_train","","","","","","","","","","",""
"","","","","","","","","","","","html-button-response","105","2.0.0","784063","6604276e62cf4a8392d9a5eb","2","28","15882","","","","","","","","","<img src= ""rock_img/I_Gabbro_14.jpg"" style=""width:8cm; height:8.48cm;""><p>What type of rock is this?</p>","3","class_response","1","train","1","Gabbro","Gabbro","14","true","4","4","",""
"","","","","","","","","","","","html-button-response","106","2.0.0","785602","6604276e62cf4a8392d9a5eb","2","28","1537","","","","","","","","","<img src= rock_img/I_Gabbro_14.jpg style=""width:8cm; height:8.48cm;""><p style='font-size: 30px; color: green;'><strong>Correct!</strong></p><p style='font-size: 30px;'><strong>This rock is gabbro</strong></p>","0","corr_feedback","1","train","1","","","","","","","",""
"","","","","","","","","","","","html-button-response","107","2.0.0","789199","6604276e62cf4a8392d9a5eb","2","28","3595","","","","","","","","","<img src= ""rock_img/I_Gabbro_01.jpg"" style=""width:8cm; height:5.21cm;""><p>What type of rock is this?</p>","3","class_response","1","train","2","Gabbro","Gabbro","01","true","4","4","",""
"","","","","","","","","","","","html-button-response","108","2.0.0","790180","6604276e62cf4a8392d9a5eb","2","28","980","","","","","","","","","<img src= rock_img/I_Gabbro_01.jpg style=""width:8cm; height:5.21cm;""><p style='font-size: 30px; color: green;'><strong>Correct!</strong></p><p style='font-size: 30px;'><strong>This rock is gabbro</strong></p>","0","corr_feedback","1","train","2","","","","","","","",""
"","","","","","","","","","","","html-button-response","109","2.0.0","792125","6604276e62cf4a8392d9a5eb","2","28","1942","","","","","","","","","<img src= ""rock_img/I_Basalt_05.jpg"" style=""width:8cm; height:8.18cm;""><p>What type of rock is this?</p>","1","class_response","1","train","3","Basalt","Basalt","05","true","2","2","",""
"","","","","","","","","","","","html-button-response","110","2.0.0","793188","6604276e62cf4a8392d9a5eb","2","28","1061","","","","","","","","","<img src= rock_img/I_Basalt_05.jpg style=""width:8cm; height:8.18cm;""><p style='font-size: 30px; color: green;'><strong>Correct!</strong></p><p style='font-size: 30px;'><strong>This rock is basalt</strong></p>","0","corr_feedback","1","train","3","","","","","","","",""
"","","","","","","","","","","","html-button-response","111","2.0.0","795047","6604276e62cf4a8392d9a5eb","2","28","1856","","","","","","","","","<img src= ""rock_img/I_Pegmatite_03.jpg"" style=""width:8cm; height:5.239999999999999cm;""><p>What type of rock is this?</p>","6","class_response","1","train","4","Peridotite","Pegmatite","03","false","7","6","",""
"","","","","","","","","","","","html-button-response","112","2.0.0","797740","6604276e62cf4a8392d9a5eb","2","28","2690","","","","","","","","","<img src= rock_img/I_Pegmatite_03.jpg style=""width:8cm; height:5.239999999999999cm;""><p style='font-size: 30px; color: red;'><strong>Incorrect!</strong></p><p style='font-size: 30px;'><strong>This rock is pegmatite</strong></p>","0","corr_feedback","1","train","4","","","","","","","",""
"","","","","","","","","","","","html-button-response","113","2.0.0","805902","6604276e62cf4a8392d9a5eb","2","28","8160","","","","","","","","","<img src= ""rock_img/I_Peridotite_04.jpg"" style=""width:8cm; height:6.680000000000001cm;""><p>What type of rock is this?</p>","5","class_response","1","train","5","Pegmatite","Peridotite","04","false","6","7","",""
"","","","","","","","","","","","html-button-response","114","2.0.0","810265","6604276e62cf4a8392d9a5eb","2","28","4361","","","","","","","","","<img src= rock_img/I_Peridotite_04.jpg style=""width:8cm; height:6.680000000000001cm;""><p style='font-size: 30px; color: red;'><strong>Incorrect!</strong></p><p style='font-size: 30px;'><strong>This rock is peridotite</strong></p>","0","corr_feedback","1","train","5","","","","","","","",""
"","","","","","","","","","","","html-button-response","115","2.0.0","819487","6604276e62cf4a8392d9a5eb","2","28","9220","","","","","","","","","<img src= ""rock_img/I_Andesite_06.jpg"" style=""width:8cm; height:6.840000000000001cm;""><p>What type of rock is this?</p>","0","class_response","1","train","6","Andesite","Andesite","06","true","1","1","",""
"","","","","","","","","","","","html-button-response","116","2.0.0","821638","6604276e62cf4a8392d9a5eb","2","28","2149","","","","","","","","","<img src= rock_img/I_Andesite_06.jpg style=""width:8cm; height:6.840000000000001cm;""><p style='font-size: 30px; color: green;'><strong>Correct!</strong></p><p style='font-size: 30px;'><strong>This rock is andesite</strong></p>","0","corr_feedback","1","train","6","","","","","","","",""
"","","","","","","","","","","","html-button-response","117","2.0.0","836441","6604276e62cf4a8392d9a5eb","2","28","14801","","","","","","","","","<img src= ""rock_img/I_Pegmatite_10.jpg"" style=""width:8cm; height:4.16cm;""><p>What type of rock is this?</p>","5","class_response","1","train","7","Pegmatite","Pegmatite","10","true","6","6","",""
"","","","","","","","","","","","html-button-response","118","2.0.0","837317","6604276e62cf4a8392d9a5eb","2","28","874","","","","","","","","","<img src= rock_img/I_Pegmatite_10.jpg style=""width:8cm; height:4.16cm;""><p style='font-size: 30px; color: green;'><strong>Correct!</strong></p><p style='font-size: 30px;'><strong>This rock is pegmatite</strong></p>","0","corr_feedback","1","train","7","","","","","","","",""
"","","","","","","","","","","","html-button-response","119","2.0.0","867140","6604276e62cf4a8392d9a5eb","2","28","29820","","","","","","","","","<img src= ""rock_img/I_Gabbro_05.jpg"" style=""width:8cm; height:6cm;""><p>What type of rock is this?</p>","6","class_response","1","train","8","Peridotite","Gabbro","05","false","7","4","",""
"","","","","","","","","","","","html-button-response","120","2.0.0","868758","6604276e62cf4a8392d9a5eb","2","28","1616","","","","","","","","","<img src= rock_img/I_Gabbro_05.jpg style=""width:8cm; height:6cm;""><p style='font-size: 30px; color: red;'><strong>Incorrect!</strong></p><p style='font-size: 30px;'><strong>This rock is gabbro</strong></p>","0","corr_feedback","1","train","8","","","","","","","",""
"","","","","","","","","","","","html-button-response","121","2.0.0","871852","6604276e62cf4a8392d9a5eb","2","28","3091","","","","","","","","","<img src= ""rock_img/I_Peridotite_10.jpg"" style=""width:8cm; height:5.390000000000001cm;""><p>What type of rock is this?</p>","6","class_response","1","train","9","Peridotite","Peridotite","10","true","7","7","",""
"","","","","","","","","","","","html-button-response","122","2.0.0","872677","6604276e62cf4a8392d9a5eb","2","28","823","","","","","","","","","<img src= rock_img/I_Peridotite_10.jpg style=""width:8cm; height:5.390000000000001cm;""><p style='font-size: 30px; color: green;'><strong>Correct!</strong></p><p style='font-size: 30px;'><strong>This rock is peridotite</strong></p>","0","corr_feedback","1","train","9","","","","","","","",""
"","","","","","","","","","","","html-button-response","123","2.0.0","882928","6604276e62cf4a8392d9a5eb","2","28","10249","","","","","","","","","<img src= ""rock_img/I_Diorite_08.jpg"" style=""width:8cm; height:6.37cm;""><p>What type of rock is this?</p>","2","class_response","1","train","10","Diorite","Diorite","08","true","3","3","",""
"","","","","","","","","","","","html-button-response","124","2.0.0","884093","6604276e62cf4a8392d9a5eb","2","28","1162","","","","","","","","","<img src= rock_img/I_Diorite_08.jpg style=""width:8cm; height:6.37cm;""><p style='font-size: 30px; color: green;'><strong>Correct!</strong></p><p style='font-size: 30px;'><strong>This rock is diorite</strong></p>","0","corr_feedback","1","train","10","","","","","","","",""
"","","","","","","","","","","","html-button-response","125","2.0.0","885370","6604276e62cf4a8392d9a5eb","2","28","1274","","","","","","","","","<img src= ""rock_img/I_Obsidian_08.jpg"" style=""width:8cm; height:7.39cm;""><p>What type of rock is this?</p>","4","class_response","1","train","11","Obsidian","Obsidian","08","true","5","5","",""
"","","","","","","","","","","","html-button-response","126","2.0.0","886213","6604276e62cf4a8392d9a5eb","2","28","841","","","","","","","","","<img src= rock_img/I_Obsidian_08.jpg style=""width:8cm; height:7.39cm;""><p style='font-size: 30px; color: green;'><strong>Correct!</strong></p><p style='font-size: 30px;'><strong>This rock is obsidian</strong></p>","0","corr_feedback","1","train","11","","","","","","","",""
"","","","","","","","","","","","html-button-response","127","2.0.0","888881","6604276e62cf4a8392d9a5eb","2","28","2667","","","","","","","","","<img src= ""rock_img/I_Gabbro_11.jpg"" style=""width:8cm; height:6.2cm;""><p>What type of rock is this?</p>","1","class_response","1","train","12","Basalt","Gabbro","11","false","2","4","",""
"","","","","","","","","","","","html-button-response","128","2.0.0","890354","6604276e62cf4a8392d9a5eb","2","28","1470","","","","","","","","","<img src= rock_img/I_Gabbro_11.jpg style=""width:8cm; height:6.2cm;""><p style='font-size: 30px; color: red;'><strong>Incorrect!</strong></p><p style='font-size: 30px;'><strong>This rock is gabbro</strong></p>","0","corr_feedback","1","train","12","","","","","","","",""
"","","","","","","","","","","","html-button-response","129","2.0.0","891824","6604276e62cf4a8392d9a5eb","2","28","1468","","","","","","","","","<img src= ""rock_img/I_Gabbro_11.jpg"" style=""width:8cm; height:6.2cm;""><p>What type of rock is this?</p>","3","class_response","1","train","13","Gabbro","Gabbro","11","true","4","4","",""
"","","","","","","","","","","","html-button-response","130","2.0.0","892592","6604276e62cf4a8392d9a5eb","2","28","766","","","","","","","","","<img src= rock_img/I_Gabbro_11.jpg style=""width:8cm; height:6.2cm;""><p style='font-size: 30px; color: green;'><strong>Correct!</strong></p><p style='font-size: 30px;'><strong>This rock is gabbro</strong></p>","0","corr_feedback","1","train","13","","","","","","","",""
"","","","","","","","","","","","html-button-response","131","2.0.0","893658","6604276e62cf4a8392d9a5eb","2","28","1063","","","","","","","","","<img src= ""rock_img/I_Pumice_06.jpg"" style=""width:8cm; height:6.9399999999999995cm;""><p>What type of rock is this?</p>","7","class_response","1","train","14","Pumice","Pumice","06","true","8","8","",""
"","","","","","","","","","","","html-button-response","132","2.0.0","894375","6604276e62cf4a8392d9a5eb","2","28","715","","","","","","","","","<img src= rock_img/I_Pumice_06.jpg style=""width:8cm; height:6.9399999999999995cm;""><p style='font-size: 30px; color: green;'><strong>Correct!</strong></p><p style='font-size: 30px;'><strong>This rock is pumice</strong></p>","0","corr_feedback","1","train","14","","","","","","","",""
"","","","","","","","","","","","html-button-response","133","2.0.0","895477","6604276e62cf4a8392d9a5eb","2","28","1100","","","","","","","","","<img src= ""rock_img/I_Obsidian_06.jpg"" style=""width:8cm; height:6.8cm;""><p>What type of rock is this?</p>","4","class_response","1","train","15","Obsidian","Obsidian","06","true","5","5","",""
"","","","","","","","","","","","html-button-response","134","2.0.0","896156","6604276e62cf4a8392d9a5eb","2","28","677","","","","","","","","","<img src= rock_img/I_Obsidian_06.jpg style=""width:8cm; height:6.8cm;""><p style='font-size: 30px; color: green;'><strong>Correct!</strong></p><p style='font-size: 30px;'><strong>This rock is obsidian</strong></p>","0","corr_feedback","1","train","15","","","","","","","",""
"","","","","","","","","","","","html-button-response","135","2.0.0","912444","6604276e62cf4a8392d9a5eb","2","28","16286","","","","","","","","","<img src= ""rock_img/I_Diorite_02.jpg"" style=""width:8cm; height:6.27cm;""><p>What type of rock is this?</p>","3","class_response","1","train","16","Gabbro","Diorite","02","false","4","3","",""
"","","","","","","","","","","","html-button-response","136","2.0.0","913660","6604276e62cf4a8392d9a5eb","2","28","1213","","","","","","","","","<img src= rock_img/I_Diorite_02.jpg style=""width:8cm; height:6.27cm;""><p style='font-size: 30px; color: red;'><strong>Incorrect!</strong></p><p style='font-size: 30px;'><strong>This rock is diorite</strong></p>","0","corr_feedback","1","train","16","","","","","","","",""
"","","","","","","","","","","","html-button-response","137","2.0.0","918757","6604276e62cf4a8392d9a5eb","2","28","5094","","","","","","","","","<img src= ""rock_img/I_Gabbro_03.jpg"" style=""width:8cm; height:8.52cm;""><p>What type of rock is this?</p>","2","class_response","1","train","17","Diorite","Gabbro","03","false","3","4","",""
"","","","","","","","","","","","html-button-response","138","2.0.0","920157","6604276e62cf4a8392d9a5eb","2","28","1398","","","","","","","","","<img src= rock_img/I_Gabbro_03.jpg style=""width:8cm; height:8.52cm;""><p style='font-size: 30px; color: red;'><strong>Incorrect!</strong></p><p style='font-size: 30px;'><strong>This rock is gabbro</strong></p>","0","corr_feedback","1","train","17","","","","","","","",""
"","","","","","","","","","","","html-button-response","139","2.0.0","923772","6604276e62cf4a8392d9a5eb","2","28","3613","","","","","","","","","<img src= ""rock_img/I_Gabbro_13.jpg"" style=""width:8cm; height:5.08cm;""><p>What type of rock is this?</p>","3","class_response","1","train","18","Gabbro","Gabbro","13","true","4","4","",""
"","","","","","","","","","","","html-button-response","140","2.0.0","924727","6604276e62cf4a8392d9a5eb","2","28","953","","","","","","","","","<img src= rock_img/I_Gabbro_13.jpg style=""width:8cm; height:5.08cm;""><p style='font-size: 30px; color: green;'><strong>Correct!</strong></p><p style='font-size: 30px;'><strong>This rock is gabbro</strong></p>","0","corr_feedback","1","train","18","","","","","","","",""
"","","","","","","","","","","","html-button-response","141","2.0.0","951079","6604276e62cf4a8392d9a5eb","2","28","26350","","","","","","","","","<img src= ""rock_img/I_Andesite_10.jpg"" style=""width:8cm; height:4.16cm;""><p>What type of rock is this?</p>","3","class_response","1","train","19","Gabbro","Andesite","10","false","4","1","",""
"","","","","","","","","","","","html-button-response","142","2.0.0","954279","6604276e62cf4a8392d9a5eb","2","28","3198","","","","","","","","","<img src= rock_img/I_Andesite_10.jpg style=""width:8cm; height:4.16cm;""><p style='font-size: 30px; color: red;'><strong>Incorrect!</strong></p><p style='font-size: 30px;'><strong>This rock is andesite</strong></p>","0","corr_feedback","1","train","19","","","","","","","",""
"","","","","","","","","","","","html-button-response","143","2.0.0","967153","6604276e62cf4a8392d9a5eb","2","28","12871","","","","","","","","","<img src= ""rock_img/I_Gabbro_01.jpg"" style=""width:8cm; height:5.21cm;""><p>What type of rock is this?</p>","3","class_response","1","train","20","Gabbro","Gabbro","01","true","4","4","",""
"","","","","","","","","","","","html-button-response","144","2.0.0","968115","6604276e62cf4a8392d9a5eb","2","28","960","","","","","","","","","<img src= rock_img/I_Gabbro_01.jpg style=""width:8cm; height:5.21cm;""><p style='font-size: 30px; color: green;'><strong>Correct!</strong></p><p style='font-size: 30px;'><strong>This rock is gabbro</strong></p>","0","corr_feedback","1","train","20","","","","","","","",""
"","","","","","","","","","","","html-button-response","145","2.0.0","973120","6604276e62cf4a8392d9a5eb","2","28","5003","","","","","","","","","<img src= ""rock_img/I_Gabbro_03.jpg"" style=""width:8cm; height:8.52cm;""><p>What type of rock is this?</p>","0","class_response","1","train","21","Andesite","Gabbro","03","false","1","4","",""
"","","","","","","","","","","","html-button-response","146","2.0.0","974224","6604276e62cf4a8392d9a5eb","2","28","1102","","","","","","","","","<img src= rock_img/I_Gabbro_03.jpg style=""width:8cm; height:8.52cm;""><p style='font-size: 30px; color: red;'><strong>Incorrect!</strong></p><p style='font-size: 30px;'><strong>This rock is gabbro</strong></p>","0","corr_feedback","1","train","21","","","","","","","",""
"","","","","","","","","","","","html-button-response","147","2.0.0","979256","6604276e62cf4a8392d9a5eb","2","28","5030","","","","","","","","","<img src= ""rock_img/I_Andesite_09.jpg"" style=""width:8cm; height:6cm;""><p>What type of rock is this?</p>","0","class_response","1","train","22","Andesite","Andesite","09","true","1","1","",""
"","","","","","","","","","","","html-button-response","148","2.0.0","980196","6604276e62cf4a8392d9a5eb","2","28","937","","","","","","","","","<img src= rock_img/I_Andesite_09.jpg style=""width:8cm; height:6cm;""><p style='font-size: 30px; color: green;'><strong>Correct!</strong></p><p style='font-size: 30px;'><strong>This rock is andesite</strong></p>","0","corr_feedback","1","train","22","","","","","","","",""
"","","","","","","","","","","","html-button-response","149","2.0.0","1012698","6604276e62cf4a8392d9a5eb","2","28","32501","","","","","","","","","<img src= ""rock_img/I_Andesite_05.jpg"" style=""width:8cm; height:4.12cm;""><p>What type of rock is this?</p>","3","class_response","1","train","23","Gabbro","Andesite","05","false","4","1","",""
"","","","","","","","","","","","html-button-response","150","2.0.0","1013850","6604276e62cf4a8392d9a5eb","2","28","1149","","","","","","","","","<img src= rock_img/I_Andesite_05.jpg style=""width:8cm; height:4.12cm;""><p style='font-size: 30px; color: red;'><strong>Incorrect!</strong></p><p style='font-size: 30px;'><strong>This rock is andesite</strong></p>","0","corr_feedback","1","train","23","","","","","","","",""
"","","","","","","","","","","","html-button-response","151","2.0.0","1058047","6604276e62cf4a8392d9a5eb","2","28","44196","","","","","","","","","<img src= ""rock_img/I_Gabbro_05.jpg"" style=""width:8cm; height:6cm;""><p>What type of rock is this?</p>","6","class_response","1","train","24","Peridotite","Gabbro","05","false","7","4","",""
"","","","","","","","","","","","html-button-response","152","2.0.0","1059080","6604276e62cf4a8392d9a5eb","2","28","1031","","","","","","","","","<img src= rock_img/I_Gabbro_05.jpg style=""width:8cm; height:6cm;""><p style='font-size: 30px; color: red;'><strong>Incorrect!</strong></p><p style='font-size: 30px;'><strong>This rock is gabbro</strong></p>","0","corr_feedback","1","train","24","","","","","","","",""
"","","","","","","","","","","","html-button-response","153","2.0.0","1062578","6604276e62cf4a8392d9a5eb","2","28","3496","","","","","","","","","<img src= ""rock_img/I_Andesite_05.jpg"" style=""width:8cm; height:4.12cm;""><p>What type of rock is this?</p>","0","class_response","1","train","25","Andesite","Andesite","05","true","1","1","",""
"","","","","","","","","","","","html-button-response","154","2.0.0","1063495","6604276e62cf4a8392d9a5eb","2","28","914","","","","","","","","","<img src= rock_img/I_Andesite_05.jpg style=""width:8cm; height:4.12cm;""><p style='font-size: 30px; color: green;'><strong>Correct!</strong></p><p style='font-size: 30px;'><strong>This rock is andesite</strong></p>","0","corr_feedback","1","train","25","","","","","","","",""
"","","","","","","","","","","","html-button-response","155","2.0.0","1064746","6604276e62cf4a8392d9a5eb","2","28","1249","","","","","","","","","<img src= ""rock_img/I_Obsidian_02.jpg"" style=""width:8cm; height:7.51cm;""><p>What type of rock is this?</p>","4","class_response","1","train","26","Obsidian","Obsidian","02","true","5","5","",""
"","","","","","","","","","","","html-button-response","156","2.0.0","1065529","6604276e62cf4a8392d9a5eb","2","28","781","","","","","","","","","<img src= rock_img/I_Obsidian_02.jpg style=""width:8cm; height:7.51cm;""><p style='font-size: 30px; color: green;'><strong>Correct!</strong></p><p style='font-size: 30px;'><strong>This rock is obsidian</strong></p>","0","corr_feedback","1","train","26","","","","","","","",""
"","","","","","","","","","","","html-button-response","157","2.0.0","1076196","6604276e62cf4a8392d9a5eb","2","28","10665","","","","","","","","","<img src= ""rock_img/I_Gabbro_13.jpg"" style=""width:8cm; height:5.08cm;""><p>What type of rock is this?</p>","0","class_response","1","train","27","Andesite","Gabbro","13","false","1","4","",""
"","","","","","","","","","","","html-button-response","158","2.0.0","1077424","6604276e62cf4a8392d9a5eb","2","28","1226","","","","","","","","","<img src= rock_img/I_Gabbro_13.jpg style=""width:8cm; height:5.08cm;""><p style='font-size: 30px; color: red;'><strong>Incorrect!</strong></p><p style='font-size: 30px;'><strong>This rock is gabbro</strong></p>","0","corr_feedback","1","train","27","","","","","","","",""
"","","","","","","","","","","","html-button-response","159","2.0.0","1079082","6604276e62cf4a8392d9a5eb","2","28","1656","","","","","","","","","<img src= ""rock_img/I_Andesite_04.jpg"" style=""width:8cm; height:5.96cm;""><p>What type of rock is this?</p>","0","class_response","1","train","28","Andesite","Andesite","04","true","1","1","",""
"","","","","","","","","","","","html-button-response","160","2.0.0","1080135","6604276e62cf4a8392d9a5eb","2","28","1051","","","","","","","","","<img src= rock_img/I_Andesite_04.jpg style=""width:8cm; height:5.96cm;""><p style='font-size: 30px; color: green;'><strong>Correct!</strong></p><p style='font-size: 30px;'><strong>This rock is andesite</strong></p>","0","corr_feedback","1","train","28","","","","","","","",""
"","","","","","","","","","","","html-button-response","161","2.0.0","1081464","6604276e62cf4a8392d9a5eb","2","28","1327","","","","","","","","","<img src= ""rock_img/I_Basalt_06.jpg"" style=""width:8cm; height:7.06cm;""><p>What type of rock is this?</p>","1","class_response","1","train","29","Basalt","Basalt","06","true","2","2","",""
"","","","","","","","","","","","html-button-response","162","2.0.0","1082207","6604276e62cf4a8392d9a5eb","2","28","741","","","","","","","","","<img src= rock_img/I_Basalt_06.jpg style=""width:8cm; height:7.06cm;""><p style='font-size: 30px; color: green;'><strong>Correct!</strong></p><p style='font-size: 30px;'><strong>This rock is basalt</strong></p>","0","corr_feedback","1","train","29","","","","","","","",""
"","","","","","","","","","","","html-button-response","163","2.0.0","1091869","6604276e62cf4a8392d9a5eb","2","28","9660","","","","","","","","","<img src= ""rock_img/I_Pegmatite_06.jpg"" style=""width:8cm; height:5.17cm;""><p>What type of rock is this?</p>","5","class_response","1","train","30","Pegmatite","Pegmatite","06","true","6","6","",""
"","","","","","","","","","","","html-button-response","164","2.0.0","1092736","6604276e62cf4a8392d9a5eb","2","28","865","","","","","","","","","<img src= rock_img/I_Pegmatite_06.jpg style=""width:8cm; height:5.17cm;""><p style='font-size: 30px; color: green;'><strong>Correct!</strong></p><p style='font-size: 30px;'><strong>This rock is pegmatite</strong></p>","0","corr_feedback","1","train","30","","","","","","","",""
"","","","","","","","","","","","html-button-response","165","2.0.0","1104221","6604276e62cf4a8392d9a5eb","2","28","11482","","","","","","","","","<img src= ""rock_img/I_Pegmatite_12.jpg"" style=""width:8cm; height:5.7cm;""><p>What type of rock is this?</p>","3","class_response","1","train","31","Gabbro","Pegmatite","12","false","4","6","",""
"","","","","","","","","","","","html-button-response","166","2.0.0","1105613","6604276e62cf4a8392d9a5eb","2","28","1390","","","","","","","","","<img src= rock_img/I_Pegmatite_12.jpg style=""width:8cm; height:5.7cm;""><p style='font-size: 30px; color: red;'><strong>Incorrect!</strong></p><p style='font-size: 30px;'><strong>This rock is pegmatite</strong></p>","0","corr_feedback","1","train","31","","","","","","","",""
"","","","","","","","","","","","html-button-response","167","2.0.0","1107881","6604276e62cf4a8392d9a5eb","2","28","2266","","","","","","","","","<img src= ""rock_img/I_Andesite_09.jpg"" style=""width:8cm; height:6cm;""><p>What type of rock is this?</p>","0","class_response","1","train","32","Andesite","Andesite","09","true","1","1","",""
"","","","","","","","","","","","html-button-response","168","2.0.0","1108747","6604276e62cf4a8392d9a5eb","2","28","863","","","","","","","","","<img src= rock_img/I_Andesite_09.jpg style=""width:8cm; height:6cm;""><p style='font-size: 30px; color: green;'><strong>Correct!</strong></p><p style='font-size: 30px;'><strong>This rock is andesite</strong></p>","0","corr_feedback","1","train","32","","","","","","","",""
"","","","","","","","","","","","html-button-response","169","2.0.0","1109921","6604276e62cf4a8392d9a5eb","2","28","1172","","","","","","","","","<img src= ""rock_img/I_Pumice_09.jpg"" style=""width:8cm; height:6.44cm;""><p>What type of rock is this?</p>","7","class_response","1","train","33","Pumice","Pumice","09","true","8","8","",""
"","","","","","","","","","","","html-button-response","170","2.0.0","1110568","6604276e62cf4a8392d9a5eb","2","28","644","","","","","","","","","<img src= rock_img/I_Pumice_09.jpg style=""width:8cm; height:6.44cm;""><p style='font-size: 30px; color: green;'><strong>Correct!</strong></p><p style='font-size: 30px;'><strong>This rock is pumice</strong></p>","0","corr_feedback","1","train","33","","","","","","","",""
"","","","","","","","","","","","html-button-response","171","2.0.0","1119535","6604276e62cf4a8392d9a5eb","2","28","8964","","","","","","","","","<img src= ""rock_img/I_Pegmatite_07.jpg"" style=""width:8cm; height:6.7cm;""><p>What type of rock is this?</p>","5","class_response","1","train","34","Pegmatite","Pegmatite","07","true","6","6","",""
"","","","","","","","","","","","html-button-response","172","2.0.0","1120238","6604276e62cf4a8392d9a5eb","2","28","701","","","","","","","","","<img src= rock_img/I_Pegmatite_07.jpg style=""width:8cm; height:6.7cm;""><p style='font-size: 30px; color: green;'><strong>Correct!</strong></p><p style='font-size: 30px;'><strong>This rock is pegmatite</strong></p>","0","corr_feedback","1","train","34","","","","","","","",""
"","","","","","","","","","","","html-button-response","173","2.0.0","1121245","6604276e62cf4a8392d9a5eb","2","28","1005","","","","","","","","","<img src= ""rock_img/I_Obsidian_14.jpg"" style=""width:8cm; height:7.64cm;""><p>What type of rock is this?</p>","4","class_response","1","train","35","Obsidian","Obsidian","14","true","5","5","",""
"","","","","","","","","","","","html-button-response","174","2.0.0","1121777","6604276e62cf4a8392d9a5eb","2","28","529","","","","","","","","","<img src= rock_img/I_Obsidian_14.jpg style=""width:8cm; height:7.64cm;""><p style='font-size: 30px; color: green;'><strong>Correct!</strong></p><p style='font-size: 30px;'><strong>This rock is obsidian</strong></p>","0","corr_feedback","1","train","35","","","","","","","",""
"","","","","","","","","","","","html-button-response","175","2.0.0","1128857","6604276e62cf4a8392d9a5eb","2","28","7078","","","","","","","","","<img src= ""rock_img/I_Diorite_10.jpg"" style=""width:8cm; height:5.949999999999999cm;""><p>What type of rock is this?</p>","3","class_response","1","train","36","Gabbro","Diorite","10","false","4","3","",""
"","","","","","","","","","","","html-button-response","176","2.0.0","1139986","6604276e62cf4a8392d9a5eb","2","28","11128","","","","","","","","","<img src= rock_img/I_Diorite_10.jpg style=""width:8cm; height:5.949999999999999cm;""><p style='font-size: 30px; color: red;'><strong>Incorrect!</strong></p><p style='font-size: 30px;'><strong>This rock is diorite</strong></p>","0","corr_feedback","1","train","36","","","","","","","",""
"","","","","","","","","","","","html-button-response","177","2.0.0","1147488","6604276e62cf4a8392d9a5eb","2","28","7498","","","","","","","","","<img src= ""rock_img/I_Basalt_14.jpg"" style=""width:8cm; height:5.82cm;""><p>What type of rock is this?</p>","7","class_response","1","train","37","Pumice","Basalt","14","false","8","2","",""
"","","","","","","","","","","","html-button-response","178","2.0.0","1149352","6604276e62cf4a8392d9a5eb","2","28","1863","","","","","","","","","<img src= rock_img/I_Basalt_14.jpg style=""width:8cm; height:5.82cm;""><p style='font-size: 30px; color: red;'><strong>Incorrect!</strong></p><p style='font-size: 30px;'><strong>This rock is basalt</strong></p>","0","corr_feedback","1","train","37","","","","","","","",""
"","","","","","","","","","","","html-button-response","179","2.0.0","1166872","6604276e62cf4a8392d9a5eb","2","28","17517","","","","","","","","","<img src= ""rock_img/I_Gabbro_14.jpg"" style=""width:8cm; height:8.48cm;""><p>What type of rock is this?</p>","1","class_response","1","train","38","Basalt","Gabbro","14","false","2","4","",""
"","","","","","","","","","","","html-button-response","180","2.0.0","1167831","6604276e62cf4a8392d9a5eb","2","28","958","","","","","","","","","<img src= rock_img/I_Gabbro_14.jpg style=""width:8cm; height:8.48cm;""><p style='font-size: 30px; color: red;'><strong>Incorrect!</strong></p><p style='font-size: 30px;'><strong>This rock is gabbro</strong></p>","0","corr_feedback","1","train","38","","","","","","","",""
"","","","","","","","","","","","html-button-response","181","2.0.0","1175936","6604276e62cf4a8392d9a5eb","2","28","8104","","","","","","","","","<img src= ""rock_img/I_Gabbro_03.jpg"" style=""width:8cm; height:8.52cm;""><p>What type of rock is this?</p>","3","class_response","1","train","39","Gabbro","Gabbro","03","true","4","4","",""
"","","","","","","","","","","","html-button-response","182","2.0.0","1176797","6604276e62cf4a8392d9a5eb","2","28","859","","","","","","","","","<img src= rock_img/I_Gabbro_03.jpg style=""width:8cm; height:8.52cm;""><p style='font-size: 30px; color: green;'><strong>Correct!</strong></p><p style='font-size: 30px;'><strong>This rock is gabbro</strong></p>","0","corr_feedback","1","train","39","","","","","","","",""
"","","","","","","","","","","","html-button-response","183","2.0.0","1177950","6604276e62cf4a8392d9a5eb","2","28","1150","","","","","","","","","<img src= ""rock_img/I_Basalt_12.jpg"" style=""width:8cm; height:6.010000000000001cm;""><p>What type of rock is this?</p>","7","class_response","1","train","40","Pumice","Basalt","12","false","8","2","",""
"","","","","","","","","","","","html-button-response","184","2.0.0","1179719","6604276e62cf4a8392d9a5eb","2","28","1767","","","","","","","","","<img src= rock_img/I_Basalt_12.jpg style=""width:8cm; height:6.010000000000001cm;""><p style='font-size: 30px; color: red;'><strong>Incorrect!</strong></p><p style='font-size: 30px;'><strong>This rock is basalt</strong></p>","0","corr_feedback","1","train","40","","","","","","","",""
"","","","","","","","","","","","html-button-response","185","2.0.0","1193132","6604276e62cf4a8392d9a5eb","2","28","13411","","","","","","","","","<img src= ""rock_img/I_Andesite_14.jpg"" style=""width:8cm; height:5.449999999999999cm;""><p>What type of rock is this?</p>","0","class_response","1","train","41","Andesite","Andesite","14","true","1","1","",""
"","","","","","","","","","","","html-button-response","186","2.0.0","1193926","6604276e62cf4a8392d9a5eb","2","28","791","","","","","","","","","<img src= rock_img/I_Andesite_14.jpg style=""width:8cm; height:5.449999999999999cm;""><p style='font-size: 30px; color: green;'><strong>Correct!</strong></p><p style='font-size: 30px;'><strong>This rock is andesite</strong></p>","0","corr_feedback","1","train","41","","","","","","","",""
"","","","","","","","","","","","html-button-response","187","2.0.0","1198498","6604276e62cf4a8392d9a5eb","2","28","4570","","","","","","","","","<img src= ""rock_img/I_Gabbro_01.jpg"" style=""width:8cm; height:5.21cm;""><p>What type of rock is this?</p>","3","class_response","1","train","42","Gabbro","Gabbro","01","true","4","4","",""
"","","","","","","","","","","","html-button-response","188","2.0.0","1199292","6604276e62cf4a8392d9a5eb","2","28","792","","","","","","","","","<img src= rock_img/I_Gabbro_01.jpg style=""width:8cm; height:5.21cm;""><p style='font-size: 30px; color: green;'><strong>Correct!</strong></p><p style='font-size: 30px;'><strong>This rock is gabbro</strong></p>","0","corr_feedback","1","train","42","","","","","","","",""
"","","","","","","","","","","","html-button-response","189","2.0.0","1200599","6604276e62cf4a8392d9a5eb","2","28","1305","","","","","","","","","<img src= ""rock_img/I_Basalt_08.jpg"" style=""width:8cm; height:10.44cm;""><p>What type of rock is this?</p>","1","class_response","1","train","43","Basalt","Basalt","08","true","2","2","",""
"","","","","","","","","","","","html-button-response","190","2.0.0","1201370","6604276e62cf4a8392d9a5eb","2","28","769","","","","","","","","","<img src= rock_img/I_Basalt_08.jpg style=""width:8cm; height:10.44cm;""><p style='font-size: 30px; color: green;'><strong>Correct!</strong></p><p style='font-size: 30px;'><strong>This rock is basalt</strong></p>","0","corr_feedback","1","train","43","","","","","","","",""
"","","","","","","","","","","","html-button-response","191","2.0.0","1215903","6604276e62cf4a8392d9a5eb","2","28","14531","","","","","","","","","<img src= ""rock_img/I_Andesite_10.jpg"" style=""width:8cm; height:4.16cm;""><p>What type of rock is this?</p>","3","class_response","1","train","44","Gabbro","Andesite","10","false","4","1","",""
"","","","","","","","","","","","html-button-response","192","2.0.0","1217368","6604276e62cf4a8392d9a5eb","2","28","1464","","","","","","","","","<img src= rock_img/I_Andesite_10.jpg style=""width:8cm; height:4.16cm;""><p style='font-size: 30px; color: red;'><strong>Incorrect!</strong></p><p style='font-size: 30px;'><strong>This rock is andesite</strong></p>","0","corr_feedback","1","train","44","","","","","","","",""
"","","","","","","","","","","","html-button-response","193","2.0.0","1228493","6604276e62cf4a8392d9a5eb","2","28","11122","","","","","","","","","<img src= ""rock_img/I_Andesite_04.jpg"" style=""width:8cm; height:5.96cm;""><p>What type of rock is this?</p>","0","class_response","1","train","45","Andesite","Andesite","04","true","1","1","",""
"","","","","","","","","","","","html-button-response","194","2.0.0","1229270","6604276e62cf4a8392d9a5eb","2","28","775","","","","","","","","","<img src= rock_img/I_Andesite_04.jpg style=""width:8cm; height:5.96cm;""><p style='font-size: 30px; color: green;'><strong>Correct!</strong></p><p style='font-size: 30px;'><strong>This rock is andesite</strong></p>","0","corr_feedback","1","train","45","","","","","","","",""
"","","","","","","","","","","","html-button-response","195","2.0.0","1238111","6604276e62cf4a8392d9a5eb","2","28","8838","","","","","","","","","<img src= ""rock_img/I_Diorite_06.jpg"" style=""width:8cm; height:6.03cm;""><p>What type of rock is this?</p>","2","class_response","1","train","46","Diorite","Diorite","06","true","3","3","",""
"","","","","","","","","","","","html-button-response","196","2.0.0","1238946","6604276e62cf4a8392d9a5eb","2","28","833","","","","","","","","","<img src= rock_img/I_Diorite_06.jpg style=""width:8cm; height:6.03cm;""><p style='font-size: 30px; color: green;'><strong>Correct!</strong></p><p style='font-size: 30px;'><strong>This rock is diorite</strong></p>","0","corr_feedback","1","train","46","","","","","","","",""
"","","","","","","","","","","","html-button-response","197","2.0.0","1241407","6604276e62cf4a8392d9a5eb","2","28","2459","","","","","","","","","<img src= ""rock_img/I_Andesite_06.jpg"" style=""width:8cm; height:6.840000000000001cm;""><p>What type of rock is this?</p>","0","class_response","1","train","47","Andesite","Andesite","06","true","1","1","",""
"","","","","","","","","","","","html-button-response","198","2.0.0","1242064","6604276e62cf4a8392d9a5eb","2","28","655","","","","","","","","","<img src= rock_img/I_Andesite_06.jpg style=""width:8cm; height:6.840000000000001cm;""><p style='font-size: 30px; color: green;'><strong>Correct!</strong></p><p style='font-size: 30px;'><strong>This rock is andesite</strong></p>","0","corr_feedback","1","train","47","","","","","","","",""
"","","","","","","","","","","","html-button-response","199","2.0.0","1245701","6604276e62cf4a8392d9a5eb","2","28","3635","","","","","","","","","<img src= ""rock_img/I_Pegmatite_05.jpg"" style=""width:8cm; height:7.300000000000001cm;""><p>What type of rock is this?</p>","5","class_response","1","train","48","Pegmatite","Pegmatite","05","true","6","6","",""
"","","","","","","","","","","","html-button-response","200","2.0.0","1246404","6604276e62cf4a8392d9a5eb","2","28","700","","","","","","","","","<img src= rock_img/I_Pegmatite_05.jpg style=""width:8cm; height:7.300000000000001cm;""><p style='font-size: 30px; color: green;'><strong>Correct!</strong></p><p style='font-size: 30px;'><strong>This rock is pegmatite</strong></p>","0","corr_feedback","1","train","48","","","","","","","",""
"","","","","","","","","","","","instructions","203","2.0.0","1255754","6604276e62cf4a8392d9a5eb","2","28","9348","","","","","","","","[{""page_index"":0,""viewing_time"":3637},{""page_index"":1,""viewing_time"":5711}]","","","","","","","","","","","","","",""
"","","","","","","","","","","","html-button-response","204","2.0.0","1256954","6604276e62cf4a8392d9a5eb","2","28","1197","","","","","","","","","","0","start_test","","","","","","","","","","",""
"","","","","","","","","","","","html-button-response","205","2.0.0","1258492","6604276e62cf4a8392d9a5eb","2","28","1535","","","","","","","","","<img src= ""rock_img/I_Andesite_16.jpg"" style=""width:8cm; height:6.010000000000001cm;""><p>What type of rock is this?</p>","0","class_response","1","test","1","Andesite","Andesite","16","true","1","1","",""
"","","","","","","","","","","","html-keyboard-response","206","2.0.0","1258994","6604276e62cf4a8392d9a5eb","2","28","null","","","","","","","","","<p style='font-size: 30px;'><strong>Okay</strong></p>","null","neutral_feedback","1","test","1","","","","","","","",""
"","","","","","","","","","","","html-button-response","207","2.0.0","1261961","6604276e62cf4a8392d9a5eb","2","28","2964","","","","","","","","","<img src= ""rock_img/I_Diorite_16.jpg"" style=""width:8cm; height:6.74cm;""><p>What type of rock is this?</p>","2","class_response","1","test","2","Diorite","Diorite","16","true","3","3","",""
"","","","","","","","","","","","html-keyboard-response","208","2.0.0","1262464","6604276e62cf4a8392d9a5eb","2","28","null","","","","","","","","","<p style='font-size: 30px;'><strong>Okay</strong></p>","null","neutral_feedback","1","test","2","","","","","","","",""
"","","","","","","","","","","","html-button-response","209","2.0.0","1267287","6604276e62cf4a8392d9a5eb","2","28","4821","","","","","","","","","<img src= ""rock_img/I_Peridotite_13.jpg"" style=""width:8cm; height:7.58cm;""><p>What type of rock is this?</p>","6","class_response","1","test","3","Peridotite","Peridotite","13","true","7","7","",""
"","","","","","","","","","","","html-keyboard-response","210","2.0.0","1267788","6604276e62cf4a8392d9a5eb","2","28","null","","","","","","","","","<p style='font-size: 30px;'><strong>Okay</strong></p>","null","neutral_feedback","1","test","3","","","","","","","",""
"","","","","","","","","","","","html-button-response","211","2.0.0","1271147","6604276e62cf4a8392d9a5eb","2","28","3357","","","","","","","","","<img src= ""rock_img/I_Diorite_15.jpg"" style=""width:8cm; height:5.54cm;""><p>What type of rock is this?</p>","3","class_response","1","test","4","Gabbro","Diorite","15","false","4","3","",""
"","","","","","","","","","","","html-keyboard-response","212","2.0.0","1271648","6604276e62cf4a8392d9a5eb","2","28","null","","","","","","","","","<p style='font-size: 30px;'><strong>Okay</strong></p>","null","neutral_feedback","1","test","4","","","","","","","",""
"","","","","","","","","","","","html-button-response","213","2.0.0","1280299","6604276e62cf4a8392d9a5eb","2","28","8649","","","","","","","","","<img src= ""rock_img/I_Peridotite_15.jpg"" style=""width:8cm; height:6cm;""><p>What type of rock is this?</p>","6","class_response","1","test","5","Peridotite","Peridotite","15","true","7","7","",""
"","","","","","","","","","","","html-keyboard-response","214","2.0.0","1280802","6604276e62cf4a8392d9a5eb","2","28","null","","","","","","","","","<p style='font-size: 30px;'><strong>Okay</strong></p>","null","neutral_feedback","1","test","5","","","","","","","",""
"","","","","","","","","","","","html-button-response","215","2.0.0","1283105","6604276e62cf4a8392d9a5eb","2","28","2301","","","","","","","","","<img src= ""rock_img/I_Pegmatite_09.jpg"" style=""width:8cm; height:4.03cm;""><p>What type of rock is this?</p>","5","class_response","1","test","6","Pegmatite","Pegmatite","09","true","6","6","",""
"","","","","","","","","","","","html-keyboard-response","216","2.0.0","1283607","6604276e62cf4a8392d9a5eb","2","28","null","","","","","","","","","<p style='font-size: 30px;'><strong>Okay</strong></p>","null","neutral_feedback","1","test","6","","","","","","","",""
"","","","","","","","","","","","html-button-response","217","2.0.0","1285925","6604276e62cf4a8392d9a5eb","2","28","2315","","","","","","","","","<img src= ""rock_img/I_Obsidian_05.jpg"" style=""width:8cm; height:6.33cm;""><p>What type of rock is this?</p>","4","class_response","1","test","7","Obsidian","Obsidian","05","true","5","5","",""
"","","","","","","","","","","","html-keyboard-response","218","2.0.0","1286427","6604276e62cf4a8392d9a5eb","2","28","null","","","","","","","","","<p style='font-size: 30px;'><strong>Okay</strong></p>","null","neutral_feedback","1","test","7","","","","","","","",""
"","","","","","","","","","","","html-button-response","219","2.0.0","1300146","6604276e62cf4a8392d9a5eb","2","28","13717","","","","","","","","","<img src= ""rock_img/I_Diorite_12.jpg"" style=""width:8cm; height:4.88cm;""><p>What type of rock is this?</p>","2","class_response","1","test","8","Diorite","Diorite","12","true","3","3","",""
"","","","","","","","","","","","html-keyboard-response","220","2.0.0","1300648","6604276e62cf4a8392d9a5eb","2","28","null","","","","","","","","","<p style='font-size: 30px;'><strong>Okay</strong></p>","null","neutral_feedback","1","test","8","","","","","","","",""
"","","","","","","","","","","","html-button-response","221","2.0.0","1354429","6604276e62cf4a8392d9a5eb","2","28","53778","","","","","","","","","<img src= ""rock_img/I_Gabbro_08.jpg"" style=""width:8cm; height:5.15cm;""><p>What type of rock is this?</p>","3","class_response","1","test","9","Gabbro","Gabbro","08","true","4","4","",""
"","","","","","","","","","","","html-keyboard-response","222","2.0.0","1354931","6604276e62cf4a8392d9a5eb","2","28","null","","","","","","","","","<p style='font-size: 30px;'><strong>Okay</strong></p>","null","neutral_feedback","1","test","9","","","","","","","",""
"","","","","","","","","","","","html-button-response","223","2.0.0","1358432","6604276e62cf4a8392d9a5eb","2","28","3498","","","","","","","","","<img src= ""rock_img/I_Basalt_11.jpg"" style=""width:8cm; height:5.359999999999999cm;""><p>What type of rock is this?</p>","1","class_response","1","test","10","Basalt","Basalt","11","true","2","2","",""
"","","","","","","","","","","","html-keyboard-response","224","2.0.0","1358934","6604276e62cf4a8392d9a5eb","2","28","null","","","","","","","","","<p style='font-size: 30px;'><strong>Okay</strong></p>","null","neutral_feedback","1","test","10","","","","","","","",""
"","","","","","","","","","","","html-button-response","225","2.0.0","1363721","6604276e62cf4a8392d9a5eb","2","28","4785","","","","","","","","","<img src= ""rock_img/I_Peridotite_02.jpg"" style=""width:8cm; height:5.859999999999999cm;""><p>What type of rock is this?</p>","6","class_response","1","test","11","Peridotite","Peridotite","02","true","7","7","",""
"","","","","","","","","","","","html-keyboard-response","226","2.0.0","1364225","6604276e62cf4a8392d9a5eb","2","28","null","","","","","","","","","<p style='font-size: 30px;'><strong>Okay</strong></p>","null","neutral_feedback","1","test","11","","","","","","","",""
"","","","","","","","","","","","html-button-response","227","2.0.0","1365738","6604276e62cf4a8392d9a5eb","2","28","1511","","","","","","","","","<img src= ""rock_img/I_Obsidian_09.jpg"" style=""width:8cm; height:5cm;""><p>What type of rock is this?</p>","4","class_response","1","test","12","Obsidian","Obsidian","09","true","5","5","",""
"","","","","","","","","","","","html-keyboard-response","228","2.0.0","1366239","6604276e62cf4a8392d9a5eb","2","28","null","","","","","","","","","<p style='font-size: 30px;'><strong>Okay</strong></p>","null","neutral_feedback","1","test","12","","","","","","","",""
"","","","","","","","","","","","html-button-response","229","2.0.0","1367694","6604276e62cf4a8392d9a5eb","2","28","1453","","","","","","","","","<img src= ""rock_img/I_Andesite_11.jpg"" style=""width:8cm; height:4.92cm;""><p>What type of rock is this?</p>","0","class_response","1","test","13","Andesite","Andesite","11","true","1","1","",""
"","","","","","","","","","","","html-keyboard-response","230","2.0.0","1368196","6604276e62cf4a8392d9a5eb","2","28","null","","","","","","","","","<p style='font-size: 30px;'><strong>Okay</strong></p>","null","neutral_feedback","1","test","13","","","","","","","",""
"","","","","","","","","","","","html-button-response","231","2.0.0","1369396","6604276e62cf4a8392d9a5eb","2","28","1198","","","","","","","","","<img src= ""rock_img/I_Pumice_16.jpg"" style=""width:8cm; height:6.79cm;""><p>What type of rock is this?</p>","7","class_response","1","test","14","Pumice","Pumice","16","true","8","8","",""
"","","","","","","","","","","","html-keyboard-response","232","2.0.0","1369898","6604276e62cf4a8392d9a5eb","2","28","null","","","","","","","","","<p style='font-size: 30px;'><strong>Okay</strong></p>","null","neutral_feedback","1","test","14","","","","","","","",""
"","","","","","","","","","","","html-button-response","233","2.0.0","1372292","6604276e62cf4a8392d9a5eb","2","28","2390","","","","","","","","","<img src= ""rock_img/I_Pegmatite_08.jpg"" style=""width:8cm; height:7.68cm;""><p>What type of rock is this?</p>","5","class_response","1","test","15","Pegmatite","Pegmatite","08","true","6","6","",""
"","","","","","","","","","","","html-keyboard-response","234","2.0.0","1372794","6604276e62cf4a8392d9a5eb","2","28","null","","","","","","","","","<p style='font-size: 30px;'><strong>Okay</strong></p>","null","neutral_feedback","1","test","15","","","","","","","",""
"","","","","","","","","","","","html-button-response","235","2.0.0","1374601","6604276e62cf4a8392d9a5eb","2","28","1805","","","","","","","","","<img src= ""rock_img/I_Obsidian_11.jpg"" style=""width:8cm; height:6.05cm;""><p>What type of rock is this?</p>","4","class_response","1","test","16","Obsidian","Obsidian","11","true","5","5","",""
"","","","","","","","","","","","html-keyboard-response","236","2.0.0","1375102","6604276e62cf4a8392d9a5eb","2","28","null","","","","","","","","","<p style='font-size: 30px;'><strong>Okay</strong></p>","null","neutral_feedback","1","test","16","","","","","","","",""
"","","","","","","","","","","","html-button-response","237","2.0.0","1376451","6604276e62cf4a8392d9a5eb","2","28","1346","","","","","","","","","<img src= ""rock_img/I_Andesite_07.jpg"" style=""width:8cm; height:5.93cm;""><p>What type of rock is this?</p>","0","class_response","1","test","17","Andesite","Andesite","07","true","1","1","",""
"","","","","","","","","","","","html-keyboard-response","238","2.0.0","1376952","6604276e62cf4a8392d9a5eb","2","28","null","","","","","","","","","<p style='font-size: 30px;'><strong>Okay</strong></p>","null","neutral_feedback","1","test","17","","","","","","","",""
"","","","","","","","","","","","html-button-response","239","2.0.0","1379643","6604276e62cf4a8392d9a5eb","2","28","2688","","","","","","","","","<img src= ""rock_img/I_Diorite_07.jpg"" style=""width:8cm; height:5.239999999999999cm;""><p>What type of rock is this?</p>","2","class_response","1","test","18","Diorite","Diorite","07","true","3","3","",""
"","","","","","","","","","","","html-keyboard-response","240","2.0.0","1380145","6604276e62cf4a8392d9a5eb","2","28","null","","","","","","","","","<p style='font-size: 30px;'><strong>Okay</strong></p>","null","neutral_feedback","1","test","18","","","","","","","",""
"","","","","","","","","","","","html-button-response","241","2.0.0","1385322","6604276e62cf4a8392d9a5eb","2","28","5176","","","","","","","","","<img src= ""rock_img/I_Gabbro_12.jpg"" style=""width:8cm; height:7.800000000000001cm;""><p>What type of rock is this?</p>","1","class_response","1","test","19","Basalt","Gabbro","12","false","2","4","",""
"","","","","","","","","","","","html-keyboard-response","242","2.0.0","1385825","6604276e62cf4a8392d9a5eb","2","28","null","","","","","","","","","<p style='font-size: 30px;'><strong>Okay</strong></p>","null","neutral_feedback","1","test","19","","","","","","","",""
"","","","","","","","","","","","html-button-response","243","2.0.0","1415076","6604276e62cf4a8392d9a5eb","2","28","29248","","","","","","","","","<img src= ""rock_img/I_Gabbro_09.jpg"" style=""width:8cm; height:7.279999999999999cm;""><p>What type of rock is this?</p>","4","class_response","1","test","20","Obsidian","Gabbro","09","false","5","4","",""
"","","","","","","","","","","","html-keyboard-response","244","2.0.0","1415578","6604276e62cf4a8392d9a5eb","2","28","null","","","","","","","","","<p style='font-size: 30px;'><strong>Okay</strong></p>","null","neutral_feedback","1","test","20","","","","","","","",""
"","","","","","","","","","","","html-button-response","245","2.0.0","1417437","6604276e62cf4a8392d9a5eb","2","28","1856","","","","","","","","","<img src= ""rock_img/I_Pegmatite_15.jpg"" style=""width:8cm; height:6cm;""><p>What type of rock is this?</p>","5","class_response","1","test","21","Pegmatite","Pegmatite","15","true","6","6","",""
"","","","","","","","","","","","html-keyboard-response","246","2.0.0","1417938","6604276e62cf4a8392d9a5eb","2","28","null","","","","","","","","","<p style='font-size: 30px;'><strong>Okay</strong></p>","null","neutral_feedback","1","test","21","","","","","","","",""
"","","","","","","","","","","","html-button-response","247","2.0.0","1429624","6604276e62cf4a8392d9a5eb","2","28","11682","","","","","","","","","<img src= ""rock_img/I_Peridotite_14.jpg"" style=""width:8cm; height:5.3cm;""><p>What type of rock is this?</p>","6","class_response","1","test","22","Peridotite","Peridotite","14","true","7","7","",""
"","","","","","","","","","","","html-keyboard-response","248","2.0.0","1430126","6604276e62cf4a8392d9a5eb","2","28","null","","","","","","","","","<p style='font-size: 30px;'><strong>Okay</strong></p>","null","neutral_feedback","1","test","22","","","","","","","",""
"","","","","","","","","","","","html-button-response","249","2.0.0","1431595","6604276e62cf4a8392d9a5eb","2","28","1466","","","","","","","","","<img src= ""rock_img/I_Andesite_03.jpg"" style=""width:8cm; height:5.73cm;""><p>What type of rock is this?</p>","0","class_response","1","test","23","Andesite","Andesite","03","true","1","1","",""
"","","","","","","","","","","","html-keyboard-response","250","2.0.0","1432097","6604276e62cf4a8392d9a5eb","2","28","null","","","","","","","","","<p style='font-size: 30px;'><strong>Okay</strong></p>","null","neutral_feedback","1","test","23","","","","","","","",""
"","","","","","","","","","","","html-button-response","251","2.0.0","1448021","6604276e62cf4a8392d9a5eb","2","28","15921","","","","","","","","","<img src= ""rock_img/I_Andesite_02.jpg"" style=""width:8cm; height:8.5cm;""><p>What type of rock is this?</p>","3","class_response","1","test","24","Gabbro","Andesite","02","false","4","1","",""
"","","","","","","","","","","","html-keyboard-response","252","2.0.0","1448524","6604276e62cf4a8392d9a5eb","2","28","null","","","","","","","","","<p style='font-size: 30px;'><strong>Okay</strong></p>","null","neutral_feedback","1","test","24","","","","","","","",""
"","","","","","","","","","","","html-button-response","253","2.0.0","1450373","6604276e62cf4a8392d9a5eb","2","28","1847","","","","","","","","","<img src= ""rock_img/I_Gabbro_15.jpg"" style=""width:8cm; height:6.29cm;""><p>What type of rock is this?</p>","3","class_response","1","test","25","Gabbro","Gabbro","15","true","4","4","",""
"","","","","","","","","","","","html-keyboard-response","254","2.0.0","1450876","6604276e62cf4a8392d9a5eb","2","28","null","","","","","","","","","<p style='font-size: 30px;'><strong>Okay</strong></p>","null","neutral_feedback","1","test","25","","","","","","","",""
"","","","","","","","","","","","html-button-response","255","2.0.0","1452124","6604276e62cf4a8392d9a5eb","2","28","1246","","","","","","","","","<img src= ""rock_img/I_Basalt_04.jpg"" style=""width:8cm; height:7.53cm;""><p>What type of rock is this?</p>","1","class_response","1","test","26","Basalt","Basalt","04","true","2","2","",""
"","","","","","","","","","","","html-keyboard-response","256","2.0.0","1452625","6604276e62cf4a8392d9a5eb","2","28","null","","","","","","","","","<p style='font-size: 30px;'><strong>Okay</strong></p>","null","neutral_feedback","1","test","26","","","","","","","",""
"","","","","","","","","","","","html-button-response","257","2.0.0","1462816","6604276e62cf4a8392d9a5eb","2","28","10189","","","","","","","","","<img src= ""rock_img/I_Pegmatite_13.jpg"" style=""width:8cm; height:4.95cm;""><p>What type of rock is this?</p>","3","class_response","1","test","27","Gabbro","Pegmatite","13","false","4","6","",""
"","","","","","","","","","","","html-keyboard-response","258","2.0.0","1463318","6604276e62cf4a8392d9a5eb","2","28","null","","","","","","","","","<p style='font-size: 30px;'><strong>Okay</strong></p>","null","neutral_feedback","1","test","27","","","","","","","",""
"","","","","","","","","","","","html-button-response","259","2.0.0","1464469","6604276e62cf4a8392d9a5eb","2","28","1148","","","","","","","","","<img src= ""rock_img/I_Pumice_04.jpg"" style=""width:8cm; height:6.819999999999999cm;""><p>What type of rock is this?</p>","7","class_response","1","test","28","Pumice","Pumice","04","true","8","8","",""
"","","","","","","","","","","","html-keyboard-response","260","2.0.0","1464970","6604276e62cf4a8392d9a5eb","2","28","null","","","","","","","","","<p style='font-size: 30px;'><strong>Okay</strong></p>","null","neutral_feedback","1","test","28","","","","","","","",""
"","","","","","","","","","","","html-button-response","261","2.0.0","1466017","6604276e62cf4a8392d9a5eb","2","28","1044","","","","","","","","","<img src= ""rock_img/I_Obsidian_10.jpg"" style=""width:8cm; height:6.260000000000001cm;""><p>What type of rock is this?</p>","4","class_response","1","test","29","Obsidian","Obsidian","10","true","5","5","",""
"","","","","","","","","","","","html-keyboard-response","262","2.0.0","1466520","6604276e62cf4a8392d9a5eb","2","28","null","","","","","","","","","<p style='font-size: 30px;'><strong>Okay</strong></p>","null","neutral_feedback","1","test","29","","","","","","","",""
"","","","","","","","","","","","html-button-response","263","2.0.0","1467553","6604276e62cf4a8392d9a5eb","2","28","1031","","","","","","","","","<img src= ""rock_img/I_Basalt_09.jpg"" style=""width:8cm; height:6.2cm;""><p>What type of rock is this?</p>","1","class_response","1","test","30","Basalt","Basalt","09","true","2","2","",""
"","","","","","","","","","","","html-keyboard-response","264","2.0.0","1468054","6604276e62cf4a8392d9a5eb","2","28","null","","","","","","","","","<p style='font-size: 30px;'><strong>Okay</strong></p>","null","neutral_feedback","1","test","30","","","","","","","",""
"","","","","","","","","","","","html-button-response","265","2.0.0","1469171","6604276e62cf4a8392d9a5eb","2","28","1114","","","","","","","","","<img src= ""rock_img/I_Obsidian_16.jpg"" style=""width:8cm; height:9.3cm;""><p>What type of rock is this?</p>","4","class_response","1","test","31","Obsidian","Obsidian","16","true","5","5","",""
"","","","","","","","","","","","html-keyboard-response","266","2.0.0","1469672","6604276e62cf4a8392d9a5eb","2","28","null","","","","","","","","","<p style='font-size: 30px;'><strong>Okay</strong></p>","null","neutral_feedback","1","test","31","","","","","","","",""
"","","","","","","","","","","","html-button-response","267","2.0.0","1470809","6604276e62cf4a8392d9a5eb","2","28","1134","","","","","","","","","<img src= ""rock_img/I_Pumice_05.jpg"" style=""width:8cm; height:7.25cm;""><p>What type of rock is this?</p>","7","class_response","1","test","32","Pumice","Pumice","05","true","8","8","",""
"","","","","","","","","","","","html-keyboard-response","268","2.0.0","1471310","6604276e62cf4a8392d9a5eb","2","28","null","","","","","","","","","<p style='font-size: 30px;'><strong>Okay</strong></p>","null","neutral_feedback","1","test","32","","","","","","","",""
"","","","","","","","","","","","html-button-response","269","2.0.0","1472557","6604276e62cf4a8392d9a5eb","2","28","1243","","","","","","","","","<img src= ""rock_img/I_Pumice_02.jpg"" style=""width:8cm; height:7.3999999999999995cm;""><p>What type of rock is this?</p>","7","class_response","1","test","33","Pumice","Pumice","02","true","8","8","",""
"","","","","","","","","","","","html-keyboard-response","270","2.0.0","1473059","6604276e62cf4a8392d9a5eb","2","28","null","","","","","","","","","<p style='font-size: 30px;'><strong>Okay</strong></p>","null","neutral_feedback","1","test","33","","","","","","","",""
"","","","","","","","","","","","html-button-response","271","2.0.0","1478482","6604276e62cf4a8392d9a5eb","2","28","5421","","","","","","","","","<img src= ""rock_img/I_Gabbro_16.jpg"" style=""width:8cm; height:6.44cm;""><p>What type of rock is this?</p>","3","class_response","1","test","34","Gabbro","Gabbro","16","true","4","4","",""
"","","","","","","","","","","","html-keyboard-response","272","2.0.0","1478984","6604276e62cf4a8392d9a5eb","2","28","null","","","","","","","","","<p style='font-size: 30px;'><strong>Okay</strong></p>","null","neutral_feedback","1","test","34","","","","","","","",""
"","","","","","","","","","","","html-button-response","273","2.0.0","1487282","6604276e62cf4a8392d9a5eb","2","28","8295","","","","","","","","","<img src= ""rock_img/I_Diorite_11.jpg"" style=""width:8cm; height:7.11cm;""><p>What type of rock is this?</p>","3","class_response","1","test","35","Gabbro","Diorite","11","false","4","3","",""
"","","","","","","","","","","","html-keyboard-response","274","2.0.0","1487784","6604276e62cf4a8392d9a5eb","2","28","null","","","","","","","","","<p style='font-size: 30px;'><strong>Okay</strong></p>","null","neutral_feedback","1","test","35","","","","","","","",""
"","","","","","","","","","","","html-button-response","275","2.0.0","1489766","6604276e62cf4a8392d9a5eb","2","28","1980","","","","","","","","","<img src= ""rock_img/I_Peridotite_07.jpg"" style=""width:8cm; height:4.83cm;""><p>What type of rock is this?</p>","6","class_response","1","test","36","Peridotite","Peridotite","07","true","7","7","",""
"","","","","","","","","","","","html-keyboard-response","276","2.0.0","1490269","6604276e62cf4a8392d9a5eb","2","28","null","","","","","","","","","<p style='font-size: 30px;'><strong>Okay</strong></p>","null","neutral_feedback","1","test","36","","","","","","","",""
"","","","","","","","","","","","html-button-response","277","2.0.0","1492073","6604276e62cf4a8392d9a5eb","2","28","1801","","","","","","","","","<img src= ""rock_img/I_Pegmatite_16.jpg"" style=""width:8cm; height:5.8cm;""><p>What type of rock is this?</p>","5","class_response","1","test","37","Pegmatite","Pegmatite","16","true","6","6","",""
"","","","","","","","","","","","html-keyboard-response","278","2.0.0","1492575","6604276e62cf4a8392d9a5eb","2","28","null","","","","","","","","","<p style='font-size: 30px;'><strong>Okay</strong></p>","null","neutral_feedback","1","test","37","","","","","","","",""
"","","","","","","","","","","","html-button-response","279","2.0.0","1494105","6604276e62cf4a8392d9a5eb","2","28","1528","","","","","","","","","<img src= ""rock_img/I_Peridotite_05.jpg"" style=""width:8cm; height:7.1499999999999995cm;""><p>What type of rock is this?</p>","6","class_response","1","test","38","Peridotite","Peridotite","05","true","7","7","",""
"","","","","","","","","","","","html-keyboard-response","280","2.0.0","1494607","6604276e62cf4a8392d9a5eb","2","28","null","","","","","","","","","<p style='font-size: 30px;'><strong>Okay</strong></p>","null","neutral_feedback","1","test","38","","","","","","","",""
"","","","","","","","","","","","html-button-response","281","2.0.0","1495824","6604276e62cf4a8392d9a5eb","2","28","1215","","","","","","","","","<img src= ""rock_img/I_Basalt_02.jpg"" style=""width:8cm; height:6.45cm;""><p>What type of rock is this?</p>","1","class_response","1","test","39","Basalt","Basalt","02","true","2","2","",""
"","","","","","","","","","","","html-keyboard-response","282","2.0.0","1496326","6604276e62cf4a8392d9a5eb","2","28","null","","","","","","","","","<p style='font-size: 30px;'><strong>Okay</strong></p>","null","neutral_feedback","1","test","39","","","","","","","",""
"","","","","","","","","","","","html-button-response","283","2.0.0","1524846","6604276e62cf4a8392d9a5eb","2","28","28518","","","","","","","","","<img src= ""rock_img/I_Basalt_16.jpg"" style=""width:8cm; height:7.659999999999999cm;""><p>What type of rock is this?</p>","1","class_response","1","test","40","Basalt","Basalt","16","true","2","2","",""
"","","","","","","","","","","","html-keyboard-response","284","2.0.0","1525348","6604276e62cf4a8392d9a5eb","2","28","null","","","","","","","","","<p style='font-size: 30px;'><strong>Okay</strong></p>","null","neutral_feedback","1","test","40","","","","","","","",""
"","","","","","","","","","","","html-button-response","285","2.0.0","1526853","6604276e62cf4a8392d9a5eb","2","28","1502","","","","","","","","","<img src= ""rock_img/I_Basalt_01.jpg"" style=""width:8cm; height:7.880000000000001cm;""><p>What type of rock is this?</p>","1","class_response","1","test","41","Basalt","Basalt","01","true","2","2","",""
"","","","","","","","","","","","html-keyboard-response","286","2.0.0","1527355","6604276e62cf4a8392d9a5eb","2","28","null","","","","","","","","","<p style='font-size: 30px;'><strong>Okay</strong></p>","null","neutral_feedback","1","test","41","","","","","","","",""
"","","","","","","","","","","","html-button-response","287","2.0.0","1530662","6604276e62cf4a8392d9a5eb","2","28","3304","","","","","","","","","<img src= ""rock_img/I_Pegmatite_11.jpg"" style=""width:8cm; height:8.14cm;""><p>What type of rock is this?</p>","5","class_response","1","test","42","Pegmatite","Pegmatite","11","true","6","6","",""
"","","","","","","","","","","","html-keyboard-response","288","2.0.0","1531164","6604276e62cf4a8392d9a5eb","2","28","null","","","","","","","","","<p style='font-size: 30px;'><strong>Okay</strong></p>","null","neutral_feedback","1","test","42","","","","","","","",""
"","","","","","","","","","","","html-button-response","289","2.0.0","1533020","6604276e62cf4a8392d9a5eb","2","28","1853","","","","","","","","","<img src= ""rock_img/I_Diorite_09.jpg"" style=""width:8cm; height:5.27cm;""><p>What type of rock is this?</p>","2","class_response","1","test","43","Diorite","Diorite","09","true","3","3","",""
"","","","","","","","","","","","html-keyboard-response","290","2.0.0","1533522","6604276e62cf4a8392d9a5eb","2","28","null","","","","","","","","","<p style='font-size: 30px;'><strong>Okay</strong></p>","null","neutral_feedback","1","test","43","","","","","","","",""
"","","","","","","","","","","","html-button-response","291","2.0.0","1569175","6604276e62cf4a8392d9a5eb","2","28","35651","","","","","","","","","<img src= ""rock_img/I_Gabbro_10.jpg"" style=""width:8cm; height:5.680000000000001cm;""><p>What type of rock is this?</p>","3","class_response","1","test","44","Gabbro","Gabbro","10","true","4","4","",""
"","","","","","","","","","","","html-keyboard-response","292","2.0.0","1569678","6604276e62cf4a8392d9a5eb","2","28","null","","","","","","","","","<p style='font-size: 30px;'><strong>Okay</strong></p>","null","neutral_feedback","1","test","44","","","","","","","",""
"","","","","","","","","","","","html-button-response","293","2.0.0","1575753","6604276e62cf4a8392d9a5eb","2","28","6073","","","","","","","","","<img src= ""rock_img/I_Andesite_01.jpg"" style=""width:8cm; height:5.87cm;""><p>What type of rock is this?</p>","3","class_response","1","test","45","Gabbro","Andesite","01","false","4","1","",""
"","","","","","","","","","","","html-keyboard-response","294","2.0.0","1576256","6604276e62cf4a8392d9a5eb","2","28","null","","","","","","","","","<p style='font-size: 30px;'><strong>Okay</strong></p>","null","neutral_feedback","1","test","45","","","","","","","",""
"","","","","","","","","","","","html-button-response","295","2.0.0","1577373","6604276e62cf4a8392d9a5eb","2","28","1115","","","","","","","","","<img src= ""rock_img/I_Pumice_14.jpg"" style=""width:8cm; height:6.39cm;""><p>What type of rock is this?</p>","7","class_response","1","test","46","Pumice","Pumice","14","true","8","8","",""
"","","","","","","","","","","","html-keyboard-response","296","2.0.0","1577876","6604276e62cf4a8392d9a5eb","2","28","null","","","","","","","","","<p style='font-size: 30px;'><strong>Okay</strong></p>","null","neutral_feedback","1","test","46","","","","","","","",""
"","","","","","","","","","","","html-button-response","297","2.0.0","1579120","6604276e62cf4a8392d9a5eb","2","28","1241","","","","","","","","","<img src= ""rock_img/I_Pumice_10.jpg"" style=""width:8cm; height:7.609999999999999cm;""><p>What type of rock is this?</p>","7","class_response","1","test","47","Pumice","Pumice","10","true","8","8","",""
"","","","","","","","","","","","html-keyboard-response","298","2.0.0","1579622","6604276e62cf4a8392d9a5eb","2","28","null","","","","","","","","","<p style='font-size: 30px;'><strong>Okay</strong></p>","null","neutral_feedback","1","test","47","","","","","","","",""
"","","","","","","","","","","","html-button-response","299","2.0.0","1581339","6604276e62cf4a8392d9a5eb","2","28","1714","","","","","","","","","<img src= ""rock_img/I_Obsidian_07.jpg"" style=""width:8cm; height:4.76cm;""><p>What type of rock is this?</p>","4","class_response","1","test","48","Obsidian","Obsidian","07","true","5","5","",""
"","","","","","","","","","","","html-keyboard-response","300","2.0.0","1581842","6604276e62cf4a8392d9a5eb","2","28","null","","","","","","","","","<p style='font-size: 30px;'><strong>Okay</strong></p>","null","neutral_feedback","1","test","48","","","","","","","",""
"","","","","","","","","","","","html-button-response","301","2.0.0","1609439","6604276e62cf4a8392d9a5eb","2","28","","","","","","","","","","","","cycle_feedback","","","","","","","","","","11690.90000000596","15899.09999999404"
"","","","","","","","","","","","html-button-response","303","2.0.0","1610917","6604276e62cf4a8392d9a5eb","2","28","1477","","","","","","","","","","0","start_train","","","","","","","","","","",""
"","","","","","","","","","","","html-button-response","304","2.0.0","1612241","6604276e62cf4a8392d9a5eb","2","28","1323","","","","","","","","","<img src= ""rock_img/I_Andesite_09.jpg"" style=""width:8cm; height:6cm;""><p>What type of rock is this?</p>","0","class_response","2","train","1","Andesite","Andesite","09","true","1","1","",""
