"width","height","webaudio","browser","browser_version","mobile","os","fullscreen","vsync_rate","webcam","microphone","trial_type","trial_index","plugin_version","time_elapsed","subjID","condition","stimID","rt","url","success","value","timeout","failed_images","failed_audio","failed_video","view_history","stimulus","response","trialType","cycle","phase","trial","resp","cat","token","corr","resp_num","cat_num","time_fb1","time_fb2"
"1219","730","true","chrome","130.0.0","false","Mac OS","true","61.01","true","true","browser-check","0","2.0.0","1016","5f36e3d19ff99d12681ffca7","2","19","","","","","","","","","","","","","","","","","","","","","","",""
"","","","","","","","","","","","external-html","1","2.0.0","7140","5f36e3d19ff99d12681ffca7","2","19","6002","consent_form.html","","","","","","","","","","","","","","","","","","","","",""
"","","","","","","","","","","","fullscreen","2","2.0.0","12693","5f36e3d19ff99d12681ffca7","2","19","4548","","true","","","","","","","","","","","","","","","","","","","",""
"","","","","","","","","","","","call-function","3","2.0.0","12695","5f36e3d19ff99d12681ffca7","2","19","","","","{}","","","","","","","","","","","","","","","","","","",""
"","","","","","","","","","","","preload","4","2.0.0","16112","5f36e3d19ff99d12681ffca7","2","19","","","true","","false","[]","[]","[]","","","","","","","","","","","","","","",""
"","","","","","","","","","","","instructions","5","2.0.0","229142","5f36e3d19ff99d12681ffca7","2","19","212987","","","","","","","","[{""page_index"":0,""viewing_time"":177510},{""page_index"":1,""viewing_time"":23814},{""page_index"":2,""viewing_time"":11646}]","","","","","","","","","","","","","",""
"","","","","","","","","","","","html-button-response","6","2.0.0","231952","5f36e3d19ff99d12681ffca7","2","19","2768","","","","","","","","","","0","start_test","","","","","","","","","","",""
"","","","","","","","","","","","html-button-response","7","2.0.0","238343","5f36e3d19ff99d12681ffca7","2","19","6371","","","","","","","","","<img src= ""rock_img/I_Andesite_07.jpg"" style=""width:8cm; height:5.93cm;""><p>What type of rock is this?</p>","5","class_response","0","test","1","Pegmatite","Andesite","07","false","6","1","",""
"","","","","","","","","","","","html-keyboard-response","8","2.0.0","238849","5f36e3d19ff99d12681ffca7","2","19","null","","","","","","","","","<p style='font-size: 30px;'><strong>Okay</strong></p>","null","neutral_feedback","0","test","1","","","","","","","",""
"","","","","","","","","","","","html-button-response","9","2.0.0","252196","5f36e3d19ff99d12681ffca7","2","19","13344","","","","","","","","","<img src= ""rock_img/I_Diorite_08.jpg"" style=""width:8cm; height:6.37cm;""><p>What type of rock is this?</p>","6","class_response","0","test","2","Peridotite","Diorite","08","false","7","3","",""
"","","","","","","","","","","","html-keyboard-response","10","2.0.0","252699","5f36e3d19ff99d12681ffca7","2","19","null","","","","","","","","","<p style='font-size: 30px;'><strong>Okay</strong></p>","null","neutral_feedback","0","test","2","","","","","","","",""
"","","","","","","","","","","","html-button-response","11","2.0.0","257440","5f36e3d19ff99d12681ffca7","2","19","4739","","","","","","","","","<img src= ""rock_img/I_Gabbro_01.jpg"" style=""width:8cm; height:5.21cm;""><p>What type of rock is this?</p>","0","class_response","0","test","3","Andesite","Gabbro","01","false","1","4","",""
"","","","","","","","","","","","html-keyboard-response","12","2.0.0","257942","5f36e3d19ff99d12681ffca7","2","19","null","","","","","","","","","<p style='font-size: 30px;'><strong>Okay</strong></p>","null","neutral_feedback","0","test","3","","","","","","","",""
"","","","","","","","","","","","html-button-response","13","2.0.0","260882","5f36e3d19ff99d12681ffca7","2","19","2937","","","","","","","","","<img src= ""rock_img/I_Pegmatite_15.jpg"" style=""width:8cm; height:6cm;""><p>What type of rock is this?</p>","3","class_response","0","test","4","Gabbro","Pegmatite","15","false","4","6","",""
"","","","","","","","","","","","html-keyboard-response","14","2.0.0","261385","5f36e3d19ff99d12681ffca7","2","19","null","","","","","","","","","<p style='font-size: 30px;'><strong>Okay</strong></p>","null","neutral_feedback","0","test","4","","","","","","","",""
"","","","","","","","","","","","html-button-response","15","2.0.0","263841","5f36e3d19ff99d12681ffca7","2","19","2453","","","","","","","","","<img src= ""rock_img/I_Pegmatite_03.jpg"" style=""width:8cm; height:5.239999999999999cm;""><p>What type of rock is this?</p>","2","class_response","0","test","5","Diorite","Pegmatite","03","false","3","6","",""
"","","","","","","","","","","","html-keyboard-response","16","2.0.0","264344","5f36e3d19ff99d12681ffca7","2","19","null","","","","","","","","","<p style='font-size: 30px;'><strong>Okay</strong></p>","null","neutral_feedback","0","test","5","","","","","","","",""
"","","","","","","","","","","","html-button-response","17","2.0.0","267907","5f36e3d19ff99d12681ffca7","2","19","3561","","","","","","","","","<img src= ""rock_img/I_Pegmatite_05.jpg"" style=""width:8cm; height:7.300000000000001cm;""><p>What type of rock is this?</p>","4","class_response","0","test","6","Obsidian","Pegmatite","05","false","5","6","",""
"","","","","","","","","","","","html-keyboard-response","18","2.0.0","268408","5f36e3d19ff99d12681ffca7","2","19","null","","","","","","","","","<p style='font-size: 30px;'><strong>Okay</strong></p>","null","neutral_feedback","0","test","6","","","","","","","",""
"","","","","","","","","","","","html-button-response","19","2.0.0","270456","5f36e3d19ff99d12681ffca7","2","19","2046","","","","","","","","","<img src= ""rock_img/I_Pumice_05.jpg"" style=""width:8cm; height:7.25cm;""><p>What type of rock is this?</p>","7","class_response","0","test","7","Pumice","Pumice","05","true","8","8","",""
"","","","","","","","","","","","html-keyboard-response","20","2.0.0","270958","5f36e3d19ff99d12681ffca7","2","19","null","","","","","","","","","<p style='font-size: 30px;'><strong>Okay</strong></p>","null","neutral_feedback","0","test","7","","","","","","","",""
"","","","","","","","","","","","html-button-response","21","2.0.0","272831","5f36e3d19ff99d12681ffca7","2","19","1870","","","","","","","","","<img src= ""rock_img/I_Gabbro_03.jpg"" style=""width:8cm; height:8.52cm;""><p>What type of rock is this?</p>","1","class_response","0","test","8","Basalt","Gabbro","03","false","2","4","",""
"","","","","","","","","","","","html-keyboard-response","22","2.0.0","273335","5f36e3d19ff99d12681ffca7","2","19","null","","","","","","","","","<p style='font-size: 30px;'><strong>Okay</strong></p>","null","neutral_feedback","0","test","8","","","","","","","",""
"","","","","","","","","","","","html-button-response","23","2.0.0","278081","5f36e3d19ff99d12681ffca7","2","19","4743","","","","","","","","","<img src= ""rock_img/I_Pegmatite_13.jpg"" style=""width:8cm; height:4.95cm;""><p>What type of rock is this?</p>","2","class_response","0","test","9","Diorite","Pegmatite","13","false","3","6","",""
"","","","","","","","","","","","html-keyboard-response","24","2.0.0","278584","5f36e3d19ff99d12681ffca7","2","19","null","","","","","","","","","<p style='font-size: 30px;'><strong>Okay</strong></p>","null","neutral_feedback","0","test","9","","","","","","","",""
"","","","","","","","","","","","html-button-response","25","2.0.0","285222","5f36e3d19ff99d12681ffca7","2","19","6636","","","","","","","","","<img src= ""rock_img/I_Peridotite_07.jpg"" style=""width:8cm; height:4.83cm;""><p>What type of rock is this?</p>","0","class_response","0","test","10","Andesite","Peridotite","07","false","1","7","",""
"","","","","","","","","","","","html-keyboard-response","26","2.0.0","285724","5f36e3d19ff99d12681ffca7","2","19","null","","","","","","","","","<p style='font-size: 30px;'><strong>Okay</strong></p>","null","neutral_feedback","0","test","10","","","","","","","",""
"","","","","","","","","","","","html-button-response","27","2.0.0","295093","5f36e3d19ff99d12681ffca7","2","19","9365","","","","","","","","","<img src= ""rock_img/I_Andesite_11.jpg"" style=""width:8cm; height:4.92cm;""><p>What type of rock is this?</p>","5","class_response","0","test","11","Pegmatite","Andesite","11","false","6","1","",""
"","","","","","","","","","","","html-keyboard-response","28","2.0.0","295596","5f36e3d19ff99d12681ffca7","2","19","null","","","","","","","","","<p style='font-size: 30px;'><strong>Okay</strong></p>","null","neutral_feedback","0","test","11","","","","","","","",""
"","","","","","","","","","","","html-button-response","29","2.0.0","297992","5f36e3d19ff99d12681ffca7","2","19","2394","","","","","","","","","<img src= ""rock_img/I_Basalt_14.jpg"" style=""width:8cm; height:5.82cm;""><p>What type of rock is this?</p>","4","class_response","0","test","12","Obsidian","Basalt","14","false","5","2","",""
"","","","","","","","","","","","html-keyboard-response","30","2.0.0","298494","5f36e3d19ff99d12681ffca7","2","19","null","","","","","","","","","<p style='font-size: 30px;'><strong>Okay</strong></p>","null","neutral_feedback","0","test","12","","","","","","","",""
"","","","","","","","","","","","html-button-response","31","2.0.0","302734","5f36e3d19ff99d12681ffca7","2","19","4238","","","","","","","","","<img src= ""rock_img/I_Obsidian_06.jpg"" style=""width:8cm; height:6.8cm;""><p>What type of rock is this?</p>","4","class_response","0","test","13","Obsidian","Obsidian","06","true","5","5","",""
"","","","","","","","","","","","html-keyboard-response","32","2.0.0","303237","5f36e3d19ff99d12681ffca7","2","19","null","","","","","","","","","<p style='font-size: 30px;'><strong>Okay</strong></p>","null","neutral_feedback","0","test","13","","","","","","","",""
"","","","","","","","","","","","html-button-response","33","2.0.0","304993","5f36e3d19ff99d12681ffca7","2","19","1754","","","","","","","","","<img src= ""rock_img/I_Obsidian_16.jpg"" style=""width:8cm; height:9.3cm;""><p>What type of rock is this?</p>","4","class_response","0","test","14","Obsidian","Obsidian","16","true","5","5","",""
"","","","","","","","","","","","html-keyboard-response","34","2.0.0","305495","5f36e3d19ff99d12681ffca7","2","19","null","","","","","","","","","<p style='font-size: 30px;'><strong>Okay</strong></p>","null","neutral_feedback","0","test","14","","","","","","","",""
"","","","","","","","","","","","html-button-response","35","2.0.0","308985","5f36e3d19ff99d12681ffca7","2","19","3488","","","","","","","","","<img src= ""rock_img/I_Pegmatite_08.jpg"" style=""width:8cm; height:7.68cm;""><p>What type of rock is this?</p>","2","class_response","0","test","15","Diorite","Pegmatite","08","false","3","6","",""
"","","","","","","","","","","","html-keyboard-response","36","2.0.0","309486","5f36e3d19ff99d12681ffca7","2","19","null","","","","","","","","","<p style='font-size: 30px;'><strong>Okay</strong></p>","null","neutral_feedback","0","test","15","","","","","","","",""
"","","","","","","","","","","","html-button-response","37","2.0.0","311797","5f36e3d19ff99d12681ffca7","2","19","2305","","","","","","","","","<img src= ""rock_img/I_Peridotite_12.jpg"" style=""width:8cm; height:4.54cm;""><p>What type of rock is this?</p>","5","class_response","0","test","16","Pegmatite","Peridotite","12","false","6","7","",""
"","","","","","","","","","","","html-keyboard-response","38","2.0.0","312299","5f36e3d19ff99d12681ffca7","2","19","null","","","","","","","","","<p style='font-size: 30px;'><strong>Okay</strong></p>","null","neutral_feedback","0","test","16","","","","","","","",""
"","","","","","","","","","","","html-button-response","39","2.0.0","315361","5f36e3d19ff99d12681ffca7","2","19","3060","","","","","","","","","<img src= ""rock_img/I_Andesite_04.jpg"" style=""width:8cm; height:5.96cm;""><p>What type of rock is this?</p>","5","class_response","0","test","17","Pegmatite","Andesite","04","false","6","1","",""
"","","","","","","","","","","","html-keyboard-response","40","2.0.0","315863","5f36e3d19ff99d12681ffca7","2","19","null","","","","","","","","","<p style='font-size: 30px;'><strong>Okay</strong></p>","null","neutral_feedback","0","test","17","","","","","","","",""
"","","","","","","","","","","","html-button-response","41","2.0.0","319183","5f36e3d19ff99d12681ffca7","2","19","3317","","","","","","","","","<img src= ""rock_img/I_Diorite_09.jpg"" style=""width:8cm; height:5.27cm;""><p>What type of rock is this?</p>","6","class_response","0","test","18","Peridotite","Diorite","09","false","7","3","",""
"","","","","","","","","","","","html-keyboard-response","42","2.0.0","319685","5f36e3d19ff99d12681ffca7","2","19","null","","","","","","","","","<p style='font-size: 30px;'><strong>Okay</strong></p>","null","neutral_feedback","0","test","18","","","","","","","",""
"","","","","","","","","","","","html-button-response","43","2.0.0","322238","5f36e3d19ff99d12681ffca7","2","19","2550","","","","","","","","","<img src= ""rock_img/I_Andesite_02.jpg"" style=""width:8cm; height:8.5cm;""><p>What type of rock is this?</p>","6","class_response","0","test","19","Peridotite","Andesite","02","false","7","1","",""
"","","","","","","","","","","","html-keyboard-response","44","2.0.0","322740","5f36e3d19ff99d12681ffca7","2","19","null","","","","","","","","","<p style='font-size: 30px;'><strong>Okay</strong></p>","null","neutral_feedback","0","test","19","","","","","","","",""
"","","","","","","","","","","","html-button-response","45","2.0.0","324868","5f36e3d19ff99d12681ffca7","2","19","2127","","","","","","","","","<img src= ""rock_img/I_Gabbro_13.jpg"" style=""width:8cm; height:5.08cm;""><p>What type of rock is this?</p>","6","class_response","0","test","20","Peridotite","Gabbro","13","false","7","4","",""
"","","","","","","","","","","","html-keyboard-response","46","2.0.0","325370","5f36e3d19ff99d12681ffca7","2","19","null","","","","","","","","","<p style='font-size: 30px;'><strong>Okay</strong></p>","null","neutral_feedback","0","test","20","","","","","","","",""
"","","","","","","","","","","","html-button-response","47","2.0.0","326866","5f36e3d19ff99d12681ffca7","2","19","1493","","","","","","","","","<img src= ""rock_img/I_Obsidian_04.jpg"" style=""width:8cm; height:6.930000000000001cm;""><p>What type of rock is this?</p>","4","class_response","0","test","21","Obsidian","Obsidian","04","true","5","5","",""
"","","","","","","","","","","","html-keyboard-response","48","2.0.0","327373","5f36e3d19ff99d12681ffca7","2","19","null","","","","","","","","","<p style='font-size: 30px;'><strong>Okay</strong></p>","null","neutral_feedback","0","test","21","","","","","","","",""
"","","","","","","","","","","","html-button-response","49","2.0.0","329361","5f36e3d19ff99d12681ffca7","2","19","1987","","","","","","","","","<img src= ""rock_img/I_Diorite_16.jpg"" style=""width:8cm; height:6.74cm;""><p>What type of rock is this?</p>","6","class_response","0","test","22","Peridotite","Diorite","16","false","7","3","",""
"","","","","","","","","","","","html-keyboard-response","50","2.0.0","329862","5f36e3d19ff99d12681ffca7","2","19","null","","","","","","","","","<p style='font-size: 30px;'><strong>Okay</strong></p>","null","neutral_feedback","0","test","22","","","","","","","",""
"","","","","","","","","","","","html-button-response","51","2.0.0","331526","5f36e3d19ff99d12681ffca7","2","19","1660","","","","","","","","","<img src= ""rock_img/I_Diorite_12.jpg"" style=""width:8cm; height:4.88cm;""><p>What type of rock is this?</p>","6","class_response","0","test","23","Peridotite","Diorite","12","false","7","3","",""
"","","","","","","","","","","","html-keyboard-response","52","2.0.0","332029","5f36e3d19ff99d12681ffca7","2","19","null","","","","","","","","","<p style='font-size: 30px;'><strong>Okay</strong></p>","null","neutral_feedback","0","test","23","","","","","","","",""
"","","","","","","","","","","","html-button-response","53","2.0.0","334203","5f36e3d19ff99d12681ffca7","2","19","2171","","","","","","","","","<img src= ""rock_img/I_Peridotite_05.jpg"" style=""width:8cm; height:7.1499999999999995cm;""><p>What type of rock is this?</p>","2","class_response","0","test","24","Diorite","Peridotite","05","false","3","7","",""
"","","","","","","","","","","","html-keyboard-response","54","2.0.0","334706","5f36e3d19ff99d12681ffca7","2","19","null","","","","","","","","","<p style='font-size: 30px;'><strong>Okay</strong></p>","null","neutral_feedback","0","test","24","","","","","","","",""
"","","","","","","","","","","","html-button-response","55","2.0.0","337336","5f36e3d19ff99d12681ffca7","2","19","2628","","","","","","","","","<img src= ""rock_img/I_Gabbro_14.jpg"" style=""width:8cm; height:8.48cm;""><p>What type of rock is this?</p>","6","class_response","0","test","25","Peridotite","Gabbro","14","false","7","4","",""
"","","","","","","","","","","","html-keyboard-response","56","2.0.0","337838","5f36e3d19ff99d12681ffca7","2","19","null","","","","","","","","","<p style='font-size: 30px;'><strong>Okay</strong></p>","null","neutral_feedback","0","test","25","","","","","","","",""
"","","","","","","","","","","","html-button-response","57","2.0.0","339421","5f36e3d19ff99d12681ffca7","2","19","1580","","","","","","","","","<img src= ""rock_img/I_Pumice_08.jpg"" style=""width:8cm; height:6.67cm;""><p>What type of rock is this?</p>","7","class_response","0","test","26","Pumice","Pumice","08","true","8","8","",""
"","","","","","","","","","","","html-keyboard-response","58","2.0.0","339924","5f36e3d19ff99d12681ffca7","2","19","null","","","","","","","","","<p style='font-size: 30px;'><strong>Okay</strong></p>","null","neutral_feedback","0","test","26","","","","","","","",""
"","","","","","","","","","","","html-button-response","59","2.0.0","341180","5f36e3d19ff99d12681ffca7","2","19","1254","","","","","","","","","<img src= ""rock_img/I_Pumice_13.jpg"" style=""width:8cm; height:8.200000000000001cm;""><p>What type of rock is this?</p>","7","class_response","0","test","27","Pumice","Pumice","13","true","8","8","",""
"","","","","","","","","","","","html-keyboard-response","60","2.0.0","341683","5f36e3d19ff99d12681ffca7","2","19","null","","","","","","","","","<p style='font-size: 30px;'><strong>Okay</strong></p>","null","neutral_feedback","0","test","27","","","","","","","",""
"","","","","","","","","","","","html-button-response","61","2.0.0","343217","5f36e3d19ff99d12681ffca7","2","19","1533","","","","","","","","","<img src= ""rock_img/I_Obsidian_07.jpg"" style=""width:8cm; height:4.76cm;""><p>What type of rock is this?</p>","4","class_response","0","test","28","Obsidian","Obsidian","07","true","5","5","",""
"","","","","","","","","","","","html-keyboard-response","62","2.0.0","343720","5f36e3d19ff99d12681ffca7","2","19","null","","","","","","","","","<p style='font-size: 30px;'><strong>Okay</strong></p>","null","neutral_feedback","0","test","28","","","","","","","",""
"","","","","","","","","","","","html-button-response","63","2.0.0","345378","5f36e3d19ff99d12681ffca7","2","19","1655","","","","","","","","","<img src= ""rock_img/I_Obsidian_08.jpg"" style=""width:8cm; height:7.39cm;""><p>What type of rock is this?</p>","4","class_response","0","test","29","Obsidian","Obsidian","08","true","5","5","",""
"","","","","","","","","","","","html-keyboard-response","64","2.0.0","345880","5f36e3d19ff99d12681ffca7","2","19","null","","","","","","","","","<p style='font-size: 30px;'><strong>Okay</strong></p>","null","neutral_feedback","0","test","29","","","","","","","",""
"","","","","","","","","","","","html-button-response","65","2.0.0","348391","5f36e3d19ff99d12681ffca7","2","19","2509","","","","","","","","","<img src= ""rock_img/I_Andesite_14.jpg"" style=""width:8cm; height:5.449999999999999cm;""><p>What type of rock is this?</p>","3","class_response","0","test","30","Gabbro","Andesite","14","false","4","1","",""
"","","","","","","","","","","","html-keyboard-response","66","2.0.0","348894","5f36e3d19ff99d12681ffca7","2","19","null","","","","","","","","","<p style='font-size: 30px;'><strong>Okay</strong></p>","null","neutral_feedback","0","test","30","","","","","","","",""
"","","","","","","","","","","","html-button-response","67","2.0.0","350289","5f36e3d19ff99d12681ffca7","2","19","1394","","","","","","","","","<img src= ""rock_img/I_Pumice_02.jpg"" style=""width:8cm; height:7.3999999999999995cm;""><p>What type of rock is this?</p>","7","class_response","0","test","31","Pumice","Pumice","02","true","8","8","",""
"","","","","","","","","","","","html-keyboard-response","68","2.0.0","350791","5f36e3d19ff99d12681ffca7","2","19","null","","","","","","","","","<p style='font-size: 30px;'><strong>Okay</strong></p>","null","neutral_feedback","0","test","31","","","","","","","",""
"","","","","","","","","","","","html-button-response","69","2.0.0","353392","5f36e3d19ff99d12681ffca7","2","19","2594","","","","","","","","","<img src= ""rock_img/I_Basalt_01.jpg"" style=""width:8cm; height:7.880000000000001cm;""><p>What type of rock is this?</p>","4","class_response","0","test","32","Obsidian","Basalt","01","false","5","2","",""
"","","","","","","","","","","","html-keyboard-response","70","2.0.0","353895","5f36e3d19ff99d12681ffca7","2","19","null","","","","","","","","","<p style='font-size: 30px;'><strong>Okay</strong></p>","null","neutral_feedback","0","test","32","","","","","","","",""
"","","","","","","","","","","","html-button-response","71","2.0.0","357343","5f36e3d19ff99d12681ffca7","2","19","3446","","","","","","","","","<img src= ""rock_img/I_Diorite_10.jpg"" style=""width:8cm; height:5.949999999999999cm;""><p>What type of rock is this?</p>","5","class_response","0","test","33","Pegmatite","Diorite","10","false","6","3","",""
"","","","","","","","","","","","html-keyboard-response","72","2.0.0","357849","5f36e3d19ff99d12681ffca7","2","19","null","","","","","","","","","<p style='font-size: 30px;'><strong>Okay</strong></p>","null","neutral_feedback","0","test","33","","","","","","","",""
"","","","","","","","","","","","html-button-response","73","2.0.0","359141","5f36e3d19ff99d12681ffca7","2","19","1287","","","","","","","","","<img src= ""rock_img/I_Basalt_06.jpg"" style=""width:8cm; height:7.06cm;""><p>What type of rock is this?</p>","4","class_response","0","test","34","Obsidian","Basalt","06","false","5","2","",""
"","","","","","","","","","","","html-keyboard-response","74","2.0.0","359643","5f36e3d19ff99d12681ffca7","2","19","null","","","","","","","","","<p style='font-size: 30px;'><strong>Okay</strong></p>","null","neutral_feedback","0","test","34","","","","","","","",""
"","","","","","","","","","","","html-button-response","75","2.0.0","361730","5f36e3d19ff99d12681ffca7","2","19","2082","","","","","","","","","<img src= ""rock_img/I_Pegmatite_10.jpg"" style=""width:8cm; height:4.16cm;""><p>What type of rock is this?</p>","0","class_response","0","test","35","Andesite","Pegmatite","10","false","1","6","",""
"","","","","","","","","","","","html-keyboard-response","76","2.0.0","362232","5f36e3d19ff99d12681ffca7","2","19","null","","","","","","","","","<p style='font-size: 30px;'><strong>Okay</strong></p>","null","neutral_feedback","0","test","35","","","","","","","",""
"","","","","","","","","","","","html-button-response","77","2.0.0","366947","5f36e3d19ff99d12681ffca7","2","19","4712","","","","","","","","","<img src= ""rock_img/I_Peridotite_06.jpg"" style=""width:8cm; height:7.53cm;""><p>What type of rock is this?</p>","1","class_response","0","test","36","Basalt","Peridotite","06","false","2","7","",""
"","","","","","","","","","","","html-keyboard-response","78","2.0.0","367448","5f36e3d19ff99d12681ffca7","2","19","null","","","","","","","","","<p style='font-size: 30px;'><strong>Okay</strong></p>","null","neutral_feedback","0","test","36","","","","","","","",""
"","","","","","","","","","","","html-button-response","79","2.0.0","369694","5f36e3d19ff99d12681ffca7","2","19","2244","","","","","","","","","<img src= ""rock_img/I_Gabbro_10.jpg"" style=""width:8cm; height:5.680000000000001cm;""><p>What type of rock is this?</p>","7","class_response","0","test","37","Pumice","Gabbro","10","false","8","4","",""
"","","","","","","","","","","","html-keyboard-response","80","2.0.0","370197","5f36e3d19ff99d12681ffca7","2","19","null","","","","","","","","","<p style='font-size: 30px;'><strong>Okay</strong></p>","null","neutral_feedback","0","test","37","","","","","","","",""
"","","","","","","","","","","","html-button-response","81","2.0.0","373711","5f36e3d19ff99d12681ffca7","2","19","3508","","","","","","","","","<img src= ""rock_img/I_Gabbro_09.jpg"" style=""width:8cm; height:7.279999999999999cm;""><p>What type of rock is this?</p>","7","class_response","0","test","38","Pumice","Gabbro","09","false","8","4","",""
"","","","","","","","","","","","html-keyboard-response","82","2.0.0","374214","5f36e3d19ff99d12681ffca7","2","19","null","","","","","","","","","<p style='font-size: 30px;'><strong>Okay</strong></p>","null","neutral_feedback","0","test","38","","","","","","","",""
"","","","","","","","","","","","html-button-response","83","2.0.0","375543","5f36e3d19ff99d12681ffca7","2","19","1327","","","","","","","","","<img src= ""rock_img/I_Pumice_15.jpg"" style=""width:8cm; height:7.86cm;""><p>What type of rock is this?</p>","7","class_response","0","test","39","Pumice","Pumice","15","true","8","8","",""
"","","","","","","","","","","","html-keyboard-response","84","2.0.0","376045","5f36e3d19ff99d12681ffca7","2","19","null","","","","","","","","","<p style='font-size: 30px;'><strong>Okay</strong></p>","null","neutral_feedback","0","test","39","","","","","","","",""
"","","","","","","","","","","","html-button-response","85","2.0.0","378286","5f36e3d19ff99d12681ffca7","2","19","2239","","","","","","","","","<img src= ""rock_img/I_Diorite_13.jpg"" style=""width:8cm; height:6.29cm;""><p>What type of rock is this?</p>","6","class_response","0","test","40","Peridotite","Diorite","13","false","7","3","",""
"","","","","","","","","","","","html-keyboard-response","86","2.0.0","378789","5f36e3d19ff99d12681ffca7","2","19","null","","","","","","","","","<p style='font-size: 30px;'><strong>Okay</strong></p>","null","neutral_feedback","0","test","40","","","","","","","",""
"","","","","","","","","","","","html-button-response","87","2.0.0","380374","5f36e3d19ff99d12681ffca7","2","19","1582","","","","","","","","","<img src= ""rock_img/I_Obsidian_11.jpg"" style=""width:8cm; height:6.05cm;""><p>What type of rock is this?</p>","4","class_response","0","test","41","Obsidian","Obsidian","11","true","5","5","",""
"","","","","","","","","","","","html-keyboard-response","88","2.0.0","380875","5f36e3d19ff99d12681ffca7","2","19","null","","","","","","","","","<p style='font-size: 30px;'><strong>Okay</strong></p>","null","neutral_feedback","0","test","41","","","","","","","",""
"","","","","","","","","","","","html-button-response","89","2.0.0","382764","5f36e3d19ff99d12681ffca7","2","19","1887","","","","","","","","","<img src= ""rock_img/I_Andesite_10.jpg"" style=""width:8cm; height:4.16cm;""><p>What type of rock is this?</p>","6","class_response","0","test","42","Peridotite","Andesite","10","false","7","1","",""
"","","","","","","","","","","","html-keyboard-response","90","2.0.0","383265","5f36e3d19ff99d12681ffca7","2","19","null","","","","","","","","","<p style='font-size: 30px;'><strong>Okay</strong></p>","null","neutral_feedback","0","test","42","","","","","","","",""
"","","","","","","","","","","","html-button-response","91","2.0.0","384801","5f36e3d19ff99d12681ffca7","2","19","1533","","","","","","","","","<img src= ""rock_img/I_Peridotite_08.jpg"" style=""width:8cm; height:6.7cm;""><p>What type of rock is this?</p>","6","class_response","0","test","43","Peridotite","Peridotite","08","true","7","7","",""
"","","","","","","","","","","","html-keyboard-response","92","2.0.0","385303","5f36e3d19ff99d12681ffca7","2","19","null","","","","","","","","","<p style='font-size: 30px;'><strong>Okay</strong></p>","null","neutral_feedback","0","test","43","","","","","","","",""
"","","","","","","","","","","","html-button-response","93","2.0.0","387191","5f36e3d19ff99d12681ffca7","2","19","1887","","","","","","","","","<img src= ""rock_img/I_Basalt_09.jpg"" style=""width:8cm; height:6.2cm;""><p>What type of rock is this?</p>","3","class_response","0","test","44","Gabbro","Basalt","09","false","4","2","",""
"","","","","","","","","","","","html-keyboard-response","94","2.0.0","387693","5f36e3d19ff99d12681ffca7","2","19","null","","","","","","","","","<p style='font-size: 30px;'><strong>Okay</strong></p>","null","neutral_feedback","0","test","44","","","","","","","",""
"","","","","","","","","","","","html-button-response","95","2.0.0","389088","5f36e3d19ff99d12681ffca7","2","19","1393","","","","","","","","","<img src= ""rock_img/I_Basalt_10.jpg"" style=""width:8cm; height:5.85cm;""><p>What type of rock is this?</p>","4","class_response","0","test","45","Obsidian","Basalt","10","false","5","2","",""
"","","","","","","","","","","","html-keyboard-response","96","2.0.0","389589","5f36e3d19ff99d12681ffca7","2","19","null","","","","","","","","","<p style='font-size: 30px;'><strong>Okay</strong></p>","null","neutral_feedback","0","test","45","","","","","","","",""
"","","","","","","","","","","","html-button-response","97","2.0.0","390987","5f36e3d19ff99d12681ffca7","2","19","1397","","","","","","","","","<img src= ""rock_img/I_Pumice_09.jpg"" style=""width:8cm; height:6.44cm;""><p>What type of rock is this?</p>","7","class_response","0","test","46","Pumice","Pumice","09","true","8","8","",""
"","","","","","","","","","","","html-keyboard-response","98","2.0.0","391489","5f36e3d19ff99d12681ffca7","2","19","null","","","","","","","","","<p style='font-size: 30px;'><strong>Okay</strong></p>","null","neutral_feedback","0","test","46","","","","","","","",""
"","","","","","","","","","","","html-button-response","99","2.0.0","393361","5f36e3d19ff99d12681ffca7","2","19","1870","","","","","","","","","<img src= ""rock_img/I_Peridotite_16.jpg"" style=""width:8cm; height:6.989999999999999cm;""><p>What type of rock is this?</p>","6","class_response","0","test","47","Peridotite","Peridotite","16","true","7","7","",""
"","","","","","","","","","","","html-keyboard-response","100","2.0.0","393863","5f36e3d19ff99d12681ffca7","2","19","null","","","","","","","","","<p style='font-size: 30px;'><strong>Okay</strong></p>","null","neutral_feedback","0","test","47","","","","","","","",""
"","","","","","","","","","","","html-button-response","101","2.0.0","395426","5f36e3d19ff99d12681ffca7","2","19","1560","","","","","","","","","<img src= ""rock_img/I_Basalt_04.jpg"" style=""width:8cm; height:7.53cm;""><p>What type of rock is this?</p>","4","class_response","0","test","48","Obsidian","Basalt","04","false","5","2","",""
"","","","","","","","","","","","html-keyboard-response","102","2.0.0","395929","5f36e3d19ff99d12681ffca7","2","19","null","","","","","","","","","<p style='font-size: 30px;'><strong>Okay</strong></p>","null","neutral_feedback","0","test","48","","","","","","","",""
"","","","","","","","","","","","instructions","103","2.0.0","429695","5f36e3d19ff99d12681ffca7","2","19","33730","","","","","","","","[{""page_index"":0,""viewing_time"":11264},{""page_index"":1,""viewing_time"":17825},{""page_index"":2,""viewing_time"":4641}]","","","","","","","","","","","","","",""
"","","","","","","","","","","","html-button-response","104","2.0.0","434561","5f36e3d19ff99d12681ffca7","2","19","4864","","","","","","","","","","0","start_train","","","","","","","","","","",""
"","","","","","","","","","","","html-button-response","105","2.0.0","437939","5f36e3d19ff99d12681ffca7","2","19","3373","","","","","","","","","<img src= ""rock_img/I_Gabbro_16.jpg"" style=""width:8cm; height:6.44cm;""><p>What type of rock is this?</p>","4","class_response","1","train","1","Obsidian","Gabbro","16","false","5","4","",""
"","","","","","","","","","","","html-button-response","106","2.0.0","448935","5f36e3d19ff99d12681ffca7","2","19","10993","","","","","","","","","<img src= rock_img/I_Gabbro_16.jpg style=""width:8cm; height:6.44cm;""><p style='font-size: 30px; color: red;'><strong>Incorrect!</strong></p><p style='font-size: 30px;'><strong>This rock is gabbro</strong></p>","0","corr_feedback","1","train","1","","","","","","","",""
"","","","","","","","","","","","html-button-response","107","2.0.0","459456","5f36e3d19ff99d12681ffca7","2","19","10518","","","","","","","","","<img src= ""rock_img/I_Peridotite_04.jpg"" style=""width:8cm; height:6.680000000000001cm;""><p>What type of rock is this?</p>","5","class_response","1","train","2","Pegmatite","Peridotite","04","false","6","7","",""
"","","","","","","","","","","","html-button-response","108","2.0.0","473672","5f36e3d19ff99d12681ffca7","2","19","14214","","","","","","","","","<img src= rock_img/I_Peridotite_04.jpg style=""width:8cm; height:6.680000000000001cm;""><p style='font-size: 30px; color: red;'><strong>Incorrect!</strong></p><p style='font-size: 30px;'><strong>This rock is peridotite</strong></p>","0","corr_feedback","1","train","2","","","","","","","",""
"","","","","","","","","","","","html-button-response","109","2.0.0","476849","5f36e3d19ff99d12681ffca7","2","19","3176","","","","","","","","","<img src= ""rock_img/I_Gabbro_08.jpg"" style=""width:8cm; height:5.15cm;""><p>What type of rock is this?</p>","1","class_response","1","train","3","Basalt","Gabbro","08","false","2","4","",""
"","","","","","","","","","","","html-button-response","110","2.0.0","485538","5f36e3d19ff99d12681ffca7","2","19","8675","","","","","","","","","<img src= rock_img/I_Gabbro_08.jpg style=""width:8cm; height:5.15cm;""><p style='font-size: 30px; color: red;'><strong>Incorrect!</strong></p><p style='font-size: 30px;'><strong>This rock is gabbro</strong></p>","0","corr_feedback","1","train","3","","","","","","","",""
"","","","","","","","","","","","html-button-response","111","2.0.0","487917","5f36e3d19ff99d12681ffca7","2","19","2331","","","","","","","","","<img src= ""rock_img/I_Diorite_14.jpg"" style=""width:8cm; height:5.71cm;""><p>What type of rock is this?</p>","6","class_response","1","train","4","Peridotite","Diorite","14","false","7","3","",""
"","","","","","","","","","","","html-button-response","112","2.0.0","497570","5f36e3d19ff99d12681ffca7","2","19","9649","","","","","","","","","<img src= rock_img/I_Diorite_14.jpg style=""width:8cm; height:5.71cm;""><p style='font-size: 30px; color: red;'><strong>Incorrect!</strong></p><p style='font-size: 30px;'><strong>This rock is diorite</strong></p>","0","corr_feedback","1","train","4","","","","","","","",""
"","","","","","","","","","","","html-button-response","113","2.0.0","502516","5f36e3d19ff99d12681ffca7","2","19","4943","","","","","","","","","<img src= ""rock_img/I_Peridotite_15.jpg"" style=""width:8cm; height:6cm;""><p>What type of rock is this?</p>","5","class_response","1","train","5","Pegmatite","Peridotite","15","false","6","7","",""
"","","","","","","","","","","","html-button-response","114","2.0.0","510743","5f36e3d19ff99d12681ffca7","2","19","8224","","","","","","","","","<img src= rock_img/I_Peridotite_15.jpg style=""width:8cm; height:6cm;""><p style='font-size: 30px; color: red;'><strong>Incorrect!</strong></p><p style='font-size: 30px;'><strong>This rock is peridotite</strong></p>","0","corr_feedback","1","train","5","","","","","","","",""
"","","","","","","","","","","","html-button-response","115","2.0.0","515730","5f36e3d19ff99d12681ffca7","2","19","4984","","","","","","","","","<img src= ""rock_img/I_Diorite_06.jpg"" style=""width:8cm; height:6.03cm;""><p>What type of rock is this?</p>","2","class_response","1","train","6","Diorite","Diorite","06","true","3","3","",""
"","","","","","","","","","","","html-button-response","116","2.0.0","523739","5f36e3d19ff99d12681ffca7","2","19","8005","","","","","","","","","<img src= rock_img/I_Diorite_06.jpg style=""width:8cm; height:6.03cm;""><p style='font-size: 30px; color: green;'><strong>Correct!</strong></p><p style='font-size: 30px;'><strong>This rock is diorite</strong></p>","0","corr_feedback","1","train","6","","","","","","","",""
"","","","","","","","","","","","html-button-response","117","2.0.0","526775","5f36e3d19ff99d12681ffca7","2","19","3035","","","","","","","","","<img src= ""rock_img/I_Gabbro_15.jpg"" style=""width:8cm; height:6.29cm;""><p>What type of rock is this?</p>","2","class_response","1","train","7","Diorite","Gabbro","15","false","3","4","",""
"","","","","","","","","","","","html-button-response","118","2.0.0","531780","5f36e3d19ff99d12681ffca7","2","19","5003","","","","","","","","","<img src= rock_img/I_Gabbro_15.jpg style=""width:8cm; height:6.29cm;""><p style='font-size: 30px; color: red;'><strong>Incorrect!</strong></p><p style='font-size: 30px;'><strong>This rock is gabbro</strong></p>","0","corr_feedback","1","train","7","","","","","","","",""
"","","","","","","","","","","","html-button-response","119","2.0.0","533998","5f36e3d19ff99d12681ffca7","2","19","2216","","","","","","","","","<img src= ""rock_img/I_Diorite_07.jpg"" style=""width:8cm; height:5.239999999999999cm;""><p>What type of rock is this?</p>","2","class_response","1","train","8","Diorite","Diorite","07","true","3","3","",""
"","","","","","","","","","","","html-button-response","120","2.0.0","536167","5f36e3d19ff99d12681ffca7","2","19","2167","","","","","","","","","<img src= rock_img/I_Diorite_07.jpg style=""width:8cm; height:5.239999999999999cm;""><p style='font-size: 30px; color: green;'><strong>Correct!</strong></p><p style='font-size: 30px;'><strong>This rock is diorite</strong></p>","0","corr_feedback","1","train","8","","","","","","","",""
"","","","","","","","","","","","html-button-response","121","2.0.0","538969","5f36e3d19ff99d12681ffca7","2","19","2800","","","","","","","","","<img src= ""rock_img/I_Pegmatite_07.jpg"" style=""width:8cm; height:6.7cm;""><p>What type of rock is this?</p>","0","class_response","1","train","9","Andesite","Pegmatite","07","false","1","6","",""
"","","","","","","","","","","","html-button-response","122","2.0.0","556945","5f36e3d19ff99d12681ffca7","2","19","17974","","","","","","","","","<img src= rock_img/I_Pegmatite_07.jpg style=""width:8cm; height:6.7cm;""><p style='font-size: 30px; color: red;'><strong>Incorrect!</strong></p><p style='font-size: 30px;'><strong>This rock is pegmatite</strong></p>","0","corr_feedback","1","train","9","","","","","","","",""
"","","","","","","","","","","","html-button-response","123","2.0.0","558497","5f36e3d19ff99d12681ffca7","2","19","1550","","","","","","","","","<img src= ""rock_img/I_Basalt_08.jpg"" style=""width:8cm; height:10.44cm;""><p>What type of rock is this?</p>","4","class_response","1","train","10","Obsidian","Basalt","08","false","5","2","",""
"","","","","","","","","","","","html-button-response","124","2.0.0","571319","5f36e3d19ff99d12681ffca7","2","19","12818","","","","","","","","","<img src= rock_img/I_Basalt_08.jpg style=""width:8cm; height:10.44cm;""><p style='font-size: 30px; color: red;'><strong>Incorrect!</strong></p><p style='font-size: 30px;'><strong>This rock is basalt</strong></p>","0","corr_feedback","1","train","10","","","","","","","",""
"","","","","","","","","","","","html-button-response","125","2.0.0","575919","5f36e3d19ff99d12681ffca7","2","19","4594","","","","","","","","","<img src= ""rock_img/I_Andesite_03.jpg"" style=""width:8cm; height:5.73cm;""><p>What type of rock is this?</p>","5","class_response","1","train","11","Pegmatite","Andesite","03","false","6","1","",""
"","","","","","","","","","","","html-button-response","126","2.0.0","591408","5f36e3d19ff99d12681ffca7","2","19","15485","","","","","","","","","<img src= rock_img/I_Andesite_03.jpg style=""width:8cm; height:5.73cm;""><p style='font-size: 30px; color: red;'><strong>Incorrect!</strong></p><p style='font-size: 30px;'><strong>This rock is andesite</strong></p>","0","corr_feedback","1","train","11","","","","","","","",""
"","","","","","","","","","","","html-button-response","127","2.0.0","593109","5f36e3d19ff99d12681ffca7","2","19","1696","","","","","","","","","<img src= ""rock_img/I_Peridotite_02.jpg"" style=""width:8cm; height:5.859999999999999cm;""><p>What type of rock is this?</p>","6","class_response","1","train","12","Peridotite","Peridotite","02","true","7","7","",""
"","","","","","","","","","","","html-button-response","128","2.0.0","594784","5f36e3d19ff99d12681ffca7","2","19","1673","","","","","","","","","<img src= rock_img/I_Peridotite_02.jpg style=""width:8cm; height:5.859999999999999cm;""><p style='font-size: 30px; color: green;'><strong>Correct!</strong></p><p style='font-size: 30px;'><strong>This rock is peridotite</strong></p>","0","corr_feedback","1","train","12","","","","","","","",""
"","","","","","","","","","","","html-button-response","129","2.0.0","596953","5f36e3d19ff99d12681ffca7","2","19","2166","","","","","","","","","<img src= ""rock_img/I_Pegmatite_16.jpg"" style=""width:8cm; height:5.8cm;""><p>What type of rock is this?</p>","0","class_response","1","train","13","Andesite","Pegmatite","16","false","1","6","",""
"","","","","","","","","","","","html-button-response","130","2.0.0","602741","5f36e3d19ff99d12681ffca7","2","19","5787","","","","","","","","","<img src= rock_img/I_Pegmatite_16.jpg style=""width:8cm; height:5.8cm;""><p style='font-size: 30px; color: red;'><strong>Incorrect!</strong></p><p style='font-size: 30px;'><strong>This rock is pegmatite</strong></p>","0","corr_feedback","1","train","13","","","","","","","",""
"","","","","","","","","","","","html-button-response","131","2.0.0","608048","5f36e3d19ff99d12681ffca7","2","19","5306","","","","","","","","","<img src= ""rock_img/I_Diorite_02.jpg"" style=""width:8cm; height:6.27cm;""><p>What type of rock is this?</p>","2","class_response","1","train","14","Diorite","Diorite","02","true","3","3","",""
"","","","","","","","","","","","html-button-response","132","2.0.0","609222","5f36e3d19ff99d12681ffca7","2","19","1172","","","","","","","","","<img src= rock_img/I_Diorite_02.jpg style=""width:8cm; height:6.27cm;""><p style='font-size: 30px; color: green;'><strong>Correct!</strong></p><p style='font-size: 30px;'><strong>This rock is diorite</strong></p>","0","corr_feedback","1","train","14","","","","","","","",""
"","","","","","","","","","","","html-button-response","133","2.0.0","616079","5f36e3d19ff99d12681ffca7","2","19","6854","","","","","","","","","<img src= ""rock_img/I_Andesite_01.jpg"" style=""width:8cm; height:5.87cm;""><p>What type of rock is this?</p>","3","class_response","1","train","15","Gabbro","Andesite","01","false","4","1","",""
"","","","","","","","","","","","html-button-response","134","2.0.0","617793","5f36e3d19ff99d12681ffca7","2","19","1712","","","","","","","","","<img src= rock_img/I_Andesite_01.jpg style=""width:8cm; height:5.87cm;""><p style='font-size: 30px; color: red;'><strong>Incorrect!</strong></p><p style='font-size: 30px;'><strong>This rock is andesite</strong></p>","0","corr_feedback","1","train","15","","","","","","","",""
"","","","","","","","","","","","html-button-response","135","2.0.0","622440","5f36e3d19ff99d12681ffca7","2","19","4643","","","","","","","","","<img src= ""rock_img/I_Pumice_16.jpg"" style=""width:8cm; height:6.79cm;""><p>What type of rock is this?</p>","7","class_response","1","train","16","Pumice","Pumice","16","true","8","8","",""
"","","","","","","","","","","","html-button-response","136","2.0.0","629002","5f36e3d19ff99d12681ffca7","2","19","6559","","","","","","","","","<img src= rock_img/I_Pumice_16.jpg style=""width:8cm; height:6.79cm;""><p style='font-size: 30px; color: green;'><strong>Correct!</strong></p><p style='font-size: 30px;'><strong>This rock is pumice</strong></p>","0","corr_feedback","1","train","16","","","","","","","",""
"","","","","","","","","","","","html-button-response","137","2.0.0","632593","5f36e3d19ff99d12681ffca7","2","19","3589","","","","","","","","","<img src= ""rock_img/I_Basalt_02.jpg"" style=""width:8cm; height:6.45cm;""><p>What type of rock is this?</p>","3","class_response","1","train","17","Gabbro","Basalt","02","false","4","2","",""
"","","","","","","","","","","","html-button-response","138","2.0.0","634269","5f36e3d19ff99d12681ffca7","2","19","1672","","","","","","","","","<img src= rock_img/I_Basalt_02.jpg style=""width:8cm; height:6.45cm;""><p style='font-size: 30px; color: red;'><strong>Incorrect!</strong></p><p style='font-size: 30px;'><strong>This rock is basalt</strong></p>","0","corr_feedback","1","train","17","","","","","","","",""
"","","","","","","","","","","","html-button-response","139","2.0.0","640400","5f36e3d19ff99d12681ffca7","2","19","6128","","","","","","","","","<img src= ""rock_img/I_Pegmatite_09.jpg"" style=""width:8cm; height:4.03cm;""><p>What type of rock is this?</p>","6","class_response","1","train","18","Peridotite","Pegmatite","09","false","7","6","",""
"","","","","","","","","","","","html-button-response","140","2.0.0","641826","5f36e3d19ff99d12681ffca7","2","19","1425","","","","","","","","","<img src= rock_img/I_Pegmatite_09.jpg style=""width:8cm; height:4.03cm;""><p style='font-size: 30px; color: red;'><strong>Incorrect!</strong></p><p style='font-size: 30px;'><strong>This rock is pegmatite</strong></p>","0","corr_feedback","1","train","18","","","","","","","",""
"","","","","","","","","","","","html-button-response","141","2.0.0","647098","5f36e3d19ff99d12681ffca7","2","19","5270","","","","","","","","","<img src= ""rock_img/I_Obsidian_12.jpg"" style=""width:8cm; height:6.53cm;""><p>What type of rock is this?</p>","4","class_response","1","train","19","Obsidian","Obsidian","12","true","5","5","",""
"","","","","","","","","","","","html-button-response","142","2.0.0","648497","5f36e3d19ff99d12681ffca7","2","19","1396","","","","","","","","","<img src= rock_img/I_Obsidian_12.jpg style=""width:8cm; height:6.53cm;""><p style='font-size: 30px; color: green;'><strong>Correct!</strong></p><p style='font-size: 30px;'><strong>This rock is obsidian</strong></p>","0","corr_feedback","1","train","19","","","","","","","",""
"","","","","","","","","","","","html-button-response","143","2.0.0","664919","5f36e3d19ff99d12681ffca7","2","19","16419","","","","","","","","","<img src= ""rock_img/I_Andesite_05.jpg"" style=""width:8cm; height:4.12cm;""><p>What type of rock is this?</p>","0","class_response","1","train","20","Andesite","Andesite","05","true","1","1","",""
"","","","","","","","","","","","html-button-response","144","2.0.0","666422","5f36e3d19ff99d12681ffca7","2","19","1499","","","","","","","","","<img src= rock_img/I_Andesite_05.jpg style=""width:8cm; height:4.12cm;""><p style='font-size: 30px; color: green;'><strong>Correct!</strong></p><p style='font-size: 30px;'><strong>This rock is andesite</strong></p>","0","corr_feedback","1","train","20","","","","","","","",""
"","","","","","","","","","","","html-button-response","145","2.0.0","672530","5f36e3d19ff99d12681ffca7","2","19","6107","","","","","","","","","<img src= ""rock_img/I_Diorite_02.jpg"" style=""width:8cm; height:6.27cm;""><p>What type of rock is this?</p>","2","class_response","1","train","21","Diorite","Diorite","02","true","3","3","",""
"","","","","","","","","","","","html-button-response","146","2.0.0","673650","5f36e3d19ff99d12681ffca7","2","19","1116","","","","","","","","","<img src= rock_img/I_Diorite_02.jpg style=""width:8cm; height:6.27cm;""><p style='font-size: 30px; color: green;'><strong>Correct!</strong></p><p style='font-size: 30px;'><strong>This rock is diorite</strong></p>","0","corr_feedback","1","train","21","","","","","","","",""
"","","","","","","","","","","","html-button-response","147","2.0.0","678714","5f36e3d19ff99d12681ffca7","2","19","5061","","","","","","","","","<img src= ""rock_img/I_Pegmatite_07.jpg"" style=""width:8cm; height:6.7cm;""><p>What type of rock is this?</p>","5","class_response","1","train","22","Pegmatite","Pegmatite","07","true","6","6","",""
"","","","","","","","","","","","html-button-response","148","2.0.0","680136","5f36e3d19ff99d12681ffca7","2","19","1418","","","","","","","","","<img src= rock_img/I_Pegmatite_07.jpg style=""width:8cm; height:6.7cm;""><p style='font-size: 30px; color: green;'><strong>Correct!</strong></p><p style='font-size: 30px;'><strong>This rock is pegmatite</strong></p>","0","corr_feedback","1","train","22","","","","","","","",""
"","","","","","","","","","","","html-button-response","149","2.0.0","683201","5f36e3d19ff99d12681ffca7","2","19","3062","","","","","","","","","<img src= ""rock_img/I_Basalt_05.jpg"" style=""width:8cm; height:8.18cm;""><p>What type of rock is this?</p>","1","class_response","1","train","23","Basalt","Basalt","05","true","2","2","",""
"","","","","","","","","","","","html-button-response","150","2.0.0","684571","5f36e3d19ff99d12681ffca7","2","19","1368","","","","","","","","","<img src= rock_img/I_Basalt_05.jpg style=""width:8cm; height:8.18cm;""><p style='font-size: 30px; color: green;'><strong>Correct!</strong></p><p style='font-size: 30px;'><strong>This rock is basalt</strong></p>","0","corr_feedback","1","train","23","","","","","","","",""
"","","","","","","","","","","","html-button-response","151","2.0.0","690455","5f36e3d19ff99d12681ffca7","2","19","5880","","","","","","","","","<img src= ""rock_img/I_Diorite_11.jpg"" style=""width:8cm; height:7.11cm;""><p>What type of rock is this?</p>","2","class_response","1","train","24","Diorite","Diorite","11","true","3","3","",""
"","","","","","","","","","","","html-button-response","152","2.0.0","691713","5f36e3d19ff99d12681ffca7","2","19","1256","","","","","","","","","<img src= rock_img/I_Diorite_11.jpg style=""width:8cm; height:7.11cm;""><p style='font-size: 30px; color: green;'><strong>Correct!</strong></p><p style='font-size: 30px;'><strong>This rock is diorite</strong></p>","0","corr_feedback","1","train","24","","","","","","","",""
"","","","","","","","","","","","html-button-response","153","2.0.0","695467","5f36e3d19ff99d12681ffca7","2","19","3751","","","","","","","","","<img src= ""rock_img/I_Gabbro_16.jpg"" style=""width:8cm; height:6.44cm;""><p>What type of rock is this?</p>","1","class_response","1","train","25","Basalt","Gabbro","16","false","2","4","",""
"","","","","","","","","","","","html-button-response","154","2.0.0","696840","5f36e3d19ff99d12681ffca7","2","19","1372","","","","","","","","","<img src= rock_img/I_Gabbro_16.jpg style=""width:8cm; height:6.44cm;""><p style='font-size: 30px; color: red;'><strong>Incorrect!</strong></p><p style='font-size: 30px;'><strong>This rock is gabbro</strong></p>","0","corr_feedback","1","train","25","","","","","","","",""
"","","","","","","","","","","","html-button-response","155","2.0.0","704270","5f36e3d19ff99d12681ffca7","2","19","7426","","","","","","","","","<img src= ""rock_img/I_Andesite_01.jpg"" style=""width:8cm; height:5.87cm;""><p>What type of rock is this?</p>","0","class_response","1","train","26","Andesite","Andesite","01","true","1","1","",""
"","","","","","","","","","","","html-button-response","156","2.0.0","705749","5f36e3d19ff99d12681ffca7","2","19","1476","","","","","","","","","<img src= rock_img/I_Andesite_01.jpg style=""width:8cm; height:5.87cm;""><p style='font-size: 30px; color: green;'><strong>Correct!</strong></p><p style='font-size: 30px;'><strong>This rock is andesite</strong></p>","0","corr_feedback","1","train","26","","","","","","","",""
"","","","","","","","","","","","html-button-response","157","2.0.0","711367","5f36e3d19ff99d12681ffca7","2","19","5614","","","","","","","","","<img src= ""rock_img/I_Pegmatite_09.jpg"" style=""width:8cm; height:4.03cm;""><p>What type of rock is this?</p>","5","class_response","1","train","27","Pegmatite","Pegmatite","09","true","6","6","",""
"","","","","","","","","","","","html-button-response","158","2.0.0","712601","5f36e3d19ff99d12681ffca7","2","19","1230","","","","","","","","","<img src= rock_img/I_Pegmatite_09.jpg style=""width:8cm; height:4.03cm;""><p style='font-size: 30px; color: green;'><strong>Correct!</strong></p><p style='font-size: 30px;'><strong>This rock is pegmatite</strong></p>","0","corr_feedback","1","train","27","","","","","","","",""
"","","","","","","","","","","","html-button-response","159","2.0.0","716257","5f36e3d19ff99d12681ffca7","2","19","3654","","","","","","","","","<img src= ""rock_img/I_Andesite_06.jpg"" style=""width:8cm; height:6.840000000000001cm;""><p>What type of rock is this?</p>","2","class_response","1","train","28","Diorite","Andesite","06","false","3","1","",""
"","","","","","","","","","","","html-button-response","160","2.0.0","718087","5f36e3d19ff99d12681ffca7","2","19","1828","","","","","","","","","<img src= rock_img/I_Andesite_06.jpg style=""width:8cm; height:6.840000000000001cm;""><p style='font-size: 30px; color: red;'><strong>Incorrect!</strong></p><p style='font-size: 30px;'><strong>This rock is andesite</strong></p>","0","corr_feedback","1","train","28","","","","","","","",""
"","","","","","","","","","","","html-button-response","161","2.0.0","720246","5f36e3d19ff99d12681ffca7","2","19","2157","","","","","","","","","<img src= ""rock_img/I_Basalt_12.jpg"" style=""width:8cm; height:6.010000000000001cm;""><p>What type of rock is this?</p>","7","class_response","1","train","29","Pumice","Basalt","12","false","8","2","",""
"","","","","","","","","","","","html-button-response","162","2.0.0","724966","5f36e3d19ff99d12681ffca7","2","19","4711","","","","","","","","","<img src= rock_img/I_Basalt_12.jpg style=""width:8cm; height:6.010000000000001cm;""><p style='font-size: 30px; color: red;'><strong>Incorrect!</strong></p><p style='font-size: 30px;'><strong>This rock is basalt</strong></p>","0","corr_feedback","1","train","29","","","","","","","",""
"","","","","","","","","","","","html-button-response","163","2.0.0","728263","5f36e3d19ff99d12681ffca7","2","19","3280","","","","","","","","","<img src= ""rock_img/I_Gabbro_12.jpg"" style=""width:8cm; height:7.800000000000001cm;""><p>What type of rock is this?</p>","3","class_response","1","train","30","Gabbro","Gabbro","12","true","4","4","",""
"","","","","","","","","","","","html-button-response","164","2.0.0","730262","5f36e3d19ff99d12681ffca7","2","19","1994","","","","","","","","","<img src= rock_img/I_Gabbro_12.jpg style=""width:8cm; height:7.800000000000001cm;""><p style='font-size: 30px; color: green;'><strong>Correct!</strong></p><p style='font-size: 30px;'><strong>This rock is gabbro</strong></p>","0","corr_feedback","1","train","30","","","","","","","",""
"","","","","","","","","","","","html-button-response","165","2.0.0","733669","5f36e3d19ff99d12681ffca7","2","19","3404","","","","","","","","","<img src= ""rock_img/I_Basalt_05.jpg"" style=""width:8cm; height:8.18cm;""><p>What type of rock is this?</p>","1","class_response","1","train","31","Basalt","Basalt","05","true","2","2","",""
"","","","","","","","","","","","html-button-response","166","2.0.0","734951","5f36e3d19ff99d12681ffca7","2","19","1280","","","","","","","","","<img src= rock_img/I_Basalt_05.jpg style=""width:8cm; height:8.18cm;""><p style='font-size: 30px; color: green;'><strong>Correct!</strong></p><p style='font-size: 30px;'><strong>This rock is basalt</strong></p>","0","corr_feedback","1","train","31","","","","","","","",""
"","","","","","","","","","","","html-button-response","167","2.0.0","738696","5f36e3d19ff99d12681ffca7","2","19","3743","","","","","","","","","<img src= ""rock_img/I_Peridotite_10.jpg"" style=""width:8cm; height:5.390000000000001cm;""><p>What type of rock is this?</p>","6","class_response","1","train","32","Peridotite","Peridotite","10","true","7","7","",""
"","","","","","","","","","","","html-button-response","168","2.0.0","739718","5f36e3d19ff99d12681ffca7","2","19","1020","","","","","","","","","<img src= rock_img/I_Peridotite_10.jpg style=""width:8cm; height:5.390000000000001cm;""><p style='font-size: 30px; color: green;'><strong>Correct!</strong></p><p style='font-size: 30px;'><strong>This rock is peridotite</strong></p>","0","corr_feedback","1","train","32","","","","","","","",""
"","","","","","","","","","","","html-button-response","169","2.0.0","743177","5f36e3d19ff99d12681ffca7","2","19","3455","","","","","","","","","<img src= ""rock_img/I_Peridotite_14.jpg"" style=""width:8cm; height:5.3cm;""><p>What type of rock is this?</p>","6","class_response","1","train","33","Peridotite","Peridotite","14","true","7","7","",""
"","","","","","","","","","","","html-button-response","170","2.0.0","744146","5f36e3d19ff99d12681ffca7","2","19","966","","","","","","","","","<img src= rock_img/I_Peridotite_14.jpg style=""width:8cm; height:5.3cm;""><p style='font-size: 30px; color: green;'><strong>Correct!</strong></p><p style='font-size: 30px;'><strong>This rock is peridotite</strong></p>","0","corr_feedback","1","train","33","","","","","","","",""
"","","","","","","","","","","","html-button-response","171","2.0.0","750680","5f36e3d19ff99d12681ffca7","2","19","6522","","","","","","","","","<img src= ""rock_img/I_Gabbro_11.jpg"" style=""width:8cm; height:6.2cm;""><p>What type of rock is this?</p>","3","class_response","1","train","34","Gabbro","Gabbro","11","true","4","4","",""
"","","","","","","","","","","","html-button-response","172","2.0.0","751842","5f36e3d19ff99d12681ffca7","2","19","1159","","","","","","","","","<img src= rock_img/I_Gabbro_11.jpg style=""width:8cm; height:6.2cm;""><p style='font-size: 30px; color: green;'><strong>Correct!</strong></p><p style='font-size: 30px;'><strong>This rock is gabbro</strong></p>","0","corr_feedback","1","train","34","","","","","","","",""
"","","","","","","","","","","","html-button-response","173","2.0.0","757736","5f36e3d19ff99d12681ffca7","2","19","5891","","","","","","","","","<img src= ""rock_img/I_Andesite_09.jpg"" style=""width:8cm; height:6cm;""><p>What type of rock is this?</p>","0","class_response","1","train","35","Andesite","Andesite","09","true","1","1","",""
"","","","","","","","","","","","html-button-response","174","2.0.0","759142","5f36e3d19ff99d12681ffca7","2","19","1404","","","","","","","","","<img src= rock_img/I_Andesite_09.jpg style=""width:8cm; height:6cm;""><p style='font-size: 30px; color: green;'><strong>Correct!</strong></p><p style='font-size: 30px;'><strong>This rock is andesite</strong></p>","0","corr_feedback","1","train","35","","","","","","","",""
"","","","","","","","","","","","html-button-response","175","2.0.0","760543","5f36e3d19ff99d12681ffca7","2","19","1399","","","","","","","","","<img src= ""rock_img/I_Diorite_15.jpg"" style=""width:8cm; height:5.54cm;""><p>What type of rock is this?</p>","2","class_response","1","train","36","Diorite","Diorite","15","true","3","3","",""
"","","","","","","","","","","","html-button-response","176","2.0.0","761663","5f36e3d19ff99d12681ffca7","2","19","1118","","","","","","","","","<img src= rock_img/I_Diorite_15.jpg style=""width:8cm; height:5.54cm;""><p style='font-size: 30px; color: green;'><strong>Correct!</strong></p><p style='font-size: 30px;'><strong>This rock is diorite</strong></p>","0","corr_feedback","1","train","36","","","","","","","",""
"","","","","","","","","","","","html-button-response","177","2.0.0","764447","5f36e3d19ff99d12681ffca7","2","19","2782","","","","","","","","","<img src= ""rock_img/I_Pegmatite_06.jpg"" style=""width:8cm; height:5.17cm;""><p>What type of rock is this?</p>","5","class_response","1","train","37","Pegmatite","Pegmatite","06","true","6","6","",""
"","","","","","","","","","","","html-button-response","178","2.0.0","765756","5f36e3d19ff99d12681ffca7","2","19","1306","","","","","","","","","<img src= rock_img/I_Pegmatite_06.jpg style=""width:8cm; height:5.17cm;""><p style='font-size: 30px; color: green;'><strong>Correct!</strong></p><p style='font-size: 30px;'><strong>This rock is pegmatite</strong></p>","0","corr_feedback","1","train","37","","","","","","","",""
"","","","","","","","","","","","html-button-response","179","2.0.0","772208","5f36e3d19ff99d12681ffca7","2","19","6449","","","","","","","","","<img src= ""rock_img/I_Gabbro_08.jpg"" style=""width:8cm; height:5.15cm;""><p>What type of rock is this?</p>","2","class_response","1","train","38","Diorite","Gabbro","08","false","3","4","",""
"","","","","","","","","","","","html-button-response","180","2.0.0","774738","5f36e3d19ff99d12681ffca7","2","19","2526","","","","","","","","","<img src= rock_img/I_Gabbro_08.jpg style=""width:8cm; height:5.15cm;""><p style='font-size: 30px; color: red;'><strong>Incorrect!</strong></p><p style='font-size: 30px;'><strong>This rock is gabbro</strong></p>","0","corr_feedback","1","train","38","","","","","","","",""
"","","","","","","","","","","","html-button-response","181","2.0.0","776282","5f36e3d19ff99d12681ffca7","2","19","1541","","","","","","","","","<img src= ""rock_img/I_Diorite_07.jpg"" style=""width:8cm; height:5.239999999999999cm;""><p>What type of rock is this?</p>","2","class_response","1","train","39","Diorite","Diorite","07","true","3","3","",""
"","","","","","","","","","","","html-button-response","182","2.0.0","777464","5f36e3d19ff99d12681ffca7","2","19","1180","","","","","","","","","<img src= rock_img/I_Diorite_07.jpg style=""width:8cm; height:5.239999999999999cm;""><p style='font-size: 30px; color: green;'><strong>Correct!</strong></p><p style='font-size: 30px;'><strong>This rock is diorite</strong></p>","0","corr_feedback","1","train","39","","","","","","","",""
"","","","","","","","","","","","html-button-response","183","2.0.0","779314","5f36e3d19ff99d12681ffca7","2","19","1848","","","","","","","","","<img src= ""rock_img/I_Pegmatite_12.jpg"" style=""width:8cm; height:5.7cm;""><p>What type of rock is this?</p>","5","class_response","1","train","40","Pegmatite","Pegmatite","12","true","6","6","",""
"","","","","","","","","","","","html-button-response","184","2.0.0","780592","5f36e3d19ff99d12681ffca7","2","19","1276","","","","","","","","","<img src= rock_img/I_Pegmatite_12.jpg style=""width:8cm; height:5.7cm;""><p style='font-size: 30px; color: green;'><strong>Correct!</strong></p><p style='font-size: 30px;'><strong>This rock is pegmatite</strong></p>","0","corr_feedback","1","train","40","","","","","","","",""
"","","","","","","","","","","","html-button-response","185","2.0.0","782436","5f36e3d19ff99d12681ffca7","2","19","1843","","","","","","","","","<img src= ""rock_img/I_Andesite_16.jpg"" style=""width:8cm; height:6.010000000000001cm;""><p>What type of rock is this?</p>","2","class_response","1","train","41","Diorite","Andesite","16","false","3","1","",""
"","","","","","","","","","","","html-button-response","186","2.0.0","783718","5f36e3d19ff99d12681ffca7","2","19","1280","","","","","","","","","<img src= rock_img/I_Andesite_16.jpg style=""width:8cm; height:6.010000000000001cm;""><p style='font-size: 30px; color: red;'><strong>Incorrect!</strong></p><p style='font-size: 30px;'><strong>This rock is andesite</strong></p>","0","corr_feedback","1","train","41","","","","","","","",""
"","","","","","","","","","","","html-button-response","187","2.0.0","787578","5f36e3d19ff99d12681ffca7","2","19","3858","","","","","","","","","<img src= ""rock_img/I_Gabbro_05.jpg"" style=""width:8cm; height:6cm;""><p>What type of rock is this?</p>","3","class_response","1","train","42","Gabbro","Gabbro","05","true","4","4","",""
"","","","","","","","","","","","html-button-response","188","2.0.0","789113","5f36e3d19ff99d12681ffca7","2","19","1533","","","","","","","","","<img src= rock_img/I_Gabbro_05.jpg style=""width:8cm; height:6cm;""><p style='font-size: 30px; color: green;'><strong>Correct!</strong></p><p style='font-size: 30px;'><strong>This rock is gabbro</strong></p>","0","corr_feedback","1","train","42","","","","","","","",""
"","","","","","","","","","","","html-button-response","189","2.0.0","790479","5f36e3d19ff99d12681ffca7","2","19","1364","","","","","","","","","<img src= ""rock_img/I_Obsidian_10.jpg"" style=""width:8cm; height:6.260000000000001cm;""><p>What type of rock is this?</p>","4","class_response","1","train","43","Obsidian","Obsidian","10","true","5","5","",""
"","","","","","","","","","","","html-button-response","190","2.0.0","791695","5f36e3d19ff99d12681ffca7","2","19","1214","","","","","","","","","<img src= rock_img/I_Obsidian_10.jpg style=""width:8cm; height:6.260000000000001cm;""><p style='font-size: 30px; color: green;'><strong>Correct!</strong></p><p style='font-size: 30px;'><strong>This rock is obsidian</strong></p>","0","corr_feedback","1","train","43","","","","","","","",""
"","","","","","","","","","","","html-button-response","191","2.0.0","793964","5f36e3d19ff99d12681ffca7","2","19","2266","","","","","","","","","<img src= ""rock_img/I_Basalt_11.jpg"" style=""width:8cm; height:5.359999999999999cm;""><p>What type of rock is this?</p>","7","class_response","1","train","44","Pumice","Basalt","11","false","8","2","",""
"","","","","","","","","","","","html-button-response","192","2.0.0","795417","5f36e3d19ff99d12681ffca7","2","19","1449","","","","","","","","","<img src= rock_img/I_Basalt_11.jpg style=""width:8cm; height:5.359999999999999cm;""><p style='font-size: 30px; color: red;'><strong>Incorrect!</strong></p><p style='font-size: 30px;'><strong>This rock is basalt</strong></p>","0","corr_feedback","1","train","44","","","","","","","",""
"","","","","","","","","","","","html-button-response","193","2.0.0","796879","5f36e3d19ff99d12681ffca7","2","19","1460","","","","","","","","","<img src= ""rock_img/I_Peridotite_13.jpg"" style=""width:8cm; height:7.58cm;""><p>What type of rock is this?</p>","6","class_response","1","train","45","Peridotite","Peridotite","13","true","7","7","",""
"","","","","","","","","","","","html-button-response","194","2.0.0","798186","5f36e3d19ff99d12681ffca7","2","19","1305","","","","","","","","","<img src= rock_img/I_Peridotite_13.jpg style=""width:8cm; height:7.58cm;""><p style='font-size: 30px; color: green;'><strong>Correct!</strong></p><p style='font-size: 30px;'><strong>This rock is peridotite</strong></p>","0","corr_feedback","1","train","45","","","","","","","",""
"","","","","","","","","","","","html-button-response","195","2.0.0","802435","5f36e3d19ff99d12681ffca7","2","19","4247","","","","","","","","","<img src= ""rock_img/I_Andesite_06.jpg"" style=""width:8cm; height:6.840000000000001cm;""><p>What type of rock is this?</p>","0","class_response","1","train","46","Andesite","Andesite","06","true","1","1","",""
"","","","","","","","","","","","html-button-response","196","2.0.0","804751","5f36e3d19ff99d12681ffca7","2","19","2314","","","","","","","","","<img src= rock_img/I_Andesite_06.jpg style=""width:8cm; height:6.840000000000001cm;""><p style='font-size: 30px; color: green;'><strong>Correct!</strong></p><p style='font-size: 30px;'><strong>This rock is andesite</strong></p>","0","corr_feedback","1","train","46","","","","","","","",""
"","","","","","","","","","","","html-button-response","197","2.0.0","806117","5f36e3d19ff99d12681ffca7","2","19","1364","","","","","","","","","<img src= ""rock_img/I_Pegmatite_11.jpg"" style=""width:8cm; height:8.14cm;""><p>What type of rock is this?</p>","5","class_response","1","train","47","Pegmatite","Pegmatite","11","true","6","6","",""
"","","","","","","","","","","","html-button-response","198","2.0.0","807280","5f36e3d19ff99d12681ffca7","2","19","1160","","","","","","","","","<img src= rock_img/I_Pegmatite_11.jpg style=""width:8cm; height:8.14cm;""><p style='font-size: 30px; color: green;'><strong>Correct!</strong></p><p style='font-size: 30px;'><strong>This rock is pegmatite</strong></p>","0","corr_feedback","1","train","47","","","","","","","",""
"","","","","","","","","","","","html-button-response","199","2.0.0","816524","5f36e3d19ff99d12681ffca7","2","19","9240","","","","","","","","","<img src= ""rock_img/I_Basalt_16.jpg"" style=""width:8cm; height:7.659999999999999cm;""><p>What type of rock is this?</p>","3","class_response","1","train","48","Gabbro","Basalt","16","false","4","2","",""
"","","","","","","","","","","","html-button-response","200","2.0.0","817939","5f36e3d19ff99d12681ffca7","2","19","1413","","","","","","","","","<img src= rock_img/I_Basalt_16.jpg style=""width:8cm; height:7.659999999999999cm;""><p style='font-size: 30px; color: red;'><strong>Incorrect!</strong></p><p style='font-size: 30px;'><strong>This rock is basalt</strong></p>","0","corr_feedback","1","train","48","","","","","","","",""
"","","","","","","","","","","","instructions","203","2.0.0","835174","5f36e3d19ff99d12681ffca7","2","19","17231","","","","","","","","[{""page_index"":0,""viewing_time"":8545},{""page_index"":1,""viewing_time"":8686}]","","","","","","","","","","","","","",""
"","","","","","","","","","","","html-button-response","204","2.0.0","837077","5f36e3d19ff99d12681ffca7","2","19","1898","","","","","","","","","","0","start_test","","","","","","","","","","",""
"","","","","","","","","","","","html-button-response","205","2.0.0","843287","5f36e3d19ff99d12681ffca7","2","19","6206","","","","","","","","","<img src= ""rock_img/I_Basalt_04.jpg"" style=""width:8cm; height:7.53cm;""><p>What type of rock is this?</p>","1","class_response","1","test","1","Basalt","Basalt","04","true","2","2","",""
"","","","","","","","","","","","html-keyboard-response","206","2.0.0","843790","5f36e3d19ff99d12681ffca7","2","19","null","","","","","","","","","<p style='font-size: 30px;'><strong>Okay</strong></p>","null","neutral_feedback","1","test","1","","","","","","","",""
"","","","","","","","","","","","html-button-response","207","2.0.0","846844","5f36e3d19ff99d12681ffca7","2","19","3051","","","","","","","","","<img src= ""rock_img/I_Peridotite_12.jpg"" style=""width:8cm; height:4.54cm;""><p>What type of rock is this?</p>","6","class_response","1","test","2","Peridotite","Peridotite","12","true","7","7","",""
"","","","","","","","","","","","html-keyboard-response","208","2.0.0","847347","5f36e3d19ff99d12681ffca7","2","19","null","","","","","","","","","<p style='font-size: 30px;'><strong>Okay</strong></p>","null","neutral_feedback","1","test","2","","","","","","","",""
"","","","","","","","","","","","html-button-response","209","2.0.0","849186","5f36e3d19ff99d12681ffca7","2","19","1836","","","","","","","","","<img src= ""rock_img/I_Andesite_14.jpg"" style=""width:8cm; height:5.449999999999999cm;""><p>What type of rock is this?</p>","5","class_response","1","test","3","Pegmatite","Andesite","14","false","6","1","",""
"","","","","","","","","","","","html-keyboard-response","210","2.0.0","849688","5f36e3d19ff99d12681ffca7","2","19","null","","","","","","","","","<p style='font-size: 30px;'><strong>Okay</strong></p>","null","neutral_feedback","1","test","3","","","","","","","",""
"","","","","","","","","","","","html-button-response","211","2.0.0","851807","5f36e3d19ff99d12681ffca7","2","19","2115","","","","","","","","","<img src= ""rock_img/I_Peridotite_06.jpg"" style=""width:8cm; height:7.53cm;""><p>What type of rock is this?</p>","6","class_response","1","test","4","Peridotite","Peridotite","06","true","7","7","",""
"","","","","","","","","","","","html-keyboard-response","212","2.0.0","852309","5f36e3d19ff99d12681ffca7","2","19","null","","","","","","","","","<p style='font-size: 30px;'><strong>Okay</strong></p>","null","neutral_feedback","1","test","4","","","","","","","",""
"","","","","","","","","","","","html-button-response","213","2.0.0","853811","5f36e3d19ff99d12681ffca7","2","19","1498","","","","","","","","","<img src= ""rock_img/I_Pumice_05.jpg"" style=""width:8cm; height:7.25cm;""><p>What type of rock is this?</p>","7","class_response","1","test","5","Pumice","Pumice","05","true","8","8","",""
"","","","","","","","","","","","html-keyboard-response","214","2.0.0","854313","5f36e3d19ff99d12681ffca7","2","19","null","","","","","","","","","<p style='font-size: 30px;'><strong>Okay</strong></p>","null","neutral_feedback","1","test","5","","","","","","","",""
"","","","","","","","","","","","html-button-response","215","2.0.0","856489","5f36e3d19ff99d12681ffca7","2","19","2173","","","","","","","","","<img src= ""rock_img/I_Peridotite_07.jpg"" style=""width:8cm; height:4.83cm;""><p>What type of rock is this?</p>","0","class_response","1","test","6","Andesite","Peridotite","07","false","1","7","",""
"","","","","","","","","","","","html-keyboard-response","216","2.0.0","856990","5f36e3d19ff99d12681ffca7","2","19","null","","","","","","","","","<p style='font-size: 30px;'><strong>Okay</strong></p>","null","neutral_feedback","1","test","6","","","","","","","",""
"","","","","","","","","","","","html-button-response","217","2.0.0","858405","5f36e3d19ff99d12681ffca7","2","19","1412","","","","","","","","","<img src= ""rock_img/I_Diorite_08.jpg"" style=""width:8cm; height:6.37cm;""><p>What type of rock is this?</p>","2","class_response","1","test","7","Diorite","Diorite","08","true","3","3","",""
"","","","","","","","","","","","html-keyboard-response","218","2.0.0","858907","5f36e3d19ff99d12681ffca7","2","19","null","","","","","","","","","<p style='font-size: 30px;'><strong>Okay</strong></p>","null","neutral_feedback","1","test","7","","","","","","","",""
"","","","","","","","","","","","html-button-response","219","2.0.0","861902","5f36e3d19ff99d12681ffca7","2","19","2993","","","","","","","","","<img src= ""rock_img/I_Gabbro_13.jpg"" style=""width:8cm; height:5.08cm;""><p>What type of rock is this?</p>","2","class_response","1","test","8","Diorite","Gabbro","13","false","3","4","",""
"","","","","","","","","","","","html-keyboard-response","220","2.0.0","862404","5f36e3d19ff99d12681ffca7","2","19","null","","","","","","","","","<p style='font-size: 30px;'><strong>Okay</strong></p>","null","neutral_feedback","1","test","8","","","","","","","",""
"","","","","","","","","","","","html-button-response","221","2.0.0","863924","5f36e3d19ff99d12681ffca7","2","19","1518","","","","","","","","","<img src= ""rock_img/I_Pegmatite_08.jpg"" style=""width:8cm; height:7.68cm;""><p>What type of rock is this?</p>","5","class_response","1","test","9","Pegmatite","Pegmatite","08","true","6","6","",""
"","","","","","","","","","","","html-keyboard-response","222","2.0.0","864426","5f36e3d19ff99d12681ffca7","2","19","null","","","","","","","","","<p style='font-size: 30px;'><strong>Okay</strong></p>","null","neutral_feedback","1","test","9","","","","","","","",""
"","","","","","","","","","","","html-button-response","223","2.0.0","865913","5f36e3d19ff99d12681ffca7","2","19","1485","","","","","","","","","<img src= ""rock_img/I_Diorite_12.jpg"" style=""width:8cm; height:4.88cm;""><p>What type of rock is this?</p>","2","class_response","1","test","10","Diorite","Diorite","12","true","3","3","",""
"","","","","","","","","","","","html-keyboard-response","224","2.0.0","866415","5f36e3d19ff99d12681ffca7","2","19","null","","","","","","","","","<p style='font-size: 30px;'><strong>Okay</strong></p>","null","neutral_feedback","1","test","10","","","","","","","",""
"","","","","","","","","","","","html-button-response","225","2.0.0","883440","5f36e3d19ff99d12681ffca7","2","19","17022","","","","","","","","","<img src= ""rock_img/I_Gabbro_14.jpg"" style=""width:8cm; height:8.48cm;""><p>What type of rock is this?</p>","3","class_response","1","test","11","Gabbro","Gabbro","14","true","4","4","",""
"","","","","","","","","","","","html-keyboard-response","226","2.0.0","883944","5f36e3d19ff99d12681ffca7","2","19","null","","","","","","","","","<p style='font-size: 30px;'><strong>Okay</strong></p>","null","neutral_feedback","1","test","11","","","","","","","",""
"","","","","","","","","","","","html-button-response","227","2.0.0","887548","5f36e3d19ff99d12681ffca7","2","19","3601","","","","","","","","","<img src= ""rock_img/I_Basalt_14.jpg"" style=""width:8cm; height:5.82cm;""><p>What type of rock is this?</p>","1","class_response","1","test","12","Basalt","Basalt","14","true","2","2","",""
"","","","","","","","","","","","html-keyboard-response","228","2.0.0","888051","5f36e3d19ff99d12681ffca7","2","19","null","","","","","","","","","<p style='font-size: 30px;'><strong>Okay</strong></p>","null","neutral_feedback","1","test","12","","","","","","","",""
"","","","","","","","","","","","html-button-response","229","2.0.0","889816","5f36e3d19ff99d12681ffca7","2","19","1762","","","","","","","","","<img src= ""rock_img/I_Basalt_01.jpg"" style=""width:8cm; height:7.880000000000001cm;""><p>What type of rock is this?</p>","1","class_response","1","test","13","Basalt","Basalt","01","true","2","2","",""
"","","","","","","","","","","","html-keyboard-response","230","2.0.0","890318","5f36e3d19ff99d12681ffca7","2","19","null","","","","","","","","","<p style='font-size: 30px;'><strong>Okay</strong></p>","null","neutral_feedback","1","test","13","","","","","","","",""
"","","","","","","","","","","","html-button-response","231","2.0.0","891630","5f36e3d19ff99d12681ffca7","2","19","1308","","","","","","","","","<img src= ""rock_img/I_Obsidian_04.jpg"" style=""width:8cm; height:6.930000000000001cm;""><p>What type of rock is this?</p>","4","class_response","1","test","14","Obsidian","Obsidian","04","true","5","5","",""
"","","","","","","","","","","","html-keyboard-response","232","2.0.0","892131","5f36e3d19ff99d12681ffca7","2","19","null","","","","","","","","","<p style='font-size: 30px;'><strong>Okay</strong></p>","null","neutral_feedback","1","test","14","","","","","","","",""
"","","","","","","","","","","","html-button-response","233","2.0.0","894540","5f36e3d19ff99d12681ffca7","2","19","2407","","","","","","","","","<img src= ""rock_img/I_Gabbro_01.jpg"" style=""width:8cm; height:5.21cm;""><p>What type of rock is this?</p>","2","class_response","1","test","15","Diorite","Gabbro","01","false","3","4","",""
"","","","","","","","","","","","html-keyboard-response","234","2.0.0","895043","5f36e3d19ff99d12681ffca7","2","19","null","","","","","","","","","<p style='font-size: 30px;'><strong>Okay</strong></p>","null","neutral_feedback","1","test","15","","","","","","","",""
"","","","","","","","","","","","html-button-response","235","2.0.0","897457","5f36e3d19ff99d12681ffca7","2","19","2411","","","","","","","","","<img src= ""rock_img/I_Basalt_06.jpg"" style=""width:8cm; height:7.06cm;""><p>What type of rock is this?</p>","1","class_response","1","test","16","Basalt","Basalt","06","true","2","2","",""
"","","","","","","","","","","","html-keyboard-response","236","2.0.0","897959","5f36e3d19ff99d12681ffca7","2","19","null","","","","","","","","","<p style='font-size: 30px;'><strong>Okay</strong></p>","null","neutral_feedback","1","test","16","","","","","","","",""
"","","","","","","","","","","","html-button-response","237","2.0.0","900176","5f36e3d19ff99d12681ffca7","2","19","2215","","","","","","","","","<img src= ""rock_img/I_Andesite_04.jpg"" style=""width:8cm; height:5.96cm;""><p>What type of rock is this?</p>","0","class_response","1","test","17","Andesite","Andesite","04","true","1","1","",""
"","","","","","","","","","","","html-keyboard-response","238","2.0.0","900678","5f36e3d19ff99d12681ffca7","2","19","null","","","","","","","","","<p style='font-size: 30px;'><strong>Okay</strong></p>","null","neutral_feedback","1","test","17","","","","","","","",""
"","","","","","","","","","","","html-button-response","239","2.0.0","902066","5f36e3d19ff99d12681ffca7","2","19","1385","","","","","","","","","<img src= ""rock_img/I_Pegmatite_15.jpg"" style=""width:8cm; height:6cm;""><p>What type of rock is this?</p>","5","class_response","1","test","18","Pegmatite","Pegmatite","15","true","6","6","",""
"","","","","","","","","","","","html-keyboard-response","240","2.0.0","902568","5f36e3d19ff99d12681ffca7","2","19","null","","","","","","","","","<p style='font-size: 30px;'><strong>Okay</strong></p>","null","neutral_feedback","1","test","18","","","","","","","",""
"","","","","","","","","","","","html-button-response","241","2.0.0","903955","5f36e3d19ff99d12681ffca7","2","19","1385","","","","","","","","","<img src= ""rock_img/I_Obsidian_16.jpg"" style=""width:8cm; height:9.3cm;""><p>What type of rock is this?</p>","4","class_response","1","test","19","Obsidian","Obsidian","16","true","5","5","",""
"","","","","","","","","","","","html-keyboard-response","242","2.0.0","904458","5f36e3d19ff99d12681ffca7","2","19","null","","","","","","","","","<p style='font-size: 30px;'><strong>Okay</strong></p>","null","neutral_feedback","1","test","19","","","","","","","",""
"","","","","","","","","","","","html-button-response","243","2.0.0","906199","5f36e3d19ff99d12681ffca7","2","19","1737","","","","","","","","","<img src= ""rock_img/I_Pumice_13.jpg"" style=""width:8cm; height:8.200000000000001cm;""><p>What type of rock is this?</p>","7","class_response","1","test","20","Pumice","Pumice","13","true","8","8","",""
"","","","","","","","","","","","html-keyboard-response","244","2.0.0","906701","5f36e3d19ff99d12681ffca7","2","19","null","","","","","","","","","<p style='font-size: 30px;'><strong>Okay</strong></p>","null","neutral_feedback","1","test","20","","","","","","","",""
"","","","","","","","","","","","html-button-response","245","2.0.0","907991","5f36e3d19ff99d12681ffca7","2","19","1288","","","","","","","","","<img src= ""rock_img/I_Pumice_09.jpg"" style=""width:8cm; height:6.44cm;""><p>What type of rock is this?</p>","7","class_response","1","test","21","Pumice","Pumice","09","true","8","8","",""
"","","","","","","","","","","","html-keyboard-response","246","2.0.0","908493","5f36e3d19ff99d12681ffca7","2","19","null","","","","","","","","","<p style='font-size: 30px;'><strong>Okay</strong></p>","null","neutral_feedback","1","test","21","","","","","","","",""
"","","","","","","","","","","","html-button-response","247","2.0.0","910432","5f36e3d19ff99d12681ffca7","2","19","1936","","","","","","","","","<img src= ""rock_img/I_Diorite_16.jpg"" style=""width:8cm; height:6.74cm;""><p>What type of rock is this?</p>","2","class_response","1","test","22","Diorite","Diorite","16","true","3","3","",""
"","","","","","","","","","","","html-keyboard-response","248","2.0.0","910934","5f36e3d19ff99d12681ffca7","2","19","null","","","","","","","","","<p style='font-size: 30px;'><strong>Okay</strong></p>","null","neutral_feedback","1","test","22","","","","","","","",""
"","","","","","","","","","","","html-button-response","249","2.0.0","915067","5f36e3d19ff99d12681ffca7","2","19","4130","","","","","","","","","<img src= ""rock_img/I_Pumice_02.jpg"" style=""width:8cm; height:7.3999999999999995cm;""><p>What type of rock is this?</p>","7","class_response","1","test","23","Pumice","Pumice","02","true","8","8","",""
"","","","","","","","","","","","html-keyboard-response","250","2.0.0","915569","5f36e3d19ff99d12681ffca7","2","19","null","","","","","","","","","<p style='font-size: 30px;'><strong>Okay</strong></p>","null","neutral_feedback","1","test","23","","","","","","","",""
"","","","","","","","","","","","html-button-response","251","2.0.0","916628","5f36e3d19ff99d12681ffca7","2","19","1055","","","","","","","","","<img src= ""rock_img/I_Pumice_08.jpg"" style=""width:8cm; height:6.67cm;""><p>What type of rock is this?</p>","7","class_response","1","test","24","Pumice","Pumice","08","true","8","8","",""
"","","","","","","","","","","","html-keyboard-response","252","2.0.0","917131","5f36e3d19ff99d12681ffca7","2","19","null","","","","","","","","","<p style='font-size: 30px;'><strong>Okay</strong></p>","null","neutral_feedback","1","test","24","","","","","","","",""
"","","","","","","","","","","","html-button-response","253","2.0.0","920106","5f36e3d19ff99d12681ffca7","2","19","2971","","","","","","","","","<img src= ""rock_img/I_Gabbro_10.jpg"" style=""width:8cm; height:5.680000000000001cm;""><p>What type of rock is this?</p>","3","class_response","1","test","25","Gabbro","Gabbro","10","true","4","4","",""
"","","","","","","","","","","","html-keyboard-response","254","2.0.0","920610","5f36e3d19ff99d12681ffca7","2","19","null","","","","","","","","","<p style='font-size: 30px;'><strong>Okay</strong></p>","null","neutral_feedback","1","test","25","","","","","","","",""
"","","","","","","","","","","","html-button-response","255","2.0.0","922565","5f36e3d19ff99d12681ffca7","2","19","1953","","","","","","","","","<img src= ""rock_img/I_Diorite_10.jpg"" style=""width:8cm; height:5.949999999999999cm;""><p>What type of rock is this?</p>","2","class_response","1","test","26","Diorite","Diorite","10","true","3","3","",""
"","","","","","","","","","","","html-keyboard-response","256","2.0.0","923067","5f36e3d19ff99d12681ffca7","2","19","null","","","","","","","","","<p style='font-size: 30px;'><strong>Okay</strong></p>","null","neutral_feedback","1","test","26","","","","","","","",""
"","","","","","","","","","","","html-button-response","257","2.0.0","924317","5f36e3d19ff99d12681ffca7","2","19","1247","","","","","","","","","<img src= ""rock_img/I_Pegmatite_13.jpg"" style=""width:8cm; height:4.95cm;""><p>What type of rock is this?</p>","5","class_response","1","test","27","Pegmatite","Pegmatite","13","true","6","6","",""
"","","","","","","","","","","","html-keyboard-response","258","2.0.0","924819","5f36e3d19ff99d12681ffca7","2","19","null","","","","","","","","","<p style='font-size: 30px;'><strong>Okay</strong></p>","null","neutral_feedback","1","test","27","","","","","","","",""
"","","","","","","","","","","","html-button-response","259","2.0.0","926167","5f36e3d19ff99d12681ffca7","2","19","1347","","","","","","","","","<img src= ""rock_img/I_Obsidian_11.jpg"" style=""width:8cm; height:6.05cm;""><p>What type of rock is this?</p>","4","class_response","1","test","28","Obsidian","Obsidian","11","true","5","5","",""
"","","","","","","","","","","","html-keyboard-response","260","2.0.0","926669","5f36e3d19ff99d12681ffca7","2","19","null","","","","","","","","","<p style='font-size: 30px;'><strong>Okay</strong></p>","null","neutral_feedback","1","test","28","","","","","","","",""
"","","","","","","","","","","","html-button-response","261","2.0.0","928037","5f36e3d19ff99d12681ffca7","2","19","1360","","","","","","","","","<img src= ""rock_img/I_Peridotite_16.jpg"" style=""width:8cm; height:6.989999999999999cm;""><p>What type of rock is this?</p>","6","class_response","1","test","29","Peridotite","Peridotite","16","true","7","7","",""
"","","","","","","","","","","","html-keyboard-response","262","2.0.0","928539","5f36e3d19ff99d12681ffca7","2","19","null","","","","","","","","","<p style='font-size: 30px;'><strong>Okay</strong></p>","null","neutral_feedback","1","test","29","","","","","","","",""
"","","","","","","","","","","","html-button-response","263","2.0.0","930079","5f36e3d19ff99d12681ffca7","2","19","1538","","","","","","","","","<img src= ""rock_img/I_Diorite_09.jpg"" style=""width:8cm; height:5.27cm;""><p>What type of rock is this?</p>","2","class_response","1","test","30","Diorite","Diorite","09","true","3","3","",""
"","","","","","","","","","","","html-keyboard-response","264","2.0.0","930580","5f36e3d19ff99d12681ffca7","2","19","null","","","","","","","","","<p style='font-size: 30px;'><strong>Okay</strong></p>","null","neutral_feedback","1","test","30","","","","","","","",""
"","","","","","","","","","","","html-button-response","265","2.0.0","932396","5f36e3d19ff99d12681ffca7","2","19","1813","","","","","","","","","<img src= ""rock_img/I_Peridotite_05.jpg"" style=""width:8cm; height:7.1499999999999995cm;""><p>What type of rock is this?</p>","6","class_response","1","test","31","Peridotite","Peridotite","05","true","7","7","",""
"","","","","","","","","","","","html-keyboard-response","266","2.0.0","932898","5f36e3d19ff99d12681ffca7","2","19","null","","","","","","","","","<p style='font-size: 30px;'><strong>Okay</strong></p>","null","neutral_feedback","1","test","31","","","","","","","",""
"","","","","","","","","","","","html-button-response","267","2.0.0","934251","5f36e3d19ff99d12681ffca7","2","19","1349","","","","","","","","","<img src= ""rock_img/I_Obsidian_08.jpg"" style=""width:8cm; height:7.39cm;""><p>What type of rock is this?</p>","4","class_response","1","test","32","Obsidian","Obsidian","08","true","5","5","",""
"","","","","","","","","","","","html-keyboard-response","268","2.0.0","934753","5f36e3d19ff99d12681ffca7","2","19","null","","","","","","","","","<p style='font-size: 30px;'><strong>Okay</strong></p>","null","neutral_feedback","1","test","32","","","","","","","",""
"","","","","","","","","","","","html-button-response","269","2.0.0","938008","5f36e3d19ff99d12681ffca7","2","19","3253","","","","","","","","","<img src= ""rock_img/I_Diorite_13.jpg"" style=""width:8cm; height:6.29cm;""><p>What type of rock is this?</p>","2","class_response","1","test","33","Diorite","Diorite","13","true","3","3","",""
"","","","","","","","","","","","html-keyboard-response","270","2.0.0","938511","5f36e3d19ff99d12681ffca7","2","19","null","","","","","","","","","<p style='font-size: 30px;'><strong>Okay</strong></p>","null","neutral_feedback","1","test","33","","","","","","","",""
"","","","","","","","","","","","html-button-response","271","2.0.0","940132","5f36e3d19ff99d12681ffca7","2","19","1619","","","","","","","","","<img src= ""rock_img/I_Andesite_07.jpg"" style=""width:8cm; height:5.93cm;""><p>What type of rock is this?</p>","0","class_response","1","test","34","Andesite","Andesite","07","true","1","1","",""
"","","","","","","","","","","","html-keyboard-response","272","2.0.0","940633","5f36e3d19ff99d12681ffca7","2","19","null","","","","","","","","","<p style='font-size: 30px;'><strong>Okay</strong></p>","null","neutral_feedback","1","test","34","","","","","","","",""
"","","","","","","","","","","","html-button-response","273","2.0.0","943787","5f36e3d19ff99d12681ffca7","2","19","3147","","","","","","","","","<img src= ""rock_img/I_Basalt_10.jpg"" style=""width:8cm; height:5.85cm;""><p>What type of rock is this?</p>","1","class_response","1","test","35","Basalt","Basalt","10","true","2","2","",""
"","","","","","","","","","","","html-keyboard-response","274","2.0.0","944290","5f36e3d19ff99d12681ffca7","2","19","null","","","","","","","","","<p style='font-size: 30px;'><strong>Okay</strong></p>","null","neutral_feedback","1","test","35","","","","","","","",""
"","","","","","","","","","","","html-button-response","275","2.0.0","945695","5f36e3d19ff99d12681ffca7","2","19","1400","","","","","","","","","<img src= ""rock_img/I_Pegmatite_03.jpg"" style=""width:8cm; height:5.239999999999999cm;""><p>What type of rock is this?</p>","5","class_response","1","test","36","Pegmatite","Pegmatite","03","true","6","6","",""
"","","","","","","","","","","","html-keyboard-response","276","2.0.0","946198","5f36e3d19ff99d12681ffca7","2","19","null","","","","","","","","","<p style='font-size: 30px;'><strong>Okay</strong></p>","null","neutral_feedback","1","test","36","","","","","","","",""
"","","","","","","","","","","","html-button-response","277","2.0.0","948828","5f36e3d19ff99d12681ffca7","2","19","2624","","","","","","","","","<img src= ""rock_img/I_Basalt_09.jpg"" style=""width:8cm; height:6.2cm;""><p>What type of rock is this?</p>","1","class_response","1","test","37","Basalt","Basalt","09","true","2","2","",""
"","","","","","","","","","","","html-keyboard-response","278","2.0.0","949330","5f36e3d19ff99d12681ffca7","2","19","null","","","","","","","","","<p style='font-size: 30px;'><strong>Okay</strong></p>","null","neutral_feedback","1","test","37","","","","","","","",""
"","","","","","","","","","","","html-button-response","279","2.0.0","950854","5f36e3d19ff99d12681ffca7","2","19","1519","","","","","","","","","<img src= ""rock_img/I_Pumice_15.jpg"" style=""width:8cm; height:7.86cm;""><p>What type of rock is this?</p>","7","class_response","1","test","38","Pumice","Pumice","15","true","8","8","",""
"","","","","","","","","","","","html-keyboard-response","280","2.0.0","951356","5f36e3d19ff99d12681ffca7","2","19","null","","","","","","","","","<p style='font-size: 30px;'><strong>Okay</strong></p>","null","neutral_feedback","1","test","38","","","","","","","",""
"","","","","","","","","","","","html-button-response","281","2.0.0","954810","5f36e3d19ff99d12681ffca7","2","19","3449","","","","","","","","","<img src= ""rock_img/I_Gabbro_09.jpg"" style=""width:8cm; height:7.279999999999999cm;""><p>What type of rock is this?</p>","3","class_response","1","test","39","Gabbro","Gabbro","09","true","4","4","",""
"","","","","","","","","","","","html-keyboard-response","282","2.0.0","955313","5f36e3d19ff99d12681ffca7","2","19","null","","","","","","","","","<p style='font-size: 30px;'><strong>Okay</strong></p>","null","neutral_feedback","1","test","39","","","","","","","",""
"","","","","","","","","","","","html-button-response","283","2.0.0","959712","5f36e3d19ff99d12681ffca7","2","19","4394","","","","","","","","","<img src= ""rock_img/I_Obsidian_06.jpg"" style=""width:8cm; height:6.8cm;""><p>What type of rock is this?</p>","4","class_response","1","test","40","Obsidian","Obsidian","06","true","5","5","",""
"","","","","","","","","","","","html-keyboard-response","284","2.0.0","960215","5f36e3d19ff99d12681ffca7","2","19","null","","","","","","","","","<p style='font-size: 30px;'><strong>Okay</strong></p>","null","neutral_feedback","1","test","40","","","","","","","",""
"","","","","","","","","","","","html-button-response","285","2.0.0","961862","5f36e3d19ff99d12681ffca7","2","19","1644","","","","","","","","","<img src= ""rock_img/I_Peridotite_08.jpg"" style=""width:8cm; height:6.7cm;""><p>What type of rock is this?</p>","6","class_response","1","test","41","Peridotite","Peridotite","08","true","7","7","",""
"","","","","","","","","","","","html-keyboard-response","286","2.0.0","962363","5f36e3d19ff99d12681ffca7","2","19","null","","","","","","","","","<p style='font-size: 30px;'><strong>Okay</strong></p>","null","neutral_feedback","1","test","41","","","","","","","",""
"","","","","","","","","","","","html-button-response","287","2.0.0","966031","5f36e3d19ff99d12681ffca7","2","19","3664","","","","","","","","","<img src= ""rock_img/I_Andesite_11.jpg"" style=""width:8cm; height:4.92cm;""><p>What type of rock is this?</p>","0","class_response","1","test","42","Andesite","Andesite","11","true","1","1","",""
"","","","","","","","","","","","html-keyboard-response","288","2.0.0","966533","5f36e3d19ff99d12681ffca7","2","19","null","","","","","","","","","<p style='font-size: 30px;'><strong>Okay</strong></p>","null","neutral_feedback","1","test","42","","","","","","","",""
"","","","","","","","","","","","html-button-response","289","2.0.0","968647","5f36e3d19ff99d12681ffca7","2","19","2112","","","","","","","","","<img src= ""rock_img/I_Obsidian_07.jpg"" style=""width:8cm; height:4.76cm;""><p>What type of rock is this?</p>","4","class_response","1","test","43","Obsidian","Obsidian","07","true","5","5","",""
"","","","","","","","","","","","html-keyboard-response","290","2.0.0","969150","5f36e3d19ff99d12681ffca7","2","19","null","","","","","","","","","<p style='font-size: 30px;'><strong>Okay</strong></p>","null","neutral_feedback","1","test","43","","","","","","","",""
"","","","","","","","","","","","html-button-response","291","2.0.0","970577","5f36e3d19ff99d12681ffca7","2","19","1424","","","","","","","","","<img src= ""rock_img/I_Gabbro_03.jpg"" style=""width:8cm; height:8.52cm;""><p>What type of rock is this?</p>","2","class_response","1","test","44","Diorite","Gabbro","03","false","3","4","",""
"","","","","","","","","","","","html-keyboard-response","292","2.0.0","971079","5f36e3d19ff99d12681ffca7","2","19","null","","","","","","","","","<p style='font-size: 30px;'><strong>Okay</strong></p>","null","neutral_feedback","1","test","44","","","","","","","",""
"","","","","","","","","","","","html-button-response","293","2.0.0","972689","5f36e3d19ff99d12681ffca7","2","19","1607","","","","","","","","","<img src= ""rock_img/I_Pegmatite_05.jpg"" style=""width:8cm; height:7.300000000000001cm;""><p>What type of rock is this?</p>","5","class_response","1","test","45","Pegmatite","Pegmatite","05","true","6","6","",""
"","","","","","","","","","","","html-keyboard-response","294","2.0.0","973192","5f36e3d19ff99d12681ffca7","2","19","null","","","","","","","","","<p style='font-size: 30px;'><strong>Okay</strong></p>","null","neutral_feedback","1","test","45","","","","","","","",""
"","","","","","","","","","","","html-button-response","295","2.0.0","974588","5f36e3d19ff99d12681ffca7","2","19","1392","","","","","","","","","<img src= ""rock_img/I_Pegmatite_10.jpg"" style=""width:8cm; height:4.16cm;""><p>What type of rock is this?</p>","6","class_response","1","test","46","Peridotite","Pegmatite","10","false","7","6","",""
"","","","","","","","","","","","html-keyboard-response","296","2.0.0","975091","5f36e3d19ff99d12681ffca7","2","19","null","","","","","","","","","<p style='font-size: 30px;'><strong>Okay</strong></p>","null","neutral_feedback","1","test","46","","","","","","","",""
"","","","","","","","","","","","html-button-response","297","2.0.0","976725","5f36e3d19ff99d12681ffca7","2","19","1631","","","","","","","","","<img src= ""rock_img/I_Andesite_10.jpg"" style=""width:8cm; height:4.16cm;""><p>What type of rock is this?</p>","0","class_response","1","test","47","Andesite","Andesite","10","true","1","1","",""
"","","","","","","","","","","","html-keyboard-response","298","2.0.0","977227","5f36e3d19ff99d12681ffca7","2","19","null","","","","","","","","","<p style='font-size: 30px;'><strong>Okay</strong></p>","null","neutral_feedback","1","test","47","","","","","","","",""
"","","","","","","","","","","","html-button-response","299","2.0.0","979576","5f36e3d19ff99d12681ffca7","2","19","2347","","","","","","","","","<img src= ""rock_img/I_Andesite_02.jpg"" style=""width:8cm; height:8.5cm;""><p>What type of rock is this?</p>","0","class_response","1","test","48","Andesite","Andesite","02","true","1","1","",""
"","","","","","","","","","","","html-keyboard-response","300","2.0.0","980079","5f36e3d19ff99d12681ffca7","2","19","null","","","","","","","","","<p style='font-size: 30px;'><strong>Okay</strong></p>","null","neutral_feedback","1","test","48","","","","","","","",""
"","","","","","","","","","","","html-button-response","301","2.0.0","998956","5f36e3d19ff99d12681ffca7","2","19","","","","","","","","","","","","cycle_feedback","","","","","","","","","","7790.9000000059605","11070"
"","","","","","","","","","","","html-button-response","303","2.0.0","1003501","5f36e3d19ff99d12681ffca7","2","19","4540","","","","","","","","","","0","start_train","","","","","","","","","","",""
"","","","","","","","","","","","html-button-response","304","2.0.0","1005290","5f36e3d19ff99d12681ffca7","2","19","1785","","","","","","","","","<img src= ""rock_img/I_Diorite_11.jpg"" style=""width:8cm; height:7.11cm;""><p>What type of rock is this?</p>","2","class_response","2","train","1","Diorite","Diorite","11","true","3","3","",""
