"width","height","webaudio","browser","browser_version","mobile","os","fullscreen","vsync_rate","webcam","microphone","trial_type","trial_index","plugin_version","time_elapsed","subjID","condition","stimID","rt","url","success","value","timeout","failed_images","failed_audio","failed_video","view_history","stimulus","response","trialType","cycle","phase","trial","resp","cat","token","corr","resp_num","cat_num","time_fb1","time_fb2"
"1517","717","true","chrome","130.0.0","false","Chrome OS","true","60.1","true","true","browser-check","0","2.0.0","1021","60ff58f2c619f3476d7b50fa","2","14","","","","","","","","","","","","","","","","","","","","","","",""
"","","","","","","","","","","","external-html","1","2.0.0","10008","60ff58f2c619f3476d7b50fa","2","14","8882","consent_form.html","","","","","","","","","","","","","","","","","","","","",""
"","","","","","","","","","","","fullscreen","2","2.0.0","17477","60ff58f2c619f3476d7b50fa","2","14","6464","","true","","","","","","","","","","","","","","","","","","","",""
"","","","","","","","","","","","call-function","3","2.0.0","17481","60ff58f2c619f3476d7b50fa","2","14","","","","{}","","","","","","","","","","","","","","","","","","",""
"","","","","","","","","","","","preload","4","2.0.0","20180","60ff58f2c619f3476d7b50fa","2","14","","","true","","false","[]","[]","[]","","","","","","","","","","","","","","",""
"","","","","","","","","","","","instructions","5","2.0.0","59515","60ff58f2c619f3476d7b50fa","2","14","39332","","","","","","","","[{""page_index"":0,""viewing_time"":16466},{""page_index"":1,""viewing_time"":14141},{""page_index"":2,""viewing_time"":8724}]","","","","","","","","","","","","","",""
"","","","","","","","","","","","html-button-response","6","2.0.0","61840","60ff58f2c619f3476d7b50fa","2","14","2319","","","","","","","","","","0","start_test","","","","","","","","","","",""
"","","","","","","","","","","","html-button-response","7","2.0.0","73711","60ff58f2c619f3476d7b50fa","2","14","11865","","","","","","","","","<img src= ""rock_img/I_Obsidian_07.jpg"" style=""width:8cm; height:4.76cm;""><p>What type of rock is this?</p>","2","class_response","0","test","1","Diorite","Obsidian","07","false","3","5","",""
"","","","","","","","","","","","html-keyboard-response","8","2.0.0","74215","60ff58f2c619f3476d7b50fa","2","14","null","","","","","","","","","<p style='font-size: 30px;'><strong>Okay</strong></p>","null","neutral_feedback","0","test","1","","","","","","","",""
"","","","","","","","","","","","html-button-response","9","2.0.0","80958","60ff58f2c619f3476d7b50fa","2","14","6738","","","","","","","","","<img src= ""rock_img/I_Basalt_08.jpg"" style=""width:8cm; height:10.44cm;""><p>What type of rock is this?</p>","4","class_response","0","test","2","Obsidian","Basalt","08","false","5","2","",""
"","","","","","","","","","","","html-keyboard-response","10","2.0.0","81461","60ff58f2c619f3476d7b50fa","2","14","null","","","","","","","","","<p style='font-size: 30px;'><strong>Okay</strong></p>","null","neutral_feedback","0","test","2","","","","","","","",""
"","","","","","","","","","","","html-button-response","11","2.0.0","89224","60ff58f2c619f3476d7b50fa","2","14","7757","","","","","","","","","<img src= ""rock_img/I_Pegmatite_05.jpg"" style=""width:8cm; height:7.300000000000001cm;""><p>What type of rock is this?</p>","1","class_response","0","test","3","Basalt","Pegmatite","05","false","2","6","",""
"","","","","","","","","","","","html-keyboard-response","12","2.0.0","89728","60ff58f2c619f3476d7b50fa","2","14","null","","","","","","","","","<p style='font-size: 30px;'><strong>Okay</strong></p>","null","neutral_feedback","0","test","3","","","","","","","",""
"","","","","","","","","","","","html-button-response","13","2.0.0","91538","60ff58f2c619f3476d7b50fa","2","14","1805","","","","","","","","","<img src= ""rock_img/I_Andesite_03.jpg"" style=""width:8cm; height:5.73cm;""><p>What type of rock is this?</p>","7","class_response","0","test","4","Pumice","Andesite","03","false","8","1","",""
"","","","","","","","","","","","html-keyboard-response","14","2.0.0","92040","60ff58f2c619f3476d7b50fa","2","14","null","","","","","","","","","<p style='font-size: 30px;'><strong>Okay</strong></p>","null","neutral_feedback","0","test","4","","","","","","","",""
"","","","","","","","","","","","html-button-response","15","2.0.0","96454","60ff58f2c619f3476d7b50fa","2","14","4410","","","","","","","","","<img src= ""rock_img/I_Pegmatite_13.jpg"" style=""width:8cm; height:4.95cm;""><p>What type of rock is this?</p>","6","class_response","0","test","5","Peridotite","Pegmatite","13","false","7","6","",""
"","","","","","","","","","","","html-keyboard-response","16","2.0.0","96958","60ff58f2c619f3476d7b50fa","2","14","null","","","","","","","","","<p style='font-size: 30px;'><strong>Okay</strong></p>","null","neutral_feedback","0","test","5","","","","","","","",""
"","","","","","","","","","","","html-button-response","17","2.0.0","101525","60ff58f2c619f3476d7b50fa","2","14","4563","","","","","","","","","<img src= ""rock_img/I_Gabbro_05.jpg"" style=""width:8cm; height:6cm;""><p>What type of rock is this?</p>","1","class_response","0","test","6","Basalt","Gabbro","05","false","2","4","",""
"","","","","","","","","","","","html-keyboard-response","18","2.0.0","102027","60ff58f2c619f3476d7b50fa","2","14","null","","","","","","","","","<p style='font-size: 30px;'><strong>Okay</strong></p>","null","neutral_feedback","0","test","6","","","","","","","",""
"","","","","","","","","","","","html-button-response","19","2.0.0","104668","60ff58f2c619f3476d7b50fa","2","14","2636","","","","","","","","","<img src= ""rock_img/I_Gabbro_14.jpg"" style=""width:8cm; height:8.48cm;""><p>What type of rock is this?</p>","3","class_response","0","test","7","Gabbro","Gabbro","14","true","4","4","",""
"","","","","","","","","","","","html-keyboard-response","20","2.0.0","105170","60ff58f2c619f3476d7b50fa","2","14","null","","","","","","","","","<p style='font-size: 30px;'><strong>Okay</strong></p>","null","neutral_feedback","0","test","7","","","","","","","",""
"","","","","","","","","","","","html-button-response","21","2.0.0","112902","60ff58f2c619f3476d7b50fa","2","14","7728","","","","","","","","","<img src= ""rock_img/I_Peridotite_05.jpg"" style=""width:8cm; height:7.1499999999999995cm;""><p>What type of rock is this?</p>","0","class_response","0","test","8","Andesite","Peridotite","05","false","1","7","",""
"","","","","","","","","","","","html-keyboard-response","22","2.0.0","113404","60ff58f2c619f3476d7b50fa","2","14","null","","","","","","","","","<p style='font-size: 30px;'><strong>Okay</strong></p>","null","neutral_feedback","0","test","8","","","","","","","",""
"","","","","","","","","","","","html-button-response","23","2.0.0","118004","60ff58f2c619f3476d7b50fa","2","14","4596","","","","","","","","","<img src= ""rock_img/I_Peridotite_15.jpg"" style=""width:8cm; height:6cm;""><p>What type of rock is this?</p>","5","class_response","0","test","9","Pegmatite","Peridotite","15","false","6","7","",""
"","","","","","","","","","","","html-keyboard-response","24","2.0.0","118506","60ff58f2c619f3476d7b50fa","2","14","null","","","","","","","","","<p style='font-size: 30px;'><strong>Okay</strong></p>","null","neutral_feedback","0","test","9","","","","","","","",""
"","","","","","","","","","","","html-button-response","25","2.0.0","121264","60ff58f2c619f3476d7b50fa","2","14","2754","","","","","","","","","<img src= ""rock_img/I_Peridotite_16.jpg"" style=""width:8cm; height:6.989999999999999cm;""><p>What type of rock is this?</p>","7","class_response","0","test","10","Pumice","Peridotite","16","false","8","7","",""
"","","","","","","","","","","","html-keyboard-response","26","2.0.0","121767","60ff58f2c619f3476d7b50fa","2","14","null","","","","","","","","","<p style='font-size: 30px;'><strong>Okay</strong></p>","null","neutral_feedback","0","test","10","","","","","","","",""
"","","","","","","","","","","","html-button-response","27","2.0.0","124268","60ff58f2c619f3476d7b50fa","2","14","2498","","","","","","","","","<img src= ""rock_img/I_Pumice_16.jpg"" style=""width:8cm; height:6.79cm;""><p>What type of rock is this?</p>","2","class_response","0","test","11","Diorite","Pumice","16","false","3","8","",""
"","","","","","","","","","","","html-keyboard-response","28","2.0.0","124770","60ff58f2c619f3476d7b50fa","2","14","null","","","","","","","","","<p style='font-size: 30px;'><strong>Okay</strong></p>","null","neutral_feedback","0","test","11","","","","","","","",""
"","","","","","","","","","","","html-button-response","29","2.0.0","128691","60ff58f2c619f3476d7b50fa","2","14","3916","","","","","","","","","<img src= ""rock_img/I_Gabbro_12.jpg"" style=""width:8cm; height:7.800000000000001cm;""><p>What type of rock is this?</p>","6","class_response","0","test","12","Peridotite","Gabbro","12","false","7","4","",""
"","","","","","","","","","","","html-keyboard-response","30","2.0.0","129193","60ff58f2c619f3476d7b50fa","2","14","null","","","","","","","","","<p style='font-size: 30px;'><strong>Okay</strong></p>","null","neutral_feedback","0","test","12","","","","","","","",""
"","","","","","","","","","","","html-button-response","31","2.0.0","131537","60ff58f2c619f3476d7b50fa","2","14","2340","","","","","","","","","<img src= ""rock_img/I_Peridotite_10.jpg"" style=""width:8cm; height:5.390000000000001cm;""><p>What type of rock is this?</p>","1","class_response","0","test","13","Basalt","Peridotite","10","false","2","7","",""
"","","","","","","","","","","","html-keyboard-response","32","2.0.0","132040","60ff58f2c619f3476d7b50fa","2","14","null","","","","","","","","","<p style='font-size: 30px;'><strong>Okay</strong></p>","null","neutral_feedback","0","test","13","","","","","","","",""
"","","","","","","","","","","","html-button-response","33","2.0.0","135016","60ff58f2c619f3476d7b50fa","2","14","2972","","","","","","","","","<img src= ""rock_img/I_Diorite_16.jpg"" style=""width:8cm; height:6.74cm;""><p>What type of rock is this?</p>","4","class_response","0","test","14","Obsidian","Diorite","16","false","5","3","",""
"","","","","","","","","","","","html-keyboard-response","34","2.0.0","135519","60ff58f2c619f3476d7b50fa","2","14","null","","","","","","","","","<p style='font-size: 30px;'><strong>Okay</strong></p>","null","neutral_feedback","0","test","14","","","","","","","",""
"","","","","","","","","","","","html-button-response","35","2.0.0","137517","60ff58f2c619f3476d7b50fa","2","14","1995","","","","","","","","","<img src= ""rock_img/I_Andesite_14.jpg"" style=""width:8cm; height:5.449999999999999cm;""><p>What type of rock is this?</p>","2","class_response","0","test","15","Diorite","Andesite","14","false","3","1","",""
"","","","","","","","","","","","html-keyboard-response","36","2.0.0","138020","60ff58f2c619f3476d7b50fa","2","14","null","","","","","","","","","<p style='font-size: 30px;'><strong>Okay</strong></p>","null","neutral_feedback","0","test","15","","","","","","","",""
"","","","","","","","","","","","html-button-response","37","2.0.0","139300","60ff58f2c619f3476d7b50fa","2","14","1277","","","","","","","","","<img src= ""rock_img/I_Gabbro_08.jpg"" style=""width:8cm; height:5.15cm;""><p>What type of rock is this?</p>","7","class_response","0","test","16","Pumice","Gabbro","08","false","8","4","",""
"","","","","","","","","","","","html-keyboard-response","38","2.0.0","139802","60ff58f2c619f3476d7b50fa","2","14","null","","","","","","","","","<p style='font-size: 30px;'><strong>Okay</strong></p>","null","neutral_feedback","0","test","16","","","","","","","",""
"","","","","","","","","","","","html-button-response","39","2.0.0","143239","60ff58f2c619f3476d7b50fa","2","14","3433","","","","","","","","","<img src= ""rock_img/I_Obsidian_10.jpg"" style=""width:8cm; height:6.260000000000001cm;""><p>What type of rock is this?</p>","4","class_response","0","test","17","Obsidian","Obsidian","10","true","5","5","",""
"","","","","","","","","","","","html-keyboard-response","40","2.0.0","143742","60ff58f2c619f3476d7b50fa","2","14","null","","","","","","","","","<p style='font-size: 30px;'><strong>Okay</strong></p>","null","neutral_feedback","0","test","17","","","","","","","",""
"","","","","","","","","","","","html-button-response","41","2.0.0","145802","60ff58f2c619f3476d7b50fa","2","14","2056","","","","","","","","","<img src= ""rock_img/I_Pegmatite_16.jpg"" style=""width:8cm; height:5.8cm;""><p>What type of rock is this?</p>","7","class_response","0","test","18","Pumice","Pegmatite","16","false","8","6","",""
"","","","","","","","","","","","html-keyboard-response","42","2.0.0","146304","60ff58f2c619f3476d7b50fa","2","14","null","","","","","","","","","<p style='font-size: 30px;'><strong>Okay</strong></p>","null","neutral_feedback","0","test","18","","","","","","","",""
"","","","","","","","","","","","html-button-response","43","2.0.0","147899","60ff58f2c619f3476d7b50fa","2","14","1591","","","","","","","","","<img src= ""rock_img/I_Pumice_04.jpg"" style=""width:8cm; height:6.819999999999999cm;""><p>What type of rock is this?</p>","7","class_response","0","test","19","Pumice","Pumice","04","true","8","8","",""
"","","","","","","","","","","","html-keyboard-response","44","2.0.0","148402","60ff58f2c619f3476d7b50fa","2","14","null","","","","","","","","","<p style='font-size: 30px;'><strong>Okay</strong></p>","null","neutral_feedback","0","test","19","","","","","","","",""
"","","","","","","","","","","","html-button-response","45","2.0.0","151898","60ff58f2c619f3476d7b50fa","2","14","3493","","","","","","","","","<img src= ""rock_img/I_Diorite_10.jpg"" style=""width:8cm; height:5.949999999999999cm;""><p>What type of rock is this?</p>","1","class_response","0","test","20","Basalt","Diorite","10","false","2","3","",""
"","","","","","","","","","","","html-keyboard-response","46","2.0.0","152401","60ff58f2c619f3476d7b50fa","2","14","null","","","","","","","","","<p style='font-size: 30px;'><strong>Okay</strong></p>","null","neutral_feedback","0","test","20","","","","","","","",""
"","","","","","","","","","","","html-button-response","47","2.0.0","156597","60ff58f2c619f3476d7b50fa","2","14","4193","","","","","","","","","<img src= ""rock_img/I_Pumice_06.jpg"" style=""width:8cm; height:6.9399999999999995cm;""><p>What type of rock is this?</p>","3","class_response","0","test","21","Gabbro","Pumice","06","false","4","8","",""
"","","","","","","","","","","","html-keyboard-response","48","2.0.0","157099","60ff58f2c619f3476d7b50fa","2","14","null","","","","","","","","","<p style='font-size: 30px;'><strong>Okay</strong></p>","null","neutral_feedback","0","test","21","","","","","","","",""
"","","","","","","","","","","","html-button-response","49","2.0.0","159099","60ff58f2c619f3476d7b50fa","2","14","1996","","","","","","","","","<img src= ""rock_img/I_Pegmatite_03.jpg"" style=""width:8cm; height:5.239999999999999cm;""><p>What type of rock is this?</p>","6","class_response","0","test","22","Peridotite","Pegmatite","03","false","7","6","",""
"","","","","","","","","","","","html-keyboard-response","50","2.0.0","159601","60ff58f2c619f3476d7b50fa","2","14","null","","","","","","","","","<p style='font-size: 30px;'><strong>Okay</strong></p>","null","neutral_feedback","0","test","22","","","","","","","",""
"","","","","","","","","","","","html-button-response","51","2.0.0","162390","60ff58f2c619f3476d7b50fa","2","14","2785","","","","","","","","","<img src= ""rock_img/I_Pumice_15.jpg"" style=""width:8cm; height:7.86cm;""><p>What type of rock is this?</p>","5","class_response","0","test","23","Pegmatite","Pumice","15","false","6","8","",""
"","","","","","","","","","","","html-keyboard-response","52","2.0.0","162892","60ff58f2c619f3476d7b50fa","2","14","null","","","","","","","","","<p style='font-size: 30px;'><strong>Okay</strong></p>","null","neutral_feedback","0","test","23","","","","","","","",""
"","","","","","","","","","","","html-button-response","53","2.0.0","164980","60ff58f2c619f3476d7b50fa","2","14","2085","","","","","","","","","<img src= ""rock_img/I_Diorite_14.jpg"" style=""width:8cm; height:5.71cm;""><p>What type of rock is this?</p>","2","class_response","0","test","24","Diorite","Diorite","14","true","3","3","",""
"","","","","","","","","","","","html-keyboard-response","54","2.0.0","165483","60ff58f2c619f3476d7b50fa","2","14","null","","","","","","","","","<p style='font-size: 30px;'><strong>Okay</strong></p>","null","neutral_feedback","0","test","24","","","","","","","",""
"","","","","","","","","","","","html-button-response","55","2.0.0","168006","60ff58f2c619f3476d7b50fa","2","14","2519","","","","","","","","","<img src= ""rock_img/I_Basalt_02.jpg"" style=""width:8cm; height:6.45cm;""><p>What type of rock is this?</p>","6","class_response","0","test","25","Peridotite","Basalt","02","false","7","2","",""
"","","","","","","","","","","","html-keyboard-response","56","2.0.0","168508","60ff58f2c619f3476d7b50fa","2","14","null","","","","","","","","","<p style='font-size: 30px;'><strong>Okay</strong></p>","null","neutral_feedback","0","test","25","","","","","","","",""
"","","","","","","","","","","","html-button-response","57","2.0.0","170439","60ff58f2c619f3476d7b50fa","2","14","1926","","","","","","","","","<img src= ""rock_img/I_Andesite_02.jpg"" style=""width:8cm; height:8.5cm;""><p>What type of rock is this?</p>","7","class_response","0","test","26","Pumice","Andesite","02","false","8","1","",""
"","","","","","","","","","","","html-keyboard-response","58","2.0.0","170941","60ff58f2c619f3476d7b50fa","2","14","null","","","","","","","","","<p style='font-size: 30px;'><strong>Okay</strong></p>","null","neutral_feedback","0","test","26","","","","","","","",""
"","","","","","","","","","","","html-button-response","59","2.0.0","173620","60ff58f2c619f3476d7b50fa","2","14","2676","","","","","","","","","<img src= ""rock_img/I_Diorite_06.jpg"" style=""width:8cm; height:6.03cm;""><p>What type of rock is this?</p>","5","class_response","0","test","27","Pegmatite","Diorite","06","false","6","3","",""
"","","","","","","","","","","","html-keyboard-response","60","2.0.0","174123","60ff58f2c619f3476d7b50fa","2","14","null","","","","","","","","","<p style='font-size: 30px;'><strong>Okay</strong></p>","null","neutral_feedback","0","test","27","","","","","","","",""
"","","","","","","","","","","","html-button-response","61","2.0.0","177019","60ff58f2c619f3476d7b50fa","2","14","2893","","","","","","","","","<img src= ""rock_img/I_Basalt_10.jpg"" style=""width:8cm; height:5.85cm;""><p>What type of rock is this?</p>","0","class_response","0","test","28","Andesite","Basalt","10","false","1","2","",""
"","","","","","","","","","","","html-keyboard-response","62","2.0.0","177521","60ff58f2c619f3476d7b50fa","2","14","null","","","","","","","","","<p style='font-size: 30px;'><strong>Okay</strong></p>","null","neutral_feedback","0","test","28","","","","","","","",""
"","","","","","","","","","","","html-button-response","63","2.0.0","179641","60ff58f2c619f3476d7b50fa","2","14","2116","","","","","","","","","<img src= ""rock_img/I_Obsidian_05.jpg"" style=""width:8cm; height:6.33cm;""><p>What type of rock is this?</p>","4","class_response","0","test","29","Obsidian","Obsidian","05","true","5","5","",""
"","","","","","","","","","","","html-keyboard-response","64","2.0.0","180143","60ff58f2c619f3476d7b50fa","2","14","null","","","","","","","","","<p style='font-size: 30px;'><strong>Okay</strong></p>","null","neutral_feedback","0","test","29","","","","","","","",""
"","","","","","","","","","","","html-button-response","65","2.0.0","181767","60ff58f2c619f3476d7b50fa","2","14","1620","","","","","","","","","<img src= ""rock_img/I_Andesite_11.jpg"" style=""width:8cm; height:4.92cm;""><p>What type of rock is this?</p>","7","class_response","0","test","30","Pumice","Andesite","11","false","8","1","",""
"","","","","","","","","","","","html-keyboard-response","66","2.0.0","182270","60ff58f2c619f3476d7b50fa","2","14","null","","","","","","","","","<p style='font-size: 30px;'><strong>Okay</strong></p>","null","neutral_feedback","0","test","30","","","","","","","",""
"","","","","","","","","","","","html-button-response","67","2.0.0","184043","60ff58f2c619f3476d7b50fa","2","14","1769","","","","","","","","","<img src= ""rock_img/I_Gabbro_10.jpg"" style=""width:8cm; height:5.680000000000001cm;""><p>What type of rock is this?</p>","0","class_response","0","test","31","Andesite","Gabbro","10","false","1","4","",""
"","","","","","","","","","","","html-keyboard-response","68","2.0.0","184545","60ff58f2c619f3476d7b50fa","2","14","null","","","","","","","","","<p style='font-size: 30px;'><strong>Okay</strong></p>","null","neutral_feedback","0","test","31","","","","","","","",""
"","","","","","","","","","","","html-button-response","69","2.0.0","187235","60ff58f2c619f3476d7b50fa","2","14","2686","","","","","","","","","<img src= ""rock_img/I_Basalt_09.jpg"" style=""width:8cm; height:6.2cm;""><p>What type of rock is this?</p>","7","class_response","0","test","32","Pumice","Basalt","09","false","8","2","",""
"","","","","","","","","","","","html-keyboard-response","70","2.0.0","187738","60ff58f2c619f3476d7b50fa","2","14","null","","","","","","","","","<p style='font-size: 30px;'><strong>Okay</strong></p>","null","neutral_feedback","0","test","32","","","","","","","",""
"","","","","","","","","","","","html-button-response","71","2.0.0","192684","60ff58f2c619f3476d7b50fa","2","14","4943","","","","","","","","","<img src= ""rock_img/I_Pegmatite_08.jpg"" style=""width:8cm; height:7.68cm;""><p>What type of rock is this?</p>","2","class_response","0","test","33","Diorite","Pegmatite","08","false","3","6","",""
"","","","","","","","","","","","html-keyboard-response","72","2.0.0","193187","60ff58f2c619f3476d7b50fa","2","14","null","","","","","","","","","<p style='font-size: 30px;'><strong>Okay</strong></p>","null","neutral_feedback","0","test","33","","","","","","","",""
"","","","","","","","","","","","html-button-response","73","2.0.0","194979","60ff58f2c619f3476d7b50fa","2","14","1788","","","","","","","","","<img src= ""rock_img/I_Gabbro_16.jpg"" style=""width:8cm; height:6.44cm;""><p>What type of rock is this?</p>","5","class_response","0","test","34","Pegmatite","Gabbro","16","false","6","4","",""
"","","","","","","","","","","","html-keyboard-response","74","2.0.0","195481","60ff58f2c619f3476d7b50fa","2","14","null","","","","","","","","","<p style='font-size: 30px;'><strong>Okay</strong></p>","null","neutral_feedback","0","test","34","","","","","","","",""
"","","","","","","","","","","","html-button-response","75","2.0.0","196644","60ff58f2c619f3476d7b50fa","2","14","1159","","","","","","","","","<img src= ""rock_img/I_Basalt_16.jpg"" style=""width:8cm; height:7.659999999999999cm;""><p>What type of rock is this?</p>","6","class_response","0","test","35","Peridotite","Basalt","16","false","7","2","",""
"","","","","","","","","","","","html-keyboard-response","76","2.0.0","197147","60ff58f2c619f3476d7b50fa","2","14","null","","","","","","","","","<p style='font-size: 30px;'><strong>Okay</strong></p>","null","neutral_feedback","0","test","35","","","","","","","",""
"","","","","","","","","","","","html-button-response","77","2.0.0","198604","60ff58f2c619f3476d7b50fa","2","14","1454","","","","","","","","","<img src= ""rock_img/I_Pegmatite_09.jpg"" style=""width:8cm; height:4.03cm;""><p>What type of rock is this?</p>","1","class_response","0","test","36","Basalt","Pegmatite","09","false","2","6","",""
"","","","","","","","","","","","html-keyboard-response","78","2.0.0","199107","60ff58f2c619f3476d7b50fa","2","14","null","","","","","","","","","<p style='font-size: 30px;'><strong>Okay</strong></p>","null","neutral_feedback","0","test","36","","","","","","","",""
"","","","","","","","","","","","html-button-response","79","2.0.0","200437","60ff58f2c619f3476d7b50fa","2","14","1326","","","","","","","","","<img src= ""rock_img/I_Andesite_16.jpg"" style=""width:8cm; height:6.010000000000001cm;""><p>What type of rock is this?</p>","6","class_response","0","test","37","Peridotite","Andesite","16","false","7","1","",""
"","","","","","","","","","","","html-keyboard-response","80","2.0.0","200940","60ff58f2c619f3476d7b50fa","2","14","null","","","","","","","","","<p style='font-size: 30px;'><strong>Okay</strong></p>","null","neutral_feedback","0","test","37","","","","","","","",""
"","","","","","","","","","","","html-button-response","81","2.0.0","202189","60ff58f2c619f3476d7b50fa","2","14","1245","","","","","","","","","<img src= ""rock_img/I_Pumice_09.jpg"" style=""width:8cm; height:6.44cm;""><p>What type of rock is this?</p>","7","class_response","0","test","38","Pumice","Pumice","09","true","8","8","",""
"","","","","","","","","","","","html-keyboard-response","82","2.0.0","202692","60ff58f2c619f3476d7b50fa","2","14","null","","","","","","","","","<p style='font-size: 30px;'><strong>Okay</strong></p>","null","neutral_feedback","0","test","38","","","","","","","",""
"","","","","","","","","","","","html-button-response","83","2.0.0","204406","60ff58f2c619f3476d7b50fa","2","14","1710","","","","","","","","","<img src= ""rock_img/I_Basalt_06.jpg"" style=""width:8cm; height:7.06cm;""><p>What type of rock is this?</p>","4","class_response","0","test","39","Obsidian","Basalt","06","false","5","2","",""
"","","","","","","","","","","","html-keyboard-response","84","2.0.0","204909","60ff58f2c619f3476d7b50fa","2","14","null","","","","","","","","","<p style='font-size: 30px;'><strong>Okay</strong></p>","null","neutral_feedback","0","test","39","","","","","","","",""
"","","","","","","","","","","","html-button-response","85","2.0.0","207323","60ff58f2c619f3476d7b50fa","2","14","2411","","","","","","","","","<img src= ""rock_img/I_Peridotite_13.jpg"" style=""width:8cm; height:7.58cm;""><p>What type of rock is this?</p>","3","class_response","0","test","40","Gabbro","Peridotite","13","false","4","7","",""
"","","","","","","","","","","","html-keyboard-response","86","2.0.0","207825","60ff58f2c619f3476d7b50fa","2","14","null","","","","","","","","","<p style='font-size: 30px;'><strong>Okay</strong></p>","null","neutral_feedback","0","test","40","","","","","","","",""
"","","","","","","","","","","","html-button-response","87","2.0.0","210702","60ff58f2c619f3476d7b50fa","2","14","2873","","","","","","","","","<img src= ""rock_img/I_Peridotite_14.jpg"" style=""width:8cm; height:5.3cm;""><p>What type of rock is this?</p>","0","class_response","0","test","41","Andesite","Peridotite","14","false","1","7","",""
"","","","","","","","","","","","html-keyboard-response","88","2.0.0","211204","60ff58f2c619f3476d7b50fa","2","14","null","","","","","","","","","<p style='font-size: 30px;'><strong>Okay</strong></p>","null","neutral_feedback","0","test","41","","","","","","","",""
"","","","","","","","","","","","html-button-response","89","2.0.0","213156","60ff58f2c619f3476d7b50fa","2","14","1948","","","","","","","","","<img src= ""rock_img/I_Obsidian_09.jpg"" style=""width:8cm; height:5cm;""><p>What type of rock is this?</p>","4","class_response","0","test","42","Obsidian","Obsidian","09","true","5","5","",""
"","","","","","","","","","","","html-keyboard-response","90","2.0.0","213659","60ff58f2c619f3476d7b50fa","2","14","null","","","","","","","","","<p style='font-size: 30px;'><strong>Okay</strong></p>","null","neutral_feedback","0","test","42","","","","","","","",""
"","","","","","","","","","","","html-button-response","91","2.0.0","216378","60ff58f2c619f3476d7b50fa","2","14","2715","","","","","","","","","<img src= ""rock_img/I_Andesite_05.jpg"" style=""width:8cm; height:4.12cm;""><p>What type of rock is this?</p>","7","class_response","0","test","43","Pumice","Andesite","05","false","8","1","",""
"","","","","","","","","","","","html-keyboard-response","92","2.0.0","216881","60ff58f2c619f3476d7b50fa","2","14","null","","","","","","","","","<p style='font-size: 30px;'><strong>Okay</strong></p>","null","neutral_feedback","0","test","43","","","","","","","",""
"","","","","","","","","","","","html-button-response","93","2.0.0","218574","60ff58f2c619f3476d7b50fa","2","14","1690","","","","","","","","","<img src= ""rock_img/I_Obsidian_02.jpg"" style=""width:8cm; height:7.51cm;""><p>What type of rock is this?</p>","4","class_response","0","test","44","Obsidian","Obsidian","02","true","5","5","",""
"","","","","","","","","","","","html-keyboard-response","94","2.0.0","219076","60ff58f2c619f3476d7b50fa","2","14","null","","","","","","","","","<p style='font-size: 30px;'><strong>Okay</strong></p>","null","neutral_feedback","0","test","44","","","","","","","",""
"","","","","","","","","","","","html-button-response","95","2.0.0","220683","60ff58f2c619f3476d7b50fa","2","14","1603","","","","","","","","","<img src= ""rock_img/I_Diorite_11.jpg"" style=""width:8cm; height:7.11cm;""><p>What type of rock is this?</p>","5","class_response","0","test","45","Pegmatite","Diorite","11","false","6","3","",""
"","","","","","","","","","","","html-keyboard-response","96","2.0.0","221185","60ff58f2c619f3476d7b50fa","2","14","null","","","","","","","","","<p style='font-size: 30px;'><strong>Okay</strong></p>","null","neutral_feedback","0","test","45","","","","","","","",""
"","","","","","","","","","","","html-button-response","97","2.0.0","222889","60ff58f2c619f3476d7b50fa","2","14","1701","","","","","","","","","<img src= ""rock_img/I_Obsidian_12.jpg"" style=""width:8cm; height:6.53cm;""><p>What type of rock is this?</p>","4","class_response","0","test","46","Obsidian","Obsidian","12","true","5","5","",""
"","","","","","","","","","","","html-keyboard-response","98","2.0.0","223392","60ff58f2c619f3476d7b50fa","2","14","null","","","","","","","","","<p style='font-size: 30px;'><strong>Okay</strong></p>","null","neutral_feedback","0","test","46","","","","","","","",""
"","","","","","","","","","","","html-button-response","99","2.0.0","225097","60ff58f2c619f3476d7b50fa","2","14","1700","","","","","","","","","<img src= ""rock_img/I_Pumice_05.jpg"" style=""width:8cm; height:7.25cm;""><p>What type of rock is this?</p>","6","class_response","0","test","47","Peridotite","Pumice","05","false","7","8","",""
"","","","","","","","","","","","html-keyboard-response","100","2.0.0","225599","60ff58f2c619f3476d7b50fa","2","14","null","","","","","","","","","<p style='font-size: 30px;'><strong>Okay</strong></p>","null","neutral_feedback","0","test","47","","","","","","","",""
"","","","","","","","","","","","html-button-response","101","2.0.0","227402","60ff58f2c619f3476d7b50fa","2","14","1800","","","","","","","","","<img src= ""rock_img/I_Diorite_12.jpg"" style=""width:8cm; height:4.88cm;""><p>What type of rock is this?</p>","1","class_response","0","test","48","Basalt","Diorite","12","false","2","3","",""
"","","","","","","","","","","","html-keyboard-response","102","2.0.0","227905","60ff58f2c619f3476d7b50fa","2","14","null","","","","","","","","","<p style='font-size: 30px;'><strong>Okay</strong></p>","null","neutral_feedback","0","test","48","","","","","","","",""
"","","","","","","","","","","","instructions","103","2.0.0","267876","60ff58f2c619f3476d7b50fa","2","14","39911","","","","","","","","[{""page_index"":0,""viewing_time"":30571},{""page_index"":1,""viewing_time"":5830},{""page_index"":2,""viewing_time"":3509}]","","","","","","","","","","","","","",""
"","","","","","","","","","","","html-button-response","104","2.0.0","270261","60ff58f2c619f3476d7b50fa","2","14","2382","","","","","","","","","","0","start_train","","","","","","","","","","",""
"","","","","","","","","","","","html-button-response","105","2.0.0","293070","60ff58f2c619f3476d7b50fa","2","14","22804","","","","","","","","","<img src= ""rock_img/I_Gabbro_01.jpg"" style=""width:8cm; height:5.21cm;""><p>What type of rock is this?</p>","6","class_response","1","train","1","Peridotite","Gabbro","01","false","7","4","",""
"","","","","","","","","","","","html-button-response","106","2.0.0","298083","60ff58f2c619f3476d7b50fa","2","14","5010","","","","","","","","","<img src= rock_img/I_Gabbro_01.jpg style=""width:8cm; height:5.21cm;""><p style='font-size: 30px; color: red;'><strong>Incorrect!</strong></p><p style='font-size: 30px;'><strong>This rock is gabbro</strong></p>","0","corr_feedback","1","train","1","","","","","","","",""
"","","","","","","","","","","","html-button-response","107","2.0.0","301768","60ff58f2c619f3476d7b50fa","2","14","3682","","","","","","","","","<img src= ""rock_img/I_Obsidian_04.jpg"" style=""width:8cm; height:6.930000000000001cm;""><p>What type of rock is this?</p>","4","class_response","1","train","2","Obsidian","Obsidian","04","true","5","5","",""
"","","","","","","","","","","","html-button-response","108","2.0.0","305857","60ff58f2c619f3476d7b50fa","2","14","4085","","","","","","","","","<img src= rock_img/I_Obsidian_04.jpg style=""width:8cm; height:6.930000000000001cm;""><p style='font-size: 30px; color: green;'><strong>Correct!</strong></p><p style='font-size: 30px;'><strong>This rock is obsidian</strong></p>","0","corr_feedback","1","train","2","","","","","","","",""
"","","","","","","","","","","","html-button-response","109","2.0.0","309994","60ff58f2c619f3476d7b50fa","2","14","4133","","","","","","","","","<img src= ""rock_img/I_Pumice_14.jpg"" style=""width:8cm; height:6.39cm;""><p>What type of rock is this?</p>","7","class_response","1","train","3","Pumice","Pumice","14","true","8","8","",""
"","","","","","","","","","","","html-button-response","110","2.0.0","328920","60ff58f2c619f3476d7b50fa","2","14","18923","","","","","","","","","<img src= rock_img/I_Pumice_14.jpg style=""width:8cm; height:6.39cm;""><p style='font-size: 30px; color: green;'><strong>Correct!</strong></p><p style='font-size: 30px;'><strong>This rock is pumice</strong></p>","0","corr_feedback","1","train","3","","","","","","","",""
"","","","","","","","","","","","html-button-response","111","2.0.0","333481","60ff58f2c619f3476d7b50fa","2","14","4558","","","","","","","","","<img src= ""rock_img/I_Pumice_03.jpg"" style=""width:8cm; height:6.64cm;""><p>What type of rock is this?</p>","2","class_response","1","train","4","Diorite","Pumice","03","false","3","8","",""
"","","","","","","","","","","","html-button-response","112","2.0.0","337057","60ff58f2c619f3476d7b50fa","2","14","3573","","","","","","","","","<img src= rock_img/I_Pumice_03.jpg style=""width:8cm; height:6.64cm;""><p style='font-size: 30px; color: red;'><strong>Incorrect!</strong></p><p style='font-size: 30px;'><strong>This rock is pumice</strong></p>","0","corr_feedback","1","train","4","","","","","","","",""
"","","","","","","","","","","","html-button-response","113","2.0.0","338978","60ff58f2c619f3476d7b50fa","2","14","1918","","","","","","","","","<img src= ""rock_img/I_Basalt_04.jpg"" style=""width:8cm; height:7.53cm;""><p>What type of rock is this?</p>","4","class_response","1","train","5","Obsidian","Basalt","04","false","5","2","",""
"","","","","","","","","","","","html-button-response","114","2.0.0","341727","60ff58f2c619f3476d7b50fa","2","14","2745","","","","","","","","","<img src= rock_img/I_Basalt_04.jpg style=""width:8cm; height:7.53cm;""><p style='font-size: 30px; color: red;'><strong>Incorrect!</strong></p><p style='font-size: 30px;'><strong>This rock is basalt</strong></p>","0","corr_feedback","1","train","5","","","","","","","",""
"","","","","","","","","","","","html-button-response","115","2.0.0","346997","60ff58f2c619f3476d7b50fa","2","14","5267","","","","","","","","","<img src= ""rock_img/I_Pegmatite_15.jpg"" style=""width:8cm; height:6cm;""><p>What type of rock is this?</p>","0","class_response","1","train","6","Andesite","Pegmatite","15","false","1","6","",""
"","","","","","","","","","","","html-button-response","116","2.0.0","349332","60ff58f2c619f3476d7b50fa","2","14","2331","","","","","","","","","<img src= rock_img/I_Pegmatite_15.jpg style=""width:8cm; height:6cm;""><p style='font-size: 30px; color: red;'><strong>Incorrect!</strong></p><p style='font-size: 30px;'><strong>This rock is pegmatite</strong></p>","0","corr_feedback","1","train","6","","","","","","","",""
"","","","","","","","","","","","html-button-response","117","2.0.0","354946","60ff58f2c619f3476d7b50fa","2","14","5611","","","","","","","","","<img src= ""rock_img/I_Gabbro_11.jpg"" style=""width:8cm; height:6.2cm;""><p>What type of rock is this?</p>","1","class_response","1","train","7","Basalt","Gabbro","11","false","2","4","",""
"","","","","","","","","","","","html-button-response","118","2.0.0","358739","60ff58f2c619f3476d7b50fa","2","14","3790","","","","","","","","","<img src= rock_img/I_Gabbro_11.jpg style=""width:8cm; height:6.2cm;""><p style='font-size: 30px; color: red;'><strong>Incorrect!</strong></p><p style='font-size: 30px;'><strong>This rock is gabbro</strong></p>","0","corr_feedback","1","train","7","","","","","","","",""
"","","","","","","","","","","","html-button-response","119","2.0.0","364741","60ff58f2c619f3476d7b50fa","2","14","5998","","","","","","","","","<img src= ""rock_img/I_Basalt_11.jpg"" style=""width:8cm; height:5.359999999999999cm;""><p>What type of rock is this?</p>","7","class_response","1","train","8","Pumice","Basalt","11","false","8","2","",""
"","","","","","","","","","","","html-button-response","120","2.0.0","366995","60ff58f2c619f3476d7b50fa","2","14","2251","","","","","","","","","<img src= rock_img/I_Basalt_11.jpg style=""width:8cm; height:5.359999999999999cm;""><p style='font-size: 30px; color: red;'><strong>Incorrect!</strong></p><p style='font-size: 30px;'><strong>This rock is basalt</strong></p>","0","corr_feedback","1","train","8","","","","","","","",""
"","","","","","","","","","","","html-button-response","121","2.0.0","369400","60ff58f2c619f3476d7b50fa","2","14","2402","","","","","","","","","<img src= ""rock_img/I_Gabbro_13.jpg"" style=""width:8cm; height:5.08cm;""><p>What type of rock is this?</p>","6","class_response","1","train","9","Peridotite","Gabbro","13","false","7","4","",""
"","","","","","","","","","","","html-button-response","122","2.0.0","371518","60ff58f2c619f3476d7b50fa","2","14","2115","","","","","","","","","<img src= rock_img/I_Gabbro_13.jpg style=""width:8cm; height:5.08cm;""><p style='font-size: 30px; color: red;'><strong>Incorrect!</strong></p><p style='font-size: 30px;'><strong>This rock is gabbro</strong></p>","0","corr_feedback","1","train","9","","","","","","","",""
"","","","","","","","","","","","html-button-response","123","2.0.0","374859","60ff58f2c619f3476d7b50fa","2","14","3338","","","","","","","","","<img src= ""rock_img/I_Pegmatite_07.jpg"" style=""width:8cm; height:6.7cm;""><p>What type of rock is this?</p>","3","class_response","1","train","10","Gabbro","Pegmatite","07","false","4","6","",""
"","","","","","","","","","","","html-button-response","124","2.0.0","377291","60ff58f2c619f3476d7b50fa","2","14","2430","","","","","","","","","<img src= rock_img/I_Pegmatite_07.jpg style=""width:8cm; height:6.7cm;""><p style='font-size: 30px; color: red;'><strong>Incorrect!</strong></p><p style='font-size: 30px;'><strong>This rock is pegmatite</strong></p>","0","corr_feedback","1","train","10","","","","","","","",""
"","","","","","","","","","","","html-button-response","125","2.0.0","380041","60ff58f2c619f3476d7b50fa","2","14","2746","","","","","","","","","<img src= ""rock_img/I_Andesite_04.jpg"" style=""width:8cm; height:5.96cm;""><p>What type of rock is this?</p>","5","class_response","1","train","11","Pegmatite","Andesite","04","false","6","1","",""
"","","","","","","","","","","","html-button-response","126","2.0.0","382859","60ff58f2c619f3476d7b50fa","2","14","2814","","","","","","","","","<img src= rock_img/I_Andesite_04.jpg style=""width:8cm; height:5.96cm;""><p style='font-size: 30px; color: red;'><strong>Incorrect!</strong></p><p style='font-size: 30px;'><strong>This rock is andesite</strong></p>","0","corr_feedback","1","train","11","","","","","","","",""
"","","","","","","","","","","","html-button-response","127","2.0.0","386603","60ff58f2c619f3476d7b50fa","2","14","3740","","","","","","","","","<img src= ""rock_img/I_Diorite_13.jpg"" style=""width:8cm; height:6.29cm;""><p>What type of rock is this?</p>","2","class_response","1","train","12","Diorite","Diorite","13","true","3","3","",""
"","","","","","","","","","","","html-button-response","128","2.0.0","390986","60ff58f2c619f3476d7b50fa","2","14","4380","","","","","","","","","<img src= rock_img/I_Diorite_13.jpg style=""width:8cm; height:6.29cm;""><p style='font-size: 30px; color: green;'><strong>Correct!</strong></p><p style='font-size: 30px;'><strong>This rock is diorite</strong></p>","0","corr_feedback","1","train","12","","","","","","","",""
"","","","","","","","","","","","html-button-response","129","2.0.0","394818","60ff58f2c619f3476d7b50fa","2","14","3829","","","","","","","","","<img src= ""rock_img/I_Basalt_01.jpg"" style=""width:8cm; height:7.880000000000001cm;""><p>What type of rock is this?</p>","1","class_response","1","train","13","Basalt","Basalt","01","true","2","2","",""
"","","","","","","","","","","","html-button-response","130","2.0.0","397350","60ff58f2c619f3476d7b50fa","2","14","2528","","","","","","","","","<img src= rock_img/I_Basalt_01.jpg style=""width:8cm; height:7.880000000000001cm;""><p style='font-size: 30px; color: green;'><strong>Correct!</strong></p><p style='font-size: 30px;'><strong>This rock is basalt</strong></p>","0","corr_feedback","1","train","13","","","","","","","",""
"","","","","","","","","","","","html-button-response","131","2.0.0","400523","60ff58f2c619f3476d7b50fa","2","14","3168","","","","","","","","","<img src= ""rock_img/I_Andesite_10.jpg"" style=""width:8cm; height:4.16cm;""><p>What type of rock is this?</p>","7","class_response","1","train","14","Pumice","Andesite","10","false","8","1","",""
"","","","","","","","","","","","html-button-response","132","2.0.0","403064","60ff58f2c619f3476d7b50fa","2","14","2538","","","","","","","","","<img src= rock_img/I_Andesite_10.jpg style=""width:8cm; height:4.16cm;""><p style='font-size: 30px; color: red;'><strong>Incorrect!</strong></p><p style='font-size: 30px;'><strong>This rock is andesite</strong></p>","0","corr_feedback","1","train","14","","","","","","","",""
"","","","","","","","","","","","html-button-response","133","2.0.0","409125","60ff58f2c619f3476d7b50fa","2","14","6058","","","","","","","","","<img src= ""rock_img/I_Basalt_05.jpg"" style=""width:8cm; height:8.18cm;""><p>What type of rock is this?</p>","4","class_response","1","train","15","Obsidian","Basalt","05","false","5","2","",""
"","","","","","","","","","","","html-button-response","134","2.0.0","411182","60ff58f2c619f3476d7b50fa","2","14","2055","","","","","","","","","<img src= rock_img/I_Basalt_05.jpg style=""width:8cm; height:8.18cm;""><p style='font-size: 30px; color: red;'><strong>Incorrect!</strong></p><p style='font-size: 30px;'><strong>This rock is basalt</strong></p>","0","corr_feedback","1","train","15","","","","","","","",""
"","","","","","","","","","","","html-button-response","135","2.0.0","413095","60ff58f2c619f3476d7b50fa","2","14","1909","","","","","","","","","<img src= ""rock_img/I_Basalt_04.jpg"" style=""width:8cm; height:7.53cm;""><p>What type of rock is this?</p>","1","class_response","1","train","16","Basalt","Basalt","04","true","2","2","",""
"","","","","","","","","","","","html-button-response","136","2.0.0","414759","60ff58f2c619f3476d7b50fa","2","14","1662","","","","","","","","","<img src= rock_img/I_Basalt_04.jpg style=""width:8cm; height:7.53cm;""><p style='font-size: 30px; color: green;'><strong>Correct!</strong></p><p style='font-size: 30px;'><strong>This rock is basalt</strong></p>","0","corr_feedback","1","train","16","","","","","","","",""
"","","","","","","","","","","","html-button-response","137","2.0.0","418779","60ff58f2c619f3476d7b50fa","2","14","4016","","","","","","","","","<img src= ""rock_img/I_Peridotite_07.jpg"" style=""width:8cm; height:4.83cm;""><p>What type of rock is this?</p>","0","class_response","1","train","17","Andesite","Peridotite","07","false","1","7","",""
"","","","","","","","","","","","html-button-response","138","2.0.0","421360","60ff58f2c619f3476d7b50fa","2","14","2579","","","","","","","","","<img src= rock_img/I_Peridotite_07.jpg style=""width:8cm; height:4.83cm;""><p style='font-size: 30px; color: red;'><strong>Incorrect!</strong></p><p style='font-size: 30px;'><strong>This rock is peridotite</strong></p>","0","corr_feedback","1","train","17","","","","","","","",""
"","","","","","","","","","","","html-button-response","139","2.0.0","424887","60ff58f2c619f3476d7b50fa","2","14","3523","","","","","","","","","<img src= ""rock_img/I_Gabbro_03.jpg"" style=""width:8cm; height:8.52cm;""><p>What type of rock is this?</p>","7","class_response","1","train","18","Pumice","Gabbro","03","false","8","4","",""
"","","","","","","","","","","","html-button-response","140","2.0.0","426848","60ff58f2c619f3476d7b50fa","2","14","1957","","","","","","","","","<img src= rock_img/I_Gabbro_03.jpg style=""width:8cm; height:8.52cm;""><p style='font-size: 30px; color: red;'><strong>Incorrect!</strong></p><p style='font-size: 30px;'><strong>This rock is gabbro</strong></p>","0","corr_feedback","1","train","18","","","","","","","",""
"","","","","","","","","","","","html-button-response","141","2.0.0","430493","60ff58f2c619f3476d7b50fa","2","14","3642","","","","","","","","","<img src= ""rock_img/I_Gabbro_09.jpg"" style=""width:8cm; height:7.279999999999999cm;""><p>What type of rock is this?</p>","4","class_response","1","train","19","Obsidian","Gabbro","09","false","5","4","",""
"","","","","","","","","","","","html-button-response","142","2.0.0","432345","60ff58f2c619f3476d7b50fa","2","14","1849","","","","","","","","","<img src= rock_img/I_Gabbro_09.jpg style=""width:8cm; height:7.279999999999999cm;""><p style='font-size: 30px; color: red;'><strong>Incorrect!</strong></p><p style='font-size: 30px;'><strong>This rock is gabbro</strong></p>","0","corr_feedback","1","train","19","","","","","","","",""
"","","","","","","","","","","","html-button-response","143","2.0.0","435528","60ff58f2c619f3476d7b50fa","2","14","3179","","","","","","","","","<img src= ""rock_img/I_Pumice_02.jpg"" style=""width:8cm; height:7.3999999999999995cm;""><p>What type of rock is this?</p>","7","class_response","1","train","20","Pumice","Pumice","02","true","8","8","",""
"","","","","","","","","","","","html-button-response","144","2.0.0","437863","60ff58f2c619f3476d7b50fa","2","14","2332","","","","","","","","","<img src= rock_img/I_Pumice_02.jpg style=""width:8cm; height:7.3999999999999995cm;""><p style='font-size: 30px; color: green;'><strong>Correct!</strong></p><p style='font-size: 30px;'><strong>This rock is pumice</strong></p>","0","corr_feedback","1","train","20","","","","","","","",""
"","","","","","","","","","","","html-button-response","145","2.0.0","441676","60ff58f2c619f3476d7b50fa","2","14","3810","","","","","","","","","<img src= ""rock_img/I_Peridotite_12.jpg"" style=""width:8cm; height:4.54cm;""><p>What type of rock is this?</p>","2","class_response","1","train","21","Diorite","Peridotite","12","false","3","7","",""
"","","","","","","","","","","","html-button-response","146","2.0.0","443518","60ff58f2c619f3476d7b50fa","2","14","1839","","","","","","","","","<img src= rock_img/I_Peridotite_12.jpg style=""width:8cm; height:4.54cm;""><p style='font-size: 30px; color: red;'><strong>Incorrect!</strong></p><p style='font-size: 30px;'><strong>This rock is peridotite</strong></p>","0","corr_feedback","1","train","21","","","","","","","",""
"","","","","","","","","","","","html-button-response","147","2.0.0","445646","60ff58f2c619f3476d7b50fa","2","14","2125","","","","","","","","","<img src= ""rock_img/I_Diorite_07.jpg"" style=""width:8cm; height:5.239999999999999cm;""><p>What type of rock is this?</p>","6","class_response","1","train","22","Peridotite","Diorite","07","false","7","3","",""
"","","","","","","","","","","","html-button-response","148","2.0.0","447508","60ff58f2c619f3476d7b50fa","2","14","1859","","","","","","","","","<img src= rock_img/I_Diorite_07.jpg style=""width:8cm; height:5.239999999999999cm;""><p style='font-size: 30px; color: red;'><strong>Incorrect!</strong></p><p style='font-size: 30px;'><strong>This rock is diorite</strong></p>","0","corr_feedback","1","train","22","","","","","","","",""
"","","","","","","","","","","","html-button-response","149","2.0.0","449657","60ff58f2c619f3476d7b50fa","2","14","2146","","","","","","","","","<img src= ""rock_img/I_Peridotite_06.jpg"" style=""width:8cm; height:7.53cm;""><p>What type of rock is this?</p>","3","class_response","1","train","23","Gabbro","Peridotite","06","false","4","7","",""
"","","","","","","","","","","","html-button-response","150","2.0.0","451517","60ff58f2c619f3476d7b50fa","2","14","1857","","","","","","","","","<img src= rock_img/I_Peridotite_06.jpg style=""width:8cm; height:7.53cm;""><p style='font-size: 30px; color: red;'><strong>Incorrect!</strong></p><p style='font-size: 30px;'><strong>This rock is peridotite</strong></p>","0","corr_feedback","1","train","23","","","","","","","",""
"","","","","","","","","","","","html-button-response","151","2.0.0","457086","60ff58f2c619f3476d7b50fa","2","14","5564","","","","","","","","","<img src= ""rock_img/I_Pumice_13.jpg"" style=""width:8cm; height:8.200000000000001cm;""><p>What type of rock is this?</p>","7","class_response","1","train","24","Pumice","Pumice","13","true","8","8","",""
"","","","","","","","","","","","html-button-response","152","2.0.0","458916","60ff58f2c619f3476d7b50fa","2","14","1828","","","","","","","","","<img src= rock_img/I_Pumice_13.jpg style=""width:8cm; height:8.200000000000001cm;""><p style='font-size: 30px; color: green;'><strong>Correct!</strong></p><p style='font-size: 30px;'><strong>This rock is pumice</strong></p>","0","corr_feedback","1","train","24","","","","","","","",""
"","","","","","","","","","","","html-button-response","153","2.0.0","461863","60ff58f2c619f3476d7b50fa","2","14","2943","","","","","","","","","<img src= ""rock_img/I_Andesite_06.jpg"" style=""width:8cm; height:6.840000000000001cm;""><p>What type of rock is this?</p>","5","class_response","1","train","25","Pegmatite","Andesite","06","false","6","1","",""
"","","","","","","","","","","","html-button-response","154","2.0.0","463419","60ff58f2c619f3476d7b50fa","2","14","1553","","","","","","","","","<img src= rock_img/I_Andesite_06.jpg style=""width:8cm; height:6.840000000000001cm;""><p style='font-size: 30px; color: red;'><strong>Incorrect!</strong></p><p style='font-size: 30px;'><strong>This rock is andesite</strong></p>","0","corr_feedback","1","train","25","","","","","","","",""
"","","","","","","","","","","","html-button-response","155","2.0.0","475154","60ff58f2c619f3476d7b50fa","2","14","11731","","","","","","","","","<img src= ""rock_img/I_Basalt_14.jpg"" style=""width:8cm; height:5.82cm;""><p>What type of rock is this?</p>","0","class_response","1","train","26","Andesite","Basalt","14","false","1","2","",""
"","","","","","","","","","","","html-button-response","156","2.0.0","476976","60ff58f2c619f3476d7b50fa","2","14","1818","","","","","","","","","<img src= rock_img/I_Basalt_14.jpg style=""width:8cm; height:5.82cm;""><p style='font-size: 30px; color: red;'><strong>Incorrect!</strong></p><p style='font-size: 30px;'><strong>This rock is basalt</strong></p>","0","corr_feedback","1","train","26","","","","","","","",""
"","","","","","","","","","","","html-button-response","157","2.0.0","479676","60ff58f2c619f3476d7b50fa","2","14","2696","","","","","","","","","<img src= ""rock_img/I_Gabbro_15.jpg"" style=""width:8cm; height:6.29cm;""><p>What type of rock is this?</p>","6","class_response","1","train","27","Peridotite","Gabbro","15","false","7","4","",""
"","","","","","","","","","","","html-button-response","158","2.0.0","481488","60ff58f2c619f3476d7b50fa","2","14","1809","","","","","","","","","<img src= rock_img/I_Gabbro_15.jpg style=""width:8cm; height:6.29cm;""><p style='font-size: 30px; color: red;'><strong>Incorrect!</strong></p><p style='font-size: 30px;'><strong>This rock is gabbro</strong></p>","0","corr_feedback","1","train","27","","","","","","","",""
"","","","","","","","","","","","html-button-response","159","2.0.0","485262","60ff58f2c619f3476d7b50fa","2","14","3771","","","","","","","","","<img src= ""rock_img/I_Diorite_02.jpg"" style=""width:8cm; height:6.27cm;""><p>What type of rock is this?</p>","1","class_response","1","train","28","Basalt","Diorite","02","false","2","3","",""
"","","","","","","","","","","","html-button-response","160","2.0.0","486926","60ff58f2c619f3476d7b50fa","2","14","1661","","","","","","","","","<img src= rock_img/I_Diorite_02.jpg style=""width:8cm; height:6.27cm;""><p style='font-size: 30px; color: red;'><strong>Incorrect!</strong></p><p style='font-size: 30px;'><strong>This rock is diorite</strong></p>","0","corr_feedback","1","train","28","","","","","","","",""
"","","","","","","","","","","","html-button-response","161","2.0.0","491104","60ff58f2c619f3476d7b50fa","2","14","4175","","","","","","","","","<img src= ""rock_img/I_Peridotite_04.jpg"" style=""width:8cm; height:6.680000000000001cm;""><p>What type of rock is this?</p>","6","class_response","1","train","29","Peridotite","Peridotite","04","true","7","7","",""
"","","","","","","","","","","","html-button-response","162","2.0.0","493478","60ff58f2c619f3476d7b50fa","2","14","2370","","","","","","","","","<img src= rock_img/I_Peridotite_04.jpg style=""width:8cm; height:6.680000000000001cm;""><p style='font-size: 30px; color: green;'><strong>Correct!</strong></p><p style='font-size: 30px;'><strong>This rock is peridotite</strong></p>","0","corr_feedback","1","train","29","","","","","","","",""
"","","","","","","","","","","","html-button-response","163","2.0.0","496306","60ff58f2c619f3476d7b50fa","2","14","2825","","","","","","","","","<img src= ""rock_img/I_Diorite_15.jpg"" style=""width:8cm; height:5.54cm;""><p>What type of rock is this?</p>","5","class_response","1","train","30","Pegmatite","Diorite","15","false","6","3","",""
"","","","","","","","","","","","html-button-response","164","2.0.0","497882","60ff58f2c619f3476d7b50fa","2","14","1572","","","","","","","","","<img src= rock_img/I_Diorite_15.jpg style=""width:8cm; height:5.54cm;""><p style='font-size: 30px; color: red;'><strong>Incorrect!</strong></p><p style='font-size: 30px;'><strong>This rock is diorite</strong></p>","0","corr_feedback","1","train","30","","","","","","","",""
"","","","","","","","","","","","html-button-response","165","2.0.0","502256","60ff58f2c619f3476d7b50fa","2","14","4371","","","","","","","","","<img src= ""rock_img/I_Pegmatite_06.jpg"" style=""width:8cm; height:5.17cm;""><p>What type of rock is this?</p>","2","class_response","1","train","31","Diorite","Pegmatite","06","false","3","6","",""
"","","","","","","","","","","","html-button-response","166","2.0.0","503930","60ff58f2c619f3476d7b50fa","2","14","1671","","","","","","","","","<img src= rock_img/I_Pegmatite_06.jpg style=""width:8cm; height:5.17cm;""><p style='font-size: 30px; color: red;'><strong>Incorrect!</strong></p><p style='font-size: 30px;'><strong>This rock is pegmatite</strong></p>","0","corr_feedback","1","train","31","","","","","","","",""
"","","","","","","","","","","","html-button-response","167","2.0.0","508581","60ff58f2c619f3476d7b50fa","2","14","4647","","","","","","","","","<img src= ""rock_img/I_Andesite_07.jpg"" style=""width:8cm; height:5.93cm;""><p>What type of rock is this?</p>","6","class_response","1","train","32","Peridotite","Andesite","07","false","7","1","",""
"","","","","","","","","","","","html-button-response","168","2.0.0","509939","60ff58f2c619f3476d7b50fa","2","14","1356","","","","","","","","","<img src= rock_img/I_Andesite_07.jpg style=""width:8cm; height:5.93cm;""><p style='font-size: 30px; color: red;'><strong>Incorrect!</strong></p><p style='font-size: 30px;'><strong>This rock is andesite</strong></p>","0","corr_feedback","1","train","32","","","","","","","",""
"","","","","","","","","","","","html-button-response","169","2.0.0","512511","60ff58f2c619f3476d7b50fa","2","14","2568","","","","","","","","","<img src= ""rock_img/I_Obsidian_06.jpg"" style=""width:8cm; height:6.8cm;""><p>What type of rock is this?</p>","4","class_response","1","train","33","Obsidian","Obsidian","06","true","5","5","",""
"","","","","","","","","","","","html-button-response","170","2.0.0","514510","60ff58f2c619f3476d7b50fa","2","14","1996","","","","","","","","","<img src= rock_img/I_Obsidian_06.jpg style=""width:8cm; height:6.8cm;""><p style='font-size: 30px; color: green;'><strong>Correct!</strong></p><p style='font-size: 30px;'><strong>This rock is obsidian</strong></p>","0","corr_feedback","1","train","33","","","","","","","",""
"","","","","","","","","","","","html-button-response","171","2.0.0","519969","60ff58f2c619f3476d7b50fa","2","14","5455","","","","","","","","","<img src= ""rock_img/I_Andesite_01.jpg"" style=""width:8cm; height:5.87cm;""><p>What type of rock is this?</p>","1","class_response","1","train","34","Basalt","Andesite","01","false","2","1","",""
"","","","","","","","","","","","html-button-response","172","2.0.0","521584","60ff58f2c619f3476d7b50fa","2","14","1612","","","","","","","","","<img src= rock_img/I_Andesite_01.jpg style=""width:8cm; height:5.87cm;""><p style='font-size: 30px; color: red;'><strong>Incorrect!</strong></p><p style='font-size: 30px;'><strong>This rock is andesite</strong></p>","0","corr_feedback","1","train","34","","","","","","","",""
"","","","","","","","","","","","html-button-response","173","2.0.0","524264","60ff58f2c619f3476d7b50fa","2","14","2677","","","","","","","","","<img src= ""rock_img/I_Peridotite_02.jpg"" style=""width:8cm; height:5.859999999999999cm;""><p>What type of rock is this?</p>","2","class_response","1","train","35","Diorite","Peridotite","02","false","3","7","",""
"","","","","","","","","","","","html-button-response","174","2.0.0","526362","60ff58f2c619f3476d7b50fa","2","14","2095","","","","","","","","","<img src= rock_img/I_Peridotite_02.jpg style=""width:8cm; height:5.859999999999999cm;""><p style='font-size: 30px; color: red;'><strong>Incorrect!</strong></p><p style='font-size: 30px;'><strong>This rock is peridotite</strong></p>","0","corr_feedback","1","train","35","","","","","","","",""
"","","","","","","","","","","","html-button-response","175","2.0.0","531722","60ff58f2c619f3476d7b50fa","2","14","5357","","","","","","","","","<img src= ""rock_img/I_Pegmatite_11.jpg"" style=""width:8cm; height:8.14cm;""><p>What type of rock is this?</p>","3","class_response","1","train","36","Gabbro","Pegmatite","11","false","4","6","",""
"","","","","","","","","","","","html-button-response","176","2.0.0","533464","60ff58f2c619f3476d7b50fa","2","14","1739","","","","","","","","","<img src= rock_img/I_Pegmatite_11.jpg style=""width:8cm; height:8.14cm;""><p style='font-size: 30px; color: red;'><strong>Incorrect!</strong></p><p style='font-size: 30px;'><strong>This rock is pegmatite</strong></p>","0","corr_feedback","1","train","36","","","","","","","",""
"","","","","","","","","","","","html-button-response","177","2.0.0","535968","60ff58f2c619f3476d7b50fa","2","14","2499","","","","","","","","","<img src= ""rock_img/I_Pumice_10.jpg"" style=""width:8cm; height:7.609999999999999cm;""><p>What type of rock is this?</p>","7","class_response","1","train","37","Pumice","Pumice","10","true","8","8","",""
"","","","","","","","","","","","html-button-response","178","2.0.0","537879","60ff58f2c619f3476d7b50fa","2","14","1907","","","","","","","","","<img src= rock_img/I_Pumice_10.jpg style=""width:8cm; height:7.609999999999999cm;""><p style='font-size: 30px; color: green;'><strong>Correct!</strong></p><p style='font-size: 30px;'><strong>This rock is pumice</strong></p>","0","corr_feedback","1","train","37","","","","","","","",""
"","","","","","","","","","","","html-button-response","179","2.0.0","542284","60ff58f2c619f3476d7b50fa","2","14","4402","","","","","","","","","<img src= ""rock_img/I_Pegmatite_12.jpg"" style=""width:8cm; height:5.7cm;""><p>What type of rock is this?</p>","2","class_response","1","train","38","Diorite","Pegmatite","12","false","3","6","",""
"","","","","","","","","","","","html-button-response","180","2.0.0","543849","60ff58f2c619f3476d7b50fa","2","14","1562","","","","","","","","","<img src= rock_img/I_Pegmatite_12.jpg style=""width:8cm; height:5.7cm;""><p style='font-size: 30px; color: red;'><strong>Incorrect!</strong></p><p style='font-size: 30px;'><strong>This rock is pegmatite</strong></p>","0","corr_feedback","1","train","38","","","","","","","",""
"","","","","","","","","","","","html-button-response","181","2.0.0","550678","60ff58f2c619f3476d7b50fa","2","14","6825","","","","","","","","","<img src= ""rock_img/I_Andesite_01.jpg"" style=""width:8cm; height:5.87cm;""><p>What type of rock is this?</p>","1","class_response","1","train","39","Basalt","Andesite","01","false","2","1","",""
"","","","","","","","","","","","html-button-response","182","2.0.0","553693","60ff58f2c619f3476d7b50fa","2","14","3013","","","","","","","","","<img src= rock_img/I_Andesite_01.jpg style=""width:8cm; height:5.87cm;""><p style='font-size: 30px; color: red;'><strong>Incorrect!</strong></p><p style='font-size: 30px;'><strong>This rock is andesite</strong></p>","0","corr_feedback","1","train","39","","","","","","","",""
"","","","","","","","","","","","html-button-response","183","2.0.0","557023","60ff58f2c619f3476d7b50fa","2","14","3326","","","","","","","","","<img src= ""rock_img/I_Diorite_09.jpg"" style=""width:8cm; height:5.27cm;""><p>What type of rock is this?</p>","2","class_response","1","train","40","Diorite","Diorite","09","true","3","3","",""
"","","","","","","","","","","","html-button-response","184","2.0.0","559160","60ff58f2c619f3476d7b50fa","2","14","2134","","","","","","","","","<img src= rock_img/I_Diorite_09.jpg style=""width:8cm; height:5.27cm;""><p style='font-size: 30px; color: green;'><strong>Correct!</strong></p><p style='font-size: 30px;'><strong>This rock is diorite</strong></p>","0","corr_feedback","1","train","40","","","","","","","",""
"","","","","","","","","","","","html-button-response","185","2.0.0","565535","60ff58f2c619f3476d7b50fa","2","14","6372","","","","","","","","","<img src= ""rock_img/I_Diorite_08.jpg"" style=""width:8cm; height:6.37cm;""><p>What type of rock is this?</p>","2","class_response","1","train","41","Diorite","Diorite","08","true","3","3","",""
"","","","","","","","","","","","html-button-response","186","2.0.0","567396","60ff58f2c619f3476d7b50fa","2","14","1858","","","","","","","","","<img src= rock_img/I_Diorite_08.jpg style=""width:8cm; height:6.37cm;""><p style='font-size: 30px; color: green;'><strong>Correct!</strong></p><p style='font-size: 30px;'><strong>This rock is diorite</strong></p>","0","corr_feedback","1","train","41","","","","","","","",""
"","","","","","","","","","","","html-button-response","187","2.0.0","579377","60ff58f2c619f3476d7b50fa","2","14","11977","","","","","","","","","<img src= ""rock_img/I_Peridotite_12.jpg"" style=""width:8cm; height:4.54cm;""><p>What type of rock is this?</p>","6","class_response","1","train","42","Peridotite","Peridotite","12","true","7","7","",""
"","","","","","","","","","","","html-button-response","188","2.0.0","582105","60ff58f2c619f3476d7b50fa","2","14","2725","","","","","","","","","<img src= rock_img/I_Peridotite_12.jpg style=""width:8cm; height:4.54cm;""><p style='font-size: 30px; color: green;'><strong>Correct!</strong></p><p style='font-size: 30px;'><strong>This rock is peridotite</strong></p>","0","corr_feedback","1","train","42","","","","","","","",""
"","","","","","","","","","","","html-button-response","189","2.0.0","591100","60ff58f2c619f3476d7b50fa","2","14","8992","","","","","","","","","<img src= ""rock_img/I_Pegmatite_12.jpg"" style=""width:8cm; height:5.7cm;""><p>What type of rock is this?</p>","0","class_response","1","train","43","Andesite","Pegmatite","12","false","1","6","",""
"","","","","","","","","","","","html-button-response","190","2.0.0","592852","60ff58f2c619f3476d7b50fa","2","14","1749","","","","","","","","","<img src= rock_img/I_Pegmatite_12.jpg style=""width:8cm; height:5.7cm;""><p style='font-size: 30px; color: red;'><strong>Incorrect!</strong></p><p style='font-size: 30px;'><strong>This rock is pegmatite</strong></p>","0","corr_feedback","1","train","43","","","","","","","",""
"","","","","","","","","","","","html-button-response","191","2.0.0","597169","60ff58f2c619f3476d7b50fa","2","14","4312","","","","","","","","","<img src= ""rock_img/I_Pumice_08.jpg"" style=""width:8cm; height:6.67cm;""><p>What type of rock is this?</p>","7","class_response","1","train","44","Pumice","Pumice","08","true","8","8","",""
"","","","","","","","","","","","html-button-response","192","2.0.0","599187","60ff58f2c619f3476d7b50fa","2","14","2015","","","","","","","","","<img src= rock_img/I_Pumice_08.jpg style=""width:8cm; height:6.67cm;""><p style='font-size: 30px; color: green;'><strong>Correct!</strong></p><p style='font-size: 30px;'><strong>This rock is pumice</strong></p>","0","corr_feedback","1","train","44","","","","","","","",""
"","","","","","","","","","","","html-button-response","193","2.0.0","602115","60ff58f2c619f3476d7b50fa","2","14","2924","","","","","","","","","<img src= ""rock_img/I_Basalt_12.jpg"" style=""width:8cm; height:6.010000000000001cm;""><p>What type of rock is this?</p>","1","class_response","1","train","45","Basalt","Basalt","12","true","2","2","",""
"","","","","","","","","","","","html-button-response","194","2.0.0","604044","60ff58f2c619f3476d7b50fa","2","14","1926","","","","","","","","","<img src= rock_img/I_Basalt_12.jpg style=""width:8cm; height:6.010000000000001cm;""><p style='font-size: 30px; color: green;'><strong>Correct!</strong></p><p style='font-size: 30px;'><strong>This rock is basalt</strong></p>","0","corr_feedback","1","train","45","","","","","","","",""
"","","","","","","","","","","","html-button-response","195","2.0.0","609444","60ff58f2c619f3476d7b50fa","2","14","5397","","","","","","","","","<img src= ""rock_img/I_Andesite_09.jpg"" style=""width:8cm; height:6cm;""><p>What type of rock is this?</p>","1","class_response","1","train","46","Basalt","Andesite","09","false","2","1","",""
"","","","","","","","","","","","html-button-response","196","2.0.0","611245","60ff58f2c619f3476d7b50fa","2","14","1799","","","","","","","","","<img src= rock_img/I_Andesite_09.jpg style=""width:8cm; height:6cm;""><p style='font-size: 30px; color: red;'><strong>Incorrect!</strong></p><p style='font-size: 30px;'><strong>This rock is andesite</strong></p>","0","corr_feedback","1","train","46","","","","","","","",""
"","","","","","","","","","","","html-button-response","197","2.0.0","613887","60ff58f2c619f3476d7b50fa","2","14","2637","","","","","","","","","<img src= ""rock_img/I_Peridotite_08.jpg"" style=""width:8cm; height:6.7cm;""><p>What type of rock is this?</p>","3","class_response","1","train","47","Gabbro","Peridotite","08","false","4","7","",""
"","","","","","","","","","","","html-button-response","198","2.0.0","615778","60ff58f2c619f3476d7b50fa","2","14","1888","","","","","","","","","<img src= rock_img/I_Peridotite_08.jpg style=""width:8cm; height:6.7cm;""><p style='font-size: 30px; color: red;'><strong>Incorrect!</strong></p><p style='font-size: 30px;'><strong>This rock is peridotite</strong></p>","0","corr_feedback","1","train","47","","","","","","","",""
"","","","","","","","","","","","html-button-response","199","2.0.0","619295","60ff58f2c619f3476d7b50fa","2","14","3513","","","","","","","","","<img src= ""rock_img/I_Pegmatite_10.jpg"" style=""width:8cm; height:4.16cm;""><p>What type of rock is this?</p>","3","class_response","1","train","48","Gabbro","Pegmatite","10","false","4","6","",""
"","","","","","","","","","","","html-button-response","200","2.0.0","621088","60ff58f2c619f3476d7b50fa","2","14","1790","","","","","","","","","<img src= rock_img/I_Pegmatite_10.jpg style=""width:8cm; height:4.16cm;""><p style='font-size: 30px; color: red;'><strong>Incorrect!</strong></p><p style='font-size: 30px;'><strong>This rock is pegmatite</strong></p>","0","corr_feedback","1","train","48","","","","","","","",""
"","","","","","","","","","","","instructions","203","2.0.0","643952","60ff58f2c619f3476d7b50fa","2","14","22861","","","","","","","","[{""page_index"":0,""viewing_time"":9749},{""page_index"":1,""viewing_time"":13112}]","","","","","","","","","","","","","",""
"","","","","","","","","","","","html-button-response","204","2.0.0","646867","60ff58f2c619f3476d7b50fa","2","14","2911","","","","","","","","","","0","start_test","","","","","","","","","","",""
"","","","","","","","","","","","html-button-response","205","2.0.0","654287","60ff58f2c619f3476d7b50fa","2","14","7416","","","","","","","","","<img src= ""rock_img/I_Pumice_15.jpg"" style=""width:8cm; height:7.86cm;""><p>What type of rock is this?</p>","7","class_response","1","test","1","Pumice","Pumice","15","true","8","8","",""
"","","","","","","","","","","","html-keyboard-response","206","2.0.0","654789","60ff58f2c619f3476d7b50fa","2","14","null","","","","","","","","","<p style='font-size: 30px;'><strong>Okay</strong></p>","null","neutral_feedback","1","test","1","","","","","","","",""
"","","","","","","","","","","","html-button-response","207","2.0.0","659969","60ff58f2c619f3476d7b50fa","2","14","5176","","","","","","","","","<img src= ""rock_img/I_Gabbro_12.jpg"" style=""width:8cm; height:7.800000000000001cm;""><p>What type of rock is this?</p>","1","class_response","1","test","2","Basalt","Gabbro","12","false","2","4","",""
"","","","","","","","","","","","html-keyboard-response","208","2.0.0","660471","60ff58f2c619f3476d7b50fa","2","14","null","","","","","","","","","<p style='font-size: 30px;'><strong>Okay</strong></p>","null","neutral_feedback","1","test","2","","","","","","","",""
"","","","","","","","","","","","html-button-response","209","2.0.0","666481","60ff58f2c619f3476d7b50fa","2","14","6006","","","","","","","","","<img src= ""rock_img/I_Andesite_16.jpg"" style=""width:8cm; height:6.010000000000001cm;""><p>What type of rock is this?</p>","3","class_response","1","test","3","Gabbro","Andesite","16","false","4","1","",""
"","","","","","","","","","","","html-keyboard-response","210","2.0.0","666983","60ff58f2c619f3476d7b50fa","2","14","null","","","","","","","","","<p style='font-size: 30px;'><strong>Okay</strong></p>","null","neutral_feedback","1","test","3","","","","","","","",""
"","","","","","","","","","","","html-button-response","211","2.0.0","669110","60ff58f2c619f3476d7b50fa","2","14","2123","","","","","","","","","<img src= ""rock_img/I_Obsidian_12.jpg"" style=""width:8cm; height:6.53cm;""><p>What type of rock is this?</p>","4","class_response","1","test","4","Obsidian","Obsidian","12","true","5","5","",""
"","","","","","","","","","","","html-keyboard-response","212","2.0.0","669613","60ff58f2c619f3476d7b50fa","2","14","null","","","","","","","","","<p style='font-size: 30px;'><strong>Okay</strong></p>","null","neutral_feedback","1","test","4","","","","","","","",""
"","","","","","","","","","","","html-button-response","213","2.0.0","676863","60ff58f2c619f3476d7b50fa","2","14","7246","","","","","","","","","<img src= ""rock_img/I_Andesite_11.jpg"" style=""width:8cm; height:4.92cm;""><p>What type of rock is this?</p>","0","class_response","1","test","5","Andesite","Andesite","11","true","1","1","",""
"","","","","","","","","","","","html-keyboard-response","214","2.0.0","677365","60ff58f2c619f3476d7b50fa","2","14","null","","","","","","","","","<p style='font-size: 30px;'><strong>Okay</strong></p>","null","neutral_feedback","1","test","5","","","","","","","",""
"","","","","","","","","","","","html-button-response","215","2.0.0","680752","60ff58f2c619f3476d7b50fa","2","14","3383","","","","","","","","","<img src= ""rock_img/I_Andesite_14.jpg"" style=""width:8cm; height:5.449999999999999cm;""><p>What type of rock is this?</p>","6","class_response","1","test","6","Peridotite","Andesite","14","false","7","1","",""
"","","","","","","","","","","","html-keyboard-response","216","2.0.0","681255","60ff58f2c619f3476d7b50fa","2","14","null","","","","","","","","","<p style='font-size: 30px;'><strong>Okay</strong></p>","null","neutral_feedback","1","test","6","","","","","","","",""
"","","","","","","","","","","","html-button-response","217","2.0.0","683393","60ff58f2c619f3476d7b50fa","2","14","2134","","","","","","","","","<img src= ""rock_img/I_Pegmatite_13.jpg"" style=""width:8cm; height:4.95cm;""><p>What type of rock is this?</p>","5","class_response","1","test","7","Pegmatite","Pegmatite","13","true","6","6","",""
"","","","","","","","","","","","html-keyboard-response","218","2.0.0","683895","60ff58f2c619f3476d7b50fa","2","14","null","","","","","","","","","<p style='font-size: 30px;'><strong>Okay</strong></p>","null","neutral_feedback","1","test","7","","","","","","","",""
"","","","","","","","","","","","html-button-response","219","2.0.0","686151","60ff58f2c619f3476d7b50fa","2","14","2252","","","","","","","","","<img src= ""rock_img/I_Pumice_06.jpg"" style=""width:8cm; height:6.9399999999999995cm;""><p>What type of rock is this?</p>","7","class_response","1","test","8","Pumice","Pumice","06","true","8","8","",""
"","","","","","","","","","","","html-keyboard-response","220","2.0.0","686654","60ff58f2c619f3476d7b50fa","2","14","null","","","","","","","","","<p style='font-size: 30px;'><strong>Okay</strong></p>","null","neutral_feedback","1","test","8","","","","","","","",""
"","","","","","","","","","","","html-button-response","221","2.0.0","688811","60ff58f2c619f3476d7b50fa","2","14","2154","","","","","","","","","<img src= ""rock_img/I_Peridotite_15.jpg"" style=""width:8cm; height:6cm;""><p>What type of rock is this?</p>","3","class_response","1","test","9","Gabbro","Peridotite","15","false","4","7","",""
"","","","","","","","","","","","html-keyboard-response","222","2.0.0","689313","60ff58f2c619f3476d7b50fa","2","14","null","","","","","","","","","<p style='font-size: 30px;'><strong>Okay</strong></p>","null","neutral_feedback","1","test","9","","","","","","","",""
"","","","","","","","","","","","html-button-response","223","2.0.0","695568","60ff58f2c619f3476d7b50fa","2","14","6251","","","","","","","","","<img src= ""rock_img/I_Diorite_10.jpg"" style=""width:8cm; height:5.949999999999999cm;""><p>What type of rock is this?</p>","1","class_response","1","test","10","Basalt","Diorite","10","false","2","3","",""
"","","","","","","","","","","","html-keyboard-response","224","2.0.0","696070","60ff58f2c619f3476d7b50fa","2","14","null","","","","","","","","","<p style='font-size: 30px;'><strong>Okay</strong></p>","null","neutral_feedback","1","test","10","","","","","","","",""
"","","","","","","","","","","","html-button-response","225","2.0.0","699479","60ff58f2c619f3476d7b50fa","2","14","3405","","","","","","","","","<img src= ""rock_img/I_Diorite_12.jpg"" style=""width:8cm; height:4.88cm;""><p>What type of rock is this?</p>","6","class_response","1","test","11","Peridotite","Diorite","12","false","7","3","",""
"","","","","","","","","","","","html-keyboard-response","226","2.0.0","699981","60ff58f2c619f3476d7b50fa","2","14","null","","","","","","","","","<p style='font-size: 30px;'><strong>Okay</strong></p>","null","neutral_feedback","1","test","11","","","","","","","",""
"","","","","","","","","","","","html-button-response","227","2.0.0","702236","60ff58f2c619f3476d7b50fa","2","14","2251","","","","","","","","","<img src= ""rock_img/I_Pumice_05.jpg"" style=""width:8cm; height:7.25cm;""><p>What type of rock is this?</p>","7","class_response","1","test","12","Pumice","Pumice","05","true","8","8","",""
"","","","","","","","","","","","html-keyboard-response","228","2.0.0","702738","60ff58f2c619f3476d7b50fa","2","14","null","","","","","","","","","<p style='font-size: 30px;'><strong>Okay</strong></p>","null","neutral_feedback","1","test","12","","","","","","","",""
"","","","","","","","","","","","html-button-response","229","2.0.0","706550","60ff58f2c619f3476d7b50fa","2","14","3808","","","","","","","","","<img src= ""rock_img/I_Basalt_10.jpg"" style=""width:8cm; height:5.85cm;""><p>What type of rock is this?</p>","6","class_response","1","test","13","Peridotite","Basalt","10","false","7","2","",""
"","","","","","","","","","","","html-keyboard-response","230","2.0.0","707053","60ff58f2c619f3476d7b50fa","2","14","null","","","","","","","","","<p style='font-size: 30px;'><strong>Okay</strong></p>","null","neutral_feedback","1","test","13","","","","","","","",""
"","","","","","","","","","","","html-button-response","231","2.0.0","711160","60ff58f2c619f3476d7b50fa","2","14","4104","","","","","","","","","<img src= ""rock_img/I_Diorite_11.jpg"" style=""width:8cm; height:7.11cm;""><p>What type of rock is this?</p>","6","class_response","1","test","14","Peridotite","Diorite","11","false","7","3","",""
"","","","","","","","","","","","html-keyboard-response","232","2.0.0","711662","60ff58f2c619f3476d7b50fa","2","14","null","","","","","","","","","<p style='font-size: 30px;'><strong>Okay</strong></p>","null","neutral_feedback","1","test","14","","","","","","","",""
"","","","","","","","","","","","html-button-response","233","2.0.0","713750","60ff58f2c619f3476d7b50fa","2","14","2084","","","","","","","","","<img src= ""rock_img/I_Pumice_16.jpg"" style=""width:8cm; height:6.79cm;""><p>What type of rock is this?</p>","7","class_response","1","test","15","Pumice","Pumice","16","true","8","8","",""
"","","","","","","","","","","","html-keyboard-response","234","2.0.0","714253","60ff58f2c619f3476d7b50fa","2","14","null","","","","","","","","","<p style='font-size: 30px;'><strong>Okay</strong></p>","null","neutral_feedback","1","test","15","","","","","","","",""
"","","","","","","","","","","","html-button-response","235","2.0.0","716440","60ff58f2c619f3476d7b50fa","2","14","2183","","","","","","","","","<img src= ""rock_img/I_Pumice_09.jpg"" style=""width:8cm; height:6.44cm;""><p>What type of rock is this?</p>","7","class_response","1","test","16","Pumice","Pumice","09","true","8","8","",""
"","","","","","","","","","","","html-keyboard-response","236","2.0.0","716942","60ff58f2c619f3476d7b50fa","2","14","null","","","","","","","","","<p style='font-size: 30px;'><strong>Okay</strong></p>","null","neutral_feedback","1","test","16","","","","","","","",""
"","","","","","","","","","","","html-button-response","237","2.0.0","720657","60ff58f2c619f3476d7b50fa","2","14","3712","","","","","","","","","<img src= ""rock_img/I_Peridotite_14.jpg"" style=""width:8cm; height:5.3cm;""><p>What type of rock is this?</p>","0","class_response","1","test","17","Andesite","Peridotite","14","false","1","7","",""
"","","","","","","","","","","","html-keyboard-response","238","2.0.0","721159","60ff58f2c619f3476d7b50fa","2","14","null","","","","","","","","","<p style='font-size: 30px;'><strong>Okay</strong></p>","null","neutral_feedback","1","test","17","","","","","","","",""
"","","","","","","","","","","","html-button-response","239","2.0.0","722795","60ff58f2c619f3476d7b50fa","2","14","1632","","","","","","","","","<img src= ""rock_img/I_Obsidian_02.jpg"" style=""width:8cm; height:7.51cm;""><p>What type of rock is this?</p>","4","class_response","1","test","18","Obsidian","Obsidian","02","true","5","5","",""
"","","","","","","","","","","","html-keyboard-response","240","2.0.0","723298","60ff58f2c619f3476d7b50fa","2","14","null","","","","","","","","","<p style='font-size: 30px;'><strong>Okay</strong></p>","null","neutral_feedback","1","test","18","","","","","","","",""
"","","","","","","","","","","","html-button-response","241","2.0.0","725484","60ff58f2c619f3476d7b50fa","2","14","2183","","","","","","","","","<img src= ""rock_img/I_Peridotite_13.jpg"" style=""width:8cm; height:7.58cm;""><p>What type of rock is this?</p>","3","class_response","1","test","19","Gabbro","Peridotite","13","false","4","7","",""
"","","","","","","","","","","","html-keyboard-response","242","2.0.0","725987","60ff58f2c619f3476d7b50fa","2","14","null","","","","","","","","","<p style='font-size: 30px;'><strong>Okay</strong></p>","null","neutral_feedback","1","test","19","","","","","","","",""
"","","","","","","","","","","","html-button-response","243","2.0.0","728085","60ff58f2c619f3476d7b50fa","2","14","2095","","","","","","","","","<img src= ""rock_img/I_Obsidian_09.jpg"" style=""width:8cm; height:5cm;""><p>What type of rock is this?</p>","4","class_response","1","test","20","Obsidian","Obsidian","09","true","5","5","",""
"","","","","","","","","","","","html-keyboard-response","244","2.0.0","728588","60ff58f2c619f3476d7b50fa","2","14","null","","","","","","","","","<p style='font-size: 30px;'><strong>Okay</strong></p>","null","neutral_feedback","1","test","20","","","","","","","",""
"","","","","","","","","","","","html-button-response","245","2.0.0","730754","60ff58f2c619f3476d7b50fa","2","14","2163","","","","","","","","","<img src= ""rock_img/I_Gabbro_16.jpg"" style=""width:8cm; height:6.44cm;""><p>What type of rock is this?</p>","1","class_response","1","test","21","Basalt","Gabbro","16","false","2","4","",""
"","","","","","","","","","","","html-keyboard-response","246","2.0.0","731257","60ff58f2c619f3476d7b50fa","2","14","null","","","","","","","","","<p style='font-size: 30px;'><strong>Okay</strong></p>","null","neutral_feedback","1","test","21","","","","","","","",""
"","","","","","","","","","","","html-button-response","247","2.0.0","734351","60ff58f2c619f3476d7b50fa","2","14","3090","","","","","","","","","<img src= ""rock_img/I_Pegmatite_09.jpg"" style=""width:8cm; height:4.03cm;""><p>What type of rock is this?</p>","6","class_response","1","test","22","Peridotite","Pegmatite","09","false","7","6","",""
"","","","","","","","","","","","html-keyboard-response","248","2.0.0","734853","60ff58f2c619f3476d7b50fa","2","14","null","","","","","","","","","<p style='font-size: 30px;'><strong>Okay</strong></p>","null","neutral_feedback","1","test","22","","","","","","","",""
"","","","","","","","","","","","html-button-response","249","2.0.0","737966","60ff58f2c619f3476d7b50fa","2","14","3110","","","","","","","","","<img src= ""rock_img/I_Peridotite_05.jpg"" style=""width:8cm; height:7.1499999999999995cm;""><p>What type of rock is this?</p>","2","class_response","1","test","23","Diorite","Peridotite","05","false","3","7","",""
"","","","","","","","","","","","html-keyboard-response","250","2.0.0","738468","60ff58f2c619f3476d7b50fa","2","14","null","","","","","","","","","<p style='font-size: 30px;'><strong>Okay</strong></p>","null","neutral_feedback","1","test","23","","","","","","","",""
"","","","","","","","","","","","html-button-response","251","2.0.0","741128","60ff58f2c619f3476d7b50fa","2","14","2656","","","","","","","","","<img src= ""rock_img/I_Basalt_09.jpg"" style=""width:8cm; height:6.2cm;""><p>What type of rock is this?</p>","1","class_response","1","test","24","Basalt","Basalt","09","true","2","2","",""
"","","","","","","","","","","","html-keyboard-response","252","2.0.0","741631","60ff58f2c619f3476d7b50fa","2","14","null","","","","","","","","","<p style='font-size: 30px;'><strong>Okay</strong></p>","null","neutral_feedback","1","test","24","","","","","","","",""
"","","","","","","","","","","","html-button-response","253","2.0.0","745502","60ff58f2c619f3476d7b50fa","2","14","3868","","","","","","","","","<img src= ""rock_img/I_Gabbro_14.jpg"" style=""width:8cm; height:8.48cm;""><p>What type of rock is this?</p>","6","class_response","1","test","25","Peridotite","Gabbro","14","false","7","4","",""
"","","","","","","","","","","","html-keyboard-response","254","2.0.0","746005","60ff58f2c619f3476d7b50fa","2","14","null","","","","","","","","","<p style='font-size: 30px;'><strong>Okay</strong></p>","null","neutral_feedback","1","test","25","","","","","","","",""
"","","","","","","","","","","","html-button-response","255","2.0.0","749866","60ff58f2c619f3476d7b50fa","2","14","3858","","","","","","","","","<img src= ""rock_img/I_Andesite_03.jpg"" style=""width:8cm; height:5.73cm;""><p>What type of rock is this?</p>","2","class_response","1","test","26","Diorite","Andesite","03","false","3","1","",""
"","","","","","","","","","","","html-keyboard-response","256","2.0.0","750368","60ff58f2c619f3476d7b50fa","2","14","null","","","","","","","","","<p style='font-size: 30px;'><strong>Okay</strong></p>","null","neutral_feedback","1","test","26","","","","","","","",""
"","","","","","","","","","","","html-button-response","257","2.0.0","752575","60ff58f2c619f3476d7b50fa","2","14","2203","","","","","","","","","<img src= ""rock_img/I_Pegmatite_08.jpg"" style=""width:8cm; height:7.68cm;""><p>What type of rock is this?</p>","5","class_response","1","test","27","Pegmatite","Pegmatite","08","true","6","6","",""
"","","","","","","","","","","","html-keyboard-response","258","2.0.0","753078","60ff58f2c619f3476d7b50fa","2","14","null","","","","","","","","","<p style='font-size: 30px;'><strong>Okay</strong></p>","null","neutral_feedback","1","test","27","","","","","","","",""
"","","","","","","","","","","","html-button-response","259","2.0.0","756398","60ff58f2c619f3476d7b50fa","2","14","3317","","","","","","","","","<img src= ""rock_img/I_Diorite_06.jpg"" style=""width:8cm; height:6.03cm;""><p>What type of rock is this?</p>","2","class_response","1","test","28","Diorite","Diorite","06","true","3","3","",""
"","","","","","","","","","","","html-keyboard-response","260","2.0.0","756900","60ff58f2c619f3476d7b50fa","2","14","null","","","","","","","","","<p style='font-size: 30px;'><strong>Okay</strong></p>","null","neutral_feedback","1","test","28","","","","","","","",""
"","","","","","","","","","","","html-button-response","261","2.0.0","764169","60ff58f2c619f3476d7b50fa","2","14","7265","","","","","","","","","<img src= ""rock_img/I_Gabbro_05.jpg"" style=""width:8cm; height:6cm;""><p>What type of rock is this?</p>","0","class_response","1","test","29","Andesite","Gabbro","05","false","1","4","",""
"","","","","","","","","","","","html-keyboard-response","262","2.0.0","764671","60ff58f2c619f3476d7b50fa","2","14","null","","","","","","","","","<p style='font-size: 30px;'><strong>Okay</strong></p>","null","neutral_feedback","1","test","29","","","","","","","",""
"","","","","","","","","","","","html-button-response","263","2.0.0","770770","60ff58f2c619f3476d7b50fa","2","14","6095","","","","","","","","","<img src= ""rock_img/I_Basalt_16.jpg"" style=""width:8cm; height:7.659999999999999cm;""><p>What type of rock is this?</p>","1","class_response","1","test","30","Basalt","Basalt","16","true","2","2","",""
"","","","","","","","","","","","html-keyboard-response","264","2.0.0","771272","60ff58f2c619f3476d7b50fa","2","14","null","","","","","","","","","<p style='font-size: 30px;'><strong>Okay</strong></p>","null","neutral_feedback","1","test","30","","","","","","","",""
"","","","","","","","","","","","html-button-response","265","2.0.0","773360","60ff58f2c619f3476d7b50fa","2","14","2084","","","","","","","","","<img src= ""rock_img/I_Diorite_14.jpg"" style=""width:8cm; height:5.71cm;""><p>What type of rock is this?</p>","2","class_response","1","test","31","Diorite","Diorite","14","true","3","3","",""
"","","","","","","","","","","","html-keyboard-response","266","2.0.0","773862","60ff58f2c619f3476d7b50fa","2","14","null","","","","","","","","","<p style='font-size: 30px;'><strong>Okay</strong></p>","null","neutral_feedback","1","test","31","","","","","","","",""
"","","","","","","","","","","","html-button-response","267","2.0.0","775872","60ff58f2c619f3476d7b50fa","2","14","2006","","","","","","","","","<img src= ""rock_img/I_Basalt_06.jpg"" style=""width:8cm; height:7.06cm;""><p>What type of rock is this?</p>","1","class_response","1","test","32","Basalt","Basalt","06","true","2","2","",""
"","","","","","","","","","","","html-keyboard-response","268","2.0.0","776374","60ff58f2c619f3476d7b50fa","2","14","null","","","","","","","","","<p style='font-size: 30px;'><strong>Okay</strong></p>","null","neutral_feedback","1","test","32","","","","","","","",""
"","","","","","","","","","","","html-button-response","269","2.0.0","781015","60ff58f2c619f3476d7b50fa","2","14","4637","","","","","","","","","<img src= ""rock_img/I_Peridotite_16.jpg"" style=""width:8cm; height:6.989999999999999cm;""><p>What type of rock is this?</p>","6","class_response","1","test","33","Peridotite","Peridotite","16","true","7","7","",""
"","","","","","","","","","","","html-keyboard-response","270","2.0.0","781517","60ff58f2c619f3476d7b50fa","2","14","null","","","","","","","","","<p style='font-size: 30px;'><strong>Okay</strong></p>","null","neutral_feedback","1","test","33","","","","","","","",""
"","","","","","","","","","","","html-button-response","271","2.0.0","783565","60ff58f2c619f3476d7b50fa","2","14","2045","","","","","","","","","<img src= ""rock_img/I_Obsidian_10.jpg"" style=""width:8cm; height:6.260000000000001cm;""><p>What type of rock is this?</p>","4","class_response","1","test","34","Obsidian","Obsidian","10","true","5","5","",""
"","","","","","","","","","","","html-keyboard-response","272","2.0.0","784067","60ff58f2c619f3476d7b50fa","2","14","null","","","","","","","","","<p style='font-size: 30px;'><strong>Okay</strong></p>","null","neutral_feedback","1","test","34","","","","","","","",""
"","","","","","","","","","","","html-button-response","273","2.0.0","785634","60ff58f2c619f3476d7b50fa","2","14","1563","","","","","","","","","<img src= ""rock_img/I_Basalt_08.jpg"" style=""width:8cm; height:10.44cm;""><p>What type of rock is this?</p>","1","class_response","1","test","35","Basalt","Basalt","08","true","2","2","",""
"","","","","","","","","","","","html-keyboard-response","274","2.0.0","786136","60ff58f2c619f3476d7b50fa","2","14","null","","","","","","","","","<p style='font-size: 30px;'><strong>Okay</strong></p>","null","neutral_feedback","1","test","35","","","","","","","",""
"","","","","","","","","","","","html-button-response","275","2.0.0","788372","60ff58f2c619f3476d7b50fa","2","14","2232","","","","","","","","","<img src= ""rock_img/I_Pumice_04.jpg"" style=""width:8cm; height:6.819999999999999cm;""><p>What type of rock is this?</p>","7","class_response","1","test","36","Pumice","Pumice","04","true","8","8","",""
"","","","","","","","","","","","html-keyboard-response","276","2.0.0","788874","60ff58f2c619f3476d7b50fa","2","14","null","","","","","","","","","<p style='font-size: 30px;'><strong>Okay</strong></p>","null","neutral_feedback","1","test","36","","","","","","","",""
"","","","","","","","","","","","html-button-response","277","2.0.0","791643","60ff58f2c619f3476d7b50fa","2","14","2765","","","","","","","","","<img src= ""rock_img/I_Pegmatite_05.jpg"" style=""width:8cm; height:7.300000000000001cm;""><p>What type of rock is this?</p>","6","class_response","1","test","37","Peridotite","Pegmatite","05","false","7","6","",""
"","","","","","","","","","","","html-keyboard-response","278","2.0.0","792145","60ff58f2c619f3476d7b50fa","2","14","null","","","","","","","","","<p style='font-size: 30px;'><strong>Okay</strong></p>","null","neutral_feedback","1","test","37","","","","","","","",""
"","","","","","","","","","","","html-button-response","279","2.0.0","795798","60ff58f2c619f3476d7b50fa","2","14","3649","","","","","","","","","<img src= ""rock_img/I_Pegmatite_16.jpg"" style=""width:8cm; height:5.8cm;""><p>What type of rock is this?</p>","5","class_response","1","test","38","Pegmatite","Pegmatite","16","true","6","6","",""
"","","","","","","","","","","","html-keyboard-response","280","2.0.0","796301","60ff58f2c619f3476d7b50fa","2","14","null","","","","","","","","","<p style='font-size: 30px;'><strong>Okay</strong></p>","null","neutral_feedback","1","test","38","","","","","","","",""
"","","","","","","","","","","","html-button-response","281","2.0.0","799994","60ff58f2c619f3476d7b50fa","2","14","3689","","","","","","","","","<img src= ""rock_img/I_Obsidian_05.jpg"" style=""width:8cm; height:6.33cm;""><p>What type of rock is this?</p>","4","class_response","1","test","39","Obsidian","Obsidian","05","true","5","5","",""
"","","","","","","","","","","","html-keyboard-response","282","2.0.0","800496","60ff58f2c619f3476d7b50fa","2","14","null","","","","","","","","","<p style='font-size: 30px;'><strong>Okay</strong></p>","null","neutral_feedback","1","test","39","","","","","","","",""
"","","","","","","","","","","","html-button-response","283","2.0.0","805697","60ff58f2c619f3476d7b50fa","2","14","5197","","","","","","","","","<img src= ""rock_img/I_Gabbro_10.jpg"" style=""width:8cm; height:5.680000000000001cm;""><p>What type of rock is this?</p>","7","class_response","1","test","40","Pumice","Gabbro","10","false","8","4","",""
"","","","","","","","","","","","html-keyboard-response","284","2.0.0","806200","60ff58f2c619f3476d7b50fa","2","14","null","","","","","","","","","<p style='font-size: 30px;'><strong>Okay</strong></p>","null","neutral_feedback","1","test","40","","","","","","","",""
"","","","","","","","","","","","html-button-response","285","2.0.0","809055","60ff58f2c619f3476d7b50fa","2","14","2852","","","","","","","","","<img src= ""rock_img/I_Andesite_05.jpg"" style=""width:8cm; height:4.12cm;""><p>What type of rock is this?</p>","1","class_response","1","test","41","Basalt","Andesite","05","false","2","1","",""
"","","","","","","","","","","","html-keyboard-response","286","2.0.0","809557","60ff58f2c619f3476d7b50fa","2","14","null","","","","","","","","","<p style='font-size: 30px;'><strong>Okay</strong></p>","null","neutral_feedback","1","test","41","","","","","","","",""
"","","","","","","","","","","","html-button-response","287","2.0.0","811509","60ff58f2c619f3476d7b50fa","2","14","1948","","","","","","","","","<img src= ""rock_img/I_Obsidian_07.jpg"" style=""width:8cm; height:4.76cm;""><p>What type of rock is this?</p>","4","class_response","1","test","42","Obsidian","Obsidian","07","true","5","5","",""
"","","","","","","","","","","","html-keyboard-response","288","2.0.0","812011","60ff58f2c619f3476d7b50fa","2","14","null","","","","","","","","","<p style='font-size: 30px;'><strong>Okay</strong></p>","null","neutral_feedback","1","test","42","","","","","","","",""
"","","","","","","","","","","","html-button-response","289","2.0.0","814454","60ff58f2c619f3476d7b50fa","2","14","2439","","","","","","","","","<img src= ""rock_img/I_Gabbro_08.jpg"" style=""width:8cm; height:5.15cm;""><p>What type of rock is this?</p>","3","class_response","1","test","43","Gabbro","Gabbro","08","true","4","4","",""
"","","","","","","","","","","","html-keyboard-response","290","2.0.0","814956","60ff58f2c619f3476d7b50fa","2","14","null","","","","","","","","","<p style='font-size: 30px;'><strong>Okay</strong></p>","null","neutral_feedback","1","test","43","","","","","","","",""
"","","","","","","","","","","","html-button-response","291","2.0.0","819014","60ff58f2c619f3476d7b50fa","2","14","4056","","","","","","","","","<img src= ""rock_img/I_Pegmatite_03.jpg"" style=""width:8cm; height:5.239999999999999cm;""><p>What type of rock is this?</p>","6","class_response","1","test","44","Peridotite","Pegmatite","03","false","7","6","",""
"","","","","","","","","","","","html-keyboard-response","292","2.0.0","819516","60ff58f2c619f3476d7b50fa","2","14","null","","","","","","","","","<p style='font-size: 30px;'><strong>Okay</strong></p>","null","neutral_feedback","1","test","44","","","","","","","",""
"","","","","","","","","","","","html-button-response","293","2.0.0","821693","60ff58f2c619f3476d7b50fa","2","14","2173","","","","","","","","","<img src= ""rock_img/I_Peridotite_10.jpg"" style=""width:8cm; height:5.390000000000001cm;""><p>What type of rock is this?</p>","7","class_response","1","test","45","Pumice","Peridotite","10","false","8","7","",""
"","","","","","","","","","","","html-keyboard-response","294","2.0.0","822194","60ff58f2c619f3476d7b50fa","2","14","null","","","","","","","","","<p style='font-size: 30px;'><strong>Okay</strong></p>","null","neutral_feedback","1","test","45","","","","","","","",""
"","","","","","","","","","","","html-button-response","295","2.0.0","824145","60ff58f2c619f3476d7b50fa","2","14","1947","","","","","","","","","<img src= ""rock_img/I_Diorite_16.jpg"" style=""width:8cm; height:6.74cm;""><p>What type of rock is this?</p>","2","class_response","1","test","46","Diorite","Diorite","16","true","3","3","",""
"","","","","","","","","","","","html-keyboard-response","296","2.0.0","824647","60ff58f2c619f3476d7b50fa","2","14","null","","","","","","","","","<p style='font-size: 30px;'><strong>Okay</strong></p>","null","neutral_feedback","1","test","46","","","","","","","",""
"","","","","","","","","","","","html-button-response","297","2.0.0","826459","60ff58f2c619f3476d7b50fa","2","14","1808","","","","","","","","","<img src= ""rock_img/I_Basalt_02.jpg"" style=""width:8cm; height:6.45cm;""><p>What type of rock is this?</p>","1","class_response","1","test","47","Basalt","Basalt","02","true","2","2","",""
"","","","","","","","","","","","html-keyboard-response","298","2.0.0","826961","60ff58f2c619f3476d7b50fa","2","14","null","","","","","","","","","<p style='font-size: 30px;'><strong>Okay</strong></p>","null","neutral_feedback","1","test","47","","","","","","","",""
"","","","","","","","","","","","html-button-response","299","2.0.0","829139","60ff58f2c619f3476d7b50fa","2","14","2174","","","","","","","","","<img src= ""rock_img/I_Andesite_02.jpg"" style=""width:8cm; height:8.5cm;""><p>What type of rock is this?</p>","3","class_response","1","test","48","Gabbro","Andesite","02","false","4","1","",""
"","","","","","","","","","","","html-keyboard-response","300","2.0.0","829641","60ff58f2c619f3476d7b50fa","2","14","null","","","","","","","","","<p style='font-size: 30px;'><strong>Okay</strong></p>","null","neutral_feedback","1","test","48","","","","","","","",""
"","","","","","","","","","","","html-button-response","301","2.0.0","852166","60ff58f2c619f3476d7b50fa","2","14","","","","","","","","","","","","cycle_feedback","","","","","","","","","","12526","9986.399999999907"
"","","","","","","","","","","","html-button-response","303","2.0.0","854491","60ff58f2c619f3476d7b50fa","2","14","2321","","","","","","","","","","0","start_train","","","","","","","","","","",""
"","","","","","","","","","","","html-button-response","304","2.0.0","861444","60ff58f2c619f3476d7b50fa","2","14","6949","","","","","","","","","<img src= ""rock_img/I_Pegmatite_11.jpg"" style=""width:8cm; height:8.14cm;""><p>What type of rock is this?</p>","5","class_response","2","train","1","Pegmatite","Pegmatite","11","true","6","6","",""
