"width","height","webaudio","browser","browser_version","mobile","os","fullscreen","vsync_rate","webcam","microphone","trial_type","trial_index","plugin_version","time_elapsed","subjID","condition","stimID","rt","url","success","value","timeout","failed_images","failed_audio","failed_video","view_history","stimulus","response","trialType","cycle","phase","trial","resp","cat","token","corr","resp_num","cat_num","time_fb1","time_fb2"
"1280","585","true","chrome","129.0.0","false","Windows 10","true","60.22","true","true","browser-check","0","2.0.0","1221","671309eee1f4753b1cdeed82","2","31","","","","","","","","","","","","","","","","","","","","","","",""
"","","","","","","","","","","","external-html","1","2.0.0","62709","671309eee1f4753b1cdeed82","2","31","61094","consent_form.html","","","","","","","","","","","","","","","","","","","","",""
"","","","","","","","","","","","fullscreen","2","2.0.0","99379","671309eee1f4753b1cdeed82","2","31","35653","","true","","","","","","","","","","","","","","","","","","","",""
"","","","","","","","","","","","call-function","3","2.0.0","99383","671309eee1f4753b1cdeed82","2","31","","","","{}","","","","","","","","","","","","","","","","","","",""
"","","","","","","","","","","","preload","4","2.0.0","131636","671309eee1f4753b1cdeed82","2","31","","","true","","false","[]","[]","[]","","","","","","","","","","","","","","",""
"","","","","","","","","","","","instructions","5","2.0.0","225603","671309eee1f4753b1cdeed82","2","31","93964","","","","","","","","[{""page_index"":0,""viewing_time"":13156},{""page_index"":1,""viewing_time"":59921},{""page_index"":2,""viewing_time"":20886}]","","","","","","","","","","","","","",""
"","","","","","","","","","","","html-button-response","6","2.0.0","244130","671309eee1f4753b1cdeed82","2","31","18523","","","","","","","","","","0","start_test","","","","","","","","","","",""
"","","","","","","","","","","","html-button-response","7","2.0.0","253045","671309eee1f4753b1cdeed82","2","31","8909","","","","","","","","","<img src= ""rock_img/I_Peridotite_13.jpg"" style=""width:8cm; height:7.58cm;""><p>What type of rock is this?</p>","6","class_response","0","test","1","Peridotite","Peridotite","13","true","7","7","",""
"","","","","","","","","","","","html-keyboard-response","8","2.0.0","253563","671309eee1f4753b1cdeed82","2","31","null","","","","","","","","","<p style='font-size: 30px;'><strong>Okay</strong></p>","null","neutral_feedback","0","test","1","","","","","","","",""
"","","","","","","","","","","","html-button-response","9","2.0.0","261097","671309eee1f4753b1cdeed82","2","31","7529","","","","","","","","","<img src= ""rock_img/I_Obsidian_09.jpg"" style=""width:8cm; height:5cm;""><p>What type of rock is this?</p>","3","class_response","0","test","2","Gabbro","Obsidian","09","false","4","5","",""
"","","","","","","","","","","","html-keyboard-response","10","2.0.0","261603","671309eee1f4753b1cdeed82","2","31","null","","","","","","","","","<p style='font-size: 30px;'><strong>Okay</strong></p>","null","neutral_feedback","0","test","2","","","","","","","",""
"","","","","","","","","","","","html-button-response","11","2.0.0","264378","671309eee1f4753b1cdeed82","2","31","2771","","","","","","","","","<img src= ""rock_img/I_Obsidian_02.jpg"" style=""width:8cm; height:7.51cm;""><p>What type of rock is this?</p>","2","class_response","0","test","3","Diorite","Obsidian","02","false","3","5","",""
"","","","","","","","","","","","html-keyboard-response","12","2.0.0","264891","671309eee1f4753b1cdeed82","2","31","null","","","","","","","","","<p style='font-size: 30px;'><strong>Okay</strong></p>","null","neutral_feedback","0","test","3","","","","","","","",""
"","","","","","","","","","","","html-button-response","13","2.0.0","267125","671309eee1f4753b1cdeed82","2","31","2229","","","","","","","","","<img src= ""rock_img/I_Peridotite_10.jpg"" style=""width:8cm; height:5.390000000000001cm;""><p>What type of rock is this?</p>","1","class_response","0","test","4","Basalt","Peridotite","10","false","2","7","",""
"","","","","","","","","","","","html-keyboard-response","14","2.0.0","267635","671309eee1f4753b1cdeed82","2","31","null","","","","","","","","","<p style='font-size: 30px;'><strong>Okay</strong></p>","null","neutral_feedback","0","test","4","","","","","","","",""
"","","","","","","","","","","","html-button-response","15","2.0.0","270189","671309eee1f4753b1cdeed82","2","31","2550","","","","","","","","","<img src= ""rock_img/I_Basalt_02.jpg"" style=""width:8cm; height:6.45cm;""><p>What type of rock is this?</p>","0","class_response","0","test","5","Andesite","Basalt","02","false","1","2","",""
"","","","","","","","","","","","html-keyboard-response","16","2.0.0","270707","671309eee1f4753b1cdeed82","2","31","null","","","","","","","","","<p style='font-size: 30px;'><strong>Okay</strong></p>","null","neutral_feedback","0","test","5","","","","","","","",""
"","","","","","","","","","","","html-button-response","17","2.0.0","273271","671309eee1f4753b1cdeed82","2","31","2561","","","","","","","","","<img src= ""rock_img/I_Andesite_09.jpg"" style=""width:8cm; height:6cm;""><p>What type of rock is this?</p>","4","class_response","0","test","6","Obsidian","Andesite","09","false","5","1","",""
"","","","","","","","","","","","html-keyboard-response","18","2.0.0","273784","671309eee1f4753b1cdeed82","2","31","null","","","","","","","","","<p style='font-size: 30px;'><strong>Okay</strong></p>","null","neutral_feedback","0","test","6","","","","","","","",""
"","","","","","","","","","","","html-button-response","19","2.0.0","277407","671309eee1f4753b1cdeed82","2","31","3619","","","","","","","","","<img src= ""rock_img/I_Gabbro_10.jpg"" style=""width:8cm; height:5.680000000000001cm;""><p>What type of rock is this?</p>","6","class_response","0","test","7","Peridotite","Gabbro","10","false","7","4","",""
"","","","","","","","","","","","html-keyboard-response","20","2.0.0","277922","671309eee1f4753b1cdeed82","2","31","null","","","","","","","","","<p style='font-size: 30px;'><strong>Okay</strong></p>","null","neutral_feedback","0","test","7","","","","","","","",""
"","","","","","","","","","","","html-button-response","21","2.0.0","281167","671309eee1f4753b1cdeed82","2","31","3241","","","","","","","","","<img src= ""rock_img/I_Obsidian_05.jpg"" style=""width:8cm; height:6.33cm;""><p>What type of rock is this?</p>","5","class_response","0","test","8","Pegmatite","Obsidian","05","false","6","5","",""
"","","","","","","","","","","","html-keyboard-response","22","2.0.0","281683","671309eee1f4753b1cdeed82","2","31","null","","","","","","","","","<p style='font-size: 30px;'><strong>Okay</strong></p>","null","neutral_feedback","0","test","8","","","","","","","",""
"","","","","","","","","","","","html-button-response","23","2.0.0","289669","671309eee1f4753b1cdeed82","2","31","7983","","","","","","","","","<img src= ""rock_img/I_Pumice_10.jpg"" style=""width:8cm; height:7.609999999999999cm;""><p>What type of rock is this?</p>","7","class_response","0","test","9","Pumice","Pumice","10","true","8","8","",""
"","","","","","","","","","","","html-keyboard-response","24","2.0.0","290185","671309eee1f4753b1cdeed82","2","31","null","","","","","","","","","<p style='font-size: 30px;'><strong>Okay</strong></p>","null","neutral_feedback","0","test","9","","","","","","","",""
"","","","","","","","","","","","html-button-response","25","2.0.0","294261","671309eee1f4753b1cdeed82","2","31","4072","","","","","","","","","<img src= ""rock_img/I_Gabbro_05.jpg"" style=""width:8cm; height:6cm;""><p>What type of rock is this?</p>","2","class_response","0","test","10","Diorite","Gabbro","05","false","3","4","",""
"","","","","","","","","","","","html-keyboard-response","26","2.0.0","294764","671309eee1f4753b1cdeed82","2","31","null","","","","","","","","","<p style='font-size: 30px;'><strong>Okay</strong></p>","null","neutral_feedback","0","test","10","","","","","","","",""
"","","","","","","","","","","","html-button-response","27","2.0.0","299199","671309eee1f4753b1cdeed82","2","31","4430","","","","","","","","","<img src= ""rock_img/I_Pegmatite_11.jpg"" style=""width:8cm; height:8.14cm;""><p>What type of rock is this?</p>","4","class_response","0","test","11","Obsidian","Pegmatite","11","false","5","6","",""
"","","","","","","","","","","","html-keyboard-response","28","2.0.0","299706","671309eee1f4753b1cdeed82","2","31","null","","","","","","","","","<p style='font-size: 30px;'><strong>Okay</strong></p>","null","neutral_feedback","0","test","11","","","","","","","",""
"","","","","","","","","","","","html-button-response","29","2.0.0","304833","671309eee1f4753b1cdeed82","2","31","5124","","","","","","","","","<img src= ""rock_img/I_Andesite_16.jpg"" style=""width:8cm; height:6.010000000000001cm;""><p>What type of rock is this?</p>","0","class_response","0","test","12","Andesite","Andesite","16","true","1","1","",""
"","","","","","","","","","","","html-keyboard-response","30","2.0.0","305337","671309eee1f4753b1cdeed82","2","31","null","","","","","","","","","<p style='font-size: 30px;'><strong>Okay</strong></p>","null","neutral_feedback","0","test","12","","","","","","","",""
"","","","","","","","","","","","html-button-response","31","2.0.0","315477","671309eee1f4753b1cdeed82","2","31","10137","","","","","","","","","<img src= ""rock_img/I_Peridotite_06.jpg"" style=""width:8cm; height:7.53cm;""><p>What type of rock is this?</p>","2","class_response","0","test","13","Diorite","Peridotite","06","false","3","7","",""
"","","","","","","","","","","","html-keyboard-response","32","2.0.0","315991","671309eee1f4753b1cdeed82","2","31","null","","","","","","","","","<p style='font-size: 30px;'><strong>Okay</strong></p>","null","neutral_feedback","0","test","13","","","","","","","",""
"","","","","","","","","","","","html-button-response","33","2.0.0","320253","671309eee1f4753b1cdeed82","2","31","4257","","","","","","","","","<img src= ""rock_img/I_Diorite_11.jpg"" style=""width:8cm; height:7.11cm;""><p>What type of rock is this?</p>","5","class_response","0","test","14","Pegmatite","Diorite","11","false","6","3","",""
"","","","","","","","","","","","html-keyboard-response","34","2.0.0","320765","671309eee1f4753b1cdeed82","2","31","null","","","","","","","","","<p style='font-size: 30px;'><strong>Okay</strong></p>","null","neutral_feedback","0","test","14","","","","","","","",""
"","","","","","","","","","","","html-button-response","35","2.0.0","323570","671309eee1f4753b1cdeed82","2","31","2801","","","","","","","","","<img src= ""rock_img/I_Gabbro_11.jpg"" style=""width:8cm; height:6.2cm;""><p>What type of rock is this?</p>","7","class_response","0","test","15","Pumice","Gabbro","11","false","8","4","",""
"","","","","","","","","","","","html-keyboard-response","36","2.0.0","324074","671309eee1f4753b1cdeed82","2","31","null","","","","","","","","","<p style='font-size: 30px;'><strong>Okay</strong></p>","null","neutral_feedback","0","test","15","","","","","","","",""
"","","","","","","","","","","","html-button-response","37","2.0.0","326154","671309eee1f4753b1cdeed82","2","31","2075","","","","","","","","","<img src= ""rock_img/I_Gabbro_14.jpg"" style=""width:8cm; height:8.48cm;""><p>What type of rock is this?</p>","3","class_response","0","test","16","Gabbro","Gabbro","14","true","4","4","",""
"","","","","","","","","","","","html-keyboard-response","38","2.0.0","326666","671309eee1f4753b1cdeed82","2","31","null","","","","","","","","","<p style='font-size: 30px;'><strong>Okay</strong></p>","null","neutral_feedback","0","test","16","","","","","","","",""
"","","","","","","","","","","","html-button-response","39","2.0.0","334022","671309eee1f4753b1cdeed82","2","31","7353","","","","","","","","","<img src= ""rock_img/I_Pumice_08.jpg"" style=""width:8cm; height:6.67cm;""><p>What type of rock is this?</p>","4","class_response","0","test","17","Obsidian","Pumice","08","false","5","8","",""
"","","","","","","","","","","","html-keyboard-response","40","2.0.0","334537","671309eee1f4753b1cdeed82","2","31","null","","","","","","","","","<p style='font-size: 30px;'><strong>Okay</strong></p>","null","neutral_feedback","0","test","17","","","","","","","",""
"","","","","","","","","","","","html-button-response","41","2.0.0","337667","671309eee1f4753b1cdeed82","2","31","3126","","","","","","","","","<img src= ""rock_img/I_Diorite_16.jpg"" style=""width:8cm; height:6.74cm;""><p>What type of rock is this?</p>","7","class_response","0","test","18","Pumice","Diorite","16","false","8","3","",""
"","","","","","","","","","","","html-keyboard-response","42","2.0.0","338182","671309eee1f4753b1cdeed82","2","31","null","","","","","","","","","<p style='font-size: 30px;'><strong>Okay</strong></p>","null","neutral_feedback","0","test","18","","","","","","","",""
"","","","","","","","","","","","html-button-response","43","2.0.0","340487","671309eee1f4753b1cdeed82","2","31","2301","","","","","","","","","<img src= ""rock_img/I_Basalt_01.jpg"" style=""width:8cm; height:7.880000000000001cm;""><p>What type of rock is this?</p>","2","class_response","0","test","19","Diorite","Basalt","01","false","3","2","",""
"","","","","","","","","","","","html-keyboard-response","44","2.0.0","340993","671309eee1f4753b1cdeed82","2","31","null","","","","","","","","","<p style='font-size: 30px;'><strong>Okay</strong></p>","null","neutral_feedback","0","test","19","","","","","","","",""
"","","","","","","","","","","","html-button-response","45","2.0.0","346285","671309eee1f4753b1cdeed82","2","31","5289","","","","","","","","","<img src= ""rock_img/I_Basalt_09.jpg"" style=""width:8cm; height:6.2cm;""><p>What type of rock is this?</p>","3","class_response","0","test","20","Gabbro","Basalt","09","false","4","2","",""
"","","","","","","","","","","","html-keyboard-response","46","2.0.0","346800","671309eee1f4753b1cdeed82","2","31","null","","","","","","","","","<p style='font-size: 30px;'><strong>Okay</strong></p>","null","neutral_feedback","0","test","20","","","","","","","",""
"","","","","","","","","","","","html-button-response","47","2.0.0","350015","671309eee1f4753b1cdeed82","2","31","3212","","","","","","","","","<img src= ""rock_img/I_Obsidian_06.jpg"" style=""width:8cm; height:6.8cm;""><p>What type of rock is this?</p>","6","class_response","0","test","21","Peridotite","Obsidian","06","false","7","5","",""
"","","","","","","","","","","","html-keyboard-response","48","2.0.0","350532","671309eee1f4753b1cdeed82","2","31","null","","","","","","","","","<p style='font-size: 30px;'><strong>Okay</strong></p>","null","neutral_feedback","0","test","21","","","","","","","",""
"","","","","","","","","","","","html-button-response","49","2.0.0","352781","671309eee1f4753b1cdeed82","2","31","2245","","","","","","","","","<img src= ""rock_img/I_Pumice_16.jpg"" style=""width:8cm; height:6.79cm;""><p>What type of rock is this?</p>","7","class_response","0","test","22","Pumice","Pumice","16","true","8","8","",""
"","","","","","","","","","","","html-keyboard-response","50","2.0.0","353295","671309eee1f4753b1cdeed82","2","31","null","","","","","","","","","<p style='font-size: 30px;'><strong>Okay</strong></p>","null","neutral_feedback","0","test","22","","","","","","","",""
"","","","","","","","","","","","html-button-response","51","2.0.0","355711","671309eee1f4753b1cdeed82","2","31","2412","","","","","","","","","<img src= ""rock_img/I_Diorite_12.jpg"" style=""width:8cm; height:4.88cm;""><p>What type of rock is this?</p>","5","class_response","0","test","23","Pegmatite","Diorite","12","false","6","3","",""
"","","","","","","","","","","","html-keyboard-response","52","2.0.0","356228","671309eee1f4753b1cdeed82","2","31","null","","","","","","","","","<p style='font-size: 30px;'><strong>Okay</strong></p>","null","neutral_feedback","0","test","23","","","","","","","",""
"","","","","","","","","","","","html-button-response","53","2.0.0","358157","671309eee1f4753b1cdeed82","2","31","1925","","","","","","","","","<img src= ""rock_img/I_Peridotite_07.jpg"" style=""width:8cm; height:4.83cm;""><p>What type of rock is this?</p>","1","class_response","0","test","24","Basalt","Peridotite","07","false","2","7","",""
"","","","","","","","","","","","html-keyboard-response","54","2.0.0","358663","671309eee1f4753b1cdeed82","2","31","null","","","","","","","","","<p style='font-size: 30px;'><strong>Okay</strong></p>","null","neutral_feedback","0","test","24","","","","","","","",""
"","","","","","","","","","","","html-button-response","55","2.0.0","361606","671309eee1f4753b1cdeed82","2","31","2939","","","","","","","","","<img src= ""rock_img/I_Andesite_02.jpg"" style=""width:8cm; height:8.5cm;""><p>What type of rock is this?</p>","5","class_response","0","test","25","Pegmatite","Andesite","02","false","6","1","",""
"","","","","","","","","","","","html-keyboard-response","56","2.0.0","362119","671309eee1f4753b1cdeed82","2","31","null","","","","","","","","","<p style='font-size: 30px;'><strong>Okay</strong></p>","null","neutral_feedback","0","test","25","","","","","","","",""
"","","","","","","","","","","","html-button-response","57","2.0.0","364859","671309eee1f4753b1cdeed82","2","31","2737","","","","","","","","","<img src= ""rock_img/I_Pegmatite_06.jpg"" style=""width:8cm; height:5.17cm;""><p>What type of rock is this?</p>","7","class_response","0","test","26","Pumice","Pegmatite","06","false","8","6","",""
"","","","","","","","","","","","html-keyboard-response","58","2.0.0","365373","671309eee1f4753b1cdeed82","2","31","null","","","","","","","","","<p style='font-size: 30px;'><strong>Okay</strong></p>","null","neutral_feedback","0","test","26","","","","","","","",""
"","","","","","","","","","","","html-button-response","59","2.0.0","367290","671309eee1f4753b1cdeed82","2","31","1913","","","","","","","","","<img src= ""rock_img/I_Andesite_01.jpg"" style=""width:8cm; height:5.87cm;""><p>What type of rock is this?</p>","3","class_response","0","test","27","Gabbro","Andesite","01","false","4","1","",""
"","","","","","","","","","","","html-keyboard-response","60","2.0.0","367799","671309eee1f4753b1cdeed82","2","31","null","","","","","","","","","<p style='font-size: 30px;'><strong>Okay</strong></p>","null","neutral_feedback","0","test","27","","","","","","","",""
"","","","","","","","","","","","html-button-response","61","2.0.0","370057","671309eee1f4753b1cdeed82","2","31","2256","","","","","","","","","<img src= ""rock_img/I_Basalt_10.jpg"" style=""width:8cm; height:5.85cm;""><p>What type of rock is this?</p>","0","class_response","0","test","28","Andesite","Basalt","10","false","1","2","",""
"","","","","","","","","","","","html-keyboard-response","62","2.0.0","370574","671309eee1f4753b1cdeed82","2","31","null","","","","","","","","","<p style='font-size: 30px;'><strong>Okay</strong></p>","null","neutral_feedback","0","test","28","","","","","","","",""
"","","","","","","","","","","","html-button-response","63","2.0.0","373618","671309eee1f4753b1cdeed82","2","31","3039","","","","","","","","","<img src= ""rock_img/I_Diorite_02.jpg"" style=""width:8cm; height:6.27cm;""><p>What type of rock is this?</p>","7","class_response","0","test","29","Pumice","Diorite","02","false","8","3","",""
"","","","","","","","","","","","html-keyboard-response","64","2.0.0","374121","671309eee1f4753b1cdeed82","2","31","null","","","","","","","","","<p style='font-size: 30px;'><strong>Okay</strong></p>","null","neutral_feedback","0","test","29","","","","","","","",""
"","","","","","","","","","","","html-button-response","65","2.0.0","375625","671309eee1f4753b1cdeed82","2","31","1500","","","","","","","","","<img src= ""rock_img/I_Pumice_09.jpg"" style=""width:8cm; height:6.44cm;""><p>What type of rock is this?</p>","7","class_response","0","test","30","Pumice","Pumice","09","true","8","8","",""
"","","","","","","","","","","","html-keyboard-response","66","2.0.0","376131","671309eee1f4753b1cdeed82","2","31","null","","","","","","","","","<p style='font-size: 30px;'><strong>Okay</strong></p>","null","neutral_feedback","0","test","30","","","","","","","",""
"","","","","","","","","","","","html-button-response","67","2.0.0","378537","671309eee1f4753b1cdeed82","2","31","2404","","","","","","","","","<img src= ""rock_img/I_Peridotite_05.jpg"" style=""width:8cm; height:7.1499999999999995cm;""><p>What type of rock is this?</p>","3","class_response","0","test","31","Gabbro","Peridotite","05","false","4","7","",""
"","","","","","","","","","","","html-keyboard-response","68","2.0.0","379053","671309eee1f4753b1cdeed82","2","31","null","","","","","","","","","<p style='font-size: 30px;'><strong>Okay</strong></p>","null","neutral_feedback","0","test","31","","","","","","","",""
"","","","","","","","","","","","html-button-response","69","2.0.0","382419","671309eee1f4753b1cdeed82","2","31","3362","","","","","","","","","<img src= ""rock_img/I_Peridotite_15.jpg"" style=""width:8cm; height:6cm;""><p>What type of rock is this?</p>","4","class_response","0","test","32","Obsidian","Peridotite","15","false","5","7","",""
"","","","","","","","","","","","html-keyboard-response","70","2.0.0","382921","671309eee1f4753b1cdeed82","2","31","null","","","","","","","","","<p style='font-size: 30px;'><strong>Okay</strong></p>","null","neutral_feedback","0","test","32","","","","","","","",""
"","","","","","","","","","","","html-button-response","71","2.0.0","385631","671309eee1f4753b1cdeed82","2","31","2707","","","","","","","","","<img src= ""rock_img/I_Pegmatite_07.jpg"" style=""width:8cm; height:6.7cm;""><p>What type of rock is this?</p>","6","class_response","0","test","33","Peridotite","Pegmatite","07","false","7","6","",""
"","","","","","","","","","","","html-keyboard-response","72","2.0.0","386145","671309eee1f4753b1cdeed82","2","31","null","","","","","","","","","<p style='font-size: 30px;'><strong>Okay</strong></p>","null","neutral_feedback","0","test","33","","","","","","","",""
"","","","","","","","","","","","html-button-response","73","2.0.0","398463","671309eee1f4753b1cdeed82","2","31","12315","","","","","","","","","<img src= ""rock_img/I_Pegmatite_08.jpg"" style=""width:8cm; height:7.68cm;""><p>What type of rock is this?</p>","6","class_response","0","test","34","Peridotite","Pegmatite","08","false","7","6","",""
"","","","","","","","","","","","html-keyboard-response","74","2.0.0","398978","671309eee1f4753b1cdeed82","2","31","null","","","","","","","","","<p style='font-size: 30px;'><strong>Okay</strong></p>","null","neutral_feedback","0","test","34","","","","","","","",""
"","","","","","","","","","","","html-button-response","75","2.0.0","401427","671309eee1f4753b1cdeed82","2","31","2445","","","","","","","","","<img src= ""rock_img/I_Basalt_16.jpg"" style=""width:8cm; height:7.659999999999999cm;""><p>What type of rock is this?</p>","7","class_response","0","test","35","Pumice","Basalt","16","false","8","2","",""
"","","","","","","","","","","","html-keyboard-response","76","2.0.0","401936","671309eee1f4753b1cdeed82","2","31","null","","","","","","","","","<p style='font-size: 30px;'><strong>Okay</strong></p>","null","neutral_feedback","0","test","35","","","","","","","",""
"","","","","","","","","","","","html-button-response","77","2.0.0","403819","671309eee1f4753b1cdeed82","2","31","1879","","","","","","","","","<img src= ""rock_img/I_Basalt_04.jpg"" style=""width:8cm; height:7.53cm;""><p>What type of rock is this?</p>","3","class_response","0","test","36","Gabbro","Basalt","04","false","4","2","",""
"","","","","","","","","","","","html-keyboard-response","78","2.0.0","404327","671309eee1f4753b1cdeed82","2","31","null","","","","","","","","","<p style='font-size: 30px;'><strong>Okay</strong></p>","null","neutral_feedback","0","test","36","","","","","","","",""
"","","","","","","","","","","","html-button-response","79","2.0.0","409245","671309eee1f4753b1cdeed82","2","31","4915","","","","","","","","","<img src= ""rock_img/I_Andesite_11.jpg"" style=""width:8cm; height:4.92cm;""><p>What type of rock is this?</p>","1","class_response","0","test","37","Basalt","Andesite","11","false","2","1","",""
"","","","","","","","","","","","html-keyboard-response","80","2.0.0","409754","671309eee1f4753b1cdeed82","2","31","null","","","","","","","","","<p style='font-size: 30px;'><strong>Okay</strong></p>","null","neutral_feedback","0","test","37","","","","","","","",""
"","","","","","","","","","","","html-button-response","81","2.0.0","411878","671309eee1f4753b1cdeed82","2","31","2120","","","","","","","","","<img src= ""rock_img/I_Diorite_14.jpg"" style=""width:8cm; height:5.71cm;""><p>What type of rock is this?</p>","5","class_response","0","test","38","Pegmatite","Diorite","14","false","6","3","",""
"","","","","","","","","","","","html-keyboard-response","82","2.0.0","412387","671309eee1f4753b1cdeed82","2","31","null","","","","","","","","","<p style='font-size: 30px;'><strong>Okay</strong></p>","null","neutral_feedback","0","test","38","","","","","","","",""
"","","","","","","","","","","","html-button-response","83","2.0.0","413706","671309eee1f4753b1cdeed82","2","31","1315","","","","","","","","","<img src= ""rock_img/I_Gabbro_01.jpg"" style=""width:8cm; height:5.21cm;""><p>What type of rock is this?</p>","5","class_response","0","test","39","Pegmatite","Gabbro","01","false","6","4","",""
"","","","","","","","","","","","html-keyboard-response","84","2.0.0","414220","671309eee1f4753b1cdeed82","2","31","null","","","","","","","","","<p style='font-size: 30px;'><strong>Okay</strong></p>","null","neutral_feedback","0","test","39","","","","","","","",""
"","","","","","","","","","","","html-button-response","85","2.0.0","416077","671309eee1f4753b1cdeed82","2","31","1854","","","","","","","","","<img src= ""rock_img/I_Obsidian_14.jpg"" style=""width:8cm; height:7.64cm;""><p>What type of rock is this?</p>","3","class_response","0","test","40","Gabbro","Obsidian","14","false","4","5","",""
"","","","","","","","","","","","html-keyboard-response","86","2.0.0","416592","671309eee1f4753b1cdeed82","2","31","null","","","","","","","","","<p style='font-size: 30px;'><strong>Okay</strong></p>","null","neutral_feedback","0","test","40","","","","","","","",""
"","","","","","","","","","","","html-button-response","87","2.0.0","419239","671309eee1f4753b1cdeed82","2","31","2643","","","","","","","","","<img src= ""rock_img/I_Pumice_05.jpg"" style=""width:8cm; height:7.25cm;""><p>What type of rock is this?</p>","6","class_response","0","test","41","Peridotite","Pumice","05","false","7","8","",""
"","","","","","","","","","","","html-keyboard-response","88","2.0.0","419755","671309eee1f4753b1cdeed82","2","31","null","","","","","","","","","<p style='font-size: 30px;'><strong>Okay</strong></p>","null","neutral_feedback","0","test","41","","","","","","","",""
"","","","","","","","","","","","html-button-response","89","2.0.0","422135","671309eee1f4753b1cdeed82","2","31","2377","","","","","","","","","<img src= ""rock_img/I_Obsidian_12.jpg"" style=""width:8cm; height:6.53cm;""><p>What type of rock is this?</p>","0","class_response","0","test","42","Andesite","Obsidian","12","false","1","5","",""
"","","","","","","","","","","","html-keyboard-response","90","2.0.0","422646","671309eee1f4753b1cdeed82","2","31","null","","","","","","","","","<p style='font-size: 30px;'><strong>Okay</strong></p>","null","neutral_feedback","0","test","42","","","","","","","",""
"","","","","","","","","","","","html-button-response","91","2.0.0","425242","671309eee1f4753b1cdeed82","2","31","2591","","","","","","","","","<img src= ""rock_img/I_Pegmatite_03.jpg"" style=""width:8cm; height:5.239999999999999cm;""><p>What type of rock is this?</p>","3","class_response","0","test","43","Gabbro","Pegmatite","03","false","4","6","",""
"","","","","","","","","","","","html-keyboard-response","92","2.0.0","425753","671309eee1f4753b1cdeed82","2","31","null","","","","","","","","","<p style='font-size: 30px;'><strong>Okay</strong></p>","null","neutral_feedback","0","test","43","","","","","","","",""
"","","","","","","","","","","","html-button-response","93","2.0.0","428918","671309eee1f4753b1cdeed82","2","31","3160","","","","","","","","","<img src= ""rock_img/I_Gabbro_12.jpg"" style=""width:8cm; height:7.800000000000001cm;""><p>What type of rock is this?</p>","2","class_response","0","test","44","Diorite","Gabbro","12","false","3","4","",""
"","","","","","","","","","","","html-keyboard-response","94","2.0.0","429433","671309eee1f4753b1cdeed82","2","31","null","","","","","","","","","<p style='font-size: 30px;'><strong>Okay</strong></p>","null","neutral_feedback","0","test","44","","","","","","","",""
"","","","","","","","","","","","html-button-response","95","2.0.0","431456","671309eee1f4753b1cdeed82","2","31","2020","","","","","","","","","<img src= ""rock_img/I_Diorite_08.jpg"" style=""width:8cm; height:6.37cm;""><p>What type of rock is this?</p>","7","class_response","0","test","45","Pumice","Diorite","08","false","8","3","",""
"","","","","","","","","","","","html-keyboard-response","96","2.0.0","431962","671309eee1f4753b1cdeed82","2","31","null","","","","","","","","","<p style='font-size: 30px;'><strong>Okay</strong></p>","null","neutral_feedback","0","test","45","","","","","","","",""
"","","","","","","","","","","","html-button-response","97","2.0.0","435520","671309eee1f4753b1cdeed82","2","31","3555","","","","","","","","","<img src= ""rock_img/I_Pumice_15.jpg"" style=""width:8cm; height:7.86cm;""><p>What type of rock is this?</p>","0","class_response","0","test","46","Andesite","Pumice","15","false","1","8","",""
"","","","","","","","","","","","html-keyboard-response","98","2.0.0","436030","671309eee1f4753b1cdeed82","2","31","null","","","","","","","","","<p style='font-size: 30px;'><strong>Okay</strong></p>","null","neutral_feedback","0","test","46","","","","","","","",""
"","","","","","","","","","","","html-button-response","99","2.0.0","444813","671309eee1f4753b1cdeed82","2","31","8779","","","","","","","","","<img src= ""rock_img/I_Andesite_05.jpg"" style=""width:8cm; height:4.12cm;""><p>What type of rock is this?</p>","1","class_response","0","test","47","Basalt","Andesite","05","false","2","1","",""
"","","","","","","","","","","","html-keyboard-response","100","2.0.0","445324","671309eee1f4753b1cdeed82","2","31","null","","","","","","","","","<p style='font-size: 30px;'><strong>Okay</strong></p>","null","neutral_feedback","0","test","47","","","","","","","",""
"","","","","","","","","","","","html-button-response","101","2.0.0","447481","671309eee1f4753b1cdeed82","2","31","2154","","","","","","","","","<img src= ""rock_img/I_Pegmatite_10.jpg"" style=""width:8cm; height:4.16cm;""><p>What type of rock is this?</p>","0","class_response","0","test","48","Andesite","Pegmatite","10","false","1","6","",""
"","","","","","","","","","","","html-keyboard-response","102","2.0.0","447992","671309eee1f4753b1cdeed82","2","31","null","","","","","","","","","<p style='font-size: 30px;'><strong>Okay</strong></p>","null","neutral_feedback","0","test","48","","","","","","","",""
"","","","","","","","","","","","instructions","103","2.0.0","540029","671309eee1f4753b1cdeed82","2","31","91993","","","","","","","","[{""page_index"":0,""viewing_time"":55841},{""page_index"":1,""viewing_time"":24930},{""page_index"":2,""viewing_time"":11222}]","","","","","","","","","","","","","",""
"","","","","","","","","","","","html-button-response","104","2.0.0","545381","671309eee1f4753b1cdeed82","2","31","5349","","","","","","","","","","0","start_train","","","","","","","","","","",""
"","","","","","","","","","","","html-button-response","105","2.0.0","550795","671309eee1f4753b1cdeed82","2","31","5410","","","","","","","","","<img src= ""rock_img/I_Pegmatite_15.jpg"" style=""width:8cm; height:6cm;""><p>What type of rock is this?</p>","3","class_response","1","train","1","Gabbro","Pegmatite","15","false","4","6","",""
"","","","","","","","","","","","html-button-response","106","2.0.0","556098","671309eee1f4753b1cdeed82","2","31","5299","","","","","","","","","<img src= rock_img/I_Pegmatite_15.jpg style=""width:8cm; height:6cm;""><p style='font-size: 30px; color: red;'><strong>Incorrect!</strong></p><p style='font-size: 30px;'><strong>This rock is pegmatite</strong></p>","0","corr_feedback","1","train","1","","","","","","","",""
"","","","","","","","","","","","html-button-response","107","2.0.0","558526","671309eee1f4753b1cdeed82","2","31","2425","","","","","","","","","<img src= ""rock_img/I_Peridotite_14.jpg"" style=""width:8cm; height:5.3cm;""><p>What type of rock is this?</p>","7","class_response","1","train","2","Pumice","Peridotite","14","false","8","7","",""
"","","","","","","","","","","","html-button-response","108","2.0.0","563070","671309eee1f4753b1cdeed82","2","31","4541","","","","","","","","","<img src= rock_img/I_Peridotite_14.jpg style=""width:8cm; height:5.3cm;""><p style='font-size: 30px; color: red;'><strong>Incorrect!</strong></p><p style='font-size: 30px;'><strong>This rock is peridotite</strong></p>","0","corr_feedback","1","train","2","","","","","","","",""
"","","","","","","","","","","","html-button-response","109","2.0.0","596461","671309eee1f4753b1cdeed82","2","31","33388","","","","","","","","","<img src= ""rock_img/I_Peridotite_02.jpg"" style=""width:8cm; height:5.859999999999999cm;""><p>What type of rock is this?</p>","7","class_response","1","train","3","Pumice","Peridotite","02","false","8","7","",""
"","","","","","","","","","","","html-button-response","110","2.0.0","604726","671309eee1f4753b1cdeed82","2","31","8263","","","","","","","","","<img src= rock_img/I_Peridotite_02.jpg style=""width:8cm; height:5.859999999999999cm;""><p style='font-size: 30px; color: red;'><strong>Incorrect!</strong></p><p style='font-size: 30px;'><strong>This rock is peridotite</strong></p>","0","corr_feedback","1","train","3","","","","","","","",""
"","","","","","","","","","","","html-button-response","111","2.0.0","612393","671309eee1f4753b1cdeed82","2","31","7663","","","","","","","","","<img src= ""rock_img/I_Gabbro_13.jpg"" style=""width:8cm; height:5.08cm;""><p>What type of rock is this?</p>","6","class_response","1","train","4","Peridotite","Gabbro","13","false","7","4","",""
"","","","","","","","","","","","html-button-response","112","2.0.0","617286","671309eee1f4753b1cdeed82","2","31","4890","","","","","","","","","<img src= rock_img/I_Gabbro_13.jpg style=""width:8cm; height:5.08cm;""><p style='font-size: 30px; color: red;'><strong>Incorrect!</strong></p><p style='font-size: 30px;'><strong>This rock is gabbro</strong></p>","0","corr_feedback","1","train","4","","","","","","","",""
"","","","","","","","","","","","html-button-response","113","2.0.0","620925","671309eee1f4753b1cdeed82","2","31","3636","","","","","","","","","<img src= ""rock_img/I_Diorite_15.jpg"" style=""width:8cm; height:5.54cm;""><p>What type of rock is this?</p>","7","class_response","1","train","5","Pumice","Diorite","15","false","8","3","",""
"","","","","","","","","","","","html-button-response","114","2.0.0","623821","671309eee1f4753b1cdeed82","2","31","2893","","","","","","","","","<img src= rock_img/I_Diorite_15.jpg style=""width:8cm; height:5.54cm;""><p style='font-size: 30px; color: red;'><strong>Incorrect!</strong></p><p style='font-size: 30px;'><strong>This rock is diorite</strong></p>","0","corr_feedback","1","train","5","","","","","","","",""
"","","","","","","","","","","","html-button-response","115","2.0.0","626188","671309eee1f4753b1cdeed82","2","31","2365","","","","","","","","","<img src= ""rock_img/I_Diorite_10.jpg"" style=""width:8cm; height:5.949999999999999cm;""><p>What type of rock is this?</p>","0","class_response","1","train","6","Andesite","Diorite","10","false","1","3","",""
"","","","","","","","","","","","html-button-response","116","2.0.0","634495","671309eee1f4753b1cdeed82","2","31","8304","","","","","","","","","<img src= rock_img/I_Diorite_10.jpg style=""width:8cm; height:5.949999999999999cm;""><p style='font-size: 30px; color: red;'><strong>Incorrect!</strong></p><p style='font-size: 30px;'><strong>This rock is diorite</strong></p>","0","corr_feedback","1","train","6","","","","","","","",""
"","","","","","","","","","","","html-button-response","117","2.0.0","639065","671309eee1f4753b1cdeed82","2","31","4566","","","","","","","","","<img src= ""rock_img/I_Diorite_09.jpg"" style=""width:8cm; height:5.27cm;""><p>What type of rock is this?</p>","5","class_response","1","train","7","Pegmatite","Diorite","09","false","6","3","",""
"","","","","","","","","","","","html-button-response","118","2.0.0","643661","671309eee1f4753b1cdeed82","2","31","4594","","","","","","","","","<img src= rock_img/I_Diorite_09.jpg style=""width:8cm; height:5.27cm;""><p style='font-size: 30px; color: red;'><strong>Incorrect!</strong></p><p style='font-size: 30px;'><strong>This rock is diorite</strong></p>","0","corr_feedback","1","train","7","","","","","","","",""
"","","","","","","","","","","","html-button-response","119","2.0.0","650549","671309eee1f4753b1cdeed82","2","31","6885","","","","","","","","","<img src= ""rock_img/I_Gabbro_16.jpg"" style=""width:8cm; height:6.44cm;""><p>What type of rock is this?</p>","3","class_response","1","train","8","Gabbro","Gabbro","16","true","4","4","",""
"","","","","","","","","","","","html-button-response","120","2.0.0","654991","671309eee1f4753b1cdeed82","2","31","4440","","","","","","","","","<img src= rock_img/I_Gabbro_16.jpg style=""width:8cm; height:6.44cm;""><p style='font-size: 30px; color: green;'><strong>Correct!</strong></p><p style='font-size: 30px;'><strong>This rock is gabbro</strong></p>","0","corr_feedback","1","train","8","","","","","","","",""
"","","","","","","","","","","","html-button-response","121","2.0.0","657976","671309eee1f4753b1cdeed82","2","31","2982","","","","","","","","","<img src= ""rock_img/I_Obsidian_10.jpg"" style=""width:8cm; height:6.260000000000001cm;""><p>What type of rock is this?</p>","0","class_response","1","train","9","Andesite","Obsidian","10","false","1","5","",""
"","","","","","","","","","","","html-button-response","122","2.0.0","662122","671309eee1f4753b1cdeed82","2","31","4144","","","","","","","","","<img src= rock_img/I_Obsidian_10.jpg style=""width:8cm; height:6.260000000000001cm;""><p style='font-size: 30px; color: red;'><strong>Incorrect!</strong></p><p style='font-size: 30px;'><strong>This rock is obsidian</strong></p>","0","corr_feedback","1","train","9","","","","","","","",""
"","","","","","","","","","","","html-button-response","123","2.0.0","665257","671309eee1f4753b1cdeed82","2","31","3131","","","","","","","","","<img src= ""rock_img/I_Andesite_14.jpg"" style=""width:8cm; height:5.449999999999999cm;""><p>What type of rock is this?</p>","2","class_response","1","train","10","Diorite","Andesite","14","false","3","1","",""
"","","","","","","","","","","","html-button-response","124","2.0.0","668788","671309eee1f4753b1cdeed82","2","31","3530","","","","","","","","","<img src= rock_img/I_Andesite_14.jpg style=""width:8cm; height:5.449999999999999cm;""><p style='font-size: 30px; color: red;'><strong>Incorrect!</strong></p><p style='font-size: 30px;'><strong>This rock is andesite</strong></p>","0","corr_feedback","1","train","10","","","","","","","",""
"","","","","","","","","","","","html-button-response","125","2.0.0","671984","671309eee1f4753b1cdeed82","2","31","3193","","","","","","","","","<img src= ""rock_img/I_Andesite_03.jpg"" style=""width:8cm; height:5.73cm;""><p>What type of rock is this?</p>","3","class_response","1","train","11","Gabbro","Andesite","03","false","4","1","",""
"","","","","","","","","","","","html-button-response","126","2.0.0","674968","671309eee1f4753b1cdeed82","2","31","2981","","","","","","","","","<img src= rock_img/I_Andesite_03.jpg style=""width:8cm; height:5.73cm;""><p style='font-size: 30px; color: red;'><strong>Incorrect!</strong></p><p style='font-size: 30px;'><strong>This rock is andesite</strong></p>","0","corr_feedback","1","train","11","","","","","","","",""
"","","","","","","","","","","","html-button-response","127","2.0.0","677958","671309eee1f4753b1cdeed82","2","31","2987","","","","","","","","","<img src= ""rock_img/I_Pegmatite_13.jpg"" style=""width:8cm; height:4.95cm;""><p>What type of rock is this?</p>","0","class_response","1","train","12","Andesite","Pegmatite","13","false","1","6","",""
"","","","","","","","","","","","html-button-response","128","2.0.0","680404","671309eee1f4753b1cdeed82","2","31","2444","","","","","","","","","<img src= rock_img/I_Pegmatite_13.jpg style=""width:8cm; height:4.95cm;""><p style='font-size: 30px; color: red;'><strong>Incorrect!</strong></p><p style='font-size: 30px;'><strong>This rock is pegmatite</strong></p>","0","corr_feedback","1","train","12","","","","","","","",""
"","","","","","","","","","","","html-button-response","129","2.0.0","683753","671309eee1f4753b1cdeed82","2","31","3345","","","","","","","","","<img src= ""rock_img/I_Pegmatite_13.jpg"" style=""width:8cm; height:4.95cm;""><p>What type of rock is this?</p>","5","class_response","1","train","13","Pegmatite","Pegmatite","13","true","6","6","",""
"","","","","","","","","","","","html-button-response","130","2.0.0","687252","671309eee1f4753b1cdeed82","2","31","3497","","","","","","","","","<img src= rock_img/I_Pegmatite_13.jpg style=""width:8cm; height:4.95cm;""><p style='font-size: 30px; color: green;'><strong>Correct!</strong></p><p style='font-size: 30px;'><strong>This rock is pegmatite</strong></p>","0","corr_feedback","1","train","13","","","","","","","",""
"","","","","","","","","","","","html-button-response","131","2.0.0","691116","671309eee1f4753b1cdeed82","2","31","3861","","","","","","","","","<img src= ""rock_img/I_Gabbro_09.jpg"" style=""width:8cm; height:7.279999999999999cm;""><p>What type of rock is this?</p>","1","class_response","1","train","14","Basalt","Gabbro","09","false","2","4","",""
"","","","","","","","","","","","html-button-response","132","2.0.0","700997","671309eee1f4753b1cdeed82","2","31","9878","","","","","","","","","<img src= rock_img/I_Gabbro_09.jpg style=""width:8cm; height:7.279999999999999cm;""><p style='font-size: 30px; color: red;'><strong>Incorrect!</strong></p><p style='font-size: 30px;'><strong>This rock is gabbro</strong></p>","0","corr_feedback","1","train","14","","","","","","","",""
"","","","","","","","","","","","html-button-response","133","2.0.0","704872","671309eee1f4753b1cdeed82","2","31","3872","","","","","","","","","<img src= ""rock_img/I_Diorite_07.jpg"" style=""width:8cm; height:5.239999999999999cm;""><p>What type of rock is this?</p>","5","class_response","1","train","15","Pegmatite","Diorite","07","false","6","3","",""
"","","","","","","","","","","","html-button-response","134","2.0.0","709004","671309eee1f4753b1cdeed82","2","31","4129","","","","","","","","","<img src= rock_img/I_Diorite_07.jpg style=""width:8cm; height:5.239999999999999cm;""><p style='font-size: 30px; color: red;'><strong>Incorrect!</strong></p><p style='font-size: 30px;'><strong>This rock is diorite</strong></p>","0","corr_feedback","1","train","15","","","","","","","",""
"","","","","","","","","","","","html-button-response","135","2.0.0","711529","671309eee1f4753b1cdeed82","2","31","2523","","","","","","","","","<img src= ""rock_img/I_Peridotite_12.jpg"" style=""width:8cm; height:4.54cm;""><p>What type of rock is this?</p>","5","class_response","1","train","16","Pegmatite","Peridotite","12","false","6","7","",""
"","","","","","","","","","","","html-button-response","136","2.0.0","715673","671309eee1f4753b1cdeed82","2","31","4141","","","","","","","","","<img src= rock_img/I_Peridotite_12.jpg style=""width:8cm; height:4.54cm;""><p style='font-size: 30px; color: red;'><strong>Incorrect!</strong></p><p style='font-size: 30px;'><strong>This rock is peridotite</strong></p>","0","corr_feedback","1","train","16","","","","","","","",""
"","","","","","","","","","","","html-button-response","137","2.0.0","718202","671309eee1f4753b1cdeed82","2","31","2526","","","","","","","","","<img src= ""rock_img/I_Basalt_12.jpg"" style=""width:8cm; height:6.010000000000001cm;""><p>What type of rock is this?</p>","3","class_response","1","train","17","Gabbro","Basalt","12","false","4","2","",""
"","","","","","","","","","","","html-button-response","138","2.0.0","721850","671309eee1f4753b1cdeed82","2","31","3646","","","","","","","","","<img src= rock_img/I_Basalt_12.jpg style=""width:8cm; height:6.010000000000001cm;""><p style='font-size: 30px; color: red;'><strong>Incorrect!</strong></p><p style='font-size: 30px;'><strong>This rock is basalt</strong></p>","0","corr_feedback","1","train","17","","","","","","","",""
"","","","","","","","","","","","html-button-response","139","2.0.0","723885","671309eee1f4753b1cdeed82","2","31","2032","","","","","","","","","<img src= ""rock_img/I_Obsidian_11.jpg"" style=""width:8cm; height:6.05cm;""><p>What type of rock is this?</p>","4","class_response","1","train","18","Obsidian","Obsidian","11","true","5","5","",""
"","","","","","","","","","","","html-button-response","140","2.0.0","726249","671309eee1f4753b1cdeed82","2","31","2362","","","","","","","","","<img src= rock_img/I_Obsidian_11.jpg style=""width:8cm; height:6.05cm;""><p style='font-size: 30px; color: green;'><strong>Correct!</strong></p><p style='font-size: 30px;'><strong>This rock is obsidian</strong></p>","0","corr_feedback","1","train","18","","","","","","","",""
"","","","","","","","","","","","html-button-response","141","2.0.0","729553","671309eee1f4753b1cdeed82","2","31","3301","","","","","","","","","<img src= ""rock_img/I_Peridotite_16.jpg"" style=""width:8cm; height:6.989999999999999cm;""><p>What type of rock is this?</p>","4","class_response","1","train","19","Obsidian","Peridotite","16","false","5","7","",""
"","","","","","","","","","","","html-button-response","142","2.0.0","731518","671309eee1f4753b1cdeed82","2","31","1962","","","","","","","","","<img src= rock_img/I_Peridotite_16.jpg style=""width:8cm; height:6.989999999999999cm;""><p style='font-size: 30px; color: red;'><strong>Incorrect!</strong></p><p style='font-size: 30px;'><strong>This rock is peridotite</strong></p>","0","corr_feedback","1","train","19","","","","","","","",""
"","","","","","","","","","","","html-button-response","143","2.0.0","733734","671309eee1f4753b1cdeed82","2","31","2214","","","","","","","","","<img src= ""rock_img/I_Basalt_05.jpg"" style=""width:8cm; height:8.18cm;""><p>What type of rock is this?</p>","3","class_response","1","train","20","Gabbro","Basalt","05","false","4","2","",""
"","","","","","","","","","","","html-button-response","144","2.0.0","735971","671309eee1f4753b1cdeed82","2","31","2234","","","","","","","","","<img src= rock_img/I_Basalt_05.jpg style=""width:8cm; height:8.18cm;""><p style='font-size: 30px; color: red;'><strong>Incorrect!</strong></p><p style='font-size: 30px;'><strong>This rock is basalt</strong></p>","0","corr_feedback","1","train","20","","","","","","","",""
"","","","","","","","","","","","html-button-response","145","2.0.0","742397","671309eee1f4753b1cdeed82","2","31","6422","","","","","","","","","<img src= ""rock_img/I_Gabbro_03.jpg"" style=""width:8cm; height:8.52cm;""><p>What type of rock is this?</p>","0","class_response","1","train","21","Andesite","Gabbro","03","false","1","4","",""
"","","","","","","","","","","","html-button-response","146","2.0.0","758421","671309eee1f4753b1cdeed82","2","31","16021","","","","","","","","","<img src= rock_img/I_Gabbro_03.jpg style=""width:8cm; height:8.52cm;""><p style='font-size: 30px; color: red;'><strong>Incorrect!</strong></p><p style='font-size: 30px;'><strong>This rock is gabbro</strong></p>","0","corr_feedback","1","train","21","","","","","","","",""
"","","","","","","","","","","","html-button-response","147","2.0.0","762654","671309eee1f4753b1cdeed82","2","31","4230","","","","","","","","","<img src= ""rock_img/I_Basalt_14.jpg"" style=""width:8cm; height:5.82cm;""><p>What type of rock is this?</p>","6","class_response","1","train","22","Peridotite","Basalt","14","false","7","2","",""
"","","","","","","","","","","","html-button-response","148","2.0.0","766238","671309eee1f4753b1cdeed82","2","31","3582","","","","","","","","","<img src= rock_img/I_Basalt_14.jpg style=""width:8cm; height:5.82cm;""><p style='font-size: 30px; color: red;'><strong>Incorrect!</strong></p><p style='font-size: 30px;'><strong>This rock is basalt</strong></p>","0","corr_feedback","1","train","22","","","","","","","",""
"","","","","","","","","","","","html-button-response","149","2.0.0","768337","671309eee1f4753b1cdeed82","2","31","2097","","","","","","","","","<img src= ""rock_img/I_Basalt_06.jpg"" style=""width:8cm; height:7.06cm;""><p>What type of rock is this?</p>","3","class_response","1","train","23","Gabbro","Basalt","06","false","4","2","",""
"","","","","","","","","","","","html-button-response","150","2.0.0","772340","671309eee1f4753b1cdeed82","2","31","4000","","","","","","","","","<img src= rock_img/I_Basalt_06.jpg style=""width:8cm; height:7.06cm;""><p style='font-size: 30px; color: red;'><strong>Incorrect!</strong></p><p style='font-size: 30px;'><strong>This rock is basalt</strong></p>","0","corr_feedback","1","train","23","","","","","","","",""
"","","","","","","","","","","","html-button-response","151","2.0.0","774366","671309eee1f4753b1cdeed82","2","31","2024","","","","","","","","","<img src= ""rock_img/I_Gabbro_15.jpg"" style=""width:8cm; height:6.29cm;""><p>What type of rock is this?</p>","6","class_response","1","train","24","Peridotite","Gabbro","15","false","7","4","",""
"","","","","","","","","","","","html-button-response","152","2.0.0","780593","671309eee1f4753b1cdeed82","2","31","6225","","","","","","","","","<img src= rock_img/I_Gabbro_15.jpg style=""width:8cm; height:6.29cm;""><p style='font-size: 30px; color: red;'><strong>Incorrect!</strong></p><p style='font-size: 30px;'><strong>This rock is gabbro</strong></p>","0","corr_feedback","1","train","24","","","","","","","",""
"","","","","","","","","","","","html-button-response","153","2.0.0","782997","671309eee1f4753b1cdeed82","2","31","2400","","","","","","","","","<img src= ""rock_img/I_Basalt_11.jpg"" style=""width:8cm; height:5.359999999999999cm;""><p>What type of rock is this?</p>","1","class_response","1","train","25","Basalt","Basalt","11","true","2","2","",""
"","","","","","","","","","","","html-button-response","154","2.0.0","785251","671309eee1f4753b1cdeed82","2","31","2252","","","","","","","","","<img src= rock_img/I_Basalt_11.jpg style=""width:8cm; height:5.359999999999999cm;""><p style='font-size: 30px; color: green;'><strong>Correct!</strong></p><p style='font-size: 30px;'><strong>This rock is basalt</strong></p>","0","corr_feedback","1","train","25","","","","","","","",""
"","","","","","","","","","","","html-button-response","155","2.0.0","787297","671309eee1f4753b1cdeed82","2","31","2043","","","","","","","","","<img src= ""rock_img/I_Pumice_14.jpg"" style=""width:8cm; height:6.39cm;""><p>What type of rock is this?</p>","1","class_response","1","train","26","Basalt","Pumice","14","false","2","8","",""
"","","","","","","","","","","","html-button-response","156","2.0.0","790129","671309eee1f4753b1cdeed82","2","31","2830","","","","","","","","","<img src= rock_img/I_Pumice_14.jpg style=""width:8cm; height:6.39cm;""><p style='font-size: 30px; color: red;'><strong>Incorrect!</strong></p><p style='font-size: 30px;'><strong>This rock is pumice</strong></p>","0","corr_feedback","1","train","26","","","","","","","",""
"","","","","","","","","","","","html-button-response","157","2.0.0","792532","671309eee1f4753b1cdeed82","2","31","2400","","","","","","","","","<img src= ""rock_img/I_Pumice_04.jpg"" style=""width:8cm; height:6.819999999999999cm;""><p>What type of rock is this?</p>","7","class_response","1","train","27","Pumice","Pumice","04","true","8","8","",""
"","","","","","","","","","","","html-button-response","158","2.0.0","794928","671309eee1f4753b1cdeed82","2","31","2393","","","","","","","","","<img src= rock_img/I_Pumice_04.jpg style=""width:8cm; height:6.819999999999999cm;""><p style='font-size: 30px; color: green;'><strong>Correct!</strong></p><p style='font-size: 30px;'><strong>This rock is pumice</strong></p>","0","corr_feedback","1","train","27","","","","","","","",""
"","","","","","","","","","","","html-button-response","159","2.0.0","796796","671309eee1f4753b1cdeed82","2","31","1865","","","","","","","","","<img src= ""rock_img/I_Obsidian_07.jpg"" style=""width:8cm; height:4.76cm;""><p>What type of rock is this?</p>","4","class_response","1","train","28","Obsidian","Obsidian","07","true","5","5","",""
"","","","","","","","","","","","html-button-response","160","2.0.0","798847","671309eee1f4753b1cdeed82","2","31","2049","","","","","","","","","<img src= rock_img/I_Obsidian_07.jpg style=""width:8cm; height:4.76cm;""><p style='font-size: 30px; color: green;'><strong>Correct!</strong></p><p style='font-size: 30px;'><strong>This rock is obsidian</strong></p>","0","corr_feedback","1","train","28","","","","","","","",""
"","","","","","","","","","","","html-button-response","161","2.0.0","801415","671309eee1f4753b1cdeed82","2","31","2566","","","","","","","","","<img src= ""rock_img/I_Diorite_06.jpg"" style=""width:8cm; height:6.03cm;""><p>What type of rock is this?</p>","3","class_response","1","train","29","Gabbro","Diorite","06","false","4","3","",""
"","","","","","","","","","","","html-button-response","162","2.0.0","803196","671309eee1f4753b1cdeed82","2","31","1779","","","","","","","","","<img src= rock_img/I_Diorite_06.jpg style=""width:8cm; height:6.03cm;""><p style='font-size: 30px; color: red;'><strong>Incorrect!</strong></p><p style='font-size: 30px;'><strong>This rock is diorite</strong></p>","0","corr_feedback","1","train","29","","","","","","","",""
"","","","","","","","","","","","html-button-response","163","2.0.0","805739","671309eee1f4753b1cdeed82","2","31","2541","","","","","","","","","<img src= ""rock_img/I_Peridotite_08.jpg"" style=""width:8cm; height:6.7cm;""><p>What type of rock is this?</p>","2","class_response","1","train","30","Diorite","Peridotite","08","false","3","7","",""
"","","","","","","","","","","","html-button-response","164","2.0.0","807473","671309eee1f4753b1cdeed82","2","31","1732","","","","","","","","","<img src= rock_img/I_Peridotite_08.jpg style=""width:8cm; height:6.7cm;""><p style='font-size: 30px; color: red;'><strong>Incorrect!</strong></p><p style='font-size: 30px;'><strong>This rock is peridotite</strong></p>","0","corr_feedback","1","train","30","","","","","","","",""
"","","","","","","","","","","","html-button-response","165","2.0.0","809759","671309eee1f4753b1cdeed82","2","31","2283","","","","","","","","","<img src= ""rock_img/I_Obsidian_08.jpg"" style=""width:8cm; height:7.39cm;""><p>What type of rock is this?</p>","4","class_response","1","train","31","Obsidian","Obsidian","08","true","5","5","",""
"","","","","","","","","","","","html-button-response","166","2.0.0","811660","671309eee1f4753b1cdeed82","2","31","1898","","","","","","","","","<img src= rock_img/I_Obsidian_08.jpg style=""width:8cm; height:7.39cm;""><p style='font-size: 30px; color: green;'><strong>Correct!</strong></p><p style='font-size: 30px;'><strong>This rock is obsidian</strong></p>","0","corr_feedback","1","train","31","","","","","","","",""
"","","","","","","","","","","","html-button-response","167","2.0.0","813626","671309eee1f4753b1cdeed82","2","31","1963","","","","","","","","","<img src= ""rock_img/I_Obsidian_16.jpg"" style=""width:8cm; height:9.3cm;""><p>What type of rock is this?</p>","4","class_response","1","train","32","Obsidian","Obsidian","16","true","5","5","",""
"","","","","","","","","","","","html-button-response","168","2.0.0","815301","671309eee1f4753b1cdeed82","2","31","1672","","","","","","","","","<img src= rock_img/I_Obsidian_16.jpg style=""width:8cm; height:9.3cm;""><p style='font-size: 30px; color: green;'><strong>Correct!</strong></p><p style='font-size: 30px;'><strong>This rock is obsidian</strong></p>","0","corr_feedback","1","train","32","","","","","","","",""
"","","","","","","","","","","","html-button-response","169","2.0.0","825198","671309eee1f4753b1cdeed82","2","31","9894","","","","","","","","","<img src= ""rock_img/I_Andesite_06.jpg"" style=""width:8cm; height:6.840000000000001cm;""><p>What type of rock is this?</p>","6","class_response","1","train","33","Peridotite","Andesite","06","false","7","1","",""
"","","","","","","","","","","","html-button-response","170","2.0.0","827520","671309eee1f4753b1cdeed82","2","31","2320","","","","","","","","","<img src= rock_img/I_Andesite_06.jpg style=""width:8cm; height:6.840000000000001cm;""><p style='font-size: 30px; color: red;'><strong>Incorrect!</strong></p><p style='font-size: 30px;'><strong>This rock is andesite</strong></p>","0","corr_feedback","1","train","33","","","","","","","",""
"","","","","","","","","","","","html-button-response","171","2.0.0","830897","671309eee1f4753b1cdeed82","2","31","3373","","","","","","","","","<img src= ""rock_img/I_Obsidian_04.jpg"" style=""width:8cm; height:6.930000000000001cm;""><p>What type of rock is this?</p>","4","class_response","1","train","34","Obsidian","Obsidian","04","true","5","5","",""
"","","","","","","","","","","","html-button-response","172","2.0.0","832937","671309eee1f4753b1cdeed82","2","31","2038","","","","","","","","","<img src= rock_img/I_Obsidian_04.jpg style=""width:8cm; height:6.930000000000001cm;""><p style='font-size: 30px; color: green;'><strong>Correct!</strong></p><p style='font-size: 30px;'><strong>This rock is obsidian</strong></p>","0","corr_feedback","1","train","34","","","","","","","",""
"","","","","","","","","","","","html-button-response","173","2.0.0","835733","671309eee1f4753b1cdeed82","2","31","2793","","","","","","","","","<img src= ""rock_img/I_Peridotite_04.jpg"" style=""width:8cm; height:6.680000000000001cm;""><p>What type of rock is this?</p>","5","class_response","1","train","35","Pegmatite","Peridotite","04","false","6","7","",""
"","","","","","","","","","","","html-button-response","174","2.0.0","838482","671309eee1f4753b1cdeed82","2","31","2746","","","","","","","","","<img src= rock_img/I_Peridotite_04.jpg style=""width:8cm; height:6.680000000000001cm;""><p style='font-size: 30px; color: red;'><strong>Incorrect!</strong></p><p style='font-size: 30px;'><strong>This rock is peridotite</strong></p>","0","corr_feedback","1","train","35","","","","","","","",""
"","","","","","","","","","","","html-button-response","175","2.0.0","840959","671309eee1f4753b1cdeed82","2","31","2474","","","","","","","","","<img src= ""rock_img/I_Andesite_07.jpg"" style=""width:8cm; height:5.93cm;""><p>What type of rock is this?</p>","5","class_response","1","train","36","Pegmatite","Andesite","07","false","6","1","",""
"","","","","","","","","","","","html-button-response","176","2.0.0","842661","671309eee1f4753b1cdeed82","2","31","1700","","","","","","","","","<img src= rock_img/I_Andesite_07.jpg style=""width:8cm; height:5.93cm;""><p style='font-size: 30px; color: red;'><strong>Incorrect!</strong></p><p style='font-size: 30px;'><strong>This rock is andesite</strong></p>","0","corr_feedback","1","train","36","","","","","","","",""
"","","","","","","","","","","","html-button-response","177","2.0.0","847193","671309eee1f4753b1cdeed82","2","31","4530","","","","","","","","","<img src= ""rock_img/I_Pegmatite_16.jpg"" style=""width:8cm; height:5.8cm;""><p>What type of rock is this?</p>","0","class_response","1","train","37","Andesite","Pegmatite","16","false","1","6","",""
"","","","","","","","","","","","html-button-response","178","2.0.0","849056","671309eee1f4753b1cdeed82","2","31","1861","","","","","","","","","<img src= rock_img/I_Pegmatite_16.jpg style=""width:8cm; height:5.8cm;""><p style='font-size: 30px; color: red;'><strong>Incorrect!</strong></p><p style='font-size: 30px;'><strong>This rock is pegmatite</strong></p>","0","corr_feedback","1","train","37","","","","","","","",""
"","","","","","","","","","","","html-button-response","179","2.0.0","853671","671309eee1f4753b1cdeed82","2","31","4612","","","","","","","","","<img src= ""rock_img/I_Gabbro_08.jpg"" style=""width:8cm; height:5.15cm;""><p>What type of rock is this?</p>","2","class_response","1","train","38","Diorite","Gabbro","08","false","3","4","",""
"","","","","","","","","","","","html-button-response","180","2.0.0","855790","671309eee1f4753b1cdeed82","2","31","2117","","","","","","","","","<img src= rock_img/I_Gabbro_08.jpg style=""width:8cm; height:5.15cm;""><p style='font-size: 30px; color: red;'><strong>Incorrect!</strong></p><p style='font-size: 30px;'><strong>This rock is gabbro</strong></p>","0","corr_feedback","1","train","38","","","","","","","",""
"","","","","","","","","","","","html-button-response","181","2.0.0","858727","671309eee1f4753b1cdeed82","2","31","2934","","","","","","","","","<img src= ""rock_img/I_Andesite_04.jpg"" style=""width:8cm; height:5.96cm;""><p>What type of rock is this?</p>","3","class_response","1","train","39","Gabbro","Andesite","04","false","4","1","",""
"","","","","","","","","","","","html-button-response","182","2.0.0","860426","671309eee1f4753b1cdeed82","2","31","1696","","","","","","","","","<img src= rock_img/I_Andesite_04.jpg style=""width:8cm; height:5.96cm;""><p style='font-size: 30px; color: red;'><strong>Incorrect!</strong></p><p style='font-size: 30px;'><strong>This rock is andesite</strong></p>","0","corr_feedback","1","train","39","","","","","","","",""
"","","","","","","","","","","","html-button-response","183","2.0.0","864524","671309eee1f4753b1cdeed82","2","31","4093","","","","","","","","","<img src= ""rock_img/I_Pegmatite_12.jpg"" style=""width:8cm; height:5.7cm;""><p>What type of rock is this?</p>","0","class_response","1","train","40","Andesite","Pegmatite","12","false","1","6","",""
"","","","","","","","","","","","html-button-response","184","2.0.0","866367","671309eee1f4753b1cdeed82","2","31","1841","","","","","","","","","<img src= rock_img/I_Pegmatite_12.jpg style=""width:8cm; height:5.7cm;""><p style='font-size: 30px; color: red;'><strong>Incorrect!</strong></p><p style='font-size: 30px;'><strong>This rock is pegmatite</strong></p>","0","corr_feedback","1","train","40","","","","","","","",""
"","","","","","","","","","","","html-button-response","185","2.0.0","869902","671309eee1f4753b1cdeed82","2","31","3532","","","","","","","","","<img src= ""rock_img/I_Pegmatite_09.jpg"" style=""width:8cm; height:4.03cm;""><p>What type of rock is this?</p>","1","class_response","1","train","41","Basalt","Pegmatite","09","false","2","6","",""
"","","","","","","","","","","","html-button-response","186","2.0.0","872091","671309eee1f4753b1cdeed82","2","31","2186","","","","","","","","","<img src= rock_img/I_Pegmatite_09.jpg style=""width:8cm; height:4.03cm;""><p style='font-size: 30px; color: red;'><strong>Incorrect!</strong></p><p style='font-size: 30px;'><strong>This rock is pegmatite</strong></p>","0","corr_feedback","1","train","41","","","","","","","",""
"","","","","","","","","","","","html-button-response","187","2.0.0","874423","671309eee1f4753b1cdeed82","2","31","2329","","","","","","","","","<img src= ""rock_img/I_Andesite_10.jpg"" style=""width:8cm; height:4.16cm;""><p>What type of rock is this?</p>","2","class_response","1","train","42","Diorite","Andesite","10","false","3","1","",""
"","","","","","","","","","","","html-button-response","188","2.0.0","875905","671309eee1f4753b1cdeed82","2","31","1479","","","","","","","","","<img src= rock_img/I_Andesite_10.jpg style=""width:8cm; height:4.16cm;""><p style='font-size: 30px; color: red;'><strong>Incorrect!</strong></p><p style='font-size: 30px;'><strong>This rock is andesite</strong></p>","0","corr_feedback","1","train","42","","","","","","","",""
"","","","","","","","","","","","html-button-response","189","2.0.0","878034","671309eee1f4753b1cdeed82","2","31","2126","","","","","","","","","<img src= ""rock_img/I_Diorite_13.jpg"" style=""width:8cm; height:6.29cm;""><p>What type of rock is this?</p>","5","class_response","1","train","43","Pegmatite","Diorite","13","false","6","3","",""
"","","","","","","","","","","","html-button-response","190","2.0.0","879467","671309eee1f4753b1cdeed82","2","31","1431","","","","","","","","","<img src= rock_img/I_Diorite_13.jpg style=""width:8cm; height:6.29cm;""><p style='font-size: 30px; color: red;'><strong>Incorrect!</strong></p><p style='font-size: 30px;'><strong>This rock is diorite</strong></p>","0","corr_feedback","1","train","43","","","","","","","",""
"","","","","","","","","","","","html-button-response","191","2.0.0","884734","671309eee1f4753b1cdeed82","2","31","5265","","","","","","","","","<img src= ""rock_img/I_Diorite_06.jpg"" style=""width:8cm; height:6.03cm;""><p>What type of rock is this?</p>","6","class_response","1","train","44","Peridotite","Diorite","06","false","7","3","",""
"","","","","","","","","","","","html-button-response","192","2.0.0","886265","671309eee1f4753b1cdeed82","2","31","1528","","","","","","","","","<img src= rock_img/I_Diorite_06.jpg style=""width:8cm; height:6.03cm;""><p style='font-size: 30px; color: red;'><strong>Incorrect!</strong></p><p style='font-size: 30px;'><strong>This rock is diorite</strong></p>","0","corr_feedback","1","train","44","","","","","","","",""
"","","","","","","","","","","","html-button-response","193","2.0.0","889094","671309eee1f4753b1cdeed82","2","31","2826","","","","","","","","","<img src= ""rock_img/I_Pegmatite_05.jpg"" style=""width:8cm; height:7.300000000000001cm;""><p>What type of rock is this?</p>","4","class_response","1","train","45","Obsidian","Pegmatite","05","false","5","6","",""
"","","","","","","","","","","","html-button-response","194","2.0.0","890844","671309eee1f4753b1cdeed82","2","31","1748","","","","","","","","","<img src= rock_img/I_Pegmatite_05.jpg style=""width:8cm; height:7.300000000000001cm;""><p style='font-size: 30px; color: red;'><strong>Incorrect!</strong></p><p style='font-size: 30px;'><strong>This rock is pegmatite</strong></p>","0","corr_feedback","1","train","45","","","","","","","",""
"","","","","","","","","","","","html-button-response","195","2.0.0","892827","671309eee1f4753b1cdeed82","2","31","1980","","","","","","","","","<img src= ""rock_img/I_Basalt_08.jpg"" style=""width:8cm; height:10.44cm;""><p>What type of rock is this?</p>","3","class_response","1","train","46","Gabbro","Basalt","08","false","4","2","",""
"","","","","","","","","","","","html-button-response","196","2.0.0","894794","671309eee1f4753b1cdeed82","2","31","1964","","","","","","","","","<img src= rock_img/I_Basalt_08.jpg style=""width:8cm; height:10.44cm;""><p style='font-size: 30px; color: red;'><strong>Incorrect!</strong></p><p style='font-size: 30px;'><strong>This rock is basalt</strong></p>","0","corr_feedback","1","train","46","","","","","","","",""
"","","","","","","","","","","","html-button-response","197","2.0.0","900224","671309eee1f4753b1cdeed82","2","31","5428","","","","","","","","","<img src= ""rock_img/I_Pumice_02.jpg"" style=""width:8cm; height:7.3999999999999995cm;""><p>What type of rock is this?</p>","7","class_response","1","train","47","Pumice","Pumice","02","true","8","8","",""
"","","","","","","","","","","","html-button-response","198","2.0.0","902109","671309eee1f4753b1cdeed82","2","31","1882","","","","","","","","","<img src= rock_img/I_Pumice_02.jpg style=""width:8cm; height:7.3999999999999995cm;""><p style='font-size: 30px; color: green;'><strong>Correct!</strong></p><p style='font-size: 30px;'><strong>This rock is pumice</strong></p>","0","corr_feedback","1","train","47","","","","","","","",""
"","","","","","","","","","","","html-button-response","199","2.0.0","904014","671309eee1f4753b1cdeed82","2","31","1901","","","","","","","","","<img src= ""rock_img/I_Pumice_06.jpg"" style=""width:8cm; height:6.9399999999999995cm;""><p>What type of rock is this?</p>","7","class_response","1","train","48","Pumice","Pumice","06","true","8","8","",""
"","","","","","","","","","","","html-button-response","200","2.0.0","905564","671309eee1f4753b1cdeed82","2","31","1548","","","","","","","","","<img src= rock_img/I_Pumice_06.jpg style=""width:8cm; height:6.9399999999999995cm;""><p style='font-size: 30px; color: green;'><strong>Correct!</strong></p><p style='font-size: 30px;'><strong>This rock is pumice</strong></p>","0","corr_feedback","1","train","48","","","","","","","",""
"","","","","","","","","","","","instructions","203","2.0.0","1003740","671309eee1f4753b1cdeed82","2","31","98172","","","","","","","","[{""page_index"":0,""viewing_time"":52743},{""page_index"":1,""viewing_time"":45429}]","","","","","","","","","","","","","",""
"","","","","","","","","","","","html-button-response","204","2.0.0","1005757","671309eee1f4753b1cdeed82","2","31","2015","","","","","","","","","","0","start_test","","","","","","","","","","",""
"","","","","","","","","","","","html-button-response","205","2.0.0","1007776","671309eee1f4753b1cdeed82","2","31","2015","","","","","","","","","<img src= ""rock_img/I_Obsidian_12.jpg"" style=""width:8cm; height:6.53cm;""><p>What type of rock is this?</p>","4","class_response","1","test","1","Obsidian","Obsidian","12","true","5","5","",""
"","","","","","","","","","","","html-keyboard-response","206","2.0.0","1008286","671309eee1f4753b1cdeed82","2","31","null","","","","","","","","","<p style='font-size: 30px;'><strong>Okay</strong></p>","null","neutral_feedback","1","test","1","","","","","","","",""
"","","","","","","","","","","","html-button-response","207","2.0.0","1012723","671309eee1f4753b1cdeed82","2","31","4433","","","","","","","","","<img src= ""rock_img/I_Peridotite_06.jpg"" style=""width:8cm; height:7.53cm;""><p>What type of rock is this?</p>","0","class_response","1","test","2","Andesite","Peridotite","06","false","1","7","",""
"","","","","","","","","","","","html-keyboard-response","208","2.0.0","1013241","671309eee1f4753b1cdeed82","2","31","null","","","","","","","","","<p style='font-size: 30px;'><strong>Okay</strong></p>","null","neutral_feedback","1","test","2","","","","","","","",""
"","","","","","","","","","","","html-button-response","209","2.0.0","1017054","671309eee1f4753b1cdeed82","2","31","3809","","","","","","","","","<img src= ""rock_img/I_Diorite_11.jpg"" style=""width:8cm; height:7.11cm;""><p>What type of rock is this?</p>","6","class_response","1","test","3","Peridotite","Diorite","11","false","7","3","",""
"","","","","","","","","","","","html-keyboard-response","210","2.0.0","1017564","671309eee1f4753b1cdeed82","2","31","null","","","","","","","","","<p style='font-size: 30px;'><strong>Okay</strong></p>","null","neutral_feedback","1","test","3","","","","","","","",""
"","","","","","","","","","","","html-button-response","211","2.0.0","1023252","671309eee1f4753b1cdeed82","2","31","5683","","","","","","","","","<img src= ""rock_img/I_Peridotite_15.jpg"" style=""width:8cm; height:6cm;""><p>What type of rock is this?</p>","5","class_response","1","test","4","Pegmatite","Peridotite","15","false","6","7","",""
"","","","","","","","","","","","html-keyboard-response","212","2.0.0","1023767","671309eee1f4753b1cdeed82","2","31","null","","","","","","","","","<p style='font-size: 30px;'><strong>Okay</strong></p>","null","neutral_feedback","1","test","4","","","","","","","",""
"","","","","","","","","","","","html-button-response","213","2.0.0","1027566","671309eee1f4753b1cdeed82","2","31","3794","","","","","","","","","<img src= ""rock_img/I_Diorite_02.jpg"" style=""width:8cm; height:6.27cm;""><p>What type of rock is this?</p>","2","class_response","1","test","5","Diorite","Diorite","02","true","3","3","",""
"","","","","","","","","","","","html-keyboard-response","214","2.0.0","1028069","671309eee1f4753b1cdeed82","2","31","null","","","","","","","","","<p style='font-size: 30px;'><strong>Okay</strong></p>","null","neutral_feedback","1","test","5","","","","","","","",""
"","","","","","","","","","","","html-button-response","215","2.0.0","1030018","671309eee1f4753b1cdeed82","2","31","1946","","","","","","","","","<img src= ""rock_img/I_Basalt_01.jpg"" style=""width:8cm; height:7.880000000000001cm;""><p>What type of rock is this?</p>","3","class_response","1","test","6","Gabbro","Basalt","01","false","4","2","",""
"","","","","","","","","","","","html-keyboard-response","216","2.0.0","1030526","671309eee1f4753b1cdeed82","2","31","null","","","","","","","","","<p style='font-size: 30px;'><strong>Okay</strong></p>","null","neutral_feedback","1","test","6","","","","","","","",""
"","","","","","","","","","","","html-button-response","217","2.0.0","1032912","671309eee1f4753b1cdeed82","2","31","2382","","","","","","","","","<img src= ""rock_img/I_Gabbro_01.jpg"" style=""width:8cm; height:5.21cm;""><p>What type of rock is this?</p>","1","class_response","1","test","7","Basalt","Gabbro","01","false","2","4","",""
"","","","","","","","","","","","html-keyboard-response","218","2.0.0","1033415","671309eee1f4753b1cdeed82","2","31","null","","","","","","","","","<p style='font-size: 30px;'><strong>Okay</strong></p>","null","neutral_feedback","1","test","7","","","","","","","",""
"","","","","","","","","","","","html-button-response","219","2.0.0","1035533","671309eee1f4753b1cdeed82","2","31","2113","","","","","","","","","<img src= ""rock_img/I_Gabbro_11.jpg"" style=""width:8cm; height:6.2cm;""><p>What type of rock is this?</p>","3","class_response","1","test","8","Gabbro","Gabbro","11","true","4","4","",""
"","","","","","","","","","","","html-keyboard-response","220","2.0.0","1036048","671309eee1f4753b1cdeed82","2","31","null","","","","","","","","","<p style='font-size: 30px;'><strong>Okay</strong></p>","null","neutral_feedback","1","test","8","","","","","","","",""
"","","","","","","","","","","","html-button-response","221","2.0.0","1038031","671309eee1f4753b1cdeed82","2","31","1979","","","","","","","","","<img src= ""rock_img/I_Pumice_05.jpg"" style=""width:8cm; height:7.25cm;""><p>What type of rock is this?</p>","7","class_response","1","test","9","Pumice","Pumice","05","true","8","8","",""
"","","","","","","","","","","","html-keyboard-response","222","2.0.0","1038546","671309eee1f4753b1cdeed82","2","31","null","","","","","","","","","<p style='font-size: 30px;'><strong>Okay</strong></p>","null","neutral_feedback","1","test","9","","","","","","","",""
"","","","","","","","","","","","html-button-response","223","2.0.0","1042111","671309eee1f4753b1cdeed82","2","31","3562","","","","","","","","","<img src= ""rock_img/I_Peridotite_13.jpg"" style=""width:8cm; height:7.58cm;""><p>What type of rock is this?</p>","0","class_response","1","test","10","Andesite","Peridotite","13","false","1","7","",""
"","","","","","","","","","","","html-keyboard-response","224","2.0.0","1042613","671309eee1f4753b1cdeed82","2","31","null","","","","","","","","","<p style='font-size: 30px;'><strong>Okay</strong></p>","null","neutral_feedback","1","test","10","","","","","","","",""
"","","","","","","","","","","","html-button-response","225","2.0.0","1044742","671309eee1f4753b1cdeed82","2","31","2124","","","","","","","","","<img src= ""rock_img/I_Pumice_10.jpg"" style=""width:8cm; height:7.609999999999999cm;""><p>What type of rock is this?</p>","7","class_response","1","test","11","Pumice","Pumice","10","true","8","8","",""
"","","","","","","","","","","","html-keyboard-response","226","2.0.0","1045244","671309eee1f4753b1cdeed82","2","31","null","","","","","","","","","<p style='font-size: 30px;'><strong>Okay</strong></p>","null","neutral_feedback","1","test","11","","","","","","","",""
"","","","","","","","","","","","html-button-response","227","2.0.0","1047628","671309eee1f4753b1cdeed82","2","31","2381","","","","","","","","","<img src= ""rock_img/I_Obsidian_05.jpg"" style=""width:8cm; height:6.33cm;""><p>What type of rock is this?</p>","4","class_response","1","test","12","Obsidian","Obsidian","05","true","5","5","",""
"","","","","","","","","","","","html-keyboard-response","228","2.0.0","1048132","671309eee1f4753b1cdeed82","2","31","null","","","","","","","","","<p style='font-size: 30px;'><strong>Okay</strong></p>","null","neutral_feedback","1","test","12","","","","","","","",""
"","","","","","","","","","","","html-button-response","229","2.0.0","1052413","671309eee1f4753b1cdeed82","2","31","4276","","","","","","","","","<img src= ""rock_img/I_Pumice_15.jpg"" style=""width:8cm; height:7.86cm;""><p>What type of rock is this?</p>","7","class_response","1","test","13","Pumice","Pumice","15","true","8","8","",""
"","","","","","","","","","","","html-keyboard-response","230","2.0.0","1052915","671309eee1f4753b1cdeed82","2","31","null","","","","","","","","","<p style='font-size: 30px;'><strong>Okay</strong></p>","null","neutral_feedback","1","test","13","","","","","","","",""
"","","","","","","","","","","","html-button-response","231","2.0.0","1056860","671309eee1f4753b1cdeed82","2","31","3942","","","","","","","","","<img src= ""rock_img/I_Gabbro_14.jpg"" style=""width:8cm; height:8.48cm;""><p>What type of rock is this?</p>","1","class_response","1","test","14","Basalt","Gabbro","14","false","2","4","",""
"","","","","","","","","","","","html-keyboard-response","232","2.0.0","1057362","671309eee1f4753b1cdeed82","2","31","null","","","","","","","","","<p style='font-size: 30px;'><strong>Okay</strong></p>","null","neutral_feedback","1","test","14","","","","","","","",""
"","","","","","","","","","","","html-button-response","233","2.0.0","1059214","671309eee1f4753b1cdeed82","2","31","1848","","","","","","","","","<img src= ""rock_img/I_Pegmatite_08.jpg"" style=""width:8cm; height:7.68cm;""><p>What type of rock is this?</p>","4","class_response","1","test","15","Obsidian","Pegmatite","08","false","5","6","",""
"","","","","","","","","","","","html-keyboard-response","234","2.0.0","1059715","671309eee1f4753b1cdeed82","2","31","null","","","","","","","","","<p style='font-size: 30px;'><strong>Okay</strong></p>","null","neutral_feedback","1","test","15","","","","","","","",""
"","","","","","","","","","","","html-button-response","235","2.0.0","1063834","671309eee1f4753b1cdeed82","2","31","4116","","","","","","","","","<img src= ""rock_img/I_Pegmatite_06.jpg"" style=""width:8cm; height:5.17cm;""><p>What type of rock is this?</p>","2","class_response","1","test","16","Diorite","Pegmatite","06","false","3","6","",""
"","","","","","","","","","","","html-keyboard-response","236","2.0.0","1064342","671309eee1f4753b1cdeed82","2","31","null","","","","","","","","","<p style='font-size: 30px;'><strong>Okay</strong></p>","null","neutral_feedback","1","test","16","","","","","","","",""
"","","","","","","","","","","","html-button-response","237","2.0.0","1068258","671309eee1f4753b1cdeed82","2","31","3914","","","","","","","","","<img src= ""rock_img/I_Basalt_02.jpg"" style=""width:8cm; height:6.45cm;""><p>What type of rock is this?</p>","1","class_response","1","test","17","Basalt","Basalt","02","true","2","2","",""
"","","","","","","","","","","","html-keyboard-response","238","2.0.0","1068774","671309eee1f4753b1cdeed82","2","31","null","","","","","","","","","<p style='font-size: 30px;'><strong>Okay</strong></p>","null","neutral_feedback","1","test","17","","","","","","","",""
"","","","","","","","","","","","html-button-response","239","2.0.0","1071025","671309eee1f4753b1cdeed82","2","31","2247","","","","","","","","","<img src= ""rock_img/I_Andesite_16.jpg"" style=""width:8cm; height:6.010000000000001cm;""><p>What type of rock is this?</p>","6","class_response","1","test","18","Peridotite","Andesite","16","false","7","1","",""
"","","","","","","","","","","","html-keyboard-response","240","2.0.0","1071537","671309eee1f4753b1cdeed82","2","31","null","","","","","","","","","<p style='font-size: 30px;'><strong>Okay</strong></p>","null","neutral_feedback","1","test","18","","","","","","","",""
"","","","","","","","","","","","html-button-response","241","2.0.0","1075089","671309eee1f4753b1cdeed82","2","31","3548","","","","","","","","","<img src= ""rock_img/I_Diorite_16.jpg"" style=""width:8cm; height:6.74cm;""><p>What type of rock is this?</p>","6","class_response","1","test","19","Peridotite","Diorite","16","false","7","3","",""
"","","","","","","","","","","","html-keyboard-response","242","2.0.0","1075596","671309eee1f4753b1cdeed82","2","31","null","","","","","","","","","<p style='font-size: 30px;'><strong>Okay</strong></p>","null","neutral_feedback","1","test","19","","","","","","","",""
"","","","","","","","","","","","html-button-response","243","2.0.0","1077267","671309eee1f4753b1cdeed82","2","31","1667","","","","","","","","","<img src= ""rock_img/I_Pumice_09.jpg"" style=""width:8cm; height:6.44cm;""><p>What type of rock is this?</p>","7","class_response","1","test","20","Pumice","Pumice","09","true","8","8","",""
"","","","","","","","","","","","html-keyboard-response","244","2.0.0","1077778","671309eee1f4753b1cdeed82","2","31","null","","","","","","","","","<p style='font-size: 30px;'><strong>Okay</strong></p>","null","neutral_feedback","1","test","20","","","","","","","",""
"","","","","","","","","","","","html-button-response","245","2.0.0","1079547","671309eee1f4753b1cdeed82","2","31","1764","","","","","","","","","<img src= ""rock_img/I_Obsidian_09.jpg"" style=""width:8cm; height:5cm;""><p>What type of rock is this?</p>","4","class_response","1","test","21","Obsidian","Obsidian","09","true","5","5","",""
"","","","","","","","","","","","html-keyboard-response","246","2.0.0","1080049","671309eee1f4753b1cdeed82","2","31","null","","","","","","","","","<p style='font-size: 30px;'><strong>Okay</strong></p>","null","neutral_feedback","1","test","21","","","","","","","",""
"","","","","","","","","","","","html-button-response","247","2.0.0","1083246","671309eee1f4753b1cdeed82","2","31","3193","","","","","","","","","<img src= ""rock_img/I_Pegmatite_10.jpg"" style=""width:8cm; height:4.16cm;""><p>What type of rock is this?</p>","2","class_response","1","test","22","Diorite","Pegmatite","10","false","3","6","",""
"","","","","","","","","","","","html-keyboard-response","248","2.0.0","1083758","671309eee1f4753b1cdeed82","2","31","null","","","","","","","","","<p style='font-size: 30px;'><strong>Okay</strong></p>","null","neutral_feedback","1","test","22","","","","","","","",""
"","","","","","","","","","","","html-button-response","249","2.0.0","1089295","671309eee1f4753b1cdeed82","2","31","5532","","","","","","","","","<img src= ""rock_img/I_Andesite_02.jpg"" style=""width:8cm; height:8.5cm;""><p>What type of rock is this?</p>","6","class_response","1","test","23","Peridotite","Andesite","02","false","7","1","",""
"","","","","","","","","","","","html-keyboard-response","250","2.0.0","1089806","671309eee1f4753b1cdeed82","2","31","null","","","","","","","","","<p style='font-size: 30px;'><strong>Okay</strong></p>","null","neutral_feedback","1","test","23","","","","","","","",""
"","","","","","","","","","","","html-button-response","251","2.0.0","1091909","671309eee1f4753b1cdeed82","2","31","2099","","","","","","","","","<img src= ""rock_img/I_Diorite_14.jpg"" style=""width:8cm; height:5.71cm;""><p>What type of rock is this?</p>","2","class_response","1","test","24","Diorite","Diorite","14","true","3","3","",""
"","","","","","","","","","","","html-keyboard-response","252","2.0.0","1092411","671309eee1f4753b1cdeed82","2","31","null","","","","","","","","","<p style='font-size: 30px;'><strong>Okay</strong></p>","null","neutral_feedback","1","test","24","","","","","","","",""
"","","","","","","","","","","","html-button-response","253","2.0.0","1095078","671309eee1f4753b1cdeed82","2","31","2663","","","","","","","","","<img src= ""rock_img/I_Andesite_09.jpg"" style=""width:8cm; height:6cm;""><p>What type of rock is this?</p>","1","class_response","1","test","25","Basalt","Andesite","09","false","2","1","",""
"","","","","","","","","","","","html-keyboard-response","254","2.0.0","1095587","671309eee1f4753b1cdeed82","2","31","null","","","","","","","","","<p style='font-size: 30px;'><strong>Okay</strong></p>","null","neutral_feedback","1","test","25","","","","","","","",""
"","","","","","","","","","","","html-button-response","255","2.0.0","1098080","671309eee1f4753b1cdeed82","2","31","2490","","","","","","","","","<img src= ""rock_img/I_Gabbro_05.jpg"" style=""width:8cm; height:6cm;""><p>What type of rock is this?</p>","0","class_response","1","test","26","Andesite","Gabbro","05","false","1","4","",""
"","","","","","","","","","","","html-keyboard-response","256","2.0.0","1098587","671309eee1f4753b1cdeed82","2","31","null","","","","","","","","","<p style='font-size: 30px;'><strong>Okay</strong></p>","null","neutral_feedback","1","test","26","","","","","","","",""
"","","","","","","","","","","","html-button-response","257","2.0.0","1100779","671309eee1f4753b1cdeed82","2","31","2189","","","","","","","","","<img src= ""rock_img/I_Gabbro_12.jpg"" style=""width:8cm; height:7.800000000000001cm;""><p>What type of rock is this?</p>","1","class_response","1","test","27","Basalt","Gabbro","12","false","2","4","",""
"","","","","","","","","","","","html-keyboard-response","258","2.0.0","1101290","671309eee1f4753b1cdeed82","2","31","null","","","","","","","","","<p style='font-size: 30px;'><strong>Okay</strong></p>","null","neutral_feedback","1","test","27","","","","","","","",""
"","","","","","","","","","","","html-button-response","259","2.0.0","1103196","671309eee1f4753b1cdeed82","2","31","1902","","","","","","","","","<img src= ""rock_img/I_Pumice_08.jpg"" style=""width:8cm; height:6.67cm;""><p>What type of rock is this?</p>","7","class_response","1","test","28","Pumice","Pumice","08","true","8","8","",""
"","","","","","","","","","","","html-keyboard-response","260","2.0.0","1103709","671309eee1f4753b1cdeed82","2","31","null","","","","","","","","","<p style='font-size: 30px;'><strong>Okay</strong></p>","null","neutral_feedback","1","test","28","","","","","","","",""
"","","","","","","","","","","","html-button-response","261","2.0.0","1107040","671309eee1f4753b1cdeed82","2","31","3327","","","","","","","","","<img src= ""rock_img/I_Pegmatite_07.jpg"" style=""width:8cm; height:6.7cm;""><p>What type of rock is this?</p>","2","class_response","1","test","29","Diorite","Pegmatite","07","false","3","6","",""
"","","","","","","","","","","","html-keyboard-response","262","2.0.0","1107550","671309eee1f4753b1cdeed82","2","31","null","","","","","","","","","<p style='font-size: 30px;'><strong>Okay</strong></p>","null","neutral_feedback","1","test","29","","","","","","","",""
"","","","","","","","","","","","html-button-response","263","2.0.0","1109685","671309eee1f4753b1cdeed82","2","31","2131","","","","","","","","","<img src= ""rock_img/I_Andesite_01.jpg"" style=""width:8cm; height:5.87cm;""><p>What type of rock is this?</p>","1","class_response","1","test","30","Basalt","Andesite","01","false","2","1","",""
"","","","","","","","","","","","html-keyboard-response","264","2.0.0","1110189","671309eee1f4753b1cdeed82","2","31","null","","","","","","","","","<p style='font-size: 30px;'><strong>Okay</strong></p>","null","neutral_feedback","1","test","30","","","","","","","",""
"","","","","","","","","","","","html-button-response","265","2.0.0","1111425","671309eee1f4753b1cdeed82","2","31","1233","","","","","","","","","<img src= ""rock_img/I_Gabbro_10.jpg"" style=""width:8cm; height:5.680000000000001cm;""><p>What type of rock is this?</p>","1","class_response","1","test","31","Basalt","Gabbro","10","false","2","4","",""
"","","","","","","","","","","","html-keyboard-response","266","2.0.0","1111938","671309eee1f4753b1cdeed82","2","31","null","","","","","","","","","<p style='font-size: 30px;'><strong>Okay</strong></p>","null","neutral_feedback","1","test","31","","","","","","","",""
"","","","","","","","","","","","html-button-response","267","2.0.0","1114921","671309eee1f4753b1cdeed82","2","31","2979","","","","","","","","","<img src= ""rock_img/I_Peridotite_07.jpg"" style=""width:8cm; height:4.83cm;""><p>What type of rock is this?</p>","2","class_response","1","test","32","Diorite","Peridotite","07","false","3","7","",""
"","","","","","","","","","","","html-keyboard-response","268","2.0.0","1115435","671309eee1f4753b1cdeed82","2","31","null","","","","","","","","","<p style='font-size: 30px;'><strong>Okay</strong></p>","null","neutral_feedback","1","test","32","","","","","","","",""
"","","","","","","","","","","","html-button-response","269","2.0.0","1118041","671309eee1f4753b1cdeed82","2","31","2603","","","","","","","","","<img src= ""rock_img/I_Basalt_16.jpg"" style=""width:8cm; height:7.659999999999999cm;""><p>What type of rock is this?</p>","6","class_response","1","test","33","Peridotite","Basalt","16","false","7","2","",""
"","","","","","","","","","","","html-keyboard-response","270","2.0.0","1118554","671309eee1f4753b1cdeed82","2","31","null","","","","","","","","","<p style='font-size: 30px;'><strong>Okay</strong></p>","null","neutral_feedback","1","test","33","","","","","","","",""
"","","","","","","","","","","","html-button-response","271","2.0.0","1120807","671309eee1f4753b1cdeed82","2","31","2248","","","","","","","","","<img src= ""rock_img/I_Pegmatite_11.jpg"" style=""width:8cm; height:8.14cm;""><p>What type of rock is this?</p>","0","class_response","1","test","34","Andesite","Pegmatite","11","false","1","6","",""
"","","","","","","","","","","","html-keyboard-response","272","2.0.0","1121317","671309eee1f4753b1cdeed82","2","31","null","","","","","","","","","<p style='font-size: 30px;'><strong>Okay</strong></p>","null","neutral_feedback","1","test","34","","","","","","","",""
"","","","","","","","","","","","html-button-response","273","2.0.0","1124674","671309eee1f4753b1cdeed82","2","31","3353","","","","","","","","","<img src= ""rock_img/I_Basalt_04.jpg"" style=""width:8cm; height:7.53cm;""><p>What type of rock is this?</p>","1","class_response","1","test","35","Basalt","Basalt","04","true","2","2","",""
"","","","","","","","","","","","html-keyboard-response","274","2.0.0","1125184","671309eee1f4753b1cdeed82","2","31","null","","","","","","","","","<p style='font-size: 30px;'><strong>Okay</strong></p>","null","neutral_feedback","1","test","35","","","","","","","",""
"","","","","","","","","","","","html-button-response","275","2.0.0","1127283","671309eee1f4753b1cdeed82","2","31","2095","","","","","","","","","<img src= ""rock_img/I_Diorite_08.jpg"" style=""width:8cm; height:6.37cm;""><p>What type of rock is this?</p>","2","class_response","1","test","36","Diorite","Diorite","08","true","3","3","",""
"","","","","","","","","","","","html-keyboard-response","276","2.0.0","1127796","671309eee1f4753b1cdeed82","2","31","null","","","","","","","","","<p style='font-size: 30px;'><strong>Okay</strong></p>","null","neutral_feedback","1","test","36","","","","","","","",""
"","","","","","","","","","","","html-button-response","277","2.0.0","1129630","671309eee1f4753b1cdeed82","2","31","1831","","","","","","","","","<img src= ""rock_img/I_Pegmatite_03.jpg"" style=""width:8cm; height:5.239999999999999cm;""><p>What type of rock is this?</p>","6","class_response","1","test","37","Peridotite","Pegmatite","03","false","7","6","",""
"","","","","","","","","","","","html-keyboard-response","278","2.0.0","1130132","671309eee1f4753b1cdeed82","2","31","null","","","","","","","","","<p style='font-size: 30px;'><strong>Okay</strong></p>","null","neutral_feedback","1","test","37","","","","","","","",""
"","","","","","","","","","","","html-button-response","279","2.0.0","1132033","671309eee1f4753b1cdeed82","2","31","1897","","","","","","","","","<img src= ""rock_img/I_Basalt_09.jpg"" style=""width:8cm; height:6.2cm;""><p>What type of rock is this?</p>","1","class_response","1","test","38","Basalt","Basalt","09","true","2","2","",""
"","","","","","","","","","","","html-keyboard-response","280","2.0.0","1132542","671309eee1f4753b1cdeed82","2","31","null","","","","","","","","","<p style='font-size: 30px;'><strong>Okay</strong></p>","null","neutral_feedback","1","test","38","","","","","","","",""
"","","","","","","","","","","","html-button-response","281","2.0.0","1134418","671309eee1f4753b1cdeed82","2","31","1873","","","","","","","","","<img src= ""rock_img/I_Obsidian_02.jpg"" style=""width:8cm; height:7.51cm;""><p>What type of rock is this?</p>","4","class_response","1","test","39","Obsidian","Obsidian","02","true","5","5","",""
"","","","","","","","","","","","html-keyboard-response","282","2.0.0","1134926","671309eee1f4753b1cdeed82","2","31","null","","","","","","","","","<p style='font-size: 30px;'><strong>Okay</strong></p>","null","neutral_feedback","1","test","39","","","","","","","",""
"","","","","","","","","","","","html-button-response","283","2.0.0","1138196","671309eee1f4753b1cdeed82","2","31","3267","","","","","","","","","<img src= ""rock_img/I_Peridotite_05.jpg"" style=""width:8cm; height:7.1499999999999995cm;""><p>What type of rock is this?</p>","0","class_response","1","test","40","Andesite","Peridotite","05","false","1","7","",""
"","","","","","","","","","","","html-keyboard-response","284","2.0.0","1138713","671309eee1f4753b1cdeed82","2","31","null","","","","","","","","","<p style='font-size: 30px;'><strong>Okay</strong></p>","null","neutral_feedback","1","test","40","","","","","","","",""
"","","","","","","","","","","","html-button-response","285","2.0.0","1143028","671309eee1f4753b1cdeed82","2","31","4312","","","","","","","","","<img src= ""rock_img/I_Diorite_12.jpg"" style=""width:8cm; height:4.88cm;""><p>What type of rock is this?</p>","5","class_response","1","test","41","Pegmatite","Diorite","12","false","6","3","",""
"","","","","","","","","","","","html-keyboard-response","286","2.0.0","1143539","671309eee1f4753b1cdeed82","2","31","null","","","","","","","","","<p style='font-size: 30px;'><strong>Okay</strong></p>","null","neutral_feedback","1","test","41","","","","","","","",""
"","","","","","","","","","","","html-button-response","287","2.0.0","1144645","671309eee1f4753b1cdeed82","2","31","1101","","","","","","","","","<img src= ""rock_img/I_Peridotite_10.jpg"" style=""width:8cm; height:5.390000000000001cm;""><p>What type of rock is this?</p>","5","class_response","1","test","42","Pegmatite","Peridotite","10","false","6","7","",""
"","","","","","","","","","","","html-keyboard-response","288","2.0.0","1145155","671309eee1f4753b1cdeed82","2","31","null","","","","","","","","","<p style='font-size: 30px;'><strong>Okay</strong></p>","null","neutral_feedback","1","test","42","","","","","","","",""
"","","","","","","","","","","","html-button-response","289","2.0.0","1146426","671309eee1f4753b1cdeed82","2","31","1267","","","","","","","","","<img src= ""rock_img/I_Andesite_05.jpg"" style=""width:8cm; height:4.12cm;""><p>What type of rock is this?</p>","5","class_response","1","test","43","Pegmatite","Andesite","05","false","6","1","",""
"","","","","","","","","","","","html-keyboard-response","290","2.0.0","1146928","671309eee1f4753b1cdeed82","2","31","null","","","","","","","","","<p style='font-size: 30px;'><strong>Okay</strong></p>","null","neutral_feedback","1","test","43","","","","","","","",""
"","","","","","","","","","","","html-button-response","291","2.0.0","1148914","671309eee1f4753b1cdeed82","2","31","1981","","","","","","","","","<img src= ""rock_img/I_Obsidian_06.jpg"" style=""width:8cm; height:6.8cm;""><p>What type of rock is this?</p>","4","class_response","1","test","44","Obsidian","Obsidian","06","true","5","5","",""
"","","","","","","","","","","","html-keyboard-response","292","2.0.0","1149430","671309eee1f4753b1cdeed82","2","31","null","","","","","","","","","<p style='font-size: 30px;'><strong>Okay</strong></p>","null","neutral_feedback","1","test","44","","","","","","","",""
"","","","","","","","","","","","html-button-response","293","2.0.0","1152173","671309eee1f4753b1cdeed82","2","31","2739","","","","","","","","","<img src= ""rock_img/I_Basalt_10.jpg"" style=""width:8cm; height:5.85cm;""><p>What type of rock is this?</p>","3","class_response","1","test","45","Gabbro","Basalt","10","false","4","2","",""
"","","","","","","","","","","","html-keyboard-response","294","2.0.0","1152674","671309eee1f4753b1cdeed82","2","31","null","","","","","","","","","<p style='font-size: 30px;'><strong>Okay</strong></p>","null","neutral_feedback","1","test","45","","","","","","","",""
"","","","","","","","","","","","html-button-response","295","2.0.0","1157625","671309eee1f4753b1cdeed82","2","31","4947","","","","","","","","","<img src= ""rock_img/I_Obsidian_14.jpg"" style=""width:8cm; height:7.64cm;""><p>What type of rock is this?</p>","4","class_response","1","test","46","Obsidian","Obsidian","14","true","5","5","",""
"","","","","","","","","","","","html-keyboard-response","296","2.0.0","1158135","671309eee1f4753b1cdeed82","2","31","null","","","","","","","","","<p style='font-size: 30px;'><strong>Okay</strong></p>","null","neutral_feedback","1","test","46","","","","","","","",""
"","","","","","","","","","","","html-button-response","297","2.0.0","1164201","671309eee1f4753b1cdeed82","2","31","6062","","","","","","","","","<img src= ""rock_img/I_Andesite_11.jpg"" style=""width:8cm; height:4.92cm;""><p>What type of rock is this?</p>","5","class_response","1","test","47","Pegmatite","Andesite","11","false","6","1","",""
"","","","","","","","","","","","html-keyboard-response","298","2.0.0","1164705","671309eee1f4753b1cdeed82","2","31","null","","","","","","","","","<p style='font-size: 30px;'><strong>Okay</strong></p>","null","neutral_feedback","1","test","47","","","","","","","",""
"","","","","","","","","","","","html-button-response","299","2.0.0","1166589","671309eee1f4753b1cdeed82","2","31","1880","","","","","","","","","<img src= ""rock_img/I_Pumice_16.jpg"" style=""width:8cm; height:6.79cm;""><p>What type of rock is this?</p>","7","class_response","1","test","48","Pumice","Pumice","16","true","8","8","",""
"","","","","","","","","","","","html-keyboard-response","300","2.0.0","1167105","671309eee1f4753b1cdeed82","2","31","null","","","","","","","","","<p style='font-size: 30px;'><strong>Okay</strong></p>","null","neutral_feedback","1","test","48","","","","","","","",""
"","","","","","","","","","","","html-button-response","301","2.0.0","1243075","671309eee1f4753b1cdeed82","2","31","","","","","","","","","","","","cycle_feedback","","","","","","","","","","48520.90000000596","27433.70000000298"
"","","","","","","","","","","","html-button-response","303","2.0.0","1248611","671309eee1f4753b1cdeed82","2","31","5532","","","","","","","","","","0","start_train","","","","","","","","","","",""
"","","","","","","","","","","","html-button-response","304","2.0.0","1251144","671309eee1f4753b1cdeed82","2","31","2529","","","","","","","","","<img src= ""rock_img/I_Pumice_13.jpg"" style=""width:8cm; height:8.200000000000001cm;""><p>What type of rock is this?</p>","7","class_response","2","train","1","Pumice","Pumice","13","true","8","8","",""
