"width","height","webaudio","browser","browser_version","mobile","os","fullscreen","vsync_rate","webcam","microphone","trial_type","trial_index","plugin_version","time_elapsed","subjID","condition","stimID","rt","url","success","value","timeout","failed_images","failed_audio","failed_video","view_history","stimulus","response","trialType","cycle","phase","trial","resp","cat","token","corr","resp_num","cat_num","time_fb1","time_fb2"
"1440","754","true","chrome","131.0.0","false","Mac OS","true","60.46","true","true","browser-check","0","2.0.0","1002","66a9979ad8c56c6f29446781","2","44","","","","","","","","","","","","","","","","","","","","","","",""
"","","","","","","","","","","","external-html","1","2.0.0","3915","66a9979ad8c56c6f29446781","2","44","2841","consent_form.html","","","","","","","","","","","","","","","","","","","","",""
"","","","","","","","","","","","fullscreen","2","2.0.0","6283","66a9979ad8c56c6f29446781","2","44","1364","","true","","","","","","","","","","","","","","","","","","","",""
"","","","","","","","","","","","call-function","3","2.0.0","6287","66a9979ad8c56c6f29446781","2","44","","","","{}","","","","","","","","","","","","","","","","","","",""
"","","","","","","","","","","","preload","4","2.0.0","7452","66a9979ad8c56c6f29446781","2","44","","","true","","false","[]","[]","[]","","","","","","","","","","","","","","",""
"","","","","","","","","","","","instructions","5","2.0.0","22314","66a9979ad8c56c6f29446781","2","44","14861","","","","","","","","[{""page_index"":0,""viewing_time"":4611},{""page_index"":1,""viewing_time"":5349},{""page_index"":2,""viewing_time"":4901}]","","","","","","","","","","","","","",""
"","","","","","","","","","","","html-button-response","6","2.0.0","24131","66a9979ad8c56c6f29446781","2","44","1813","","","","","","","","","","0","start_test","","","","","","","","","","",""
"","","","","","","","","","","","html-button-response","7","2.0.0","29199","66a9979ad8c56c6f29446781","2","44","5065","","","","","","","","","<img src= ""rock_img/I_Pumice_13.jpg"" style=""width:8cm; height:8.200000000000001cm;""><p>What type of rock is this?</p>","2","class_response","0","test","1","Diorite","Pumice","13","false","3","8","",""
"","","","","","","","","","","","html-keyboard-response","8","2.0.0","29703","66a9979ad8c56c6f29446781","2","44","null","","","","","","","","","<p style='font-size: 30px;'><strong>Okay</strong></p>","null","neutral_feedback","0","test","1","","","","","","","",""
"","","","","","","","","","","","html-button-response","9","2.0.0","32315","66a9979ad8c56c6f29446781","2","44","2608","","","","","","","","","<img src= ""rock_img/I_Diorite_02.jpg"" style=""width:8cm; height:6.27cm;""><p>What type of rock is this?</p>","4","class_response","0","test","2","Obsidian","Diorite","02","false","5","3","",""
"","","","","","","","","","","","html-keyboard-response","10","2.0.0","32818","66a9979ad8c56c6f29446781","2","44","null","","","","","","","","","<p style='font-size: 30px;'><strong>Okay</strong></p>","null","neutral_feedback","0","test","2","","","","","","","",""
"","","","","","","","","","","","html-button-response","11","2.0.0","48847","66a9979ad8c56c6f29446781","2","44","16027","","","","","","","","","<img src= ""rock_img/I_Andesite_16.jpg"" style=""width:8cm; height:6.010000000000001cm;""><p>What type of rock is this?</p>","1","class_response","0","test","3","Basalt","Andesite","16","false","2","1","",""
"","","","","","","","","","","","html-keyboard-response","12","2.0.0","49350","66a9979ad8c56c6f29446781","2","44","null","","","","","","","","","<p style='font-size: 30px;'><strong>Okay</strong></p>","null","neutral_feedback","0","test","3","","","","","","","",""
"","","","","","","","","","","","html-button-response","13","2.0.0","52112","66a9979ad8c56c6f29446781","2","44","2760","","","","","","","","","<img src= ""rock_img/I_Gabbro_12.jpg"" style=""width:8cm; height:7.800000000000001cm;""><p>What type of rock is this?</p>","1","class_response","0","test","4","Basalt","Gabbro","12","false","2","4","",""
"","","","","","","","","","","","html-keyboard-response","14","2.0.0","52613","66a9979ad8c56c6f29446781","2","44","null","","","","","","","","","<p style='font-size: 30px;'><strong>Okay</strong></p>","null","neutral_feedback","0","test","4","","","","","","","",""
"","","","","","","","","","","","html-button-response","15","2.0.0","55566","66a9979ad8c56c6f29446781","2","44","2950","","","","","","","","","<img src= ""rock_img/I_Basalt_02.jpg"" style=""width:8cm; height:6.45cm;""><p>What type of rock is this?</p>","7","class_response","0","test","5","Pumice","Basalt","02","false","8","2","",""
"","","","","","","","","","","","html-keyboard-response","16","2.0.0","56068","66a9979ad8c56c6f29446781","2","44","null","","","","","","","","","<p style='font-size: 30px;'><strong>Okay</strong></p>","null","neutral_feedback","0","test","5","","","","","","","",""
"","","","","","","","","","","","html-button-response","17","2.0.0","58014","66a9979ad8c56c6f29446781","2","44","1943","","","","","","","","","<img src= ""rock_img/I_Gabbro_16.jpg"" style=""width:8cm; height:6.44cm;""><p>What type of rock is this?</p>","5","class_response","0","test","6","Pegmatite","Gabbro","16","false","6","4","",""
"","","","","","","","","","","","html-keyboard-response","18","2.0.0","58516","66a9979ad8c56c6f29446781","2","44","null","","","","","","","","","<p style='font-size: 30px;'><strong>Okay</strong></p>","null","neutral_feedback","0","test","6","","","","","","","",""
"","","","","","","","","","","","html-button-response","19","2.0.0","59680","66a9979ad8c56c6f29446781","2","44","1162","","","","","","","","","<img src= ""rock_img/I_Diorite_16.jpg"" style=""width:8cm; height:6.74cm;""><p>What type of rock is this?</p>","3","class_response","0","test","7","Gabbro","Diorite","16","false","4","3","",""
"","","","","","","","","","","","html-keyboard-response","20","2.0.0","60183","66a9979ad8c56c6f29446781","2","44","null","","","","","","","","","<p style='font-size: 30px;'><strong>Okay</strong></p>","null","neutral_feedback","0","test","7","","","","","","","",""
"","","","","","","","","","","","html-button-response","21","2.0.0","63364","66a9979ad8c56c6f29446781","2","44","3178","","","","","","","","","<img src= ""rock_img/I_Pumice_15.jpg"" style=""width:8cm; height:7.86cm;""><p>What type of rock is this?</p>","2","class_response","0","test","8","Diorite","Pumice","15","false","3","8","",""
"","","","","","","","","","","","html-keyboard-response","22","2.0.0","63867","66a9979ad8c56c6f29446781","2","44","null","","","","","","","","","<p style='font-size: 30px;'><strong>Okay</strong></p>","null","neutral_feedback","0","test","8","","","","","","","",""
"","","","","","","","","","","","html-button-response","23","2.0.0","67750","66a9979ad8c56c6f29446781","2","44","3879","","","","","","","","","<img src= ""rock_img/I_Pumice_10.jpg"" style=""width:8cm; height:7.609999999999999cm;""><p>What type of rock is this?</p>","7","class_response","0","test","9","Pumice","Pumice","10","true","8","8","",""
"","","","","","","","","","","","html-keyboard-response","24","2.0.0","68252","66a9979ad8c56c6f29446781","2","44","null","","","","","","","","","<p style='font-size: 30px;'><strong>Okay</strong></p>","null","neutral_feedback","0","test","9","","","","","","","",""
"","","","","","","","","","","","html-button-response","25","2.0.0","69880","66a9979ad8c56c6f29446781","2","44","1625","","","","","","","","","<img src= ""rock_img/I_Obsidian_07.jpg"" style=""width:8cm; height:4.76cm;""><p>What type of rock is this?</p>","3","class_response","0","test","10","Gabbro","Obsidian","07","false","4","5","",""
"","","","","","","","","","","","html-keyboard-response","26","2.0.0","70382","66a9979ad8c56c6f29446781","2","44","null","","","","","","","","","<p style='font-size: 30px;'><strong>Okay</strong></p>","null","neutral_feedback","0","test","10","","","","","","","",""
"","","","","","","","","","","","html-button-response","27","2.0.0","72198","66a9979ad8c56c6f29446781","2","44","1812","","","","","","","","","<img src= ""rock_img/I_Peridotite_15.jpg"" style=""width:8cm; height:6cm;""><p>What type of rock is this?</p>","6","class_response","0","test","11","Peridotite","Peridotite","15","true","7","7","",""
"","","","","","","","","","","","html-keyboard-response","28","2.0.0","72700","66a9979ad8c56c6f29446781","2","44","null","","","","","","","","","<p style='font-size: 30px;'><strong>Okay</strong></p>","null","neutral_feedback","0","test","11","","","","","","","",""
"","","","","","","","","","","","html-button-response","29","2.0.0","73815","66a9979ad8c56c6f29446781","2","44","1111","","","","","","","","","<img src= ""rock_img/I_Peridotite_02.jpg"" style=""width:8cm; height:5.859999999999999cm;""><p>What type of rock is this?</p>","6","class_response","0","test","12","Peridotite","Peridotite","02","true","7","7","",""
"","","","","","","","","","","","html-keyboard-response","30","2.0.0","74317","66a9979ad8c56c6f29446781","2","44","null","","","","","","","","","<p style='font-size: 30px;'><strong>Okay</strong></p>","null","neutral_feedback","0","test","12","","","","","","","",""
"","","","","","","","","","","","html-button-response","31","2.0.0","75598","66a9979ad8c56c6f29446781","2","44","1278","","","","","","","","","<img src= ""rock_img/I_Basalt_14.jpg"" style=""width:8cm; height:5.82cm;""><p>What type of rock is this?</p>","5","class_response","0","test","13","Pegmatite","Basalt","14","false","6","2","",""
"","","","","","","","","","","","html-keyboard-response","32","2.0.0","76101","66a9979ad8c56c6f29446781","2","44","null","","","","","","","","","<p style='font-size: 30px;'><strong>Okay</strong></p>","null","neutral_feedback","0","test","13","","","","","","","",""
"","","","","","","","","","","","html-button-response","33","2.0.0","77415","66a9979ad8c56c6f29446781","2","44","1311","","","","","","","","","<img src= ""rock_img/I_Basalt_08.jpg"" style=""width:8cm; height:10.44cm;""><p>What type of rock is this?</p>","4","class_response","0","test","14","Obsidian","Basalt","08","false","5","2","",""
"","","","","","","","","","","","html-keyboard-response","34","2.0.0","77917","66a9979ad8c56c6f29446781","2","44","null","","","","","","","","","<p style='font-size: 30px;'><strong>Okay</strong></p>","null","neutral_feedback","0","test","14","","","","","","","",""
"","","","","","","","","","","","html-button-response","35","2.0.0","80331","66a9979ad8c56c6f29446781","2","44","2411","","","","","","","","","<img src= ""rock_img/I_Obsidian_16.jpg"" style=""width:8cm; height:9.3cm;""><p>What type of rock is this?</p>","4","class_response","0","test","15","Obsidian","Obsidian","16","true","5","5","",""
"","","","","","","","","","","","html-keyboard-response","36","2.0.0","80833","66a9979ad8c56c6f29446781","2","44","null","","","","","","","","","<p style='font-size: 30px;'><strong>Okay</strong></p>","null","neutral_feedback","0","test","15","","","","","","","",""
"","","","","","","","","","","","html-button-response","37","2.0.0","82447","66a9979ad8c56c6f29446781","2","44","1611","","","","","","","","","<img src= ""rock_img/I_Pegmatite_10.jpg"" style=""width:8cm; height:4.16cm;""><p>What type of rock is this?</p>","0","class_response","0","test","16","Andesite","Pegmatite","10","false","1","6","",""
"","","","","","","","","","","","html-keyboard-response","38","2.0.0","82950","66a9979ad8c56c6f29446781","2","44","null","","","","","","","","","<p style='font-size: 30px;'><strong>Okay</strong></p>","null","neutral_feedback","0","test","16","","","","","","","",""
"","","","","","","","","","","","html-button-response","39","2.0.0","84014","66a9979ad8c56c6f29446781","2","44","1062","","","","","","","","","<img src= ""rock_img/I_Peridotite_13.jpg"" style=""width:8cm; height:7.58cm;""><p>What type of rock is this?</p>","0","class_response","0","test","17","Andesite","Peridotite","13","false","1","7","",""
"","","","","","","","","","","","html-keyboard-response","40","2.0.0","84516","66a9979ad8c56c6f29446781","2","44","null","","","","","","","","","<p style='font-size: 30px;'><strong>Okay</strong></p>","null","neutral_feedback","0","test","17","","","","","","","",""
"","","","","","","","","","","","html-button-response","41","2.0.0","86648","66a9979ad8c56c6f29446781","2","44","2129","","","","","","","","","<img src= ""rock_img/I_Pegmatite_07.jpg"" style=""width:8cm; height:6.7cm;""><p>What type of rock is this?</p>","3","class_response","0","test","18","Gabbro","Pegmatite","07","false","4","6","",""
"","","","","","","","","","","","html-keyboard-response","42","2.0.0","87150","66a9979ad8c56c6f29446781","2","44","null","","","","","","","","","<p style='font-size: 30px;'><strong>Okay</strong></p>","null","neutral_feedback","0","test","18","","","","","","","",""
"","","","","","","","","","","","html-button-response","43","2.0.0","88548","66a9979ad8c56c6f29446781","2","44","1394","","","","","","","","","<img src= ""rock_img/I_Andesite_03.jpg"" style=""width:8cm; height:5.73cm;""><p>What type of rock is this?</p>","7","class_response","0","test","19","Pumice","Andesite","03","false","8","1","",""
"","","","","","","","","","","","html-keyboard-response","44","2.0.0","89051","66a9979ad8c56c6f29446781","2","44","null","","","","","","","","","<p style='font-size: 30px;'><strong>Okay</strong></p>","null","neutral_feedback","0","test","19","","","","","","","",""
"","","","","","","","","","","","html-button-response","45","2.0.0","90481","66a9979ad8c56c6f29446781","2","44","1426","","","","","","","","","<img src= ""rock_img/I_Obsidian_04.jpg"" style=""width:8cm; height:6.930000000000001cm;""><p>What type of rock is this?</p>","4","class_response","0","test","20","Obsidian","Obsidian","04","true","5","5","",""
"","","","","","","","","","","","html-keyboard-response","46","2.0.0","90983","66a9979ad8c56c6f29446781","2","44","null","","","","","","","","","<p style='font-size: 30px;'><strong>Okay</strong></p>","null","neutral_feedback","0","test","20","","","","","","","",""
"","","","","","","","","","","","html-button-response","47","2.0.0","91980","66a9979ad8c56c6f29446781","2","44","994","","","","","","","","","<img src= ""rock_img/I_Pegmatite_08.jpg"" style=""width:8cm; height:7.68cm;""><p>What type of rock is this?</p>","4","class_response","0","test","21","Obsidian","Pegmatite","08","false","5","6","",""
"","","","","","","","","","","","html-keyboard-response","48","2.0.0","92483","66a9979ad8c56c6f29446781","2","44","null","","","","","","","","","<p style='font-size: 30px;'><strong>Okay</strong></p>","null","neutral_feedback","0","test","21","","","","","","","",""
"","","","","","","","","","","","html-button-response","49","2.0.0","93231","66a9979ad8c56c6f29446781","2","44","745","","","","","","","","","<img src= ""rock_img/I_Obsidian_10.jpg"" style=""width:8cm; height:6.260000000000001cm;""><p>What type of rock is this?</p>","4","class_response","0","test","22","Obsidian","Obsidian","10","true","5","5","",""
"","","","","","","","","","","","html-keyboard-response","50","2.0.0","93734","66a9979ad8c56c6f29446781","2","44","null","","","","","","","","","<p style='font-size: 30px;'><strong>Okay</strong></p>","null","neutral_feedback","0","test","22","","","","","","","",""
"","","","","","","","","","","","html-button-response","51","2.0.0","95914","66a9979ad8c56c6f29446781","2","44","2177","","","","","","","","","<img src= ""rock_img/I_Basalt_09.jpg"" style=""width:8cm; height:6.2cm;""><p>What type of rock is this?</p>","1","class_response","0","test","23","Basalt","Basalt","09","true","2","2","",""
"","","","","","","","","","","","html-keyboard-response","52","2.0.0","96417","66a9979ad8c56c6f29446781","2","44","null","","","","","","","","","<p style='font-size: 30px;'><strong>Okay</strong></p>","null","neutral_feedback","0","test","23","","","","","","","",""
"","","","","","","","","","","","html-button-response","53","2.0.0","97781","66a9979ad8c56c6f29446781","2","44","1361","","","","","","","","","<img src= ""rock_img/I_Pumice_14.jpg"" style=""width:8cm; height:6.39cm;""><p>What type of rock is this?</p>","3","class_response","0","test","24","Gabbro","Pumice","14","false","4","8","",""
"","","","","","","","","","","","html-keyboard-response","54","2.0.0","98284","66a9979ad8c56c6f29446781","2","44","null","","","","","","","","","<p style='font-size: 30px;'><strong>Okay</strong></p>","null","neutral_feedback","0","test","24","","","","","","","",""
"","","","","","","","","","","","html-button-response","55","2.0.0","100982","66a9979ad8c56c6f29446781","2","44","2695","","","","","","","","","<img src= ""rock_img/I_Pegmatite_03.jpg"" style=""width:8cm; height:5.239999999999999cm;""><p>What type of rock is this?</p>","6","class_response","0","test","25","Peridotite","Pegmatite","03","false","7","6","",""
"","","","","","","","","","","","html-keyboard-response","56","2.0.0","101484","66a9979ad8c56c6f29446781","2","44","null","","","","","","","","","<p style='font-size: 30px;'><strong>Okay</strong></p>","null","neutral_feedback","0","test","25","","","","","","","",""
"","","","","","","","","","","","html-button-response","57","2.0.0","102481","66a9979ad8c56c6f29446781","2","44","994","","","","","","","","","<img src= ""rock_img/I_Andesite_07.jpg"" style=""width:8cm; height:5.93cm;""><p>What type of rock is this?</p>","6","class_response","0","test","26","Peridotite","Andesite","07","false","7","1","",""
"","","","","","","","","","","","html-keyboard-response","58","2.0.0","102984","66a9979ad8c56c6f29446781","2","44","null","","","","","","","","","<p style='font-size: 30px;'><strong>Okay</strong></p>","null","neutral_feedback","0","test","26","","","","","","","",""
"","","","","","","","","","","","html-button-response","59","2.0.0","104747","66a9979ad8c56c6f29446781","2","44","1760","","","","","","","","","<img src= ""rock_img/I_Gabbro_14.jpg"" style=""width:8cm; height:8.48cm;""><p>What type of rock is this?</p>","3","class_response","0","test","27","Gabbro","Gabbro","14","true","4","4","",""
"","","","","","","","","","","","html-keyboard-response","60","2.0.0","105249","66a9979ad8c56c6f29446781","2","44","null","","","","","","","","","<p style='font-size: 30px;'><strong>Okay</strong></p>","null","neutral_feedback","0","test","27","","","","","","","",""
"","","","","","","","","","","","html-button-response","61","2.0.0","106698","66a9979ad8c56c6f29446781","2","44","1446","","","","","","","","","<img src= ""rock_img/I_Diorite_13.jpg"" style=""width:8cm; height:6.29cm;""><p>What type of rock is this?</p>","6","class_response","0","test","28","Peridotite","Diorite","13","false","7","3","",""
"","","","","","","","","","","","html-keyboard-response","62","2.0.0","107200","66a9979ad8c56c6f29446781","2","44","null","","","","","","","","","<p style='font-size: 30px;'><strong>Okay</strong></p>","null","neutral_feedback","0","test","28","","","","","","","",""
"","","","","","","","","","","","html-button-response","63","2.0.0","108047","66a9979ad8c56c6f29446781","2","44","844","","","","","","","","","<img src= ""rock_img/I_Peridotite_14.jpg"" style=""width:8cm; height:5.3cm;""><p>What type of rock is this?</p>","6","class_response","0","test","29","Peridotite","Peridotite","14","true","7","7","",""
"","","","","","","","","","","","html-keyboard-response","64","2.0.0","108550","66a9979ad8c56c6f29446781","2","44","null","","","","","","","","","<p style='font-size: 30px;'><strong>Okay</strong></p>","null","neutral_feedback","0","test","29","","","","","","","",""
"","","","","","","","","","","","html-button-response","65","2.0.0","109714","66a9979ad8c56c6f29446781","2","44","1161","","","","","","","","","<img src= ""rock_img/I_Basalt_12.jpg"" style=""width:8cm; height:6.010000000000001cm;""><p>What type of rock is this?</p>","7","class_response","0","test","30","Pumice","Basalt","12","false","8","2","",""
"","","","","","","","","","","","html-keyboard-response","66","2.0.0","110217","66a9979ad8c56c6f29446781","2","44","null","","","","","","","","","<p style='font-size: 30px;'><strong>Okay</strong></p>","null","neutral_feedback","0","test","30","","","","","","","",""
"","","","","","","","","","","","html-button-response","67","2.0.0","112214","66a9979ad8c56c6f29446781","2","44","1996","","","","","","","","","<img src= ""rock_img/I_Diorite_14.jpg"" style=""width:8cm; height:5.71cm;""><p>What type of rock is this?</p>","1","class_response","0","test","31","Basalt","Diorite","14","false","2","3","",""
"","","","","","","","","","","","html-keyboard-response","68","2.0.0","112717","66a9979ad8c56c6f29446781","2","44","null","","","","","","","","","<p style='font-size: 30px;'><strong>Okay</strong></p>","null","neutral_feedback","0","test","31","","","","","","","",""
"","","","","","","","","","","","html-button-response","69","2.0.0","113832","66a9979ad8c56c6f29446781","2","44","1112","","","","","","","","","<img src= ""rock_img/I_Gabbro_09.jpg"" style=""width:8cm; height:7.279999999999999cm;""><p>What type of rock is this?</p>","4","class_response","0","test","32","Obsidian","Gabbro","09","false","5","4","",""
"","","","","","","","","","","","html-keyboard-response","70","2.0.0","114335","66a9979ad8c56c6f29446781","2","44","null","","","","","","","","","<p style='font-size: 30px;'><strong>Okay</strong></p>","null","neutral_feedback","0","test","32","","","","","","","",""
"","","","","","","","","","","","html-button-response","71","2.0.0","116480","66a9979ad8c56c6f29446781","2","44","2142","","","","","","","","","<img src= ""rock_img/I_Pumice_08.jpg"" style=""width:8cm; height:6.67cm;""><p>What type of rock is this?</p>","7","class_response","0","test","33","Pumice","Pumice","08","true","8","8","",""
"","","","","","","","","","","","html-keyboard-response","72","2.0.0","116983","66a9979ad8c56c6f29446781","2","44","null","","","","","","","","","<p style='font-size: 30px;'><strong>Okay</strong></p>","null","neutral_feedback","0","test","33","","","","","","","",""
"","","","","","","","","","","","html-button-response","73","2.0.0","118014","66a9979ad8c56c6f29446781","2","44","1028","","","","","","","","","<img src= ""rock_img/I_Basalt_10.jpg"" style=""width:8cm; height:5.85cm;""><p>What type of rock is this?</p>","4","class_response","0","test","34","Obsidian","Basalt","10","false","5","2","",""
"","","","","","","","","","","","html-keyboard-response","74","2.0.0","118517","66a9979ad8c56c6f29446781","2","44","null","","","","","","","","","<p style='font-size: 30px;'><strong>Okay</strong></p>","null","neutral_feedback","0","test","34","","","","","","","",""
"","","","","","","","","","","","html-button-response","75","2.0.0","119664","66a9979ad8c56c6f29446781","2","44","1144","","","","","","","","","<img src= ""rock_img/I_Andesite_04.jpg"" style=""width:8cm; height:5.96cm;""><p>What type of rock is this?</p>","5","class_response","0","test","35","Pegmatite","Andesite","04","false","6","1","",""
"","","","","","","","","","","","html-keyboard-response","76","2.0.0","120167","66a9979ad8c56c6f29446781","2","44","null","","","","","","","","","<p style='font-size: 30px;'><strong>Okay</strong></p>","null","neutral_feedback","0","test","35","","","","","","","",""
"","","","","","","","","","","","html-button-response","77","2.0.0","121597","66a9979ad8c56c6f29446781","2","44","1428","","","","","","","","","<img src= ""rock_img/I_Gabbro_05.jpg"" style=""width:8cm; height:6cm;""><p>What type of rock is this?</p>","1","class_response","0","test","36","Basalt","Gabbro","05","false","2","4","",""
"","","","","","","","","","","","html-keyboard-response","78","2.0.0","122100","66a9979ad8c56c6f29446781","2","44","null","","","","","","","","","<p style='font-size: 30px;'><strong>Okay</strong></p>","null","neutral_feedback","0","test","36","","","","","","","",""
"","","","","","","","","","","","html-button-response","79","2.0.0","123014","66a9979ad8c56c6f29446781","2","44","911","","","","","","","","","<img src= ""rock_img/I_Andesite_06.jpg"" style=""width:8cm; height:6.840000000000001cm;""><p>What type of rock is this?</p>","1","class_response","0","test","37","Basalt","Andesite","06","false","2","1","",""
"","","","","","","","","","","","html-keyboard-response","80","2.0.0","123516","66a9979ad8c56c6f29446781","2","44","null","","","","","","","","","<p style='font-size: 30px;'><strong>Okay</strong></p>","null","neutral_feedback","0","test","37","","","","","","","",""
"","","","","","","","","","","","html-button-response","81","2.0.0","124964","66a9979ad8c56c6f29446781","2","44","1445","","","","","","","","","<img src= ""rock_img/I_Peridotite_16.jpg"" style=""width:8cm; height:6.989999999999999cm;""><p>What type of rock is this?</p>","4","class_response","0","test","38","Obsidian","Peridotite","16","false","5","7","",""
"","","","","","","","","","","","html-keyboard-response","82","2.0.0","125467","66a9979ad8c56c6f29446781","2","44","null","","","","","","","","","<p style='font-size: 30px;'><strong>Okay</strong></p>","null","neutral_feedback","0","test","38","","","","","","","",""
"","","","","","","","","","","","html-button-response","83","2.0.0","126698","66a9979ad8c56c6f29446781","2","44","1228","","","","","","","","","<img src= ""rock_img/I_Gabbro_13.jpg"" style=""width:8cm; height:5.08cm;""><p>What type of rock is this?</p>","3","class_response","0","test","39","Gabbro","Gabbro","13","true","4","4","",""
"","","","","","","","","","","","html-keyboard-response","84","2.0.0","127200","66a9979ad8c56c6f29446781","2","44","null","","","","","","","","","<p style='font-size: 30px;'><strong>Okay</strong></p>","null","neutral_feedback","0","test","39","","","","","","","",""
"","","","","","","","","","","","html-button-response","85","2.0.0","128381","66a9979ad8c56c6f29446781","2","44","1178","","","","","","","","","<img src= ""rock_img/I_Obsidian_14.jpg"" style=""width:8cm; height:7.64cm;""><p>What type of rock is this?</p>","4","class_response","0","test","40","Obsidian","Obsidian","14","true","5","5","",""
"","","","","","","","","","","","html-keyboard-response","86","2.0.0","128884","66a9979ad8c56c6f29446781","2","44","null","","","","","","","","","<p style='font-size: 30px;'><strong>Okay</strong></p>","null","neutral_feedback","0","test","40","","","","","","","",""
"","","","","","","","","","","","html-button-response","87","2.0.0","129797","66a9979ad8c56c6f29446781","2","44","910","","","","","","","","","<img src= ""rock_img/I_Obsidian_05.jpg"" style=""width:8cm; height:6.33cm;""><p>What type of rock is this?</p>","4","class_response","0","test","41","Obsidian","Obsidian","05","true","5","5","",""
"","","","","","","","","","","","html-keyboard-response","88","2.0.0","130299","66a9979ad8c56c6f29446781","2","44","null","","","","","","","","","<p style='font-size: 30px;'><strong>Okay</strong></p>","null","neutral_feedback","0","test","41","","","","","","","",""
"","","","","","","","","","","","html-button-response","89","2.0.0","132297","66a9979ad8c56c6f29446781","2","44","1995","","","","","","","","","<img src= ""rock_img/I_Pegmatite_12.jpg"" style=""width:8cm; height:5.7cm;""><p>What type of rock is this?</p>","0","class_response","0","test","42","Andesite","Pegmatite","12","false","1","6","",""
"","","","","","","","","","","","html-keyboard-response","90","2.0.0","132800","66a9979ad8c56c6f29446781","2","44","null","","","","","","","","","<p style='font-size: 30px;'><strong>Okay</strong></p>","null","neutral_feedback","0","test","42","","","","","","","",""
"","","","","","","","","","","","html-button-response","91","2.0.0","133680","66a9979ad8c56c6f29446781","2","44","878","","","","","","","","","<img src= ""rock_img/I_Pegmatite_15.jpg"" style=""width:8cm; height:6cm;""><p>What type of rock is this?</p>","0","class_response","0","test","43","Andesite","Pegmatite","15","false","1","6","",""
"","","","","","","","","","","","html-keyboard-response","92","2.0.0","134183","66a9979ad8c56c6f29446781","2","44","null","","","","","","","","","<p style='font-size: 30px;'><strong>Okay</strong></p>","null","neutral_feedback","0","test","43","","","","","","","",""
"","","","","","","","","","","","html-button-response","93","2.0.0","135764","66a9979ad8c56c6f29446781","2","44","1578","","","","","","","","","<img src= ""rock_img/I_Peridotite_07.jpg"" style=""width:8cm; height:4.83cm;""><p>What type of rock is this?</p>","6","class_response","0","test","44","Peridotite","Peridotite","07","true","7","7","",""
"","","","","","","","","","","","html-keyboard-response","94","2.0.0","136267","66a9979ad8c56c6f29446781","2","44","null","","","","","","","","","<p style='font-size: 30px;'><strong>Okay</strong></p>","null","neutral_feedback","0","test","44","","","","","","","",""
"","","","","","","","","","","","html-button-response","95","2.0.0","137397","66a9979ad8c56c6f29446781","2","44","1127","","","","","","","","","<img src= ""rock_img/I_Diorite_06.jpg"" style=""width:8cm; height:6.03cm;""><p>What type of rock is this?</p>","5","class_response","0","test","45","Pegmatite","Diorite","06","false","6","3","",""
"","","","","","","","","","","","html-keyboard-response","96","2.0.0","137899","66a9979ad8c56c6f29446781","2","44","null","","","","","","","","","<p style='font-size: 30px;'><strong>Okay</strong></p>","null","neutral_feedback","0","test","45","","","","","","","",""
"","","","","","","","","","","","html-button-response","97","2.0.0","139431","66a9979ad8c56c6f29446781","2","44","1528","","","","","","","","","<img src= ""rock_img/I_Pumice_04.jpg"" style=""width:8cm; height:6.819999999999999cm;""><p>What type of rock is this?</p>","7","class_response","0","test","46","Pumice","Pumice","04","true","8","8","",""
"","","","","","","","","","","","html-keyboard-response","98","2.0.0","139934","66a9979ad8c56c6f29446781","2","44","null","","","","","","","","","<p style='font-size: 30px;'><strong>Okay</strong></p>","null","neutral_feedback","0","test","46","","","","","","","",""
"","","","","","","","","","","","html-button-response","99","2.0.0","140664","66a9979ad8c56c6f29446781","2","44","727","","","","","","","","","<img src= ""rock_img/I_Diorite_15.jpg"" style=""width:8cm; height:5.54cm;""><p>What type of rock is this?</p>","7","class_response","0","test","47","Pumice","Diorite","15","false","8","3","",""
"","","","","","","","","","","","html-keyboard-response","100","2.0.0","141166","66a9979ad8c56c6f29446781","2","44","null","","","","","","","","","<p style='font-size: 30px;'><strong>Okay</strong></p>","null","neutral_feedback","0","test","47","","","","","","","",""
"","","","","","","","","","","","html-button-response","101","2.0.0","141998","66a9979ad8c56c6f29446781","2","44","829","","","","","","","","","<img src= ""rock_img/I_Andesite_11.jpg"" style=""width:8cm; height:4.92cm;""><p>What type of rock is this?</p>","7","class_response","0","test","48","Pumice","Andesite","11","false","8","1","",""
"","","","","","","","","","","","html-keyboard-response","102","2.0.0","142501","66a9979ad8c56c6f29446781","2","44","null","","","","","","","","","<p style='font-size: 30px;'><strong>Okay</strong></p>","null","neutral_feedback","0","test","48","","","","","","","",""
"","","","","","","","","","","","instructions","103","2.0.0","159414","66a9979ad8c56c6f29446781","2","44","16885","","","","","","","","[{""page_index"":0,""viewing_time"":8984},{""page_index"":1,""viewing_time"":4934},{""page_index"":2,""viewing_time"":2967}]","","","","","","","","","","","","","",""
"","","","","","","","","","","","html-button-response","104","2.0.0","160730","66a9979ad8c56c6f29446781","2","44","1314","","","","","","","","","","0","start_train","","","","","","","","","","",""
"","","","","","","","","","","","html-button-response","105","2.0.0","162264","66a9979ad8c56c6f29446781","2","44","1530","","","","","","","","","<img src= ""rock_img/I_Andesite_10.jpg"" style=""width:8cm; height:4.16cm;""><p>What type of rock is this?</p>","7","class_response","1","train","1","Pumice","Andesite","10","false","8","1","",""
"","","","","","","","","","","","html-button-response","106","2.0.0","164564","66a9979ad8c56c6f29446781","2","44","2297","","","","","","","","","<img src= rock_img/I_Andesite_10.jpg style=""width:8cm; height:4.16cm;""><p style='font-size: 30px; color: red;'><strong>Incorrect!</strong></p><p style='font-size: 30px;'><strong>This rock is andesite</strong></p>","0","corr_feedback","1","train","1","","","","","","","",""
"","","","","","","","","","","","html-button-response","107","2.0.0","166597","66a9979ad8c56c6f29446781","2","44","2030","","","","","","","","","<img src= ""rock_img/I_Diorite_07.jpg"" style=""width:8cm; height:5.239999999999999cm;""><p>What type of rock is this?</p>","5","class_response","1","train","2","Pegmatite","Diorite","07","false","6","3","",""
"","","","","","","","","","","","html-button-response","108","2.0.0","169229","66a9979ad8c56c6f29446781","2","44","2630","","","","","","","","","<img src= rock_img/I_Diorite_07.jpg style=""width:8cm; height:5.239999999999999cm;""><p style='font-size: 30px; color: red;'><strong>Incorrect!</strong></p><p style='font-size: 30px;'><strong>This rock is diorite</strong></p>","0","corr_feedback","1","train","2","","","","","","","",""
"","","","","","","","","","","","html-button-response","109","2.0.0","172179","66a9979ad8c56c6f29446781","2","44","2948","","","","","","","","","<img src= ""rock_img/I_Basalt_01.jpg"" style=""width:8cm; height:7.880000000000001cm;""><p>What type of rock is this?</p>","1","class_response","1","train","3","Basalt","Basalt","01","true","2","2","",""
"","","","","","","","","","","","html-button-response","110","2.0.0","173030","66a9979ad8c56c6f29446781","2","44","849","","","","","","","","","<img src= rock_img/I_Basalt_01.jpg style=""width:8cm; height:7.880000000000001cm;""><p style='font-size: 30px; color: green;'><strong>Correct!</strong></p><p style='font-size: 30px;'><strong>This rock is basalt</strong></p>","0","corr_feedback","1","train","3","","","","","","","",""
"","","","","","","","","","","","html-button-response","111","2.0.0","174631","66a9979ad8c56c6f29446781","2","44","1597","","","","","","","","","<img src= ""rock_img/I_Gabbro_08.jpg"" style=""width:8cm; height:5.15cm;""><p>What type of rock is this?</p>","1","class_response","1","train","4","Basalt","Gabbro","08","false","2","4","",""
"","","","","","","","","","","","html-button-response","112","2.0.0","176864","66a9979ad8c56c6f29446781","2","44","2230","","","","","","","","","<img src= rock_img/I_Gabbro_08.jpg style=""width:8cm; height:5.15cm;""><p style='font-size: 30px; color: red;'><strong>Incorrect!</strong></p><p style='font-size: 30px;'><strong>This rock is gabbro</strong></p>","0","corr_feedback","1","train","4","","","","","","","",""
"","","","","","","","","","","","html-button-response","113","2.0.0","178363","66a9979ad8c56c6f29446781","2","44","1497","","","","","","","","","<img src= ""rock_img/I_Gabbro_01.jpg"" style=""width:8cm; height:5.21cm;""><p>What type of rock is this?</p>","3","class_response","1","train","5","Gabbro","Gabbro","01","true","4","4","",""
"","","","","","","","","","","","html-button-response","114","2.0.0","181513","66a9979ad8c56c6f29446781","2","44","3148","","","","","","","","","<img src= rock_img/I_Gabbro_01.jpg style=""width:8cm; height:5.21cm;""><p style='font-size: 30px; color: green;'><strong>Correct!</strong></p><p style='font-size: 30px;'><strong>This rock is gabbro</strong></p>","0","corr_feedback","1","train","5","","","","","","","",""
"","","","","","","","","","","","html-button-response","115","2.0.0","182865","66a9979ad8c56c6f29446781","2","44","1350","","","","","","","","","<img src= ""rock_img/I_Diorite_09.jpg"" style=""width:8cm; height:5.27cm;""><p>What type of rock is this?</p>","6","class_response","1","train","6","Peridotite","Diorite","09","false","7","3","",""
"","","","","","","","","","","","html-button-response","116","2.0.0","184814","66a9979ad8c56c6f29446781","2","44","1946","","","","","","","","","<img src= rock_img/I_Diorite_09.jpg style=""width:8cm; height:5.27cm;""><p style='font-size: 30px; color: red;'><strong>Incorrect!</strong></p><p style='font-size: 30px;'><strong>This rock is diorite</strong></p>","0","corr_feedback","1","train","6","","","","","","","",""
"","","","","","","","","","","","html-button-response","117","2.0.0","186515","66a9979ad8c56c6f29446781","2","44","1698","","","","","","","","","<img src= ""rock_img/I_Obsidian_06.jpg"" style=""width:8cm; height:6.8cm;""><p>What type of rock is this?</p>","4","class_response","1","train","7","Obsidian","Obsidian","06","true","5","5","",""
"","","","","","","","","","","","html-button-response","118","2.0.0","187113","66a9979ad8c56c6f29446781","2","44","596","","","","","","","","","<img src= rock_img/I_Obsidian_06.jpg style=""width:8cm; height:6.8cm;""><p style='font-size: 30px; color: green;'><strong>Correct!</strong></p><p style='font-size: 30px;'><strong>This rock is obsidian</strong></p>","0","corr_feedback","1","train","7","","","","","","","",""
"","","","","","","","","","","","html-button-response","119","2.0.0","189331","66a9979ad8c56c6f29446781","2","44","2215","","","","","","","","","<img src= ""rock_img/I_Pumice_06.jpg"" style=""width:8cm; height:6.9399999999999995cm;""><p>What type of rock is this?</p>","7","class_response","1","train","8","Pumice","Pumice","06","true","8","8","",""
"","","","","","","","","","","","html-button-response","120","2.0.0","190280","66a9979ad8c56c6f29446781","2","44","946","","","","","","","","","<img src= rock_img/I_Pumice_06.jpg style=""width:8cm; height:6.9399999999999995cm;""><p style='font-size: 30px; color: green;'><strong>Correct!</strong></p><p style='font-size: 30px;'><strong>This rock is pumice</strong></p>","0","corr_feedback","1","train","8","","","","","","","",""
"","","","","","","","","","","","html-button-response","121","2.0.0","191447","66a9979ad8c56c6f29446781","2","44","1164","","","","","","","","","<img src= ""rock_img/I_Basalt_06.jpg"" style=""width:8cm; height:7.06cm;""><p>What type of rock is this?</p>","4","class_response","1","train","9","Obsidian","Basalt","06","false","5","2","",""
"","","","","","","","","","","","html-button-response","122","2.0.0","192646","66a9979ad8c56c6f29446781","2","44","1197","","","","","","","","","<img src= rock_img/I_Basalt_06.jpg style=""width:8cm; height:7.06cm;""><p style='font-size: 30px; color: red;'><strong>Incorrect!</strong></p><p style='font-size: 30px;'><strong>This rock is basalt</strong></p>","0","corr_feedback","1","train","9","","","","","","","",""
"","","","","","","","","","","","html-button-response","123","2.0.0","194580","66a9979ad8c56c6f29446781","2","44","1931","","","","","","","","","<img src= ""rock_img/I_Diorite_09.jpg"" style=""width:8cm; height:5.27cm;""><p>What type of rock is this?</p>","2","class_response","1","train","10","Diorite","Diorite","09","true","3","3","",""
"","","","","","","","","","","","html-button-response","124","2.0.0","195563","66a9979ad8c56c6f29446781","2","44","980","","","","","","","","","<img src= rock_img/I_Diorite_09.jpg style=""width:8cm; height:5.27cm;""><p style='font-size: 30px; color: green;'><strong>Correct!</strong></p><p style='font-size: 30px;'><strong>This rock is diorite</strong></p>","0","corr_feedback","1","train","10","","","","","","","",""
"","","","","","","","","","","","html-button-response","125","2.0.0","198013","66a9979ad8c56c6f29446781","2","44","2447","","","","","","","","","<img src= ""rock_img/I_Andesite_09.jpg"" style=""width:8cm; height:6cm;""><p>What type of rock is this?</p>","1","class_response","1","train","11","Basalt","Andesite","09","false","2","1","",""
"","","","","","","","","","","","html-button-response","126","2.0.0","227198","66a9979ad8c56c6f29446781","2","44","29184","","","","","","","","","<img src= rock_img/I_Andesite_09.jpg style=""width:8cm; height:6cm;""><p style='font-size: 30px; color: red;'><strong>Incorrect!</strong></p><p style='font-size: 30px;'><strong>This rock is andesite</strong></p>","0","corr_feedback","1","train","11","","","","","","","",""
"","","","","","","","","","","","html-button-response","127","2.0.0","228880","66a9979ad8c56c6f29446781","2","44","1680","","","","","","","","","<img src= ""rock_img/I_Peridotite_08.jpg"" style=""width:8cm; height:6.7cm;""><p>What type of rock is this?</p>","5","class_response","1","train","12","Pegmatite","Peridotite","08","false","6","7","",""
"","","","","","","","","","","","html-button-response","128","2.0.0","231897","66a9979ad8c56c6f29446781","2","44","3014","","","","","","","","","<img src= rock_img/I_Peridotite_08.jpg style=""width:8cm; height:6.7cm;""><p style='font-size: 30px; color: red;'><strong>Incorrect!</strong></p><p style='font-size: 30px;'><strong>This rock is peridotite</strong></p>","0","corr_feedback","1","train","12","","","","","","","",""
"","","","","","","","","","","","html-button-response","129","2.0.0","233395","66a9979ad8c56c6f29446781","2","44","1497","","","","","","","","","<img src= ""rock_img/I_Andesite_05.jpg"" style=""width:8cm; height:4.12cm;""><p>What type of rock is this?</p>","5","class_response","1","train","13","Pegmatite","Andesite","05","false","6","1","",""
"","","","","","","","","","","","html-button-response","130","2.0.0","234863","66a9979ad8c56c6f29446781","2","44","1467","","","","","","","","","<img src= rock_img/I_Andesite_05.jpg style=""width:8cm; height:4.12cm;""><p style='font-size: 30px; color: red;'><strong>Incorrect!</strong></p><p style='font-size: 30px;'><strong>This rock is andesite</strong></p>","0","corr_feedback","1","train","13","","","","","","","",""
"","","","","","","","","","","","html-button-response","131","2.0.0","237429","66a9979ad8c56c6f29446781","2","44","2563","","","","","","","","","<img src= ""rock_img/I_Peridotite_04.jpg"" style=""width:8cm; height:6.680000000000001cm;""><p>What type of rock is this?</p>","3","class_response","1","train","14","Gabbro","Peridotite","04","false","4","7","",""
"","","","","","","","","","","","html-button-response","132","2.0.0","239247","66a9979ad8c56c6f29446781","2","44","1815","","","","","","","","","<img src= rock_img/I_Peridotite_04.jpg style=""width:8cm; height:6.680000000000001cm;""><p style='font-size: 30px; color: red;'><strong>Incorrect!</strong></p><p style='font-size: 30px;'><strong>This rock is peridotite</strong></p>","0","corr_feedback","1","train","14","","","","","","","",""
"","","","","","","","","","","","html-button-response","133","2.0.0","240946","66a9979ad8c56c6f29446781","2","44","1697","","","","","","","","","<img src= ""rock_img/I_Pumice_02.jpg"" style=""width:8cm; height:7.3999999999999995cm;""><p>What type of rock is this?</p>","7","class_response","1","train","15","Pumice","Pumice","02","true","8","8","",""
"","","","","","","","","","","","html-button-response","134","2.0.0","241747","66a9979ad8c56c6f29446781","2","44","798","","","","","","","","","<img src= rock_img/I_Pumice_02.jpg style=""width:8cm; height:7.3999999999999995cm;""><p style='font-size: 30px; color: green;'><strong>Correct!</strong></p><p style='font-size: 30px;'><strong>This rock is pumice</strong></p>","0","corr_feedback","1","train","15","","","","","","","",""
"","","","","","","","","","","","html-button-response","135","2.0.0","242813","66a9979ad8c56c6f29446781","2","44","1063","","","","","","","","","<img src= ""rock_img/I_Obsidian_11.jpg"" style=""width:8cm; height:6.05cm;""><p>What type of rock is this?</p>","4","class_response","1","train","16","Obsidian","Obsidian","11","true","5","5","",""
"","","","","","","","","","","","html-button-response","136","2.0.0","243313","66a9979ad8c56c6f29446781","2","44","497","","","","","","","","","<img src= rock_img/I_Obsidian_11.jpg style=""width:8cm; height:6.05cm;""><p style='font-size: 30px; color: green;'><strong>Correct!</strong></p><p style='font-size: 30px;'><strong>This rock is obsidian</strong></p>","0","corr_feedback","1","train","16","","","","","","","",""
"","","","","","","","","","","","html-button-response","137","2.0.0","245547","66a9979ad8c56c6f29446781","2","44","2231","","","","","","","","","<img src= ""rock_img/I_Pegmatite_06.jpg"" style=""width:8cm; height:5.17cm;""><p>What type of rock is this?</p>","3","class_response","1","train","17","Gabbro","Pegmatite","06","false","4","6","",""
"","","","","","","","","","","","html-button-response","138","2.0.0","248697","66a9979ad8c56c6f29446781","2","44","3148","","","","","","","","","<img src= rock_img/I_Pegmatite_06.jpg style=""width:8cm; height:5.17cm;""><p style='font-size: 30px; color: red;'><strong>Incorrect!</strong></p><p style='font-size: 30px;'><strong>This rock is pegmatite</strong></p>","0","corr_feedback","1","train","17","","","","","","","",""
"","","","","","","","","","","","html-button-response","139","2.0.0","250497","66a9979ad8c56c6f29446781","2","44","1797","","","","","","","","","<img src= ""rock_img/I_Gabbro_15.jpg"" style=""width:8cm; height:6.29cm;""><p>What type of rock is this?</p>","2","class_response","1","train","18","Diorite","Gabbro","15","false","3","4","",""
"","","","","","","","","","","","html-button-response","140","2.0.0","251381","66a9979ad8c56c6f29446781","2","44","882","","","","","","","","","<img src= rock_img/I_Gabbro_15.jpg style=""width:8cm; height:6.29cm;""><p style='font-size: 30px; color: red;'><strong>Incorrect!</strong></p><p style='font-size: 30px;'><strong>This rock is gabbro</strong></p>","0","corr_feedback","1","train","18","","","","","","","",""
"","","","","","","","","","","","html-button-response","141","2.0.0","252730","66a9979ad8c56c6f29446781","2","44","1346","","","","","","","","","<img src= ""rock_img/I_Andesite_09.jpg"" style=""width:8cm; height:6cm;""><p>What type of rock is this?</p>","1","class_response","1","train","19","Basalt","Andesite","09","false","2","1","",""
"","","","","","","","","","","","html-button-response","142","2.0.0","277063","66a9979ad8c56c6f29446781","2","44","24333","","","","","","","","","<img src= rock_img/I_Andesite_09.jpg style=""width:8cm; height:6cm;""><p style='font-size: 30px; color: red;'><strong>Incorrect!</strong></p><p style='font-size: 30px;'><strong>This rock is andesite</strong></p>","0","corr_feedback","1","train","19","","","","","","","",""
"","","","","","","","","","","","html-button-response","143","2.0.0","280564","66a9979ad8c56c6f29446781","2","44","3498","","","","","","","","","<img src= ""rock_img/I_Pegmatite_16.jpg"" style=""width:8cm; height:5.8cm;""><p>What type of rock is this?</p>","4","class_response","1","train","20","Obsidian","Pegmatite","16","false","5","6","",""
"","","","","","","","","","","","html-button-response","144","2.0.0","283497","66a9979ad8c56c6f29446781","2","44","2931","","","","","","","","","<img src= rock_img/I_Pegmatite_16.jpg style=""width:8cm; height:5.8cm;""><p style='font-size: 30px; color: red;'><strong>Incorrect!</strong></p><p style='font-size: 30px;'><strong>This rock is pegmatite</strong></p>","0","corr_feedback","1","train","20","","","","","","","",""
"","","","","","","","","","","","html-button-response","145","2.0.0","285080","66a9979ad8c56c6f29446781","2","44","1580","","","","","","","","","<img src= ""rock_img/I_Gabbro_11.jpg"" style=""width:8cm; height:6.2cm;""><p>What type of rock is this?</p>","1","class_response","1","train","21","Basalt","Gabbro","11","false","2","4","",""
"","","","","","","","","","","","html-button-response","146","2.0.0","286114","66a9979ad8c56c6f29446781","2","44","1031","","","","","","","","","<img src= rock_img/I_Gabbro_11.jpg style=""width:8cm; height:6.2cm;""><p style='font-size: 30px; color: red;'><strong>Incorrect!</strong></p><p style='font-size: 30px;'><strong>This rock is gabbro</strong></p>","0","corr_feedback","1","train","21","","","","","","","",""
"","","","","","","","","","","","html-button-response","147","2.0.0","287913","66a9979ad8c56c6f29446781","2","44","1797","","","","","","","","","<img src= ""rock_img/I_Basalt_11.jpg"" style=""width:8cm; height:5.359999999999999cm;""><p>What type of rock is this?</p>","7","class_response","1","train","22","Pumice","Basalt","11","false","8","2","",""
"","","","","","","","","","","","html-button-response","148","2.0.0","288830","66a9979ad8c56c6f29446781","2","44","915","","","","","","","","","<img src= rock_img/I_Basalt_11.jpg style=""width:8cm; height:5.359999999999999cm;""><p style='font-size: 30px; color: red;'><strong>Incorrect!</strong></p><p style='font-size: 30px;'><strong>This rock is basalt</strong></p>","0","corr_feedback","1","train","22","","","","","","","",""
"","","","","","","","","","","","html-button-response","149","2.0.0","290695","66a9979ad8c56c6f29446781","2","44","1863","","","","","","","","","<img src= ""rock_img/I_Gabbro_10.jpg"" style=""width:8cm; height:5.680000000000001cm;""><p>What type of rock is this?</p>","4","class_response","1","train","23","Obsidian","Gabbro","10","false","5","4","",""
"","","","","","","","","","","","html-button-response","150","2.0.0","291630","66a9979ad8c56c6f29446781","2","44","933","","","","","","","","","<img src= rock_img/I_Gabbro_10.jpg style=""width:8cm; height:5.680000000000001cm;""><p style='font-size: 30px; color: red;'><strong>Incorrect!</strong></p><p style='font-size: 30px;'><strong>This rock is gabbro</strong></p>","0","corr_feedback","1","train","23","","","","","","","",""
"","","","","","","","","","","","html-button-response","151","2.0.0","293363","66a9979ad8c56c6f29446781","2","44","1730","","","","","","","","","<img src= ""rock_img/I_Andesite_02.jpg"" style=""width:8cm; height:8.5cm;""><p>What type of rock is this?</p>","2","class_response","1","train","24","Diorite","Andesite","02","false","3","1","",""
"","","","","","","","","","","","html-button-response","152","2.0.0","294030","66a9979ad8c56c6f29446781","2","44","665","","","","","","","","","<img src= rock_img/I_Andesite_02.jpg style=""width:8cm; height:8.5cm;""><p style='font-size: 30px; color: red;'><strong>Incorrect!</strong></p><p style='font-size: 30px;'><strong>This rock is andesite</strong></p>","0","corr_feedback","1","train","24","","","","","","","",""
"","","","","","","","","","","","html-button-response","153","2.0.0","295930","66a9979ad8c56c6f29446781","2","44","1898","","","","","","","","","<img src= ""rock_img/I_Basalt_06.jpg"" style=""width:8cm; height:7.06cm;""><p>What type of rock is this?</p>","4","class_response","1","train","25","Obsidian","Basalt","06","false","5","2","",""
"","","","","","","","","","","","html-button-response","154","2.0.0","296930","66a9979ad8c56c6f29446781","2","44","997","","","","","","","","","<img src= rock_img/I_Basalt_06.jpg style=""width:8cm; height:7.06cm;""><p style='font-size: 30px; color: red;'><strong>Incorrect!</strong></p><p style='font-size: 30px;'><strong>This rock is basalt</strong></p>","0","corr_feedback","1","train","25","","","","","","","",""
"","","","","","","","","","","","html-button-response","155","2.0.0","298947","66a9979ad8c56c6f29446781","2","44","2014","","","","","","","","","<img src= ""rock_img/I_Basalt_16.jpg"" style=""width:8cm; height:7.659999999999999cm;""><p>What type of rock is this?</p>","3","class_response","1","train","26","Gabbro","Basalt","16","false","4","2","",""
"","","","","","","","","","","","html-button-response","156","2.0.0","299646","66a9979ad8c56c6f29446781","2","44","697","","","","","","","","","<img src= rock_img/I_Basalt_16.jpg style=""width:8cm; height:7.659999999999999cm;""><p style='font-size: 30px; color: red;'><strong>Incorrect!</strong></p><p style='font-size: 30px;'><strong>This rock is basalt</strong></p>","0","corr_feedback","1","train","26","","","","","","","",""
"","","","","","","","","","","","html-button-response","157","2.0.0","300731","66a9979ad8c56c6f29446781","2","44","1082","","","","","","","","","<img src= ""rock_img/I_Pumice_09.jpg"" style=""width:8cm; height:6.44cm;""><p>What type of rock is this?</p>","7","class_response","1","train","27","Pumice","Pumice","09","true","8","8","",""
"","","","","","","","","","","","html-button-response","158","2.0.0","301346","66a9979ad8c56c6f29446781","2","44","613","","","","","","","","","<img src= rock_img/I_Pumice_09.jpg style=""width:8cm; height:6.44cm;""><p style='font-size: 30px; color: green;'><strong>Correct!</strong></p><p style='font-size: 30px;'><strong>This rock is pumice</strong></p>","0","corr_feedback","1","train","27","","","","","","","",""
"","","","","","","","","","","","html-button-response","159","2.0.0","302697","66a9979ad8c56c6f29446781","2","44","1348","","","","","","","","","<img src= ""rock_img/I_Pegmatite_05.jpg"" style=""width:8cm; height:7.300000000000001cm;""><p>What type of rock is this?</p>","4","class_response","1","train","28","Obsidian","Pegmatite","05","false","5","6","",""
"","","","","","","","","","","","html-button-response","160","2.0.0","304464","66a9979ad8c56c6f29446781","2","44","1764","","","","","","","","","<img src= rock_img/I_Pegmatite_05.jpg style=""width:8cm; height:7.300000000000001cm;""><p style='font-size: 30px; color: red;'><strong>Incorrect!</strong></p><p style='font-size: 30px;'><strong>This rock is pegmatite</strong></p>","0","corr_feedback","1","train","28","","","","","","","",""
"","","","","","","","","","","","html-button-response","161","2.0.0","306947","66a9979ad8c56c6f29446781","2","44","2480","","","","","","","","","<img src= ""rock_img/I_Andesite_14.jpg"" style=""width:8cm; height:5.449999999999999cm;""><p>What type of rock is this?</p>","0","class_response","1","train","29","Andesite","Andesite","14","true","1","1","",""
"","","","","","","","","","","","html-button-response","162","2.0.0","307714","66a9979ad8c56c6f29446781","2","44","765","","","","","","","","","<img src= rock_img/I_Andesite_14.jpg style=""width:8cm; height:5.449999999999999cm;""><p style='font-size: 30px; color: green;'><strong>Correct!</strong></p><p style='font-size: 30px;'><strong>This rock is andesite</strong></p>","0","corr_feedback","1","train","29","","","","","","","",""
"","","","","","","","","","","","html-button-response","163","2.0.0","309329","66a9979ad8c56c6f29446781","2","44","1613","","","","","","","","","<img src= ""rock_img/I_Diorite_11.jpg"" style=""width:8cm; height:7.11cm;""><p>What type of rock is this?</p>","2","class_response","1","train","30","Diorite","Diorite","11","true","3","3","",""
"","","","","","","","","","","","html-button-response","164","2.0.0","309895","66a9979ad8c56c6f29446781","2","44","565","","","","","","","","","<img src= rock_img/I_Diorite_11.jpg style=""width:8cm; height:7.11cm;""><p style='font-size: 30px; color: green;'><strong>Correct!</strong></p><p style='font-size: 30px;'><strong>This rock is diorite</strong></p>","0","corr_feedback","1","train","30","","","","","","","",""
"","","","","","","","","","","","html-button-response","165","2.0.0","315230","66a9979ad8c56c6f29446781","2","44","5333","","","","","","","","","<img src= ""rock_img/I_Diorite_08.jpg"" style=""width:8cm; height:6.37cm;""><p>What type of rock is this?</p>","0","class_response","1","train","31","Andesite","Diorite","08","false","1","3","",""
"","","","","","","","","","","","html-button-response","166","2.0.0","316446","66a9979ad8c56c6f29446781","2","44","1213","","","","","","","","","<img src= rock_img/I_Diorite_08.jpg style=""width:8cm; height:6.37cm;""><p style='font-size: 30px; color: red;'><strong>Incorrect!</strong></p><p style='font-size: 30px;'><strong>This rock is diorite</strong></p>","0","corr_feedback","1","train","31","","","","","","","",""
"","","","","","","","","","","","html-button-response","167","2.0.0","319129","66a9979ad8c56c6f29446781","2","44","2681","","","","","","","","","<img src= ""rock_img/I_Pegmatite_13.jpg"" style=""width:8cm; height:4.95cm;""><p>What type of rock is this?</p>","6","class_response","1","train","32","Peridotite","Pegmatite","13","false","7","6","",""
"","","","","","","","","","","","html-button-response","168","2.0.0","322179","66a9979ad8c56c6f29446781","2","44","3048","","","","","","","","","<img src= rock_img/I_Pegmatite_13.jpg style=""width:8cm; height:4.95cm;""><p style='font-size: 30px; color: red;'><strong>Incorrect!</strong></p><p style='font-size: 30px;'><strong>This rock is pegmatite</strong></p>","0","corr_feedback","1","train","32","","","","","","","",""
"","","","","","","","","","","","html-button-response","169","2.0.0","325863","66a9979ad8c56c6f29446781","2","44","3681","","","","","","","","","<img src= ""rock_img/I_Pegmatite_09.jpg"" style=""width:8cm; height:4.03cm;""><p>What type of rock is this?</p>","5","class_response","1","train","33","Pegmatite","Pegmatite","09","true","6","6","",""
"","","","","","","","","","","","html-button-response","170","2.0.0","327513","66a9979ad8c56c6f29446781","2","44","1647","","","","","","","","","<img src= rock_img/I_Pegmatite_09.jpg style=""width:8cm; height:4.03cm;""><p style='font-size: 30px; color: green;'><strong>Correct!</strong></p><p style='font-size: 30px;'><strong>This rock is pegmatite</strong></p>","0","corr_feedback","1","train","33","","","","","","","",""
"","","","","","","","","","","","html-button-response","171","2.0.0","328747","66a9979ad8c56c6f29446781","2","44","1231","","","","","","","","","<img src= ""rock_img/I_Pegmatite_06.jpg"" style=""width:8cm; height:5.17cm;""><p>What type of rock is this?</p>","5","class_response","1","train","34","Pegmatite","Pegmatite","06","true","6","6","",""
"","","","","","","","","","","","html-button-response","172","2.0.0","329313","66a9979ad8c56c6f29446781","2","44","564","","","","","","","","","<img src= rock_img/I_Pegmatite_06.jpg style=""width:8cm; height:5.17cm;""><p style='font-size: 30px; color: green;'><strong>Correct!</strong></p><p style='font-size: 30px;'><strong>This rock is pegmatite</strong></p>","0","corr_feedback","1","train","34","","","","","","","",""
"","","","","","","","","","","","html-button-response","173","2.0.0","330947","66a9979ad8c56c6f29446781","2","44","1631","","","","","","","","","<img src= ""rock_img/I_Diorite_07.jpg"" style=""width:8cm; height:5.239999999999999cm;""><p>What type of rock is this?</p>","2","class_response","1","train","35","Diorite","Diorite","07","true","3","3","",""
"","","","","","","","","","","","html-button-response","174","2.0.0","331546","66a9979ad8c56c6f29446781","2","44","597","","","","","","","","","<img src= rock_img/I_Diorite_07.jpg style=""width:8cm; height:5.239999999999999cm;""><p style='font-size: 30px; color: green;'><strong>Correct!</strong></p><p style='font-size: 30px;'><strong>This rock is diorite</strong></p>","0","corr_feedback","1","train","35","","","","","","","",""
"","","","","","","","","","","","html-button-response","175","2.0.0","333530","66a9979ad8c56c6f29446781","2","44","1981","","","","","","","","","<img src= ""rock_img/I_Diorite_12.jpg"" style=""width:8cm; height:4.88cm;""><p>What type of rock is this?</p>","2","class_response","1","train","36","Diorite","Diorite","12","true","3","3","",""
"","","","","","","","","","","","html-button-response","176","2.0.0","334113","66a9979ad8c56c6f29446781","2","44","581","","","","","","","","","<img src= rock_img/I_Diorite_12.jpg style=""width:8cm; height:4.88cm;""><p style='font-size: 30px; color: green;'><strong>Correct!</strong></p><p style='font-size: 30px;'><strong>This rock is diorite</strong></p>","0","corr_feedback","1","train","36","","","","","","","",""
"","","","","","","","","","","","html-button-response","177","2.0.0","336313","66a9979ad8c56c6f29446781","2","44","2198","","","","","","","","","<img src= ""rock_img/I_Basalt_05.jpg"" style=""width:8cm; height:8.18cm;""><p>What type of rock is this?</p>","1","class_response","1","train","37","Basalt","Basalt","05","true","2","2","",""
"","","","","","","","","","","","html-button-response","178","2.0.0","336946","66a9979ad8c56c6f29446781","2","44","630","","","","","","","","","<img src= rock_img/I_Basalt_05.jpg style=""width:8cm; height:8.18cm;""><p style='font-size: 30px; color: green;'><strong>Correct!</strong></p><p style='font-size: 30px;'><strong>This rock is basalt</strong></p>","0","corr_feedback","1","train","37","","","","","","","",""
"","","","","","","","","","","","html-button-response","179","2.0.0","339413","66a9979ad8c56c6f29446781","2","44","2464","","","","","","","","","<img src= ""rock_img/I_Pegmatite_11.jpg"" style=""width:8cm; height:8.14cm;""><p>What type of rock is this?</p>","6","class_response","1","train","38","Peridotite","Pegmatite","11","false","7","6","",""
"","","","","","","","","","","","html-button-response","180","2.0.0","340863","66a9979ad8c56c6f29446781","2","44","1447","","","","","","","","","<img src= rock_img/I_Pegmatite_11.jpg style=""width:8cm; height:8.14cm;""><p style='font-size: 30px; color: red;'><strong>Incorrect!</strong></p><p style='font-size: 30px;'><strong>This rock is pegmatite</strong></p>","0","corr_feedback","1","train","38","","","","","","","",""
"","","","","","","","","","","","html-button-response","181","2.0.0","342447","66a9979ad8c56c6f29446781","2","44","1580","","","","","","","","","<img src= ""rock_img/I_Gabbro_03.jpg"" style=""width:8cm; height:8.52cm;""><p>What type of rock is this?</p>","1","class_response","1","train","39","Basalt","Gabbro","03","false","2","4","",""
"","","","","","","","","","","","html-button-response","182","2.0.0","343897","66a9979ad8c56c6f29446781","2","44","1447","","","","","","","","","<img src= rock_img/I_Gabbro_03.jpg style=""width:8cm; height:8.52cm;""><p style='font-size: 30px; color: red;'><strong>Incorrect!</strong></p><p style='font-size: 30px;'><strong>This rock is gabbro</strong></p>","0","corr_feedback","1","train","39","","","","","","","",""
"","","","","","","","","","","","html-button-response","183","2.0.0","346980","66a9979ad8c56c6f29446781","2","44","3081","","","","","","","","","<img src= ""rock_img/I_Andesite_14.jpg"" style=""width:8cm; height:5.449999999999999cm;""><p>What type of rock is this?</p>","0","class_response","1","train","40","Andesite","Andesite","14","true","1","1","",""
"","","","","","","","","","","","html-button-response","184","2.0.0","347646","66a9979ad8c56c6f29446781","2","44","664","","","","","","","","","<img src= rock_img/I_Andesite_14.jpg style=""width:8cm; height:5.449999999999999cm;""><p style='font-size: 30px; color: green;'><strong>Correct!</strong></p><p style='font-size: 30px;'><strong>This rock is andesite</strong></p>","0","corr_feedback","1","train","40","","","","","","","",""
"","","","","","","","","","","","html-button-response","185","2.0.0","350261","66a9979ad8c56c6f29446781","2","44","2613","","","","","","","","","<img src= ""rock_img/I_Pegmatite_13.jpg"" style=""width:8cm; height:4.95cm;""><p>What type of rock is this?</p>","5","class_response","1","train","41","Pegmatite","Pegmatite","13","true","6","6","",""
"","","","","","","","","","","","html-button-response","186","2.0.0","351246","66a9979ad8c56c6f29446781","2","44","984","","","","","","","","","<img src= rock_img/I_Pegmatite_13.jpg style=""width:8cm; height:4.95cm;""><p style='font-size: 30px; color: green;'><strong>Correct!</strong></p><p style='font-size: 30px;'><strong>This rock is pegmatite</strong></p>","0","corr_feedback","1","train","41","","","","","","","",""
"","","","","","","","","","","","html-button-response","187","2.0.0","352379","66a9979ad8c56c6f29446781","2","44","1130","","","","","","","","","<img src= ""rock_img/I_Pumice_05.jpg"" style=""width:8cm; height:7.25cm;""><p>What type of rock is this?</p>","7","class_response","1","train","42","Pumice","Pumice","05","true","8","8","",""
"","","","","","","","","","","","html-button-response","188","2.0.0","352979","66a9979ad8c56c6f29446781","2","44","598","","","","","","","","","<img src= rock_img/I_Pumice_05.jpg style=""width:8cm; height:7.25cm;""><p style='font-size: 30px; color: green;'><strong>Correct!</strong></p><p style='font-size: 30px;'><strong>This rock is pumice</strong></p>","0","corr_feedback","1","train","42","","","","","","","",""
"","","","","","","","","","","","html-button-response","189","2.0.0","354430","66a9979ad8c56c6f29446781","2","44","1448","","","","","","","","","<img src= ""rock_img/I_Basalt_04.jpg"" style=""width:8cm; height:7.53cm;""><p>What type of rock is this?</p>","1","class_response","1","train","43","Basalt","Basalt","04","true","2","2","",""
"","","","","","","","","","","","html-button-response","190","2.0.0","354946","66a9979ad8c56c6f29446781","2","44","514","","","","","","","","","<img src= rock_img/I_Basalt_04.jpg style=""width:8cm; height:7.53cm;""><p style='font-size: 30px; color: green;'><strong>Correct!</strong></p><p style='font-size: 30px;'><strong>This rock is basalt</strong></p>","0","corr_feedback","1","train","43","","","","","","","",""
"","","","","","","","","","","","html-button-response","191","2.0.0","356778","66a9979ad8c56c6f29446781","2","44","1830","","","","","","","","","<img src= ""rock_img/I_Pumice_03.jpg"" style=""width:8cm; height:6.64cm;""><p>What type of rock is this?</p>","7","class_response","1","train","44","Pumice","Pumice","03","true","8","8","",""
"","","","","","","","","","","","html-button-response","192","2.0.0","357380","66a9979ad8c56c6f29446781","2","44","600","","","","","","","","","<img src= rock_img/I_Pumice_03.jpg style=""width:8cm; height:6.64cm;""><p style='font-size: 30px; color: green;'><strong>Correct!</strong></p><p style='font-size: 30px;'><strong>This rock is pumice</strong></p>","0","corr_feedback","1","train","44","","","","","","","",""
"","","","","","","","","","","","html-button-response","193","2.0.0","360963","66a9979ad8c56c6f29446781","2","44","3580","","","","","","","","","<img src= ""rock_img/I_Peridotite_06.jpg"" style=""width:8cm; height:7.53cm;""><p>What type of rock is this?</p>","6","class_response","1","train","45","Peridotite","Peridotite","06","true","7","7","",""
"","","","","","","","","","","","html-button-response","194","2.0.0","411011","66a9979ad8c56c6f29446781","2","44","50049","","","","","","","","","<img src= rock_img/I_Peridotite_06.jpg style=""width:8cm; height:7.53cm;""><p style='font-size: 30px; color: green;'><strong>Correct!</strong></p><p style='font-size: 30px;'><strong>This rock is peridotite</strong></p>","0","corr_feedback","1","train","45","","","","","","","",""
"","","","","","","","","","","","html-button-response","195","2.0.0","412396","66a9979ad8c56c6f29446781","2","44","1383","","","","","","","","","<img src= ""rock_img/I_Diorite_10.jpg"" style=""width:8cm; height:5.949999999999999cm;""><p>What type of rock is this?</p>","2","class_response","1","train","46","Diorite","Diorite","10","true","3","3","",""
"","","","","","","","","","","","html-button-response","196","2.0.0","413246","66a9979ad8c56c6f29446781","2","44","847","","","","","","","","","<img src= rock_img/I_Diorite_10.jpg style=""width:8cm; height:5.949999999999999cm;""><p style='font-size: 30px; color: green;'><strong>Correct!</strong></p><p style='font-size: 30px;'><strong>This rock is diorite</strong></p>","0","corr_feedback","1","train","46","","","","","","","",""
"","","","","","","","","","","","html-button-response","197","2.0.0","414496","66a9979ad8c56c6f29446781","2","44","1247","","","","","","","","","<img src= ""rock_img/I_Obsidian_02.jpg"" style=""width:8cm; height:7.51cm;""><p>What type of rock is this?</p>","4","class_response","1","train","47","Obsidian","Obsidian","02","true","5","5","",""
"","","","","","","","","","","","html-button-response","198","2.0.0","415063","66a9979ad8c56c6f29446781","2","44","564","","","","","","","","","<img src= rock_img/I_Obsidian_02.jpg style=""width:8cm; height:7.51cm;""><p style='font-size: 30px; color: green;'><strong>Correct!</strong></p><p style='font-size: 30px;'><strong>This rock is obsidian</strong></p>","0","corr_feedback","1","train","47","","","","","","","",""
"","","","","","","","","","","","html-button-response","199","2.0.0","417796","66a9979ad8c56c6f29446781","2","44","2731","","","","","","","","","<img src= ""rock_img/I_Andesite_01.jpg"" style=""width:8cm; height:5.87cm;""><p>What type of rock is this?</p>","0","class_response","1","train","48","Andesite","Andesite","01","true","1","1","",""
"","","","","","","","","","","","html-button-response","200","2.0.0","418479","66a9979ad8c56c6f29446781","2","44","680","","","","","","","","","<img src= rock_img/I_Andesite_01.jpg style=""width:8cm; height:5.87cm;""><p style='font-size: 30px; color: green;'><strong>Correct!</strong></p><p style='font-size: 30px;'><strong>This rock is andesite</strong></p>","0","corr_feedback","1","train","48","","","","","","","",""
"","","","","","","","","","","","instructions","203","2.0.0","428095","66a9979ad8c56c6f29446781","2","44","9614","","","","","","","","[{""page_index"":0,""viewing_time"":4331},{""page_index"":1,""viewing_time"":5283}]","","","","","","","","","","","","","",""
"","","","","","","","","","","","html-button-response","204","2.0.0","429880","66a9979ad8c56c6f29446781","2","44","1782","","","","","","","","","","0","start_test","","","","","","","","","","",""
"","","","","","","","","","","","html-button-response","205","2.0.0","436180","66a9979ad8c56c6f29446781","2","44","6297","","","","","","","","","<img src= ""rock_img/I_Peridotite_16.jpg"" style=""width:8cm; height:6.989999999999999cm;""><p>What type of rock is this?</p>","3","class_response","1","test","1","Gabbro","Peridotite","16","false","4","7","",""
"","","","","","","","","","","","html-keyboard-response","206","2.0.0","436683","66a9979ad8c56c6f29446781","2","44","null","","","","","","","","","<p style='font-size: 30px;'><strong>Okay</strong></p>","null","neutral_feedback","1","test","1","","","","","","","",""
"","","","","","","","","","","","html-button-response","207","2.0.0","437946","66a9979ad8c56c6f29446781","2","44","1260","","","","","","","","","<img src= ""rock_img/I_Basalt_12.jpg"" style=""width:8cm; height:6.010000000000001cm;""><p>What type of rock is this?</p>","7","class_response","1","test","2","Pumice","Basalt","12","false","8","2","",""
"","","","","","","","","","","","html-keyboard-response","208","2.0.0","438449","66a9979ad8c56c6f29446781","2","44","null","","","","","","","","","<p style='font-size: 30px;'><strong>Okay</strong></p>","null","neutral_feedback","1","test","2","","","","","","","",""
"","","","","","","","","","","","html-button-response","209","2.0.0","439162","66a9979ad8c56c6f29446781","2","44","710","","","","","","","","","<img src= ""rock_img/I_Pumice_04.jpg"" style=""width:8cm; height:6.819999999999999cm;""><p>What type of rock is this?</p>","7","class_response","1","test","3","Pumice","Pumice","04","true","8","8","",""
"","","","","","","","","","","","html-keyboard-response","210","2.0.0","439665","66a9979ad8c56c6f29446781","2","44","null","","","","","","","","","<p style='font-size: 30px;'><strong>Okay</strong></p>","null","neutral_feedback","1","test","3","","","","","","","",""
"","","","","","","","","","","","html-button-response","211","2.0.0","443814","66a9979ad8c56c6f29446781","2","44","4146","","","","","","","","","<img src= ""rock_img/I_Pegmatite_07.jpg"" style=""width:8cm; height:6.7cm;""><p>What type of rock is this?</p>","5","class_response","1","test","4","Pegmatite","Pegmatite","07","true","6","6","",""
"","","","","","","","","","","","html-keyboard-response","212","2.0.0","444316","66a9979ad8c56c6f29446781","2","44","null","","","","","","","","","<p style='font-size: 30px;'><strong>Okay</strong></p>","null","neutral_feedback","1","test","4","","","","","","","",""
"","","","","","","","","","","","html-button-response","213","2.0.0","445513","66a9979ad8c56c6f29446781","2","44","1194","","","","","","","","","<img src= ""rock_img/I_Obsidian_05.jpg"" style=""width:8cm; height:6.33cm;""><p>What type of rock is this?</p>","4","class_response","1","test","5","Obsidian","Obsidian","05","true","5","5","",""
"","","","","","","","","","","","html-keyboard-response","214","2.0.0","446015","66a9979ad8c56c6f29446781","2","44","null","","","","","","","","","<p style='font-size: 30px;'><strong>Okay</strong></p>","null","neutral_feedback","1","test","5","","","","","","","",""
"","","","","","","","","","","","html-button-response","215","2.0.0","453246","66a9979ad8c56c6f29446781","2","44","7228","","","","","","","","","<img src= ""rock_img/I_Andesite_04.jpg"" style=""width:8cm; height:5.96cm;""><p>What type of rock is this?</p>","7","class_response","1","test","6","Pumice","Andesite","04","false","8","1","",""
"","","","","","","","","","","","html-keyboard-response","216","2.0.0","453748","66a9979ad8c56c6f29446781","2","44","null","","","","","","","","","<p style='font-size: 30px;'><strong>Okay</strong></p>","null","neutral_feedback","1","test","6","","","","","","","",""
"","","","","","","","","","","","html-button-response","217","2.0.0","457947","66a9979ad8c56c6f29446781","2","44","4195","","","","","","","","","<img src= ""rock_img/I_Pegmatite_15.jpg"" style=""width:8cm; height:6cm;""><p>What type of rock is this?</p>","5","class_response","1","test","7","Pegmatite","Pegmatite","15","true","6","6","",""
"","","","","","","","","","","","html-keyboard-response","218","2.0.0","458450","66a9979ad8c56c6f29446781","2","44","null","","","","","","","","","<p style='font-size: 30px;'><strong>Okay</strong></p>","null","neutral_feedback","1","test","7","","","","","","","",""
"","","","","","","","","","","","html-button-response","219","2.0.0","461330","66a9979ad8c56c6f29446781","2","44","2876","","","","","","","","","<img src= ""rock_img/I_Gabbro_09.jpg"" style=""width:8cm; height:7.279999999999999cm;""><p>What type of rock is this?</p>","1","class_response","1","test","8","Basalt","Gabbro","09","false","2","4","",""
"","","","","","","","","","","","html-keyboard-response","220","2.0.0","461832","66a9979ad8c56c6f29446781","2","44","null","","","","","","","","","<p style='font-size: 30px;'><strong>Okay</strong></p>","null","neutral_feedback","1","test","8","","","","","","","",""
"","","","","","","","","","","","html-button-response","221","2.0.0","463863","66a9979ad8c56c6f29446781","2","44","2027","","","","","","","","","<img src= ""rock_img/I_Pegmatite_12.jpg"" style=""width:8cm; height:5.7cm;""><p>What type of rock is this?</p>","6","class_response","1","test","9","Peridotite","Pegmatite","12","false","7","6","",""
"","","","","","","","","","","","html-keyboard-response","222","2.0.0","464365","66a9979ad8c56c6f29446781","2","44","null","","","","","","","","","<p style='font-size: 30px;'><strong>Okay</strong></p>","null","neutral_feedback","1","test","9","","","","","","","",""
"","","","","","","","","","","","html-button-response","223","2.0.0","466630","66a9979ad8c56c6f29446781","2","44","2262","","","","","","","","","<img src= ""rock_img/I_Andesite_11.jpg"" style=""width:8cm; height:4.92cm;""><p>What type of rock is this?</p>","6","class_response","1","test","10","Peridotite","Andesite","11","false","7","1","",""
"","","","","","","","","","","","html-keyboard-response","224","2.0.0","467132","66a9979ad8c56c6f29446781","2","44","null","","","","","","","","","<p style='font-size: 30px;'><strong>Okay</strong></p>","null","neutral_feedback","1","test","10","","","","","","","",""
"","","","","","","","","","","","html-button-response","225","2.0.0","468346","66a9979ad8c56c6f29446781","2","44","1211","","","","","","","","","<img src= ""rock_img/I_Basalt_09.jpg"" style=""width:8cm; height:6.2cm;""><p>What type of rock is this?</p>","1","class_response","1","test","11","Basalt","Basalt","09","true","2","2","",""
"","","","","","","","","","","","html-keyboard-response","226","2.0.0","468848","66a9979ad8c56c6f29446781","2","44","null","","","","","","","","","<p style='font-size: 30px;'><strong>Okay</strong></p>","null","neutral_feedback","1","test","11","","","","","","","",""
"","","","","","","","","","","","html-button-response","227","2.0.0","471346","66a9979ad8c56c6f29446781","2","44","2495","","","","","","","","","<img src= ""rock_img/I_Diorite_14.jpg"" style=""width:8cm; height:5.71cm;""><p>What type of rock is this?</p>","2","class_response","1","test","12","Diorite","Diorite","14","true","3","3","",""
"","","","","","","","","","","","html-keyboard-response","228","2.0.0","471849","66a9979ad8c56c6f29446781","2","44","null","","","","","","","","","<p style='font-size: 30px;'><strong>Okay</strong></p>","null","neutral_feedback","1","test","12","","","","","","","",""
"","","","","","","","","","","","html-button-response","229","2.0.0","472998","66a9979ad8c56c6f29446781","2","44","1146","","","","","","","","","<img src= ""rock_img/I_Pumice_10.jpg"" style=""width:8cm; height:7.609999999999999cm;""><p>What type of rock is this?</p>","7","class_response","1","test","13","Pumice","Pumice","10","true","8","8","",""
"","","","","","","","","","","","html-keyboard-response","230","2.0.0","473500","66a9979ad8c56c6f29446781","2","44","null","","","","","","","","","<p style='font-size: 30px;'><strong>Okay</strong></p>","null","neutral_feedback","1","test","13","","","","","","","",""
"","","","","","","","","","","","html-button-response","231","2.0.0","476863","66a9979ad8c56c6f29446781","2","44","3359","","","","","","","","","<img src= ""rock_img/I_Gabbro_14.jpg"" style=""width:8cm; height:8.48cm;""><p>What type of rock is this?</p>","0","class_response","1","test","14","Andesite","Gabbro","14","false","1","4","",""
"","","","","","","","","","","","html-keyboard-response","232","2.0.0","477365","66a9979ad8c56c6f29446781","2","44","null","","","","","","","","","<p style='font-size: 30px;'><strong>Okay</strong></p>","null","neutral_feedback","1","test","14","","","","","","","",""
"","","","","","","","","","","","html-button-response","233","2.0.0","479846","66a9979ad8c56c6f29446781","2","44","2478","","","","","","","","","<img src= ""rock_img/I_Diorite_13.jpg"" style=""width:8cm; height:6.29cm;""><p>What type of rock is this?</p>","5","class_response","1","test","15","Pegmatite","Diorite","13","false","6","3","",""
"","","","","","","","","","","","html-keyboard-response","234","2.0.0","480348","66a9979ad8c56c6f29446781","2","44","null","","","","","","","","","<p style='font-size: 30px;'><strong>Okay</strong></p>","null","neutral_feedback","1","test","15","","","","","","","",""
"","","","","","","","","","","","html-button-response","235","2.0.0","483412","66a9979ad8c56c6f29446781","2","44","3062","","","","","","","","","<img src= ""rock_img/I_Andesite_16.jpg"" style=""width:8cm; height:6.010000000000001cm;""><p>What type of rock is this?</p>","0","class_response","1","test","16","Andesite","Andesite","16","true","1","1","",""
"","","","","","","","","","","","html-keyboard-response","236","2.0.0","483915","66a9979ad8c56c6f29446781","2","44","null","","","","","","","","","<p style='font-size: 30px;'><strong>Okay</strong></p>","null","neutral_feedback","1","test","16","","","","","","","",""
"","","","","","","","","","","","html-button-response","237","2.0.0","484945","66a9979ad8c56c6f29446781","2","44","1027","","","","","","","","","<img src= ""rock_img/I_Andesite_03.jpg"" style=""width:8cm; height:5.73cm;""><p>What type of rock is this?</p>","1","class_response","1","test","17","Basalt","Andesite","03","false","2","1","",""
"","","","","","","","","","","","html-keyboard-response","238","2.0.0","485447","66a9979ad8c56c6f29446781","2","44","null","","","","","","","","","<p style='font-size: 30px;'><strong>Okay</strong></p>","null","neutral_feedback","1","test","17","","","","","","","",""
"","","","","","","","","","","","html-button-response","239","2.0.0","486146","66a9979ad8c56c6f29446781","2","44","696","","","","","","","","","<img src= ""rock_img/I_Basalt_02.jpg"" style=""width:8cm; height:6.45cm;""><p>What type of rock is this?</p>","1","class_response","1","test","18","Basalt","Basalt","02","true","2","2","",""
"","","","","","","","","","","","html-keyboard-response","240","2.0.0","486648","66a9979ad8c56c6f29446781","2","44","null","","","","","","","","","<p style='font-size: 30px;'><strong>Okay</strong></p>","null","neutral_feedback","1","test","18","","","","","","","",""
"","","","","","","","","","","","html-button-response","241","2.0.0","488346","66a9979ad8c56c6f29446781","2","44","1694","","","","","","","","","<img src= ""rock_img/I_Diorite_15.jpg"" style=""width:8cm; height:5.54cm;""><p>What type of rock is this?</p>","2","class_response","1","test","19","Diorite","Diorite","15","true","3","3","",""
"","","","","","","","","","","","html-keyboard-response","242","2.0.0","488849","66a9979ad8c56c6f29446781","2","44","null","","","","","","","","","<p style='font-size: 30px;'><strong>Okay</strong></p>","null","neutral_feedback","1","test","19","","","","","","","",""
"","","","","","","","","","","","html-button-response","243","2.0.0","490045","66a9979ad8c56c6f29446781","2","44","1194","","","","","","","","","<img src= ""rock_img/I_Obsidian_10.jpg"" style=""width:8cm; height:6.260000000000001cm;""><p>What type of rock is this?</p>","4","class_response","1","test","20","Obsidian","Obsidian","10","true","5","5","",""
"","","","","","","","","","","","html-keyboard-response","244","2.0.0","490547","66a9979ad8c56c6f29446781","2","44","null","","","","","","","","","<p style='font-size: 30px;'><strong>Okay</strong></p>","null","neutral_feedback","1","test","20","","","","","","","",""
"","","","","","","","","","","","html-button-response","245","2.0.0","494346","66a9979ad8c56c6f29446781","2","44","3795","","","","","","","","","<img src= ""rock_img/I_Peridotite_15.jpg"" style=""width:8cm; height:6cm;""><p>What type of rock is this?</p>","3","class_response","1","test","21","Gabbro","Peridotite","15","false","4","7","",""
"","","","","","","","","","","","html-keyboard-response","246","2.0.0","494848","66a9979ad8c56c6f29446781","2","44","null","","","","","","","","","<p style='font-size: 30px;'><strong>Okay</strong></p>","null","neutral_feedback","1","test","21","","","","","","","",""
"","","","","","","","","","","","html-button-response","247","2.0.0","495928","66a9979ad8c56c6f29446781","2","44","1078","","","","","","","","","<img src= ""rock_img/I_Andesite_07.jpg"" style=""width:8cm; height:5.93cm;""><p>What type of rock is this?</p>","2","class_response","1","test","22","Diorite","Andesite","07","false","3","1","",""
"","","","","","","","","","","","html-keyboard-response","248","2.0.0","496430","66a9979ad8c56c6f29446781","2","44","null","","","","","","","","","<p style='font-size: 30px;'><strong>Okay</strong></p>","null","neutral_feedback","1","test","22","","","","","","","",""
"","","","","","","","","","","","html-button-response","249","2.0.0","501829","66a9979ad8c56c6f29446781","2","44","5397","","","","","","","","","<img src= ""rock_img/I_Gabbro_16.jpg"" style=""width:8cm; height:6.44cm;""><p>What type of rock is this?</p>","3","class_response","1","test","23","Gabbro","Gabbro","16","true","4","4","",""
"","","","","","","","","","","","html-keyboard-response","250","2.0.0","502332","66a9979ad8c56c6f29446781","2","44","null","","","","","","","","","<p style='font-size: 30px;'><strong>Okay</strong></p>","null","neutral_feedback","1","test","23","","","","","","","",""
"","","","","","","","","","","","html-button-response","251","2.0.0","507629","66a9979ad8c56c6f29446781","2","44","5294","","","","","","","","","<img src= ""rock_img/I_Pegmatite_10.jpg"" style=""width:8cm; height:4.16cm;""><p>What type of rock is this?</p>","3","class_response","1","test","24","Gabbro","Pegmatite","10","false","4","6","",""
"","","","","","","","","","","","html-keyboard-response","252","2.0.0","508131","66a9979ad8c56c6f29446781","2","44","null","","","","","","","","","<p style='font-size: 30px;'><strong>Okay</strong></p>","null","neutral_feedback","1","test","24","","","","","","","",""
"","","","","","","","","","","","html-button-response","253","2.0.0","510196","66a9979ad8c56c6f29446781","2","44","2061","","","","","","","","","<img src= ""rock_img/I_Diorite_02.jpg"" style=""width:8cm; height:6.27cm;""><p>What type of rock is this?</p>","2","class_response","1","test","25","Diorite","Diorite","02","true","3","3","",""
"","","","","","","","","","","","html-keyboard-response","254","2.0.0","510698","66a9979ad8c56c6f29446781","2","44","null","","","","","","","","","<p style='font-size: 30px;'><strong>Okay</strong></p>","null","neutral_feedback","1","test","25","","","","","","","",""
"","","","","","","","","","","","html-button-response","255","2.0.0","512164","66a9979ad8c56c6f29446781","2","44","1462","","","","","","","","","<img src= ""rock_img/I_Pumice_14.jpg"" style=""width:8cm; height:6.39cm;""><p>What type of rock is this?</p>","7","class_response","1","test","26","Pumice","Pumice","14","true","8","8","",""
"","","","","","","","","","","","html-keyboard-response","256","2.0.0","512667","66a9979ad8c56c6f29446781","2","44","null","","","","","","","","","<p style='font-size: 30px;'><strong>Okay</strong></p>","null","neutral_feedback","1","test","26","","","","","","","",""
"","","","","","","","","","","","html-button-response","257","2.0.0","513363","66a9979ad8c56c6f29446781","2","44","693","","","","","","","","","<img src= ""rock_img/I_Pumice_13.jpg"" style=""width:8cm; height:8.200000000000001cm;""><p>What type of rock is this?</p>","7","class_response","1","test","27","Pumice","Pumice","13","true","8","8","",""
"","","","","","","","","","","","html-keyboard-response","258","2.0.0","513866","66a9979ad8c56c6f29446781","2","44","null","","","","","","","","","<p style='font-size: 30px;'><strong>Okay</strong></p>","null","neutral_feedback","1","test","27","","","","","","","",""
"","","","","","","","","","","","html-button-response","259","2.0.0","515929","66a9979ad8c56c6f29446781","2","44","2060","","","","","","","","","<img src= ""rock_img/I_Diorite_06.jpg"" style=""width:8cm; height:6.03cm;""><p>What type of rock is this?</p>","0","class_response","1","test","28","Andesite","Diorite","06","false","1","3","",""
"","","","","","","","","","","","html-keyboard-response","260","2.0.0","516431","66a9979ad8c56c6f29446781","2","44","null","","","","","","","","","<p style='font-size: 30px;'><strong>Okay</strong></p>","null","neutral_feedback","1","test","28","","","","","","","",""
"","","","","","","","","","","","html-button-response","261","2.0.0","517879","66a9979ad8c56c6f29446781","2","44","1445","","","","","","","","","<img src= ""rock_img/I_Pegmatite_08.jpg"" style=""width:8cm; height:7.68cm;""><p>What type of rock is this?</p>","5","class_response","1","test","29","Pegmatite","Pegmatite","08","true","6","6","",""
"","","","","","","","","","","","html-keyboard-response","262","2.0.0","518381","66a9979ad8c56c6f29446781","2","44","null","","","","","","","","","<p style='font-size: 30px;'><strong>Okay</strong></p>","null","neutral_feedback","1","test","29","","","","","","","",""
"","","","","","","","","","","","html-button-response","263","2.0.0","520080","66a9979ad8c56c6f29446781","2","44","1695","","","","","","","","","<img src= ""rock_img/I_Peridotite_13.jpg"" style=""width:8cm; height:7.58cm;""><p>What type of rock is this?</p>","3","class_response","1","test","30","Gabbro","Peridotite","13","false","4","7","",""
"","","","","","","","","","","","html-keyboard-response","264","2.0.0","520582","66a9979ad8c56c6f29446781","2","44","null","","","","","","","","","<p style='font-size: 30px;'><strong>Okay</strong></p>","null","neutral_feedback","1","test","30","","","","","","","",""
"","","","","","","","","","","","html-button-response","265","2.0.0","522096","66a9979ad8c56c6f29446781","2","44","1511","","","","","","","","","<img src= ""rock_img/I_Diorite_16.jpg"" style=""width:8cm; height:6.74cm;""><p>What type of rock is this?</p>","2","class_response","1","test","31","Diorite","Diorite","16","true","3","3","",""
"","","","","","","","","","","","html-keyboard-response","266","2.0.0","522599","66a9979ad8c56c6f29446781","2","44","null","","","","","","","","","<p style='font-size: 30px;'><strong>Okay</strong></p>","null","neutral_feedback","1","test","31","","","","","","","",""
"","","","","","","","","","","","html-button-response","267","2.0.0","525929","66a9979ad8c56c6f29446781","2","44","3327","","","","","","","","","<img src= ""rock_img/I_Gabbro_13.jpg"" style=""width:8cm; height:5.08cm;""><p>What type of rock is this?</p>","0","class_response","1","test","32","Andesite","Gabbro","13","false","1","4","",""
"","","","","","","","","","","","html-keyboard-response","268","2.0.0","526432","66a9979ad8c56c6f29446781","2","44","null","","","","","","","","","<p style='font-size: 30px;'><strong>Okay</strong></p>","null","neutral_feedback","1","test","32","","","","","","","",""
"","","","","","","","","","","","html-button-response","269","2.0.0","527580","66a9979ad8c56c6f29446781","2","44","1144","","","","","","","","","<img src= ""rock_img/I_Obsidian_07.jpg"" style=""width:8cm; height:4.76cm;""><p>What type of rock is this?</p>","4","class_response","1","test","33","Obsidian","Obsidian","07","true","5","5","",""
"","","","","","","","","","","","html-keyboard-response","270","2.0.0","528082","66a9979ad8c56c6f29446781","2","44","null","","","","","","","","","<p style='font-size: 30px;'><strong>Okay</strong></p>","null","neutral_feedback","1","test","33","","","","","","","",""
"","","","","","","","","","","","html-button-response","271","2.0.0","529794","66a9979ad8c56c6f29446781","2","44","1709","","","","","","","","","<img src= ""rock_img/I_Pegmatite_03.jpg"" style=""width:8cm; height:5.239999999999999cm;""><p>What type of rock is this?</p>","6","class_response","1","test","34","Peridotite","Pegmatite","03","false","7","6","",""
"","","","","","","","","","","","html-keyboard-response","272","2.0.0","530295","66a9979ad8c56c6f29446781","2","44","null","","","","","","","","","<p style='font-size: 30px;'><strong>Okay</strong></p>","null","neutral_feedback","1","test","34","","","","","","","",""
"","","","","","","","","","","","html-button-response","273","2.0.0","531445","66a9979ad8c56c6f29446781","2","44","1149","","","","","","","","","<img src= ""rock_img/I_Basalt_08.jpg"" style=""width:8cm; height:10.44cm;""><p>What type of rock is this?</p>","1","class_response","1","test","35","Basalt","Basalt","08","true","2","2","",""
"","","","","","","","","","","","html-keyboard-response","274","2.0.0","531947","66a9979ad8c56c6f29446781","2","44","null","","","","","","","","","<p style='font-size: 30px;'><strong>Okay</strong></p>","null","neutral_feedback","1","test","35","","","","","","","",""
"","","","","","","","","","","","html-button-response","275","2.0.0","535212","66a9979ad8c56c6f29446781","2","44","3262","","","","","","","","","<img src= ""rock_img/I_Basalt_10.jpg"" style=""width:8cm; height:5.85cm;""><p>What type of rock is this?</p>","1","class_response","1","test","36","Basalt","Basalt","10","true","2","2","",""
"","","","","","","","","","","","html-keyboard-response","276","2.0.0","535715","66a9979ad8c56c6f29446781","2","44","null","","","","","","","","","<p style='font-size: 30px;'><strong>Okay</strong></p>","null","neutral_feedback","1","test","36","","","","","","","",""
"","","","","","","","","","","","html-button-response","277","2.0.0","539729","66a9979ad8c56c6f29446781","2","44","4011","","","","","","","","","<img src= ""rock_img/I_Peridotite_07.jpg"" style=""width:8cm; height:4.83cm;""><p>What type of rock is this?</p>","0","class_response","1","test","37","Andesite","Peridotite","07","false","1","7","",""
"","","","","","","","","","","","html-keyboard-response","278","2.0.0","540232","66a9979ad8c56c6f29446781","2","44","null","","","","","","","","","<p style='font-size: 30px;'><strong>Okay</strong></p>","null","neutral_feedback","1","test","37","","","","","","","",""
"","","","","","","","","","","","html-button-response","279","2.0.0","544229","66a9979ad8c56c6f29446781","2","44","3994","","","","","","","","","<img src= ""rock_img/I_Peridotite_14.jpg"" style=""width:8cm; height:5.3cm;""><p>What type of rock is this?</p>","3","class_response","1","test","38","Gabbro","Peridotite","14","false","4","7","",""
"","","","","","","","","","","","html-keyboard-response","280","2.0.0","544732","66a9979ad8c56c6f29446781","2","44","null","","","","","","","","","<p style='font-size: 30px;'><strong>Okay</strong></p>","null","neutral_feedback","1","test","38","","","","","","","",""
"","","","","","","","","","","","html-button-response","281","2.0.0","547046","66a9979ad8c56c6f29446781","2","44","2311","","","","","","","","","<img src= ""rock_img/I_Basalt_14.jpg"" style=""width:8cm; height:5.82cm;""><p>What type of rock is this?</p>","1","class_response","1","test","39","Basalt","Basalt","14","true","2","2","",""
"","","","","","","","","","","","html-keyboard-response","282","2.0.0","547548","66a9979ad8c56c6f29446781","2","44","null","","","","","","","","","<p style='font-size: 30px;'><strong>Okay</strong></p>","null","neutral_feedback","1","test","39","","","","","","","",""
"","","","","","","","","","","","html-button-response","283","2.0.0","548529","66a9979ad8c56c6f29446781","2","44","978","","","","","","","","","<img src= ""rock_img/I_Pumice_08.jpg"" style=""width:8cm; height:6.67cm;""><p>What type of rock is this?</p>","7","class_response","1","test","40","Pumice","Pumice","08","true","8","8","",""
"","","","","","","","","","","","html-keyboard-response","284","2.0.0","549032","66a9979ad8c56c6f29446781","2","44","null","","","","","","","","","<p style='font-size: 30px;'><strong>Okay</strong></p>","null","neutral_feedback","1","test","40","","","","","","","",""
"","","","","","","","","","","","html-button-response","285","2.0.0","550129","66a9979ad8c56c6f29446781","2","44","1094","","","","","","","","","<img src= ""rock_img/I_Obsidian_04.jpg"" style=""width:8cm; height:6.930000000000001cm;""><p>What type of rock is this?</p>","4","class_response","1","test","41","Obsidian","Obsidian","04","true","5","5","",""
"","","","","","","","","","","","html-keyboard-response","286","2.0.0","550632","66a9979ad8c56c6f29446781","2","44","null","","","","","","","","","<p style='font-size: 30px;'><strong>Okay</strong></p>","null","neutral_feedback","1","test","41","","","","","","","",""
"","","","","","","","","","","","html-button-response","287","2.0.0","551828","66a9979ad8c56c6f29446781","2","44","1193","","","","","","","","","<img src= ""rock_img/I_Andesite_06.jpg"" style=""width:8cm; height:6.840000000000001cm;""><p>What type of rock is this?</p>","2","class_response","1","test","42","Diorite","Andesite","06","false","3","1","",""
"","","","","","","","","","","","html-keyboard-response","288","2.0.0","552330","66a9979ad8c56c6f29446781","2","44","null","","","","","","","","","<p style='font-size: 30px;'><strong>Okay</strong></p>","null","neutral_feedback","1","test","42","","","","","","","",""
"","","","","","","","","","","","html-button-response","289","2.0.0","556596","66a9979ad8c56c6f29446781","2","44","4263","","","","","","","","","<img src= ""rock_img/I_Peridotite_02.jpg"" style=""width:8cm; height:5.859999999999999cm;""><p>What type of rock is this?</p>","3","class_response","1","test","43","Gabbro","Peridotite","02","false","4","7","",""
"","","","","","","","","","","","html-keyboard-response","290","2.0.0","557098","66a9979ad8c56c6f29446781","2","44","null","","","","","","","","","<p style='font-size: 30px;'><strong>Okay</strong></p>","null","neutral_feedback","1","test","43","","","","","","","",""
"","","","","","","","","","","","html-button-response","291","2.0.0","558029","66a9979ad8c56c6f29446781","2","44","928","","","","","","","","","<img src= ""rock_img/I_Pumice_15.jpg"" style=""width:8cm; height:7.86cm;""><p>What type of rock is this?</p>","7","class_response","1","test","44","Pumice","Pumice","15","true","8","8","",""
"","","","","","","","","","","","html-keyboard-response","292","2.0.0","558531","66a9979ad8c56c6f29446781","2","44","null","","","","","","","","","<p style='font-size: 30px;'><strong>Okay</strong></p>","null","neutral_feedback","1","test","44","","","","","","","",""
"","","","","","","","","","","","html-button-response","293","2.0.0","559662","66a9979ad8c56c6f29446781","2","44","1128","","","","","","","","","<img src= ""rock_img/I_Obsidian_16.jpg"" style=""width:8cm; height:9.3cm;""><p>What type of rock is this?</p>","4","class_response","1","test","45","Obsidian","Obsidian","16","true","5","5","",""
"","","","","","","","","","","","html-keyboard-response","294","2.0.0","560164","66a9979ad8c56c6f29446781","2","44","null","","","","","","","","","<p style='font-size: 30px;'><strong>Okay</strong></p>","null","neutral_feedback","1","test","45","","","","","","","",""
"","","","","","","","","","","","html-button-response","295","2.0.0","561362","66a9979ad8c56c6f29446781","2","44","1196","","","","","","","","","<img src= ""rock_img/I_Obsidian_14.jpg"" style=""width:8cm; height:7.64cm;""><p>What type of rock is this?</p>","4","class_response","1","test","46","Obsidian","Obsidian","14","true","5","5","",""
"","","","","","","","","","","","html-keyboard-response","296","2.0.0","561865","66a9979ad8c56c6f29446781","2","44","null","","","","","","","","","<p style='font-size: 30px;'><strong>Okay</strong></p>","null","neutral_feedback","1","test","46","","","","","","","",""
"","","","","","","","","","","","html-button-response","297","2.0.0","565345","66a9979ad8c56c6f29446781","2","44","3477","","","","","","","","","<img src= ""rock_img/I_Gabbro_12.jpg"" style=""width:8cm; height:7.800000000000001cm;""><p>What type of rock is this?</p>","0","class_response","1","test","47","Andesite","Gabbro","12","false","1","4","",""
"","","","","","","","","","","","html-keyboard-response","298","2.0.0","565847","66a9979ad8c56c6f29446781","2","44","null","","","","","","","","","<p style='font-size: 30px;'><strong>Okay</strong></p>","null","neutral_feedback","1","test","47","","","","","","","",""
"","","","","","","","","","","","html-button-response","299","2.0.0","572928","66a9979ad8c56c6f29446781","2","44","7079","","","","","","","","","<img src= ""rock_img/I_Gabbro_05.jpg"" style=""width:8cm; height:6cm;""><p>What type of rock is this?</p>","3","class_response","1","test","48","Gabbro","Gabbro","05","true","4","4","",""
"","","","","","","","","","","","html-keyboard-response","300","2.0.0","573430","66a9979ad8c56c6f29446781","2","44","null","","","","","","","","","<p style='font-size: 30px;'><strong>Okay</strong></p>","null","neutral_feedback","1","test","48","","","","","","","",""
"","","","","","","","","","","","html-button-response","301","2.0.0","599229","66a9979ad8c56c6f29446781","2","44","","","","","","","","","","","","cycle_feedback","","","","","","","","","","8240","17551.20000000298"
"","","","","","","","","","","","html-button-response","303","2.0.0","602629","66a9979ad8c56c6f29446781","2","44","3397","","","","","","","","","","0","start_train","","","","","","","","","","",""
"","","","","","","","","","","","html-button-response","304","2.0.0","606529","66a9979ad8c56c6f29446781","2","44","3898","","","","","","","","","<img src= ""rock_img/I_Andesite_10.jpg"" style=""width:8cm; height:4.16cm;""><p>What type of rock is this?</p>","7","class_response","2","train","1","Pumice","Andesite","10","false","8","1","",""
