"width","height","webaudio","browser","browser_version","mobile","os","fullscreen","vsync_rate","webcam","microphone","trial_type","trial_index","plugin_version","time_elapsed","subjID","condition","stimID","rt","url","success","value","timeout","failed_images","failed_audio","failed_video","view_history","stimulus","response","trialType","cycle","phase","trial","resp","cat","token","corr","resp_num","cat_num","time_fb1","time_fb2"
"1280","585","true","chrome","130.0.0","false","Windows 10","true","57.86","true","true","browser-check","0","2.0.0","1050","66c37d71278acb17d12bc77e","2","32","","","","","","","","","","","","","","","","","","","","","","",""
"","","","","","","","","","","","external-html","1","2.0.0","202156","66c37d71278acb17d12bc77e","2","32","200647","consent_form.html","","","","","","","","","","","","","","","","","","","","",""
"","","","","","","","","","","","fullscreen","2","2.0.0","210839","66c37d71278acb17d12bc77e","2","32","7670","","true","","","","","","","","","","","","","","","","","","","",""
"","","","","","","","","","","","call-function","3","2.0.0","210843","66c37d71278acb17d12bc77e","2","32","","","","{}","","","","","","","","","","","","","","","","","","",""
"","","","","","","","","","","","preload","4","2.0.0","231247","66c37d71278acb17d12bc77e","2","32","","","true","","false","[]","[]","[]","","","","","","","","","","","","","","",""
"","","","","","","","","","","","instructions","5","2.0.0","711880","66c37d71278acb17d12bc77e","2","32","480630","","","","","","","","[{""page_index"":0,""viewing_time"":59856},{""page_index"":1,""viewing_time"":355991},{""page_index"":2,""viewing_time"":64782}]","","","","","","","","","","","","","",""
"","","","","","","","","","","","html-button-response","6","2.0.0","718269","66c37d71278acb17d12bc77e","2","32","6388","","","","","","","","","","0","start_test","","","","","","","","","","",""
"","","","","","","","","","","","html-button-response","7","2.0.0","789478","66c37d71278acb17d12bc77e","2","32","71207","","","","","","","","","<img src= ""rock_img/I_Peridotite_05.jpg"" style=""width:8cm; height:7.1499999999999995cm;""><p>What type of rock is this?</p>","4","class_response","0","test","1","Obsidian","Peridotite","05","false","5","7","",""
"","","","","","","","","","","","html-keyboard-response","8","2.0.0","789988","66c37d71278acb17d12bc77e","2","32","null","","","","","","","","","<p style='font-size: 30px;'><strong>Okay</strong></p>","null","neutral_feedback","0","test","1","","","","","","","",""
"","","","","","","","","","","","html-button-response","9","2.0.0","794177","66c37d71278acb17d12bc77e","2","32","4186","","","","","","","","","<img src= ""rock_img/I_Pumice_08.jpg"" style=""width:8cm; height:6.67cm;""><p>What type of rock is this?</p>","2","class_response","0","test","2","Diorite","Pumice","08","false","3","8","",""
"","","","","","","","","","","","html-keyboard-response","10","2.0.0","794685","66c37d71278acb17d12bc77e","2","32","null","","","","","","","","","<p style='font-size: 30px;'><strong>Okay</strong></p>","null","neutral_feedback","0","test","2","","","","","","","",""
"","","","","","","","","","","","html-button-response","11","2.0.0","797960","66c37d71278acb17d12bc77e","2","32","3272","","","","","","","","","<img src= ""rock_img/I_Obsidian_02.jpg"" style=""width:8cm; height:7.51cm;""><p>What type of rock is this?</p>","1","class_response","0","test","3","Basalt","Obsidian","02","false","2","5","",""
"","","","","","","","","","","","html-keyboard-response","12","2.0.0","798467","66c37d71278acb17d12bc77e","2","32","null","","","","","","","","","<p style='font-size: 30px;'><strong>Okay</strong></p>","null","neutral_feedback","0","test","3","","","","","","","",""
"","","","","","","","","","","","html-button-response","13","2.0.0","802884","66c37d71278acb17d12bc77e","2","32","4414","","","","","","","","","<img src= ""rock_img/I_Andesite_16.jpg"" style=""width:8cm; height:6.010000000000001cm;""><p>What type of rock is this?</p>","0","class_response","0","test","4","Andesite","Andesite","16","true","1","1","",""
"","","","","","","","","","","","html-keyboard-response","14","2.0.0","803392","66c37d71278acb17d12bc77e","2","32","null","","","","","","","","","<p style='font-size: 30px;'><strong>Okay</strong></p>","null","neutral_feedback","0","test","4","","","","","","","",""
"","","","","","","","","","","","html-button-response","15","2.0.0","805752","66c37d71278acb17d12bc77e","2","32","2357","","","","","","","","","<img src= ""rock_img/I_Peridotite_12.jpg"" style=""width:8cm; height:4.54cm;""><p>What type of rock is this?</p>","2","class_response","0","test","5","Diorite","Peridotite","12","false","3","7","",""
"","","","","","","","","","","","html-keyboard-response","16","2.0.0","806267","66c37d71278acb17d12bc77e","2","32","null","","","","","","","","","<p style='font-size: 30px;'><strong>Okay</strong></p>","null","neutral_feedback","0","test","5","","","","","","","",""
"","","","","","","","","","","","html-button-response","17","2.0.0","808837","66c37d71278acb17d12bc77e","2","32","2567","","","","","","","","","<img src= ""rock_img/I_Pegmatite_09.jpg"" style=""width:8cm; height:4.03cm;""><p>What type of rock is this?</p>","7","class_response","0","test","6","Pumice","Pegmatite","09","false","8","6","",""
"","","","","","","","","","","","html-keyboard-response","18","2.0.0","809342","66c37d71278acb17d12bc77e","2","32","null","","","","","","","","","<p style='font-size: 30px;'><strong>Okay</strong></p>","null","neutral_feedback","0","test","6","","","","","","","",""
"","","","","","","","","","","","html-button-response","19","2.0.0","812959","66c37d71278acb17d12bc77e","2","32","3616","","","","","","","","","<img src= ""rock_img/I_Andesite_01.jpg"" style=""width:8cm; height:5.87cm;""><p>What type of rock is this?</p>","2","class_response","0","test","7","Diorite","Andesite","01","false","3","1","",""
"","","","","","","","","","","","html-keyboard-response","20","2.0.0","813466","66c37d71278acb17d12bc77e","2","32","null","","","","","","","","","<p style='font-size: 30px;'><strong>Okay</strong></p>","null","neutral_feedback","0","test","7","","","","","","","",""
"","","","","","","","","","","","html-button-response","21","2.0.0","816676","66c37d71278acb17d12bc77e","2","32","3207","","","","","","","","","<img src= ""rock_img/I_Pumice_13.jpg"" style=""width:8cm; height:8.200000000000001cm;""><p>What type of rock is this?</p>","3","class_response","0","test","8","Gabbro","Pumice","13","false","4","8","",""
"","","","","","","","","","","","html-keyboard-response","22","2.0.0","817181","66c37d71278acb17d12bc77e","2","32","null","","","","","","","","","<p style='font-size: 30px;'><strong>Okay</strong></p>","null","neutral_feedback","0","test","8","","","","","","","",""
"","","","","","","","","","","","html-button-response","23","2.0.0","819756","66c37d71278acb17d12bc77e","2","32","2572","","","","","","","","","<img src= ""rock_img/I_Diorite_11.jpg"" style=""width:8cm; height:7.11cm;""><p>What type of rock is this?</p>","6","class_response","0","test","9","Peridotite","Diorite","11","false","7","3","",""
"","","","","","","","","","","","html-keyboard-response","24","2.0.0","820277","66c37d71278acb17d12bc77e","2","32","null","","","","","","","","","<p style='font-size: 30px;'><strong>Okay</strong></p>","null","neutral_feedback","0","test","9","","","","","","","",""
"","","","","","","","","","","","html-button-response","25","2.0.0","822718","66c37d71278acb17d12bc77e","2","32","2439","","","","","","","","","<img src= ""rock_img/I_Peridotite_14.jpg"" style=""width:8cm; height:5.3cm;""><p>What type of rock is this?</p>","7","class_response","0","test","10","Pumice","Peridotite","14","false","8","7","",""
"","","","","","","","","","","","html-keyboard-response","26","2.0.0","823221","66c37d71278acb17d12bc77e","2","32","null","","","","","","","","","<p style='font-size: 30px;'><strong>Okay</strong></p>","null","neutral_feedback","0","test","10","","","","","","","",""
"","","","","","","","","","","","html-button-response","27","2.0.0","825944","66c37d71278acb17d12bc77e","2","32","2721","","","","","","","","","<img src= ""rock_img/I_Diorite_15.jpg"" style=""width:8cm; height:5.54cm;""><p>What type of rock is this?</p>","0","class_response","0","test","11","Andesite","Diorite","15","false","1","3","",""
"","","","","","","","","","","","html-keyboard-response","28","2.0.0","826451","66c37d71278acb17d12bc77e","2","32","null","","","","","","","","","<p style='font-size: 30px;'><strong>Okay</strong></p>","null","neutral_feedback","0","test","11","","","","","","","",""
"","","","","","","","","","","","html-button-response","29","2.0.0","829616","66c37d71278acb17d12bc77e","2","32","3162","","","","","","","","","<img src= ""rock_img/I_Obsidian_09.jpg"" style=""width:8cm; height:5cm;""><p>What type of rock is this?</p>","5","class_response","0","test","12","Pegmatite","Obsidian","09","false","6","5","",""
"","","","","","","","","","","","html-keyboard-response","30","2.0.0","830126","66c37d71278acb17d12bc77e","2","32","null","","","","","","","","","<p style='font-size: 30px;'><strong>Okay</strong></p>","null","neutral_feedback","0","test","12","","","","","","","",""
"","","","","","","","","","","","html-button-response","31","2.0.0","832353","66c37d71278acb17d12bc77e","2","32","2224","","","","","","","","","<img src= ""rock_img/I_Andesite_02.jpg"" style=""width:8cm; height:8.5cm;""><p>What type of rock is this?</p>","4","class_response","0","test","13","Obsidian","Andesite","02","false","5","1","",""
"","","","","","","","","","","","html-keyboard-response","32","2.0.0","832860","66c37d71278acb17d12bc77e","2","32","null","","","","","","","","","<p style='font-size: 30px;'><strong>Okay</strong></p>","null","neutral_feedback","0","test","13","","","","","","","",""
"","","","","","","","","","","","html-button-response","33","2.0.0","835198","66c37d71278acb17d12bc77e","2","32","2336","","","","","","","","","<img src= ""rock_img/I_Pumice_03.jpg"" style=""width:8cm; height:6.64cm;""><p>What type of rock is this?</p>","0","class_response","0","test","14","Andesite","Pumice","03","false","1","8","",""
"","","","","","","","","","","","html-keyboard-response","34","2.0.0","835704","66c37d71278acb17d12bc77e","2","32","null","","","","","","","","","<p style='font-size: 30px;'><strong>Okay</strong></p>","null","neutral_feedback","0","test","14","","","","","","","",""
"","","","","","","","","","","","html-button-response","35","2.0.0","837194","66c37d71278acb17d12bc77e","2","32","1488","","","","","","","","","<img src= ""rock_img/I_Pumice_14.jpg"" style=""width:8cm; height:6.39cm;""><p>What type of rock is this?</p>","2","class_response","0","test","15","Diorite","Pumice","14","false","3","8","",""
"","","","","","","","","","","","html-keyboard-response","36","2.0.0","837704","66c37d71278acb17d12bc77e","2","32","null","","","","","","","","","<p style='font-size: 30px;'><strong>Okay</strong></p>","null","neutral_feedback","0","test","15","","","","","","","",""
"","","","","","","","","","","","html-button-response","37","2.0.0","844139","66c37d71278acb17d12bc77e","2","32","6433","","","","","","","","","<img src= ""rock_img/I_Pegmatite_13.jpg"" style=""width:8cm; height:4.95cm;""><p>What type of rock is this?</p>","1","class_response","0","test","16","Basalt","Pegmatite","13","false","2","6","",""
"","","","","","","","","","","","html-keyboard-response","38","2.0.0","844653","66c37d71278acb17d12bc77e","2","32","null","","","","","","","","","<p style='font-size: 30px;'><strong>Okay</strong></p>","null","neutral_feedback","0","test","16","","","","","","","",""
"","","","","","","","","","","","html-button-response","39","2.0.0","845927","66c37d71278acb17d12bc77e","2","32","1271","","","","","","","","","<img src= ""rock_img/I_Gabbro_09.jpg"" style=""width:8cm; height:7.279999999999999cm;""><p>What type of rock is this?</p>","2","class_response","0","test","17","Diorite","Gabbro","09","false","3","4","",""
"","","","","","","","","","","","html-keyboard-response","40","2.0.0","846438","66c37d71278acb17d12bc77e","2","32","null","","","","","","","","","<p style='font-size: 30px;'><strong>Okay</strong></p>","null","neutral_feedback","0","test","17","","","","","","","",""
"","","","","","","","","","","","html-button-response","41","2.0.0","848351","66c37d71278acb17d12bc77e","2","32","1910","","","","","","","","","<img src= ""rock_img/I_Basalt_06.jpg"" style=""width:8cm; height:7.06cm;""><p>What type of rock is this?</p>","0","class_response","0","test","18","Andesite","Basalt","06","false","1","2","",""
"","","","","","","","","","","","html-keyboard-response","42","2.0.0","848860","66c37d71278acb17d12bc77e","2","32","null","","","","","","","","","<p style='font-size: 30px;'><strong>Okay</strong></p>","null","neutral_feedback","0","test","18","","","","","","","",""
"","","","","","","","","","","","html-button-response","43","2.0.0","850125","66c37d71278acb17d12bc77e","2","32","1262","","","","","","","","","<img src= ""rock_img/I_Basalt_11.jpg"" style=""width:8cm; height:5.359999999999999cm;""><p>What type of rock is this?</p>","4","class_response","0","test","19","Obsidian","Basalt","11","false","5","2","",""
"","","","","","","","","","","","html-keyboard-response","44","2.0.0","850632","66c37d71278acb17d12bc77e","2","32","null","","","","","","","","","<p style='font-size: 30px;'><strong>Okay</strong></p>","null","neutral_feedback","0","test","19","","","","","","","",""
"","","","","","","","","","","","html-button-response","45","2.0.0","851915","66c37d71278acb17d12bc77e","2","32","1280","","","","","","","","","<img src= ""rock_img/I_Gabbro_16.jpg"" style=""width:8cm; height:6.44cm;""><p>What type of rock is this?</p>","3","class_response","0","test","20","Gabbro","Gabbro","16","true","4","4","",""
"","","","","","","","","","","","html-keyboard-response","46","2.0.0","852425","66c37d71278acb17d12bc77e","2","32","null","","","","","","","","","<p style='font-size: 30px;'><strong>Okay</strong></p>","null","neutral_feedback","0","test","20","","","","","","","",""
"","","","","","","","","","","","html-button-response","47","2.0.0","854438","66c37d71278acb17d12bc77e","2","32","2010","","","","","","","","","<img src= ""rock_img/I_Basalt_04.jpg"" style=""width:8cm; height:7.53cm;""><p>What type of rock is this?</p>","6","class_response","0","test","21","Peridotite","Basalt","04","false","7","2","",""
"","","","","","","","","","","","html-keyboard-response","48","2.0.0","854950","66c37d71278acb17d12bc77e","2","32","null","","","","","","","","","<p style='font-size: 30px;'><strong>Okay</strong></p>","null","neutral_feedback","0","test","21","","","","","","","",""
"","","","","","","","","","","","html-button-response","49","2.0.0","856367","66c37d71278acb17d12bc77e","2","32","1415","","","","","","","","","<img src= ""rock_img/I_Andesite_14.jpg"" style=""width:8cm; height:5.449999999999999cm;""><p>What type of rock is this?</p>","2","class_response","0","test","22","Diorite","Andesite","14","false","3","1","",""
"","","","","","","","","","","","html-keyboard-response","50","2.0.0","856877","66c37d71278acb17d12bc77e","2","32","null","","","","","","","","","<p style='font-size: 30px;'><strong>Okay</strong></p>","null","neutral_feedback","0","test","22","","","","","","","",""
"","","","","","","","","","","","html-button-response","51","2.0.0","861078","66c37d71278acb17d12bc77e","2","32","4197","","","","","","","","","<img src= ""rock_img/I_Pegmatite_15.jpg"" style=""width:8cm; height:6cm;""><p>What type of rock is this?</p>","3","class_response","0","test","23","Gabbro","Pegmatite","15","false","4","6","",""
"","","","","","","","","","","","html-keyboard-response","52","2.0.0","861581","66c37d71278acb17d12bc77e","2","32","null","","","","","","","","","<p style='font-size: 30px;'><strong>Okay</strong></p>","null","neutral_feedback","0","test","23","","","","","","","",""
"","","","","","","","","","","","html-button-response","53","2.0.0","863091","66c37d71278acb17d12bc77e","2","32","1507","","","","","","","","","<img src= ""rock_img/I_Peridotite_02.jpg"" style=""width:8cm; height:5.859999999999999cm;""><p>What type of rock is this?</p>","3","class_response","0","test","24","Gabbro","Peridotite","02","false","4","7","",""
"","","","","","","","","","","","html-keyboard-response","54","2.0.0","863596","66c37d71278acb17d12bc77e","2","32","null","","","","","","","","","<p style='font-size: 30px;'><strong>Okay</strong></p>","null","neutral_feedback","0","test","24","","","","","","","",""
"","","","","","","","","","","","html-button-response","55","2.0.0","865608","66c37d71278acb17d12bc77e","2","32","2009","","","","","","","","","<img src= ""rock_img/I_Basalt_05.jpg"" style=""width:8cm; height:8.18cm;""><p>What type of rock is this?</p>","1","class_response","0","test","25","Basalt","Basalt","05","true","2","2","",""
"","","","","","","","","","","","html-keyboard-response","56","2.0.0","866117","66c37d71278acb17d12bc77e","2","32","null","","","","","","","","","<p style='font-size: 30px;'><strong>Okay</strong></p>","null","neutral_feedback","0","test","25","","","","","","","",""
"","","","","","","","","","","","html-button-response","57","2.0.0","874093","66c37d71278acb17d12bc77e","2","32","7973","","","","","","","","","<img src= ""rock_img/I_Gabbro_05.jpg"" style=""width:8cm; height:6cm;""><p>What type of rock is this?</p>","5","class_response","0","test","26","Pegmatite","Gabbro","05","false","6","4","",""
"","","","","","","","","","","","html-keyboard-response","58","2.0.0","874602","66c37d71278acb17d12bc77e","2","32","null","","","","","","","","","<p style='font-size: 30px;'><strong>Okay</strong></p>","null","neutral_feedback","0","test","26","","","","","","","",""
"","","","","","","","","","","","html-button-response","59","2.0.0","875795","66c37d71278acb17d12bc77e","2","32","1190","","","","","","","","","<img src= ""rock_img/I_Pumice_09.jpg"" style=""width:8cm; height:6.44cm;""><p>What type of rock is this?</p>","2","class_response","0","test","27","Diorite","Pumice","09","false","3","8","",""
"","","","","","","","","","","","html-keyboard-response","60","2.0.0","876304","66c37d71278acb17d12bc77e","2","32","null","","","","","","","","","<p style='font-size: 30px;'><strong>Okay</strong></p>","null","neutral_feedback","0","test","27","","","","","","","",""
"","","","","","","","","","","","html-button-response","61","2.0.0","877207","66c37d71278acb17d12bc77e","2","32","900","","","","","","","","","<img src= ""rock_img/I_Pegmatite_05.jpg"" style=""width:8cm; height:7.300000000000001cm;""><p>What type of rock is this?</p>","6","class_response","0","test","28","Peridotite","Pegmatite","05","false","7","6","",""
"","","","","","","","","","","","html-keyboard-response","62","2.0.0","877717","66c37d71278acb17d12bc77e","2","32","null","","","","","","","","","<p style='font-size: 30px;'><strong>Okay</strong></p>","null","neutral_feedback","0","test","28","","","","","","","",""
"","","","","","","","","","","","html-button-response","63","2.0.0","881030","66c37d71278acb17d12bc77e","2","32","3310","","","","","","","","","<img src= ""rock_img/I_Gabbro_12.jpg"" style=""width:8cm; height:7.800000000000001cm;""><p>What type of rock is this?</p>","2","class_response","0","test","29","Diorite","Gabbro","12","false","3","4","",""
"","","","","","","","","","","","html-keyboard-response","64","2.0.0","881538","66c37d71278acb17d12bc77e","2","32","null","","","","","","","","","<p style='font-size: 30px;'><strong>Okay</strong></p>","null","neutral_feedback","0","test","29","","","","","","","",""
"","","","","","","","","","","","html-button-response","65","2.0.0","883057","66c37d71278acb17d12bc77e","2","32","1516","","","","","","","","","<img src= ""rock_img/I_Basalt_10.jpg"" style=""width:8cm; height:5.85cm;""><p>What type of rock is this?</p>","1","class_response","0","test","30","Basalt","Basalt","10","true","2","2","",""
"","","","","","","","","","","","html-keyboard-response","66","2.0.0","883568","66c37d71278acb17d12bc77e","2","32","null","","","","","","","","","<p style='font-size: 30px;'><strong>Okay</strong></p>","null","neutral_feedback","0","test","30","","","","","","","",""
"","","","","","","","","","","","html-button-response","67","2.0.0","885131","66c37d71278acb17d12bc77e","2","32","1560","","","","","","","","","<img src= ""rock_img/I_Diorite_06.jpg"" style=""width:8cm; height:6.03cm;""><p>What type of rock is this?</p>","3","class_response","0","test","31","Gabbro","Diorite","06","false","4","3","",""
"","","","","","","","","","","","html-keyboard-response","68","2.0.0","885638","66c37d71278acb17d12bc77e","2","32","null","","","","","","","","","<p style='font-size: 30px;'><strong>Okay</strong></p>","null","neutral_feedback","0","test","31","","","","","","","",""
"","","","","","","","","","","","html-button-response","69","2.0.0","887065","66c37d71278acb17d12bc77e","2","32","1423","","","","","","","","","<img src= ""rock_img/I_Pumice_04.jpg"" style=""width:8cm; height:6.819999999999999cm;""><p>What type of rock is this?</p>","7","class_response","0","test","32","Pumice","Pumice","04","true","8","8","",""
"","","","","","","","","","","","html-keyboard-response","70","2.0.0","887568","66c37d71278acb17d12bc77e","2","32","null","","","","","","","","","<p style='font-size: 30px;'><strong>Okay</strong></p>","null","neutral_feedback","0","test","32","","","","","","","",""
"","","","","","","","","","","","html-button-response","71","2.0.0","888902","66c37d71278acb17d12bc77e","2","32","1330","","","","","","","","","<img src= ""rock_img/I_Obsidian_05.jpg"" style=""width:8cm; height:6.33cm;""><p>What type of rock is this?</p>","3","class_response","0","test","33","Gabbro","Obsidian","05","false","4","5","",""
"","","","","","","","","","","","html-keyboard-response","72","2.0.0","889410","66c37d71278acb17d12bc77e","2","32","null","","","","","","","","","<p style='font-size: 30px;'><strong>Okay</strong></p>","null","neutral_feedback","0","test","33","","","","","","","",""
"","","","","","","","","","","","html-button-response","73","2.0.0","890488","66c37d71278acb17d12bc77e","2","32","1075","","","","","","","","","<img src= ""rock_img/I_Diorite_13.jpg"" style=""width:8cm; height:6.29cm;""><p>What type of rock is this?</p>","1","class_response","0","test","34","Basalt","Diorite","13","false","2","3","",""
"","","","","","","","","","","","html-keyboard-response","74","2.0.0","890996","66c37d71278acb17d12bc77e","2","32","null","","","","","","","","","<p style='font-size: 30px;'><strong>Okay</strong></p>","null","neutral_feedback","0","test","34","","","","","","","",""
"","","","","","","","","","","","html-button-response","75","2.0.0","894000","66c37d71278acb17d12bc77e","2","32","3001","","","","","","","","","<img src= ""rock_img/I_Obsidian_10.jpg"" style=""width:8cm; height:6.260000000000001cm;""><p>What type of rock is this?</p>","3","class_response","0","test","35","Gabbro","Obsidian","10","false","4","5","",""
"","","","","","","","","","","","html-keyboard-response","76","2.0.0","894508","66c37d71278acb17d12bc77e","2","32","null","","","","","","","","","<p style='font-size: 30px;'><strong>Okay</strong></p>","null","neutral_feedback","0","test","35","","","","","","","",""
"","","","","","","","","","","","html-button-response","77","2.0.0","895749","66c37d71278acb17d12bc77e","2","32","1239","","","","","","","","","<img src= ""rock_img/I_Gabbro_10.jpg"" style=""width:8cm; height:5.680000000000001cm;""><p>What type of rock is this?</p>","7","class_response","0","test","36","Pumice","Gabbro","10","false","8","4","",""
"","","","","","","","","","","","html-keyboard-response","78","2.0.0","896260","66c37d71278acb17d12bc77e","2","32","null","","","","","","","","","<p style='font-size: 30px;'><strong>Okay</strong></p>","null","neutral_feedback","0","test","36","","","","","","","",""
"","","","","","","","","","","","html-button-response","79","2.0.0","898857","66c37d71278acb17d12bc77e","2","32","2596","","","","","","","","","<img src= ""rock_img/I_Pegmatite_06.jpg"" style=""width:8cm; height:5.17cm;""><p>What type of rock is this?</p>","2","class_response","0","test","37","Diorite","Pegmatite","06","false","3","6","",""
"","","","","","","","","","","","html-keyboard-response","80","2.0.0","899366","66c37d71278acb17d12bc77e","2","32","null","","","","","","","","","<p style='font-size: 30px;'><strong>Okay</strong></p>","null","neutral_feedback","0","test","37","","","","","","","",""
"","","","","","","","","","","","html-button-response","81","2.0.0","900713","66c37d71278acb17d12bc77e","2","32","1346","","","","","","","","","<img src= ""rock_img/I_Peridotite_15.jpg"" style=""width:8cm; height:6cm;""><p>What type of rock is this?</p>","1","class_response","0","test","38","Basalt","Peridotite","15","false","2","7","",""
"","","","","","","","","","","","html-keyboard-response","82","2.0.0","901216","66c37d71278acb17d12bc77e","2","32","null","","","","","","","","","<p style='font-size: 30px;'><strong>Okay</strong></p>","null","neutral_feedback","0","test","38","","","","","","","",""
"","","","","","","","","","","","html-button-response","83","2.0.0","901987","66c37d71278acb17d12bc77e","2","32","770","","","","","","","","","<img src= ""rock_img/I_Diorite_08.jpg"" style=""width:8cm; height:6.37cm;""><p>What type of rock is this?</p>","6","class_response","0","test","39","Peridotite","Diorite","08","false","7","3","",""
"","","","","","","","","","","","html-keyboard-response","84","2.0.0","902491","66c37d71278acb17d12bc77e","2","32","null","","","","","","","","","<p style='font-size: 30px;'><strong>Okay</strong></p>","null","neutral_feedback","0","test","39","","","","","","","",""
"","","","","","","","","","","","html-button-response","85","2.0.0","903200","66c37d71278acb17d12bc77e","2","32","707","","","","","","","","","<img src= ""rock_img/I_Basalt_14.jpg"" style=""width:8cm; height:5.82cm;""><p>What type of rock is this?</p>","3","class_response","0","test","40","Gabbro","Basalt","14","false","4","2","",""
"","","","","","","","","","","","html-keyboard-response","86","2.0.0","903716","66c37d71278acb17d12bc77e","2","32","null","","","","","","","","","<p style='font-size: 30px;'><strong>Okay</strong></p>","null","neutral_feedback","0","test","40","","","","","","","",""
"","","","","","","","","","","","html-button-response","87","2.0.0","904312","66c37d71278acb17d12bc77e","2","32","591","","","","","","","","","<img src= ""rock_img/I_Andesite_10.jpg"" style=""width:8cm; height:4.16cm;""><p>What type of rock is this?</p>","2","class_response","0","test","41","Diorite","Andesite","10","false","3","1","",""
"","","","","","","","","","","","html-keyboard-response","88","2.0.0","904819","66c37d71278acb17d12bc77e","2","32","null","","","","","","","","","<p style='font-size: 30px;'><strong>Okay</strong></p>","null","neutral_feedback","0","test","41","","","","","","","",""
"","","","","","","","","","","","html-button-response","89","2.0.0","905702","66c37d71278acb17d12bc77e","2","32","880","","","","","","","","","<img src= ""rock_img/I_Obsidian_16.jpg"" style=""width:8cm; height:9.3cm;""><p>What type of rock is this?</p>","1","class_response","0","test","42","Basalt","Obsidian","16","false","2","5","",""
"","","","","","","","","","","","html-keyboard-response","90","2.0.0","906205","66c37d71278acb17d12bc77e","2","32","null","","","","","","","","","<p style='font-size: 30px;'><strong>Okay</strong></p>","null","neutral_feedback","0","test","42","","","","","","","",""
"","","","","","","","","","","","html-button-response","91","2.0.0","906945","66c37d71278acb17d12bc77e","2","32","739","","","","","","","","","<img src= ""rock_img/I_Andesite_07.jpg"" style=""width:8cm; height:5.93cm;""><p>What type of rock is this?</p>","5","class_response","0","test","43","Pegmatite","Andesite","07","false","6","1","",""
"","","","","","","","","","","","html-keyboard-response","92","2.0.0","907449","66c37d71278acb17d12bc77e","2","32","null","","","","","","","","","<p style='font-size: 30px;'><strong>Okay</strong></p>","null","neutral_feedback","0","test","43","","","","","","","",""
"","","","","","","","","","","","html-button-response","93","2.0.0","908217","66c37d71278acb17d12bc77e","2","32","766","","","","","","","","","<img src= ""rock_img/I_Pegmatite_11.jpg"" style=""width:8cm; height:8.14cm;""><p>What type of rock is this?</p>","6","class_response","0","test","44","Peridotite","Pegmatite","11","false","7","6","",""
"","","","","","","","","","","","html-keyboard-response","94","2.0.0","908728","66c37d71278acb17d12bc77e","2","32","null","","","","","","","","","<p style='font-size: 30px;'><strong>Okay</strong></p>","null","neutral_feedback","0","test","44","","","","","","","",""
"","","","","","","","","","","","html-button-response","95","2.0.0","909347","66c37d71278acb17d12bc77e","2","32","618","","","","","","","","","<img src= ""rock_img/I_Peridotite_13.jpg"" style=""width:8cm; height:7.58cm;""><p>What type of rock is this?</p>","5","class_response","0","test","45","Pegmatite","Peridotite","13","false","6","7","",""
"","","","","","","","","","","","html-keyboard-response","96","2.0.0","909859","66c37d71278acb17d12bc77e","2","32","null","","","","","","","","","<p style='font-size: 30px;'><strong>Okay</strong></p>","null","neutral_feedback","0","test","45","","","","","","","",""
"","","","","","","","","","","","html-button-response","97","2.0.0","910514","66c37d71278acb17d12bc77e","2","32","652","","","","","","","","","<img src= ""rock_img/I_Diorite_10.jpg"" style=""width:8cm; height:5.949999999999999cm;""><p>What type of rock is this?</p>","3","class_response","0","test","46","Gabbro","Diorite","10","false","4","3","",""
"","","","","","","","","","","","html-keyboard-response","98","2.0.0","911019","66c37d71278acb17d12bc77e","2","32","null","","","","","","","","","<p style='font-size: 30px;'><strong>Okay</strong></p>","null","neutral_feedback","0","test","46","","","","","","","",""
"","","","","","","","","","","","html-button-response","99","2.0.0","911477","66c37d71278acb17d12bc77e","2","32","456","","","","","","","","","<img src= ""rock_img/I_Gabbro_15.jpg"" style=""width:8cm; height:6.29cm;""><p>What type of rock is this?</p>","2","class_response","0","test","47","Diorite","Gabbro","15","false","3","4","",""
"","","","","","","","","","","","html-keyboard-response","100","2.0.0","911982","66c37d71278acb17d12bc77e","2","32","null","","","","","","","","","<p style='font-size: 30px;'><strong>Okay</strong></p>","null","neutral_feedback","0","test","47","","","","","","","",""
"","","","","","","","","","","","html-button-response","101","2.0.0","912552","66c37d71278acb17d12bc77e","2","32","568","","","","","","","","","<img src= ""rock_img/I_Obsidian_14.jpg"" style=""width:8cm; height:7.64cm;""><p>What type of rock is this?</p>","3","class_response","0","test","48","Gabbro","Obsidian","14","false","4","5","",""
"","","","","","","","","","","","html-keyboard-response","102","2.0.0","913058","66c37d71278acb17d12bc77e","2","32","null","","","","","","","","","<p style='font-size: 30px;'><strong>Okay</strong></p>","null","neutral_feedback","0","test","48","","","","","","","",""
"","","","","","","","","","","","instructions","103","2.0.0","1066848","66c37d71278acb17d12bc77e","2","32","153766","","","","","","","","[{""page_index"":0,""viewing_time"":135988},{""page_index"":1,""viewing_time"":9122},{""page_index"":2,""viewing_time"":8657}]","","","","","","","","","","","","","",""
"","","","","","","","","","","","html-button-response","104","2.0.0","1073104","66c37d71278acb17d12bc77e","2","32","6255","","","","","","","","","","0","start_train","","","","","","","","","","",""
"","","","","","","","","","","","html-button-response","105","2.0.0","1082964","66c37d71278acb17d12bc77e","2","32","9857","","","","","","","","","<img src= ""rock_img/I_Pumice_10.jpg"" style=""width:8cm; height:7.609999999999999cm;""><p>What type of rock is this?</p>","0","class_response","1","train","1","Andesite","Pumice","10","false","1","8","",""
"","","","","","","","","","","","html-button-response","106","2.0.0","1099476","66c37d71278acb17d12bc77e","2","32","16510","","","","","","","","","<img src= rock_img/I_Pumice_10.jpg style=""width:8cm; height:7.609999999999999cm;""><p style='font-size: 30px; color: red;'><strong>Incorrect!</strong></p><p style='font-size: 30px;'><strong>This rock is pumice</strong></p>","0","corr_feedback","1","train","1","","","","","","","",""
"","","","","","","","","","","","html-button-response","107","2.0.0","1102958","66c37d71278acb17d12bc77e","2","32","3481","","","","","","","","","<img src= ""rock_img/I_Basalt_12.jpg"" style=""width:8cm; height:6.010000000000001cm;""><p>What type of rock is this?</p>","1","class_response","1","train","2","Basalt","Basalt","12","true","2","2","",""
"","","","","","","","","","","","html-button-response","108","2.0.0","1110566","66c37d71278acb17d12bc77e","2","32","7606","","","","","","","","","<img src= rock_img/I_Basalt_12.jpg style=""width:8cm; height:6.010000000000001cm;""><p style='font-size: 30px; color: green;'><strong>Correct!</strong></p><p style='font-size: 30px;'><strong>This rock is basalt</strong></p>","0","corr_feedback","1","train","2","","","","","","","",""
"","","","","","","","","","","","html-button-response","109","2.0.0","1113566","66c37d71278acb17d12bc77e","2","32","2999","","","","","","","","","<img src= ""rock_img/I_Andesite_06.jpg"" style=""width:8cm; height:6.840000000000001cm;""><p>What type of rock is this?</p>","2","class_response","1","train","3","Diorite","Andesite","06","false","3","1","",""
"","","","","","","","","","","","html-button-response","110","2.0.0","1124113","66c37d71278acb17d12bc77e","2","32","10545","","","","","","","","","<img src= rock_img/I_Andesite_06.jpg style=""width:8cm; height:6.840000000000001cm;""><p style='font-size: 30px; color: red;'><strong>Incorrect!</strong></p><p style='font-size: 30px;'><strong>This rock is andesite</strong></p>","0","corr_feedback","1","train","3","","","","","","","",""
"","","","","","","","","","","","html-button-response","111","2.0.0","1128320","66c37d71278acb17d12bc77e","2","32","4205","","","","","","","","","<img src= ""rock_img/I_Peridotite_16.jpg"" style=""width:8cm; height:6.989999999999999cm;""><p>What type of rock is this?</p>","3","class_response","1","train","4","Gabbro","Peridotite","16","false","4","7","",""
"","","","","","","","","","","","html-button-response","112","2.0.0","1134480","66c37d71278acb17d12bc77e","2","32","6160","","","","","","","","","<img src= rock_img/I_Peridotite_16.jpg style=""width:8cm; height:6.989999999999999cm;""><p style='font-size: 30px; color: red;'><strong>Incorrect!</strong></p><p style='font-size: 30px;'><strong>This rock is peridotite</strong></p>","0","corr_feedback","1","train","4","","","","","","","",""
"","","","","","","","","","","","html-button-response","113","2.0.0","1135858","66c37d71278acb17d12bc77e","2","32","1376","","","","","","","","","<img src= ""rock_img/I_Basalt_09.jpg"" style=""width:8cm; height:6.2cm;""><p>What type of rock is this?</p>","4","class_response","1","train","5","Obsidian","Basalt","09","false","5","2","",""
"","","","","","","","","","","","html-button-response","114","2.0.0","1142848","66c37d71278acb17d12bc77e","2","32","6988","","","","","","","","","<img src= rock_img/I_Basalt_09.jpg style=""width:8cm; height:6.2cm;""><p style='font-size: 30px; color: red;'><strong>Incorrect!</strong></p><p style='font-size: 30px;'><strong>This rock is basalt</strong></p>","0","corr_feedback","1","train","5","","","","","","","",""
"","","","","","","","","","","","html-button-response","115","2.0.0","1145007","66c37d71278acb17d12bc77e","2","32","2157","","","","","","","","","<img src= ""rock_img/I_Pegmatite_16.jpg"" style=""width:8cm; height:5.8cm;""><p>What type of rock is this?</p>","1","class_response","1","train","6","Basalt","Pegmatite","16","false","2","6","",""
"","","","","","","","","","","","html-button-response","116","2.0.0","1151575","66c37d71278acb17d12bc77e","2","32","6567","","","","","","","","","<img src= rock_img/I_Pegmatite_16.jpg style=""width:8cm; height:5.8cm;""><p style='font-size: 30px; color: red;'><strong>Incorrect!</strong></p><p style='font-size: 30px;'><strong>This rock is pegmatite</strong></p>","0","corr_feedback","1","train","6","","","","","","","",""
"","","","","","","","","","","","html-button-response","117","2.0.0","1153487","66c37d71278acb17d12bc77e","2","32","1910","","","","","","","","","<img src= ""rock_img/I_Gabbro_03.jpg"" style=""width:8cm; height:8.52cm;""><p>What type of rock is this?</p>","7","class_response","1","train","7","Pumice","Gabbro","03","false","8","4","",""
"","","","","","","","","","","","html-button-response","118","2.0.0","1161083","66c37d71278acb17d12bc77e","2","32","7593","","","","","","","","","<img src= rock_img/I_Gabbro_03.jpg style=""width:8cm; height:8.52cm;""><p style='font-size: 30px; color: red;'><strong>Incorrect!</strong></p><p style='font-size: 30px;'><strong>This rock is gabbro</strong></p>","0","corr_feedback","1","train","7","","","","","","","",""
"","","","","","","","","","","","html-button-response","119","2.0.0","1162789","66c37d71278acb17d12bc77e","2","32","1702","","","","","","","","","<img src= ""rock_img/I_Obsidian_07.jpg"" style=""width:8cm; height:4.76cm;""><p>What type of rock is this?</p>","6","class_response","1","train","8","Peridotite","Obsidian","07","false","7","5","",""
"","","","","","","","","","","","html-button-response","120","2.0.0","1168990","66c37d71278acb17d12bc77e","2","32","6198","","","","","","","","","<img src= rock_img/I_Obsidian_07.jpg style=""width:8cm; height:4.76cm;""><p style='font-size: 30px; color: red;'><strong>Incorrect!</strong></p><p style='font-size: 30px;'><strong>This rock is obsidian</strong></p>","0","corr_feedback","1","train","8","","","","","","","",""
"","","","","","","","","","","","html-button-response","121","2.0.0","1170590","66c37d71278acb17d12bc77e","2","32","1597","","","","","","","","","<img src= ""rock_img/I_Diorite_16.jpg"" style=""width:8cm; height:6.74cm;""><p>What type of rock is this?</p>","2","class_response","1","train","9","Diorite","Diorite","16","true","3","3","",""
"","","","","","","","","","","","html-button-response","122","2.0.0","1177064","66c37d71278acb17d12bc77e","2","32","6472","","","","","","","","","<img src= rock_img/I_Diorite_16.jpg style=""width:8cm; height:6.74cm;""><p style='font-size: 30px; color: green;'><strong>Correct!</strong></p><p style='font-size: 30px;'><strong>This rock is diorite</strong></p>","0","corr_feedback","1","train","9","","","","","","","",""
"","","","","","","","","","","","html-button-response","123","2.0.0","1179357","66c37d71278acb17d12bc77e","2","32","2292","","","","","","","","","<img src= ""rock_img/I_Obsidian_11.jpg"" style=""width:8cm; height:6.05cm;""><p>What type of rock is this?</p>","5","class_response","1","train","10","Pegmatite","Obsidian","11","false","6","5","",""
"","","","","","","","","","","","html-button-response","124","2.0.0","1186229","66c37d71278acb17d12bc77e","2","32","6871","","","","","","","","","<img src= rock_img/I_Obsidian_11.jpg style=""width:8cm; height:6.05cm;""><p style='font-size: 30px; color: red;'><strong>Incorrect!</strong></p><p style='font-size: 30px;'><strong>This rock is obsidian</strong></p>","0","corr_feedback","1","train","10","","","","","","","",""
"","","","","","","","","","","","html-button-response","125","2.0.0","1188413","66c37d71278acb17d12bc77e","2","32","2183","","","","","","","","","<img src= ""rock_img/I_Peridotite_08.jpg"" style=""width:8cm; height:6.7cm;""><p>What type of rock is this?</p>","1","class_response","1","train","11","Basalt","Peridotite","08","false","2","7","",""
"","","","","","","","","","","","html-button-response","126","2.0.0","1195836","66c37d71278acb17d12bc77e","2","32","7422","","","","","","","","","<img src= rock_img/I_Peridotite_08.jpg style=""width:8cm; height:6.7cm;""><p style='font-size: 30px; color: red;'><strong>Incorrect!</strong></p><p style='font-size: 30px;'><strong>This rock is peridotite</strong></p>","0","corr_feedback","1","train","11","","","","","","","",""
"","","","","","","","","","","","html-button-response","127","2.0.0","1197145","66c37d71278acb17d12bc77e","2","32","1307","","","","","","","","","<img src= ""rock_img/I_Peridotite_10.jpg"" style=""width:8cm; height:5.390000000000001cm;""><p>What type of rock is this?</p>","3","class_response","1","train","12","Gabbro","Peridotite","10","false","4","7","",""
"","","","","","","","","","","","html-button-response","128","2.0.0","1203410","66c37d71278acb17d12bc77e","2","32","6264","","","","","","","","","<img src= rock_img/I_Peridotite_10.jpg style=""width:8cm; height:5.390000000000001cm;""><p style='font-size: 30px; color: red;'><strong>Incorrect!</strong></p><p style='font-size: 30px;'><strong>This rock is peridotite</strong></p>","0","corr_feedback","1","train","12","","","","","","","",""
"","","","","","","","","","","","html-button-response","129","2.0.0","1205132","66c37d71278acb17d12bc77e","2","32","1720","","","","","","","","","<img src= ""rock_img/I_Basalt_01.jpg"" style=""width:8cm; height:7.880000000000001cm;""><p>What type of rock is this?</p>","2","class_response","1","train","13","Diorite","Basalt","01","false","3","2","",""
"","","","","","","","","","","","html-button-response","130","2.0.0","1213106","66c37d71278acb17d12bc77e","2","32","7972","","","","","","","","","<img src= rock_img/I_Basalt_01.jpg style=""width:8cm; height:7.880000000000001cm;""><p style='font-size: 30px; color: red;'><strong>Incorrect!</strong></p><p style='font-size: 30px;'><strong>This rock is basalt</strong></p>","0","corr_feedback","1","train","13","","","","","","","",""
"","","","","","","","","","","","html-button-response","131","2.0.0","1215515","66c37d71278acb17d12bc77e","2","32","2407","","","","","","","","","<img src= ""rock_img/I_Diorite_12.jpg"" style=""width:8cm; height:4.88cm;""><p>What type of rock is this?</p>","6","class_response","1","train","14","Peridotite","Diorite","12","false","7","3","",""
"","","","","","","","","","","","html-button-response","132","2.0.0","1221078","66c37d71278acb17d12bc77e","2","32","5561","","","","","","","","","<img src= rock_img/I_Diorite_12.jpg style=""width:8cm; height:4.88cm;""><p style='font-size: 30px; color: red;'><strong>Incorrect!</strong></p><p style='font-size: 30px;'><strong>This rock is diorite</strong></p>","0","corr_feedback","1","train","14","","","","","","","",""
"","","","","","","","","","","","html-button-response","133","2.0.0","1223192","66c37d71278acb17d12bc77e","2","32","2113","","","","","","","","","<img src= ""rock_img/I_Gabbro_13.jpg"" style=""width:8cm; height:5.08cm;""><p>What type of rock is this?</p>","3","class_response","1","train","15","Gabbro","Gabbro","13","true","4","4","",""
"","","","","","","","","","","","html-button-response","134","2.0.0","1229737","66c37d71278acb17d12bc77e","2","32","6544","","","","","","","","","<img src= rock_img/I_Gabbro_13.jpg style=""width:8cm; height:5.08cm;""><p style='font-size: 30px; color: green;'><strong>Correct!</strong></p><p style='font-size: 30px;'><strong>This rock is gabbro</strong></p>","0","corr_feedback","1","train","15","","","","","","","",""
"","","","","","","","","","","","html-button-response","135","2.0.0","1231851","66c37d71278acb17d12bc77e","2","32","2112","","","","","","","","","<img src= ""rock_img/I_Basalt_08.jpg"" style=""width:8cm; height:10.44cm;""><p>What type of rock is this?</p>","1","class_response","1","train","16","Basalt","Basalt","08","true","2","2","",""
"","","","","","","","","","","","html-button-response","136","2.0.0","1238903","66c37d71278acb17d12bc77e","2","32","7051","","","","","","","","","<img src= rock_img/I_Basalt_08.jpg style=""width:8cm; height:10.44cm;""><p style='font-size: 30px; color: green;'><strong>Correct!</strong></p><p style='font-size: 30px;'><strong>This rock is basalt</strong></p>","0","corr_feedback","1","train","16","","","","","","","",""
"","","","","","","","","","","","html-button-response","137","2.0.0","1241032","66c37d71278acb17d12bc77e","2","32","2127","","","","","","","","","<img src= ""rock_img/I_Diorite_02.jpg"" style=""width:8cm; height:6.27cm;""><p>What type of rock is this?</p>","0","class_response","1","train","17","Andesite","Diorite","02","false","1","3","",""
"","","","","","","","","","","","html-button-response","138","2.0.0","1248195","66c37d71278acb17d12bc77e","2","32","7162","","","","","","","","","<img src= rock_img/I_Diorite_02.jpg style=""width:8cm; height:6.27cm;""><p style='font-size: 30px; color: red;'><strong>Incorrect!</strong></p><p style='font-size: 30px;'><strong>This rock is diorite</strong></p>","0","corr_feedback","1","train","17","","","","","","","",""
"","","","","","","","","","","","html-button-response","139","2.0.0","1251739","66c37d71278acb17d12bc77e","2","32","3542","","","","","","","","","<img src= ""rock_img/I_Pegmatite_07.jpg"" style=""width:8cm; height:6.7cm;""><p>What type of rock is this?</p>","5","class_response","1","train","18","Pegmatite","Pegmatite","07","true","6","6","",""
"","","","","","","","","","","","html-button-response","140","2.0.0","1258730","66c37d71278acb17d12bc77e","2","32","6989","","","","","","","","","<img src= rock_img/I_Pegmatite_07.jpg style=""width:8cm; height:6.7cm;""><p style='font-size: 30px; color: green;'><strong>Correct!</strong></p><p style='font-size: 30px;'><strong>This rock is pegmatite</strong></p>","0","corr_feedback","1","train","18","","","","","","","",""
"","","","","","","","","","","","html-button-response","141","2.0.0","1260808","66c37d71278acb17d12bc77e","2","32","2077","","","","","","","","","<img src= ""rock_img/I_Andesite_05.jpg"" style=""width:8cm; height:4.12cm;""><p>What type of rock is this?</p>","2","class_response","1","train","19","Diorite","Andesite","05","false","3","1","",""
"","","","","","","","","","","","html-button-response","142","2.0.0","1266722","66c37d71278acb17d12bc77e","2","32","5913","","","","","","","","","<img src= rock_img/I_Andesite_05.jpg style=""width:8cm; height:4.12cm;""><p style='font-size: 30px; color: red;'><strong>Incorrect!</strong></p><p style='font-size: 30px;'><strong>This rock is andesite</strong></p>","0","corr_feedback","1","train","19","","","","","","","",""
"","","","","","","","","","","","html-button-response","143","2.0.0","1273869","66c37d71278acb17d12bc77e","2","32","7146","","","","","","","","","<img src= ""rock_img/I_Diorite_14.jpg"" style=""width:8cm; height:5.71cm;""><p>What type of rock is this?</p>","1","class_response","1","train","20","Basalt","Diorite","14","false","2","3","",""
"","","","","","","","","","","","html-button-response","144","2.0.0","1279567","66c37d71278acb17d12bc77e","2","32","5696","","","","","","","","","<img src= rock_img/I_Diorite_14.jpg style=""width:8cm; height:5.71cm;""><p style='font-size: 30px; color: red;'><strong>Incorrect!</strong></p><p style='font-size: 30px;'><strong>This rock is diorite</strong></p>","0","corr_feedback","1","train","20","","","","","","","",""
"","","","","","","","","","","","html-button-response","145","2.0.0","1281303","66c37d71278acb17d12bc77e","2","32","1735","","","","","","","","","<img src= ""rock_img/I_Gabbro_11.jpg"" style=""width:8cm; height:6.2cm;""><p>What type of rock is this?</p>","3","class_response","1","train","21","Gabbro","Gabbro","11","true","4","4","",""
"","","","","","","","","","","","html-button-response","146","2.0.0","1288131","66c37d71278acb17d12bc77e","2","32","6827","","","","","","","","","<img src= rock_img/I_Gabbro_11.jpg style=""width:8cm; height:6.2cm;""><p style='font-size: 30px; color: green;'><strong>Correct!</strong></p><p style='font-size: 30px;'><strong>This rock is gabbro</strong></p>","0","corr_feedback","1","train","21","","","","","","","",""
"","","","","","","","","","","","html-button-response","147","2.0.0","1290743","66c37d71278acb17d12bc77e","2","32","2609","","","","","","","","","<img src= ""rock_img/I_Obsidian_08.jpg"" style=""width:8cm; height:7.39cm;""><p>What type of rock is this?</p>","4","class_response","1","train","22","Obsidian","Obsidian","08","true","5","5","",""
"","","","","","","","","","","","html-button-response","148","2.0.0","1297133","66c37d71278acb17d12bc77e","2","32","6387","","","","","","","","","<img src= rock_img/I_Obsidian_08.jpg style=""width:8cm; height:7.39cm;""><p style='font-size: 30px; color: green;'><strong>Correct!</strong></p><p style='font-size: 30px;'><strong>This rock is obsidian</strong></p>","0","corr_feedback","1","train","22","","","","","","","",""
"","","","","","","","","","","","html-button-response","149","2.0.0","1299201","66c37d71278acb17d12bc77e","2","32","2067","","","","","","","","","<img src= ""rock_img/I_Gabbro_01.jpg"" style=""width:8cm; height:5.21cm;""><p>What type of rock is this?</p>","0","class_response","1","train","23","Andesite","Gabbro","01","false","1","4","",""
"","","","","","","","","","","","html-button-response","150","2.0.0","1305183","66c37d71278acb17d12bc77e","2","32","5980","","","","","","","","","<img src= rock_img/I_Gabbro_01.jpg style=""width:8cm; height:5.21cm;""><p style='font-size: 30px; color: red;'><strong>Incorrect!</strong></p><p style='font-size: 30px;'><strong>This rock is gabbro</strong></p>","0","corr_feedback","1","train","23","","","","","","","",""
"","","","","","","","","","","","html-button-response","151","2.0.0","1307009","66c37d71278acb17d12bc77e","2","32","1825","","","","","","","","","<img src= ""rock_img/I_Obsidian_12.jpg"" style=""width:8cm; height:6.53cm;""><p>What type of rock is this?</p>","2","class_response","1","train","24","Diorite","Obsidian","12","false","3","5","",""
"","","","","","","","","","","","html-button-response","152","2.0.0","1314243","66c37d71278acb17d12bc77e","2","32","7233","","","","","","","","","<img src= rock_img/I_Obsidian_12.jpg style=""width:8cm; height:6.53cm;""><p style='font-size: 30px; color: red;'><strong>Incorrect!</strong></p><p style='font-size: 30px;'><strong>This rock is obsidian</strong></p>","0","corr_feedback","1","train","24","","","","","","","",""
"","","","","","","","","","","","html-button-response","153","2.0.0","1315936","66c37d71278acb17d12bc77e","2","32","1692","","","","","","","","","<img src= ""rock_img/I_Pumice_16.jpg"" style=""width:8cm; height:6.79cm;""><p>What type of rock is this?</p>","7","class_response","1","train","25","Pumice","Pumice","16","true","8","8","",""
"","","","","","","","","","","","html-button-response","154","2.0.0","1322380","66c37d71278acb17d12bc77e","2","32","6442","","","","","","","","","<img src= rock_img/I_Pumice_16.jpg style=""width:8cm; height:6.79cm;""><p style='font-size: 30px; color: green;'><strong>Correct!</strong></p><p style='font-size: 30px;'><strong>This rock is pumice</strong></p>","0","corr_feedback","1","train","25","","","","","","","",""
"","","","","","","","","","","","html-button-response","155","2.0.0","1324158","66c37d71278acb17d12bc77e","2","32","1777","","","","","","","","","<img src= ""rock_img/I_Pegmatite_10.jpg"" style=""width:8cm; height:4.16cm;""><p>What type of rock is this?</p>","1","class_response","1","train","26","Basalt","Pegmatite","10","false","2","6","",""
"","","","","","","","","","","","html-button-response","156","2.0.0","1330492","66c37d71278acb17d12bc77e","2","32","6332","","","","","","","","","<img src= rock_img/I_Pegmatite_10.jpg style=""width:8cm; height:4.16cm;""><p style='font-size: 30px; color: red;'><strong>Incorrect!</strong></p><p style='font-size: 30px;'><strong>This rock is pegmatite</strong></p>","0","corr_feedback","1","train","26","","","","","","","",""
"","","","","","","","","","","","html-button-response","157","2.0.0","1331716","66c37d71278acb17d12bc77e","2","32","1222","","","","","","","","","<img src= ""rock_img/I_Pegmatite_12.jpg"" style=""width:8cm; height:5.7cm;""><p>What type of rock is this?</p>","3","class_response","1","train","27","Gabbro","Pegmatite","12","false","4","6","",""
"","","","","","","","","","","","html-button-response","158","2.0.0","1338756","66c37d71278acb17d12bc77e","2","32","7039","","","","","","","","","<img src= rock_img/I_Pegmatite_12.jpg style=""width:8cm; height:5.7cm;""><p style='font-size: 30px; color: red;'><strong>Incorrect!</strong></p><p style='font-size: 30px;'><strong>This rock is pegmatite</strong></p>","0","corr_feedback","1","train","27","","","","","","","",""
"","","","","","","","","","","","html-button-response","159","2.0.0","1341411","66c37d71278acb17d12bc77e","2","32","2654","","","","","","","","","<img src= ""rock_img/I_Basalt_16.jpg"" style=""width:8cm; height:7.659999999999999cm;""><p>What type of rock is this?</p>","1","class_response","1","train","28","Basalt","Basalt","16","true","2","2","",""
"","","","","","","","","","","","html-button-response","160","2.0.0","1347417","66c37d71278acb17d12bc77e","2","32","6005","","","","","","","","","<img src= rock_img/I_Basalt_16.jpg style=""width:8cm; height:7.659999999999999cm;""><p style='font-size: 30px; color: green;'><strong>Correct!</strong></p><p style='font-size: 30px;'><strong>This rock is basalt</strong></p>","0","corr_feedback","1","train","28","","","","","","","",""
"","","","","","","","","","","","html-button-response","161","2.0.0","1349306","66c37d71278acb17d12bc77e","2","32","1887","","","","","","","","","<img src= ""rock_img/I_Pumice_06.jpg"" style=""width:8cm; height:6.9399999999999995cm;""><p>What type of rock is this?</p>","2","class_response","1","train","29","Diorite","Pumice","06","false","3","8","",""
"","","","","","","","","","","","html-button-response","162","2.0.0","1354477","66c37d71278acb17d12bc77e","2","32","5170","","","","","","","","","<img src= rock_img/I_Pumice_06.jpg style=""width:8cm; height:6.9399999999999995cm;""><p style='font-size: 30px; color: red;'><strong>Incorrect!</strong></p><p style='font-size: 30px;'><strong>This rock is pumice</strong></p>","0","corr_feedback","1","train","29","","","","","","","",""
"","","","","","","","","","","","html-button-response","163","2.0.0","1357687","66c37d71278acb17d12bc77e","2","32","3208","","","","","","","","","<img src= ""rock_img/I_Diorite_09.jpg"" style=""width:8cm; height:5.27cm;""><p>What type of rock is this?</p>","0","class_response","1","train","30","Andesite","Diorite","09","false","1","3","",""
"","","","","","","","","","","","html-button-response","164","2.0.0","1362772","66c37d71278acb17d12bc77e","2","32","5085","","","","","","","","","<img src= rock_img/I_Diorite_09.jpg style=""width:8cm; height:5.27cm;""><p style='font-size: 30px; color: red;'><strong>Incorrect!</strong></p><p style='font-size: 30px;'><strong>This rock is diorite</strong></p>","0","corr_feedback","1","train","30","","","","","","","",""
"","","","","","","","","","","","html-button-response","165","2.0.0","1364267","66c37d71278acb17d12bc77e","2","32","1494","","","","","","","","","<img src= ""rock_img/I_Obsidian_06.jpg"" style=""width:8cm; height:6.8cm;""><p>What type of rock is this?</p>","4","class_response","1","train","31","Obsidian","Obsidian","06","true","5","5","",""
"","","","","","","","","","","","html-button-response","166","2.0.0","1366122","66c37d71278acb17d12bc77e","2","32","1854","","","","","","","","","<img src= rock_img/I_Obsidian_06.jpg style=""width:8cm; height:6.8cm;""><p style='font-size: 30px; color: green;'><strong>Correct!</strong></p><p style='font-size: 30px;'><strong>This rock is obsidian</strong></p>","0","corr_feedback","1","train","31","","","","","","","",""
"","","","","","","","","","","","html-button-response","167","2.0.0","1368654","66c37d71278acb17d12bc77e","2","32","2531","","","","","","","","","<img src= ""rock_img/I_Gabbro_14.jpg"" style=""width:8cm; height:8.48cm;""><p>What type of rock is this?</p>","3","class_response","1","train","32","Gabbro","Gabbro","14","true","4","4","",""
"","","","","","","","","","","","html-button-response","168","2.0.0","1375167","66c37d71278acb17d12bc77e","2","32","6512","","","","","","","","","<img src= rock_img/I_Gabbro_14.jpg style=""width:8cm; height:8.48cm;""><p style='font-size: 30px; color: green;'><strong>Correct!</strong></p><p style='font-size: 30px;'><strong>This rock is gabbro</strong></p>","0","corr_feedback","1","train","32","","","","","","","",""
"","","","","","","","","","","","html-button-response","169","2.0.0","1379926","66c37d71278acb17d12bc77e","2","32","4757","","","","","","","","","<img src= ""rock_img/I_Gabbro_08.jpg"" style=""width:8cm; height:5.15cm;""><p>What type of rock is this?</p>","6","class_response","1","train","33","Peridotite","Gabbro","08","false","7","4","",""
"","","","","","","","","","","","html-button-response","170","2.0.0","1386917","66c37d71278acb17d12bc77e","2","32","6990","","","","","","","","","<img src= rock_img/I_Gabbro_08.jpg style=""width:8cm; height:5.15cm;""><p style='font-size: 30px; color: red;'><strong>Incorrect!</strong></p><p style='font-size: 30px;'><strong>This rock is gabbro</strong></p>","0","corr_feedback","1","train","33","","","","","","","",""
"","","","","","","","","","","","html-button-response","171","2.0.0","1388493","66c37d71278acb17d12bc77e","2","32","1574","","","","","","","","","<img src= ""rock_img/I_Andesite_03.jpg"" style=""width:8cm; height:5.73cm;""><p>What type of rock is this?</p>","3","class_response","1","train","34","Gabbro","Andesite","03","false","4","1","",""
"","","","","","","","","","","","html-button-response","172","2.0.0","1394010","66c37d71278acb17d12bc77e","2","32","5515","","","","","","","","","<img src= rock_img/I_Andesite_03.jpg style=""width:8cm; height:5.73cm;""><p style='font-size: 30px; color: red;'><strong>Incorrect!</strong></p><p style='font-size: 30px;'><strong>This rock is andesite</strong></p>","0","corr_feedback","1","train","34","","","","","","","",""
"","","","","","","","","","","","html-button-response","173","2.0.0","1395526","66c37d71278acb17d12bc77e","2","32","1515","","","","","","","","","<img src= ""rock_img/I_Pegmatite_03.jpg"" style=""width:8cm; height:5.239999999999999cm;""><p>What type of rock is this?</p>","1","class_response","1","train","35","Basalt","Pegmatite","03","false","2","6","",""
"","","","","","","","","","","","html-button-response","174","2.0.0","1401380","66c37d71278acb17d12bc77e","2","32","5852","","","","","","","","","<img src= rock_img/I_Pegmatite_03.jpg style=""width:8cm; height:5.239999999999999cm;""><p style='font-size: 30px; color: red;'><strong>Incorrect!</strong></p><p style='font-size: 30px;'><strong>This rock is pegmatite</strong></p>","0","corr_feedback","1","train","35","","","","","","","",""
"","","","","","","","","","","","html-button-response","175","2.0.0","1404075","66c37d71278acb17d12bc77e","2","32","2693","","","","","","","","","<img src= ""rock_img/I_Peridotite_16.jpg"" style=""width:8cm; height:6.989999999999999cm;""><p>What type of rock is this?</p>","2","class_response","1","train","36","Diorite","Peridotite","16","false","3","7","",""
"","","","","","","","","","","","html-button-response","176","2.0.0","1409361","66c37d71278acb17d12bc77e","2","32","5285","","","","","","","","","<img src= rock_img/I_Peridotite_16.jpg style=""width:8cm; height:6.989999999999999cm;""><p style='font-size: 30px; color: red;'><strong>Incorrect!</strong></p><p style='font-size: 30px;'><strong>This rock is peridotite</strong></p>","0","corr_feedback","1","train","36","","","","","","","",""
"","","","","","","","","","","","html-button-response","177","2.0.0","1410800","66c37d71278acb17d12bc77e","2","32","1437","","","","","","","","","<img src= ""rock_img/I_Obsidian_04.jpg"" style=""width:8cm; height:6.930000000000001cm;""><p>What type of rock is this?</p>","4","class_response","1","train","37","Obsidian","Obsidian","04","true","5","5","",""
"","","","","","","","","","","","html-button-response","178","2.0.0","1411819","66c37d71278acb17d12bc77e","2","32","1017","","","","","","","","","<img src= rock_img/I_Obsidian_04.jpg style=""width:8cm; height:6.930000000000001cm;""><p style='font-size: 30px; color: green;'><strong>Correct!</strong></p><p style='font-size: 30px;'><strong>This rock is obsidian</strong></p>","0","corr_feedback","1","train","37","","","","","","","",""
"","","","","","","","","","","","html-button-response","179","2.0.0","1414789","66c37d71278acb17d12bc77e","2","32","2967","","","","","","","","","<img src= ""rock_img/I_Peridotite_07.jpg"" style=""width:8cm; height:4.83cm;""><p>What type of rock is this?</p>","1","class_response","1","train","38","Basalt","Peridotite","07","false","2","7","",""
"","","","","","","","","","","","html-button-response","180","2.0.0","1420475","66c37d71278acb17d12bc77e","2","32","5685","","","","","","","","","<img src= rock_img/I_Peridotite_07.jpg style=""width:8cm; height:4.83cm;""><p style='font-size: 30px; color: red;'><strong>Incorrect!</strong></p><p style='font-size: 30px;'><strong>This rock is peridotite</strong></p>","0","corr_feedback","1","train","38","","","","","","","",""
"","","","","","","","","","","","html-button-response","181","2.0.0","1422297","66c37d71278acb17d12bc77e","2","32","1821","","","","","","","","","<img src= ""rock_img/I_Peridotite_06.jpg"" style=""width:8cm; height:7.53cm;""><p>What type of rock is this?</p>","2","class_response","1","train","39","Diorite","Peridotite","06","false","3","7","",""
"","","","","","","","","","","","html-button-response","182","2.0.0","1426791","66c37d71278acb17d12bc77e","2","32","4493","","","","","","","","","<img src= rock_img/I_Peridotite_06.jpg style=""width:8cm; height:7.53cm;""><p style='font-size: 30px; color: red;'><strong>Incorrect!</strong></p><p style='font-size: 30px;'><strong>This rock is peridotite</strong></p>","0","corr_feedback","1","train","39","","","","","","","",""
"","","","","","","","","","","","html-button-response","183","2.0.0","1429758","66c37d71278acb17d12bc77e","2","32","2966","","","","","","","","","<img src= ""rock_img/I_Diorite_12.jpg"" style=""width:8cm; height:4.88cm;""><p>What type of rock is this?</p>","2","class_response","1","train","40","Diorite","Diorite","12","true","3","3","",""
"","","","","","","","","","","","html-button-response","184","2.0.0","1435357","66c37d71278acb17d12bc77e","2","32","5597","","","","","","","","","<img src= rock_img/I_Diorite_12.jpg style=""width:8cm; height:4.88cm;""><p style='font-size: 30px; color: green;'><strong>Correct!</strong></p><p style='font-size: 30px;'><strong>This rock is diorite</strong></p>","0","corr_feedback","1","train","40","","","","","","","",""
"","","","","","","","","","","","html-button-response","185","2.0.0","1436622","66c37d71278acb17d12bc77e","2","32","1263","","","","","","","","","<img src= ""rock_img/I_Andesite_11.jpg"" style=""width:8cm; height:4.92cm;""><p>What type of rock is this?</p>","3","class_response","1","train","41","Gabbro","Andesite","11","false","4","1","",""
"","","","","","","","","","","","html-button-response","186","2.0.0","1442740","66c37d71278acb17d12bc77e","2","32","6117","","","","","","","","","<img src= rock_img/I_Andesite_11.jpg style=""width:8cm; height:4.92cm;""><p style='font-size: 30px; color: red;'><strong>Incorrect!</strong></p><p style='font-size: 30px;'><strong>This rock is andesite</strong></p>","0","corr_feedback","1","train","41","","","","","","","",""
"","","","","","","","","","","","html-button-response","187","2.0.0","1443937","66c37d71278acb17d12bc77e","2","32","1195","","","","","","","","","<img src= ""rock_img/I_Andesite_04.jpg"" style=""width:8cm; height:5.96cm;""><p>What type of rock is this?</p>","3","class_response","1","train","42","Gabbro","Andesite","04","false","4","1","",""
"","","","","","","","","","","","html-button-response","188","2.0.0","1450101","66c37d71278acb17d12bc77e","2","32","6163","","","","","","","","","<img src= rock_img/I_Andesite_04.jpg style=""width:8cm; height:5.96cm;""><p style='font-size: 30px; color: red;'><strong>Incorrect!</strong></p><p style='font-size: 30px;'><strong>This rock is andesite</strong></p>","0","corr_feedback","1","train","42","","","","","","","",""
"","","","","","","","","","","","html-button-response","189","2.0.0","1451377","66c37d71278acb17d12bc77e","2","32","1274","","","","","","","","","<img src= ""rock_img/I_Pegmatite_08.jpg"" style=""width:8cm; height:7.68cm;""><p>What type of rock is this?</p>","4","class_response","1","train","43","Obsidian","Pegmatite","08","false","5","6","",""
"","","","","","","","","","","","html-button-response","190","2.0.0","1458391","66c37d71278acb17d12bc77e","2","32","7013","","","","","","","","","<img src= rock_img/I_Pegmatite_08.jpg style=""width:8cm; height:7.68cm;""><p style='font-size: 30px; color: red;'><strong>Incorrect!</strong></p><p style='font-size: 30px;'><strong>This rock is pegmatite</strong></p>","0","corr_feedback","1","train","43","","","","","","","",""
"","","","","","","","","","","","html-button-response","191","2.0.0","1459891","66c37d71278acb17d12bc77e","2","32","1498","","","","","","","","","<img src= ""rock_img/I_Andesite_09.jpg"" style=""width:8cm; height:6cm;""><p>What type of rock is this?</p>","1","class_response","1","train","44","Basalt","Andesite","09","false","2","1","",""
"","","","","","","","","","","","html-button-response","192","2.0.0","1465108","66c37d71278acb17d12bc77e","2","32","5215","","","","","","","","","<img src= rock_img/I_Andesite_09.jpg style=""width:8cm; height:6cm;""><p style='font-size: 30px; color: red;'><strong>Incorrect!</strong></p><p style='font-size: 30px;'><strong>This rock is andesite</strong></p>","0","corr_feedback","1","train","44","","","","","","","",""
"","","","","","","","","","","","html-button-response","193","2.0.0","1466732","66c37d71278acb17d12bc77e","2","32","1622","","","","","","","","","<img src= ""rock_img/I_Peridotite_04.jpg"" style=""width:8cm; height:6.680000000000001cm;""><p>What type of rock is this?</p>","2","class_response","1","train","45","Diorite","Peridotite","04","false","3","7","",""
"","","","","","","","","","","","html-button-response","194","2.0.0","1474127","66c37d71278acb17d12bc77e","2","32","7393","","","","","","","","","<img src= rock_img/I_Peridotite_04.jpg style=""width:8cm; height:6.680000000000001cm;""><p style='font-size: 30px; color: red;'><strong>Incorrect!</strong></p><p style='font-size: 30px;'><strong>This rock is peridotite</strong></p>","0","corr_feedback","1","train","45","","","","","","","",""
"","","","","","","","","","","","html-button-response","195","2.0.0","1477649","66c37d71278acb17d12bc77e","2","32","3520","","","","","","","","","<img src= ""rock_img/I_Pumice_02.jpg"" style=""width:8cm; height:7.3999999999999995cm;""><p>What type of rock is this?</p>","6","class_response","1","train","46","Peridotite","Pumice","02","false","7","8","",""
"","","","","","","","","","","","html-button-response","196","2.0.0","1483798","66c37d71278acb17d12bc77e","2","32","6148","","","","","","","","","<img src= rock_img/I_Pumice_02.jpg style=""width:8cm; height:7.3999999999999995cm;""><p style='font-size: 30px; color: red;'><strong>Incorrect!</strong></p><p style='font-size: 30px;'><strong>This rock is pumice</strong></p>","0","corr_feedback","1","train","46","","","","","","","",""
"","","","","","","","","","","","html-button-response","197","2.0.0","1485791","66c37d71278acb17d12bc77e","2","32","1991","","","","","","","","","<img src= ""rock_img/I_Diorite_07.jpg"" style=""width:8cm; height:5.239999999999999cm;""><p>What type of rock is this?</p>","2","class_response","1","train","47","Diorite","Diorite","07","true","3","3","",""
"","","","","","","","","","","","html-button-response","198","2.0.0","1491980","66c37d71278acb17d12bc77e","2","32","6188","","","","","","","","","<img src= rock_img/I_Diorite_07.jpg style=""width:8cm; height:5.239999999999999cm;""><p style='font-size: 30px; color: green;'><strong>Correct!</strong></p><p style='font-size: 30px;'><strong>This rock is diorite</strong></p>","0","corr_feedback","1","train","47","","","","","","","",""
"","","","","","","","","","","","html-button-response","199","2.0.0","1493966","66c37d71278acb17d12bc77e","2","32","1984","","","","","","","","","<img src= ""rock_img/I_Pumice_15.jpg"" style=""width:8cm; height:7.86cm;""><p>What type of rock is this?</p>","1","class_response","1","train","48","Basalt","Pumice","15","false","2","8","",""
"","","","","","","","","","","","html-button-response","200","2.0.0","1500216","66c37d71278acb17d12bc77e","2","32","6249","","","","","","","","","<img src= rock_img/I_Pumice_15.jpg style=""width:8cm; height:7.86cm;""><p style='font-size: 30px; color: red;'><strong>Incorrect!</strong></p><p style='font-size: 30px;'><strong>This rock is pumice</strong></p>","0","corr_feedback","1","train","48","","","","","","","",""
"","","","","","","","","","","","instructions","203","2.0.0","1539087","66c37d71278acb17d12bc77e","2","32","38869","","","","","","","","[{""page_index"":0,""viewing_time"":10911},{""page_index"":1,""viewing_time"":27959}]","","","","","","","","","","","","","",""
"","","","","","","","","","","","html-button-response","204","2.0.0","1542086","66c37d71278acb17d12bc77e","2","32","2998","","","","","","","","","","0","start_test","","","","","","","","","","",""
"","","","","","","","","","","","html-button-response","205","2.0.0","1543960","66c37d71278acb17d12bc77e","2","32","1872","","","","","","","","","<img src= ""rock_img/I_Obsidian_10.jpg"" style=""width:8cm; height:6.260000000000001cm;""><p>What type of rock is this?</p>","4","class_response","1","test","1","Obsidian","Obsidian","10","true","5","5","",""
"","","","","","","","","","","","html-keyboard-response","206","2.0.0","1544471","66c37d71278acb17d12bc77e","2","32","null","","","","","","","","","<p style='font-size: 30px;'><strong>Okay</strong></p>","null","neutral_feedback","1","test","1","","","","","","","",""
"","","","","","","","","","","","html-button-response","207","2.0.0","1572150","66c37d71278acb17d12bc77e","2","32","27677","","","","","","","","","<img src= ""rock_img/I_Gabbro_10.jpg"" style=""width:8cm; height:5.680000000000001cm;""><p>What type of rock is this?</p>","3","class_response","1","test","2","Gabbro","Gabbro","10","true","4","4","",""
"","","","","","","","","","","","html-keyboard-response","208","2.0.0","1572660","66c37d71278acb17d12bc77e","2","32","null","","","","","","","","","<p style='font-size: 30px;'><strong>Okay</strong></p>","null","neutral_feedback","1","test","2","","","","","","","",""
"","","","","","","","","","","","html-button-response","209","2.0.0","1587063","66c37d71278acb17d12bc77e","2","32","14401","","","","","","","","","<img src= ""rock_img/I_Peridotite_14.jpg"" style=""width:8cm; height:5.3cm;""><p>What type of rock is this?</p>","6","class_response","1","test","3","Peridotite","Peridotite","14","true","7","7","",""
"","","","","","","","","","","","html-keyboard-response","210","2.0.0","1587565","66c37d71278acb17d12bc77e","2","32","null","","","","","","","","","<p style='font-size: 30px;'><strong>Okay</strong></p>","null","neutral_feedback","1","test","3","","","","","","","",""
"","","","","","","","","","","","html-button-response","211","2.0.0","1606076","66c37d71278acb17d12bc77e","2","32","18508","","","","","","","","","<img src= ""rock_img/I_Diorite_15.jpg"" style=""width:8cm; height:5.54cm;""><p>What type of rock is this?</p>","6","class_response","1","test","4","Peridotite","Diorite","15","false","7","3","",""
"","","","","","","","","","","","html-keyboard-response","212","2.0.0","1606581","66c37d71278acb17d12bc77e","2","32","null","","","","","","","","","<p style='font-size: 30px;'><strong>Okay</strong></p>","null","neutral_feedback","1","test","4","","","","","","","",""
"","","","","","","","","","","","html-button-response","213","2.0.0","1609928","66c37d71278acb17d12bc77e","2","32","3344","","","","","","","","","<img src= ""rock_img/I_Peridotite_13.jpg"" style=""width:8cm; height:7.58cm;""><p>What type of rock is this?</p>","6","class_response","1","test","5","Peridotite","Peridotite","13","true","7","7","",""
"","","","","","","","","","","","html-keyboard-response","214","2.0.0","1610441","66c37d71278acb17d12bc77e","2","32","null","","","","","","","","","<p style='font-size: 30px;'><strong>Okay</strong></p>","null","neutral_feedback","1","test","5","","","","","","","",""
"","","","","","","","","","","","html-button-response","215","2.0.0","1628521","66c37d71278acb17d12bc77e","2","32","18078","","","","","","","","","<img src= ""rock_img/I_Gabbro_16.jpg"" style=""width:8cm; height:6.44cm;""><p>What type of rock is this?</p>","5","class_response","1","test","6","Pegmatite","Gabbro","16","false","6","4","",""
"","","","","","","","","","","","html-keyboard-response","216","2.0.0","1629034","66c37d71278acb17d12bc77e","2","32","null","","","","","","","","","<p style='font-size: 30px;'><strong>Okay</strong></p>","null","neutral_feedback","1","test","6","","","","","","","",""
"","","","","","","","","","","","html-button-response","217","2.0.0","1636387","66c37d71278acb17d12bc77e","2","32","7350","","","","","","","","","<img src= ""rock_img/I_Andesite_02.jpg"" style=""width:8cm; height:8.5cm;""><p>What type of rock is this?</p>","0","class_response","1","test","7","Andesite","Andesite","02","true","1","1","",""
"","","","","","","","","","","","html-keyboard-response","218","2.0.0","1636893","66c37d71278acb17d12bc77e","2","32","null","","","","","","","","","<p style='font-size: 30px;'><strong>Okay</strong></p>","null","neutral_feedback","1","test","7","","","","","","","",""
"","","","","","","","","","","","html-button-response","219","2.0.0","1648110","66c37d71278acb17d12bc77e","2","32","11214","","","","","","","","","<img src= ""rock_img/I_Andesite_01.jpg"" style=""width:8cm; height:5.87cm;""><p>What type of rock is this?</p>","3","class_response","1","test","8","Gabbro","Andesite","01","false","4","1","",""
"","","","","","","","","","","","html-keyboard-response","220","2.0.0","1648612","66c37d71278acb17d12bc77e","2","32","null","","","","","","","","","<p style='font-size: 30px;'><strong>Okay</strong></p>","null","neutral_feedback","1","test","8","","","","","","","",""
"","","","","","","","","","","","html-button-response","221","2.0.0","1658898","66c37d71278acb17d12bc77e","2","32","10283","","","","","","","","","<img src= ""rock_img/I_Pumice_03.jpg"" style=""width:8cm; height:6.64cm;""><p>What type of rock is this?</p>","7","class_response","1","test","9","Pumice","Pumice","03","true","8","8","",""
"","","","","","","","","","","","html-keyboard-response","222","2.0.0","1659410","66c37d71278acb17d12bc77e","2","32","null","","","","","","","","","<p style='font-size: 30px;'><strong>Okay</strong></p>","null","neutral_feedback","1","test","9","","","","","","","",""
"","","","","","","","","","","","html-button-response","223","2.0.0","1676114","66c37d71278acb17d12bc77e","2","32","16702","","","","","","","","","<img src= ""rock_img/I_Basalt_14.jpg"" style=""width:8cm; height:5.82cm;""><p>What type of rock is this?</p>","4","class_response","1","test","10","Obsidian","Basalt","14","false","5","2","",""
"","","","","","","","","","","","html-keyboard-response","224","2.0.0","1676628","66c37d71278acb17d12bc77e","2","32","null","","","","","","","","","<p style='font-size: 30px;'><strong>Okay</strong></p>","null","neutral_feedback","1","test","10","","","","","","","",""
"","","","","","","","","","","","html-button-response","225","2.0.0","1678081","66c37d71278acb17d12bc77e","2","32","1450","","","","","","","","","<img src= ""rock_img/I_Obsidian_09.jpg"" style=""width:8cm; height:5cm;""><p>What type of rock is this?</p>","4","class_response","1","test","11","Obsidian","Obsidian","09","true","5","5","",""
"","","","","","","","","","","","html-keyboard-response","226","2.0.0","1678596","66c37d71278acb17d12bc77e","2","32","null","","","","","","","","","<p style='font-size: 30px;'><strong>Okay</strong></p>","null","neutral_feedback","1","test","11","","","","","","","",""
"","","","","","","","","","","","html-button-response","227","2.0.0","1686061","66c37d71278acb17d12bc77e","2","32","7462","","","","","","","","","<img src= ""rock_img/I_Pegmatite_06.jpg"" style=""width:8cm; height:5.17cm;""><p>What type of rock is this?</p>","5","class_response","1","test","12","Pegmatite","Pegmatite","06","true","6","6","",""
"","","","","","","","","","","","html-keyboard-response","228","2.0.0","1686566","66c37d71278acb17d12bc77e","2","32","null","","","","","","","","","<p style='font-size: 30px;'><strong>Okay</strong></p>","null","neutral_feedback","1","test","12","","","","","","","",""
"","","","","","","","","","","","html-button-response","229","2.0.0","1691222","66c37d71278acb17d12bc77e","2","32","4655","","","","","","","","","<img src= ""rock_img/I_Pegmatite_15.jpg"" style=""width:8cm; height:6cm;""><p>What type of rock is this?</p>","5","class_response","1","test","13","Pegmatite","Pegmatite","15","true","6","6","",""
"","","","","","","","","","","","html-keyboard-response","230","2.0.0","1691737","66c37d71278acb17d12bc77e","2","32","null","","","","","","","","","<p style='font-size: 30px;'><strong>Okay</strong></p>","null","neutral_feedback","1","test","13","","","","","","","",""
"","","","","","","","","","","","html-button-response","231","2.0.0","1693509","66c37d71278acb17d12bc77e","2","32","1769","","","","","","","","","<img src= ""rock_img/I_Obsidian_05.jpg"" style=""width:8cm; height:6.33cm;""><p>What type of rock is this?</p>","4","class_response","1","test","14","Obsidian","Obsidian","05","true","5","5","",""
"","","","","","","","","","","","html-keyboard-response","232","2.0.0","1694019","66c37d71278acb17d12bc77e","2","32","null","","","","","","","","","<p style='font-size: 30px;'><strong>Okay</strong></p>","null","neutral_feedback","1","test","14","","","","","","","",""
"","","","","","","","","","","","html-button-response","233","2.0.0","1702126","66c37d71278acb17d12bc77e","2","32","8103","","","","","","","","","<img src= ""rock_img/I_Pumice_13.jpg"" style=""width:8cm; height:8.200000000000001cm;""><p>What type of rock is this?</p>","7","class_response","1","test","15","Pumice","Pumice","13","true","8","8","",""
"","","","","","","","","","","","html-keyboard-response","234","2.0.0","1702628","66c37d71278acb17d12bc77e","2","32","null","","","","","","","","","<p style='font-size: 30px;'><strong>Okay</strong></p>","null","neutral_feedback","1","test","15","","","","","","","",""
"","","","","","","","","","","","html-button-response","235","2.0.0","1709337","66c37d71278acb17d12bc77e","2","32","6708","","","","","","","","","<img src= ""rock_img/I_Andesite_16.jpg"" style=""width:8cm; height:6.010000000000001cm;""><p>What type of rock is this?</p>","0","class_response","1","test","16","Andesite","Andesite","16","true","1","1","",""
"","","","","","","","","","","","html-keyboard-response","236","2.0.0","1709847","66c37d71278acb17d12bc77e","2","32","null","","","","","","","","","<p style='font-size: 30px;'><strong>Okay</strong></p>","null","neutral_feedback","1","test","16","","","","","","","",""
"","","","","","","","","","","","html-button-response","237","2.0.0","1714134","66c37d71278acb17d12bc77e","2","32","4285","","","","","","","","","<img src= ""rock_img/I_Gabbro_05.jpg"" style=""width:8cm; height:6cm;""><p>What type of rock is this?</p>","3","class_response","1","test","17","Gabbro","Gabbro","05","true","4","4","",""
"","","","","","","","","","","","html-keyboard-response","238","2.0.0","1714644","66c37d71278acb17d12bc77e","2","32","null","","","","","","","","","<p style='font-size: 30px;'><strong>Okay</strong></p>","null","neutral_feedback","1","test","17","","","","","","","",""
"","","","","","","","","","","","html-button-response","239","2.0.0","1727291","66c37d71278acb17d12bc77e","2","32","12644","","","","","","","","","<img src= ""rock_img/I_Pegmatite_05.jpg"" style=""width:8cm; height:7.300000000000001cm;""><p>What type of rock is this?</p>","5","class_response","1","test","18","Pegmatite","Pegmatite","05","true","6","6","",""
"","","","","","","","","","","","html-keyboard-response","240","2.0.0","1727799","66c37d71278acb17d12bc77e","2","32","null","","","","","","","","","<p style='font-size: 30px;'><strong>Okay</strong></p>","null","neutral_feedback","1","test","18","","","","","","","",""
"","","","","","","","","","","","html-button-response","241","2.0.0","1737431","66c37d71278acb17d12bc77e","2","32","9630","","","","","","","","","<img src= ""rock_img/I_Basalt_04.jpg"" style=""width:8cm; height:7.53cm;""><p>What type of rock is this?</p>","1","class_response","1","test","19","Basalt","Basalt","04","true","2","2","",""
"","","","","","","","","","","","html-keyboard-response","242","2.0.0","1737940","66c37d71278acb17d12bc77e","2","32","null","","","","","","","","","<p style='font-size: 30px;'><strong>Okay</strong></p>","null","neutral_feedback","1","test","19","","","","","","","",""
"","","","","","","","","","","","html-button-response","243","2.0.0","1743115","66c37d71278acb17d12bc77e","2","32","5173","","","","","","","","","<img src= ""rock_img/I_Diorite_06.jpg"" style=""width:8cm; height:6.03cm;""><p>What type of rock is this?</p>","2","class_response","1","test","20","Diorite","Diorite","06","true","3","3","",""
"","","","","","","","","","","","html-keyboard-response","244","2.0.0","1743628","66c37d71278acb17d12bc77e","2","32","null","","","","","","","","","<p style='font-size: 30px;'><strong>Okay</strong></p>","null","neutral_feedback","1","test","20","","","","","","","",""
"","","","","","","","","","","","html-button-response","245","2.0.0","1761538","66c37d71278acb17d12bc77e","2","32","17907","","","","","","","","","<img src= ""rock_img/I_Gabbro_09.jpg"" style=""width:8cm; height:7.279999999999999cm;""><p>What type of rock is this?</p>","1","class_response","1","test","21","Basalt","Gabbro","09","false","2","4","",""
"","","","","","","","","","","","html-keyboard-response","246","2.0.0","1762050","66c37d71278acb17d12bc77e","2","32","null","","","","","","","","","<p style='font-size: 30px;'><strong>Okay</strong></p>","null","neutral_feedback","1","test","21","","","","","","","",""
"","","","","","","","","","","","html-button-response","247","2.0.0","1763221","66c37d71278acb17d12bc77e","2","32","1169","","","","","","","","","<img src= ""rock_img/I_Obsidian_02.jpg"" style=""width:8cm; height:7.51cm;""><p>What type of rock is this?</p>","4","class_response","1","test","22","Obsidian","Obsidian","02","true","5","5","",""
"","","","","","","","","","","","html-keyboard-response","248","2.0.0","1763737","66c37d71278acb17d12bc77e","2","32","null","","","","","","","","","<p style='font-size: 30px;'><strong>Okay</strong></p>","null","neutral_feedback","1","test","22","","","","","","","",""
"","","","","","","","","","","","html-button-response","249","2.0.0","1773378","66c37d71278acb17d12bc77e","2","32","9640","","","","","","","","","<img src= ""rock_img/I_Basalt_06.jpg"" style=""width:8cm; height:7.06cm;""><p>What type of rock is this?</p>","1","class_response","1","test","23","Basalt","Basalt","06","true","2","2","",""
"","","","","","","","","","","","html-keyboard-response","250","2.0.0","1773881","66c37d71278acb17d12bc77e","2","32","null","","","","","","","","","<p style='font-size: 30px;'><strong>Okay</strong></p>","null","neutral_feedback","1","test","23","","","","","","","",""
"","","","","","","","","","","","html-button-response","251","2.0.0","1794338","66c37d71278acb17d12bc77e","2","32","20454","","","","","","","","","<img src= ""rock_img/I_Pegmatite_09.jpg"" style=""width:8cm; height:4.03cm;""><p>What type of rock is this?</p>","5","class_response","1","test","24","Pegmatite","Pegmatite","09","true","6","6","",""
"","","","","","","","","","","","html-keyboard-response","252","2.0.0","1794847","66c37d71278acb17d12bc77e","2","32","null","","","","","","","","","<p style='font-size: 30px;'><strong>Okay</strong></p>","null","neutral_feedback","1","test","24","","","","","","","",""
"","","","","","","","","","","","html-button-response","253","2.0.0","1809397","66c37d71278acb17d12bc77e","2","32","14548","","","","","","","","","<img src= ""rock_img/I_Peridotite_15.jpg"" style=""width:8cm; height:6cm;""><p>What type of rock is this?</p>","2","class_response","1","test","25","Diorite","Peridotite","15","false","3","7","",""
"","","","","","","","","","","","html-keyboard-response","254","2.0.0","1809909","66c37d71278acb17d12bc77e","2","32","null","","","","","","","","","<p style='font-size: 30px;'><strong>Okay</strong></p>","null","neutral_feedback","1","test","25","","","","","","","",""
"","","","","","","","","","","","html-button-response","255","2.0.0","1829104","66c37d71278acb17d12bc77e","2","32","19192","","","","","","","","","<img src= ""rock_img/I_Pumice_04.jpg"" style=""width:8cm; height:6.819999999999999cm;""><p>What type of rock is this?</p>","7","class_response","1","test","26","Pumice","Pumice","04","true","8","8","",""
"","","","","","","","","","","","html-keyboard-response","256","2.0.0","1829612","66c37d71278acb17d12bc77e","2","32","null","","","","","","","","","<p style='font-size: 30px;'><strong>Okay</strong></p>","null","neutral_feedback","1","test","26","","","","","","","",""
"","","","","","","","","","","","html-button-response","257","2.0.0","1839257","66c37d71278acb17d12bc77e","2","32","9643","","","","","","","","","<img src= ""rock_img/I_Peridotite_05.jpg"" style=""width:8cm; height:7.1499999999999995cm;""><p>What type of rock is this?</p>","6","class_response","1","test","27","Peridotite","Peridotite","05","true","7","7","",""
"","","","","","","","","","","","html-keyboard-response","258","2.0.0","1839768","66c37d71278acb17d12bc77e","2","32","null","","","","","","","","","<p style='font-size: 30px;'><strong>Okay</strong></p>","null","neutral_feedback","1","test","27","","","","","","","",""
"","","","","","","","","","","","html-button-response","259","2.0.0","1850706","66c37d71278acb17d12bc77e","2","32","10936","","","","","","","","","<img src= ""rock_img/I_Basalt_10.jpg"" style=""width:8cm; height:5.85cm;""><p>What type of rock is this?</p>","1","class_response","1","test","28","Basalt","Basalt","10","true","2","2","",""
"","","","","","","","","","","","html-keyboard-response","260","2.0.0","1851221","66c37d71278acb17d12bc77e","2","32","null","","","","","","","","","<p style='font-size: 30px;'><strong>Okay</strong></p>","null","neutral_feedback","1","test","28","","","","","","","",""
"","","","","","","","","","","","html-button-response","261","2.0.0","1863985","66c37d71278acb17d12bc77e","2","32","12762","","","","","","","","","<img src= ""rock_img/I_Peridotite_02.jpg"" style=""width:8cm; height:5.859999999999999cm;""><p>What type of rock is this?</p>","1","class_response","1","test","29","Basalt","Peridotite","02","false","2","7","",""
"","","","","","","","","","","","html-keyboard-response","262","2.0.0","1864487","66c37d71278acb17d12bc77e","2","32","null","","","","","","","","","<p style='font-size: 30px;'><strong>Okay</strong></p>","null","neutral_feedback","1","test","29","","","","","","","",""
"","","","","","","","","","","","html-button-response","263","2.0.0","1865674","66c37d71278acb17d12bc77e","2","32","1184","","","","","","","","","<img src= ""rock_img/I_Pegmatite_13.jpg"" style=""width:8cm; height:4.95cm;""><p>What type of rock is this?</p>","3","class_response","1","test","30","Gabbro","Pegmatite","13","false","4","6","",""
"","","","","","","","","","","","html-keyboard-response","264","2.0.0","1866191","66c37d71278acb17d12bc77e","2","32","null","","","","","","","","","<p style='font-size: 30px;'><strong>Okay</strong></p>","null","neutral_feedback","1","test","30","","","","","","","",""
"","","","","","","","","","","","html-button-response","265","2.0.0","1867388","66c37d71278acb17d12bc77e","2","32","1196","","","","","","","","","<img src= ""rock_img/I_Diorite_10.jpg"" style=""width:8cm; height:5.949999999999999cm;""><p>What type of rock is this?</p>","1","class_response","1","test","31","Basalt","Diorite","10","false","2","3","",""
"","","","","","","","","","","","html-keyboard-response","266","2.0.0","1867894","66c37d71278acb17d12bc77e","2","32","null","","","","","","","","","<p style='font-size: 30px;'><strong>Okay</strong></p>","null","neutral_feedback","1","test","31","","","","","","","",""
"","","","","","","","","","","","html-button-response","267","2.0.0","1869277","66c37d71278acb17d12bc77e","2","32","1382","","","","","","","","","<img src= ""rock_img/I_Peridotite_12.jpg"" style=""width:8cm; height:4.54cm;""><p>What type of rock is this?</p>","2","class_response","1","test","32","Diorite","Peridotite","12","false","3","7","",""
"","","","","","","","","","","","html-keyboard-response","268","2.0.0","1869785","66c37d71278acb17d12bc77e","2","32","null","","","","","","","","","<p style='font-size: 30px;'><strong>Okay</strong></p>","null","neutral_feedback","1","test","32","","","","","","","",""
"","","","","","","","","","","","html-button-response","269","2.0.0","1870761","66c37d71278acb17d12bc77e","2","32","974","","","","","","","","","<img src= ""rock_img/I_Andesite_14.jpg"" style=""width:8cm; height:5.449999999999999cm;""><p>What type of rock is this?</p>","1","class_response","1","test","33","Basalt","Andesite","14","false","2","1","",""
"","","","","","","","","","","","html-keyboard-response","270","2.0.0","1871269","66c37d71278acb17d12bc77e","2","32","null","","","","","","","","","<p style='font-size: 30px;'><strong>Okay</strong></p>","null","neutral_feedback","1","test","33","","","","","","","",""
"","","","","","","","","","","","html-button-response","271","2.0.0","1872494","66c37d71278acb17d12bc77e","2","32","1223","","","","","","","","","<img src= ""rock_img/I_Pumice_14.jpg"" style=""width:8cm; height:6.39cm;""><p>What type of rock is this?</p>","0","class_response","1","test","34","Andesite","Pumice","14","false","1","8","",""
"","","","","","","","","","","","html-keyboard-response","272","2.0.0","1873004","66c37d71278acb17d12bc77e","2","32","null","","","","","","","","","<p style='font-size: 30px;'><strong>Okay</strong></p>","null","neutral_feedback","1","test","34","","","","","","","",""
"","","","","","","","","","","","html-button-response","273","2.0.0","1874300","66c37d71278acb17d12bc77e","2","32","1293","","","","","","","","","<img src= ""rock_img/I_Obsidian_16.jpg"" style=""width:8cm; height:9.3cm;""><p>What type of rock is this?</p>","4","class_response","1","test","35","Obsidian","Obsidian","16","true","5","5","",""
"","","","","","","","","","","","html-keyboard-response","274","2.0.0","1874815","66c37d71278acb17d12bc77e","2","32","null","","","","","","","","","<p style='font-size: 30px;'><strong>Okay</strong></p>","null","neutral_feedback","1","test","35","","","","","","","",""
"","","","","","","","","","","","html-button-response","275","2.0.0","1876104","66c37d71278acb17d12bc77e","2","32","1287","","","","","","","","","<img src= ""rock_img/I_Basalt_05.jpg"" style=""width:8cm; height:8.18cm;""><p>What type of rock is this?</p>","2","class_response","1","test","36","Diorite","Basalt","05","false","3","2","",""
"","","","","","","","","","","","html-keyboard-response","276","2.0.0","1876612","66c37d71278acb17d12bc77e","2","32","null","","","","","","","","","<p style='font-size: 30px;'><strong>Okay</strong></p>","null","neutral_feedback","1","test","36","","","","","","","",""
"","","","","","","","","","","","html-button-response","277","2.0.0","1878412","66c37d71278acb17d12bc77e","2","32","1798","","","","","","","","","<img src= ""rock_img/I_Andesite_07.jpg"" style=""width:8cm; height:5.93cm;""><p>What type of rock is this?</p>","6","class_response","1","test","37","Peridotite","Andesite","07","false","7","1","",""
"","","","","","","","","","","","html-keyboard-response","278","2.0.0","1878924","66c37d71278acb17d12bc77e","2","32","null","","","","","","","","","<p style='font-size: 30px;'><strong>Okay</strong></p>","null","neutral_feedback","1","test","37","","","","","","","",""
"","","","","","","","","","","","html-button-response","279","2.0.0","1879759","66c37d71278acb17d12bc77e","2","32","832","","","","","","","","","<img src= ""rock_img/I_Diorite_08.jpg"" style=""width:8cm; height:6.37cm;""><p>What type of rock is this?</p>","3","class_response","1","test","38","Gabbro","Diorite","08","false","4","3","",""
"","","","","","","","","","","","html-keyboard-response","280","2.0.0","1880284","66c37d71278acb17d12bc77e","2","32","null","","","","","","","","","<p style='font-size: 30px;'><strong>Okay</strong></p>","null","neutral_feedback","1","test","38","","","","","","","",""
"","","","","","","","","","","","html-button-response","281","2.0.0","1881098","66c37d71278acb17d12bc77e","2","32","812","","","","","","","","","<img src= ""rock_img/I_Andesite_10.jpg"" style=""width:8cm; height:4.16cm;""><p>What type of rock is this?</p>","2","class_response","1","test","39","Diorite","Andesite","10","false","3","1","",""
"","","","","","","","","","","","html-keyboard-response","282","2.0.0","1881612","66c37d71278acb17d12bc77e","2","32","null","","","","","","","","","<p style='font-size: 30px;'><strong>Okay</strong></p>","null","neutral_feedback","1","test","39","","","","","","","",""
"","","","","","","","","","","","html-button-response","283","2.0.0","1882672","66c37d71278acb17d12bc77e","2","32","1057","","","","","","","","","<img src= ""rock_img/I_Gabbro_12.jpg"" style=""width:8cm; height:7.800000000000001cm;""><p>What type of rock is this?</p>","1","class_response","1","test","40","Basalt","Gabbro","12","false","2","4","",""
"","","","","","","","","","","","html-keyboard-response","284","2.0.0","1883175","66c37d71278acb17d12bc77e","2","32","null","","","","","","","","","<p style='font-size: 30px;'><strong>Okay</strong></p>","null","neutral_feedback","1","test","40","","","","","","","",""
"","","","","","","","","","","","html-button-response","285","2.0.0","1884462","66c37d71278acb17d12bc77e","2","32","1283","","","","","","","","","<img src= ""rock_img/I_Diorite_11.jpg"" style=""width:8cm; height:7.11cm;""><p>What type of rock is this?</p>","6","class_response","1","test","41","Peridotite","Diorite","11","false","7","3","",""
"","","","","","","","","","","","html-keyboard-response","286","2.0.0","1884977","66c37d71278acb17d12bc77e","2","32","null","","","","","","","","","<p style='font-size: 30px;'><strong>Okay</strong></p>","null","neutral_feedback","1","test","41","","","","","","","",""
"","","","","","","","","","","","html-button-response","287","2.0.0","1886094","66c37d71278acb17d12bc77e","2","32","1115","","","","","","","","","<img src= ""rock_img/I_Obsidian_14.jpg"" style=""width:8cm; height:7.64cm;""><p>What type of rock is this?</p>","4","class_response","1","test","42","Obsidian","Obsidian","14","true","5","5","",""
"","","","","","","","","","","","html-keyboard-response","288","2.0.0","1886597","66c37d71278acb17d12bc77e","2","32","null","","","","","","","","","<p style='font-size: 30px;'><strong>Okay</strong></p>","null","neutral_feedback","1","test","42","","","","","","","",""
"","","","","","","","","","","","html-button-response","289","2.0.0","1887904","66c37d71278acb17d12bc77e","2","32","1305","","","","","","","","","<img src= ""rock_img/I_Pumice_08.jpg"" style=""width:8cm; height:6.67cm;""><p>What type of rock is this?</p>","1","class_response","1","test","43","Basalt","Pumice","08","false","2","8","",""
"","","","","","","","","","","","html-keyboard-response","290","2.0.0","1888409","66c37d71278acb17d12bc77e","2","32","null","","","","","","","","","<p style='font-size: 30px;'><strong>Okay</strong></p>","null","neutral_feedback","1","test","43","","","","","","","",""
"","","","","","","","","","","","html-button-response","291","2.0.0","1889651","66c37d71278acb17d12bc77e","2","32","1240","","","","","","","","","<img src= ""rock_img/I_Gabbro_15.jpg"" style=""width:8cm; height:6.29cm;""><p>What type of rock is this?</p>","2","class_response","1","test","44","Diorite","Gabbro","15","false","3","4","",""
"","","","","","","","","","","","html-keyboard-response","292","2.0.0","1890167","66c37d71278acb17d12bc77e","2","32","null","","","","","","","","","<p style='font-size: 30px;'><strong>Okay</strong></p>","null","neutral_feedback","1","test","44","","","","","","","",""
"","","","","","","","","","","","html-button-response","293","2.0.0","1891222","66c37d71278acb17d12bc77e","2","32","1053","","","","","","","","","<img src= ""rock_img/I_Pegmatite_11.jpg"" style=""width:8cm; height:8.14cm;""><p>What type of rock is this?</p>","3","class_response","1","test","45","Gabbro","Pegmatite","11","false","4","6","",""
"","","","","","","","","","","","html-keyboard-response","294","2.0.0","1891738","66c37d71278acb17d12bc77e","2","32","null","","","","","","","","","<p style='font-size: 30px;'><strong>Okay</strong></p>","null","neutral_feedback","1","test","45","","","","","","","",""
"","","","","","","","","","","","html-button-response","295","2.0.0","1892576","66c37d71278acb17d12bc77e","2","32","835","","","","","","","","","<img src= ""rock_img/I_Pumice_09.jpg"" style=""width:8cm; height:6.44cm;""><p>What type of rock is this?</p>","2","class_response","1","test","46","Diorite","Pumice","09","false","3","8","",""
"","","","","","","","","","","","html-keyboard-response","296","2.0.0","1893081","66c37d71278acb17d12bc77e","2","32","null","","","","","","","","","<p style='font-size: 30px;'><strong>Okay</strong></p>","null","neutral_feedback","1","test","46","","","","","","","",""
"","","","","","","","","","","","html-button-response","297","2.0.0","1894081","66c37d71278acb17d12bc77e","2","32","997","","","","","","","","","<img src= ""rock_img/I_Basalt_11.jpg"" style=""width:8cm; height:5.359999999999999cm;""><p>What type of rock is this?</p>","3","class_response","1","test","47","Gabbro","Basalt","11","false","4","2","",""
"","","","","","","","","","","","html-keyboard-response","298","2.0.0","1894597","66c37d71278acb17d12bc77e","2","32","null","","","","","","","","","<p style='font-size: 30px;'><strong>Okay</strong></p>","null","neutral_feedback","1","test","47","","","","","","","",""
"","","","","","","","","","","","html-button-response","299","2.0.0","1895577","66c37d71278acb17d12bc77e","2","32","978","","","","","","","","","<img src= ""rock_img/I_Diorite_13.jpg"" style=""width:8cm; height:6.29cm;""><p>What type of rock is this?</p>","1","class_response","1","test","48","Basalt","Diorite","13","false","2","3","",""
"","","","","","","","","","","","html-keyboard-response","300","2.0.0","1896091","66c37d71278acb17d12bc77e","2","32","null","","","","","","","","","<p style='font-size: 30px;'><strong>Okay</strong></p>","null","neutral_feedback","1","test","48","","","","","","","",""
"","","","","","","","","","","","html-button-response","301","2.0.0","1914647","66c37d71278acb17d12bc77e","2","32","","","","","","","","","","","","cycle_feedback","","","","","","","","","","6919.5","11625.099999904633"
"","","","","","","","","","","","html-button-response","303","2.0.0","1921945","66c37d71278acb17d12bc77e","2","32","7296","","","","","","","","","","0","start_train","","","","","","","","","","",""
