"width","height","webaudio","browser","browser_version","mobile","os","fullscreen","vsync_rate","webcam","microphone","trial_type","trial_index","plugin_version","time_elapsed","subjID","condition","stimID","rt","url","success","value","timeout","failed_images","failed_audio","failed_video","view_history","stimulus","response","trialType","cycle","phase","trial","resp","cat","token","corr","resp_num","cat_num","time_fb1","time_fb2"
"1920","949","true","chrome","125.0.0","false","Linux","true","60.33","false","true","browser-check","0","2.0.0","1003","66e49dafbf9165764e7229ef","2","17","","","","","","","","","","","","","","","","","","","","","","",""
"","","","","","","","","","","","external-html","1","2.0.0","300450","66e49dafbf9165764e7229ef","2","17","299363","consent_form.html","","","","","","","","","","","","","","","","","","","","",""
"","","","","","","","","","","","fullscreen","2","2.0.0","303696","66e49dafbf9165764e7229ef","2","17","2243","","true","","","","","","","","","","","","","","","","","","","",""
"","","","","","","","","","","","call-function","3","2.0.0","303697","66e49dafbf9165764e7229ef","2","17","","","","{}","","","","","","","","","","","","","","","","","","",""
"","","","","","","","","","","","preload","4","2.0.0","305623","66e49dafbf9165764e7229ef","2","17","","","true","","false","[]","[]","[]","","","","","","","","","","","","","","",""
"","","","","","","","","","","","instructions","5","2.0.0","334047","66e49dafbf9165764e7229ef","2","17","28423","","","","","","","","[{""page_index"":0,""viewing_time"":4752},{""page_index"":1,""viewing_time"":12428},{""page_index"":2,""viewing_time"":11243}]","","","","","","","","","","","","","",""
"","","","","","","","","","","","html-button-response","6","2.0.0","336459","66e49dafbf9165764e7229ef","2","17","2410","","","","","","","","","","0","start_test","","","","","","","","","","",""
"","","","","","","","","","","","html-button-response","7","2.0.0","342208","66e49dafbf9165764e7229ef","2","17","5747","","","","","","","","","<img src= ""rock_img/I_Obsidian_10.jpg"" style=""width:8cm; height:6.260000000000001cm;""><p>What type of rock is this?</p>","2","class_response","0","test","1","Diorite","Obsidian","10","false","3","5","",""
"","","","","","","","","","","","html-keyboard-response","8","2.0.0","342709","66e49dafbf9165764e7229ef","2","17","null","","","","","","","","","<p style='font-size: 30px;'><strong>Okay</strong></p>","null","neutral_feedback","0","test","1","","","","","","","",""
"","","","","","","","","","","","html-button-response","9","2.0.0","345643","66e49dafbf9165764e7229ef","2","17","2932","","","","","","","","","<img src= ""rock_img/I_Peridotite_07.jpg"" style=""width:8cm; height:4.83cm;""><p>What type of rock is this?</p>","1","class_response","0","test","2","Basalt","Peridotite","07","false","2","7","",""
"","","","","","","","","","","","html-keyboard-response","10","2.0.0","346144","66e49dafbf9165764e7229ef","2","17","null","","","","","","","","","<p style='font-size: 30px;'><strong>Okay</strong></p>","null","neutral_feedback","0","test","2","","","","","","","",""
"","","","","","","","","","","","html-button-response","11","2.0.0","349731","66e49dafbf9165764e7229ef","2","17","3585","","","","","","","","","<img src= ""rock_img/I_Diorite_08.jpg"" style=""width:8cm; height:6.37cm;""><p>What type of rock is this?</p>","2","class_response","0","test","3","Diorite","Diorite","08","true","3","3","",""
"","","","","","","","","","","","html-keyboard-response","12","2.0.0","350232","66e49dafbf9165764e7229ef","2","17","null","","","","","","","","","<p style='font-size: 30px;'><strong>Okay</strong></p>","null","neutral_feedback","0","test","3","","","","","","","",""
"","","","","","","","","","","","html-button-response","13","2.0.0","357447","66e49dafbf9165764e7229ef","2","17","7214","","","","","","","","","<img src= ""rock_img/I_Pegmatite_07.jpg"" style=""width:8cm; height:6.7cm;""><p>What type of rock is this?</p>","0","class_response","0","test","4","Andesite","Pegmatite","07","false","1","6","",""
"","","","","","","","","","","","html-keyboard-response","14","2.0.0","357948","66e49dafbf9165764e7229ef","2","17","null","","","","","","","","","<p style='font-size: 30px;'><strong>Okay</strong></p>","null","neutral_feedback","0","test","4","","","","","","","",""
"","","","","","","","","","","","html-button-response","15","2.0.0","362085","66e49dafbf9165764e7229ef","2","17","4136","","","","","","","","","<img src= ""rock_img/I_Gabbro_11.jpg"" style=""width:8cm; height:6.2cm;""><p>What type of rock is this?</p>","0","class_response","0","test","5","Andesite","Gabbro","11","false","1","4","",""
"","","","","","","","","","","","html-keyboard-response","16","2.0.0","362587","66e49dafbf9165764e7229ef","2","17","null","","","","","","","","","<p style='font-size: 30px;'><strong>Okay</strong></p>","null","neutral_feedback","0","test","5","","","","","","","",""
"","","","","","","","","","","","html-button-response","17","2.0.0","364638","66e49dafbf9165764e7229ef","2","17","2050","","","","","","","","","<img src= ""rock_img/I_Diorite_14.jpg"" style=""width:8cm; height:5.71cm;""><p>What type of rock is this?</p>","2","class_response","0","test","6","Diorite","Diorite","14","true","3","3","",""
"","","","","","","","","","","","html-keyboard-response","18","2.0.0","365139","66e49dafbf9165764e7229ef","2","17","null","","","","","","","","","<p style='font-size: 30px;'><strong>Okay</strong></p>","null","neutral_feedback","0","test","6","","","","","","","",""
"","","","","","","","","","","","html-button-response","19","2.0.0","367335","66e49dafbf9165764e7229ef","2","17","2194","","","","","","","","","<img src= ""rock_img/I_Gabbro_03.jpg"" style=""width:8cm; height:8.52cm;""><p>What type of rock is this?</p>","0","class_response","0","test","7","Andesite","Gabbro","03","false","1","4","",""
"","","","","","","","","","","","html-keyboard-response","20","2.0.0","367835","66e49dafbf9165764e7229ef","2","17","null","","","","","","","","","<p style='font-size: 30px;'><strong>Okay</strong></p>","null","neutral_feedback","0","test","7","","","","","","","",""
"","","","","","","","","","","","html-button-response","21","2.0.0","371817","66e49dafbf9165764e7229ef","2","17","3980","","","","","","","","","<img src= ""rock_img/I_Pegmatite_05.jpg"" style=""width:8cm; height:7.300000000000001cm;""><p>What type of rock is this?</p>","6","class_response","0","test","8","Peridotite","Pegmatite","05","false","7","6","",""
"","","","","","","","","","","","html-keyboard-response","22","2.0.0","372318","66e49dafbf9165764e7229ef","2","17","null","","","","","","","","","<p style='font-size: 30px;'><strong>Okay</strong></p>","null","neutral_feedback","0","test","8","","","","","","","",""
"","","","","","","","","","","","html-button-response","23","2.0.0","374789","66e49dafbf9165764e7229ef","2","17","2470","","","","","","","","","<img src= ""rock_img/I_Basalt_09.jpg"" style=""width:8cm; height:6.2cm;""><p>What type of rock is this?</p>","0","class_response","0","test","9","Andesite","Basalt","09","false","1","2","",""
"","","","","","","","","","","","html-keyboard-response","24","2.0.0","375290","66e49dafbf9165764e7229ef","2","17","null","","","","","","","","","<p style='font-size: 30px;'><strong>Okay</strong></p>","null","neutral_feedback","0","test","9","","","","","","","",""
"","","","","","","","","","","","html-button-response","25","2.0.0","376489","66e49dafbf9165764e7229ef","2","17","1198","","","","","","","","","<img src= ""rock_img/I_Basalt_01.jpg"" style=""width:8cm; height:7.880000000000001cm;""><p>What type of rock is this?</p>","0","class_response","0","test","10","Andesite","Basalt","01","false","1","2","",""
"","","","","","","","","","","","html-keyboard-response","26","2.0.0","376990","66e49dafbf9165764e7229ef","2","17","null","","","","","","","","","<p style='font-size: 30px;'><strong>Okay</strong></p>","null","neutral_feedback","0","test","10","","","","","","","",""
"","","","","","","","","","","","html-button-response","27","2.0.0","380819","66e49dafbf9165764e7229ef","2","17","3828","","","","","","","","","<img src= ""rock_img/I_Basalt_05.jpg"" style=""width:8cm; height:8.18cm;""><p>What type of rock is this?</p>","4","class_response","0","test","11","Obsidian","Basalt","05","false","5","2","",""
"","","","","","","","","","","","html-keyboard-response","28","2.0.0","381319","66e49dafbf9165764e7229ef","2","17","null","","","","","","","","","<p style='font-size: 30px;'><strong>Okay</strong></p>","null","neutral_feedback","0","test","11","","","","","","","",""
"","","","","","","","","","","","html-button-response","29","2.0.0","386260","66e49dafbf9165764e7229ef","2","17","4939","","","","","","","","","<img src= ""rock_img/I_Andesite_14.jpg"" style=""width:8cm; height:5.449999999999999cm;""><p>What type of rock is this?</p>","0","class_response","0","test","12","Andesite","Andesite","14","true","1","1","",""
"","","","","","","","","","","","html-keyboard-response","30","2.0.0","386761","66e49dafbf9165764e7229ef","2","17","null","","","","","","","","","<p style='font-size: 30px;'><strong>Okay</strong></p>","null","neutral_feedback","0","test","12","","","","","","","",""
"","","","","","","","","","","","html-button-response","31","2.0.0","390100","66e49dafbf9165764e7229ef","2","17","3338","","","","","","","","","<img src= ""rock_img/I_Peridotite_14.jpg"" style=""width:8cm; height:5.3cm;""><p>What type of rock is this?</p>","6","class_response","0","test","13","Peridotite","Peridotite","14","true","7","7","",""
"","","","","","","","","","","","html-keyboard-response","32","2.0.0","390601","66e49dafbf9165764e7229ef","2","17","null","","","","","","","","","<p style='font-size: 30px;'><strong>Okay</strong></p>","null","neutral_feedback","0","test","13","","","","","","","",""
"","","","","","","","","","","","html-button-response","33","2.0.0","392352","66e49dafbf9165764e7229ef","2","17","1750","","","","","","","","","<img src= ""rock_img/I_Obsidian_12.jpg"" style=""width:8cm; height:6.53cm;""><p>What type of rock is this?</p>","4","class_response","0","test","14","Obsidian","Obsidian","12","true","5","5","",""
"","","","","","","","","","","","html-keyboard-response","34","2.0.0","392853","66e49dafbf9165764e7229ef","2","17","null","","","","","","","","","<p style='font-size: 30px;'><strong>Okay</strong></p>","null","neutral_feedback","0","test","14","","","","","","","",""
"","","","","","","","","","","","html-button-response","35","2.0.0","397101","66e49dafbf9165764e7229ef","2","17","4247","","","","","","","","","<img src= ""rock_img/I_Pegmatite_09.jpg"" style=""width:8cm; height:4.03cm;""><p>What type of rock is this?</p>","5","class_response","0","test","15","Pegmatite","Pegmatite","09","true","6","6","",""
"","","","","","","","","","","","html-keyboard-response","36","2.0.0","397602","66e49dafbf9165764e7229ef","2","17","null","","","","","","","","","<p style='font-size: 30px;'><strong>Okay</strong></p>","null","neutral_feedback","0","test","15","","","","","","","",""
"","","","","","","","","","","","html-button-response","37","2.0.0","398973","66e49dafbf9165764e7229ef","2","17","1369","","","","","","","","","<img src= ""rock_img/I_Pegmatite_16.jpg"" style=""width:8cm; height:5.8cm;""><p>What type of rock is this?</p>","2","class_response","0","test","16","Diorite","Pegmatite","16","false","3","6","",""
"","","","","","","","","","","","html-keyboard-response","38","2.0.0","399473","66e49dafbf9165764e7229ef","2","17","null","","","","","","","","","<p style='font-size: 30px;'><strong>Okay</strong></p>","null","neutral_feedback","0","test","16","","","","","","","",""
"","","","","","","","","","","","html-button-response","39","2.0.0","401392","66e49dafbf9165764e7229ef","2","17","1917","","","","","","","","","<img src= ""rock_img/I_Peridotite_04.jpg"" style=""width:8cm; height:6.680000000000001cm;""><p>What type of rock is this?</p>","3","class_response","0","test","17","Gabbro","Peridotite","04","false","4","7","",""
"","","","","","","","","","","","html-keyboard-response","40","2.0.0","401893","66e49dafbf9165764e7229ef","2","17","null","","","","","","","","","<p style='font-size: 30px;'><strong>Okay</strong></p>","null","neutral_feedback","0","test","17","","","","","","","",""
"","","","","","","","","","","","html-button-response","41","2.0.0","408464","66e49dafbf9165764e7229ef","2","17","6570","","","","","","","","","<img src= ""rock_img/I_Diorite_07.jpg"" style=""width:8cm; height:5.239999999999999cm;""><p>What type of rock is this?</p>","2","class_response","0","test","18","Diorite","Diorite","07","true","3","3","",""
"","","","","","","","","","","","html-keyboard-response","42","2.0.0","408965","66e49dafbf9165764e7229ef","2","17","null","","","","","","","","","<p style='font-size: 30px;'><strong>Okay</strong></p>","null","neutral_feedback","0","test","18","","","","","","","",""
"","","","","","","","","","","","html-button-response","43","2.0.0","410145","66e49dafbf9165764e7229ef","2","17","1179","","","","","","","","","<img src= ""rock_img/I_Obsidian_09.jpg"" style=""width:8cm; height:5cm;""><p>What type of rock is this?</p>","4","class_response","0","test","19","Obsidian","Obsidian","09","true","5","5","",""
"","","","","","","","","","","","html-keyboard-response","44","2.0.0","410646","66e49dafbf9165764e7229ef","2","17","null","","","","","","","","","<p style='font-size: 30px;'><strong>Okay</strong></p>","null","neutral_feedback","0","test","19","","","","","","","",""
"","","","","","","","","","","","html-button-response","45","2.0.0","415029","66e49dafbf9165764e7229ef","2","17","4381","","","","","","","","","<img src= ""rock_img/I_Gabbro_13.jpg"" style=""width:8cm; height:5.08cm;""><p>What type of rock is this?</p>","5","class_response","0","test","20","Pegmatite","Gabbro","13","false","6","4","",""
"","","","","","","","","","","","html-keyboard-response","46","2.0.0","415529","66e49dafbf9165764e7229ef","2","17","null","","","","","","","","","<p style='font-size: 30px;'><strong>Okay</strong></p>","null","neutral_feedback","0","test","20","","","","","","","",""
"","","","","","","","","","","","html-button-response","47","2.0.0","417953","66e49dafbf9165764e7229ef","2","17","2422","","","","","","","","","<img src= ""rock_img/I_Basalt_14.jpg"" style=""width:8cm; height:5.82cm;""><p>What type of rock is this?</p>","3","class_response","0","test","21","Gabbro","Basalt","14","false","4","2","",""
"","","","","","","","","","","","html-keyboard-response","48","2.0.0","418454","66e49dafbf9165764e7229ef","2","17","null","","","","","","","","","<p style='font-size: 30px;'><strong>Okay</strong></p>","null","neutral_feedback","0","test","21","","","","","","","",""
"","","","","","","","","","","","html-button-response","49","2.0.0","421571","66e49dafbf9165764e7229ef","2","17","3116","","","","","","","","","<img src= ""rock_img/I_Pumice_15.jpg"" style=""width:8cm; height:7.86cm;""><p>What type of rock is this?</p>","1","class_response","0","test","22","Basalt","Pumice","15","false","2","8","",""
"","","","","","","","","","","","html-keyboard-response","50","2.0.0","422071","66e49dafbf9165764e7229ef","2","17","null","","","","","","","","","<p style='font-size: 30px;'><strong>Okay</strong></p>","null","neutral_feedback","0","test","22","","","","","","","",""
"","","","","","","","","","","","html-button-response","51","2.0.0","423907","66e49dafbf9165764e7229ef","2","17","1834","","","","","","","","","<img src= ""rock_img/I_Andesite_10.jpg"" style=""width:8cm; height:4.16cm;""><p>What type of rock is this?</p>","1","class_response","0","test","23","Basalt","Andesite","10","false","2","1","",""
"","","","","","","","","","","","html-keyboard-response","52","2.0.0","424408","66e49dafbf9165764e7229ef","2","17","null","","","","","","","","","<p style='font-size: 30px;'><strong>Okay</strong></p>","null","neutral_feedback","0","test","23","","","","","","","",""
"","","","","","","","","","","","html-button-response","53","2.0.0","426952","66e49dafbf9165764e7229ef","2","17","2543","","","","","","","","","<img src= ""rock_img/I_Gabbro_01.jpg"" style=""width:8cm; height:5.21cm;""><p>What type of rock is this?</p>","0","class_response","0","test","24","Andesite","Gabbro","01","false","1","4","",""
"","","","","","","","","","","","html-keyboard-response","54","2.0.0","427453","66e49dafbf9165764e7229ef","2","17","null","","","","","","","","","<p style='font-size: 30px;'><strong>Okay</strong></p>","null","neutral_feedback","0","test","24","","","","","","","",""
"","","","","","","","","","","","html-button-response","55","2.0.0","429924","66e49dafbf9165764e7229ef","2","17","2470","","","","","","","","","<img src= ""rock_img/I_Gabbro_15.jpg"" style=""width:8cm; height:6.29cm;""><p>What type of rock is this?</p>","7","class_response","0","test","25","Pumice","Gabbro","15","false","8","4","",""
"","","","","","","","","","","","html-keyboard-response","56","2.0.0","430425","66e49dafbf9165764e7229ef","2","17","null","","","","","","","","","<p style='font-size: 30px;'><strong>Okay</strong></p>","null","neutral_feedback","0","test","25","","","","","","","",""
"","","","","","","","","","","","html-button-response","57","2.0.0","432276","66e49dafbf9165764e7229ef","2","17","1849","","","","","","","","","<img src= ""rock_img/I_Pumice_16.jpg"" style=""width:8cm; height:6.79cm;""><p>What type of rock is this?</p>","3","class_response","0","test","26","Gabbro","Pumice","16","false","4","8","",""
"","","","","","","","","","","","html-keyboard-response","58","2.0.0","432776","66e49dafbf9165764e7229ef","2","17","null","","","","","","","","","<p style='font-size: 30px;'><strong>Okay</strong></p>","null","neutral_feedback","0","test","26","","","","","","","",""
"","","","","","","","","","","","html-button-response","59","2.0.0","439995","66e49dafbf9165764e7229ef","2","17","7217","","","","","","","","","<img src= ""rock_img/I_Diorite_13.jpg"" style=""width:8cm; height:6.29cm;""><p>What type of rock is this?</p>","3","class_response","0","test","27","Gabbro","Diorite","13","false","4","3","",""
"","","","","","","","","","","","html-keyboard-response","60","2.0.0","440496","66e49dafbf9165764e7229ef","2","17","null","","","","","","","","","<p style='font-size: 30px;'><strong>Okay</strong></p>","null","neutral_feedback","0","test","27","","","","","","","",""
"","","","","","","","","","","","html-button-response","61","2.0.0","442159","66e49dafbf9165764e7229ef","2","17","1662","","","","","","","","","<img src= ""rock_img/I_Gabbro_16.jpg"" style=""width:8cm; height:6.44cm;""><p>What type of rock is this?</p>","0","class_response","0","test","28","Andesite","Gabbro","16","false","1","4","",""
"","","","","","","","","","","","html-keyboard-response","62","2.0.0","442660","66e49dafbf9165764e7229ef","2","17","null","","","","","","","","","<p style='font-size: 30px;'><strong>Okay</strong></p>","null","neutral_feedback","0","test","28","","","","","","","",""
"","","","","","","","","","","","html-button-response","63","2.0.0","444488","66e49dafbf9165764e7229ef","2","17","1827","","","","","","","","","<img src= ""rock_img/I_Diorite_02.jpg"" style=""width:8cm; height:6.27cm;""><p>What type of rock is this?</p>","2","class_response","0","test","29","Diorite","Diorite","02","true","3","3","",""
"","","","","","","","","","","","html-keyboard-response","64","2.0.0","444989","66e49dafbf9165764e7229ef","2","17","null","","","","","","","","","<p style='font-size: 30px;'><strong>Okay</strong></p>","null","neutral_feedback","0","test","29","","","","","","","",""
"","","","","","","","","","","","html-button-response","65","2.0.0","446070","66e49dafbf9165764e7229ef","2","17","1080","","","","","","","","","<img src= ""rock_img/I_Andesite_05.jpg"" style=""width:8cm; height:4.12cm;""><p>What type of rock is this?</p>","0","class_response","0","test","30","Andesite","Andesite","05","true","1","1","",""
"","","","","","","","","","","","html-keyboard-response","66","2.0.0","446571","66e49dafbf9165764e7229ef","2","17","null","","","","","","","","","<p style='font-size: 30px;'><strong>Okay</strong></p>","null","neutral_feedback","0","test","30","","","","","","","",""
"","","","","","","","","","","","html-button-response","67","2.0.0","448168","66e49dafbf9165764e7229ef","2","17","1596","","","","","","","","","<img src= ""rock_img/I_Pumice_06.jpg"" style=""width:8cm; height:6.9399999999999995cm;""><p>What type of rock is this?</p>","6","class_response","0","test","31","Peridotite","Pumice","06","false","7","8","",""
"","","","","","","","","","","","html-keyboard-response","68","2.0.0","448669","66e49dafbf9165764e7229ef","2","17","null","","","","","","","","","<p style='font-size: 30px;'><strong>Okay</strong></p>","null","neutral_feedback","0","test","31","","","","","","","",""
"","","","","","","","","","","","html-button-response","69","2.0.0","450461","66e49dafbf9165764e7229ef","2","17","1790","","","","","","","","","<img src= ""rock_img/I_Obsidian_06.jpg"" style=""width:8cm; height:6.8cm;""><p>What type of rock is this?</p>","4","class_response","0","test","32","Obsidian","Obsidian","06","true","5","5","",""
"","","","","","","","","","","","html-keyboard-response","70","2.0.0","450961","66e49dafbf9165764e7229ef","2","17","null","","","","","","","","","<p style='font-size: 30px;'><strong>Okay</strong></p>","null","neutral_feedback","0","test","32","","","","","","","",""
"","","","","","","","","","","","html-button-response","71","2.0.0","452714","66e49dafbf9165764e7229ef","2","17","1751","","","","","","","","","<img src= ""rock_img/I_Basalt_12.jpg"" style=""width:8cm; height:6.010000000000001cm;""><p>What type of rock is this?</p>","0","class_response","0","test","33","Andesite","Basalt","12","false","1","2","",""
"","","","","","","","","","","","html-keyboard-response","72","2.0.0","453214","66e49dafbf9165764e7229ef","2","17","null","","","","","","","","","<p style='font-size: 30px;'><strong>Okay</strong></p>","null","neutral_feedback","0","test","33","","","","","","","",""
"","","","","","","","","","","","html-button-response","73","2.0.0","454382","66e49dafbf9165764e7229ef","2","17","1167","","","","","","","","","<img src= ""rock_img/I_Basalt_11.jpg"" style=""width:8cm; height:5.359999999999999cm;""><p>What type of rock is this?</p>","0","class_response","0","test","34","Andesite","Basalt","11","false","1","2","",""
"","","","","","","","","","","","html-keyboard-response","74","2.0.0","454883","66e49dafbf9165764e7229ef","2","17","null","","","","","","","","","<p style='font-size: 30px;'><strong>Okay</strong></p>","null","neutral_feedback","0","test","34","","","","","","","",""
"","","","","","","","","","","","html-button-response","75","2.0.0","456449","66e49dafbf9165764e7229ef","2","17","1565","","","","","","","","","<img src= ""rock_img/I_Pumice_10.jpg"" style=""width:8cm; height:7.609999999999999cm;""><p>What type of rock is this?</p>","2","class_response","0","test","35","Diorite","Pumice","10","false","3","8","",""
"","","","","","","","","","","","html-keyboard-response","76","2.0.0","456950","66e49dafbf9165764e7229ef","2","17","null","","","","","","","","","<p style='font-size: 30px;'><strong>Okay</strong></p>","null","neutral_feedback","0","test","35","","","","","","","",""
"","","","","","","","","","","","html-button-response","77","2.0.0","460789","66e49dafbf9165764e7229ef","2","17","3838","","","","","","","","","<img src= ""rock_img/I_Peridotite_08.jpg"" style=""width:8cm; height:6.7cm;""><p>What type of rock is this?</p>","1","class_response","0","test","36","Basalt","Peridotite","08","false","2","7","",""
"","","","","","","","","","","","html-keyboard-response","78","2.0.0","461290","66e49dafbf9165764e7229ef","2","17","null","","","","","","","","","<p style='font-size: 30px;'><strong>Okay</strong></p>","null","neutral_feedback","0","test","36","","","","","","","",""
"","","","","","","","","","","","html-button-response","79","2.0.0","463232","66e49dafbf9165764e7229ef","2","17","1941","","","","","","","","","<img src= ""rock_img/I_Peridotite_13.jpg"" style=""width:8cm; height:7.58cm;""><p>What type of rock is this?</p>","5","class_response","0","test","37","Pegmatite","Peridotite","13","false","6","7","",""
"","","","","","","","","","","","html-keyboard-response","80","2.0.0","463733","66e49dafbf9165764e7229ef","2","17","null","","","","","","","","","<p style='font-size: 30px;'><strong>Okay</strong></p>","null","neutral_feedback","0","test","37","","","","","","","",""
"","","","","","","","","","","","html-button-response","81","2.0.0","464976","66e49dafbf9165764e7229ef","2","17","1242","","","","","","","","","<img src= ""rock_img/I_Obsidian_04.jpg"" style=""width:8cm; height:6.930000000000001cm;""><p>What type of rock is this?</p>","4","class_response","0","test","38","Obsidian","Obsidian","04","true","5","5","",""
"","","","","","","","","","","","html-keyboard-response","82","2.0.0","465477","66e49dafbf9165764e7229ef","2","17","null","","","","","","","","","<p style='font-size: 30px;'><strong>Okay</strong></p>","null","neutral_feedback","0","test","38","","","","","","","",""
"","","","","","","","","","","","html-button-response","83","2.0.0","466701","66e49dafbf9165764e7229ef","2","17","1223","","","","","","","","","<img src= ""rock_img/I_Obsidian_16.jpg"" style=""width:8cm; height:9.3cm;""><p>What type of rock is this?</p>","4","class_response","0","test","39","Obsidian","Obsidian","16","true","5","5","",""
"","","","","","","","","","","","html-keyboard-response","84","2.0.0","467202","66e49dafbf9165764e7229ef","2","17","null","","","","","","","","","<p style='font-size: 30px;'><strong>Okay</strong></p>","null","neutral_feedback","0","test","39","","","","","","","",""
"","","","","","","","","","","","html-button-response","85","2.0.0","469006","66e49dafbf9165764e7229ef","2","17","1803","","","","","","","","","<img src= ""rock_img/I_Peridotite_05.jpg"" style=""width:8cm; height:7.1499999999999995cm;""><p>What type of rock is this?</p>","0","class_response","0","test","40","Andesite","Peridotite","05","false","1","7","",""
"","","","","","","","","","","","html-keyboard-response","86","2.0.0","469507","66e49dafbf9165764e7229ef","2","17","null","","","","","","","","","<p style='font-size: 30px;'><strong>Okay</strong></p>","null","neutral_feedback","0","test","40","","","","","","","",""
"","","","","","","","","","","","html-button-response","87","2.0.0","471358","66e49dafbf9165764e7229ef","2","17","1849","","","","","","","","","<img src= ""rock_img/I_Pumice_14.jpg"" style=""width:8cm; height:6.39cm;""><p>What type of rock is this?</p>","6","class_response","0","test","41","Peridotite","Pumice","14","false","7","8","",""
"","","","","","","","","","","","html-keyboard-response","88","2.0.0","471859","66e49dafbf9165764e7229ef","2","17","null","","","","","","","","","<p style='font-size: 30px;'><strong>Okay</strong></p>","null","neutral_feedback","0","test","41","","","","","","","",""
"","","","","","","","","","","","html-button-response","89","2.0.0","478745","66e49dafbf9165764e7229ef","2","17","6885","","","","","","","","","<img src= ""rock_img/I_Diorite_15.jpg"" style=""width:8cm; height:5.54cm;""><p>What type of rock is this?</p>","6","class_response","0","test","42","Peridotite","Diorite","15","false","7","3","",""
"","","","","","","","","","","","html-keyboard-response","90","2.0.0","479246","66e49dafbf9165764e7229ef","2","17","null","","","","","","","","","<p style='font-size: 30px;'><strong>Okay</strong></p>","null","neutral_feedback","0","test","42","","","","","","","",""
"","","","","","","","","","","","html-button-response","91","2.0.0","480965","66e49dafbf9165764e7229ef","2","17","1718","","","","","","","","","<img src= ""rock_img/I_Andesite_03.jpg"" style=""width:8cm; height:5.73cm;""><p>What type of rock is this?</p>","0","class_response","0","test","43","Andesite","Andesite","03","true","1","1","",""
"","","","","","","","","","","","html-keyboard-response","92","2.0.0","481466","66e49dafbf9165764e7229ef","2","17","null","","","","","","","","","<p style='font-size: 30px;'><strong>Okay</strong></p>","null","neutral_feedback","0","test","43","","","","","","","",""
"","","","","","","","","","","","html-button-response","93","2.0.0","484025","66e49dafbf9165764e7229ef","2","17","2558","","","","","","","","","<img src= ""rock_img/I_Pegmatite_12.jpg"" style=""width:8cm; height:5.7cm;""><p>What type of rock is this?</p>","4","class_response","0","test","44","Obsidian","Pegmatite","12","false","5","6","",""
"","","","","","","","","","","","html-keyboard-response","94","2.0.0","484526","66e49dafbf9165764e7229ef","2","17","null","","","","","","","","","<p style='font-size: 30px;'><strong>Okay</strong></p>","null","neutral_feedback","0","test","44","","","","","","","",""
"","","","","","","","","","","","html-button-response","95","2.0.0","486932","66e49dafbf9165764e7229ef","2","17","2404","","","","","","","","","<img src= ""rock_img/I_Pumice_04.jpg"" style=""width:8cm; height:6.819999999999999cm;""><p>What type of rock is this?</p>","7","class_response","0","test","45","Pumice","Pumice","04","true","8","8","",""
"","","","","","","","","","","","html-keyboard-response","96","2.0.0","487433","66e49dafbf9165764e7229ef","2","17","null","","","","","","","","","<p style='font-size: 30px;'><strong>Okay</strong></p>","null","neutral_feedback","0","test","45","","","","","","","",""
"","","","","","","","","","","","html-button-response","97","2.0.0","491505","66e49dafbf9165764e7229ef","2","17","4071","","","","","","","","","<img src= ""rock_img/I_Andesite_07.jpg"" style=""width:8cm; height:5.93cm;""><p>What type of rock is this?</p>","4","class_response","0","test","46","Obsidian","Andesite","07","false","5","1","",""
"","","","","","","","","","","","html-keyboard-response","98","2.0.0","492006","66e49dafbf9165764e7229ef","2","17","null","","","","","","","","","<p style='font-size: 30px;'><strong>Okay</strong></p>","null","neutral_feedback","0","test","46","","","","","","","",""
"","","","","","","","","","","","html-button-response","99","2.0.0","495445","66e49dafbf9165764e7229ef","2","17","3438","","","","","","","","","<img src= ""rock_img/I_Pegmatite_15.jpg"" style=""width:8cm; height:6cm;""><p>What type of rock is this?</p>","6","class_response","0","test","47","Peridotite","Pegmatite","15","false","7","6","",""
"","","","","","","","","","","","html-keyboard-response","100","2.0.0","495946","66e49dafbf9165764e7229ef","2","17","null","","","","","","","","","<p style='font-size: 30px;'><strong>Okay</strong></p>","null","neutral_feedback","0","test","47","","","","","","","",""
"","","","","","","","","","","","html-button-response","101","2.0.0","497402","66e49dafbf9165764e7229ef","2","17","1455","","","","","","","","","<img src= ""rock_img/I_Andesite_02.jpg"" style=""width:8cm; height:8.5cm;""><p>What type of rock is this?</p>","0","class_response","0","test","48","Andesite","Andesite","02","true","1","1","",""
"","","","","","","","","","","","html-keyboard-response","102","2.0.0","497903","66e49dafbf9165764e7229ef","2","17","null","","","","","","","","","<p style='font-size: 30px;'><strong>Okay</strong></p>","null","neutral_feedback","0","test","48","","","","","","","",""
"","","","","","","","","","","","instructions","103","2.0.0","522234","66e49dafbf9165764e7229ef","2","17","24314","","","","","","","","[{""page_index"":0,""viewing_time"":15051},{""page_index"":1,""viewing_time"":3839},{""page_index"":2,""viewing_time"":5423}]","","","","","","","","","","","","","",""
"","","","","","","","","","","","html-button-response","104","2.0.0","524829","66e49dafbf9165764e7229ef","2","17","2593","","","","","","","","","","0","start_train","","","","","","","","","","",""
"","","","","","","","","","","","html-button-response","105","2.0.0","526860","66e49dafbf9165764e7229ef","2","17","2030","","","","","","","","","<img src= ""rock_img/I_Basalt_08.jpg"" style=""width:8cm; height:10.44cm;""><p>What type of rock is this?</p>","4","class_response","1","train","1","Obsidian","Basalt","08","false","5","2","",""
"","","","","","","","","","","","html-button-response","106","2.0.0","530080","66e49dafbf9165764e7229ef","2","17","3218","","","","","","","","","<img src= rock_img/I_Basalt_08.jpg style=""width:8cm; height:10.44cm;""><p style='font-size: 30px; color: red;'><strong>Incorrect!</strong></p><p style='font-size: 30px;'><strong>This rock is basalt</strong></p>","0","corr_feedback","1","train","1","","","","","","","",""
"","","","","","","","","","","","html-button-response","107","2.0.0","532514","66e49dafbf9165764e7229ef","2","17","2433","","","","","","","","","<img src= ""rock_img/I_Gabbro_09.jpg"" style=""width:8cm; height:7.279999999999999cm;""><p>What type of rock is this?</p>","1","class_response","1","train","2","Basalt","Gabbro","09","false","2","4","",""
"","","","","","","","","","","","html-button-response","108","2.0.0","534286","66e49dafbf9165764e7229ef","2","17","1771","","","","","","","","","<img src= rock_img/I_Gabbro_09.jpg style=""width:8cm; height:7.279999999999999cm;""><p style='font-size: 30px; color: red;'><strong>Incorrect!</strong></p><p style='font-size: 30px;'><strong>This rock is gabbro</strong></p>","0","corr_feedback","1","train","2","","","","","","","",""
"","","","","","","","","","","","html-button-response","109","2.0.0","535368","66e49dafbf9165764e7229ef","2","17","1081","","","","","","","","","<img src= ""rock_img/I_Obsidian_08.jpg"" style=""width:8cm; height:7.39cm;""><p>What type of rock is this?</p>","4","class_response","1","train","3","Obsidian","Obsidian","08","true","5","5","",""
"","","","","","","","","","","","html-button-response","110","2.0.0","537036","66e49dafbf9165764e7229ef","2","17","1667","","","","","","","","","<img src= rock_img/I_Obsidian_08.jpg style=""width:8cm; height:7.39cm;""><p style='font-size: 30px; color: green;'><strong>Correct!</strong></p><p style='font-size: 30px;'><strong>This rock is obsidian</strong></p>","0","corr_feedback","1","train","3","","","","","","","",""
"","","","","","","","","","","","html-button-response","111","2.0.0","540204","66e49dafbf9165764e7229ef","2","17","3166","","","","","","","","","<img src= ""rock_img/I_Basalt_16.jpg"" style=""width:8cm; height:7.659999999999999cm;""><p>What type of rock is this?</p>","6","class_response","1","train","4","Peridotite","Basalt","16","false","7","2","",""
"","","","","","","","","","","","html-button-response","112","2.0.0","541500","66e49dafbf9165764e7229ef","2","17","1296","","","","","","","","","<img src= rock_img/I_Basalt_16.jpg style=""width:8cm; height:7.659999999999999cm;""><p style='font-size: 30px; color: red;'><strong>Incorrect!</strong></p><p style='font-size: 30px;'><strong>This rock is basalt</strong></p>","0","corr_feedback","1","train","4","","","","","","","",""
"","","","","","","","","","","","html-button-response","113","2.0.0","543943","66e49dafbf9165764e7229ef","2","17","2441","","","","","","","","","<img src= ""rock_img/I_Pegmatite_11.jpg"" style=""width:8cm; height:8.14cm;""><p>What type of rock is this?</p>","2","class_response","1","train","5","Diorite","Pegmatite","11","false","3","6","",""
"","","","","","","","","","","","html-button-response","114","2.0.0","547137","66e49dafbf9165764e7229ef","2","17","3193","","","","","","","","","<img src= rock_img/I_Pegmatite_11.jpg style=""width:8cm; height:8.14cm;""><p style='font-size: 30px; color: red;'><strong>Incorrect!</strong></p><p style='font-size: 30px;'><strong>This rock is pegmatite</strong></p>","0","corr_feedback","1","train","5","","","","","","","",""
"","","","","","","","","","","","html-button-response","115","2.0.0","548091","66e49dafbf9165764e7229ef","2","17","953","","","","","","","","","<img src= ""rock_img/I_Obsidian_11.jpg"" style=""width:8cm; height:6.05cm;""><p>What type of rock is this?</p>","4","class_response","1","train","6","Obsidian","Obsidian","11","true","5","5","",""
"","","","","","","","","","","","html-button-response","116","2.0.0","550774","66e49dafbf9165764e7229ef","2","17","2682","","","","","","","","","<img src= rock_img/I_Obsidian_11.jpg style=""width:8cm; height:6.05cm;""><p style='font-size: 30px; color: green;'><strong>Correct!</strong></p><p style='font-size: 30px;'><strong>This rock is obsidian</strong></p>","0","corr_feedback","1","train","6","","","","","","","",""
"","","","","","","","","","","","html-button-response","117","2.0.0","553423","66e49dafbf9165764e7229ef","2","17","2648","","","","","","","","","<img src= ""rock_img/I_Basalt_06.jpg"" style=""width:8cm; height:7.06cm;""><p>What type of rock is this?</p>","0","class_response","1","train","7","Andesite","Basalt","06","false","1","2","",""
"","","","","","","","","","","","html-button-response","118","2.0.0","554566","66e49dafbf9165764e7229ef","2","17","1142","","","","","","","","","<img src= rock_img/I_Basalt_06.jpg style=""width:8cm; height:7.06cm;""><p style='font-size: 30px; color: red;'><strong>Incorrect!</strong></p><p style='font-size: 30px;'><strong>This rock is basalt</strong></p>","0","corr_feedback","1","train","7","","","","","","","",""
"","","","","","","","","","","","html-button-response","119","2.0.0","558274","66e49dafbf9165764e7229ef","2","17","3706","","","","","","","","","<img src= ""rock_img/I_Pumice_02.jpg"" style=""width:8cm; height:7.3999999999999995cm;""><p>What type of rock is this?</p>","2","class_response","1","train","8","Diorite","Pumice","02","false","3","8","",""
"","","","","","","","","","","","html-button-response","120","2.0.0","561005","66e49dafbf9165764e7229ef","2","17","2730","","","","","","","","","<img src= rock_img/I_Pumice_02.jpg style=""width:8cm; height:7.3999999999999995cm;""><p style='font-size: 30px; color: red;'><strong>Incorrect!</strong></p><p style='font-size: 30px;'><strong>This rock is pumice</strong></p>","0","corr_feedback","1","train","8","","","","","","","",""
"","","","","","","","","","","","html-button-response","121","2.0.0","562519","66e49dafbf9165764e7229ef","2","17","1513","","","","","","","","","<img src= ""rock_img/I_Gabbro_05.jpg"" style=""width:8cm; height:6cm;""><p>What type of rock is this?</p>","0","class_response","1","train","9","Andesite","Gabbro","05","false","1","4","",""
"","","","","","","","","","","","html-button-response","122","2.0.0","565099","66e49dafbf9165764e7229ef","2","17","2579","","","","","","","","","<img src= rock_img/I_Gabbro_05.jpg style=""width:8cm; height:6cm;""><p style='font-size: 30px; color: red;'><strong>Incorrect!</strong></p><p style='font-size: 30px;'><strong>This rock is gabbro</strong></p>","0","corr_feedback","1","train","9","","","","","","","",""
"","","","","","","","","","","","html-button-response","123","2.0.0","569650","66e49dafbf9165764e7229ef","2","17","4550","","","","","","","","","<img src= ""rock_img/I_Peridotite_06.jpg"" style=""width:8cm; height:7.53cm;""><p>What type of rock is this?</p>","5","class_response","1","train","10","Pegmatite","Peridotite","06","false","6","7","",""
"","","","","","","","","","","","html-button-response","124","2.0.0","571558","66e49dafbf9165764e7229ef","2","17","1907","","","","","","","","","<img src= rock_img/I_Peridotite_06.jpg style=""width:8cm; height:7.53cm;""><p style='font-size: 30px; color: red;'><strong>Incorrect!</strong></p><p style='font-size: 30px;'><strong>This rock is peridotite</strong></p>","0","corr_feedback","1","train","10","","","","","","","",""
"","","","","","","","","","","","html-button-response","125","2.0.0","573249","66e49dafbf9165764e7229ef","2","17","1690","","","","","","","","","<img src= ""rock_img/I_Basalt_16.jpg"" style=""width:8cm; height:7.659999999999999cm;""><p>What type of rock is this?</p>","0","class_response","1","train","11","Andesite","Basalt","16","false","1","2","",""
"","","","","","","","","","","","html-button-response","126","2.0.0","574222","66e49dafbf9165764e7229ef","2","17","972","","","","","","","","","<img src= rock_img/I_Basalt_16.jpg style=""width:8cm; height:7.659999999999999cm;""><p style='font-size: 30px; color: red;'><strong>Incorrect!</strong></p><p style='font-size: 30px;'><strong>This rock is basalt</strong></p>","0","corr_feedback","1","train","11","","","","","","","",""
"","","","","","","","","","","","html-button-response","127","2.0.0","575773","66e49dafbf9165764e7229ef","2","17","1550","","","","","","","","","<img src= ""rock_img/I_Gabbro_12.jpg"" style=""width:8cm; height:7.800000000000001cm;""><p>What type of rock is this?</p>","0","class_response","1","train","12","Andesite","Gabbro","12","false","1","4","",""
"","","","","","","","","","","","html-button-response","128","2.0.0","577111","66e49dafbf9165764e7229ef","2","17","1337","","","","","","","","","<img src= rock_img/I_Gabbro_12.jpg style=""width:8cm; height:7.800000000000001cm;""><p style='font-size: 30px; color: red;'><strong>Incorrect!</strong></p><p style='font-size: 30px;'><strong>This rock is gabbro</strong></p>","0","corr_feedback","1","train","12","","","","","","","",""
"","","","","","","","","","","","html-button-response","129","2.0.0","585533","66e49dafbf9165764e7229ef","2","17","8420","","","","","","","","","<img src= ""rock_img/I_Andesite_16.jpg"" style=""width:8cm; height:6.010000000000001cm;""><p>What type of rock is this?</p>","1","class_response","1","train","13","Basalt","Andesite","16","false","2","1","",""
"","","","","","","","","","","","html-button-response","130","2.0.0","586394","66e49dafbf9165764e7229ef","2","17","860","","","","","","","","","<img src= rock_img/I_Andesite_16.jpg style=""width:8cm; height:6.010000000000001cm;""><p style='font-size: 30px; color: red;'><strong>Incorrect!</strong></p><p style='font-size: 30px;'><strong>This rock is andesite</strong></p>","0","corr_feedback","1","train","13","","","","","","","",""
"","","","","","","","","","","","html-button-response","131","2.0.0","588598","66e49dafbf9165764e7229ef","2","17","2203","","","","","","","","","<img src= ""rock_img/I_Gabbro_08.jpg"" style=""width:8cm; height:5.15cm;""><p>What type of rock is this?</p>","1","class_response","1","train","14","Basalt","Gabbro","08","false","2","4","",""
"","","","","","","","","","","","html-button-response","132","2.0.0","589526","66e49dafbf9165764e7229ef","2","17","927","","","","","","","","","<img src= rock_img/I_Gabbro_08.jpg style=""width:8cm; height:5.15cm;""><p style='font-size: 30px; color: red;'><strong>Incorrect!</strong></p><p style='font-size: 30px;'><strong>This rock is gabbro</strong></p>","0","corr_feedback","1","train","14","","","","","","","",""
"","","","","","","","","","","","html-button-response","133","2.0.0","591091","66e49dafbf9165764e7229ef","2","17","1564","","","","","","","","","<img src= ""rock_img/I_Basalt_02.jpg"" style=""width:8cm; height:6.45cm;""><p>What type of rock is this?</p>","0","class_response","1","train","15","Andesite","Basalt","02","false","1","2","",""
"","","","","","","","","","","","html-button-response","134","2.0.0","591891","66e49dafbf9165764e7229ef","2","17","799","","","","","","","","","<img src= rock_img/I_Basalt_02.jpg style=""width:8cm; height:6.45cm;""><p style='font-size: 30px; color: red;'><strong>Incorrect!</strong></p><p style='font-size: 30px;'><strong>This rock is basalt</strong></p>","0","corr_feedback","1","train","15","","","","","","","",""
"","","","","","","","","","","","html-button-response","135","2.0.0","603965","66e49dafbf9165764e7229ef","2","17","12073","","","","","","","","","<img src= ""rock_img/I_Andesite_11.jpg"" style=""width:8cm; height:4.92cm;""><p>What type of rock is this?</p>","3","class_response","1","train","16","Gabbro","Andesite","11","false","4","1","",""
"","","","","","","","","","","","html-button-response","136","2.0.0","604867","66e49dafbf9165764e7229ef","2","17","901","","","","","","","","","<img src= rock_img/I_Andesite_11.jpg style=""width:8cm; height:4.92cm;""><p style='font-size: 30px; color: red;'><strong>Incorrect!</strong></p><p style='font-size: 30px;'><strong>This rock is andesite</strong></p>","0","corr_feedback","1","train","16","","","","","","","",""
"","","","","","","","","","","","html-button-response","137","2.0.0","610175","66e49dafbf9165764e7229ef","2","17","5306","","","","","","","","","<img src= ""rock_img/I_Pegmatite_06.jpg"" style=""width:8cm; height:5.17cm;""><p>What type of rock is this?</p>","5","class_response","1","train","17","Pegmatite","Pegmatite","06","true","6","6","",""
"","","","","","","","","","","","html-button-response","138","2.0.0","613073","66e49dafbf9165764e7229ef","2","17","2897","","","","","","","","","<img src= rock_img/I_Pegmatite_06.jpg style=""width:8cm; height:5.17cm;""><p style='font-size: 30px; color: green;'><strong>Correct!</strong></p><p style='font-size: 30px;'><strong>This rock is pegmatite</strong></p>","0","corr_feedback","1","train","17","","","","","","","",""
"","","","","","","","","","","","html-button-response","139","2.0.0","615732","66e49dafbf9165764e7229ef","2","17","2658","","","","","","","","","<img src= ""rock_img/I_Pumice_13.jpg"" style=""width:8cm; height:8.200000000000001cm;""><p>What type of rock is this?</p>","1","class_response","1","train","18","Basalt","Pumice","13","false","2","8","",""
"","","","","","","","","","","","html-button-response","140","2.0.0","616619","66e49dafbf9165764e7229ef","2","17","886","","","","","","","","","<img src= rock_img/I_Pumice_13.jpg style=""width:8cm; height:8.200000000000001cm;""><p style='font-size: 30px; color: red;'><strong>Incorrect!</strong></p><p style='font-size: 30px;'><strong>This rock is pumice</strong></p>","0","corr_feedback","1","train","18","","","","","","","",""
"","","","","","","","","","","","html-button-response","141","2.0.0","620315","66e49dafbf9165764e7229ef","2","17","3695","","","","","","","","","<img src= ""rock_img/I_Pegmatite_10.jpg"" style=""width:8cm; height:4.16cm;""><p>What type of rock is this?</p>","5","class_response","1","train","19","Pegmatite","Pegmatite","10","true","6","6","",""
"","","","","","","","","","","","html-button-response","142","2.0.0","622353","66e49dafbf9165764e7229ef","2","17","2037","","","","","","","","","<img src= rock_img/I_Pegmatite_10.jpg style=""width:8cm; height:4.16cm;""><p style='font-size: 30px; color: green;'><strong>Correct!</strong></p><p style='font-size: 30px;'><strong>This rock is pegmatite</strong></p>","0","corr_feedback","1","train","19","","","","","","","",""
"","","","","","","","","","","","html-button-response","143","2.0.0","624064","66e49dafbf9165764e7229ef","2","17","1710","","","","","","","","","<img src= ""rock_img/I_Gabbro_10.jpg"" style=""width:8cm; height:5.680000000000001cm;""><p>What type of rock is this?</p>","1","class_response","1","train","20","Basalt","Gabbro","10","false","2","4","",""
"","","","","","","","","","","","html-button-response","144","2.0.0","624804","66e49dafbf9165764e7229ef","2","17","739","","","","","","","","","<img src= rock_img/I_Gabbro_10.jpg style=""width:8cm; height:5.680000000000001cm;""><p style='font-size: 30px; color: red;'><strong>Incorrect!</strong></p><p style='font-size: 30px;'><strong>This rock is gabbro</strong></p>","0","corr_feedback","1","train","20","","","","","","","",""
"","","","","","","","","","","","html-button-response","145","2.0.0","626152","66e49dafbf9165764e7229ef","2","17","1346","","","","","","","","","<img src= ""rock_img/I_Gabbro_08.jpg"" style=""width:8cm; height:5.15cm;""><p>What type of rock is this?</p>","3","class_response","1","train","21","Gabbro","Gabbro","08","true","4","4","",""
"","","","","","","","","","","","html-button-response","146","2.0.0","627122","66e49dafbf9165764e7229ef","2","17","970","","","","","","","","","<img src= rock_img/I_Gabbro_08.jpg style=""width:8cm; height:5.15cm;""><p style='font-size: 30px; color: green;'><strong>Correct!</strong></p><p style='font-size: 30px;'><strong>This rock is gabbro</strong></p>","0","corr_feedback","1","train","21","","","","","","","",""
"","","","","","","","","","","","html-button-response","147","2.0.0","629492","66e49dafbf9165764e7229ef","2","17","2368","","","","","","","","","<img src= ""rock_img/I_Pegmatite_13.jpg"" style=""width:8cm; height:4.95cm;""><p>What type of rock is this?</p>","6","class_response","1","train","22","Peridotite","Pegmatite","13","false","7","6","",""
"","","","","","","","","","","","html-button-response","148","2.0.0","630294","66e49dafbf9165764e7229ef","2","17","801","","","","","","","","","<img src= rock_img/I_Pegmatite_13.jpg style=""width:8cm; height:4.95cm;""><p style='font-size: 30px; color: red;'><strong>Incorrect!</strong></p><p style='font-size: 30px;'><strong>This rock is pegmatite</strong></p>","0","corr_feedback","1","train","22","","","","","","","",""
"","","","","","","","","","","","html-button-response","149","2.0.0","634643","66e49dafbf9165764e7229ef","2","17","4348","","","","","","","","","<img src= ""rock_img/I_Diorite_10.jpg"" style=""width:8cm; height:5.949999999999999cm;""><p>What type of rock is this?</p>","1","class_response","1","train","23","Basalt","Diorite","10","false","2","3","",""
"","","","","","","","","","","","html-button-response","150","2.0.0","635328","66e49dafbf9165764e7229ef","2","17","684","","","","","","","","","<img src= rock_img/I_Diorite_10.jpg style=""width:8cm; height:5.949999999999999cm;""><p style='font-size: 30px; color: red;'><strong>Incorrect!</strong></p><p style='font-size: 30px;'><strong>This rock is diorite</strong></p>","0","corr_feedback","1","train","23","","","","","","","",""
"","","","","","","","","","","","html-button-response","151","2.0.0","636456","66e49dafbf9165764e7229ef","2","17","1127","","","","","","","","","<img src= ""rock_img/I_Pumice_08.jpg"" style=""width:8cm; height:6.67cm;""><p>What type of rock is this?</p>","0","class_response","1","train","24","Andesite","Pumice","08","false","1","8","",""
"","","","","","","","","","","","html-button-response","152","2.0.0","637169","66e49dafbf9165764e7229ef","2","17","712","","","","","","","","","<img src= rock_img/I_Pumice_08.jpg style=""width:8cm; height:6.67cm;""><p style='font-size: 30px; color: red;'><strong>Incorrect!</strong></p><p style='font-size: 30px;'><strong>This rock is pumice</strong></p>","0","corr_feedback","1","train","24","","","","","","","",""
"","","","","","","","","","","","html-button-response","153","2.0.0","638748","66e49dafbf9165764e7229ef","2","17","1577","","","","","","","","","<img src= ""rock_img/I_Peridotite_10.jpg"" style=""width:8cm; height:5.390000000000001cm;""><p>What type of rock is this?</p>","2","class_response","1","train","25","Diorite","Peridotite","10","false","3","7","",""
"","","","","","","","","","","","html-button-response","154","2.0.0","639526","66e49dafbf9165764e7229ef","2","17","777","","","","","","","","","<img src= rock_img/I_Peridotite_10.jpg style=""width:8cm; height:5.390000000000001cm;""><p style='font-size: 30px; color: red;'><strong>Incorrect!</strong></p><p style='font-size: 30px;'><strong>This rock is peridotite</strong></p>","0","corr_feedback","1","train","25","","","","","","","",""
"","","","","","","","","","","","html-button-response","155","2.0.0","640823","66e49dafbf9165764e7229ef","2","17","1296","","","","","","","","","<img src= ""rock_img/I_Peridotite_02.jpg"" style=""width:8cm; height:5.859999999999999cm;""><p>What type of rock is this?</p>","5","class_response","1","train","26","Pegmatite","Peridotite","02","false","6","7","",""
"","","","","","","","","","","","html-button-response","156","2.0.0","641502","66e49dafbf9165764e7229ef","2","17","677","","","","","","","","","<img src= rock_img/I_Peridotite_02.jpg style=""width:8cm; height:5.859999999999999cm;""><p style='font-size: 30px; color: red;'><strong>Incorrect!</strong></p><p style='font-size: 30px;'><strong>This rock is peridotite</strong></p>","0","corr_feedback","1","train","26","","","","","","","",""
"","","","","","","","","","","","html-button-response","157","2.0.0","643961","66e49dafbf9165764e7229ef","2","17","2457","","","","","","","","","<img src= ""rock_img/I_Pegmatite_03.jpg"" style=""width:8cm; height:5.239999999999999cm;""><p>What type of rock is this?</p>","6","class_response","1","train","27","Peridotite","Pegmatite","03","false","7","6","",""
"","","","","","","","","","","","html-button-response","158","2.0.0","644765","66e49dafbf9165764e7229ef","2","17","804","","","","","","","","","<img src= rock_img/I_Pegmatite_03.jpg style=""width:8cm; height:5.239999999999999cm;""><p style='font-size: 30px; color: red;'><strong>Incorrect!</strong></p><p style='font-size: 30px;'><strong>This rock is pegmatite</strong></p>","0","corr_feedback","1","train","27","","","","","","","",""
"","","","","","","","","","","","html-button-response","159","2.0.0","647045","66e49dafbf9165764e7229ef","2","17","2278","","","","","","","","","<img src= ""rock_img/I_Pumice_05.jpg"" style=""width:8cm; height:7.25cm;""><p>What type of rock is this?</p>","0","class_response","1","train","28","Andesite","Pumice","05","false","1","8","",""
"","","","","","","","","","","","html-button-response","160","2.0.0","647743","66e49dafbf9165764e7229ef","2","17","697","","","","","","","","","<img src= rock_img/I_Pumice_05.jpg style=""width:8cm; height:7.25cm;""><p style='font-size: 30px; color: red;'><strong>Incorrect!</strong></p><p style='font-size: 30px;'><strong>This rock is pumice</strong></p>","0","corr_feedback","1","train","28","","","","","","","",""
"","","","","","","","","","","","html-button-response","161","2.0.0","648661","66e49dafbf9165764e7229ef","2","17","917","","","","","","","","","<img src= ""rock_img/I_Pumice_05.jpg"" style=""width:8cm; height:7.25cm;""><p>What type of rock is this?</p>","7","class_response","1","train","29","Pumice","Pumice","05","true","8","8","",""
"","","","","","","","","","","","html-button-response","162","2.0.0","649404","66e49dafbf9165764e7229ef","2","17","742","","","","","","","","","<img src= rock_img/I_Pumice_05.jpg style=""width:8cm; height:7.25cm;""><p style='font-size: 30px; color: green;'><strong>Correct!</strong></p><p style='font-size: 30px;'><strong>This rock is pumice</strong></p>","0","corr_feedback","1","train","29","","","","","","","",""
"","","","","","","","","","","","html-button-response","163","2.0.0","651512","66e49dafbf9165764e7229ef","2","17","2107","","","","","","","","","<img src= ""rock_img/I_Basalt_10.jpg"" style=""width:8cm; height:5.85cm;""><p>What type of rock is this?</p>","4","class_response","1","train","30","Obsidian","Basalt","10","false","5","2","",""
"","","","","","","","","","","","html-button-response","164","2.0.0","652269","66e49dafbf9165764e7229ef","2","17","756","","","","","","","","","<img src= rock_img/I_Basalt_10.jpg style=""width:8cm; height:5.85cm;""><p style='font-size: 30px; color: red;'><strong>Incorrect!</strong></p><p style='font-size: 30px;'><strong>This rock is basalt</strong></p>","0","corr_feedback","1","train","30","","","","","","","",""
"","","","","","","","","","","","html-button-response","165","2.0.0","658103","66e49dafbf9165764e7229ef","2","17","5833","","","","","","","","","<img src= ""rock_img/I_Gabbro_14.jpg"" style=""width:8cm; height:8.48cm;""><p>What type of rock is this?</p>","3","class_response","1","train","31","Gabbro","Gabbro","14","true","4","4","",""
"","","","","","","","","","","","html-button-response","166","2.0.0","658705","66e49dafbf9165764e7229ef","2","17","601","","","","","","","","","<img src= rock_img/I_Gabbro_14.jpg style=""width:8cm; height:8.48cm;""><p style='font-size: 30px; color: green;'><strong>Correct!</strong></p><p style='font-size: 30px;'><strong>This rock is gabbro</strong></p>","0","corr_feedback","1","train","31","","","","","","","",""
"","","","","","","","","","","","html-button-response","167","2.0.0","660542","66e49dafbf9165764e7229ef","2","17","1836","","","","","","","","","<img src= ""rock_img/I_Diorite_09.jpg"" style=""width:8cm; height:5.27cm;""><p>What type of rock is this?</p>","2","class_response","1","train","32","Diorite","Diorite","09","true","3","3","",""
"","","","","","","","","","","","html-button-response","168","2.0.0","662384","66e49dafbf9165764e7229ef","2","17","1841","","","","","","","","","<img src= rock_img/I_Diorite_09.jpg style=""width:8cm; height:5.27cm;""><p style='font-size: 30px; color: green;'><strong>Correct!</strong></p><p style='font-size: 30px;'><strong>This rock is diorite</strong></p>","0","corr_feedback","1","train","32","","","","","","","",""
"","","","","","","","","","","","html-button-response","169","2.0.0","665190","66e49dafbf9165764e7229ef","2","17","2804","","","","","","","","","<img src= ""rock_img/I_Pegmatite_08.jpg"" style=""width:8cm; height:7.68cm;""><p>What type of rock is this?</p>","6","class_response","1","train","33","Peridotite","Pegmatite","08","false","7","6","",""
"","","","","","","","","","","","html-button-response","170","2.0.0","665922","66e49dafbf9165764e7229ef","2","17","732","","","","","","","","","<img src= rock_img/I_Pegmatite_08.jpg style=""width:8cm; height:7.68cm;""><p style='font-size: 30px; color: red;'><strong>Incorrect!</strong></p><p style='font-size: 30px;'><strong>This rock is pegmatite</strong></p>","0","corr_feedback","1","train","33","","","","","","","",""
"","","","","","","","","","","","html-button-response","171","2.0.0","667905","66e49dafbf9165764e7229ef","2","17","1981","","","","","","","","","<img src= ""rock_img/I_Peridotite_15.jpg"" style=""width:8cm; height:6cm;""><p>What type of rock is this?</p>","5","class_response","1","train","34","Pegmatite","Peridotite","15","false","6","7","",""
"","","","","","","","","","","","html-button-response","172","2.0.0","668627","66e49dafbf9165764e7229ef","2","17","720","","","","","","","","","<img src= rock_img/I_Peridotite_15.jpg style=""width:8cm; height:6cm;""><p style='font-size: 30px; color: red;'><strong>Incorrect!</strong></p><p style='font-size: 30px;'><strong>This rock is peridotite</strong></p>","0","corr_feedback","1","train","34","","","","","","","",""
"","","","","","","","","","","","html-button-response","173","2.0.0","671842","66e49dafbf9165764e7229ef","2","17","3214","","","","","","","","","<img src= ""rock_img/I_Peridotite_16.jpg"" style=""width:8cm; height:6.989999999999999cm;""><p>What type of rock is this?</p>","6","class_response","1","train","35","Peridotite","Peridotite","16","true","7","7","",""
"","","","","","","","","","","","html-button-response","174","2.0.0","672869","66e49dafbf9165764e7229ef","2","17","1026","","","","","","","","","<img src= rock_img/I_Peridotite_16.jpg style=""width:8cm; height:6.989999999999999cm;""><p style='font-size: 30px; color: green;'><strong>Correct!</strong></p><p style='font-size: 30px;'><strong>This rock is peridotite</strong></p>","0","corr_feedback","1","train","35","","","","","","","",""
"","","","","","","","","","","","html-button-response","175","2.0.0","675055","66e49dafbf9165764e7229ef","2","17","2185","","","","","","","","","<img src= ""rock_img/I_Peridotite_12.jpg"" style=""width:8cm; height:4.54cm;""><p>What type of rock is this?</p>","6","class_response","1","train","36","Peridotite","Peridotite","12","true","7","7","",""
"","","","","","","","","","","","html-button-response","176","2.0.0","675689","66e49dafbf9165764e7229ef","2","17","633","","","","","","","","","<img src= rock_img/I_Peridotite_12.jpg style=""width:8cm; height:4.54cm;""><p style='font-size: 30px; color: green;'><strong>Correct!</strong></p><p style='font-size: 30px;'><strong>This rock is peridotite</strong></p>","0","corr_feedback","1","train","36","","","","","","","",""
"","","","","","","","","","","","html-button-response","177","2.0.0","677455","66e49dafbf9165764e7229ef","2","17","1765","","","","","","","","","<img src= ""rock_img/I_Andesite_01.jpg"" style=""width:8cm; height:5.87cm;""><p>What type of rock is this?</p>","1","class_response","1","train","37","Basalt","Andesite","01","false","2","1","",""
"","","","","","","","","","","","html-button-response","178","2.0.0","678324","66e49dafbf9165764e7229ef","2","17","868","","","","","","","","","<img src= rock_img/I_Andesite_01.jpg style=""width:8cm; height:5.87cm;""><p style='font-size: 30px; color: red;'><strong>Incorrect!</strong></p><p style='font-size: 30px;'><strong>This rock is andesite</strong></p>","0","corr_feedback","1","train","37","","","","","","","",""
"","","","","","","","","","","","html-button-response","179","2.0.0","680362","66e49dafbf9165764e7229ef","2","17","2037","","","","","","","","","<img src= ""rock_img/I_Peridotite_06.jpg"" style=""width:8cm; height:7.53cm;""><p>What type of rock is this?</p>","6","class_response","1","train","38","Peridotite","Peridotite","06","true","7","7","",""
"","","","","","","","","","","","html-button-response","180","2.0.0","680923","66e49dafbf9165764e7229ef","2","17","560","","","","","","","","","<img src= rock_img/I_Peridotite_06.jpg style=""width:8cm; height:7.53cm;""><p style='font-size: 30px; color: green;'><strong>Correct!</strong></p><p style='font-size: 30px;'><strong>This rock is peridotite</strong></p>","0","corr_feedback","1","train","38","","","","","","","",""
"","","","","","","","","","","","html-button-response","181","2.0.0","684239","66e49dafbf9165764e7229ef","2","17","3314","","","","","","","","","<img src= ""rock_img/I_Diorite_06.jpg"" style=""width:8cm; height:6.03cm;""><p>What type of rock is this?</p>","1","class_response","1","train","39","Basalt","Diorite","06","false","2","3","",""
"","","","","","","","","","","","html-button-response","182","2.0.0","684978","66e49dafbf9165764e7229ef","2","17","738","","","","","","","","","<img src= rock_img/I_Diorite_06.jpg style=""width:8cm; height:6.03cm;""><p style='font-size: 30px; color: red;'><strong>Incorrect!</strong></p><p style='font-size: 30px;'><strong>This rock is diorite</strong></p>","0","corr_feedback","1","train","39","","","","","","","",""
"","","","","","","","","","","","html-button-response","183","2.0.0","686903","66e49dafbf9165764e7229ef","2","17","1924","","","","","","","","","<img src= ""rock_img/I_Pumice_09.jpg"" style=""width:8cm; height:6.44cm;""><p>What type of rock is this?</p>","2","class_response","1","train","40","Diorite","Pumice","09","false","3","8","",""
"","","","","","","","","","","","html-button-response","184","2.0.0","687671","66e49dafbf9165764e7229ef","2","17","767","","","","","","","","","<img src= rock_img/I_Pumice_09.jpg style=""width:8cm; height:6.44cm;""><p style='font-size: 30px; color: red;'><strong>Incorrect!</strong></p><p style='font-size: 30px;'><strong>This rock is pumice</strong></p>","0","corr_feedback","1","train","40","","","","","","","",""
"","","","","","","","","","","","html-button-response","185","2.0.0","691090","66e49dafbf9165764e7229ef","2","17","3418","","","","","","","","","<img src= ""rock_img/I_Gabbro_10.jpg"" style=""width:8cm; height:5.680000000000001cm;""><p>What type of rock is this?</p>","1","class_response","1","train","41","Basalt","Gabbro","10","false","2","4","",""
"","","","","","","","","","","","html-button-response","186","2.0.0","691802","66e49dafbf9165764e7229ef","2","17","711","","","","","","","","","<img src= rock_img/I_Gabbro_10.jpg style=""width:8cm; height:5.680000000000001cm;""><p style='font-size: 30px; color: red;'><strong>Incorrect!</strong></p><p style='font-size: 30px;'><strong>This rock is gabbro</strong></p>","0","corr_feedback","1","train","41","","","","","","","",""
"","","","","","","","","","","","html-button-response","187","2.0.0","693201","66e49dafbf9165764e7229ef","2","17","1398","","","","","","","","","<img src= ""rock_img/I_Andesite_04.jpg"" style=""width:8cm; height:5.96cm;""><p>What type of rock is this?</p>","3","class_response","1","train","42","Gabbro","Andesite","04","false","4","1","",""
"","","","","","","","","","","","html-button-response","188","2.0.0","693934","66e49dafbf9165764e7229ef","2","17","732","","","","","","","","","<img src= rock_img/I_Andesite_04.jpg style=""width:8cm; height:5.96cm;""><p style='font-size: 30px; color: red;'><strong>Incorrect!</strong></p><p style='font-size: 30px;'><strong>This rock is andesite</strong></p>","0","corr_feedback","1","train","42","","","","","","","",""
"","","","","","","","","","","","html-button-response","189","2.0.0","695532","66e49dafbf9165764e7229ef","2","17","1597","","","","","","","","","<img src= ""rock_img/I_Basalt_02.jpg"" style=""width:8cm; height:6.45cm;""><p>What type of rock is this?</p>","3","class_response","1","train","43","Gabbro","Basalt","02","false","4","2","",""
"","","","","","","","","","","","html-button-response","190","2.0.0","696233","66e49dafbf9165764e7229ef","2","17","700","","","","","","","","","<img src= rock_img/I_Basalt_02.jpg style=""width:8cm; height:6.45cm;""><p style='font-size: 30px; color: red;'><strong>Incorrect!</strong></p><p style='font-size: 30px;'><strong>This rock is basalt</strong></p>","0","corr_feedback","1","train","43","","","","","","","",""
"","","","","","","","","","","","html-button-response","191","2.0.0","697696","66e49dafbf9165764e7229ef","2","17","1461","","","","","","","","","<img src= ""rock_img/I_Pumice_03.jpg"" style=""width:8cm; height:6.64cm;""><p>What type of rock is this?</p>","7","class_response","1","train","44","Pumice","Pumice","03","true","8","8","",""
"","","","","","","","","","","","html-button-response","192","2.0.0","698511","66e49dafbf9165764e7229ef","2","17","815","","","","","","","","","<img src= rock_img/I_Pumice_03.jpg style=""width:8cm; height:6.64cm;""><p style='font-size: 30px; color: green;'><strong>Correct!</strong></p><p style='font-size: 30px;'><strong>This rock is pumice</strong></p>","0","corr_feedback","1","train","44","","","","","","","",""
"","","","","","","","","","","","html-button-response","193","2.0.0","700295","66e49dafbf9165764e7229ef","2","17","1782","","","","","","","","","<img src= ""rock_img/I_Pegmatite_08.jpg"" style=""width:8cm; height:7.68cm;""><p>What type of rock is this?</p>","6","class_response","1","train","45","Peridotite","Pegmatite","08","false","7","6","",""
"","","","","","","","","","","","html-button-response","194","2.0.0","701193","66e49dafbf9165764e7229ef","2","17","897","","","","","","","","","<img src= rock_img/I_Pegmatite_08.jpg style=""width:8cm; height:7.68cm;""><p style='font-size: 30px; color: red;'><strong>Incorrect!</strong></p><p style='font-size: 30px;'><strong>This rock is pegmatite</strong></p>","0","corr_feedback","1","train","45","","","","","","","",""
"","","","","","","","","","","","html-button-response","195","2.0.0","704693","66e49dafbf9165764e7229ef","2","17","3499","","","","","","","","","<img src= ""rock_img/I_Basalt_04.jpg"" style=""width:8cm; height:7.53cm;""><p>What type of rock is this?</p>","1","class_response","1","train","46","Basalt","Basalt","04","true","2","2","",""
"","","","","","","","","","","","html-button-response","196","2.0.0","705415","66e49dafbf9165764e7229ef","2","17","721","","","","","","","","","<img src= rock_img/I_Basalt_04.jpg style=""width:8cm; height:7.53cm;""><p style='font-size: 30px; color: green;'><strong>Correct!</strong></p><p style='font-size: 30px;'><strong>This rock is basalt</strong></p>","0","corr_feedback","1","train","46","","","","","","","",""
"","","","","","","","","","","","html-button-response","197","2.0.0","712169","66e49dafbf9165764e7229ef","2","17","6754","","","","","","","","","<img src= ""rock_img/I_Andesite_06.jpg"" style=""width:8cm; height:6.840000000000001cm;""><p>What type of rock is this?</p>","1","class_response","1","train","47","Basalt","Andesite","06","false","2","1","",""
"","","","","","","","","","","","html-button-response","198","2.0.0","712872","66e49dafbf9165764e7229ef","2","17","702","","","","","","","","","<img src= rock_img/I_Andesite_06.jpg style=""width:8cm; height:6.840000000000001cm;""><p style='font-size: 30px; color: red;'><strong>Incorrect!</strong></p><p style='font-size: 30px;'><strong>This rock is andesite</strong></p>","0","corr_feedback","1","train","47","","","","","","","",""
"","","","","","","","","","","","html-button-response","199","2.0.0","713967","66e49dafbf9165764e7229ef","2","17","1094","","","","","","","","","<img src= ""rock_img/I_Diorite_16.jpg"" style=""width:8cm; height:6.74cm;""><p>What type of rock is this?</p>","0","class_response","1","train","48","Andesite","Diorite","16","false","1","3","",""
"","","","","","","","","","","","html-button-response","200","2.0.0","714805","66e49dafbf9165764e7229ef","2","17","837","","","","","","","","","<img src= rock_img/I_Diorite_16.jpg style=""width:8cm; height:6.74cm;""><p style='font-size: 30px; color: red;'><strong>Incorrect!</strong></p><p style='font-size: 30px;'><strong>This rock is diorite</strong></p>","0","corr_feedback","1","train","48","","","","","","","",""
"","","","","","","","","","","","instructions","203","2.0.0","733301","66e49dafbf9165764e7229ef","2","17","18494","","","","","","","","[{""page_index"":0,""viewing_time"":4951},{""page_index"":1,""viewing_time"":13542}]","","","","","","","","","","","","","",""
"","","","","","","","","","","","html-button-response","204","2.0.0","734634","66e49dafbf9165764e7229ef","2","17","1332","","","","","","","","","","0","start_test","","","","","","","","","","",""
"","","","","","","","","","","","html-button-response","205","2.0.0","735877","66e49dafbf9165764e7229ef","2","17","1241","","","","","","","","","<img src= ""rock_img/I_Diorite_14.jpg"" style=""width:8cm; height:5.71cm;""><p>What type of rock is this?</p>","2","class_response","1","test","1","Diorite","Diorite","14","true","3","3","",""
"","","","","","","","","","","","html-keyboard-response","206","2.0.0","736378","66e49dafbf9165764e7229ef","2","17","null","","","","","","","","","<p style='font-size: 30px;'><strong>Okay</strong></p>","null","neutral_feedback","1","test","1","","","","","","","",""
"","","","","","","","","","","","html-button-response","207","2.0.0","740992","66e49dafbf9165764e7229ef","2","17","4613","","","","","","","","","<img src= ""rock_img/I_Gabbro_03.jpg"" style=""width:8cm; height:8.52cm;""><p>What type of rock is this?</p>","1","class_response","1","test","2","Basalt","Gabbro","03","false","2","4","",""
"","","","","","","","","","","","html-keyboard-response","208","2.0.0","741493","66e49dafbf9165764e7229ef","2","17","null","","","","","","","","","<p style='font-size: 30px;'><strong>Okay</strong></p>","null","neutral_feedback","1","test","2","","","","","","","",""
"","","","","","","","","","","","html-button-response","209","2.0.0","742537","66e49dafbf9165764e7229ef","2","17","1043","","","","","","","","","<img src= ""rock_img/I_Obsidian_04.jpg"" style=""width:8cm; height:6.930000000000001cm;""><p>What type of rock is this?</p>","4","class_response","1","test","3","Obsidian","Obsidian","04","true","5","5","",""
"","","","","","","","","","","","html-keyboard-response","210","2.0.0","743038","66e49dafbf9165764e7229ef","2","17","null","","","","","","","","","<p style='font-size: 30px;'><strong>Okay</strong></p>","null","neutral_feedback","1","test","3","","","","","","","",""
"","","","","","","","","","","","html-button-response","211","2.0.0","748177","66e49dafbf9165764e7229ef","2","17","5138","","","","","","","","","<img src= ""rock_img/I_Andesite_02.jpg"" style=""width:8cm; height:8.5cm;""><p>What type of rock is this?</p>","1","class_response","1","test","4","Basalt","Andesite","02","false","2","1","",""
"","","","","","","","","","","","html-keyboard-response","212","2.0.0","748677","66e49dafbf9165764e7229ef","2","17","null","","","","","","","","","<p style='font-size: 30px;'><strong>Okay</strong></p>","null","neutral_feedback","1","test","4","","","","","","","",""
"","","","","","","","","","","","html-button-response","213","2.0.0","749975","66e49dafbf9165764e7229ef","2","17","1297","","","","","","","","","<img src= ""rock_img/I_Diorite_08.jpg"" style=""width:8cm; height:6.37cm;""><p>What type of rock is this?</p>","2","class_response","1","test","5","Diorite","Diorite","08","true","3","3","",""
"","","","","","","","","","","","html-keyboard-response","214","2.0.0","750476","66e49dafbf9165764e7229ef","2","17","null","","","","","","","","","<p style='font-size: 30px;'><strong>Okay</strong></p>","null","neutral_feedback","1","test","5","","","","","","","",""
"","","","","","","","","","","","html-button-response","215","2.0.0","752844","66e49dafbf9165764e7229ef","2","17","2366","","","","","","","","","<img src= ""rock_img/I_Basalt_11.jpg"" style=""width:8cm; height:5.359999999999999cm;""><p>What type of rock is this?</p>","3","class_response","1","test","6","Gabbro","Basalt","11","false","4","2","",""
"","","","","","","","","","","","html-keyboard-response","216","2.0.0","753344","66e49dafbf9165764e7229ef","2","17","null","","","","","","","","","<p style='font-size: 30px;'><strong>Okay</strong></p>","null","neutral_feedback","1","test","6","","","","","","","",""
"","","","","","","","","","","","html-button-response","217","2.0.0","756523","66e49dafbf9165764e7229ef","2","17","3177","","","","","","","","","<img src= ""rock_img/I_Peridotite_07.jpg"" style=""width:8cm; height:4.83cm;""><p>What type of rock is this?</p>","6","class_response","1","test","7","Peridotite","Peridotite","07","true","7","7","",""
"","","","","","","","","","","","html-keyboard-response","218","2.0.0","757024","66e49dafbf9165764e7229ef","2","17","null","","","","","","","","","<p style='font-size: 30px;'><strong>Okay</strong></p>","null","neutral_feedback","1","test","7","","","","","","","",""
"","","","","","","","","","","","html-button-response","219","2.0.0","761315","66e49dafbf9165764e7229ef","2","17","4290","","","","","","","","","<img src= ""rock_img/I_Gabbro_16.jpg"" style=""width:8cm; height:6.44cm;""><p>What type of rock is this?</p>","3","class_response","1","test","8","Gabbro","Gabbro","16","true","4","4","",""
"","","","","","","","","","","","html-keyboard-response","220","2.0.0","761816","66e49dafbf9165764e7229ef","2","17","null","","","","","","","","","<p style='font-size: 30px;'><strong>Okay</strong></p>","null","neutral_feedback","1","test","8","","","","","","","",""
"","","","","","","","","","","","html-button-response","221","2.0.0","763690","66e49dafbf9165764e7229ef","2","17","1873","","","","","","","","","<img src= ""rock_img/I_Obsidian_06.jpg"" style=""width:8cm; height:6.8cm;""><p>What type of rock is this?</p>","4","class_response","1","test","9","Obsidian","Obsidian","06","true","5","5","",""
"","","","","","","","","","","","html-keyboard-response","222","2.0.0","764191","66e49dafbf9165764e7229ef","2","17","null","","","","","","","","","<p style='font-size: 30px;'><strong>Okay</strong></p>","null","neutral_feedback","1","test","9","","","","","","","",""
"","","","","","","","","","","","html-button-response","223","2.0.0","766581","66e49dafbf9165764e7229ef","2","17","2388","","","","","","","","","<img src= ""rock_img/I_Pumice_16.jpg"" style=""width:8cm; height:6.79cm;""><p>What type of rock is this?</p>","7","class_response","1","test","10","Pumice","Pumice","16","true","8","8","",""
"","","","","","","","","","","","html-keyboard-response","224","2.0.0","767081","66e49dafbf9165764e7229ef","2","17","null","","","","","","","","","<p style='font-size: 30px;'><strong>Okay</strong></p>","null","neutral_feedback","1","test","10","","","","","","","",""
"","","","","","","","","","","","html-button-response","225","2.0.0","772217","66e49dafbf9165764e7229ef","2","17","5134","","","","","","","","","<img src= ""rock_img/I_Pumice_10.jpg"" style=""width:8cm; height:7.609999999999999cm;""><p>What type of rock is this?</p>","2","class_response","1","test","11","Diorite","Pumice","10","false","3","8","",""
"","","","","","","","","","","","html-keyboard-response","226","2.0.0","772717","66e49dafbf9165764e7229ef","2","17","null","","","","","","","","","<p style='font-size: 30px;'><strong>Okay</strong></p>","null","neutral_feedback","1","test","11","","","","","","","",""
"","","","","","","","","","","","html-button-response","227","2.0.0","774650","66e49dafbf9165764e7229ef","2","17","1931","","","","","","","","","<img src= ""rock_img/I_Pegmatite_07.jpg"" style=""width:8cm; height:6.7cm;""><p>What type of rock is this?</p>","5","class_response","1","test","12","Pegmatite","Pegmatite","07","true","6","6","",""
"","","","","","","","","","","","html-keyboard-response","228","2.0.0","775151","66e49dafbf9165764e7229ef","2","17","null","","","","","","","","","<p style='font-size: 30px;'><strong>Okay</strong></p>","null","neutral_feedback","1","test","12","","","","","","","",""
"","","","","","","","","","","","html-button-response","229","2.0.0","777170","66e49dafbf9165764e7229ef","2","17","2018","","","","","","","","","<img src= ""rock_img/I_Peridotite_05.jpg"" style=""width:8cm; height:7.1499999999999995cm;""><p>What type of rock is this?</p>","6","class_response","1","test","13","Peridotite","Peridotite","05","true","7","7","",""
"","","","","","","","","","","","html-keyboard-response","230","2.0.0","777671","66e49dafbf9165764e7229ef","2","17","null","","","","","","","","","<p style='font-size: 30px;'><strong>Okay</strong></p>","null","neutral_feedback","1","test","13","","","","","","","",""
"","","","","","","","","","","","html-button-response","231","2.0.0","778901","66e49dafbf9165764e7229ef","2","17","1229","","","","","","","","","<img src= ""rock_img/I_Peridotite_13.jpg"" style=""width:8cm; height:7.58cm;""><p>What type of rock is this?</p>","6","class_response","1","test","14","Peridotite","Peridotite","13","true","7","7","",""
"","","","","","","","","","","","html-keyboard-response","232","2.0.0","779402","66e49dafbf9165764e7229ef","2","17","null","","","","","","","","","<p style='font-size: 30px;'><strong>Okay</strong></p>","null","neutral_feedback","1","test","14","","","","","","","",""
"","","","","","","","","","","","html-button-response","233","2.0.0","780993","66e49dafbf9165764e7229ef","2","17","1590","","","","","","","","","<img src= ""rock_img/I_Pegmatite_05.jpg"" style=""width:8cm; height:7.300000000000001cm;""><p>What type of rock is this?</p>","5","class_response","1","test","15","Pegmatite","Pegmatite","05","true","6","6","",""
"","","","","","","","","","","","html-keyboard-response","234","2.0.0","781494","66e49dafbf9165764e7229ef","2","17","null","","","","","","","","","<p style='font-size: 30px;'><strong>Okay</strong></p>","null","neutral_feedback","1","test","15","","","","","","","",""
"","","","","","","","","","","","html-button-response","235","2.0.0","782898","66e49dafbf9165764e7229ef","2","17","1403","","","","","","","","","<img src= ""rock_img/I_Basalt_09.jpg"" style=""width:8cm; height:6.2cm;""><p>What type of rock is this?</p>","1","class_response","1","test","16","Basalt","Basalt","09","true","2","2","",""
"","","","","","","","","","","","html-keyboard-response","236","2.0.0","783399","66e49dafbf9165764e7229ef","2","17","null","","","","","","","","","<p style='font-size: 30px;'><strong>Okay</strong></p>","null","neutral_feedback","1","test","16","","","","","","","",""
"","","","","","","","","","","","html-button-response","237","2.0.0","784589","66e49dafbf9165764e7229ef","2","17","1188","","","","","","","","","<img src= ""rock_img/I_Obsidian_16.jpg"" style=""width:8cm; height:9.3cm;""><p>What type of rock is this?</p>","4","class_response","1","test","17","Obsidian","Obsidian","16","true","5","5","",""
"","","","","","","","","","","","html-keyboard-response","238","2.0.0","785089","66e49dafbf9165764e7229ef","2","17","null","","","","","","","","","<p style='font-size: 30px;'><strong>Okay</strong></p>","null","neutral_feedback","1","test","17","","","","","","","",""
"","","","","","","","","","","","html-button-response","239","2.0.0","788661","66e49dafbf9165764e7229ef","2","17","3570","","","","","","","","","<img src= ""rock_img/I_Gabbro_01.jpg"" style=""width:8cm; height:5.21cm;""><p>What type of rock is this?</p>","0","class_response","1","test","18","Andesite","Gabbro","01","false","1","4","",""
"","","","","","","","","","","","html-keyboard-response","240","2.0.0","789161","66e49dafbf9165764e7229ef","2","17","null","","","","","","","","","<p style='font-size: 30px;'><strong>Okay</strong></p>","null","neutral_feedback","1","test","18","","","","","","","",""
"","","","","","","","","","","","html-button-response","241","2.0.0","790511","66e49dafbf9165764e7229ef","2","17","1348","","","","","","","","","<img src= ""rock_img/I_Pumice_14.jpg"" style=""width:8cm; height:6.39cm;""><p>What type of rock is this?</p>","7","class_response","1","test","19","Pumice","Pumice","14","true","8","8","",""
"","","","","","","","","","","","html-keyboard-response","242","2.0.0","791011","66e49dafbf9165764e7229ef","2","17","null","","","","","","","","","<p style='font-size: 30px;'><strong>Okay</strong></p>","null","neutral_feedback","1","test","19","","","","","","","",""
"","","","","","","","","","","","html-button-response","243","2.0.0","793030","66e49dafbf9165764e7229ef","2","17","2017","","","","","","","","","<img src= ""rock_img/I_Gabbro_11.jpg"" style=""width:8cm; height:6.2cm;""><p>What type of rock is this?</p>","1","class_response","1","test","20","Basalt","Gabbro","11","false","2","4","",""
"","","","","","","","","","","","html-keyboard-response","244","2.0.0","793531","66e49dafbf9165764e7229ef","2","17","null","","","","","","","","","<p style='font-size: 30px;'><strong>Okay</strong></p>","null","neutral_feedback","1","test","20","","","","","","","",""
"","","","","","","","","","","","html-button-response","245","2.0.0","797174","66e49dafbf9165764e7229ef","2","17","3642","","","","","","","","","<img src= ""rock_img/I_Peridotite_14.jpg"" style=""width:8cm; height:5.3cm;""><p>What type of rock is this?</p>","3","class_response","1","test","21","Gabbro","Peridotite","14","false","4","7","",""
"","","","","","","","","","","","html-keyboard-response","246","2.0.0","797675","66e49dafbf9165764e7229ef","2","17","null","","","","","","","","","<p style='font-size: 30px;'><strong>Okay</strong></p>","null","neutral_feedback","1","test","21","","","","","","","",""
"","","","","","","","","","","","html-button-response","247","2.0.0","799069","66e49dafbf9165764e7229ef","2","17","1393","","","","","","","","","<img src= ""rock_img/I_Peridotite_08.jpg"" style=""width:8cm; height:6.7cm;""><p>What type of rock is this?</p>","6","class_response","1","test","22","Peridotite","Peridotite","08","true","7","7","",""
"","","","","","","","","","","","html-keyboard-response","248","2.0.0","799570","66e49dafbf9165764e7229ef","2","17","null","","","","","","","","","<p style='font-size: 30px;'><strong>Okay</strong></p>","null","neutral_feedback","1","test","22","","","","","","","",""
"","","","","","","","","","","","html-button-response","249","2.0.0","801233","66e49dafbf9165764e7229ef","2","17","1662","","","","","","","","","<img src= ""rock_img/I_Pegmatite_16.jpg"" style=""width:8cm; height:5.8cm;""><p>What type of rock is this?</p>","5","class_response","1","test","23","Pegmatite","Pegmatite","16","true","6","6","",""
"","","","","","","","","","","","html-keyboard-response","250","2.0.0","801734","66e49dafbf9165764e7229ef","2","17","null","","","","","","","","","<p style='font-size: 30px;'><strong>Okay</strong></p>","null","neutral_feedback","1","test","23","","","","","","","",""
"","","","","","","","","","","","html-button-response","251","2.0.0","803755","66e49dafbf9165764e7229ef","2","17","2019","","","","","","","","","<img src= ""rock_img/I_Pumice_04.jpg"" style=""width:8cm; height:6.819999999999999cm;""><p>What type of rock is this?</p>","7","class_response","1","test","24","Pumice","Pumice","04","true","8","8","",""
"","","","","","","","","","","","html-keyboard-response","252","2.0.0","804256","66e49dafbf9165764e7229ef","2","17","null","","","","","","","","","<p style='font-size: 30px;'><strong>Okay</strong></p>","null","neutral_feedback","1","test","24","","","","","","","",""
"","","","","","","","","","","","html-button-response","253","2.0.0","807484","66e49dafbf9165764e7229ef","2","17","3227","","","","","","","","","<img src= ""rock_img/I_Gabbro_13.jpg"" style=""width:8cm; height:5.08cm;""><p>What type of rock is this?</p>","3","class_response","1","test","25","Gabbro","Gabbro","13","true","4","4","",""
"","","","","","","","","","","","html-keyboard-response","254","2.0.0","807984","66e49dafbf9165764e7229ef","2","17","null","","","","","","","","","<p style='font-size: 30px;'><strong>Okay</strong></p>","null","neutral_feedback","1","test","25","","","","","","","",""
"","","","","","","","","","","","html-button-response","255","2.0.0","809318","66e49dafbf9165764e7229ef","2","17","1332","","","","","","","","","<img src= ""rock_img/I_Diorite_07.jpg"" style=""width:8cm; height:5.239999999999999cm;""><p>What type of rock is this?</p>","2","class_response","1","test","26","Diorite","Diorite","07","true","3","3","",""
"","","","","","","","","","","","html-keyboard-response","256","2.0.0","809819","66e49dafbf9165764e7229ef","2","17","null","","","","","","","","","<p style='font-size: 30px;'><strong>Okay</strong></p>","null","neutral_feedback","1","test","26","","","","","","","",""
"","","","","","","","","","","","html-button-response","257","2.0.0","812315","66e49dafbf9165764e7229ef","2","17","2495","","","","","","","","","<img src= ""rock_img/I_Basalt_05.jpg"" style=""width:8cm; height:8.18cm;""><p>What type of rock is this?</p>","1","class_response","1","test","27","Basalt","Basalt","05","true","2","2","",""
"","","","","","","","","","","","html-keyboard-response","258","2.0.0","812816","66e49dafbf9165764e7229ef","2","17","null","","","","","","","","","<p style='font-size: 30px;'><strong>Okay</strong></p>","null","neutral_feedback","1","test","27","","","","","","","",""
"","","","","","","","","","","","html-button-response","259","2.0.0","817837","66e49dafbf9165764e7229ef","2","17","5021","","","","","","","","","<img src= ""rock_img/I_Diorite_02.jpg"" style=""width:8cm; height:6.27cm;""><p>What type of rock is this?</p>","2","class_response","1","test","28","Diorite","Diorite","02","true","3","3","",""
"","","","","","","","","","","","html-keyboard-response","260","2.0.0","818338","66e49dafbf9165764e7229ef","2","17","null","","","","","","","","","<p style='font-size: 30px;'><strong>Okay</strong></p>","null","neutral_feedback","1","test","28","","","","","","","",""
"","","","","","","","","","","","html-button-response","261","2.0.0","820450","66e49dafbf9165764e7229ef","2","17","2110","","","","","","","","","<img src= ""rock_img/I_Andesite_03.jpg"" style=""width:8cm; height:5.73cm;""><p>What type of rock is this?</p>","0","class_response","1","test","29","Andesite","Andesite","03","true","1","1","",""
"","","","","","","","","","","","html-keyboard-response","262","2.0.0","820950","66e49dafbf9165764e7229ef","2","17","null","","","","","","","","","<p style='font-size: 30px;'><strong>Okay</strong></p>","null","neutral_feedback","1","test","29","","","","","","","",""
"","","","","","","","","","","","html-button-response","263","2.0.0","822877","66e49dafbf9165764e7229ef","2","17","1925","","","","","","","","","<img src= ""rock_img/I_Pegmatite_09.jpg"" style=""width:8cm; height:4.03cm;""><p>What type of rock is this?</p>","6","class_response","1","test","30","Peridotite","Pegmatite","09","false","7","6","",""
"","","","","","","","","","","","html-keyboard-response","264","2.0.0","823377","66e49dafbf9165764e7229ef","2","17","null","","","","","","","","","<p style='font-size: 30px;'><strong>Okay</strong></p>","null","neutral_feedback","1","test","30","","","","","","","",""
"","","","","","","","","","","","html-button-response","265","2.0.0","825590","66e49dafbf9165764e7229ef","2","17","2211","","","","","","","","","<img src= ""rock_img/I_Andesite_07.jpg"" style=""width:8cm; height:5.93cm;""><p>What type of rock is this?</p>","3","class_response","1","test","31","Gabbro","Andesite","07","false","4","1","",""
"","","","","","","","","","","","html-keyboard-response","266","2.0.0","826090","66e49dafbf9165764e7229ef","2","17","null","","","","","","","","","<p style='font-size: 30px;'><strong>Okay</strong></p>","null","neutral_feedback","1","test","31","","","","","","","",""
"","","","","","","","","","","","html-button-response","267","2.0.0","827253","66e49dafbf9165764e7229ef","2","17","1161","","","","","","","","","<img src= ""rock_img/I_Pumice_15.jpg"" style=""width:8cm; height:7.86cm;""><p>What type of rock is this?</p>","7","class_response","1","test","32","Pumice","Pumice","15","true","8","8","",""
"","","","","","","","","","","","html-keyboard-response","268","2.0.0","827754","66e49dafbf9165764e7229ef","2","17","null","","","","","","","","","<p style='font-size: 30px;'><strong>Okay</strong></p>","null","neutral_feedback","1","test","32","","","","","","","",""
"","","","","","","","","","","","html-button-response","269","2.0.0","831109","66e49dafbf9165764e7229ef","2","17","3354","","","","","","","","","<img src= ""rock_img/I_Basalt_14.jpg"" style=""width:8cm; height:5.82cm;""><p>What type of rock is this?</p>","3","class_response","1","test","33","Gabbro","Basalt","14","false","4","2","",""
"","","","","","","","","","","","html-keyboard-response","270","2.0.0","831610","66e49dafbf9165764e7229ef","2","17","null","","","","","","","","","<p style='font-size: 30px;'><strong>Okay</strong></p>","null","neutral_feedback","1","test","33","","","","","","","",""
"","","","","","","","","","","","html-button-response","271","2.0.0","833039","66e49dafbf9165764e7229ef","2","17","1428","","","","","","","","","<img src= ""rock_img/I_Obsidian_09.jpg"" style=""width:8cm; height:5cm;""><p>What type of rock is this?</p>","4","class_response","1","test","34","Obsidian","Obsidian","09","true","5","5","",""
"","","","","","","","","","","","html-keyboard-response","272","2.0.0","833540","66e49dafbf9165764e7229ef","2","17","null","","","","","","","","","<p style='font-size: 30px;'><strong>Okay</strong></p>","null","neutral_feedback","1","test","34","","","","","","","",""
"","","","","","","","","","","","html-button-response","273","2.0.0","835680","66e49dafbf9165764e7229ef","2","17","2139","","","","","","","","","<img src= ""rock_img/I_Andesite_10.jpg"" style=""width:8cm; height:4.16cm;""><p>What type of rock is this?</p>","1","class_response","1","test","35","Basalt","Andesite","10","false","2","1","",""
"","","","","","","","","","","","html-keyboard-response","274","2.0.0","836180","66e49dafbf9165764e7229ef","2","17","null","","","","","","","","","<p style='font-size: 30px;'><strong>Okay</strong></p>","null","neutral_feedback","1","test","35","","","","","","","",""
"","","","","","","","","","","","html-button-response","275","2.0.0","837915","66e49dafbf9165764e7229ef","2","17","1734","","","","","","","","","<img src= ""rock_img/I_Gabbro_15.jpg"" style=""width:8cm; height:6.29cm;""><p>What type of rock is this?</p>","3","class_response","1","test","36","Gabbro","Gabbro","15","true","4","4","",""
"","","","","","","","","","","","html-keyboard-response","276","2.0.0","838416","66e49dafbf9165764e7229ef","2","17","null","","","","","","","","","<p style='font-size: 30px;'><strong>Okay</strong></p>","null","neutral_feedback","1","test","36","","","","","","","",""
"","","","","","","","","","","","html-button-response","277","2.0.0","846890","66e49dafbf9165764e7229ef","2","17","8473","","","","","","","","","<img src= ""rock_img/I_Basalt_12.jpg"" style=""width:8cm; height:6.010000000000001cm;""><p>What type of rock is this?</p>","0","class_response","1","test","37","Andesite","Basalt","12","false","1","2","",""
"","","","","","","","","","","","html-keyboard-response","278","2.0.0","847391","66e49dafbf9165764e7229ef","2","17","null","","","","","","","","","<p style='font-size: 30px;'><strong>Okay</strong></p>","null","neutral_feedback","1","test","37","","","","","","","",""
"","","","","","","","","","","","html-button-response","279","2.0.0","849927","66e49dafbf9165764e7229ef","2","17","2536","","","","","","","","","<img src= ""rock_img/I_Peridotite_04.jpg"" style=""width:8cm; height:6.680000000000001cm;""><p>What type of rock is this?</p>","6","class_response","1","test","38","Peridotite","Peridotite","04","true","7","7","",""
"","","","","","","","","","","","html-keyboard-response","280","2.0.0","850428","66e49dafbf9165764e7229ef","2","17","null","","","","","","","","","<p style='font-size: 30px;'><strong>Okay</strong></p>","null","neutral_feedback","1","test","38","","","","","","","",""
"","","","","","","","","","","","html-button-response","281","2.0.0","851840","66e49dafbf9165764e7229ef","2","17","1411","","","","","","","","","<img src= ""rock_img/I_Pumice_06.jpg"" style=""width:8cm; height:6.9399999999999995cm;""><p>What type of rock is this?</p>","7","class_response","1","test","39","Pumice","Pumice","06","true","8","8","",""
"","","","","","","","","","","","html-keyboard-response","282","2.0.0","852341","66e49dafbf9165764e7229ef","2","17","null","","","","","","","","","<p style='font-size: 30px;'><strong>Okay</strong></p>","null","neutral_feedback","1","test","39","","","","","","","",""
"","","","","","","","","","","","html-button-response","283","2.0.0","853890","66e49dafbf9165764e7229ef","2","17","1547","","","","","","","","","<img src= ""rock_img/I_Basalt_01.jpg"" style=""width:8cm; height:7.880000000000001cm;""><p>What type of rock is this?</p>","1","class_response","1","test","40","Basalt","Basalt","01","true","2","2","",""
"","","","","","","","","","","","html-keyboard-response","284","2.0.0","854390","66e49dafbf9165764e7229ef","2","17","null","","","","","","","","","<p style='font-size: 30px;'><strong>Okay</strong></p>","null","neutral_feedback","1","test","40","","","","","","","",""
"","","","","","","","","","","","html-button-response","285","2.0.0","856344","66e49dafbf9165764e7229ef","2","17","1952","","","","","","","","","<img src= ""rock_img/I_Pegmatite_12.jpg"" style=""width:8cm; height:5.7cm;""><p>What type of rock is this?</p>","5","class_response","1","test","41","Pegmatite","Pegmatite","12","true","6","6","",""
"","","","","","","","","","","","html-keyboard-response","286","2.0.0","856844","66e49dafbf9165764e7229ef","2","17","null","","","","","","","","","<p style='font-size: 30px;'><strong>Okay</strong></p>","null","neutral_feedback","1","test","41","","","","","","","",""
"","","","","","","","","","","","html-button-response","287","2.0.0","857959","66e49dafbf9165764e7229ef","2","17","1113","","","","","","","","","<img src= ""rock_img/I_Obsidian_12.jpg"" style=""width:8cm; height:6.53cm;""><p>What type of rock is this?</p>","4","class_response","1","test","42","Obsidian","Obsidian","12","true","5","5","",""
"","","","","","","","","","","","html-keyboard-response","288","2.0.0","858459","66e49dafbf9165764e7229ef","2","17","null","","","","","","","","","<p style='font-size: 30px;'><strong>Okay</strong></p>","null","neutral_feedback","1","test","42","","","","","","","",""
"","","","","","","","","","","","html-button-response","289","2.0.0","862261","66e49dafbf9165764e7229ef","2","17","3801","","","","","","","","","<img src= ""rock_img/I_Diorite_15.jpg"" style=""width:8cm; height:5.54cm;""><p>What type of rock is this?</p>","3","class_response","1","test","43","Gabbro","Diorite","15","false","4","3","",""
"","","","","","","","","","","","html-keyboard-response","290","2.0.0","862762","66e49dafbf9165764e7229ef","2","17","null","","","","","","","","","<p style='font-size: 30px;'><strong>Okay</strong></p>","null","neutral_feedback","1","test","43","","","","","","","",""
"","","","","","","","","","","","html-button-response","291","2.0.0","863993","66e49dafbf9165764e7229ef","2","17","1230","","","","","","","","","<img src= ""rock_img/I_Pegmatite_15.jpg"" style=""width:8cm; height:6cm;""><p>What type of rock is this?</p>","5","class_response","1","test","44","Pegmatite","Pegmatite","15","true","6","6","",""
"","","","","","","","","","","","html-keyboard-response","292","2.0.0","864494","66e49dafbf9165764e7229ef","2","17","null","","","","","","","","","<p style='font-size: 30px;'><strong>Okay</strong></p>","null","neutral_feedback","1","test","44","","","","","","","",""
"","","","","","","","","","","","html-button-response","293","2.0.0","866966","66e49dafbf9165764e7229ef","2","17","2471","","","","","","","","","<img src= ""rock_img/I_Diorite_13.jpg"" style=""width:8cm; height:6.29cm;""><p>What type of rock is this?</p>","2","class_response","1","test","45","Diorite","Diorite","13","true","3","3","",""
"","","","","","","","","","","","html-keyboard-response","294","2.0.0","867467","66e49dafbf9165764e7229ef","2","17","null","","","","","","","","","<p style='font-size: 30px;'><strong>Okay</strong></p>","null","neutral_feedback","1","test","45","","","","","","","",""
"","","","","","","","","","","","html-button-response","295","2.0.0","869398","66e49dafbf9165764e7229ef","2","17","1930","","","","","","","","","<img src= ""rock_img/I_Andesite_05.jpg"" style=""width:8cm; height:4.12cm;""><p>What type of rock is this?</p>","1","class_response","1","test","46","Basalt","Andesite","05","false","2","1","",""
"","","","","","","","","","","","html-keyboard-response","296","2.0.0","869899","66e49dafbf9165764e7229ef","2","17","null","","","","","","","","","<p style='font-size: 30px;'><strong>Okay</strong></p>","null","neutral_feedback","1","test","46","","","","","","","",""
"","","","","","","","","","","","html-button-response","297","2.0.0","878693","66e49dafbf9165764e7229ef","2","17","8793","","","","","","","","","<img src= ""rock_img/I_Andesite_14.jpg"" style=""width:8cm; height:5.449999999999999cm;""><p>What type of rock is this?</p>","0","class_response","1","test","47","Andesite","Andesite","14","true","1","1","",""
"","","","","","","","","","","","html-keyboard-response","298","2.0.0","879194","66e49dafbf9165764e7229ef","2","17","null","","","","","","","","","<p style='font-size: 30px;'><strong>Okay</strong></p>","null","neutral_feedback","1","test","47","","","","","","","",""
"","","","","","","","","","","","html-button-response","299","2.0.0","880355","66e49dafbf9165764e7229ef","2","17","1160","","","","","","","","","<img src= ""rock_img/I_Obsidian_10.jpg"" style=""width:8cm; height:6.260000000000001cm;""><p>What type of rock is this?</p>","4","class_response","1","test","48","Obsidian","Obsidian","10","true","5","5","",""
"","","","","","","","","","","","html-keyboard-response","300","2.0.0","880856","66e49dafbf9165764e7229ef","2","17","null","","","","","","","","","<p style='font-size: 30px;'><strong>Okay</strong></p>","null","neutral_feedback","1","test","48","","","","","","","",""
"","","","","","","","","","","","html-button-response","301","2.0.0","903202","66e49dafbf9165764e7229ef","2","17","","","","","","","","","","","","cycle_feedback","","","","","","","","","","9373.60000000149","12963.5"
"","","","","","","","","","","","html-button-response","303","2.0.0","904530","66e49dafbf9165764e7229ef","2","17","1326","","","","","","","","","","0","start_train","","","","","","","","","","",""
"","","","","","","","","","","","html-button-response","304","2.0.0","908118","66e49dafbf9165764e7229ef","2","17","3587","","","","","","","","","<img src= ""rock_img/I_Andesite_09.jpg"" style=""width:8cm; height:6cm;""><p>What type of rock is this?</p>","0","class_response","2","train","1","Andesite","Andesite","09","true","1","1","",""
