"width","height","webaudio","browser","browser_version","mobile","os","fullscreen","vsync_rate","webcam","microphone","trial_type","trial_index","plugin_version","time_elapsed","subjID","condition","stimID","rt","url","success","value","timeout","failed_images","failed_audio","failed_video","view_history","stimulus","response","trialType","cycle","phase","trial","resp","cat","token","corr","resp_num","cat_num","time_fb1","time_fb2"
"1366","599","true","chrome","131.0.0","false","Windows 10","true","59.94","true","true","browser-check","0","2.0.0","1042","670fd04ebdeb4aba9822fd3c","2","2","","","","","","","","","","","","","","","","","","","","","","",""
"","","","","","","","","","","","external-html","1","2.0.0","20286","670fd04ebdeb4aba9822fd3c","2","2","19125","consent_form.html","","","","","","","","","","","","","","","","","","","","",""
"","","","","","","","","","","","fullscreen","2","2.0.0","24267","670fd04ebdeb4aba9822fd3c","2","2","2962","","true","","","","","","","","","","","","","","","","","","","",""
"","","","","","","","","","","","call-function","3","2.0.0","24274","670fd04ebdeb4aba9822fd3c","2","2","","","","{}","","","","","","","","","","","","","","","","","","",""
"","","","","","","","","","","","preload","4","2.0.0","32272","670fd04ebdeb4aba9822fd3c","2","2","","","true","","false","[]","[]","[]","","","","","","","","","","","","","","",""
"","","","","","","","","","","","instructions","5","2.0.0","76425","670fd04ebdeb4aba9822fd3c","2","2","44148","","","","","","","","[{""page_index"":0,""viewing_time"":4468},{""page_index"":1,""viewing_time"":32196},{""page_index"":2,""viewing_time"":7483}]","","","","","","","","","","","","","",""
"","","","","","","","","","","","html-button-response","6","2.0.0","78161","670fd04ebdeb4aba9822fd3c","2","2","1728","","","","","","","","","","0","start_test","","","","","","","","","","",""
"","","","","","","","","","","","html-button-response","7","2.0.0","87498","670fd04ebdeb4aba9822fd3c","2","2","9329","","","","","","","","","<img src= ""rock_img/I_Gabbro_05.jpg"" style=""width:8cm; height:6cm;""><p>What type of rock is this?</p>","1","class_response","0","test","1","Basalt","Gabbro","05","false","2","4","",""
"","","","","","","","","","","","html-keyboard-response","8","2.0.0","88019","670fd04ebdeb4aba9822fd3c","2","2","null","","","","","","","","","<p style='font-size: 30px;'><strong>Okay</strong></p>","null","neutral_feedback","0","test","1","","","","","","","",""
"","","","","","","","","","","","html-button-response","9","2.0.0","92248","670fd04ebdeb4aba9822fd3c","2","2","4223","","","","","","","","","<img src= ""rock_img/I_Obsidian_02.jpg"" style=""width:8cm; height:7.51cm;""><p>What type of rock is this?</p>","4","class_response","0","test","2","Obsidian","Obsidian","02","true","5","5","",""
"","","","","","","","","","","","html-keyboard-response","10","2.0.0","92759","670fd04ebdeb4aba9822fd3c","2","2","null","","","","","","","","","<p style='font-size: 30px;'><strong>Okay</strong></p>","null","neutral_feedback","0","test","2","","","","","","","",""
"","","","","","","","","","","","html-button-response","11","2.0.0","108898","670fd04ebdeb4aba9822fd3c","2","2","16133","","","","","","","","","<img src= ""rock_img/I_Peridotite_13.jpg"" style=""width:8cm; height:7.58cm;""><p>What type of rock is this?</p>","3","class_response","0","test","3","Gabbro","Peridotite","13","false","4","7","",""
"","","","","","","","","","","","html-keyboard-response","12","2.0.0","109414","670fd04ebdeb4aba9822fd3c","2","2","null","","","","","","","","","<p style='font-size: 30px;'><strong>Okay</strong></p>","null","neutral_feedback","0","test","3","","","","","","","",""
"","","","","","","","","","","","html-button-response","13","2.0.0","117572","670fd04ebdeb4aba9822fd3c","2","2","8153","","","","","","","","","<img src= ""rock_img/I_Obsidian_06.jpg"" style=""width:8cm; height:6.8cm;""><p>What type of rock is this?</p>","4","class_response","0","test","4","Obsidian","Obsidian","06","true","5","5","",""
"","","","","","","","","","","","html-keyboard-response","14","2.0.0","118082","670fd04ebdeb4aba9822fd3c","2","2","null","","","","","","","","","<p style='font-size: 30px;'><strong>Okay</strong></p>","null","neutral_feedback","0","test","4","","","","","","","",""
"","","","","","","","","","","","html-button-response","15","2.0.0","123681","670fd04ebdeb4aba9822fd3c","2","2","5593","","","","","","","","","<img src= ""rock_img/I_Pegmatite_13.jpg"" style=""width:8cm; height:4.95cm;""><p>What type of rock is this?</p>","6","class_response","0","test","5","Peridotite","Pegmatite","13","false","7","6","",""
"","","","","","","","","","","","html-keyboard-response","16","2.0.0","124199","670fd04ebdeb4aba9822fd3c","2","2","null","","","","","","","","","<p style='font-size: 30px;'><strong>Okay</strong></p>","null","neutral_feedback","0","test","5","","","","","","","",""
"","","","","","","","","","","","html-button-response","17","2.0.0","128871","670fd04ebdeb4aba9822fd3c","2","2","4667","","","","","","","","","<img src= ""rock_img/I_Peridotite_15.jpg"" style=""width:8cm; height:6cm;""><p>What type of rock is this?</p>","0","class_response","0","test","6","Andesite","Peridotite","15","false","1","7","",""
"","","","","","","","","","","","html-keyboard-response","18","2.0.0","129374","670fd04ebdeb4aba9822fd3c","2","2","null","","","","","","","","","<p style='font-size: 30px;'><strong>Okay</strong></p>","null","neutral_feedback","0","test","6","","","","","","","",""
"","","","","","","","","","","","html-button-response","19","2.0.0","135297","670fd04ebdeb4aba9822fd3c","2","2","5917","","","","","","","","","<img src= ""rock_img/I_Pumice_06.jpg"" style=""width:8cm; height:6.9399999999999995cm;""><p>What type of rock is this?</p>","5","class_response","0","test","7","Pegmatite","Pumice","06","false","6","8","",""
"","","","","","","","","","","","html-keyboard-response","20","2.0.0","135803","670fd04ebdeb4aba9822fd3c","2","2","null","","","","","","","","","<p style='font-size: 30px;'><strong>Okay</strong></p>","null","neutral_feedback","0","test","7","","","","","","","",""
"","","","","","","","","","","","html-button-response","21","2.0.0","138030","670fd04ebdeb4aba9822fd3c","2","2","2221","","","","","","","","","<img src= ""rock_img/I_Andesite_02.jpg"" style=""width:8cm; height:8.5cm;""><p>What type of rock is this?</p>","2","class_response","0","test","8","Diorite","Andesite","02","false","3","1","",""
"","","","","","","","","","","","html-keyboard-response","22","2.0.0","138539","670fd04ebdeb4aba9822fd3c","2","2","null","","","","","","","","","<p style='font-size: 30px;'><strong>Okay</strong></p>","null","neutral_feedback","0","test","8","","","","","","","",""
"","","","","","","","","","","","html-button-response","23","2.0.0","140613","670fd04ebdeb4aba9822fd3c","2","2","2069","","","","","","","","","<img src= ""rock_img/I_Obsidian_05.jpg"" style=""width:8cm; height:6.33cm;""><p>What type of rock is this?</p>","4","class_response","0","test","9","Obsidian","Obsidian","05","true","5","5","",""
"","","","","","","","","","","","html-keyboard-response","24","2.0.0","141121","670fd04ebdeb4aba9822fd3c","2","2","null","","","","","","","","","<p style='font-size: 30px;'><strong>Okay</strong></p>","null","neutral_feedback","0","test","9","","","","","","","",""
"","","","","","","","","","","","html-button-response","25","2.0.0","146245","670fd04ebdeb4aba9822fd3c","2","2","5119","","","","","","","","","<img src= ""rock_img/I_Pegmatite_15.jpg"" style=""width:8cm; height:6cm;""><p>What type of rock is this?</p>","4","class_response","0","test","10","Obsidian","Pegmatite","15","false","5","6","",""
"","","","","","","","","","","","html-keyboard-response","26","2.0.0","146762","670fd04ebdeb4aba9822fd3c","2","2","null","","","","","","","","","<p style='font-size: 30px;'><strong>Okay</strong></p>","null","neutral_feedback","0","test","10","","","","","","","",""
"","","","","","","","","","","","html-button-response","27","2.0.0","150429","670fd04ebdeb4aba9822fd3c","2","2","3661","","","","","","","","","<img src= ""rock_img/I_Andesite_10.jpg"" style=""width:8cm; height:4.16cm;""><p>What type of rock is this?</p>","7","class_response","0","test","11","Pumice","Andesite","10","false","8","1","",""
"","","","","","","","","","","","html-keyboard-response","28","2.0.0","150936","670fd04ebdeb4aba9822fd3c","2","2","null","","","","","","","","","<p style='font-size: 30px;'><strong>Okay</strong></p>","null","neutral_feedback","0","test","11","","","","","","","",""
"","","","","","","","","","","","html-button-response","29","2.0.0","153413","670fd04ebdeb4aba9822fd3c","2","2","2472","","","","","","","","","<img src= ""rock_img/I_Pumice_04.jpg"" style=""width:8cm; height:6.819999999999999cm;""><p>What type of rock is this?</p>","7","class_response","0","test","12","Pumice","Pumice","04","true","8","8","",""
"","","","","","","","","","","","html-keyboard-response","30","2.0.0","153923","670fd04ebdeb4aba9822fd3c","2","2","null","","","","","","","","","<p style='font-size: 30px;'><strong>Okay</strong></p>","null","neutral_feedback","0","test","12","","","","","","","",""
"","","","","","","","","","","","html-button-response","31","2.0.0","163244","670fd04ebdeb4aba9822fd3c","2","2","9316","","","","","","","","","<img src= ""rock_img/I_Peridotite_07.jpg"" style=""width:8cm; height:4.83cm;""><p>What type of rock is this?</p>","2","class_response","0","test","13","Diorite","Peridotite","07","false","3","7","",""
"","","","","","","","","","","","html-keyboard-response","32","2.0.0","163748","670fd04ebdeb4aba9822fd3c","2","2","null","","","","","","","","","<p style='font-size: 30px;'><strong>Okay</strong></p>","null","neutral_feedback","0","test","13","","","","","","","",""
"","","","","","","","","","","","html-button-response","33","2.0.0","166245","670fd04ebdeb4aba9822fd3c","2","2","2492","","","","","","","","","<img src= ""rock_img/I_Obsidian_04.jpg"" style=""width:8cm; height:6.930000000000001cm;""><p>What type of rock is this?</p>","4","class_response","0","test","14","Obsidian","Obsidian","04","true","5","5","",""
"","","","","","","","","","","","html-keyboard-response","34","2.0.0","166763","670fd04ebdeb4aba9822fd3c","2","2","null","","","","","","","","","<p style='font-size: 30px;'><strong>Okay</strong></p>","null","neutral_feedback","0","test","14","","","","","","","",""
"","","","","","","","","","","","html-button-response","35","2.0.0","169880","670fd04ebdeb4aba9822fd3c","2","2","3114","","","","","","","","","<img src= ""rock_img/I_Gabbro_03.jpg"" style=""width:8cm; height:8.52cm;""><p>What type of rock is this?</p>","7","class_response","0","test","15","Pumice","Gabbro","03","false","8","4","",""
"","","","","","","","","","","","html-keyboard-response","36","2.0.0","170397","670fd04ebdeb4aba9822fd3c","2","2","null","","","","","","","","","<p style='font-size: 30px;'><strong>Okay</strong></p>","null","neutral_feedback","0","test","15","","","","","","","",""
"","","","","","","","","","","","html-button-response","37","2.0.0","172430","670fd04ebdeb4aba9822fd3c","2","2","2028","","","","","","","","","<img src= ""rock_img/I_Pegmatite_09.jpg"" style=""width:8cm; height:4.03cm;""><p>What type of rock is this?</p>","4","class_response","0","test","16","Obsidian","Pegmatite","09","false","5","6","",""
"","","","","","","","","","","","html-keyboard-response","38","2.0.0","172945","670fd04ebdeb4aba9822fd3c","2","2","null","","","","","","","","","<p style='font-size: 30px;'><strong>Okay</strong></p>","null","neutral_feedback","0","test","16","","","","","","","",""
"","","","","","","","","","","","html-button-response","39","2.0.0","179760","670fd04ebdeb4aba9822fd3c","2","2","6812","","","","","","","","","<img src= ""rock_img/I_Basalt_16.jpg"" style=""width:8cm; height:7.659999999999999cm;""><p>What type of rock is this?</p>","1","class_response","0","test","17","Basalt","Basalt","16","true","2","2","",""
"","","","","","","","","","","","html-keyboard-response","40","2.0.0","180270","670fd04ebdeb4aba9822fd3c","2","2","null","","","","","","","","","<p style='font-size: 30px;'><strong>Okay</strong></p>","null","neutral_feedback","0","test","17","","","","","","","",""
"","","","","","","","","","","","html-button-response","41","2.0.0","184611","670fd04ebdeb4aba9822fd3c","2","2","4335","","","","","","","","","<img src= ""rock_img/I_Pegmatite_08.jpg"" style=""width:8cm; height:7.68cm;""><p>What type of rock is this?</p>","4","class_response","0","test","18","Obsidian","Pegmatite","08","false","5","6","",""
"","","","","","","","","","","","html-keyboard-response","42","2.0.0","185120","670fd04ebdeb4aba9822fd3c","2","2","null","","","","","","","","","<p style='font-size: 30px;'><strong>Okay</strong></p>","null","neutral_feedback","0","test","18","","","","","","","",""
"","","","","","","","","","","","html-button-response","43","2.0.0","189091","670fd04ebdeb4aba9822fd3c","2","2","3967","","","","","","","","","<img src= ""rock_img/I_Gabbro_16.jpg"" style=""width:8cm; height:6.44cm;""><p>What type of rock is this?</p>","0","class_response","0","test","19","Andesite","Gabbro","16","false","1","4","",""
"","","","","","","","","","","","html-keyboard-response","44","2.0.0","189604","670fd04ebdeb4aba9822fd3c","2","2","null","","","","","","","","","<p style='font-size: 30px;'><strong>Okay</strong></p>","null","neutral_feedback","0","test","19","","","","","","","",""
"","","","","","","","","","","","html-button-response","45","2.0.0","200073","670fd04ebdeb4aba9822fd3c","2","2","10464","","","","","","","","","<img src= ""rock_img/I_Pumice_02.jpg"" style=""width:8cm; height:7.3999999999999995cm;""><p>What type of rock is this?</p>","5","class_response","0","test","20","Pegmatite","Pumice","02","false","6","8","",""
"","","","","","","","","","","","html-keyboard-response","46","2.0.0","200579","670fd04ebdeb4aba9822fd3c","2","2","null","","","","","","","","","<p style='font-size: 30px;'><strong>Okay</strong></p>","null","neutral_feedback","0","test","20","","","","","","","",""
"","","","","","","","","","","","html-button-response","47","2.0.0","203544","670fd04ebdeb4aba9822fd3c","2","2","2959","","","","","","","","","<img src= ""rock_img/I_Gabbro_14.jpg"" style=""width:8cm; height:8.48cm;""><p>What type of rock is this?</p>","7","class_response","0","test","21","Pumice","Gabbro","14","false","8","4","",""
"","","","","","","","","","","","html-keyboard-response","48","2.0.0","204053","670fd04ebdeb4aba9822fd3c","2","2","null","","","","","","","","","<p style='font-size: 30px;'><strong>Okay</strong></p>","null","neutral_feedback","0","test","21","","","","","","","",""
"","","","","","","","","","","","html-button-response","49","2.0.0","206009","670fd04ebdeb4aba9822fd3c","2","2","1951","","","","","","","","","<img src= ""rock_img/I_Peridotite_02.jpg"" style=""width:8cm; height:5.859999999999999cm;""><p>What type of rock is this?</p>","2","class_response","0","test","22","Diorite","Peridotite","02","false","3","7","",""
"","","","","","","","","","","","html-keyboard-response","50","2.0.0","206512","670fd04ebdeb4aba9822fd3c","2","2","null","","","","","","","","","<p style='font-size: 30px;'><strong>Okay</strong></p>","null","neutral_feedback","0","test","22","","","","","","","",""
"","","","","","","","","","","","html-button-response","51","2.0.0","208081","670fd04ebdeb4aba9822fd3c","2","2","1563","","","","","","","","","<img src= ""rock_img/I_Obsidian_10.jpg"" style=""width:8cm; height:6.260000000000001cm;""><p>What type of rock is this?</p>","4","class_response","0","test","23","Obsidian","Obsidian","10","true","5","5","",""
"","","","","","","","","","","","html-keyboard-response","52","2.0.0","208597","670fd04ebdeb4aba9822fd3c","2","2","null","","","","","","","","","<p style='font-size: 30px;'><strong>Okay</strong></p>","null","neutral_feedback","0","test","23","","","","","","","",""
"","","","","","","","","","","","html-button-response","53","2.0.0","216009","670fd04ebdeb4aba9822fd3c","2","2","7407","","","","","","","","","<img src= ""rock_img/I_Andesite_01.jpg"" style=""width:8cm; height:5.87cm;""><p>What type of rock is this?</p>","0","class_response","0","test","24","Andesite","Andesite","01","true","1","1","",""
"","","","","","","","","","","","html-keyboard-response","54","2.0.0","216516","670fd04ebdeb4aba9822fd3c","2","2","null","","","","","","","","","<p style='font-size: 30px;'><strong>Okay</strong></p>","null","neutral_feedback","0","test","24","","","","","","","",""
"","","","","","","","","","","","html-button-response","55","2.0.0","219259","670fd04ebdeb4aba9822fd3c","2","2","2738","","","","","","","","","<img src= ""rock_img/I_Andesite_06.jpg"" style=""width:8cm; height:6.840000000000001cm;""><p>What type of rock is this?</p>","6","class_response","0","test","25","Peridotite","Andesite","06","false","7","1","",""
"","","","","","","","","","","","html-keyboard-response","56","2.0.0","219769","670fd04ebdeb4aba9822fd3c","2","2","null","","","","","","","","","<p style='font-size: 30px;'><strong>Okay</strong></p>","null","neutral_feedback","0","test","25","","","","","","","",""
"","","","","","","","","","","","html-button-response","57","2.0.0","221719","670fd04ebdeb4aba9822fd3c","2","2","1946","","","","","","","","","<img src= ""rock_img/I_Basalt_08.jpg"" style=""width:8cm; height:10.44cm;""><p>What type of rock is this?</p>","4","class_response","0","test","26","Obsidian","Basalt","08","false","5","2","",""
"","","","","","","","","","","","html-keyboard-response","58","2.0.0","222236","670fd04ebdeb4aba9822fd3c","2","2","null","","","","","","","","","<p style='font-size: 30px;'><strong>Okay</strong></p>","null","neutral_feedback","0","test","26","","","","","","","",""
"","","","","","","","","","","","html-button-response","59","2.0.0","224891","670fd04ebdeb4aba9822fd3c","2","2","2651","","","","","","","","","<img src= ""rock_img/I_Obsidian_07.jpg"" style=""width:8cm; height:4.76cm;""><p>What type of rock is this?</p>","4","class_response","0","test","27","Obsidian","Obsidian","07","true","5","5","",""
"","","","","","","","","","","","html-keyboard-response","60","2.0.0","225395","670fd04ebdeb4aba9822fd3c","2","2","null","","","","","","","","","<p style='font-size: 30px;'><strong>Okay</strong></p>","null","neutral_feedback","0","test","27","","","","","","","",""
"","","","","","","","","","","","html-button-response","61","2.0.0","228178","670fd04ebdeb4aba9822fd3c","2","2","2778","","","","","","","","","<img src= ""rock_img/I_Diorite_06.jpg"" style=""width:8cm; height:6.03cm;""><p>What type of rock is this?</p>","0","class_response","0","test","28","Andesite","Diorite","06","false","1","3","",""
"","","","","","","","","","","","html-keyboard-response","62","2.0.0","228695","670fd04ebdeb4aba9822fd3c","2","2","null","","","","","","","","","<p style='font-size: 30px;'><strong>Okay</strong></p>","null","neutral_feedback","0","test","28","","","","","","","",""
"","","","","","","","","","","","html-button-response","63","2.0.0","231323","670fd04ebdeb4aba9822fd3c","2","2","2623","","","","","","","","","<img src= ""rock_img/I_Diorite_12.jpg"" style=""width:8cm; height:4.88cm;""><p>What type of rock is this?</p>","3","class_response","0","test","29","Gabbro","Diorite","12","false","4","3","",""
"","","","","","","","","","","","html-keyboard-response","64","2.0.0","231834","670fd04ebdeb4aba9822fd3c","2","2","null","","","","","","","","","<p style='font-size: 30px;'><strong>Okay</strong></p>","null","neutral_feedback","0","test","29","","","","","","","",""
"","","","","","","","","","","","html-button-response","65","2.0.0","234844","670fd04ebdeb4aba9822fd3c","2","2","3005","","","","","","","","","<img src= ""rock_img/I_Pumice_16.jpg"" style=""width:8cm; height:6.79cm;""><p>What type of rock is this?</p>","6","class_response","0","test","30","Peridotite","Pumice","16","false","7","8","",""
"","","","","","","","","","","","html-keyboard-response","66","2.0.0","235353","670fd04ebdeb4aba9822fd3c","2","2","null","","","","","","","","","<p style='font-size: 30px;'><strong>Okay</strong></p>","null","neutral_feedback","0","test","30","","","","","","","",""
"","","","","","","","","","","","html-button-response","67","2.0.0","238611","670fd04ebdeb4aba9822fd3c","2","2","3253","","","","","","","","","<img src= ""rock_img/I_Basalt_10.jpg"" style=""width:8cm; height:5.85cm;""><p>What type of rock is this?</p>","4","class_response","0","test","31","Obsidian","Basalt","10","false","5","2","",""
"","","","","","","","","","","","html-keyboard-response","68","2.0.0","239126","670fd04ebdeb4aba9822fd3c","2","2","null","","","","","","","","","<p style='font-size: 30px;'><strong>Okay</strong></p>","null","neutral_feedback","0","test","31","","","","","","","",""
"","","","","","","","","","","","html-button-response","69","2.0.0","241762","670fd04ebdeb4aba9822fd3c","2","2","2631","","","","","","","","","<img src= ""rock_img/I_Diorite_09.jpg"" style=""width:8cm; height:5.27cm;""><p>What type of rock is this?</p>","5","class_response","0","test","32","Pegmatite","Diorite","09","false","6","3","",""
"","","","","","","","","","","","html-keyboard-response","70","2.0.0","242277","670fd04ebdeb4aba9822fd3c","2","2","null","","","","","","","","","<p style='font-size: 30px;'><strong>Okay</strong></p>","null","neutral_feedback","0","test","32","","","","","","","",""
"","","","","","","","","","","","html-button-response","71","2.0.0","245820","670fd04ebdeb4aba9822fd3c","2","2","3539","","","","","","","","","<img src= ""rock_img/I_Andesite_03.jpg"" style=""width:8cm; height:5.73cm;""><p>What type of rock is this?</p>","0","class_response","0","test","33","Andesite","Andesite","03","true","1","1","",""
"","","","","","","","","","","","html-keyboard-response","72","2.0.0","246325","670fd04ebdeb4aba9822fd3c","2","2","null","","","","","","","","","<p style='font-size: 30px;'><strong>Okay</strong></p>","null","neutral_feedback","0","test","33","","","","","","","",""
"","","","","","","","","","","","html-button-response","73","2.0.0","248577","670fd04ebdeb4aba9822fd3c","2","2","2246","","","","","","","","","<img src= ""rock_img/I_Gabbro_08.jpg"" style=""width:8cm; height:5.15cm;""><p>What type of rock is this?</p>","7","class_response","0","test","34","Pumice","Gabbro","08","false","8","4","",""
"","","","","","","","","","","","html-keyboard-response","74","2.0.0","249092","670fd04ebdeb4aba9822fd3c","2","2","null","","","","","","","","","<p style='font-size: 30px;'><strong>Okay</strong></p>","null","neutral_feedback","0","test","34","","","","","","","",""
"","","","","","","","","","","","html-button-response","75","2.0.0","250825","670fd04ebdeb4aba9822fd3c","2","2","1729","","","","","","","","","<img src= ""rock_img/I_Diorite_02.jpg"" style=""width:8cm; height:6.27cm;""><p>What type of rock is this?</p>","2","class_response","0","test","35","Diorite","Diorite","02","true","3","3","",""
"","","","","","","","","","","","html-keyboard-response","76","2.0.0","251342","670fd04ebdeb4aba9822fd3c","2","2","null","","","","","","","","","<p style='font-size: 30px;'><strong>Okay</strong></p>","null","neutral_feedback","0","test","35","","","","","","","",""
"","","","","","","","","","","","html-button-response","77","2.0.0","253201","670fd04ebdeb4aba9822fd3c","2","2","1853","","","","","","","","","<img src= ""rock_img/I_Basalt_02.jpg"" style=""width:8cm; height:6.45cm;""><p>What type of rock is this?</p>","4","class_response","0","test","36","Obsidian","Basalt","02","false","5","2","",""
"","","","","","","","","","","","html-keyboard-response","78","2.0.0","253709","670fd04ebdeb4aba9822fd3c","2","2","null","","","","","","","","","<p style='font-size: 30px;'><strong>Okay</strong></p>","null","neutral_feedback","0","test","36","","","","","","","",""
"","","","","","","","","","","","html-button-response","79","2.0.0","257177","670fd04ebdeb4aba9822fd3c","2","2","3462","","","","","","","","","<img src= ""rock_img/I_Andesite_05.jpg"" style=""width:8cm; height:4.12cm;""><p>What type of rock is this?</p>","7","class_response","0","test","37","Pumice","Andesite","05","false","8","1","",""
"","","","","","","","","","","","html-keyboard-response","80","2.0.0","257686","670fd04ebdeb4aba9822fd3c","2","2","null","","","","","","","","","<p style='font-size: 30px;'><strong>Okay</strong></p>","null","neutral_feedback","0","test","37","","","","","","","",""
"","","","","","","","","","","","html-button-response","81","2.0.0","259370","670fd04ebdeb4aba9822fd3c","2","2","1679","","","","","","","","","<img src= ""rock_img/I_Basalt_06.jpg"" style=""width:8cm; height:7.06cm;""><p>What type of rock is this?</p>","4","class_response","0","test","38","Obsidian","Basalt","06","false","5","2","",""
"","","","","","","","","","","","html-keyboard-response","82","2.0.0","259884","670fd04ebdeb4aba9822fd3c","2","2","null","","","","","","","","","<p style='font-size: 30px;'><strong>Okay</strong></p>","null","neutral_feedback","0","test","38","","","","","","","",""
"","","","","","","","","","","","html-button-response","83","2.0.0","260905","670fd04ebdeb4aba9822fd3c","2","2","1016","","","","","","","","","<img src= ""rock_img/I_Gabbro_09.jpg"" style=""width:8cm; height:7.279999999999999cm;""><p>What type of rock is this?</p>","4","class_response","0","test","39","Obsidian","Gabbro","09","false","5","4","",""
"","","","","","","","","","","","html-keyboard-response","84","2.0.0","261416","670fd04ebdeb4aba9822fd3c","2","2","null","","","","","","","","","<p style='font-size: 30px;'><strong>Okay</strong></p>","null","neutral_feedback","0","test","39","","","","","","","",""
"","","","","","","","","","","","html-button-response","85","2.0.0","265541","670fd04ebdeb4aba9822fd3c","2","2","4120","","","","","","","","","<img src= ""rock_img/I_Diorite_11.jpg"" style=""width:8cm; height:7.11cm;""><p>What type of rock is this?</p>","3","class_response","0","test","40","Gabbro","Diorite","11","false","4","3","",""
"","","","","","","","","","","","html-keyboard-response","86","2.0.0","266059","670fd04ebdeb4aba9822fd3c","2","2","null","","","","","","","","","<p style='font-size: 30px;'><strong>Okay</strong></p>","null","neutral_feedback","0","test","40","","","","","","","",""
"","","","","","","","","","","","html-button-response","87","2.0.0","270657","670fd04ebdeb4aba9822fd3c","2","2","4593","","","","","","","","","<img src= ""rock_img/I_Pegmatite_07.jpg"" style=""width:8cm; height:6.7cm;""><p>What type of rock is this?</p>","4","class_response","0","test","41","Obsidian","Pegmatite","07","false","5","6","",""
"","","","","","","","","","","","html-keyboard-response","88","2.0.0","271165","670fd04ebdeb4aba9822fd3c","2","2","null","","","","","","","","","<p style='font-size: 30px;'><strong>Okay</strong></p>","null","neutral_feedback","0","test","41","","","","","","","",""
"","","","","","","","","","","","html-button-response","89","2.0.0","272255","670fd04ebdeb4aba9822fd3c","2","2","1085","","","","","","","","","<img src= ""rock_img/I_Peridotite_16.jpg"" style=""width:8cm; height:6.989999999999999cm;""><p>What type of rock is this?</p>","4","class_response","0","test","42","Obsidian","Peridotite","16","false","5","7","",""
"","","","","","","","","","","","html-keyboard-response","90","2.0.0","272763","670fd04ebdeb4aba9822fd3c","2","2","null","","","","","","","","","<p style='font-size: 30px;'><strong>Okay</strong></p>","null","neutral_feedback","0","test","42","","","","","","","",""
"","","","","","","","","","","","html-button-response","91","2.0.0","276255","670fd04ebdeb4aba9822fd3c","2","2","3487","","","","","","","","","<img src= ""rock_img/I_Basalt_11.jpg"" style=""width:8cm; height:5.359999999999999cm;""><p>What type of rock is this?</p>","6","class_response","0","test","43","Peridotite","Basalt","11","false","7","2","",""
"","","","","","","","","","","","html-keyboard-response","92","2.0.0","276773","670fd04ebdeb4aba9822fd3c","2","2","null","","","","","","","","","<p style='font-size: 30px;'><strong>Okay</strong></p>","null","neutral_feedback","0","test","43","","","","","","","",""
"","","","","","","","","","","","html-button-response","93","2.0.0","279523","670fd04ebdeb4aba9822fd3c","2","2","2746","","","","","","","","","<img src= ""rock_img/I_Peridotite_12.jpg"" style=""width:8cm; height:4.54cm;""><p>What type of rock is this?</p>","0","class_response","0","test","44","Andesite","Peridotite","12","false","1","7","",""
"","","","","","","","","","","","html-keyboard-response","94","2.0.0","280041","670fd04ebdeb4aba9822fd3c","2","2","null","","","","","","","","","<p style='font-size: 30px;'><strong>Okay</strong></p>","null","neutral_feedback","0","test","44","","","","","","","",""
"","","","","","","","","","","","html-button-response","95","2.0.0","286806","670fd04ebdeb4aba9822fd3c","2","2","6760","","","","","","","","","<img src= ""rock_img/I_Pumice_14.jpg"" style=""width:8cm; height:6.39cm;""><p>What type of rock is this?</p>","6","class_response","0","test","45","Peridotite","Pumice","14","false","7","8","",""
"","","","","","","","","","","","html-keyboard-response","96","2.0.0","287318","670fd04ebdeb4aba9822fd3c","2","2","null","","","","","","","","","<p style='font-size: 30px;'><strong>Okay</strong></p>","null","neutral_feedback","0","test","45","","","","","","","",""
"","","","","","","","","","","","html-button-response","97","2.0.0","291918","670fd04ebdeb4aba9822fd3c","2","2","4597","","","","","","","","","<img src= ""rock_img/I_Pegmatite_16.jpg"" style=""width:8cm; height:5.8cm;""><p>What type of rock is this?</p>","1","class_response","0","test","46","Basalt","Pegmatite","16","false","2","6","",""
"","","","","","","","","","","","html-keyboard-response","98","2.0.0","292423","670fd04ebdeb4aba9822fd3c","2","2","null","","","","","","","","","<p style='font-size: 30px;'><strong>Okay</strong></p>","null","neutral_feedback","0","test","46","","","","","","","",""
"","","","","","","","","","","","html-button-response","99","2.0.0","295457","670fd04ebdeb4aba9822fd3c","2","2","3030","","","","","","","","","<img src= ""rock_img/I_Pumice_13.jpg"" style=""width:8cm; height:8.200000000000001cm;""><p>What type of rock is this?</p>","0","class_response","0","test","47","Andesite","Pumice","13","false","1","8","",""
"","","","","","","","","","","","html-keyboard-response","100","2.0.0","295974","670fd04ebdeb4aba9822fd3c","2","2","null","","","","","","","","","<p style='font-size: 30px;'><strong>Okay</strong></p>","null","neutral_feedback","0","test","47","","","","","","","",""
"","","","","","","","","","","","html-button-response","101","2.0.0","300008","670fd04ebdeb4aba9822fd3c","2","2","4029","","","","","","","","","<img src= ""rock_img/I_Diorite_15.jpg"" style=""width:8cm; height:5.54cm;""><p>What type of rock is this?</p>","3","class_response","0","test","48","Gabbro","Diorite","15","false","4","3","",""
"","","","","","","","","","","","html-keyboard-response","102","2.0.0","300514","670fd04ebdeb4aba9822fd3c","2","2","null","","","","","","","","","<p style='font-size: 30px;'><strong>Okay</strong></p>","null","neutral_feedback","0","test","48","","","","","","","",""
"","","","","","","","","","","","instructions","103","2.0.0","324213","670fd04ebdeb4aba9822fd3c","2","2","23663","","","","","","","","[{""page_index"":0,""viewing_time"":13793},{""page_index"":1,""viewing_time"":5675},{""page_index"":2,""viewing_time"":4195}]","","","","","","","","","","","","","",""
"","","","","","","","","","","","html-button-response","104","2.0.0","327420","670fd04ebdeb4aba9822fd3c","2","2","3202","","","","","","","","","","0","start_train","","","","","","","","","","",""
"","","","","","","","","","","","html-button-response","105","2.0.0","330421","670fd04ebdeb4aba9822fd3c","2","2","2994","","","","","","","","","<img src= ""rock_img/I_Diorite_08.jpg"" style=""width:8cm; height:6.37cm;""><p>What type of rock is this?</p>","2","class_response","1","train","1","Diorite","Diorite","08","true","3","3","",""
"","","","","","","","","","","","html-button-response","106","2.0.0","335980","670fd04ebdeb4aba9822fd3c","2","2","5552","","","","","","","","","<img src= rock_img/I_Diorite_08.jpg style=""width:8cm; height:6.37cm;""><p style='font-size: 30px; color: green;'><strong>Correct!</strong></p><p style='font-size: 30px;'><strong>This rock is diorite</strong></p>","0","corr_feedback","1","train","1","","","","","","","",""
"","","","","","","","","","","","html-button-response","107","2.0.0","338879","670fd04ebdeb4aba9822fd3c","2","2","2893","","","","","","","","","<img src= ""rock_img/I_Pegmatite_05.jpg"" style=""width:8cm; height:7.300000000000001cm;""><p>What type of rock is this?</p>","0","class_response","1","train","2","Andesite","Pegmatite","05","false","1","6","",""
"","","","","","","","","","","","html-button-response","108","2.0.0","342180","670fd04ebdeb4aba9822fd3c","2","2","3296","","","","","","","","","<img src= rock_img/I_Pegmatite_05.jpg style=""width:8cm; height:7.300000000000001cm;""><p style='font-size: 30px; color: red;'><strong>Incorrect!</strong></p><p style='font-size: 30px;'><strong>This rock is pegmatite</strong></p>","0","corr_feedback","1","train","2","","","","","","","",""
"","","","","","","","","","","","html-button-response","109","2.0.0","344771","670fd04ebdeb4aba9822fd3c","2","2","2586","","","","","","","","","<img src= ""rock_img/I_Andesite_07.jpg"" style=""width:8cm; height:5.93cm;""><p>What type of rock is this?</p>","6","class_response","1","train","3","Peridotite","Andesite","07","false","7","1","",""
"","","","","","","","","","","","html-button-response","110","2.0.0","348531","670fd04ebdeb4aba9822fd3c","2","2","3755","","","","","","","","","<img src= rock_img/I_Andesite_07.jpg style=""width:8cm; height:5.93cm;""><p style='font-size: 30px; color: red;'><strong>Incorrect!</strong></p><p style='font-size: 30px;'><strong>This rock is andesite</strong></p>","0","corr_feedback","1","train","3","","","","","","","",""
"","","","","","","","","","","","html-button-response","111","2.0.0","350168","670fd04ebdeb4aba9822fd3c","2","2","1631","","","","","","","","","<img src= ""rock_img/I_Basalt_01.jpg"" style=""width:8cm; height:7.880000000000001cm;""><p>What type of rock is this?</p>","4","class_response","1","train","4","Obsidian","Basalt","01","false","5","2","",""
"","","","","","","","","","","","html-button-response","112","2.0.0","352868","670fd04ebdeb4aba9822fd3c","2","2","2697","","","","","","","","","<img src= rock_img/I_Basalt_01.jpg style=""width:8cm; height:7.880000000000001cm;""><p style='font-size: 30px; color: red;'><strong>Incorrect!</strong></p><p style='font-size: 30px;'><strong>This rock is basalt</strong></p>","0","corr_feedback","1","train","4","","","","","","","",""
"","","","","","","","","","","","html-button-response","113","2.0.0","354629","670fd04ebdeb4aba9822fd3c","2","2","1755","","","","","","","","","<img src= ""rock_img/I_Basalt_05.jpg"" style=""width:8cm; height:8.18cm;""><p>What type of rock is this?</p>","4","class_response","1","train","5","Obsidian","Basalt","05","false","5","2","",""
"","","","","","","","","","","","html-button-response","114","2.0.0","356919","670fd04ebdeb4aba9822fd3c","2","2","2285","","","","","","","","","<img src= rock_img/I_Basalt_05.jpg style=""width:8cm; height:8.18cm;""><p style='font-size: 30px; color: red;'><strong>Incorrect!</strong></p><p style='font-size: 30px;'><strong>This rock is basalt</strong></p>","0","corr_feedback","1","train","5","","","","","","","",""
"","","","","","","","","","","","html-button-response","115","2.0.0","359186","670fd04ebdeb4aba9822fd3c","2","2","2262","","","","","","","","","<img src= ""rock_img/I_Pumice_09.jpg"" style=""width:8cm; height:6.44cm;""><p>What type of rock is this?</p>","3","class_response","1","train","6","Gabbro","Pumice","09","false","4","8","",""
"","","","","","","","","","","","html-button-response","116","2.0.0","360935","670fd04ebdeb4aba9822fd3c","2","2","1744","","","","","","","","","<img src= rock_img/I_Pumice_09.jpg style=""width:8cm; height:6.44cm;""><p style='font-size: 30px; color: red;'><strong>Incorrect!</strong></p><p style='font-size: 30px;'><strong>This rock is pumice</strong></p>","0","corr_feedback","1","train","6","","","","","","","",""
"","","","","","","","","","","","html-button-response","117","2.0.0","363363","670fd04ebdeb4aba9822fd3c","2","2","2422","","","","","","","","","<img src= ""rock_img/I_Pumice_15.jpg"" style=""width:8cm; height:7.86cm;""><p>What type of rock is this?</p>","0","class_response","1","train","7","Andesite","Pumice","15","false","1","8","",""
"","","","","","","","","","","","html-button-response","118","2.0.0","364930","670fd04ebdeb4aba9822fd3c","2","2","1562","","","","","","","","","<img src= rock_img/I_Pumice_15.jpg style=""width:8cm; height:7.86cm;""><p style='font-size: 30px; color: red;'><strong>Incorrect!</strong></p><p style='font-size: 30px;'><strong>This rock is pumice</strong></p>","0","corr_feedback","1","train","7","","","","","","","",""
"","","","","","","","","","","","html-button-response","119","2.0.0","367085","670fd04ebdeb4aba9822fd3c","2","2","2150","","","","","","","","","<img src= ""rock_img/I_Obsidian_08.jpg"" style=""width:8cm; height:7.39cm;""><p>What type of rock is this?</p>","4","class_response","1","train","8","Obsidian","Obsidian","08","true","5","5","",""
"","","","","","","","","","","","html-button-response","120","2.0.0","368835","670fd04ebdeb4aba9822fd3c","2","2","1745","","","","","","","","","<img src= rock_img/I_Obsidian_08.jpg style=""width:8cm; height:7.39cm;""><p style='font-size: 30px; color: green;'><strong>Correct!</strong></p><p style='font-size: 30px;'><strong>This rock is obsidian</strong></p>","0","corr_feedback","1","train","8","","","","","","","",""
"","","","","","","","","","","","html-button-response","121","2.0.0","372220","670fd04ebdeb4aba9822fd3c","2","2","3378","","","","","","","","","<img src= ""rock_img/I_Peridotite_10.jpg"" style=""width:8cm; height:5.390000000000001cm;""><p>What type of rock is this?</p>","3","class_response","1","train","9","Gabbro","Peridotite","10","false","4","7","",""
"","","","","","","","","","","","html-button-response","122","2.0.0","375351","670fd04ebdeb4aba9822fd3c","2","2","3125","","","","","","","","","<img src= rock_img/I_Peridotite_10.jpg style=""width:8cm; height:5.390000000000001cm;""><p style='font-size: 30px; color: red;'><strong>Incorrect!</strong></p><p style='font-size: 30px;'><strong>This rock is peridotite</strong></p>","0","corr_feedback","1","train","9","","","","","","","",""
"","","","","","","","","","","","html-button-response","123","2.0.0","385517","670fd04ebdeb4aba9822fd3c","2","2","10162","","","","","","","","","<img src= ""rock_img/I_Diorite_10.jpg"" style=""width:8cm; height:5.949999999999999cm;""><p>What type of rock is this?</p>","2","class_response","1","train","10","Diorite","Diorite","10","true","3","3","",""
"","","","","","","","","","","","html-button-response","124","2.0.0","388302","670fd04ebdeb4aba9822fd3c","2","2","2780","","","","","","","","","<img src= rock_img/I_Diorite_10.jpg style=""width:8cm; height:5.949999999999999cm;""><p style='font-size: 30px; color: green;'><strong>Correct!</strong></p><p style='font-size: 30px;'><strong>This rock is diorite</strong></p>","0","corr_feedback","1","train","10","","","","","","","",""
"","","","","","","","","","","","html-button-response","125","2.0.0","392178","670fd04ebdeb4aba9822fd3c","2","2","3870","","","","","","","","","<img src= ""rock_img/I_Andesite_04.jpg"" style=""width:8cm; height:5.96cm;""><p>What type of rock is this?</p>","7","class_response","1","train","11","Pumice","Andesite","04","false","8","1","",""
"","","","","","","","","","","","html-button-response","126","2.0.0","393597","670fd04ebdeb4aba9822fd3c","2","2","1415","","","","","","","","","<img src= rock_img/I_Andesite_04.jpg style=""width:8cm; height:5.96cm;""><p style='font-size: 30px; color: red;'><strong>Incorrect!</strong></p><p style='font-size: 30px;'><strong>This rock is andesite</strong></p>","0","corr_feedback","1","train","11","","","","","","","",""
"","","","","","","","","","","","html-button-response","127","2.0.0","395245","670fd04ebdeb4aba9822fd3c","2","2","1644","","","","","","","","","<img src= ""rock_img/I_Gabbro_01.jpg"" style=""width:8cm; height:5.21cm;""><p>What type of rock is this?</p>","0","class_response","1","train","12","Andesite","Gabbro","01","false","1","4","",""
"","","","","","","","","","","","html-button-response","128","2.0.0","396617","670fd04ebdeb4aba9822fd3c","2","2","1367","","","","","","","","","<img src= rock_img/I_Gabbro_01.jpg style=""width:8cm; height:5.21cm;""><p style='font-size: 30px; color: red;'><strong>Incorrect!</strong></p><p style='font-size: 30px;'><strong>This rock is gabbro</strong></p>","0","corr_feedback","1","train","12","","","","","","","",""
"","","","","","","","","","","","html-button-response","129","2.0.0","398401","670fd04ebdeb4aba9822fd3c","2","2","1778","","","","","","","","","<img src= ""rock_img/I_Pegmatite_11.jpg"" style=""width:8cm; height:8.14cm;""><p>What type of rock is this?</p>","4","class_response","1","train","13","Obsidian","Pegmatite","11","false","5","6","",""
"","","","","","","","","","","","html-button-response","130","2.0.0","399844","670fd04ebdeb4aba9822fd3c","2","2","1437","","","","","","","","","<img src= rock_img/I_Pegmatite_11.jpg style=""width:8cm; height:8.14cm;""><p style='font-size: 30px; color: red;'><strong>Incorrect!</strong></p><p style='font-size: 30px;'><strong>This rock is pegmatite</strong></p>","0","corr_feedback","1","train","13","","","","","","","",""
"","","","","","","","","","","","html-button-response","131","2.0.0","402084","670fd04ebdeb4aba9822fd3c","2","2","2235","","","","","","","","","<img src= ""rock_img/I_Peridotite_05.jpg"" style=""width:8cm; height:7.1499999999999995cm;""><p>What type of rock is this?</p>","2","class_response","1","train","14","Diorite","Peridotite","05","false","3","7","",""
"","","","","","","","","","","","html-button-response","132","2.0.0","404016","670fd04ebdeb4aba9822fd3c","2","2","1926","","","","","","","","","<img src= rock_img/I_Peridotite_05.jpg style=""width:8cm; height:7.1499999999999995cm;""><p style='font-size: 30px; color: red;'><strong>Incorrect!</strong></p><p style='font-size: 30px;'><strong>This rock is peridotite</strong></p>","0","corr_feedback","1","train","14","","","","","","","",""
"","","","","","","","","","","","html-button-response","133","2.0.0","405985","670fd04ebdeb4aba9822fd3c","2","2","1963","","","","","","","","","<img src= ""rock_img/I_Pumice_03.jpg"" style=""width:8cm; height:6.64cm;""><p>What type of rock is this?</p>","7","class_response","1","train","15","Pumice","Pumice","03","true","8","8","",""
"","","","","","","","","","","","html-button-response","134","2.0.0","407433","670fd04ebdeb4aba9822fd3c","2","2","1443","","","","","","","","","<img src= rock_img/I_Pumice_03.jpg style=""width:8cm; height:6.64cm;""><p style='font-size: 30px; color: green;'><strong>Correct!</strong></p><p style='font-size: 30px;'><strong>This rock is pumice</strong></p>","0","corr_feedback","1","train","15","","","","","","","",""
"","","","","","","","","","","","html-button-response","135","2.0.0","409498","670fd04ebdeb4aba9822fd3c","2","2","2061","","","","","","","","","<img src= ""rock_img/I_Andesite_11.jpg"" style=""width:8cm; height:4.92cm;""><p>What type of rock is this?</p>","1","class_response","1","train","16","Basalt","Andesite","11","false","2","1","",""
"","","","","","","","","","","","html-button-response","136","2.0.0","410868","670fd04ebdeb4aba9822fd3c","2","2","1367","","","","","","","","","<img src= rock_img/I_Andesite_11.jpg style=""width:8cm; height:4.92cm;""><p style='font-size: 30px; color: red;'><strong>Incorrect!</strong></p><p style='font-size: 30px;'><strong>This rock is andesite</strong></p>","0","corr_feedback","1","train","16","","","","","","","",""
"","","","","","","","","","","","html-button-response","137","2.0.0","412484","670fd04ebdeb4aba9822fd3c","2","2","1609","","","","","","","","","<img src= ""rock_img/I_Pegmatite_10.jpg"" style=""width:8cm; height:4.16cm;""><p>What type of rock is this?</p>","6","class_response","1","train","17","Peridotite","Pegmatite","10","false","7","6","",""
"","","","","","","","","","","","html-button-response","138","2.0.0","414516","670fd04ebdeb4aba9822fd3c","2","2","2027","","","","","","","","","<img src= rock_img/I_Pegmatite_10.jpg style=""width:8cm; height:4.16cm;""><p style='font-size: 30px; color: red;'><strong>Incorrect!</strong></p><p style='font-size: 30px;'><strong>This rock is pegmatite</strong></p>","0","corr_feedback","1","train","17","","","","","","","",""
"","","","","","","","","","","","html-button-response","139","2.0.0","416548","670fd04ebdeb4aba9822fd3c","2","2","2026","","","","","","","","","<img src= ""rock_img/I_Pegmatite_05.jpg"" style=""width:8cm; height:7.300000000000001cm;""><p>What type of rock is this?</p>","4","class_response","1","train","18","Obsidian","Pegmatite","05","false","5","6","",""
"","","","","","","","","","","","html-button-response","140","2.0.0","417967","670fd04ebdeb4aba9822fd3c","2","2","1414","","","","","","","","","<img src= rock_img/I_Pegmatite_05.jpg style=""width:8cm; height:7.300000000000001cm;""><p style='font-size: 30px; color: red;'><strong>Incorrect!</strong></p><p style='font-size: 30px;'><strong>This rock is pegmatite</strong></p>","0","corr_feedback","1","train","18","","","","","","","",""
"","","","","","","","","","","","html-button-response","141","2.0.0","420950","670fd04ebdeb4aba9822fd3c","2","2","2978","","","","","","","","","<img src= ""rock_img/I_Diorite_13.jpg"" style=""width:8cm; height:6.29cm;""><p>What type of rock is this?</p>","0","class_response","1","train","19","Andesite","Diorite","13","false","1","3","",""
"","","","","","","","","","","","html-button-response","142","2.0.0","422500","670fd04ebdeb4aba9822fd3c","2","2","1545","","","","","","","","","<img src= rock_img/I_Diorite_13.jpg style=""width:8cm; height:6.29cm;""><p style='font-size: 30px; color: red;'><strong>Incorrect!</strong></p><p style='font-size: 30px;'><strong>This rock is diorite</strong></p>","0","corr_feedback","1","train","19","","","","","","","",""
"","","","","","","","","","","","html-button-response","143","2.0.0","425717","670fd04ebdeb4aba9822fd3c","2","2","3210","","","","","","","","","<img src= ""rock_img/I_Andesite_14.jpg"" style=""width:8cm; height:5.449999999999999cm;""><p>What type of rock is this?</p>","7","class_response","1","train","20","Pumice","Andesite","14","false","8","1","",""
"","","","","","","","","","","","html-button-response","144","2.0.0","427048","670fd04ebdeb4aba9822fd3c","2","2","1326","","","","","","","","","<img src= rock_img/I_Andesite_14.jpg style=""width:8cm; height:5.449999999999999cm;""><p style='font-size: 30px; color: red;'><strong>Incorrect!</strong></p><p style='font-size: 30px;'><strong>This rock is andesite</strong></p>","0","corr_feedback","1","train","20","","","","","","","",""
"","","","","","","","","","","","html-button-response","145","2.0.0","428892","670fd04ebdeb4aba9822fd3c","2","2","1839","","","","","","","","","<img src= ""rock_img/I_Basalt_14.jpg"" style=""width:8cm; height:5.82cm;""><p>What type of rock is this?</p>","1","class_response","1","train","21","Basalt","Basalt","14","true","2","2","",""
"","","","","","","","","","","","html-button-response","146","2.0.0","430278","670fd04ebdeb4aba9822fd3c","2","2","1381","","","","","","","","","<img src= rock_img/I_Basalt_14.jpg style=""width:8cm; height:5.82cm;""><p style='font-size: 30px; color: green;'><strong>Correct!</strong></p><p style='font-size: 30px;'><strong>This rock is basalt</strong></p>","0","corr_feedback","1","train","21","","","","","","","",""
"","","","","","","","","","","","html-button-response","147","2.0.0","433449","670fd04ebdeb4aba9822fd3c","2","2","3166","","","","","","","","","<img src= ""rock_img/I_Gabbro_12.jpg"" style=""width:8cm; height:7.800000000000001cm;""><p>What type of rock is this?</p>","7","class_response","1","train","22","Pumice","Gabbro","12","false","8","4","",""
"","","","","","","","","","","","html-button-response","148","2.0.0","434813","670fd04ebdeb4aba9822fd3c","2","2","1359","","","","","","","","","<img src= rock_img/I_Gabbro_12.jpg style=""width:8cm; height:7.800000000000001cm;""><p style='font-size: 30px; color: red;'><strong>Incorrect!</strong></p><p style='font-size: 30px;'><strong>This rock is gabbro</strong></p>","0","corr_feedback","1","train","22","","","","","","","",""
"","","","","","","","","","","","html-button-response","149","2.0.0","437432","670fd04ebdeb4aba9822fd3c","2","2","2614","","","","","","","","","<img src= ""rock_img/I_Pegmatite_06.jpg"" style=""width:8cm; height:5.17cm;""><p>What type of rock is this?</p>","0","class_response","1","train","23","Andesite","Pegmatite","06","false","1","6","",""
"","","","","","","","","","","","html-button-response","150","2.0.0","438813","670fd04ebdeb4aba9822fd3c","2","2","1376","","","","","","","","","<img src= rock_img/I_Pegmatite_06.jpg style=""width:8cm; height:5.17cm;""><p style='font-size: 30px; color: red;'><strong>Incorrect!</strong></p><p style='font-size: 30px;'><strong>This rock is pegmatite</strong></p>","0","corr_feedback","1","train","23","","","","","","","",""
"","","","","","","","","","","","html-button-response","151","2.0.0","442865","670fd04ebdeb4aba9822fd3c","2","2","4047","","","","","","","","","<img src= ""rock_img/I_Diorite_07.jpg"" style=""width:8cm; height:5.239999999999999cm;""><p>What type of rock is this?</p>","0","class_response","1","train","24","Andesite","Diorite","07","false","1","3","",""
"","","","","","","","","","","","html-button-response","152","2.0.0","444331","670fd04ebdeb4aba9822fd3c","2","2","1462","","","","","","","","","<img src= rock_img/I_Diorite_07.jpg style=""width:8cm; height:5.239999999999999cm;""><p style='font-size: 30px; color: red;'><strong>Incorrect!</strong></p><p style='font-size: 30px;'><strong>This rock is diorite</strong></p>","0","corr_feedback","1","train","24","","","","","","","",""
"","","","","","","","","","","","html-button-response","153","2.0.0","446399","670fd04ebdeb4aba9822fd3c","2","2","2062","","","","","","","","","<img src= ""rock_img/I_Peridotite_06.jpg"" style=""width:8cm; height:7.53cm;""><p>What type of rock is this?</p>","4","class_response","1","train","25","Obsidian","Peridotite","06","false","5","7","",""
"","","","","","","","","","","","html-button-response","154","2.0.0","447714","670fd04ebdeb4aba9822fd3c","2","2","1310","","","","","","","","","<img src= rock_img/I_Peridotite_06.jpg style=""width:8cm; height:7.53cm;""><p style='font-size: 30px; color: red;'><strong>Incorrect!</strong></p><p style='font-size: 30px;'><strong>This rock is peridotite</strong></p>","0","corr_feedback","1","train","25","","","","","","","",""
"","","","","","","","","","","","html-button-response","155","2.0.0","449781","670fd04ebdeb4aba9822fd3c","2","2","2062","","","","","","","","","<img src= ""rock_img/I_Peridotite_08.jpg"" style=""width:8cm; height:6.7cm;""><p>What type of rock is this?</p>","7","class_response","1","train","26","Pumice","Peridotite","08","false","8","7","",""
"","","","","","","","","","","","html-button-response","156","2.0.0","451173","670fd04ebdeb4aba9822fd3c","2","2","1386","","","","","","","","","<img src= rock_img/I_Peridotite_08.jpg style=""width:8cm; height:6.7cm;""><p style='font-size: 30px; color: red;'><strong>Incorrect!</strong></p><p style='font-size: 30px;'><strong>This rock is peridotite</strong></p>","0","corr_feedback","1","train","26","","","","","","","",""
"","","","","","","","","","","","html-button-response","157","2.0.0","453301","670fd04ebdeb4aba9822fd3c","2","2","2122","","","","","","","","","<img src= ""rock_img/I_Obsidian_09.jpg"" style=""width:8cm; height:5cm;""><p>What type of rock is this?</p>","4","class_response","1","train","27","Obsidian","Obsidian","09","true","5","5","",""
"","","","","","","","","","","","html-button-response","158","2.0.0","454650","670fd04ebdeb4aba9822fd3c","2","2","1343","","","","","","","","","<img src= rock_img/I_Obsidian_09.jpg style=""width:8cm; height:5cm;""><p style='font-size: 30px; color: green;'><strong>Correct!</strong></p><p style='font-size: 30px;'><strong>This rock is obsidian</strong></p>","0","corr_feedback","1","train","27","","","","","","","",""
"","","","","","","","","","","","html-button-response","159","2.0.0","458731","670fd04ebdeb4aba9822fd3c","2","2","4075","","","","","","","","","<img src= ""rock_img/I_Gabbro_10.jpg"" style=""width:8cm; height:5.680000000000001cm;""><p>What type of rock is this?</p>","0","class_response","1","train","28","Andesite","Gabbro","10","false","1","4","",""
"","","","","","","","","","","","html-button-response","160","2.0.0","460264","670fd04ebdeb4aba9822fd3c","2","2","1529","","","","","","","","","<img src= rock_img/I_Gabbro_10.jpg style=""width:8cm; height:5.680000000000001cm;""><p style='font-size: 30px; color: red;'><strong>Incorrect!</strong></p><p style='font-size: 30px;'><strong>This rock is gabbro</strong></p>","0","corr_feedback","1","train","28","","","","","","","",""
"","","","","","","","","","","","html-button-response","161","2.0.0","462326","670fd04ebdeb4aba9822fd3c","2","2","2057","","","","","","","","","<img src= ""rock_img/I_Gabbro_15.jpg"" style=""width:8cm; height:6.29cm;""><p>What type of rock is this?</p>","6","class_response","1","train","29","Peridotite","Gabbro","15","false","7","4","",""
"","","","","","","","","","","","html-button-response","162","2.0.0","463479","670fd04ebdeb4aba9822fd3c","2","2","1148","","","","","","","","","<img src= rock_img/I_Gabbro_15.jpg style=""width:8cm; height:6.29cm;""><p style='font-size: 30px; color: red;'><strong>Incorrect!</strong></p><p style='font-size: 30px;'><strong>This rock is gabbro</strong></p>","0","corr_feedback","1","train","29","","","","","","","",""
"","","","","","","","","","","","html-button-response","163","2.0.0","466401","670fd04ebdeb4aba9822fd3c","2","2","2917","","","","","","","","","<img src= ""rock_img/I_Gabbro_11.jpg"" style=""width:8cm; height:6.2cm;""><p>What type of rock is this?</p>","7","class_response","1","train","30","Pumice","Gabbro","11","false","8","4","",""
"","","","","","","","","","","","html-button-response","164","2.0.0","467758","670fd04ebdeb4aba9822fd3c","2","2","1352","","","","","","","","","<img src= rock_img/I_Gabbro_11.jpg style=""width:8cm; height:6.2cm;""><p style='font-size: 30px; color: red;'><strong>Incorrect!</strong></p><p style='font-size: 30px;'><strong>This rock is gabbro</strong></p>","0","corr_feedback","1","train","30","","","","","","","",""
"","","","","","","","","","","","html-button-response","165","2.0.0","472551","670fd04ebdeb4aba9822fd3c","2","2","4789","","","","","","","","","<img src= ""rock_img/I_Gabbro_13.jpg"" style=""width:8cm; height:5.08cm;""><p>What type of rock is this?</p>","2","class_response","1","train","31","Diorite","Gabbro","13","false","3","4","",""
"","","","","","","","","","","","html-button-response","166","2.0.0","473814","670fd04ebdeb4aba9822fd3c","2","2","1257","","","","","","","","","<img src= rock_img/I_Gabbro_13.jpg style=""width:8cm; height:5.08cm;""><p style='font-size: 30px; color: red;'><strong>Incorrect!</strong></p><p style='font-size: 30px;'><strong>This rock is gabbro</strong></p>","0","corr_feedback","1","train","31","","","","","","","",""
"","","","","","","","","","","","html-button-response","167","2.0.0","476198","670fd04ebdeb4aba9822fd3c","2","2","2379","","","","","","","","","<img src= ""rock_img/I_Basalt_09.jpg"" style=""width:8cm; height:6.2cm;""><p>What type of rock is this?</p>","0","class_response","1","train","32","Andesite","Basalt","09","false","1","2","",""
"","","","","","","","","","","","html-button-response","168","2.0.0","477597","670fd04ebdeb4aba9822fd3c","2","2","1393","","","","","","","","","<img src= rock_img/I_Basalt_09.jpg style=""width:8cm; height:6.2cm;""><p style='font-size: 30px; color: red;'><strong>Incorrect!</strong></p><p style='font-size: 30px;'><strong>This rock is basalt</strong></p>","0","corr_feedback","1","train","32","","","","","","","",""
"","","","","","","","","","","","html-button-response","169","2.0.0","479980","670fd04ebdeb4aba9822fd3c","2","2","2377","","","","","","","","","<img src= ""rock_img/I_Diorite_16.jpg"" style=""width:8cm; height:6.74cm;""><p>What type of rock is this?</p>","5","class_response","1","train","33","Pegmatite","Diorite","16","false","6","3","",""
"","","","","","","","","","","","html-button-response","170","2.0.0","481146","670fd04ebdeb4aba9822fd3c","2","2","1161","","","","","","","","","<img src= rock_img/I_Diorite_16.jpg style=""width:8cm; height:6.74cm;""><p style='font-size: 30px; color: red;'><strong>Incorrect!</strong></p><p style='font-size: 30px;'><strong>This rock is diorite</strong></p>","0","corr_feedback","1","train","33","","","","","","","",""
"","","","","","","","","","","","html-button-response","171","2.0.0","484329","670fd04ebdeb4aba9822fd3c","2","2","3176","","","","","","","","","<img src= ""rock_img/I_Peridotite_04.jpg"" style=""width:8cm; height:6.680000000000001cm;""><p>What type of rock is this?</p>","3","class_response","1","train","34","Gabbro","Peridotite","04","false","4","7","",""
"","","","","","","","","","","","html-button-response","172","2.0.0","485613","670fd04ebdeb4aba9822fd3c","2","2","1280","","","","","","","","","<img src= rock_img/I_Peridotite_04.jpg style=""width:8cm; height:6.680000000000001cm;""><p style='font-size: 30px; color: red;'><strong>Incorrect!</strong></p><p style='font-size: 30px;'><strong>This rock is peridotite</strong></p>","0","corr_feedback","1","train","34","","","","","","","",""
"","","","","","","","","","","","html-button-response","173","2.0.0","487912","670fd04ebdeb4aba9822fd3c","2","2","2293","","","","","","","","","<img src= ""rock_img/I_Basalt_12.jpg"" style=""width:8cm; height:6.010000000000001cm;""><p>What type of rock is this?</p>","7","class_response","1","train","35","Pumice","Basalt","12","false","8","2","",""
"","","","","","","","","","","","html-button-response","174","2.0.0","489143","670fd04ebdeb4aba9822fd3c","2","2","1226","","","","","","","","","<img src= rock_img/I_Basalt_12.jpg style=""width:8cm; height:6.010000000000001cm;""><p style='font-size: 30px; color: red;'><strong>Incorrect!</strong></p><p style='font-size: 30px;'><strong>This rock is basalt</strong></p>","0","corr_feedback","1","train","35","","","","","","","",""
"","","","","","","","","","","","html-button-response","175","2.0.0","493680","670fd04ebdeb4aba9822fd3c","2","2","4532","","","","","","","","","<img src= ""rock_img/I_Andesite_16.jpg"" style=""width:8cm; height:6.010000000000001cm;""><p>What type of rock is this?</p>","0","class_response","1","train","36","Andesite","Andesite","16","true","1","1","",""
"","","","","","","","","","","","html-button-response","176","2.0.0","495629","670fd04ebdeb4aba9822fd3c","2","2","1944","","","","","","","","","<img src= rock_img/I_Andesite_16.jpg style=""width:8cm; height:6.010000000000001cm;""><p style='font-size: 30px; color: green;'><strong>Correct!</strong></p><p style='font-size: 30px;'><strong>This rock is andesite</strong></p>","0","corr_feedback","1","train","36","","","","","","","",""
"","","","","","","","","","","","html-button-response","177","2.0.0","497812","670fd04ebdeb4aba9822fd3c","2","2","2176","","","","","","","","","<img src= ""rock_img/I_Pumice_05.jpg"" style=""width:8cm; height:7.25cm;""><p>What type of rock is this?</p>","7","class_response","1","train","37","Pumice","Pumice","05","true","8","8","",""
"","","","","","","","","","","","html-button-response","178","2.0.0","499241","670fd04ebdeb4aba9822fd3c","2","2","1424","","","","","","","","","<img src= rock_img/I_Pumice_05.jpg style=""width:8cm; height:7.25cm;""><p style='font-size: 30px; color: green;'><strong>Correct!</strong></p><p style='font-size: 30px;'><strong>This rock is pumice</strong></p>","0","corr_feedback","1","train","37","","","","","","","",""
"","","","","","","","","","","","html-button-response","179","2.0.0","502394","670fd04ebdeb4aba9822fd3c","2","2","3149","","","","","","","","","<img src= ""rock_img/I_Peridotite_06.jpg"" style=""width:8cm; height:7.53cm;""><p>What type of rock is this?</p>","1","class_response","1","train","38","Basalt","Peridotite","06","false","2","7","",""
"","","","","","","","","","","","html-button-response","180","2.0.0","503747","670fd04ebdeb4aba9822fd3c","2","2","1348","","","","","","","","","<img src= rock_img/I_Peridotite_06.jpg style=""width:8cm; height:7.53cm;""><p style='font-size: 30px; color: red;'><strong>Incorrect!</strong></p><p style='font-size: 30px;'><strong>This rock is peridotite</strong></p>","0","corr_feedback","1","train","38","","","","","","","",""
"","","","","","","","","","","","html-button-response","181","2.0.0","507062","670fd04ebdeb4aba9822fd3c","2","2","3310","","","","","","","","","<img src= ""rock_img/I_Andesite_09.jpg"" style=""width:8cm; height:6cm;""><p>What type of rock is this?</p>","1","class_response","1","train","39","Basalt","Andesite","09","false","2","1","",""
"","","","","","","","","","","","html-button-response","182","2.0.0","508270","670fd04ebdeb4aba9822fd3c","2","2","1203","","","","","","","","","<img src= rock_img/I_Andesite_09.jpg style=""width:8cm; height:6cm;""><p style='font-size: 30px; color: red;'><strong>Incorrect!</strong></p><p style='font-size: 30px;'><strong>This rock is andesite</strong></p>","0","corr_feedback","1","train","39","","","","","","","",""
"","","","","","","","","","","","html-button-response","183","2.0.0","511028","670fd04ebdeb4aba9822fd3c","2","2","2753","","","","","","","","","<img src= ""rock_img/I_Peridotite_14.jpg"" style=""width:8cm; height:5.3cm;""><p>What type of rock is this?</p>","2","class_response","1","train","40","Diorite","Peridotite","14","false","3","7","",""
"","","","","","","","","","","","html-button-response","184","2.0.0","512261","670fd04ebdeb4aba9822fd3c","2","2","1228","","","","","","","","","<img src= rock_img/I_Peridotite_14.jpg style=""width:8cm; height:5.3cm;""><p style='font-size: 30px; color: red;'><strong>Incorrect!</strong></p><p style='font-size: 30px;'><strong>This rock is peridotite</strong></p>","0","corr_feedback","1","train","40","","","","","","","",""
"","","","","","","","","","","","html-button-response","185","2.0.0","514313","670fd04ebdeb4aba9822fd3c","2","2","2046","","","","","","","","","<img src= ""rock_img/I_Pumice_08.jpg"" style=""width:8cm; height:6.67cm;""><p>What type of rock is this?</p>","7","class_response","1","train","41","Pumice","Pumice","08","true","8","8","",""
"","","","","","","","","","","","html-button-response","186","2.0.0","515928","670fd04ebdeb4aba9822fd3c","2","2","1611","","","","","","","","","<img src= rock_img/I_Pumice_08.jpg style=""width:8cm; height:6.67cm;""><p style='font-size: 30px; color: green;'><strong>Correct!</strong></p><p style='font-size: 30px;'><strong>This rock is pumice</strong></p>","0","corr_feedback","1","train","41","","","","","","","",""
"","","","","","","","","","","","html-button-response","187","2.0.0","518872","670fd04ebdeb4aba9822fd3c","2","2","2938","","","","","","","","","<img src= ""rock_img/I_Pegmatite_03.jpg"" style=""width:8cm; height:5.239999999999999cm;""><p>What type of rock is this?</p>","4","class_response","1","train","42","Obsidian","Pegmatite","03","false","5","6","",""
"","","","","","","","","","","","html-button-response","188","2.0.0","520195","670fd04ebdeb4aba9822fd3c","2","2","1319","","","","","","","","","<img src= rock_img/I_Pegmatite_03.jpg style=""width:8cm; height:5.239999999999999cm;""><p style='font-size: 30px; color: red;'><strong>Incorrect!</strong></p><p style='font-size: 30px;'><strong>This rock is pegmatite</strong></p>","0","corr_feedback","1","train","42","","","","","","","",""
"","","","","","","","","","","","html-button-response","189","2.0.0","522404","670fd04ebdeb4aba9822fd3c","2","2","2203","","","","","","","","","<img src= ""rock_img/I_Basalt_04.jpg"" style=""width:8cm; height:7.53cm;""><p>What type of rock is this?</p>","1","class_response","1","train","43","Basalt","Basalt","04","true","2","2","",""
"","","","","","","","","","","","html-button-response","190","2.0.0","524128","670fd04ebdeb4aba9822fd3c","2","2","1720","","","","","","","","","<img src= rock_img/I_Basalt_04.jpg style=""width:8cm; height:7.53cm;""><p style='font-size: 30px; color: green;'><strong>Correct!</strong></p><p style='font-size: 30px;'><strong>This rock is basalt</strong></p>","0","corr_feedback","1","train","43","","","","","","","",""
"","","","","","","","","","","","html-button-response","191","2.0.0","526917","670fd04ebdeb4aba9822fd3c","2","2","2781","","","","","","","","","<img src= ""rock_img/I_Pumice_10.jpg"" style=""width:8cm; height:7.609999999999999cm;""><p>What type of rock is this?</p>","7","class_response","1","train","44","Pumice","Pumice","10","true","8","8","",""
"","","","","","","","","","","","html-button-response","192","2.0.0","528344","670fd04ebdeb4aba9822fd3c","2","2","1422","","","","","","","","","<img src= rock_img/I_Pumice_10.jpg style=""width:8cm; height:7.609999999999999cm;""><p style='font-size: 30px; color: green;'><strong>Correct!</strong></p><p style='font-size: 30px;'><strong>This rock is pumice</strong></p>","0","corr_feedback","1","train","44","","","","","","","",""
"","","","","","","","","","","","html-button-response","193","2.0.0","531926","670fd04ebdeb4aba9822fd3c","2","2","3577","","","","","","","","","<img src= ""rock_img/I_Diorite_14.jpg"" style=""width:8cm; height:5.71cm;""><p>What type of rock is this?</p>","2","class_response","1","train","45","Diorite","Diorite","14","true","3","3","",""
"","","","","","","","","","","","html-button-response","194","2.0.0","533571","670fd04ebdeb4aba9822fd3c","2","2","1642","","","","","","","","","<img src= rock_img/I_Diorite_14.jpg style=""width:8cm; height:5.71cm;""><p style='font-size: 30px; color: green;'><strong>Correct!</strong></p><p style='font-size: 30px;'><strong>This rock is diorite</strong></p>","0","corr_feedback","1","train","45","","","","","","","",""
"","","","","","","","","","","","html-button-response","195","2.0.0","536011","670fd04ebdeb4aba9822fd3c","2","2","2435","","","","","","","","","<img src= ""rock_img/I_Pegmatite_12.jpg"" style=""width:8cm; height:5.7cm;""><p>What type of rock is this?</p>","0","class_response","1","train","46","Andesite","Pegmatite","12","false","1","6","",""
"","","","","","","","","","","","html-button-response","196","2.0.0","537395","670fd04ebdeb4aba9822fd3c","2","2","1378","","","","","","","","","<img src= rock_img/I_Pegmatite_12.jpg style=""width:8cm; height:5.7cm;""><p style='font-size: 30px; color: red;'><strong>Incorrect!</strong></p><p style='font-size: 30px;'><strong>This rock is pegmatite</strong></p>","0","corr_feedback","1","train","46","","","","","","","",""
"","","","","","","","","","","","html-button-response","197","2.0.0","540011","670fd04ebdeb4aba9822fd3c","2","2","2610","","","","","","","","","<img src= ""rock_img/I_Pumice_03.jpg"" style=""width:8cm; height:6.64cm;""><p>What type of rock is this?</p>","7","class_response","1","train","47","Pumice","Pumice","03","true","8","8","",""
"","","","","","","","","","","","html-button-response","198","2.0.0","541402","670fd04ebdeb4aba9822fd3c","2","2","1387","","","","","","","","","<img src= rock_img/I_Pumice_03.jpg style=""width:8cm; height:6.64cm;""><p style='font-size: 30px; color: green;'><strong>Correct!</strong></p><p style='font-size: 30px;'><strong>This rock is pumice</strong></p>","0","corr_feedback","1","train","47","","","","","","","",""
"","","","","","","","","","","","html-button-response","199","2.0.0","543209","670fd04ebdeb4aba9822fd3c","2","2","1804","","","","","","","","","<img src= ""rock_img/I_Gabbro_12.jpg"" style=""width:8cm; height:7.800000000000001cm;""><p>What type of rock is this?</p>","1","class_response","1","train","48","Basalt","Gabbro","12","false","2","4","",""
"","","","","","","","","","","","html-button-response","200","2.0.0","544507","670fd04ebdeb4aba9822fd3c","2","2","1293","","","","","","","","","<img src= rock_img/I_Gabbro_12.jpg style=""width:8cm; height:7.800000000000001cm;""><p style='font-size: 30px; color: red;'><strong>Incorrect!</strong></p><p style='font-size: 30px;'><strong>This rock is gabbro</strong></p>","0","corr_feedback","1","train","48","","","","","","","",""
"","","","","","","","","","","","instructions","203","2.0.0","559560","670fd04ebdeb4aba9822fd3c","2","2","15049","","","","","","","","[{""page_index"":0,""viewing_time"":6308},{""page_index"":1,""viewing_time"":8741}]","","","","","","","","","","","","","",""
"","","","","","","","","","","","html-button-response","204","2.0.0","561752","670fd04ebdeb4aba9822fd3c","2","2","2187","","","","","","","","","","0","start_test","","","","","","","","","","",""
"","","","","","","","","","","","html-button-response","205","2.0.0","565994","670fd04ebdeb4aba9822fd3c","2","2","4236","","","","","","","","","<img src= ""rock_img/I_Basalt_10.jpg"" style=""width:8cm; height:5.85cm;""><p>What type of rock is this?</p>","1","class_response","1","test","1","Basalt","Basalt","10","true","2","2","",""
"","","","","","","","","","","","html-keyboard-response","206","2.0.0","566511","670fd04ebdeb4aba9822fd3c","2","2","null","","","","","","","","","<p style='font-size: 30px;'><strong>Okay</strong></p>","null","neutral_feedback","1","test","1","","","","","","","",""
"","","","","","","","","","","","html-button-response","207","2.0.0","571775","670fd04ebdeb4aba9822fd3c","2","2","5258","","","","","","","","","<img src= ""rock_img/I_Diorite_11.jpg"" style=""width:8cm; height:7.11cm;""><p>What type of rock is this?</p>","2","class_response","1","test","2","Diorite","Diorite","11","true","3","3","",""
"","","","","","","","","","","","html-keyboard-response","208","2.0.0","572283","670fd04ebdeb4aba9822fd3c","2","2","null","","","","","","","","","<p style='font-size: 30px;'><strong>Okay</strong></p>","null","neutral_feedback","1","test","2","","","","","","","",""
"","","","","","","","","","","","html-button-response","209","2.0.0","574859","670fd04ebdeb4aba9822fd3c","2","2","2571","","","","","","","","","<img src= ""rock_img/I_Gabbro_16.jpg"" style=""width:8cm; height:6.44cm;""><p>What type of rock is this?</p>","1","class_response","1","test","3","Basalt","Gabbro","16","false","2","4","",""
"","","","","","","","","","","","html-keyboard-response","210","2.0.0","575368","670fd04ebdeb4aba9822fd3c","2","2","null","","","","","","","","","<p style='font-size: 30px;'><strong>Okay</strong></p>","null","neutral_feedback","1","test","3","","","","","","","",""
"","","","","","","","","","","","html-button-response","211","2.0.0","579041","670fd04ebdeb4aba9822fd3c","2","2","3668","","","","","","","","","<img src= ""rock_img/I_Diorite_06.jpg"" style=""width:8cm; height:6.03cm;""><p>What type of rock is this?</p>","2","class_response","1","test","4","Diorite","Diorite","06","true","3","3","",""
"","","","","","","","","","","","html-keyboard-response","212","2.0.0","579554","670fd04ebdeb4aba9822fd3c","2","2","null","","","","","","","","","<p style='font-size: 30px;'><strong>Okay</strong></p>","null","neutral_feedback","1","test","4","","","","","","","",""
"","","","","","","","","","","","html-button-response","213","2.0.0","582242","670fd04ebdeb4aba9822fd3c","2","2","2683","","","","","","","","","<img src= ""rock_img/I_Andesite_10.jpg"" style=""width:8cm; height:4.16cm;""><p>What type of rock is this?</p>","7","class_response","1","test","5","Pumice","Andesite","10","false","8","1","",""
"","","","","","","","","","","","html-keyboard-response","214","2.0.0","582748","670fd04ebdeb4aba9822fd3c","2","2","null","","","","","","","","","<p style='font-size: 30px;'><strong>Okay</strong></p>","null","neutral_feedback","1","test","5","","","","","","","",""
"","","","","","","","","","","","html-button-response","215","2.0.0","588056","670fd04ebdeb4aba9822fd3c","2","2","5303","","","","","","","","","<img src= ""rock_img/I_Andesite_05.jpg"" style=""width:8cm; height:4.12cm;""><p>What type of rock is this?</p>","2","class_response","1","test","6","Diorite","Andesite","05","false","3","1","",""
"","","","","","","","","","","","html-keyboard-response","216","2.0.0","588560","670fd04ebdeb4aba9822fd3c","2","2","null","","","","","","","","","<p style='font-size: 30px;'><strong>Okay</strong></p>","null","neutral_feedback","1","test","6","","","","","","","",""
"","","","","","","","","","","","html-button-response","217","2.0.0","594776","670fd04ebdeb4aba9822fd3c","2","2","6211","","","","","","","","","<img src= ""rock_img/I_Diorite_15.jpg"" style=""width:8cm; height:5.54cm;""><p>What type of rock is this?</p>","3","class_response","1","test","7","Gabbro","Diorite","15","false","4","3","",""
"","","","","","","","","","","","html-keyboard-response","218","2.0.0","595294","670fd04ebdeb4aba9822fd3c","2","2","null","","","","","","","","","<p style='font-size: 30px;'><strong>Okay</strong></p>","null","neutral_feedback","1","test","7","","","","","","","",""
"","","","","","","","","","","","html-button-response","219","2.0.0","600554","670fd04ebdeb4aba9822fd3c","2","2","5255","","","","","","","","","<img src= ""rock_img/I_Basalt_06.jpg"" style=""width:8cm; height:7.06cm;""><p>What type of rock is this?</p>","1","class_response","1","test","8","Basalt","Basalt","06","true","2","2","",""
"","","","","","","","","","","","html-keyboard-response","220","2.0.0","601059","670fd04ebdeb4aba9822fd3c","2","2","null","","","","","","","","","<p style='font-size: 30px;'><strong>Okay</strong></p>","null","neutral_feedback","1","test","8","","","","","","","",""
"","","","","","","","","","","","html-button-response","221","2.0.0","606442","670fd04ebdeb4aba9822fd3c","2","2","5377","","","","","","","","","<img src= ""rock_img/I_Pumice_16.jpg"" style=""width:8cm; height:6.79cm;""><p>What type of rock is this?</p>","7","class_response","1","test","9","Pumice","Pumice","16","true","8","8","",""
"","","","","","","","","","","","html-keyboard-response","222","2.0.0","606952","670fd04ebdeb4aba9822fd3c","2","2","null","","","","","","","","","<p style='font-size: 30px;'><strong>Okay</strong></p>","null","neutral_feedback","1","test","9","","","","","","","",""
"","","","","","","","","","","","html-button-response","223","2.0.0","608891","670fd04ebdeb4aba9822fd3c","2","2","1934","","","","","","","","","<img src= ""rock_img/I_Obsidian_04.jpg"" style=""width:8cm; height:6.930000000000001cm;""><p>What type of rock is this?</p>","4","class_response","1","test","10","Obsidian","Obsidian","04","true","5","5","",""
"","","","","","","","","","","","html-keyboard-response","224","2.0.0","609401","670fd04ebdeb4aba9822fd3c","2","2","null","","","","","","","","","<p style='font-size: 30px;'><strong>Okay</strong></p>","null","neutral_feedback","1","test","10","","","","","","","",""
"","","","","","","","","","","","html-button-response","225","2.0.0","612792","670fd04ebdeb4aba9822fd3c","2","2","3386","","","","","","","","","<img src= ""rock_img/I_Pumice_04.jpg"" style=""width:8cm; height:6.819999999999999cm;""><p>What type of rock is this?</p>","7","class_response","1","test","11","Pumice","Pumice","04","true","8","8","",""
"","","","","","","","","","","","html-keyboard-response","226","2.0.0","613311","670fd04ebdeb4aba9822fd3c","2","2","null","","","","","","","","","<p style='font-size: 30px;'><strong>Okay</strong></p>","null","neutral_feedback","1","test","11","","","","","","","",""
"","","","","","","","","","","","html-button-response","227","2.0.0","619007","670fd04ebdeb4aba9822fd3c","2","2","5692","","","","","","","","","<img src= ""rock_img/I_Peridotite_15.jpg"" style=""width:8cm; height:6cm;""><p>What type of rock is this?</p>","5","class_response","1","test","12","Pegmatite","Peridotite","15","false","6","7","",""
"","","","","","","","","","","","html-keyboard-response","228","2.0.0","619516","670fd04ebdeb4aba9822fd3c","2","2","null","","","","","","","","","<p style='font-size: 30px;'><strong>Okay</strong></p>","null","neutral_feedback","1","test","12","","","","","","","",""
"","","","","","","","","","","","html-button-response","229","2.0.0","621691","670fd04ebdeb4aba9822fd3c","2","2","2171","","","","","","","","","<img src= ""rock_img/I_Peridotite_13.jpg"" style=""width:8cm; height:7.58cm;""><p>What type of rock is this?</p>","6","class_response","1","test","13","Peridotite","Peridotite","13","true","7","7","",""
"","","","","","","","","","","","html-keyboard-response","230","2.0.0","622208","670fd04ebdeb4aba9822fd3c","2","2","null","","","","","","","","","<p style='font-size: 30px;'><strong>Okay</strong></p>","null","neutral_feedback","1","test","13","","","","","","","",""
"","","","","","","","","","","","html-button-response","231","2.0.0","625241","670fd04ebdeb4aba9822fd3c","2","2","3028","","","","","","","","","<img src= ""rock_img/I_Pumice_13.jpg"" style=""width:8cm; height:8.200000000000001cm;""><p>What type of rock is this?</p>","3","class_response","1","test","14","Gabbro","Pumice","13","false","4","8","",""
"","","","","","","","","","","","html-keyboard-response","232","2.0.0","625751","670fd04ebdeb4aba9822fd3c","2","2","null","","","","","","","","","<p style='font-size: 30px;'><strong>Okay</strong></p>","null","neutral_feedback","1","test","14","","","","","","","",""
"","","","","","","","","","","","html-button-response","233","2.0.0","627966","670fd04ebdeb4aba9822fd3c","2","2","2210","","","","","","","","","<img src= ""rock_img/I_Basalt_02.jpg"" style=""width:8cm; height:6.45cm;""><p>What type of rock is this?</p>","4","class_response","1","test","15","Obsidian","Basalt","02","false","5","2","",""
"","","","","","","","","","","","html-keyboard-response","234","2.0.0","628482","670fd04ebdeb4aba9822fd3c","2","2","null","","","","","","","","","<p style='font-size: 30px;'><strong>Okay</strong></p>","null","neutral_feedback","1","test","15","","","","","","","",""
"","","","","","","","","","","","html-button-response","235","2.0.0","629523","670fd04ebdeb4aba9822fd3c","2","2","1036","","","","","","","","","<img src= ""rock_img/I_Obsidian_02.jpg"" style=""width:8cm; height:7.51cm;""><p>What type of rock is this?</p>","4","class_response","1","test","16","Obsidian","Obsidian","02","true","5","5","",""
"","","","","","","","","","","","html-keyboard-response","236","2.0.0","630037","670fd04ebdeb4aba9822fd3c","2","2","null","","","","","","","","","<p style='font-size: 30px;'><strong>Okay</strong></p>","null","neutral_feedback","1","test","16","","","","","","","",""
"","","","","","","","","","","","html-button-response","237","2.0.0","632249","670fd04ebdeb4aba9822fd3c","2","2","2209","","","","","","","","","<img src= ""rock_img/I_Obsidian_10.jpg"" style=""width:8cm; height:6.260000000000001cm;""><p>What type of rock is this?</p>","4","class_response","1","test","17","Obsidian","Obsidian","10","true","5","5","",""
"","","","","","","","","","","","html-keyboard-response","238","2.0.0","632766","670fd04ebdeb4aba9822fd3c","2","2","null","","","","","","","","","<p style='font-size: 30px;'><strong>Okay</strong></p>","null","neutral_feedback","1","test","17","","","","","","","",""
"","","","","","","","","","","","html-button-response","239","2.0.0","635690","670fd04ebdeb4aba9822fd3c","2","2","2919","","","","","","","","","<img src= ""rock_img/I_Pegmatite_13.jpg"" style=""width:8cm; height:4.95cm;""><p>What type of rock is this?</p>","2","class_response","1","test","18","Diorite","Pegmatite","13","false","3","6","",""
"","","","","","","","","","","","html-keyboard-response","240","2.0.0","636207","670fd04ebdeb4aba9822fd3c","2","2","null","","","","","","","","","<p style='font-size: 30px;'><strong>Okay</strong></p>","null","neutral_feedback","1","test","18","","","","","","","",""
"","","","","","","","","","","","html-button-response","241","2.0.0","639855","670fd04ebdeb4aba9822fd3c","2","2","3643","","","","","","","","","<img src= ""rock_img/I_Gabbro_05.jpg"" style=""width:8cm; height:6cm;""><p>What type of rock is this?</p>","1","class_response","1","test","19","Basalt","Gabbro","05","false","2","4","",""
"","","","","","","","","","","","html-keyboard-response","242","2.0.0","640366","670fd04ebdeb4aba9822fd3c","2","2","null","","","","","","","","","<p style='font-size: 30px;'><strong>Okay</strong></p>","null","neutral_feedback","1","test","19","","","","","","","",""
"","","","","","","","","","","","html-button-response","243","2.0.0","642524","670fd04ebdeb4aba9822fd3c","2","2","2153","","","","","","","","","<img src= ""rock_img/I_Basalt_16.jpg"" style=""width:8cm; height:7.659999999999999cm;""><p>What type of rock is this?</p>","1","class_response","1","test","20","Basalt","Basalt","16","true","2","2","",""
"","","","","","","","","","","","html-keyboard-response","244","2.0.0","643039","670fd04ebdeb4aba9822fd3c","2","2","null","","","","","","","","","<p style='font-size: 30px;'><strong>Okay</strong></p>","null","neutral_feedback","1","test","20","","","","","","","",""
"","","","","","","","","","","","html-button-response","245","2.0.0","645181","670fd04ebdeb4aba9822fd3c","2","2","2138","","","","","","","","","<img src= ""rock_img/I_Gabbro_14.jpg"" style=""width:8cm; height:8.48cm;""><p>What type of rock is this?</p>","2","class_response","1","test","21","Diorite","Gabbro","14","false","3","4","",""
"","","","","","","","","","","","html-keyboard-response","246","2.0.0","645696","670fd04ebdeb4aba9822fd3c","2","2","null","","","","","","","","","<p style='font-size: 30px;'><strong>Okay</strong></p>","null","neutral_feedback","1","test","21","","","","","","","",""
"","","","","","","","","","","","html-button-response","247","2.0.0","650006","670fd04ebdeb4aba9822fd3c","2","2","4305","","","","","","","","","<img src= ""rock_img/I_Andesite_01.jpg"" style=""width:8cm; height:5.87cm;""><p>What type of rock is this?</p>","4","class_response","1","test","22","Obsidian","Andesite","01","false","5","1","",""
"","","","","","","","","","","","html-keyboard-response","248","2.0.0","650516","670fd04ebdeb4aba9822fd3c","2","2","null","","","","","","","","","<p style='font-size: 30px;'><strong>Okay</strong></p>","null","neutral_feedback","1","test","22","","","","","","","",""
"","","","","","","","","","","","html-button-response","249","2.0.0","694488","670fd04ebdeb4aba9822fd3c","2","2","43966","","","","","","","","","<img src= ""rock_img/I_Obsidian_07.jpg"" style=""width:8cm; height:4.76cm;""><p>What type of rock is this?</p>","4","class_response","1","test","23","Obsidian","Obsidian","07","true","5","5","",""
"","","","","","","","","","","","html-keyboard-response","250","2.0.0","695003","670fd04ebdeb4aba9822fd3c","2","2","null","","","","","","","","","<p style='font-size: 30px;'><strong>Okay</strong></p>","null","neutral_feedback","1","test","23","","","","","","","",""
"","","","","","","","","","","","html-button-response","251","2.0.0","700834","670fd04ebdeb4aba9822fd3c","2","2","5826","","","","","","","","","<img src= ""rock_img/I_Peridotite_02.jpg"" style=""width:8cm; height:5.859999999999999cm;""><p>What type of rock is this?</p>","3","class_response","1","test","24","Gabbro","Peridotite","02","false","4","7","",""
"","","","","","","","","","","","html-keyboard-response","252","2.0.0","701340","670fd04ebdeb4aba9822fd3c","2","2","null","","","","","","","","","<p style='font-size: 30px;'><strong>Okay</strong></p>","null","neutral_feedback","1","test","24","","","","","","","",""
"","","","","","","","","","","","html-button-response","253","2.0.0","703004","670fd04ebdeb4aba9822fd3c","2","2","1659","","","","","","","","","<img src= ""rock_img/I_Basalt_11.jpg"" style=""width:8cm; height:5.359999999999999cm;""><p>What type of rock is this?</p>","7","class_response","1","test","25","Pumice","Basalt","11","false","8","2","",""
"","","","","","","","","","","","html-keyboard-response","254","2.0.0","703522","670fd04ebdeb4aba9822fd3c","2","2","null","","","","","","","","","<p style='font-size: 30px;'><strong>Okay</strong></p>","null","neutral_feedback","1","test","25","","","","","","","",""
"","","","","","","","","","","","html-button-response","255","2.0.0","707585","670fd04ebdeb4aba9822fd3c","2","2","4058","","","","","","","","","<img src= ""rock_img/I_Pegmatite_16.jpg"" style=""width:8cm; height:5.8cm;""><p>What type of rock is this?</p>","3","class_response","1","test","26","Gabbro","Pegmatite","16","false","4","6","",""
"","","","","","","","","","","","html-keyboard-response","256","2.0.0","708096","670fd04ebdeb4aba9822fd3c","2","2","null","","","","","","","","","<p style='font-size: 30px;'><strong>Okay</strong></p>","null","neutral_feedback","1","test","26","","","","","","","",""
"","","","","","","","","","","","html-button-response","257","2.0.0","710520","670fd04ebdeb4aba9822fd3c","2","2","2419","","","","","","","","","<img src= ""rock_img/I_Gabbro_09.jpg"" style=""width:8cm; height:7.279999999999999cm;""><p>What type of rock is this?</p>","1","class_response","1","test","27","Basalt","Gabbro","09","false","2","4","",""
"","","","","","","","","","","","html-keyboard-response","258","2.0.0","711032","670fd04ebdeb4aba9822fd3c","2","2","null","","","","","","","","","<p style='font-size: 30px;'><strong>Okay</strong></p>","null","neutral_feedback","1","test","27","","","","","","","",""
"","","","","","","","","","","","html-button-response","259","2.0.0","713970","670fd04ebdeb4aba9822fd3c","2","2","2933","","","","","","","","","<img src= ""rock_img/I_Gabbro_03.jpg"" style=""width:8cm; height:8.52cm;""><p>What type of rock is this?</p>","1","class_response","1","test","28","Basalt","Gabbro","03","false","2","4","",""
"","","","","","","","","","","","html-keyboard-response","260","2.0.0","714489","670fd04ebdeb4aba9822fd3c","2","2","null","","","","","","","","","<p style='font-size: 30px;'><strong>Okay</strong></p>","null","neutral_feedback","1","test","28","","","","","","","",""
"","","","","","","","","","","","html-button-response","261","2.0.0","717188","670fd04ebdeb4aba9822fd3c","2","2","2695","","","","","","","","","<img src= ""rock_img/I_Peridotite_07.jpg"" style=""width:8cm; height:4.83cm;""><p>What type of rock is this?</p>","2","class_response","1","test","29","Diorite","Peridotite","07","false","3","7","",""
"","","","","","","","","","","","html-keyboard-response","262","2.0.0","717704","670fd04ebdeb4aba9822fd3c","2","2","null","","","","","","","","","<p style='font-size: 30px;'><strong>Okay</strong></p>","null","neutral_feedback","1","test","29","","","","","","","",""
"","","","","","","","","","","","html-button-response","263","2.0.0","720668","670fd04ebdeb4aba9822fd3c","2","2","2959","","","","","","","","","<img src= ""rock_img/I_Obsidian_06.jpg"" style=""width:8cm; height:6.8cm;""><p>What type of rock is this?</p>","4","class_response","1","test","30","Obsidian","Obsidian","06","true","5","5","",""
"","","","","","","","","","","","html-keyboard-response","264","2.0.0","721181","670fd04ebdeb4aba9822fd3c","2","2","null","","","","","","","","","<p style='font-size: 30px;'><strong>Okay</strong></p>","null","neutral_feedback","1","test","30","","","","","","","",""
"","","","","","","","","","","","html-button-response","265","2.0.0","723120","670fd04ebdeb4aba9822fd3c","2","2","1934","","","","","","","","","<img src= ""rock_img/I_Pumice_02.jpg"" style=""width:8cm; height:7.3999999999999995cm;""><p>What type of rock is this?</p>","7","class_response","1","test","31","Pumice","Pumice","02","true","8","8","",""
"","","","","","","","","","","","html-keyboard-response","266","2.0.0","723630","670fd04ebdeb4aba9822fd3c","2","2","null","","","","","","","","","<p style='font-size: 30px;'><strong>Okay</strong></p>","null","neutral_feedback","1","test","31","","","","","","","",""
"","","","","","","","","","","","html-button-response","267","2.0.0","726534","670fd04ebdeb4aba9822fd3c","2","2","2899","","","","","","","","","<img src= ""rock_img/I_Pegmatite_07.jpg"" style=""width:8cm; height:6.7cm;""><p>What type of rock is this?</p>","3","class_response","1","test","32","Gabbro","Pegmatite","07","false","4","6","",""
"","","","","","","","","","","","html-keyboard-response","268","2.0.0","727047","670fd04ebdeb4aba9822fd3c","2","2","null","","","","","","","","","<p style='font-size: 30px;'><strong>Okay</strong></p>","null","neutral_feedback","1","test","32","","","","","","","",""
"","","","","","","","","","","","html-button-response","269","2.0.0","729284","670fd04ebdeb4aba9822fd3c","2","2","2233","","","","","","","","","<img src= ""rock_img/I_Diorite_02.jpg"" style=""width:8cm; height:6.27cm;""><p>What type of rock is this?</p>","2","class_response","1","test","33","Diorite","Diorite","02","true","3","3","",""
"","","","","","","","","","","","html-keyboard-response","270","2.0.0","729793","670fd04ebdeb4aba9822fd3c","2","2","null","","","","","","","","","<p style='font-size: 30px;'><strong>Okay</strong></p>","null","neutral_feedback","1","test","33","","","","","","","",""
"","","","","","","","","","","","html-button-response","271","2.0.0","731670","670fd04ebdeb4aba9822fd3c","2","2","1871","","","","","","","","","<img src= ""rock_img/I_Pumice_06.jpg"" style=""width:8cm; height:6.9399999999999995cm;""><p>What type of rock is this?</p>","7","class_response","1","test","34","Pumice","Pumice","06","true","8","8","",""
"","","","","","","","","","","","html-keyboard-response","272","2.0.0","732180","670fd04ebdeb4aba9822fd3c","2","2","null","","","","","","","","","<p style='font-size: 30px;'><strong>Okay</strong></p>","null","neutral_feedback","1","test","34","","","","","","","",""
"","","","","","","","","","","","html-button-response","273","2.0.0","736686","670fd04ebdeb4aba9822fd3c","2","2","4502","","","","","","","","","<img src= ""rock_img/I_Pegmatite_15.jpg"" style=""width:8cm; height:6cm;""><p>What type of rock is this?</p>","0","class_response","1","test","35","Andesite","Pegmatite","15","false","1","6","",""
"","","","","","","","","","","","html-keyboard-response","274","2.0.0","737193","670fd04ebdeb4aba9822fd3c","2","2","null","","","","","","","","","<p style='font-size: 30px;'><strong>Okay</strong></p>","null","neutral_feedback","1","test","35","","","","","","","",""
"","","","","","","","","","","","html-button-response","275","2.0.0","744887","670fd04ebdeb4aba9822fd3c","2","2","7690","","","","","","","","","<img src= ""rock_img/I_Andesite_03.jpg"" style=""width:8cm; height:5.73cm;""><p>What type of rock is this?</p>","1","class_response","1","test","36","Basalt","Andesite","03","false","2","1","",""
"","","","","","","","","","","","html-keyboard-response","276","2.0.0","745395","670fd04ebdeb4aba9822fd3c","2","2","null","","","","","","","","","<p style='font-size: 30px;'><strong>Okay</strong></p>","null","neutral_feedback","1","test","36","","","","","","","",""
"","","","","","","","","","","","html-button-response","277","2.0.0","747917","670fd04ebdeb4aba9822fd3c","2","2","2518","","","","","","","","","<img src= ""rock_img/I_Pegmatite_09.jpg"" style=""width:8cm; height:4.03cm;""><p>What type of rock is this?</p>","6","class_response","1","test","37","Peridotite","Pegmatite","09","false","7","6","",""
"","","","","","","","","","","","html-keyboard-response","278","2.0.0","748425","670fd04ebdeb4aba9822fd3c","2","2","null","","","","","","","","","<p style='font-size: 30px;'><strong>Okay</strong></p>","null","neutral_feedback","1","test","37","","","","","","","",""
"","","","","","","","","","","","html-button-response","279","2.0.0","752951","670fd04ebdeb4aba9822fd3c","2","2","4522","","","","","","","","","<img src= ""rock_img/I_Andesite_02.jpg"" style=""width:8cm; height:8.5cm;""><p>What type of rock is this?</p>","3","class_response","1","test","38","Gabbro","Andesite","02","false","4","1","",""
"","","","","","","","","","","","html-keyboard-response","280","2.0.0","753455","670fd04ebdeb4aba9822fd3c","2","2","null","","","","","","","","","<p style='font-size: 30px;'><strong>Okay</strong></p>","null","neutral_feedback","1","test","38","","","","","","","",""
"","","","","","","","","","","","html-button-response","281","2.0.0","756300","670fd04ebdeb4aba9822fd3c","2","2","2840","","","","","","","","","<img src= ""rock_img/I_Diorite_12.jpg"" style=""width:8cm; height:4.88cm;""><p>What type of rock is this?</p>","2","class_response","1","test","39","Diorite","Diorite","12","true","3","3","",""
"","","","","","","","","","","","html-keyboard-response","282","2.0.0","756811","670fd04ebdeb4aba9822fd3c","2","2","null","","","","","","","","","<p style='font-size: 30px;'><strong>Okay</strong></p>","null","neutral_feedback","1","test","39","","","","","","","",""
"","","","","","","","","","","","html-button-response","283","2.0.0","759534","670fd04ebdeb4aba9822fd3c","2","2","2718","","","","","","","","","<img src= ""rock_img/I_Peridotite_16.jpg"" style=""width:8cm; height:6.989999999999999cm;""><p>What type of rock is this?</p>","5","class_response","1","test","40","Pegmatite","Peridotite","16","false","6","7","",""
"","","","","","","","","","","","html-keyboard-response","284","2.0.0","760038","670fd04ebdeb4aba9822fd3c","2","2","null","","","","","","","","","<p style='font-size: 30px;'><strong>Okay</strong></p>","null","neutral_feedback","1","test","40","","","","","","","",""
"","","","","","","","","","","","html-button-response","285","2.0.0","761784","670fd04ebdeb4aba9822fd3c","2","2","1741","","","","","","","","","<img src= ""rock_img/I_Obsidian_05.jpg"" style=""width:8cm; height:6.33cm;""><p>What type of rock is this?</p>","4","class_response","1","test","41","Obsidian","Obsidian","05","true","5","5","",""
"","","","","","","","","","","","html-keyboard-response","286","2.0.0","762302","670fd04ebdeb4aba9822fd3c","2","2","null","","","","","","","","","<p style='font-size: 30px;'><strong>Okay</strong></p>","null","neutral_feedback","1","test","41","","","","","","","",""
"","","","","","","","","","","","html-button-response","287","2.0.0","768417","670fd04ebdeb4aba9822fd3c","2","2","6110","","","","","","","","","<img src= ""rock_img/I_Andesite_06.jpg"" style=""width:8cm; height:6.840000000000001cm;""><p>What type of rock is this?</p>","2","class_response","1","test","42","Diorite","Andesite","06","false","3","1","",""
"","","","","","","","","","","","html-keyboard-response","288","2.0.0","768933","670fd04ebdeb4aba9822fd3c","2","2","null","","","","","","","","","<p style='font-size: 30px;'><strong>Okay</strong></p>","null","neutral_feedback","1","test","42","","","","","","","",""
"","","","","","","","","","","","html-button-response","289","2.0.0","771767","670fd04ebdeb4aba9822fd3c","2","2","2829","","","","","","","","","<img src= ""rock_img/I_Diorite_09.jpg"" style=""width:8cm; height:5.27cm;""><p>What type of rock is this?</p>","3","class_response","1","test","43","Gabbro","Diorite","09","false","4","3","",""
"","","","","","","","","","","","html-keyboard-response","290","2.0.0","772283","670fd04ebdeb4aba9822fd3c","2","2","null","","","","","","","","","<p style='font-size: 30px;'><strong>Okay</strong></p>","null","neutral_feedback","1","test","43","","","","","","","",""
"","","","","","","","","","","","html-button-response","291","2.0.0","774361","670fd04ebdeb4aba9822fd3c","2","2","2074","","","","","","","","","<img src= ""rock_img/I_Basalt_08.jpg"" style=""width:8cm; height:10.44cm;""><p>What type of rock is this?</p>","1","class_response","1","test","44","Basalt","Basalt","08","true","2","2","",""
"","","","","","","","","","","","html-keyboard-response","292","2.0.0","774866","670fd04ebdeb4aba9822fd3c","2","2","null","","","","","","","","","<p style='font-size: 30px;'><strong>Okay</strong></p>","null","neutral_feedback","1","test","44","","","","","","","",""
"","","","","","","","","","","","html-button-response","293","2.0.0","776839","670fd04ebdeb4aba9822fd3c","2","2","1968","","","","","","","","","<img src= ""rock_img/I_Peridotite_12.jpg"" style=""width:8cm; height:4.54cm;""><p>What type of rock is this?</p>","7","class_response","1","test","45","Pumice","Peridotite","12","false","8","7","",""
"","","","","","","","","","","","html-keyboard-response","294","2.0.0","777351","670fd04ebdeb4aba9822fd3c","2","2","null","","","","","","","","","<p style='font-size: 30px;'><strong>Okay</strong></p>","null","neutral_feedback","1","test","45","","","","","","","",""
"","","","","","","","","","","","html-button-response","295","2.0.0","778537","670fd04ebdeb4aba9822fd3c","2","2","1180","","","","","","","","","<img src= ""rock_img/I_Pumice_14.jpg"" style=""width:8cm; height:6.39cm;""><p>What type of rock is this?</p>","7","class_response","1","test","46","Pumice","Pumice","14","true","8","8","",""
"","","","","","","","","","","","html-keyboard-response","296","2.0.0","779049","670fd04ebdeb4aba9822fd3c","2","2","null","","","","","","","","","<p style='font-size: 30px;'><strong>Okay</strong></p>","null","neutral_feedback","1","test","46","","","","","","","",""
"","","","","","","","","","","","html-button-response","297","2.0.0","784533","670fd04ebdeb4aba9822fd3c","2","2","5479","","","","","","","","","<img src= ""rock_img/I_Pegmatite_08.jpg"" style=""width:8cm; height:7.68cm;""><p>What type of rock is this?</p>","2","class_response","1","test","47","Diorite","Pegmatite","08","false","3","6","",""
"","","","","","","","","","","","html-keyboard-response","298","2.0.0","785049","670fd04ebdeb4aba9822fd3c","2","2","null","","","","","","","","","<p style='font-size: 30px;'><strong>Okay</strong></p>","null","neutral_feedback","1","test","47","","","","","","","",""
"","","","","","","","","","","","html-button-response","299","2.0.0","790201","670fd04ebdeb4aba9822fd3c","2","2","5147","","","","","","","","","<img src= ""rock_img/I_Gabbro_08.jpg"" style=""width:8cm; height:5.15cm;""><p>What type of rock is this?</p>","3","class_response","1","test","48","Gabbro","Gabbro","08","true","4","4","",""
"","","","","","","","","","","","html-keyboard-response","300","2.0.0","790718","670fd04ebdeb4aba9822fd3c","2","2","null","","","","","","","","","<p style='font-size: 30px;'><strong>Okay</strong></p>","null","neutral_feedback","1","test","48","","","","","","","",""
"","","","","","","","","","","","html-button-response","301","2.0.0","815763","670fd04ebdeb4aba9822fd3c","2","2","","","","","","","","","","","","cycle_feedback","","","","","","","","","","11593.699999988079","13429.600000023842"
"","","","","","","","","","","","html-button-response","303","2.0.0","817890","670fd04ebdeb4aba9822fd3c","2","2","2122","","","","","","","","","","0","start_train","","","","","","","","","","",""
"","","","","","","","","","","","html-button-response","304","2.0.0","824333","670fd04ebdeb4aba9822fd3c","2","2","6436","","","","","","","","","<img src= ""rock_img/I_Pegmatite_11.jpg"" style=""width:8cm; height:8.14cm;""><p>What type of rock is this?</p>","3","class_response","2","train","1","Gabbro","Pegmatite","11","false","4","6","",""
"","","","","","","","","","","","html-button-response","305","2.0.0","841675","670fd04ebdeb4aba9822fd3c","2","2","17337","","","","","","","","","<img src= rock_img/I_Pegmatite_11.jpg style=""width:8cm; height:8.14cm;""><p style='font-size: 30px; color: red;'><strong>Incorrect!</strong></p><p style='font-size: 30px;'><strong>This rock is pegmatite</strong></p>","0","corr_feedback","2","train","1","","","","","","","",""
