width,height,webaudio,browser,browser_version,mobile,os,fullscreen,vsync_rate,webcam,microphone,trial_type,trial_index,plugin_version,time_elapsed,subjID,condition,stimID,rt,url,success,value,timeout,failed_images,failed_audio,failed_video,view_history,stimulus,response,trialType,cycle,phase,trial,resp,cat,token,corr,resp_num,cat_num,time_fb1,time_fb2
1920,884,TRUE,firefox,132.0.0,FALSE,Windows 10,TRUE,60.24,TRUE,TRUE,browser-check,0,2.0.0,1037,660ff598a3391e9b7d8feab4,2,30,,,,,,,,,,,,,,,,,,,,,,,
,,,,,,,,,,,external-html,1,2.0.0,6423,660ff598a3391e9b7d8feab4,2,30,5295,consent_form.html,,,,,,,,,,,,,,,,,,,,,
,,,,,,,,,,,fullscreen,2,2.0.0,11493,660ff598a3391e9b7d8feab4,2,30,3953,,TRUE,,,,,,,,,,,,,,,,,,,,
,,,,,,,,,,,call-function,3,2.0.0,11497,660ff598a3391e9b7d8feab4,2,30,,,,{},,,,,,,,,,,,,,,,,,,
,,,,,,,,,,,preload,4,2.0.0,13644,660ff598a3391e9b7d8feab4,2,30,,,TRUE,,FALSE,[],[],[],,,,,,,,,,,,,,,
,,,,,,,,,,,instructions,5,2.0.0,117507,660ff598a3391e9b7d8feab4,2,30,103858,,,,,,,,"[{""page_index"":0,""viewing_time"":12505},{""page_index"":1,""viewing_time"":76369},{""page_index"":2,""viewing_time"":14984}]",,,,,,,,,,,,,,
,,,,,,,,,,,html-button-response,6,2.0.0,124711,660ff598a3391e9b7d8feab4,2,30,7197,,,,,,,,,,0,start_test,,,,,,,,,,,
,,,,,,,,,,,html-button-response,7,2.0.0,132751,660ff598a3391e9b7d8feab4,2,30,8032,,,,,,,,,"<img src= ""rock_img/I_Pumice_16.jpg"" style=""width:8cm; height:6.79cm;""><p>What type of rock is this?</p>",1,class_response,0,test,1,Basalt,Pumice,16,FALSE,2,8,,
,,,,,,,,,,,html-keyboard-response,8,2.0.0,133331,660ff598a3391e9b7d8feab4,2,30,null,,,,,,,,,<p style='font-size: 30px;'><strong>Okay</strong></p>,null,neutral_feedback,0,test,1,,,,,,,,
,,,,,,,,,,,html-button-response,9,2.0.0,136768,660ff598a3391e9b7d8feab4,2,30,3433,,,,,,,,,"<img src= ""rock_img/I_Basalt_16.jpg"" style=""width:8cm; height:7.659999999999999cm;""><p>What type of rock is this?</p>",6,class_response,0,test,2,Peridotite,Basalt,16,FALSE,7,2,,
,,,,,,,,,,,html-keyboard-response,10,2.0.0,137295,660ff598a3391e9b7d8feab4,2,30,null,,,,,,,,,<p style='font-size: 30px;'><strong>Okay</strong></p>,null,neutral_feedback,0,test,2,,,,,,,,
,,,,,,,,,,,html-button-response,11,2.0.0,140903,660ff598a3391e9b7d8feab4,2,30,3607,,,,,,,,,"<img src= ""rock_img/I_Pegmatite_11.jpg"" style=""width:8cm; height:8.14cm;""><p>What type of rock is this?</p>",0,class_response,0,test,3,Andesite,Pegmatite,11,FALSE,1,6,,
,,,,,,,,,,,html-keyboard-response,12,2.0.0,141413,660ff598a3391e9b7d8feab4,2,30,null,,,,,,,,,<p style='font-size: 30px;'><strong>Okay</strong></p>,null,neutral_feedback,0,test,3,,,,,,,,
,,,,,,,,,,,html-button-response,13,2.0.0,146839,660ff598a3391e9b7d8feab4,2,30,5424,,,,,,,,,"<img src= ""rock_img/I_Diorite_14.jpg"" style=""width:8cm; height:5.71cm;""><p>What type of rock is this?</p>",1,class_response,0,test,4,Basalt,Diorite,14,FALSE,2,3,,
,,,,,,,,,,,html-keyboard-response,14,2.0.0,147346,660ff598a3391e9b7d8feab4,2,30,null,,,,,,,,,<p style='font-size: 30px;'><strong>Okay</strong></p>,null,neutral_feedback,0,test,4,,,,,,,,
,,,,,,,,,,,html-button-response,15,2.0.0,149591,660ff598a3391e9b7d8feab4,2,30,2243,,,,,,,,,"<img src= ""rock_img/I_Gabbro_10.jpg"" style=""width:8cm; height:5.680000000000001cm;""><p>What type of rock is this?</p>",4,class_response,0,test,5,Obsidian,Gabbro,10,FALSE,5,4,,
,,,,,,,,,,,html-keyboard-response,16,2.0.0,150099,660ff598a3391e9b7d8feab4,2,30,null,,,,,,,,,<p style='font-size: 30px;'><strong>Okay</strong></p>,null,neutral_feedback,0,test,5,,,,,,,,
,,,,,,,,,,,html-button-response,17,2.0.0,151958,660ff598a3391e9b7d8feab4,2,30,1857,,,,,,,,,"<img src= ""rock_img/I_Gabbro_05.jpg"" style=""width:8cm; height:6cm;""><p>What type of rock is this?</p>",2,class_response,0,test,6,Diorite,Gabbro,5,FALSE,3,4,,
,,,,,,,,,,,html-keyboard-response,18,2.0.0,152504,660ff598a3391e9b7d8feab4,2,30,null,,,,,,,,,<p style='font-size: 30px;'><strong>Okay</strong></p>,null,neutral_feedback,0,test,6,,,,,,,,
,,,,,,,,,,,html-button-response,19,2.0.0,155086,660ff598a3391e9b7d8feab4,2,30,2581,,,,,,,,,"<img src= ""rock_img/I_Peridotite_16.jpg"" style=""width:8cm; height:6.989999999999999cm;""><p>What type of rock is this?</p>",5,class_response,0,test,7,Pegmatite,Peridotite,16,FALSE,6,7,,
,,,,,,,,,,,html-keyboard-response,20,2.0.0,155588,660ff598a3391e9b7d8feab4,2,30,null,,,,,,,,,<p style='font-size: 30px;'><strong>Okay</strong></p>,null,neutral_feedback,0,test,7,,,,,,,,
,,,,,,,,,,,html-button-response,21,2.0.0,158781,660ff598a3391e9b7d8feab4,2,30,3192,,,,,,,,,"<img src= ""rock_img/I_Obsidian_06.jpg"" style=""width:8cm; height:6.8cm;""><p>What type of rock is this?</p>",3,class_response,0,test,8,Gabbro,Obsidian,6,FALSE,4,5,,
,,,,,,,,,,,html-keyboard-response,22,2.0.0,159289,660ff598a3391e9b7d8feab4,2,30,null,,,,,,,,,<p style='font-size: 30px;'><strong>Okay</strong></p>,null,neutral_feedback,0,test,8,,,,,,,,
,,,,,,,,,,,html-button-response,23,2.0.0,165631,660ff598a3391e9b7d8feab4,2,30,6341,,,,,,,,,"<img src= ""rock_img/I_Peridotite_04.jpg"" style=""width:8cm; height:6.680000000000001cm;""><p>What type of rock is this?</p>",0,class_response,0,test,9,Andesite,Peridotite,4,FALSE,1,7,,
,,,,,,,,,,,html-keyboard-response,24,2.0.0,166137,660ff598a3391e9b7d8feab4,2,30,null,,,,,,,,,<p style='font-size: 30px;'><strong>Okay</strong></p>,null,neutral_feedback,0,test,9,,,,,,,,
,,,,,,,,,,,html-button-response,25,2.0.0,168838,660ff598a3391e9b7d8feab4,2,30,2698,,,,,,,,,"<img src= ""rock_img/I_Andesite_05.jpg"" style=""width:8cm; height:4.12cm;""><p>What type of rock is this?</p>",6,class_response,0,test,10,Peridotite,Andesite,5,FALSE,7,1,,
,,,,,,,,,,,html-keyboard-response,26,2.0.0,169341,660ff598a3391e9b7d8feab4,2,30,null,,,,,,,,,<p style='font-size: 30px;'><strong>Okay</strong></p>,null,neutral_feedback,0,test,10,,,,,,,,
,,,,,,,,,,,html-button-response,27,2.0.0,173469,660ff598a3391e9b7d8feab4,2,30,4127,,,,,,,,,"<img src= ""rock_img/I_Peridotite_05.jpg"" style=""width:8cm; height:7.1499999999999995cm;""><p>What type of rock is this?</p>",1,class_response,0,test,11,Basalt,Peridotite,5,FALSE,2,7,,
,,,,,,,,,,,html-keyboard-response,28,2.0.0,173975,660ff598a3391e9b7d8feab4,2,30,null,,,,,,,,,<p style='font-size: 30px;'><strong>Okay</strong></p>,null,neutral_feedback,0,test,11,,,,,,,,
,,,,,,,,,,,html-button-response,29,2.0.0,175965,660ff598a3391e9b7d8feab4,2,30,1988,,,,,,,,,"<img src= ""rock_img/I_Pegmatite_07.jpg"" style=""width:8cm; height:6.7cm;""><p>What type of rock is this?</p>",0,class_response,0,test,12,Andesite,Pegmatite,7,FALSE,1,6,,
,,,,,,,,,,,html-keyboard-response,30,2.0.0,176467,660ff598a3391e9b7d8feab4,2,30,null,,,,,,,,,<p style='font-size: 30px;'><strong>Okay</strong></p>,null,neutral_feedback,0,test,12,,,,,,,,
,,,,,,,,,,,html-button-response,31,2.0.0,179863,660ff598a3391e9b7d8feab4,2,30,3393,,,,,,,,,"<img src= ""rock_img/I_Obsidian_07.jpg"" style=""width:8cm; height:4.76cm;""><p>What type of rock is this?</p>",3,class_response,0,test,13,Gabbro,Obsidian,7,FALSE,4,5,,
,,,,,,,,,,,html-keyboard-response,32,2.0.0,180372,660ff598a3391e9b7d8feab4,2,30,null,,,,,,,,,<p style='font-size: 30px;'><strong>Okay</strong></p>,null,neutral_feedback,0,test,13,,,,,,,,
,,,,,,,,,,,html-button-response,33,2.0.0,182566,660ff598a3391e9b7d8feab4,2,30,2193,,,,,,,,,"<img src= ""rock_img/I_Peridotite_02.jpg"" style=""width:8cm; height:5.859999999999999cm;""><p>What type of rock is this?</p>",2,class_response,0,test,14,Diorite,Peridotite,2,FALSE,3,7,,
,,,,,,,,,,,html-keyboard-response,34,2.0.0,183070,660ff598a3391e9b7d8feab4,2,30,null,,,,,,,,,<p style='font-size: 30px;'><strong>Okay</strong></p>,null,neutral_feedback,0,test,14,,,,,,,,
,,,,,,,,,,,html-button-response,35,2.0.0,185079,660ff598a3391e9b7d8feab4,2,30,2009,,,,,,,,,"<img src= ""rock_img/I_Pegmatite_15.jpg"" style=""width:8cm; height:6cm;""><p>What type of rock is this?</p>",4,class_response,0,test,15,Obsidian,Pegmatite,15,FALSE,5,6,,
,,,,,,,,,,,html-keyboard-response,36,2.0.0,185589,660ff598a3391e9b7d8feab4,2,30,null,,,,,,,,,<p style='font-size: 30px;'><strong>Okay</strong></p>,null,neutral_feedback,0,test,15,,,,,,,,
,,,,,,,,,,,html-button-response,37,2.0.0,187471,660ff598a3391e9b7d8feab4,2,30,1880,,,,,,,,,"<img src= ""rock_img/I_Pumice_02.jpg"" style=""width:8cm; height:7.3999999999999995cm;""><p>What type of rock is this?</p>",6,class_response,0,test,16,Peridotite,Pumice,2,FALSE,7,8,,
,,,,,,,,,,,html-keyboard-response,38,2.0.0,187981,660ff598a3391e9b7d8feab4,2,30,null,,,,,,,,,<p style='font-size: 30px;'><strong>Okay</strong></p>,null,neutral_feedback,0,test,16,,,,,,,,
,,,,,,,,,,,html-button-response,39,2.0.0,191214,660ff598a3391e9b7d8feab4,2,30,3232,,,,,,,,,"<img src= ""rock_img/I_Basalt_02.jpg"" style=""width:8cm; height:6.45cm;""><p>What type of rock is this?</p>",7,class_response,0,test,17,Pumice,Basalt,2,FALSE,8,2,,
,,,,,,,,,,,html-keyboard-response,40,2.0.0,191717,660ff598a3391e9b7d8feab4,2,30,null,,,,,,,,,<p style='font-size: 30px;'><strong>Okay</strong></p>,null,neutral_feedback,0,test,17,,,,,,,,
,,,,,,,,,,,html-button-response,41,2.0.0,194087,660ff598a3391e9b7d8feab4,2,30,2368,,,,,,,,,"<img src= ""rock_img/I_Gabbro_09.jpg"" style=""width:8cm; height:7.279999999999999cm;""><p>What type of rock is this?</p>",1,class_response,0,test,18,Basalt,Gabbro,9,FALSE,2,4,,
,,,,,,,,,,,html-keyboard-response,42,2.0.0,194598,660ff598a3391e9b7d8feab4,2,30,null,,,,,,,,,<p style='font-size: 30px;'><strong>Okay</strong></p>,null,neutral_feedback,0,test,18,,,,,,,,
,,,,,,,,,,,html-button-response,43,2.0.0,198638,660ff598a3391e9b7d8feab4,2,30,4039,,,,,,,,,"<img src= ""rock_img/I_Basalt_05.jpg"" style=""width:8cm; height:8.18cm;""><p>What type of rock is this?</p>",0,class_response,0,test,19,Andesite,Basalt,5,FALSE,1,2,,
,,,,,,,,,,,html-keyboard-response,44,2.0.0,199150,660ff598a3391e9b7d8feab4,2,30,null,,,,,,,,,<p style='font-size: 30px;'><strong>Okay</strong></p>,null,neutral_feedback,0,test,19,,,,,,,,
,,,,,,,,,,,html-button-response,45,2.0.0,213583,660ff598a3391e9b7d8feab4,2,30,14431,,,,,,,,,"<img src= ""rock_img/I_Andesite_03.jpg"" style=""width:8cm; height:5.73cm;""><p>What type of rock is this?</p>",0,class_response,0,test,20,Andesite,Andesite,3,TRUE,1,1,,
,,,,,,,,,,,html-keyboard-response,46,2.0.0,214086,660ff598a3391e9b7d8feab4,2,30,null,,,,,,,,,<p style='font-size: 30px;'><strong>Okay</strong></p>,null,neutral_feedback,0,test,20,,,,,,,,
,,,,,,,,,,,html-button-response,47,2.0.0,217383,660ff598a3391e9b7d8feab4,2,30,3295,,,,,,,,,"<img src= ""rock_img/I_Basalt_04.jpg"" style=""width:8cm; height:7.53cm;""><p>What type of rock is this?</p>",1,class_response,0,test,21,Basalt,Basalt,4,TRUE,2,2,,
,,,,,,,,,,,html-keyboard-response,48,2.0.0,217889,660ff598a3391e9b7d8feab4,2,30,null,,,,,,,,,<p style='font-size: 30px;'><strong>Okay</strong></p>,null,neutral_feedback,0,test,21,,,,,,,,
,,,,,,,,,,,html-button-response,49,2.0.0,220439,660ff598a3391e9b7d8feab4,2,30,2548,,,,,,,,,"<img src= ""rock_img/I_Andesite_02.jpg"" style=""width:8cm; height:8.5cm;""><p>What type of rock is this?</p>",2,class_response,0,test,22,Diorite,Andesite,2,FALSE,3,1,,
,,,,,,,,,,,html-keyboard-response,50,2.0.0,220946,660ff598a3391e9b7d8feab4,2,30,null,,,,,,,,,<p style='font-size: 30px;'><strong>Okay</strong></p>,null,neutral_feedback,0,test,22,,,,,,,,
,,,,,,,,,,,html-button-response,51,2.0.0,222950,660ff598a3391e9b7d8feab4,2,30,2002,,,,,,,,,"<img src= ""rock_img/I_Pegmatite_06.jpg"" style=""width:8cm; height:5.17cm;""><p>What type of rock is this?</p>",0,class_response,0,test,23,Andesite,Pegmatite,6,FALSE,1,6,,
,,,,,,,,,,,html-keyboard-response,52,2.0.0,223464,660ff598a3391e9b7d8feab4,2,30,null,,,,,,,,,<p style='font-size: 30px;'><strong>Okay</strong></p>,null,neutral_feedback,0,test,23,,,,,,,,
,,,,,,,,,,,html-button-response,53,2.0.0,225695,660ff598a3391e9b7d8feab4,2,30,2229,,,,,,,,,"<img src= ""rock_img/I_Obsidian_14.jpg"" style=""width:8cm; height:7.64cm;""><p>What type of rock is this?</p>",2,class_response,0,test,24,Diorite,Obsidian,14,FALSE,3,5,,
,,,,,,,,,,,html-keyboard-response,54,2.0.0,226197,660ff598a3391e9b7d8feab4,2,30,null,,,,,,,,,<p style='font-size: 30px;'><strong>Okay</strong></p>,null,neutral_feedback,0,test,24,,,,,,,,
,,,,,,,,,,,html-button-response,55,2.0.0,227760,660ff598a3391e9b7d8feab4,2,30,1558,,,,,,,,,"<img src= ""rock_img/I_Gabbro_15.jpg"" style=""width:8cm; height:6.29cm;""><p>What type of rock is this?</p>",0,class_response,0,test,25,Andesite,Gabbro,15,FALSE,1,4,,
,,,,,,,,,,,html-keyboard-response,56,2.0.0,228264,660ff598a3391e9b7d8feab4,2,30,null,,,,,,,,,<p style='font-size: 30px;'><strong>Okay</strong></p>,null,neutral_feedback,0,test,25,,,,,,,,
,,,,,,,,,,,html-button-response,57,2.0.0,231911,660ff598a3391e9b7d8feab4,2,30,3646,,,,,,,,,"<img src= ""rock_img/I_Basalt_09.jpg"" style=""width:8cm; height:6.2cm;""><p>What type of rock is this?</p>",7,class_response,0,test,26,Pumice,Basalt,9,FALSE,8,2,,
,,,,,,,,,,,html-keyboard-response,58,2.0.0,232423,660ff598a3391e9b7d8feab4,2,30,null,,,,,,,,,<p style='font-size: 30px;'><strong>Okay</strong></p>,null,neutral_feedback,0,test,26,,,,,,,,
,,,,,,,,,,,html-button-response,59,2.0.0,233893,660ff598a3391e9b7d8feab4,2,30,1468,,,,,,,,,"<img src= ""rock_img/I_Pumice_06.jpg"" style=""width:8cm; height:6.9399999999999995cm;""><p>What type of rock is this?</p>",6,class_response,0,test,27,Peridotite,Pumice,6,FALSE,7,8,,
,,,,,,,,,,,html-keyboard-response,60,2.0.0,234452,660ff598a3391e9b7d8feab4,2,30,null,,,,,,,,,<p style='font-size: 30px;'><strong>Okay</strong></p>,null,neutral_feedback,0,test,27,,,,,,,,
,,,,,,,,,,,html-button-response,61,2.0.0,236655,660ff598a3391e9b7d8feab4,2,30,2201,,,,,,,,,"<img src= ""rock_img/I_Andesite_11.jpg"" style=""width:8cm; height:4.92cm;""><p>What type of rock is this?</p>",2,class_response,0,test,28,Diorite,Andesite,11,FALSE,3,1,,
,,,,,,,,,,,html-keyboard-response,62,2.0.0,237158,660ff598a3391e9b7d8feab4,2,30,null,,,,,,,,,<p style='font-size: 30px;'><strong>Okay</strong></p>,null,neutral_feedback,0,test,28,,,,,,,,
,,,,,,,,,,,html-button-response,63,2.0.0,238558,660ff598a3391e9b7d8feab4,2,30,1400,,,,,,,,,"<img src= ""rock_img/I_Pumice_05.jpg"" style=""width:8cm; height:7.25cm;""><p>What type of rock is this?</p>",3,class_response,0,test,29,Gabbro,Pumice,5,FALSE,4,8,,
,,,,,,,,,,,html-keyboard-response,64,2.0.0,239070,660ff598a3391e9b7d8feab4,2,30,null,,,,,,,,,<p style='font-size: 30px;'><strong>Okay</strong></p>,null,neutral_feedback,0,test,29,,,,,,,,
,,,,,,,,,,,html-button-response,65,2.0.0,240190,660ff598a3391e9b7d8feab4,2,30,1119,,,,,,,,,"<img src= ""rock_img/I_Peridotite_07.jpg"" style=""width:8cm; height:4.83cm;""><p>What type of rock is this?</p>",5,class_response,0,test,30,Pegmatite,Peridotite,7,FALSE,6,7,,
,,,,,,,,,,,html-keyboard-response,66,2.0.0,240741,660ff598a3391e9b7d8feab4,2,30,null,,,,,,,,,<p style='font-size: 30px;'><strong>Okay</strong></p>,null,neutral_feedback,0,test,30,,,,,,,,
,,,,,,,,,,,html-button-response,67,2.0.0,242399,660ff598a3391e9b7d8feab4,2,30,1656,,,,,,,,,"<img src= ""rock_img/I_Diorite_13.jpg"" style=""width:8cm; height:6.29cm;""><p>What type of rock is this?</p>",0,class_response,0,test,31,Andesite,Diorite,13,FALSE,1,3,,
,,,,,,,,,,,html-keyboard-response,68,2.0.0,242917,660ff598a3391e9b7d8feab4,2,30,null,,,,,,,,,<p style='font-size: 30px;'><strong>Okay</strong></p>,null,neutral_feedback,0,test,31,,,,,,,,
,,,,,,,,,,,html-button-response,69,2.0.0,243957,660ff598a3391e9b7d8feab4,2,30,1038,,,,,,,,,"<img src= ""rock_img/I_Obsidian_09.jpg"" style=""width:8cm; height:5cm;""><p>What type of rock is this?</p>",4,class_response,0,test,32,Obsidian,Obsidian,9,TRUE,5,5,,
,,,,,,,,,,,html-keyboard-response,70,2.0.0,244472,660ff598a3391e9b7d8feab4,2,30,null,,,,,,,,,<p style='font-size: 30px;'><strong>Okay</strong></p>,null,neutral_feedback,0,test,32,,,,,,,,
,,,,,,,,,,,html-button-response,71,2.0.0,245974,660ff598a3391e9b7d8feab4,2,30,1501,,,,,,,,,"<img src= ""rock_img/I_Obsidian_16.jpg"" style=""width:8cm; height:9.3cm;""><p>What type of rock is this?</p>",1,class_response,0,test,33,Basalt,Obsidian,16,FALSE,2,5,,
,,,,,,,,,,,html-keyboard-response,72,2.0.0,246480,660ff598a3391e9b7d8feab4,2,30,null,,,,,,,,,<p style='font-size: 30px;'><strong>Okay</strong></p>,null,neutral_feedback,0,test,33,,,,,,,,
,,,,,,,,,,,html-button-response,73,2.0.0,248990,660ff598a3391e9b7d8feab4,2,30,2509,,,,,,,,,"<img src= ""rock_img/I_Gabbro_12.jpg"" style=""width:8cm; height:7.800000000000001cm;""><p>What type of rock is this?</p>",6,class_response,0,test,34,Peridotite,Gabbro,12,FALSE,7,4,,
,,,,,,,,,,,html-keyboard-response,74,2.0.0,249494,660ff598a3391e9b7d8feab4,2,30,null,,,,,,,,,<p style='font-size: 30px;'><strong>Okay</strong></p>,null,neutral_feedback,0,test,34,,,,,,,,
,,,,,,,,,,,html-button-response,75,2.0.0,251238,660ff598a3391e9b7d8feab4,2,30,1744,,,,,,,,,"<img src= ""rock_img/I_Gabbro_11.jpg"" style=""width:8cm; height:6.2cm;""><p>What type of rock is this?</p>",2,class_response,0,test,35,Diorite,Gabbro,11,FALSE,3,4,,
,,,,,,,,,,,html-keyboard-response,76,2.0.0,251751,660ff598a3391e9b7d8feab4,2,30,null,,,,,,,,,<p style='font-size: 30px;'><strong>Okay</strong></p>,null,neutral_feedback,0,test,35,,,,,,,,
,,,,,,,,,,,html-button-response,77,2.0.0,253838,660ff598a3391e9b7d8feab4,2,30,2085,,,,,,,,,"<img src= ""rock_img/I_Pumice_13.jpg"" style=""width:8cm; height:8.200000000000001cm;""><p>What type of rock is this?</p>",1,class_response,0,test,36,Basalt,Pumice,13,FALSE,2,8,,
,,,,,,,,,,,html-keyboard-response,78,2.0.0,254348,660ff598a3391e9b7d8feab4,2,30,null,,,,,,,,,<p style='font-size: 30px;'><strong>Okay</strong></p>,null,neutral_feedback,0,test,36,,,,,,,,
,,,,,,,,,,,html-button-response,79,2.0.0,256623,660ff598a3391e9b7d8feab4,2,30,2274,,,,,,,,,"<img src= ""rock_img/I_Pegmatite_09.jpg"" style=""width:8cm; height:4.03cm;""><p>What type of rock is this?</p>",2,class_response,0,test,37,Diorite,Pegmatite,9,FALSE,3,6,,
,,,,,,,,,,,html-keyboard-response,80,2.0.0,257189,660ff598a3391e9b7d8feab4,2,30,null,,,,,,,,,<p style='font-size: 30px;'><strong>Okay</strong></p>,null,neutral_feedback,0,test,37,,,,,,,,
,,,,,,,,,,,html-button-response,81,2.0.0,259766,660ff598a3391e9b7d8feab4,2,30,2577,,,,,,,,,"<img src= ""rock_img/I_Pumice_15.jpg"" style=""width:8cm; height:7.86cm;""><p>What type of rock is this?</p>",7,class_response,0,test,38,Pumice,Pumice,15,TRUE,8,8,,
,,,,,,,,,,,html-keyboard-response,82,2.0.0,260275,660ff598a3391e9b7d8feab4,2,30,null,,,,,,,,,<p style='font-size: 30px;'><strong>Okay</strong></p>,null,neutral_feedback,0,test,38,,,,,,,,
,,,,,,,,,,,html-button-response,83,2.0.0,262989,660ff598a3391e9b7d8feab4,2,30,2712,,,,,,,,,"<img src= ""rock_img/I_Diorite_16.jpg"" style=""width:8cm; height:6.74cm;""><p>What type of rock is this?</p>",6,class_response,0,test,39,Peridotite,Diorite,16,FALSE,7,3,,
,,,,,,,,,,,html-keyboard-response,84,2.0.0,263505,660ff598a3391e9b7d8feab4,2,30,null,,,,,,,,,<p style='font-size: 30px;'><strong>Okay</strong></p>,null,neutral_feedback,0,test,39,,,,,,,,
,,,,,,,,,,,html-button-response,85,2.0.0,264662,660ff598a3391e9b7d8feab4,2,30,1155,,,,,,,,,"<img src= ""rock_img/I_Peridotite_15.jpg"" style=""width:8cm; height:6cm;""><p>What type of rock is this?</p>",0,class_response,0,test,40,Andesite,Peridotite,15,FALSE,1,7,,
,,,,,,,,,,,html-keyboard-response,86,2.0.0,265229,660ff598a3391e9b7d8feab4,2,30,null,,,,,,,,,<p style='font-size: 30px;'><strong>Okay</strong></p>,null,neutral_feedback,0,test,40,,,,,,,,
,,,,,,,,,,,html-button-response,87,2.0.0,267558,660ff598a3391e9b7d8feab4,2,30,2327,,,,,,,,,"<img src= ""rock_img/I_Andesite_07.jpg"" style=""width:8cm; height:5.93cm;""><p>What type of rock is this?</p>",1,class_response,0,test,41,Basalt,Andesite,7,FALSE,2,1,,
,,,,,,,,,,,html-keyboard-response,88,2.0.0,268060,660ff598a3391e9b7d8feab4,2,30,null,,,,,,,,,<p style='font-size: 30px;'><strong>Okay</strong></p>,null,neutral_feedback,0,test,41,,,,,,,,
,,,,,,,,,,,html-button-response,89,2.0.0,269086,660ff598a3391e9b7d8feab4,2,30,1025,,,,,,,,,"<img src= ""rock_img/I_Basalt_06.jpg"" style=""width:8cm; height:7.06cm;""><p>What type of rock is this?</p>",4,class_response,0,test,42,Obsidian,Basalt,6,FALSE,5,2,,
,,,,,,,,,,,html-keyboard-response,90,2.0.0,269599,660ff598a3391e9b7d8feab4,2,30,null,,,,,,,,,<p style='font-size: 30px;'><strong>Okay</strong></p>,null,neutral_feedback,0,test,42,,,,,,,,
,,,,,,,,,,,html-button-response,91,2.0.0,270703,660ff598a3391e9b7d8feab4,2,30,1102,,,,,,,,,"<img src= ""rock_img/I_Diorite_09.jpg"" style=""width:8cm; height:5.27cm;""><p>What type of rock is this?</p>",2,class_response,0,test,43,Diorite,Diorite,9,TRUE,3,3,,
,,,,,,,,,,,html-keyboard-response,92,2.0.0,271213,660ff598a3391e9b7d8feab4,2,30,null,,,,,,,,,<p style='font-size: 30px;'><strong>Okay</strong></p>,null,neutral_feedback,0,test,43,,,,,,,,
,,,,,,,,,,,html-button-response,93,2.0.0,271766,660ff598a3391e9b7d8feab4,2,30,551,,,,,,,,,"<img src= ""rock_img/I_Diorite_02.jpg"" style=""width:8cm; height:6.27cm;""><p>What type of rock is this?</p>",5,class_response,0,test,44,Pegmatite,Diorite,2,FALSE,6,3,,
,,,,,,,,,,,html-keyboard-response,94,2.0.0,272273,660ff598a3391e9b7d8feab4,2,30,null,,,,,,,,,<p style='font-size: 30px;'><strong>Okay</strong></p>,null,neutral_feedback,0,test,44,,,,,,,,
,,,,,,,,,,,html-button-response,95,2.0.0,273230,660ff598a3391e9b7d8feab4,2,30,957,,,,,,,,,"<img src= ""rock_img/I_Pegmatite_05.jpg"" style=""width:8cm; height:7.300000000000001cm;""><p>What type of rock is this?</p>",7,class_response,0,test,45,Pumice,Pegmatite,5,FALSE,8,6,,
,,,,,,,,,,,html-keyboard-response,96,2.0.0,273738,660ff598a3391e9b7d8feab4,2,30,null,,,,,,,,,<p style='font-size: 30px;'><strong>Okay</strong></p>,null,neutral_feedback,0,test,45,,,,,,,,
,,,,,,,,,,,html-button-response,97,2.0.0,274231,660ff598a3391e9b7d8feab4,2,30,490,,,,,,,,,"<img src= ""rock_img/I_Andesite_16.jpg"" style=""width:8cm; height:6.010000000000001cm;""><p>What type of rock is this?</p>",0,class_response,0,test,46,Andesite,Andesite,16,TRUE,1,1,,
,,,,,,,,,,,html-keyboard-response,98,2.0.0,274735,660ff598a3391e9b7d8feab4,2,30,null,,,,,,,,,<p style='font-size: 30px;'><strong>Okay</strong></p>,null,neutral_feedback,0,test,46,,,,,,,,
,,,,,,,,,,,html-button-response,99,2.0.0,275335,660ff598a3391e9b7d8feab4,2,30,598,,,,,,,,,"<img src= ""rock_img/I_Obsidian_02.jpg"" style=""width:8cm; height:7.51cm;""><p>What type of rock is this?</p>",2,class_response,0,test,47,Diorite,Obsidian,2,FALSE,3,5,,
,,,,,,,,,,,html-keyboard-response,100,2.0.0,275845,660ff598a3391e9b7d8feab4,2,30,null,,,,,,,,,<p style='font-size: 30px;'><strong>Okay</strong></p>,null,neutral_feedback,0,test,47,,,,,,,,
,,,,,,,,,,,html-button-response,101,2.0.0,276279,660ff598a3391e9b7d8feab4,2,30,432,,,,,,,,,"<img src= ""rock_img/I_Diorite_08.jpg"" style=""width:8cm; height:6.37cm;""><p>What type of rock is this?</p>",3,class_response,0,test,48,Gabbro,Diorite,8,FALSE,4,3,,
,,,,,,,,,,,html-keyboard-response,102,2.0.0,276784,660ff598a3391e9b7d8feab4,2,30,null,,,,,,,,,<p style='font-size: 30px;'><strong>Okay</strong></p>,null,neutral_feedback,0,test,48,,,,,,,,
,,,,,,,,,,,instructions,103,2.0.0,318303,660ff598a3391e9b7d8feab4,2,30,41470,,,,,,,,"[{""page_index"":0,""viewing_time"":27126},{""page_index"":1,""viewing_time"":7641},{""page_index"":2,""viewing_time"":6703}]",,,,,,,,,,,,,,
,,,,,,,,,,,html-button-response,104,2.0.0,327143,660ff598a3391e9b7d8feab4,2,30,8838,,,,,,,,,,0,start_train,,,,,,,,,,,
,,,,,,,,,,,html-button-response,105,2.0.0,330231,660ff598a3391e9b7d8feab4,2,30,3087,,,,,,,,,"<img src= ""rock_img/I_Pegmatite_12.jpg"" style=""width:8cm; height:5.7cm;""><p>What type of rock is this?</p>",6,class_response,1,train,1,Peridotite,Pegmatite,12,FALSE,7,6,,
,,,,,,,,,,,html-button-response,106,2.0.0,334309,660ff598a3391e9b7d8feab4,2,30,4075,,,,,,,,,"<img src= rock_img/I_Pegmatite_12.jpg style=""width:8cm; height:5.7cm;""><p style='font-size: 30px; color: red;'><strong>Incorrect!</strong></p><p style='font-size: 30px;'><strong>This rock is pegmatite</strong></p>",0,corr_feedback,1,train,1,,,,,,,,
,,,,,,,,,,,html-button-response,107,2.0.0,336246,660ff598a3391e9b7d8feab4,2,30,1935,,,,,,,,,"<img src= ""rock_img/I_Obsidian_12.jpg"" style=""width:8cm; height:6.53cm;""><p>What type of rock is this?</p>",4,class_response,1,train,2,Obsidian,Obsidian,12,TRUE,5,5,,
,,,,,,,,,,,html-button-response,108,2.0.0,338183,660ff598a3391e9b7d8feab4,2,30,1935,,,,,,,,,"<img src= rock_img/I_Obsidian_12.jpg style=""width:8cm; height:6.53cm;""><p style='font-size: 30px; color: green;'><strong>Correct!</strong></p><p style='font-size: 30px;'><strong>This rock is obsidian</strong></p>",0,corr_feedback,1,train,2,,,,,,,,
,,,,,,,,,,,html-button-response,109,2.0.0,340760,660ff598a3391e9b7d8feab4,2,30,2574,,,,,,,,,"<img src= ""rock_img/I_Peridotite_06.jpg"" style=""width:8cm; height:7.53cm;""><p>What type of rock is this?</p>",0,class_response,1,train,3,Andesite,Peridotite,6,FALSE,1,7,,
,,,,,,,,,,,html-button-response,110,2.0.0,345934,660ff598a3391e9b7d8feab4,2,30,5173,,,,,,,,,"<img src= rock_img/I_Peridotite_06.jpg style=""width:8cm; height:7.53cm;""><p style='font-size: 30px; color: red;'><strong>Incorrect!</strong></p><p style='font-size: 30px;'><strong>This rock is peridotite</strong></p>",0,corr_feedback,1,train,3,,,,,,,,
,,,,,,,,,,,html-button-response,111,2.0.0,347407,660ff598a3391e9b7d8feab4,2,30,1469,,,,,,,,,"<img src= ""rock_img/I_Diorite_11.jpg"" style=""width:8cm; height:7.11cm;""><p>What type of rock is this?</p>",3,class_response,1,train,4,Gabbro,Diorite,11,FALSE,4,3,,
,,,,,,,,,,,html-button-response,112,2.0.0,350598,660ff598a3391e9b7d8feab4,2,30,3188,,,,,,,,,"<img src= rock_img/I_Diorite_11.jpg style=""width:8cm; height:7.11cm;""><p style='font-size: 30px; color: red;'><strong>Incorrect!</strong></p><p style='font-size: 30px;'><strong>This rock is diorite</strong></p>",0,corr_feedback,1,train,4,,,,,,,,
,,,,,,,,,,,html-button-response,113,2.0.0,352470,660ff598a3391e9b7d8feab4,2,30,1870,,,,,,,,,"<img src= ""rock_img/I_Basalt_14.jpg"" style=""width:8cm; height:5.82cm;""><p>What type of rock is this?</p>",4,class_response,1,train,5,Obsidian,Basalt,14,FALSE,5,2,,
,,,,,,,,,,,html-button-response,114,2.0.0,355334,660ff598a3391e9b7d8feab4,2,30,2862,,,,,,,,,"<img src= rock_img/I_Basalt_14.jpg style=""width:8cm; height:5.82cm;""><p style='font-size: 30px; color: red;'><strong>Incorrect!</strong></p><p style='font-size: 30px;'><strong>This rock is basalt</strong></p>",0,corr_feedback,1,train,5,,,,,,,,
,,,,,,,,,,,html-button-response,115,2.0.0,357102,660ff598a3391e9b7d8feab4,2,30,1765,,,,,,,,,"<img src= ""rock_img/I_Basalt_11.jpg"" style=""width:8cm; height:5.359999999999999cm;""><p>What type of rock is this?</p>",7,class_response,1,train,6,Pumice,Basalt,11,FALSE,8,2,,
,,,,,,,,,,,html-button-response,116,2.0.0,358566,660ff598a3391e9b7d8feab4,2,30,1460,,,,,,,,,"<img src= rock_img/I_Basalt_11.jpg style=""width:8cm; height:5.359999999999999cm;""><p style='font-size: 30px; color: red;'><strong>Incorrect!</strong></p><p style='font-size: 30px;'><strong>This rock is basalt</strong></p>",0,corr_feedback,1,train,6,,,,,,,,
,,,,,,,,,,,html-button-response,117,2.0.0,360183,660ff598a3391e9b7d8feab4,2,30,1614,,,,,,,,,"<img src= ""rock_img/I_Basalt_01.jpg"" style=""width:8cm; height:7.880000000000001cm;""><p>What type of rock is this?</p>",2,class_response,1,train,7,Diorite,Basalt,1,FALSE,3,2,,
,,,,,,,,,,,html-button-response,118,2.0.0,361566,660ff598a3391e9b7d8feab4,2,30,1382,,,,,,,,,"<img src= rock_img/I_Basalt_01.jpg style=""width:8cm; height:7.880000000000001cm;""><p style='font-size: 30px; color: red;'><strong>Incorrect!</strong></p><p style='font-size: 30px;'><strong>This rock is basalt</strong></p>",0,corr_feedback,1,train,7,,,,,,,,
,,,,,,,,,,,html-button-response,119,2.0.0,363990,660ff598a3391e9b7d8feab4,2,30,2422,,,,,,,,,"<img src= ""rock_img/I_Basalt_12.jpg"" style=""width:8cm; height:6.010000000000001cm;""><p>What type of rock is this?</p>",5,class_response,1,train,8,Pegmatite,Basalt,12,FALSE,6,2,,
,,,,,,,,,,,html-button-response,120,2.0.0,365303,660ff598a3391e9b7d8feab4,2,30,1310,,,,,,,,,"<img src= rock_img/I_Basalt_12.jpg style=""width:8cm; height:6.010000000000001cm;""><p style='font-size: 30px; color: red;'><strong>Incorrect!</strong></p><p style='font-size: 30px;'><strong>This rock is basalt</strong></p>",0,corr_feedback,1,train,8,,,,,,,,
,,,,,,,,,,,html-button-response,121,2.0.0,366903,660ff598a3391e9b7d8feab4,2,30,1598,,,,,,,,,"<img src= ""rock_img/I_Andesite_06.jpg"" style=""width:8cm; height:6.840000000000001cm;""><p>What type of rock is this?</p>",3,class_response,1,train,9,Gabbro,Andesite,6,FALSE,4,1,,
,,,,,,,,,,,html-button-response,122,2.0.0,368054,660ff598a3391e9b7d8feab4,2,30,1148,,,,,,,,,"<img src= rock_img/I_Andesite_06.jpg style=""width:8cm; height:6.840000000000001cm;""><p style='font-size: 30px; color: red;'><strong>Incorrect!</strong></p><p style='font-size: 30px;'><strong>This rock is andesite</strong></p>",0,corr_feedback,1,train,9,,,,,,,,
,,,,,,,,,,,html-button-response,123,2.0.0,370774,660ff598a3391e9b7d8feab4,2,30,2718,,,,,,,,,"<img src= ""rock_img/I_Pumice_08.jpg"" style=""width:8cm; height:6.67cm;""><p>What type of rock is this?</p>",1,class_response,1,train,10,Basalt,Pumice,8,FALSE,2,8,,
,,,,,,,,,,,html-button-response,124,2.0.0,371854,660ff598a3391e9b7d8feab4,2,30,1078,,,,,,,,,"<img src= rock_img/I_Pumice_08.jpg style=""width:8cm; height:6.67cm;""><p style='font-size: 30px; color: red;'><strong>Incorrect!</strong></p><p style='font-size: 30px;'><strong>This rock is pumice</strong></p>",0,corr_feedback,1,train,10,,,,,,,,
,,,,,,,,,,,html-button-response,125,2.0.0,374598,660ff598a3391e9b7d8feab4,2,30,2742,,,,,,,,,"<img src= ""rock_img/I_Andesite_09.jpg"" style=""width:8cm; height:6cm;""><p>What type of rock is this?</p>",1,class_response,1,train,11,Basalt,Andesite,9,FALSE,2,1,,
,,,,,,,,,,,html-button-response,126,2.0.0,375743,660ff598a3391e9b7d8feab4,2,30,1142,,,,,,,,,"<img src= rock_img/I_Andesite_09.jpg style=""width:8cm; height:6cm;""><p style='font-size: 30px; color: red;'><strong>Incorrect!</strong></p><p style='font-size: 30px;'><strong>This rock is andesite</strong></p>",0,corr_feedback,1,train,11,,,,,,,,
,,,,,,,,,,,html-button-response,127,2.0.0,379478,660ff598a3391e9b7d8feab4,2,30,3734,,,,,,,,,"<img src= ""rock_img/I_Pumice_09.jpg"" style=""width:8cm; height:6.44cm;""><p>What type of rock is this?</p>",5,class_response,1,train,12,Pegmatite,Pumice,9,FALSE,6,8,,
,,,,,,,,,,,html-button-response,128,2.0.0,380830,660ff598a3391e9b7d8feab4,2,30,1349,,,,,,,,,"<img src= rock_img/I_Pumice_09.jpg style=""width:8cm; height:6.44cm;""><p style='font-size: 30px; color: red;'><strong>Incorrect!</strong></p><p style='font-size: 30px;'><strong>This rock is pumice</strong></p>",0,corr_feedback,1,train,12,,,,,,,,
,,,,,,,,,,,html-button-response,129,2.0.0,383143,660ff598a3391e9b7d8feab4,2,30,2310,,,,,,,,,"<img src= ""rock_img/I_Diorite_07.jpg"" style=""width:8cm; height:5.239999999999999cm;""><p>What type of rock is this?</p>",6,class_response,1,train,13,Peridotite,Diorite,7,FALSE,7,3,,
,,,,,,,,,,,html-button-response,130,2.0.0,384190,660ff598a3391e9b7d8feab4,2,30,1046,,,,,,,,,"<img src= rock_img/I_Diorite_07.jpg style=""width:8cm; height:5.239999999999999cm;""><p style='font-size: 30px; color: red;'><strong>Incorrect!</strong></p><p style='font-size: 30px;'><strong>This rock is diorite</strong></p>",0,corr_feedback,1,train,13,,,,,,,,
,,,,,,,,,,,html-button-response,131,2.0.0,385903,660ff598a3391e9b7d8feab4,2,30,1710,,,,,,,,,"<img src= ""rock_img/I_Pumice_10.jpg"" style=""width:8cm; height:7.609999999999999cm;""><p>What type of rock is this?</p>",4,class_response,1,train,14,Obsidian,Pumice,10,FALSE,5,8,,
,,,,,,,,,,,html-button-response,132,2.0.0,387159,660ff598a3391e9b7d8feab4,2,30,1254,,,,,,,,,"<img src= rock_img/I_Pumice_10.jpg style=""width:8cm; height:7.609999999999999cm;""><p style='font-size: 30px; color: red;'><strong>Incorrect!</strong></p><p style='font-size: 30px;'><strong>This rock is pumice</strong></p>",0,corr_feedback,1,train,14,,,,,,,,
,,,,,,,,,,,html-button-response,133,2.0.0,388655,660ff598a3391e9b7d8feab4,2,30,1494,,,,,,,,,"<img src= ""rock_img/I_Andesite_10.jpg"" style=""width:8cm; height:4.16cm;""><p>What type of rock is this?</p>",3,class_response,1,train,15,Gabbro,Andesite,10,FALSE,4,1,,
,,,,,,,,,,,html-button-response,134,2.0.0,390167,660ff598a3391e9b7d8feab4,2,30,1509,,,,,,,,,"<img src= rock_img/I_Andesite_10.jpg style=""width:8cm; height:4.16cm;""><p style='font-size: 30px; color: red;'><strong>Incorrect!</strong></p><p style='font-size: 30px;'><strong>This rock is andesite</strong></p>",0,corr_feedback,1,train,15,,,,,,,,
,,,,,,,,,,,html-button-response,135,2.0.0,391536,660ff598a3391e9b7d8feab4,2,30,1367,,,,,,,,,"<img src= ""rock_img/I_Diorite_10.jpg"" style=""width:8cm; height:5.949999999999999cm;""><p>What type of rock is this?</p>",2,class_response,1,train,16,Diorite,Diorite,10,TRUE,3,3,,
,,,,,,,,,,,html-button-response,136,2.0.0,393468,660ff598a3391e9b7d8feab4,2,30,1931,,,,,,,,,"<img src= rock_img/I_Diorite_10.jpg style=""width:8cm; height:5.949999999999999cm;""><p style='font-size: 30px; color: green;'><strong>Correct!</strong></p><p style='font-size: 30px;'><strong>This rock is diorite</strong></p>",0,corr_feedback,1,train,16,,,,,,,,
,,,,,,,,,,,html-button-response,137,2.0.0,394741,660ff598a3391e9b7d8feab4,2,30,1271,,,,,,,,,"<img src= ""rock_img/I_Obsidian_08.jpg"" style=""width:8cm; height:7.39cm;""><p>What type of rock is this?</p>",4,class_response,1,train,17,Obsidian,Obsidian,8,TRUE,5,5,,
,,,,,,,,,,,html-button-response,138,2.0.0,395863,660ff598a3391e9b7d8feab4,2,30,1120,,,,,,,,,"<img src= rock_img/I_Obsidian_08.jpg style=""width:8cm; height:7.39cm;""><p style='font-size: 30px; color: green;'><strong>Correct!</strong></p><p style='font-size: 30px;'><strong>This rock is obsidian</strong></p>",0,corr_feedback,1,train,17,,,,,,,,
,,,,,,,,,,,html-button-response,139,2.0.0,397614,660ff598a3391e9b7d8feab4,2,30,1749,,,,,,,,,"<img src= ""rock_img/I_Gabbro_03.jpg"" style=""width:8cm; height:8.52cm;""><p>What type of rock is this?</p>",1,class_response,1,train,18,Basalt,Gabbro,3,FALSE,2,4,,
,,,,,,,,,,,html-button-response,140,2.0.0,398702,660ff598a3391e9b7d8feab4,2,30,1086,,,,,,,,,"<img src= rock_img/I_Gabbro_03.jpg style=""width:8cm; height:8.52cm;""><p style='font-size: 30px; color: red;'><strong>Incorrect!</strong></p><p style='font-size: 30px;'><strong>This rock is gabbro</strong></p>",0,corr_feedback,1,train,18,,,,,,,,
,,,,,,,,,,,html-button-response,141,2.0.0,400319,660ff598a3391e9b7d8feab4,2,30,1614,,,,,,,,,"<img src= ""rock_img/I_Peridotite_12.jpg"" style=""width:8cm; height:4.54cm;""><p>What type of rock is this?</p>",2,class_response,1,train,19,Diorite,Peridotite,12,FALSE,3,7,,
,,,,,,,,,,,html-button-response,142,2.0.0,401647,660ff598a3391e9b7d8feab4,2,30,1327,,,,,,,,,"<img src= rock_img/I_Peridotite_12.jpg style=""width:8cm; height:4.54cm;""><p style='font-size: 30px; color: red;'><strong>Incorrect!</strong></p><p style='font-size: 30px;'><strong>This rock is peridotite</strong></p>",0,corr_feedback,1,train,19,,,,,,,,
,,,,,,,,,,,html-button-response,143,2.0.0,403470,660ff598a3391e9b7d8feab4,2,30,1820,,,,,,,,,"<img src= ""rock_img/I_Peridotite_14.jpg"" style=""width:8cm; height:5.3cm;""><p>What type of rock is this?</p>",0,class_response,1,train,20,Andesite,Peridotite,14,FALSE,1,7,,
,,,,,,,,,,,html-button-response,144,2.0.0,404670,660ff598a3391e9b7d8feab4,2,30,1198,,,,,,,,,"<img src= rock_img/I_Peridotite_14.jpg style=""width:8cm; height:5.3cm;""><p style='font-size: 30px; color: red;'><strong>Incorrect!</strong></p><p style='font-size: 30px;'><strong>This rock is peridotite</strong></p>",0,corr_feedback,1,train,20,,,,,,,,
,,,,,,,,,,,html-button-response,145,2.0.0,405519,660ff598a3391e9b7d8feab4,2,30,846,,,,,,,,,"<img src= ""rock_img/I_Pegmatite_08.jpg"" style=""width:8cm; height:7.68cm;""><p>What type of rock is this?</p>",5,class_response,1,train,21,Pegmatite,Pegmatite,8,TRUE,6,6,,
,,,,,,,,,,,html-button-response,146,2.0.0,408374,660ff598a3391e9b7d8feab4,2,30,2853,,,,,,,,,"<img src= rock_img/I_Pegmatite_08.jpg style=""width:8cm; height:7.68cm;""><p style='font-size: 30px; color: green;'><strong>Correct!</strong></p><p style='font-size: 30px;'><strong>This rock is pegmatite</strong></p>",0,corr_feedback,1,train,21,,,,,,,,
,,,,,,,,,,,html-button-response,147,2.0.0,409501,660ff598a3391e9b7d8feab4,2,30,1125,,,,,,,,,"<img src= ""rock_img/I_Obsidian_11.jpg"" style=""width:8cm; height:6.05cm;""><p>What type of rock is this?</p>",4,class_response,1,train,22,Obsidian,Obsidian,11,TRUE,5,5,,
,,,,,,,,,,,html-button-response,148,2.0.0,410295,660ff598a3391e9b7d8feab4,2,30,791,,,,,,,,,"<img src= rock_img/I_Obsidian_11.jpg style=""width:8cm; height:6.05cm;""><p style='font-size: 30px; color: green;'><strong>Correct!</strong></p><p style='font-size: 30px;'><strong>This rock is obsidian</strong></p>",0,corr_feedback,1,train,22,,,,,,,,
,,,,,,,,,,,html-button-response,149,2.0.0,411568,660ff598a3391e9b7d8feab4,2,30,1270,,,,,,,,,"<img src= ""rock_img/I_Obsidian_10.jpg"" style=""width:8cm; height:6.260000000000001cm;""><p>What type of rock is this?</p>",4,class_response,1,train,23,Obsidian,Obsidian,10,TRUE,5,5,,
,,,,,,,,,,,html-button-response,150,2.0.0,412406,660ff598a3391e9b7d8feab4,2,30,838,,,,,,,,,"<img src= rock_img/I_Obsidian_10.jpg style=""width:8cm; height:6.260000000000001cm;""><p style='font-size: 30px; color: green;'><strong>Correct!</strong></p><p style='font-size: 30px;'><strong>This rock is obsidian</strong></p>",0,corr_feedback,1,train,23,,,,,,,,
,,,,,,,,,,,html-button-response,151,2.0.0,414534,660ff598a3391e9b7d8feab4,2,30,2125,,,,,,,,,"<img src= ""rock_img/I_Gabbro_16.jpg"" style=""width:8cm; height:6.44cm;""><p>What type of rock is this?</p>",5,class_response,1,train,24,Pegmatite,Gabbro,16,FALSE,6,4,,
,,,,,,,,,,,html-button-response,152,2.0.0,415423,660ff598a3391e9b7d8feab4,2,30,885,,,,,,,,,"<img src= rock_img/I_Gabbro_16.jpg style=""width:8cm; height:6.44cm;""><p style='font-size: 30px; color: red;'><strong>Incorrect!</strong></p><p style='font-size: 30px;'><strong>This rock is gabbro</strong></p>",0,corr_feedback,1,train,24,,,,,,,,
,,,,,,,,,,,html-button-response,153,2.0.0,416559,660ff598a3391e9b7d8feab4,2,30,1134,,,,,,,,,"<img src= ""rock_img/I_Basalt_10.jpg"" style=""width:8cm; height:5.85cm;""><p>What type of rock is this?</p>",3,class_response,1,train,25,Gabbro,Basalt,10,FALSE,4,2,,
,,,,,,,,,,,html-button-response,154,2.0.0,417599,660ff598a3391e9b7d8feab4,2,30,1038,,,,,,,,,"<img src= rock_img/I_Basalt_10.jpg style=""width:8cm; height:5.85cm;""><p style='font-size: 30px; color: red;'><strong>Incorrect!</strong></p><p style='font-size: 30px;'><strong>This rock is basalt</strong></p>",0,corr_feedback,1,train,25,,,,,,,,
,,,,,,,,,,,html-button-response,155,2.0.0,419702,660ff598a3391e9b7d8feab4,2,30,2101,,,,,,,,,"<img src= ""rock_img/I_Peridotite_08.jpg"" style=""width:8cm; height:6.7cm;""><p>What type of rock is this?</p>",0,class_response,1,train,26,Andesite,Peridotite,8,FALSE,1,7,,
,,,,,,,,,,,html-button-response,156,2.0.0,420751,660ff598a3391e9b7d8feab4,2,30,1046,,,,,,,,,"<img src= rock_img/I_Peridotite_08.jpg style=""width:8cm; height:6.7cm;""><p style='font-size: 30px; color: red;'><strong>Incorrect!</strong></p><p style='font-size: 30px;'><strong>This rock is peridotite</strong></p>",0,corr_feedback,1,train,26,,,,,,,,
,,,,,,,,,,,html-button-response,157,2.0.0,422022,660ff598a3391e9b7d8feab4,2,30,1270,,,,,,,,,"<img src= ""rock_img/I_Diorite_12.jpg"" style=""width:8cm; height:4.88cm;""><p>What type of rock is this?</p>",6,class_response,1,train,27,Peridotite,Diorite,12,FALSE,7,3,,
,,,,,,,,,,,html-button-response,158,2.0.0,423134,660ff598a3391e9b7d8feab4,2,30,1110,,,,,,,,,"<img src= rock_img/I_Diorite_12.jpg style=""width:8cm; height:4.88cm;""><p style='font-size: 30px; color: red;'><strong>Incorrect!</strong></p><p style='font-size: 30px;'><strong>This rock is diorite</strong></p>",0,corr_feedback,1,train,27,,,,,,,,
,,,,,,,,,,,html-button-response,159,2.0.0,425263,660ff598a3391e9b7d8feab4,2,30,2125,,,,,,,,,"<img src= ""rock_img/I_Pegmatite_16.jpg"" style=""width:8cm; height:5.8cm;""><p>What type of rock is this?</p>",7,class_response,1,train,28,Pumice,Pegmatite,16,FALSE,8,6,,
,,,,,,,,,,,html-button-response,160,2.0.0,426270,660ff598a3391e9b7d8feab4,2,30,1006,,,,,,,,,"<img src= rock_img/I_Pegmatite_16.jpg style=""width:8cm; height:5.8cm;""><p style='font-size: 30px; color: red;'><strong>Incorrect!</strong></p><p style='font-size: 30px;'><strong>This rock is pegmatite</strong></p>",0,corr_feedback,1,train,28,,,,,,,,
,,,,,,,,,,,html-button-response,161,2.0.0,427695,660ff598a3391e9b7d8feab4,2,30,1421,,,,,,,,,"<img src= ""rock_img/I_Peridotite_13.jpg"" style=""width:8cm; height:7.58cm;""><p>What type of rock is this?</p>",7,class_response,1,train,29,Pumice,Peridotite,13,FALSE,8,7,,
,,,,,,,,,,,html-button-response,162,2.0.0,428862,660ff598a3391e9b7d8feab4,2,30,1165,,,,,,,,,"<img src= rock_img/I_Peridotite_13.jpg style=""width:8cm; height:7.58cm;""><p style='font-size: 30px; color: red;'><strong>Incorrect!</strong></p><p style='font-size: 30px;'><strong>This rock is peridotite</strong></p>",0,corr_feedback,1,train,29,,,,,,,,
,,,,,,,,,,,html-button-response,163,2.0.0,430311,660ff598a3391e9b7d8feab4,2,30,1446,,,,,,,,,"<img src= ""rock_img/I_Pegmatite_03.jpg"" style=""width:8cm; height:5.239999999999999cm;""><p>What type of rock is this?</p>",7,class_response,1,train,30,Pumice,Pegmatite,3,FALSE,8,6,,
,,,,,,,,,,,html-button-response,164,2.0.0,431222,660ff598a3391e9b7d8feab4,2,30,911,,,,,,,,,"<img src= rock_img/I_Pegmatite_03.jpg style=""width:8cm; height:5.239999999999999cm;""><p style='font-size: 30px; color: red;'><strong>Incorrect!</strong></p><p style='font-size: 30px;'><strong>This rock is pegmatite</strong></p>",0,corr_feedback,1,train,30,,,,,,,,
,,,,,,,,,,,html-button-response,165,2.0.0,433407,660ff598a3391e9b7d8feab4,2,30,2182,,,,,,,,,"<img src= ""rock_img/I_Gabbro_14.jpg"" style=""width:8cm; height:8.48cm;""><p>What type of rock is this?</p>",5,class_response,1,train,31,Pegmatite,Gabbro,14,FALSE,6,4,,
,,,,,,,,,,,html-button-response,166,2.0.0,434447,660ff598a3391e9b7d8feab4,2,30,1037,,,,,,,,,"<img src= rock_img/I_Gabbro_14.jpg style=""width:8cm; height:8.48cm;""><p style='font-size: 30px; color: red;'><strong>Incorrect!</strong></p><p style='font-size: 30px;'><strong>This rock is gabbro</strong></p>",0,corr_feedback,1,train,31,,,,,,,,
,,,,,,,,,,,html-button-response,167,2.0.0,435697,660ff598a3391e9b7d8feab4,2,30,1248,,,,,,,,,"<img src= ""rock_img/I_Diorite_06.jpg"" style=""width:8cm; height:6.03cm;""><p>What type of rock is this?</p>",5,class_response,1,train,32,Pegmatite,Diorite,6,FALSE,6,3,,
,,,,,,,,,,,html-button-response,168,2.0.0,436566,660ff598a3391e9b7d8feab4,2,30,867,,,,,,,,,"<img src= rock_img/I_Diorite_06.jpg style=""width:8cm; height:6.03cm;""><p style='font-size: 30px; color: red;'><strong>Incorrect!</strong></p><p style='font-size: 30px;'><strong>This rock is diorite</strong></p>",0,corr_feedback,1,train,32,,,,,,,,
,,,,,,,,,,,html-button-response,169,2.0.0,438559,660ff598a3391e9b7d8feab4,2,30,1989,,,,,,,,,"<img src= ""rock_img/I_Andesite_01.jpg"" style=""width:8cm; height:5.87cm;""><p>What type of rock is this?</p>",5,class_response,1,train,33,Pegmatite,Andesite,1,FALSE,6,1,,
,,,,,,,,,,,html-button-response,170,2.0.0,439527,660ff598a3391e9b7d8feab4,2,30,965,,,,,,,,,"<img src= rock_img/I_Andesite_01.jpg style=""width:8cm; height:5.87cm;""><p style='font-size: 30px; color: red;'><strong>Incorrect!</strong></p><p style='font-size: 30px;'><strong>This rock is andesite</strong></p>",0,corr_feedback,1,train,33,,,,,,,,
,,,,,,,,,,,html-button-response,171,2.0.0,442486,660ff598a3391e9b7d8feab4,2,30,2956,,,,,,,,,"<img src= ""rock_img/I_Pegmatite_13.jpg"" style=""width:8cm; height:4.95cm;""><p>What type of rock is this?</p>",1,class_response,1,train,34,Basalt,Pegmatite,13,FALSE,2,6,,
,,,,,,,,,,,html-button-response,172,2.0.0,443502,660ff598a3391e9b7d8feab4,2,30,1013,,,,,,,,,"<img src= rock_img/I_Pegmatite_13.jpg style=""width:8cm; height:4.95cm;""><p style='font-size: 30px; color: red;'><strong>Incorrect!</strong></p><p style='font-size: 30px;'><strong>This rock is pegmatite</strong></p>",0,corr_feedback,1,train,34,,,,,,,,
,,,,,,,,,,,html-button-response,173,2.0.0,444839,660ff598a3391e9b7d8feab4,2,30,1335,,,,,,,,,"<img src= ""rock_img/I_Andesite_14.jpg"" style=""width:8cm; height:5.449999999999999cm;""><p>What type of rock is this?</p>",5,class_response,1,train,35,Pegmatite,Andesite,14,FALSE,6,1,,
,,,,,,,,,,,html-button-response,174,2.0.0,445879,660ff598a3391e9b7d8feab4,2,30,1037,,,,,,,,,"<img src= rock_img/I_Andesite_14.jpg style=""width:8cm; height:5.449999999999999cm;""><p style='font-size: 30px; color: red;'><strong>Incorrect!</strong></p><p style='font-size: 30px;'><strong>This rock is andesite</strong></p>",0,corr_feedback,1,train,35,,,,,,,,
,,,,,,,,,,,html-button-response,175,2.0.0,447391,660ff598a3391e9b7d8feab4,2,30,1509,,,,,,,,,"<img src= ""rock_img/I_Peridotite_10.jpg"" style=""width:8cm; height:5.390000000000001cm;""><p>What type of rock is this?</p>",2,class_response,1,train,36,Diorite,Peridotite,10,FALSE,3,7,,
,,,,,,,,,,,html-button-response,176,2.0.0,448559,660ff598a3391e9b7d8feab4,2,30,1165,,,,,,,,,"<img src= rock_img/I_Peridotite_10.jpg style=""width:8cm; height:5.390000000000001cm;""><p style='font-size: 30px; color: red;'><strong>Incorrect!</strong></p><p style='font-size: 30px;'><strong>This rock is peridotite</strong></p>",0,corr_feedback,1,train,36,,,,,,,,
,,,,,,,,,,,html-button-response,177,2.0.0,450126,660ff598a3391e9b7d8feab4,2,30,1565,,,,,,,,,"<img src= ""rock_img/I_Diorite_15.jpg"" style=""width:8cm; height:5.54cm;""><p>What type of rock is this?</p>",3,class_response,1,train,37,Gabbro,Diorite,15,FALSE,4,3,,
,,,,,,,,,,,html-button-response,178,2.0.0,451110,660ff598a3391e9b7d8feab4,2,30,982,,,,,,,,,"<img src= rock_img/I_Diorite_15.jpg style=""width:8cm; height:5.54cm;""><p style='font-size: 30px; color: red;'><strong>Incorrect!</strong></p><p style='font-size: 30px;'><strong>This rock is diorite</strong></p>",0,corr_feedback,1,train,37,,,,,,,,
,,,,,,,,,,,html-button-response,179,2.0.0,452560,660ff598a3391e9b7d8feab4,2,30,1446,,,,,,,,,"<img src= ""rock_img/I_Basalt_08.jpg"" style=""width:8cm; height:10.44cm;""><p>What type of rock is this?</p>",4,class_response,1,train,38,Obsidian,Basalt,8,FALSE,5,2,,
,,,,,,,,,,,html-button-response,180,2.0.0,453525,660ff598a3391e9b7d8feab4,2,30,959,,,,,,,,,"<img src= rock_img/I_Basalt_08.jpg style=""width:8cm; height:10.44cm;""><p style='font-size: 30px; color: red;'><strong>Incorrect!</strong></p><p style='font-size: 30px;'><strong>This rock is basalt</strong></p>",0,corr_feedback,1,train,38,,,,,,,,
,,,,,,,,,,,html-button-response,181,2.0.0,455351,660ff598a3391e9b7d8feab4,2,30,1820,,,,,,,,,"<img src= ""rock_img/I_Gabbro_01.jpg"" style=""width:8cm; height:5.21cm;""><p>What type of rock is this?</p>",6,class_response,1,train,39,Peridotite,Gabbro,1,FALSE,7,4,,
,,,,,,,,,,,html-button-response,182,2.0.0,456214,660ff598a3391e9b7d8feab4,2,30,860,,,,,,,,,"<img src= rock_img/I_Gabbro_01.jpg style=""width:8cm; height:5.21cm;""><p style='font-size: 30px; color: red;'><strong>Incorrect!</strong></p><p style='font-size: 30px;'><strong>This rock is gabbro</strong></p>",0,corr_feedback,1,train,39,,,,,,,,
,,,,,,,,,,,html-button-response,183,2.0.0,458766,660ff598a3391e9b7d8feab4,2,30,2551,,,,,,,,,"<img src= ""rock_img/I_Peridotite_12.jpg"" style=""width:8cm; height:4.54cm;""><p>What type of rock is this?</p>",3,class_response,1,train,40,Gabbro,Peridotite,12,FALSE,4,7,,
,,,,,,,,,,,html-button-response,184,2.0.0,459917,660ff598a3391e9b7d8feab4,2,30,1147,,,,,,,,,"<img src= rock_img/I_Peridotite_12.jpg style=""width:8cm; height:4.54cm;""><p style='font-size: 30px; color: red;'><strong>Incorrect!</strong></p><p style='font-size: 30px;'><strong>This rock is peridotite</strong></p>",0,corr_feedback,1,train,40,,,,,,,,
,,,,,,,,,,,html-button-response,185,2.0.0,461418,660ff598a3391e9b7d8feab4,2,30,1499,,,,,,,,,"<img src= ""rock_img/I_Obsidian_04.jpg"" style=""width:8cm; height:6.930000000000001cm;""><p>What type of rock is this?</p>",4,class_response,1,train,41,Obsidian,Obsidian,4,TRUE,5,5,,
,,,,,,,,,,,html-button-response,186,2.0.0,462694,660ff598a3391e9b7d8feab4,2,30,1275,,,,,,,,,"<img src= rock_img/I_Obsidian_04.jpg style=""width:8cm; height:6.930000000000001cm;""><p style='font-size: 30px; color: green;'><strong>Correct!</strong></p><p style='font-size: 30px;'><strong>This rock is obsidian</strong></p>",0,corr_feedback,1,train,41,,,,,,,,
,,,,,,,,,,,html-button-response,187,2.0.0,464045,660ff598a3391e9b7d8feab4,2,30,1349,,,,,,,,,"<img src= ""rock_img/I_Gabbro_13.jpg"" style=""width:8cm; height:5.08cm;""><p>What type of rock is this?</p>",0,class_response,1,train,42,Andesite,Gabbro,13,FALSE,1,4,,
,,,,,,,,,,,html-button-response,188,2.0.0,465134,660ff598a3391e9b7d8feab4,2,30,1088,,,,,,,,,"<img src= rock_img/I_Gabbro_13.jpg style=""width:8cm; height:5.08cm;""><p style='font-size: 30px; color: red;'><strong>Incorrect!</strong></p><p style='font-size: 30px;'><strong>This rock is gabbro</strong></p>",0,corr_feedback,1,train,42,,,,,,,,
,,,,,,,,,,,html-button-response,189,2.0.0,466271,660ff598a3391e9b7d8feab4,2,30,1134,,,,,,,,,"<img src= ""rock_img/I_Pegmatite_10.jpg"" style=""width:8cm; height:4.16cm;""><p>What type of rock is this?</p>",6,class_response,1,train,43,Peridotite,Pegmatite,10,FALSE,7,6,,
,,,,,,,,,,,html-button-response,190,2.0.0,467511,660ff598a3391e9b7d8feab4,2,30,1238,,,,,,,,,"<img src= rock_img/I_Pegmatite_10.jpg style=""width:8cm; height:4.16cm;""><p style='font-size: 30px; color: red;'><strong>Incorrect!</strong></p><p style='font-size: 30px;'><strong>This rock is pegmatite</strong></p>",0,corr_feedback,1,train,43,,,,,,,,
,,,,,,,,,,,html-button-response,191,2.0.0,468646,660ff598a3391e9b7d8feab4,2,30,1133,,,,,,,,,"<img src= ""rock_img/I_Gabbro_08.jpg"" style=""width:8cm; height:5.15cm;""><p>What type of rock is this?</p>",7,class_response,1,train,44,Pumice,Gabbro,8,FALSE,8,4,,
,,,,,,,,,,,html-button-response,192,2.0.0,470926,660ff598a3391e9b7d8feab4,2,30,2277,,,,,,,,,"<img src= rock_img/I_Gabbro_08.jpg style=""width:8cm; height:5.15cm;""><p style='font-size: 30px; color: red;'><strong>Incorrect!</strong></p><p style='font-size: 30px;'><strong>This rock is gabbro</strong></p>",0,corr_feedback,1,train,44,,,,,,,,
,,,,,,,,,,,html-button-response,193,2.0.0,471695,660ff598a3391e9b7d8feab4,2,30,766,,,,,,,,,"<img src= ""rock_img/I_Pumice_14.jpg"" style=""width:8cm; height:6.39cm;""><p>What type of rock is this?</p>",1,class_response,1,train,45,Basalt,Pumice,14,FALSE,2,8,,
,,,,,,,,,,,html-button-response,194,2.0.0,472782,660ff598a3391e9b7d8feab4,2,30,1085,,,,,,,,,"<img src= rock_img/I_Pumice_14.jpg style=""width:8cm; height:6.39cm;""><p style='font-size: 30px; color: red;'><strong>Incorrect!</strong></p><p style='font-size: 30px;'><strong>This rock is pumice</strong></p>",0,corr_feedback,1,train,45,,,,,,,,
,,,,,,,,,,,html-button-response,195,2.0.0,473535,660ff598a3391e9b7d8feab4,2,30,751,,,,,,,,,"<img src= ""rock_img/I_Gabbro_16.jpg"" style=""width:8cm; height:6.44cm;""><p>What type of rock is this?</p>",0,class_response,1,train,46,Andesite,Gabbro,16,FALSE,1,4,,
,,,,,,,,,,,html-button-response,196,2.0.0,474455,660ff598a3391e9b7d8feab4,2,30,917,,,,,,,,,"<img src= rock_img/I_Gabbro_16.jpg style=""width:8cm; height:6.44cm;""><p style='font-size: 30px; color: red;'><strong>Incorrect!</strong></p><p style='font-size: 30px;'><strong>This rock is gabbro</strong></p>",0,corr_feedback,1,train,46,,,,,,,,
,,,,,,,,,,,html-button-response,197,2.0.0,475134,660ff598a3391e9b7d8feab4,2,30,674,,,,,,,,,"<img src= ""rock_img/I_Obsidian_05.jpg"" style=""width:8cm; height:6.33cm;""><p>What type of rock is this?</p>",2,class_response,1,train,47,Diorite,Obsidian,5,FALSE,3,5,,
,,,,,,,,,,,html-button-response,198,2.0.0,475917,660ff598a3391e9b7d8feab4,2,30,782,,,,,,,,,"<img src= rock_img/I_Obsidian_05.jpg style=""width:8cm; height:6.33cm;""><p style='font-size: 30px; color: red;'><strong>Incorrect!</strong></p><p style='font-size: 30px;'><strong>This rock is obsidian</strong></p>",0,corr_feedback,1,train,47,,,,,,,,
,,,,,,,,,,,html-button-response,199,2.0.0,476774,660ff598a3391e9b7d8feab4,2,30,854,,,,,,,,,"<img src= ""rock_img/I_Pumice_04.jpg"" style=""width:8cm; height:6.819999999999999cm;""><p>What type of rock is this?</p>",3,class_response,1,train,48,Gabbro,Pumice,4,FALSE,4,8,,
,,,,,,,,,,,html-button-response,200,2.0.0,477903,660ff598a3391e9b7d8feab4,2,30,1125,,,,,,,,,"<img src= rock_img/I_Pumice_04.jpg style=""width:8cm; height:6.819999999999999cm;""><p style='font-size: 30px; color: red;'><strong>Incorrect!</strong></p><p style='font-size: 30px;'><strong>This rock is pumice</strong></p>",0,corr_feedback,1,train,48,,,,,,,,
,,,,,,,,,,,instructions,203,2.0.0,499894,660ff598a3391e9b7d8feab4,2,30,21989,,,,,,,,"[{""page_index"":0,""viewing_time"":16214},{""page_index"":1,""viewing_time"":5775}]",,,,,,,,,,,,,,
,,,,,,,,,,,html-button-response,204,2.0.0,501205,660ff598a3391e9b7d8feab4,2,30,1310,,,,,,,,,,0,start_test,,,,,,,,,,,
,,,,,,,,,,,html-button-response,205,2.0.0,504640,660ff598a3391e9b7d8feab4,2,30,3432,,,,,,,,,"<img src= ""rock_img/I_Gabbro_09.jpg"" style=""width:8cm; height:7.279999999999999cm;""><p>What type of rock is this?</p>",6,class_response,1,test,1,Peridotite,Gabbro,9,FALSE,7,4,,
,,,,,,,,,,,html-keyboard-response,206,2.0.0,505186,660ff598a3391e9b7d8feab4,2,30,null,,,,,,,,,<p style='font-size: 30px;'><strong>Okay</strong></p>,null,neutral_feedback,1,test,1,,,,,,,,
,,,,,,,,,,,html-button-response,207,2.0.0,508645,660ff598a3391e9b7d8feab4,2,30,3456,,,,,,,,,"<img src= ""rock_img/I_Gabbro_12.jpg"" style=""width:8cm; height:7.800000000000001cm;""><p>What type of rock is this?</p>",5,class_response,1,test,2,Pegmatite,Gabbro,12,FALSE,6,4,,
,,,,,,,,,,,html-keyboard-response,208,2.0.0,509182,660ff598a3391e9b7d8feab4,2,30,null,,,,,,,,,<p style='font-size: 30px;'><strong>Okay</strong></p>,null,neutral_feedback,1,test,2,,,,,,,,
,,,,,,,,,,,html-button-response,209,2.0.0,511768,660ff598a3391e9b7d8feab4,2,30,2584,,,,,,,,,"<img src= ""rock_img/I_Pegmatite_09.jpg"" style=""width:8cm; height:4.03cm;""><p>What type of rock is this?</p>",0,class_response,1,test,3,Andesite,Pegmatite,9,FALSE,1,6,,
,,,,,,,,,,,html-keyboard-response,210,2.0.0,512277,660ff598a3391e9b7d8feab4,2,30,null,,,,,,,,,<p style='font-size: 30px;'><strong>Okay</strong></p>,null,neutral_feedback,1,test,3,,,,,,,,
,,,,,,,,,,,html-button-response,211,2.0.0,513662,660ff598a3391e9b7d8feab4,2,30,1385,,,,,,,,,"<img src= ""rock_img/I_Obsidian_02.jpg"" style=""width:8cm; height:7.51cm;""><p>What type of rock is this?</p>",4,class_response,1,test,4,Obsidian,Obsidian,2,TRUE,5,5,,
,,,,,,,,,,,html-keyboard-response,212,2.0.0,514175,660ff598a3391e9b7d8feab4,2,30,null,,,,,,,,,<p style='font-size: 30px;'><strong>Okay</strong></p>,null,neutral_feedback,1,test,4,,,,,,,,
,,,,,,,,,,,html-button-response,213,2.0.0,515376,660ff598a3391e9b7d8feab4,2,30,1200,,,,,,,,,"<img src= ""rock_img/I_Obsidian_09.jpg"" style=""width:8cm; height:5cm;""><p>What type of rock is this?</p>",4,class_response,1,test,5,Obsidian,Obsidian,9,TRUE,5,5,,
,,,,,,,,,,,html-keyboard-response,214,2.0.0,515905,660ff598a3391e9b7d8feab4,2,30,null,,,,,,,,,<p style='font-size: 30px;'><strong>Okay</strong></p>,null,neutral_feedback,1,test,5,,,,,,,,
,,,,,,,,,,,html-button-response,215,2.0.0,520543,660ff598a3391e9b7d8feab4,2,30,4637,,,,,,,,,"<img src= ""rock_img/I_Pegmatite_15.jpg"" style=""width:8cm; height:6cm;""><p>What type of rock is this?</p>",2,class_response,1,test,6,Diorite,Pegmatite,15,FALSE,3,6,,
,,,,,,,,,,,html-keyboard-response,216,2.0.0,521055,660ff598a3391e9b7d8feab4,2,30,null,,,,,,,,,<p style='font-size: 30px;'><strong>Okay</strong></p>,null,neutral_feedback,1,test,6,,,,,,,,
,,,,,,,,,,,html-button-response,217,2.0.0,522254,660ff598a3391e9b7d8feab4,2,30,1198,,,,,,,,,"<img src= ""rock_img/I_Obsidian_16.jpg"" style=""width:8cm; height:9.3cm;""><p>What type of rock is this?</p>",4,class_response,1,test,7,Obsidian,Obsidian,16,TRUE,5,5,,
,,,,,,,,,,,html-keyboard-response,218,2.0.0,522765,660ff598a3391e9b7d8feab4,2,30,null,,,,,,,,,<p style='font-size: 30px;'><strong>Okay</strong></p>,null,neutral_feedback,1,test,7,,,,,,,,
,,,,,,,,,,,html-button-response,219,2.0.0,525109,660ff598a3391e9b7d8feab4,2,30,2342,,,,,,,,,"<img src= ""rock_img/I_Obsidian_07.jpg"" style=""width:8cm; height:4.76cm;""><p>What type of rock is this?</p>",7,class_response,1,test,8,Pumice,Obsidian,7,FALSE,8,5,,
,,,,,,,,,,,html-keyboard-response,220,2.0.0,525665,660ff598a3391e9b7d8feab4,2,30,null,,,,,,,,,<p style='font-size: 30px;'><strong>Okay</strong></p>,null,neutral_feedback,1,test,8,,,,,,,,
,,,,,,,,,,,html-button-response,221,2.0.0,526511,660ff598a3391e9b7d8feab4,2,30,845,,,,,,,,,"<img src= ""rock_img/I_Pumice_13.jpg"" style=""width:8cm; height:8.200000000000001cm;""><p>What type of rock is this?</p>",3,class_response,1,test,9,Gabbro,Pumice,13,FALSE,4,8,,
,,,,,,,,,,,html-keyboard-response,222,2.0.0,527023,660ff598a3391e9b7d8feab4,2,30,null,,,,,,,,,<p style='font-size: 30px;'><strong>Okay</strong></p>,null,neutral_feedback,1,test,9,,,,,,,,
,,,,,,,,,,,html-button-response,223,2.0.0,529478,660ff598a3391e9b7d8feab4,2,30,2455,,,,,,,,,"<img src= ""rock_img/I_Diorite_09.jpg"" style=""width:8cm; height:5.27cm;""><p>What type of rock is this?</p>",2,class_response,1,test,10,Diorite,Diorite,9,TRUE,3,3,,
,,,,,,,,,,,html-keyboard-response,224,2.0.0,529988,660ff598a3391e9b7d8feab4,2,30,null,,,,,,,,,<p style='font-size: 30px;'><strong>Okay</strong></p>,null,neutral_feedback,1,test,10,,,,,,,,
,,,,,,,,,,,html-button-response,225,2.0.0,531374,660ff598a3391e9b7d8feab4,2,30,1386,,,,,,,,,"<img src= ""rock_img/I_Peridotite_04.jpg"" style=""width:8cm; height:6.680000000000001cm;""><p>What type of rock is this?</p>",1,class_response,1,test,11,Basalt,Peridotite,4,FALSE,2,7,,
,,,,,,,,,,,html-keyboard-response,226,2.0.0,531891,660ff598a3391e9b7d8feab4,2,30,null,,,,,,,,,<p style='font-size: 30px;'><strong>Okay</strong></p>,null,neutral_feedback,1,test,11,,,,,,,,
,,,,,,,,,,,html-button-response,227,2.0.0,533415,660ff598a3391e9b7d8feab4,2,30,1523,,,,,,,,,"<img src= ""rock_img/I_Gabbro_15.jpg"" style=""width:8cm; height:6.29cm;""><p>What type of rock is this?</p>",0,class_response,1,test,12,Andesite,Gabbro,15,FALSE,1,4,,
,,,,,,,,,,,html-keyboard-response,228,2.0.0,533929,660ff598a3391e9b7d8feab4,2,30,null,,,,,,,,,<p style='font-size: 30px;'><strong>Okay</strong></p>,null,neutral_feedback,1,test,12,,,,,,,,
,,,,,,,,,,,html-button-response,229,2.0.0,536255,660ff598a3391e9b7d8feab4,2,30,2324,,,,,,,,,"<img src= ""rock_img/I_Pumice_02.jpg"" style=""width:8cm; height:7.3999999999999995cm;""><p>What type of rock is this?</p>",7,class_response,1,test,13,Pumice,Pumice,2,TRUE,8,8,,
,,,,,,,,,,,html-keyboard-response,230,2.0.0,536760,660ff598a3391e9b7d8feab4,2,30,null,,,,,,,,,<p style='font-size: 30px;'><strong>Okay</strong></p>,null,neutral_feedback,1,test,13,,,,,,,,
,,,,,,,,,,,html-button-response,231,2.0.0,539518,660ff598a3391e9b7d8feab4,2,30,2758,,,,,,,,,"<img src= ""rock_img/I_Andesite_16.jpg"" style=""width:8cm; height:6.010000000000001cm;""><p>What type of rock is this?</p>",5,class_response,1,test,14,Pegmatite,Andesite,16,FALSE,6,1,,
,,,,,,,,,,,html-keyboard-response,232,2.0.0,540021,660ff598a3391e9b7d8feab4,2,30,null,,,,,,,,,<p style='font-size: 30px;'><strong>Okay</strong></p>,null,neutral_feedback,1,test,14,,,,,,,,
,,,,,,,,,,,html-button-response,233,2.0.0,541745,660ff598a3391e9b7d8feab4,2,30,1721,,,,,,,,,"<img src= ""rock_img/I_Pumice_16.jpg"" style=""width:8cm; height:6.79cm;""><p>What type of rock is this?</p>",7,class_response,1,test,15,Pumice,Pumice,16,TRUE,8,8,,
,,,,,,,,,,,html-keyboard-response,234,2.0.0,542300,660ff598a3391e9b7d8feab4,2,30,null,,,,,,,,,<p style='font-size: 30px;'><strong>Okay</strong></p>,null,neutral_feedback,1,test,15,,,,,,,,
,,,,,,,,,,,html-button-response,235,2.0.0,550302,660ff598a3391e9b7d8feab4,2,30,8001,,,,,,,,,"<img src= ""rock_img/I_Gabbro_10.jpg"" style=""width:8cm; height:5.680000000000001cm;""><p>What type of rock is this?</p>",2,class_response,1,test,16,Diorite,Gabbro,10,FALSE,3,4,,
,,,,,,,,,,,html-keyboard-response,236,2.0.0,550809,660ff598a3391e9b7d8feab4,2,30,null,,,,,,,,,<p style='font-size: 30px;'><strong>Okay</strong></p>,null,neutral_feedback,1,test,16,,,,,,,,
,,,,,,,,,,,html-button-response,237,2.0.0,553014,660ff598a3391e9b7d8feab4,2,30,2204,,,,,,,,,"<img src= ""rock_img/I_Diorite_13.jpg"" style=""width:8cm; height:6.29cm;""><p>What type of rock is this?</p>",6,class_response,1,test,17,Peridotite,Diorite,13,FALSE,7,3,,
,,,,,,,,,,,html-keyboard-response,238,2.0.0,553531,660ff598a3391e9b7d8feab4,2,30,null,,,,,,,,,<p style='font-size: 30px;'><strong>Okay</strong></p>,null,neutral_feedback,1,test,17,,,,,,,,
,,,,,,,,,,,html-button-response,239,2.0.0,555471,660ff598a3391e9b7d8feab4,2,30,1937,,,,,,,,,"<img src= ""rock_img/I_Gabbro_05.jpg"" style=""width:8cm; height:6cm;""><p>What type of rock is this?</p>",1,class_response,1,test,18,Basalt,Gabbro,5,FALSE,2,4,,
,,,,,,,,,,,html-keyboard-response,240,2.0.0,555973,660ff598a3391e9b7d8feab4,2,30,null,,,,,,,,,<p style='font-size: 30px;'><strong>Okay</strong></p>,null,neutral_feedback,1,test,18,,,,,,,,
,,,,,,,,,,,html-button-response,241,2.0.0,557479,660ff598a3391e9b7d8feab4,2,30,1504,,,,,,,,,"<img src= ""rock_img/I_Peridotite_15.jpg"" style=""width:8cm; height:6cm;""><p>What type of rock is this?</p>",3,class_response,1,test,19,Gabbro,Peridotite,15,FALSE,4,7,,
,,,,,,,,,,,html-keyboard-response,242,2.0.0,558053,660ff598a3391e9b7d8feab4,2,30,null,,,,,,,,,<p style='font-size: 30px;'><strong>Okay</strong></p>,null,neutral_feedback,1,test,19,,,,,,,,
,,,,,,,,,,,html-button-response,243,2.0.0,561742,660ff598a3391e9b7d8feab4,2,30,3688,,,,,,,,,"<img src= ""rock_img/I_Basalt_09.jpg"" style=""width:8cm; height:6.2cm;""><p>What type of rock is this?</p>",0,class_response,1,test,20,Andesite,Basalt,9,FALSE,1,2,,
,,,,,,,,,,,html-keyboard-response,244,2.0.0,562257,660ff598a3391e9b7d8feab4,2,30,null,,,,,,,,,<p style='font-size: 30px;'><strong>Okay</strong></p>,null,neutral_feedback,1,test,20,,,,,,,,
,,,,,,,,,,,html-button-response,245,2.0.0,563775,660ff598a3391e9b7d8feab4,2,30,1517,,,,,,,,,"<img src= ""rock_img/I_Diorite_08.jpg"" style=""width:8cm; height:6.37cm;""><p>What type of rock is this?</p>",5,class_response,1,test,21,Pegmatite,Diorite,8,FALSE,6,3,,
,,,,,,,,,,,html-keyboard-response,246,2.0.0,564280,660ff598a3391e9b7d8feab4,2,30,null,,,,,,,,,<p style='font-size: 30px;'><strong>Okay</strong></p>,null,neutral_feedback,1,test,21,,,,,,,,
,,,,,,,,,,,html-button-response,247,2.0.0,565535,660ff598a3391e9b7d8feab4,2,30,1252,,,,,,,,,"<img src= ""rock_img/I_Pumice_05.jpg"" style=""width:8cm; height:7.25cm;""><p>What type of rock is this?</p>",7,class_response,1,test,22,Pumice,Pumice,5,TRUE,8,8,,
,,,,,,,,,,,html-keyboard-response,248,2.0.0,566103,660ff598a3391e9b7d8feab4,2,30,null,,,,,,,,,<p style='font-size: 30px;'><strong>Okay</strong></p>,null,neutral_feedback,1,test,22,,,,,,,,
,,,,,,,,,,,html-button-response,249,2.0.0,567319,660ff598a3391e9b7d8feab4,2,30,1214,,,,,,,,,"<img src= ""rock_img/I_Pegmatite_06.jpg"" style=""width:8cm; height:5.17cm;""><p>What type of rock is this?</p>",2,class_response,1,test,23,Diorite,Pegmatite,6,FALSE,3,6,,
,,,,,,,,,,,html-keyboard-response,250,2.0.0,567831,660ff598a3391e9b7d8feab4,2,30,null,,,,,,,,,<p style='font-size: 30px;'><strong>Okay</strong></p>,null,neutral_feedback,1,test,23,,,,,,,,
,,,,,,,,,,,html-button-response,251,2.0.0,569095,660ff598a3391e9b7d8feab4,2,30,1262,,,,,,,,,"<img src= ""rock_img/I_Diorite_16.jpg"" style=""width:8cm; height:6.74cm;""><p>What type of rock is this?</p>",6,class_response,1,test,24,Peridotite,Diorite,16,FALSE,7,3,,
,,,,,,,,,,,html-keyboard-response,252,2.0.0,569655,660ff598a3391e9b7d8feab4,2,30,null,,,,,,,,,<p style='font-size: 30px;'><strong>Okay</strong></p>,null,neutral_feedback,1,test,24,,,,,,,,
,,,,,,,,,,,html-button-response,253,2.0.0,570733,660ff598a3391e9b7d8feab4,2,30,1077,,,,,,,,,"<img src= ""rock_img/I_Peridotite_16.jpg"" style=""width:8cm; height:6.989999999999999cm;""><p>What type of rock is this?</p>",1,class_response,1,test,25,Basalt,Peridotite,16,FALSE,2,7,,
,,,,,,,,,,,html-keyboard-response,254,2.0.0,571242,660ff598a3391e9b7d8feab4,2,30,null,,,,,,,,,<p style='font-size: 30px;'><strong>Okay</strong></p>,null,neutral_feedback,1,test,25,,,,,,,,
,,,,,,,,,,,html-button-response,255,2.0.0,574053,660ff598a3391e9b7d8feab4,2,30,2809,,,,,,,,,"<img src= ""rock_img/I_Andesite_03.jpg"" style=""width:8cm; height:5.73cm;""><p>What type of rock is this?</p>",3,class_response,1,test,26,Gabbro,Andesite,3,FALSE,4,1,,
,,,,,,,,,,,html-keyboard-response,256,2.0.0,574561,660ff598a3391e9b7d8feab4,2,30,null,,,,,,,,,<p style='font-size: 30px;'><strong>Okay</strong></p>,null,neutral_feedback,1,test,26,,,,,,,,
,,,,,,,,,,,html-button-response,257,2.0.0,576125,660ff598a3391e9b7d8feab4,2,30,1563,,,,,,,,,"<img src= ""rock_img/I_Peridotite_07.jpg"" style=""width:8cm; height:4.83cm;""><p>What type of rock is this?</p>",7,class_response,1,test,27,Pumice,Peridotite,7,FALSE,8,7,,
,,,,,,,,,,,html-keyboard-response,258,2.0.0,576629,660ff598a3391e9b7d8feab4,2,30,null,,,,,,,,,<p style='font-size: 30px;'><strong>Okay</strong></p>,null,neutral_feedback,1,test,27,,,,,,,,
,,,,,,,,,,,html-button-response,259,2.0.0,578199,660ff598a3391e9b7d8feab4,2,30,1567,,,,,,,,,"<img src= ""rock_img/I_Andesite_11.jpg"" style=""width:8cm; height:4.92cm;""><p>What type of rock is this?</p>",0,class_response,1,test,28,Andesite,Andesite,11,TRUE,1,1,,
,,,,,,,,,,,html-keyboard-response,260,2.0.0,578706,660ff598a3391e9b7d8feab4,2,30,null,,,,,,,,,<p style='font-size: 30px;'><strong>Okay</strong></p>,null,neutral_feedback,1,test,28,,,,,,,,
,,,,,,,,,,,html-button-response,261,2.0.0,580367,660ff598a3391e9b7d8feab4,2,30,1659,,,,,,,,,"<img src= ""rock_img/I_Pumice_06.jpg"" style=""width:8cm; height:6.9399999999999995cm;""><p>What type of rock is this?</p>",7,class_response,1,test,29,Pumice,Pumice,6,TRUE,8,8,,
,,,,,,,,,,,html-keyboard-response,262,2.0.0,580875,660ff598a3391e9b7d8feab4,2,30,null,,,,,,,,,<p style='font-size: 30px;'><strong>Okay</strong></p>,null,neutral_feedback,1,test,29,,,,,,,,
,,,,,,,,,,,html-button-response,263,2.0.0,582271,660ff598a3391e9b7d8feab4,2,30,1394,,,,,,,,,"<img src= ""rock_img/I_Gabbro_11.jpg"" style=""width:8cm; height:6.2cm;""><p>What type of rock is this?</p>",5,class_response,1,test,30,Pegmatite,Gabbro,11,FALSE,6,4,,
,,,,,,,,,,,html-keyboard-response,264,2.0.0,582788,660ff598a3391e9b7d8feab4,2,30,null,,,,,,,,,<p style='font-size: 30px;'><strong>Okay</strong></p>,null,neutral_feedback,1,test,30,,,,,,,,
,,,,,,,,,,,html-button-response,265,2.0.0,585102,660ff598a3391e9b7d8feab4,2,30,2314,,,,,,,,,"<img src= ""rock_img/I_Pegmatite_05.jpg"" style=""width:8cm; height:7.300000000000001cm;""><p>What type of rock is this?</p>",0,class_response,1,test,31,Andesite,Pegmatite,5,FALSE,1,6,,
,,,,,,,,,,,html-keyboard-response,266,2.0.0,585605,660ff598a3391e9b7d8feab4,2,30,null,,,,,,,,,<p style='font-size: 30px;'><strong>Okay</strong></p>,null,neutral_feedback,1,test,31,,,,,,,,
,,,,,,,,,,,html-button-response,267,2.0.0,587399,660ff598a3391e9b7d8feab4,2,30,1792,,,,,,,,,"<img src= ""rock_img/I_Pegmatite_11.jpg"" style=""width:8cm; height:8.14cm;""><p>What type of rock is this?</p>",6,class_response,1,test,32,Peridotite,Pegmatite,11,FALSE,7,6,,
,,,,,,,,,,,html-keyboard-response,268,2.0.0,587910,660ff598a3391e9b7d8feab4,2,30,null,,,,,,,,,<p style='font-size: 30px;'><strong>Okay</strong></p>,null,neutral_feedback,1,test,32,,,,,,,,
,,,,,,,,,,,html-button-response,269,2.0.0,589742,660ff598a3391e9b7d8feab4,2,30,1831,,,,,,,,,"<img src= ""rock_img/I_Andesite_07.jpg"" style=""width:8cm; height:5.93cm;""><p>What type of rock is this?</p>",3,class_response,1,test,33,Gabbro,Andesite,7,FALSE,4,1,,
,,,,,,,,,,,html-keyboard-response,270,2.0.0,590251,660ff598a3391e9b7d8feab4,2,30,null,,,,,,,,,<p style='font-size: 30px;'><strong>Okay</strong></p>,null,neutral_feedback,1,test,33,,,,,,,,
,,,,,,,,,,,html-button-response,271,2.0.0,592102,660ff598a3391e9b7d8feab4,2,30,1849,,,,,,,,,"<img src= ""rock_img/I_Basalt_16.jpg"" style=""width:8cm; height:7.659999999999999cm;""><p>What type of rock is this?</p>",2,class_response,1,test,34,Diorite,Basalt,16,FALSE,3,2,,
,,,,,,,,,,,html-keyboard-response,272,2.0.0,592612,660ff598a3391e9b7d8feab4,2,30,null,,,,,,,,,<p style='font-size: 30px;'><strong>Okay</strong></p>,null,neutral_feedback,1,test,34,,,,,,,,
,,,,,,,,,,,html-button-response,273,2.0.0,594023,660ff598a3391e9b7d8feab4,2,30,1409,,,,,,,,,"<img src= ""rock_img/I_Andesite_05.jpg"" style=""width:8cm; height:4.12cm;""><p>What type of rock is this?</p>",1,class_response,1,test,35,Basalt,Andesite,5,FALSE,2,1,,
,,,,,,,,,,,html-keyboard-response,274,2.0.0,594537,660ff598a3391e9b7d8feab4,2,30,null,,,,,,,,,<p style='font-size: 30px;'><strong>Okay</strong></p>,null,neutral_feedback,1,test,35,,,,,,,,
,,,,,,,,,,,html-button-response,275,2.0.0,596551,660ff598a3391e9b7d8feab4,2,30,2012,,,,,,,,,"<img src= ""rock_img/I_Andesite_02.jpg"" style=""width:8cm; height:8.5cm;""><p>What type of rock is this?</p>",5,class_response,1,test,36,Pegmatite,Andesite,2,FALSE,6,1,,
,,,,,,,,,,,html-keyboard-response,276,2.0.0,597107,660ff598a3391e9b7d8feab4,2,30,null,,,,,,,,,<p style='font-size: 30px;'><strong>Okay</strong></p>,null,neutral_feedback,1,test,36,,,,,,,,
,,,,,,,,,,,html-button-response,277,2.0.0,598408,660ff598a3391e9b7d8feab4,2,30,1299,,,,,,,,,"<img src= ""rock_img/I_Basalt_05.jpg"" style=""width:8cm; height:8.18cm;""><p>What type of rock is this?</p>",5,class_response,1,test,37,Pegmatite,Basalt,5,FALSE,6,2,,
,,,,,,,,,,,html-keyboard-response,278,2.0.0,598923,660ff598a3391e9b7d8feab4,2,30,null,,,,,,,,,<p style='font-size: 30px;'><strong>Okay</strong></p>,null,neutral_feedback,1,test,37,,,,,,,,
,,,,,,,,,,,html-button-response,279,2.0.0,600678,660ff598a3391e9b7d8feab4,2,30,1753,,,,,,,,,"<img src= ""rock_img/I_Basalt_02.jpg"" style=""width:8cm; height:6.45cm;""><p>What type of rock is this?</p>",6,class_response,1,test,38,Peridotite,Basalt,2,FALSE,7,2,,
,,,,,,,,,,,html-keyboard-response,280,2.0.0,601184,660ff598a3391e9b7d8feab4,2,30,null,,,,,,,,,<p style='font-size: 30px;'><strong>Okay</strong></p>,null,neutral_feedback,1,test,38,,,,,,,,
,,,,,,,,,,,html-button-response,281,2.0.0,603088,660ff598a3391e9b7d8feab4,2,30,1902,,,,,,,,,"<img src= ""rock_img/I_Diorite_14.jpg"" style=""width:8cm; height:5.71cm;""><p>What type of rock is this?</p>",2,class_response,1,test,39,Diorite,Diorite,14,TRUE,3,3,,
,,,,,,,,,,,html-keyboard-response,282,2.0.0,603589,660ff598a3391e9b7d8feab4,2,30,null,,,,,,,,,<p style='font-size: 30px;'><strong>Okay</strong></p>,null,neutral_feedback,1,test,39,,,,,,,,
,,,,,,,,,,,html-button-response,283,2.0.0,605887,660ff598a3391e9b7d8feab4,2,30,2294,,,,,,,,,"<img src= ""rock_img/I_Pumice_15.jpg"" style=""width:8cm; height:7.86cm;""><p>What type of rock is this?</p>",3,class_response,1,test,40,Gabbro,Pumice,15,FALSE,4,8,,
,,,,,,,,,,,html-keyboard-response,284,2.0.0,606392,660ff598a3391e9b7d8feab4,2,30,null,,,,,,,,,<p style='font-size: 30px;'><strong>Okay</strong></p>,null,neutral_feedback,1,test,40,,,,,,,,
,,,,,,,,,,,html-button-response,285,2.0.0,608342,660ff598a3391e9b7d8feab4,2,30,1949,,,,,,,,,"<img src= ""rock_img/I_Peridotite_05.jpg"" style=""width:8cm; height:7.1499999999999995cm;""><p>What type of rock is this?</p>",0,class_response,1,test,41,Andesite,Peridotite,5,FALSE,1,7,,
,,,,,,,,,,,html-keyboard-response,286,2.0.0,608848,660ff598a3391e9b7d8feab4,2,30,null,,,,,,,,,<p style='font-size: 30px;'><strong>Okay</strong></p>,null,neutral_feedback,1,test,41,,,,,,,,
,,,,,,,,,,,html-button-response,287,2.0.0,610206,660ff598a3391e9b7d8feab4,2,30,1355,,,,,,,,,"<img src= ""rock_img/I_Obsidian_14.jpg"" style=""width:8cm; height:7.64cm;""><p>What type of rock is this?</p>",4,class_response,1,test,42,Obsidian,Obsidian,14,TRUE,5,5,,
,,,,,,,,,,,html-keyboard-response,288,2.0.0,610777,660ff598a3391e9b7d8feab4,2,30,null,,,,,,,,,<p style='font-size: 30px;'><strong>Okay</strong></p>,null,neutral_feedback,1,test,42,,,,,,,,
,,,,,,,,,,,html-button-response,289,2.0.0,612207,660ff598a3391e9b7d8feab4,2,30,1429,,,,,,,,,"<img src= ""rock_img/I_Basalt_04.jpg"" style=""width:8cm; height:7.53cm;""><p>What type of rock is this?</p>",1,class_response,1,test,43,Basalt,Basalt,4,TRUE,2,2,,
,,,,,,,,,,,html-keyboard-response,290,2.0.0,612717,660ff598a3391e9b7d8feab4,2,30,null,,,,,,,,,<p style='font-size: 30px;'><strong>Okay</strong></p>,null,neutral_feedback,1,test,43,,,,,,,,
,,,,,,,,,,,html-button-response,291,2.0.0,620582,660ff598a3391e9b7d8feab4,2,30,7863,,,,,,,,,"<img src= ""rock_img/I_Diorite_02.jpg"" style=""width:8cm; height:6.27cm;""><p>What type of rock is this?</p>",0,class_response,1,test,44,Andesite,Diorite,2,FALSE,1,3,,
,,,,,,,,,,,html-keyboard-response,292,2.0.0,621092,660ff598a3391e9b7d8feab4,2,30,null,,,,,,,,,<p style='font-size: 30px;'><strong>Okay</strong></p>,null,neutral_feedback,1,test,44,,,,,,,,
,,,,,,,,,,,html-button-response,293,2.0.0,624775,660ff598a3391e9b7d8feab4,2,30,3681,,,,,,,,,"<img src= ""rock_img/I_Obsidian_06.jpg"" style=""width:8cm; height:6.8cm;""><p>What type of rock is this?</p>",4,class_response,1,test,45,Obsidian,Obsidian,6,TRUE,5,5,,
,,,,,,,,,,,html-keyboard-response,294,2.0.0,625291,660ff598a3391e9b7d8feab4,2,30,null,,,,,,,,,<p style='font-size: 30px;'><strong>Okay</strong></p>,null,neutral_feedback,1,test,45,,,,,,,,
,,,,,,,,,,,html-button-response,295,2.0.0,626718,660ff598a3391e9b7d8feab4,2,30,1425,,,,,,,,,"<img src= ""rock_img/I_Peridotite_02.jpg"" style=""width:8cm; height:5.859999999999999cm;""><p>What type of rock is this?</p>",6,class_response,1,test,46,Peridotite,Peridotite,2,TRUE,7,7,,
,,,,,,,,,,,html-keyboard-response,296,2.0.0,627224,660ff598a3391e9b7d8feab4,2,30,null,,,,,,,,,<p style='font-size: 30px;'><strong>Okay</strong></p>,null,neutral_feedback,1,test,46,,,,,,,,
,,,,,,,,,,,html-button-response,297,2.0.0,629711,660ff598a3391e9b7d8feab4,2,30,2486,,,,,,,,,"<img src= ""rock_img/I_Basalt_06.jpg"" style=""width:8cm; height:7.06cm;""><p>What type of rock is this?</p>",7,class_response,1,test,47,Pumice,Basalt,6,FALSE,8,2,,
,,,,,,,,,,,html-keyboard-response,298,2.0.0,630215,660ff598a3391e9b7d8feab4,2,30,null,,,,,,,,,<p style='font-size: 30px;'><strong>Okay</strong></p>,null,neutral_feedback,1,test,47,,,,,,,,
,,,,,,,,,,,html-button-response,299,2.0.0,631687,660ff598a3391e9b7d8feab4,2,30,1469,,,,,,,,,"<img src= ""rock_img/I_Pegmatite_07.jpg"" style=""width:8cm; height:6.7cm;""><p>What type of rock is this?</p>",2,class_response,1,test,48,Diorite,Pegmatite,7,FALSE,3,6,,
,,,,,,,,,,,html-keyboard-response,300,2.0.0,632193,660ff598a3391e9b7d8feab4,2,30,null,,,,,,,,,<p style='font-size: 30px;'><strong>Okay</strong></p>,null,neutral_feedback,1,test,48,,,,,,,,
,,,,,,,,,,,html-button-response,301,2.0.0,657599,660ff598a3391e9b7d8feab4,2,30,,,,,,,,,,,,cycle_feedback,,,,,,,,,,9950,15434
,,,,,,,,,,,html-button-response,303,2.0.0,660750,660ff598a3391e9b7d8feab4,2,30,3147,,,,,,,,,,0,start_train,,,,,,,,,,,
,,,,,,,,,,,html-button-response,304,2.0.0,662270,660ff598a3391e9b7d8feab4,2,30,1513,,,,,,,,,"<img src= ""rock_img/I_Obsidian_10.jpg"" style=""width:8cm; height:6.260000000000001cm;""><p>What type of rock is this?</p>",4,class_response,2,train,1,Obsidian,Obsidian,10,TRUE,5,5,,
,,,,,,,,,,,html-button-response,305,2.0.0,664534,660ff598a3391e9b7d8feab4,2,30,2261,,,,,,,,,"<img src= rock_img/I_Obsidian_10.jpg style=""width:8cm; height:6.260000000000001cm;""><p style='font-size: 30px; color: green;'><strong>Correct!</strong></p><p style='font-size: 30px;'><strong>This rock is obsidian</strong></p>",0,corr_feedback,2,train,1,,,,,,,,
,,,,,,,,,,,html-button-response,306,2.0.0,668398,660ff598a3391e9b7d8feab4,2,30,3862,,,,,,,,,"<img src= ""rock_img/I_Pegmatite_16.jpg"" style=""width:8cm; height:5.8cm;""><p>What type of rock is this?</p>",6,class_response,2,train,2,Peridotite,Pegmatite,16,FALSE,7,6,,
,,,,,,,,,,,html-button-response,307,2.0.0,670319,660ff598a3391e9b7d8feab4,2,30,1920,,,,,,,,,"<img src= rock_img/I_Pegmatite_16.jpg style=""width:8cm; height:5.8cm;""><p style='font-size: 30px; color: red;'><strong>Incorrect!</strong></p><p style='font-size: 30px;'><strong>This rock is pegmatite</strong></p>",0,corr_feedback,2,train,2,,,,,,,,
,,,,,,,,,,,html-button-response,308,2.0.0,672127,660ff598a3391e9b7d8feab4,2,30,1805,,,,,,,,,"<img src= ""rock_img/I_Pegmatite_08.jpg"" style=""width:8cm; height:7.68cm;""><p>What type of rock is this?</p>",1,class_response,2,train,3,Basalt,Pegmatite,8,FALSE,2,6,,
,,,,,,,,,,,html-button-response,309,2.0.0,674974,660ff598a3391e9b7d8feab4,2,30,2845,,,,,,,,,"<img src= rock_img/I_Pegmatite_08.jpg style=""width:8cm; height:7.68cm;""><p style='font-size: 30px; color: red;'><strong>Incorrect!</strong></p><p style='font-size: 30px;'><strong>This rock is pegmatite</strong></p>",0,corr_feedback,2,train,3,,,,,,,,
,,,,,,,,,,,html-button-response,310,2.0.0,676431,660ff598a3391e9b7d8feab4,2,30,1454,,,,,,,,,"<img src= ""rock_img/I_Andesite_04.jpg"" style=""width:8cm; height:5.96cm;""><p>What type of rock is this?</p>",3,class_response,2,train,4,Gabbro,Andesite,4,FALSE,4,1,,
,,,,,,,,,,,html-button-response,311,2.0.0,677838,660ff598a3391e9b7d8feab4,2,30,1405,,,,,,,,,"<img src= rock_img/I_Andesite_04.jpg style=""width:8cm; height:5.96cm;""><p style='font-size: 30px; color: red;'><strong>Incorrect!</strong></p><p style='font-size: 30px;'><strong>This rock is andesite</strong></p>",0,corr_feedback,2,train,4,,,,,,,,
,,,,,,,,,,,html-button-response,312,2.0.0,679175,660ff598a3391e9b7d8feab4,2,30,1333,,,,,,,,,"<img src= ""rock_img/I_Gabbro_13.jpg"" style=""width:8cm; height:5.08cm;""><p>What type of rock is this?</p>",0,class_response,2,train,5,Andesite,Gabbro,13,FALSE,1,4,,
,,,,,,,,,,,html-button-response,313,2.0.0,680446,660ff598a3391e9b7d8feab4,2,30,1269,,,,,,,,,"<img src= rock_img/I_Gabbro_13.jpg style=""width:8cm; height:5.08cm;""><p style='font-size: 30px; color: red;'><strong>Incorrect!</strong></p><p style='font-size: 30px;'><strong>This rock is gabbro</strong></p>",0,corr_feedback,2,train,5,,,,,,,,
,,,,,,,,,,,html-button-response,314,2.0.0,681846,660ff598a3391e9b7d8feab4,2,30,1397,,,,,,,,,"<img src= ""rock_img/I_Obsidian_08.jpg"" style=""width:8cm; height:7.39cm;""><p>What type of rock is this?</p>",4,class_response,2,train,6,Obsidian,Obsidian,8,TRUE,5,5,,
,,,,,,,,,,,html-button-response,315,2.0.0,682670,660ff598a3391e9b7d8feab4,2,30,822,,,,,,,,,"<img src= rock_img/I_Obsidian_08.jpg style=""width:8cm; height:7.39cm;""><p style='font-size: 30px; color: green;'><strong>Correct!</strong></p><p style='font-size: 30px;'><strong>This rock is obsidian</strong></p>",0,corr_feedback,2,train,6,,,,,,,,
,,,,,,,,,,,html-button-response,316,2.0.0,684966,660ff598a3391e9b7d8feab4,2,30,2293,,,,,,,,,"<img src= ""rock_img/I_Gabbro_13.jpg"" style=""width:8cm; height:5.08cm;""><p>What type of rock is this?</p>",3,class_response,2,train,7,Gabbro,Gabbro,13,TRUE,4,4,,
,,,,,,,,,,,html-button-response,317,2.0.0,686334,660ff598a3391e9b7d8feab4,2,30,1365,,,,,,,,,"<img src= rock_img/I_Gabbro_13.jpg style=""width:8cm; height:5.08cm;""><p style='font-size: 30px; color: green;'><strong>Correct!</strong></p><p style='font-size: 30px;'><strong>This rock is gabbro</strong></p>",0,corr_feedback,2,train,7,,,,,,,,
,,,,,,,,,,,html-button-response,318,2.0.0,688527,660ff598a3391e9b7d8feab4,2,30,2190,,,,,,,,,"<img src= ""rock_img/I_Basalt_11.jpg"" style=""width:8cm; height:5.359999999999999cm;""><p>What type of rock is this?</p>",2,class_response,2,train,8,Diorite,Basalt,11,FALSE,3,2,,
,,,,,,,,,,,html-button-response,319,2.0.0,689582,660ff598a3391e9b7d8feab4,2,30,1052,,,,,,,,,"<img src= rock_img/I_Basalt_11.jpg style=""width:8cm; height:5.359999999999999cm;""><p style='font-size: 30px; color: red;'><strong>Incorrect!</strong></p><p style='font-size: 30px;'><strong>This rock is basalt</strong></p>",0,corr_feedback,2,train,8,,,,,,,,
,,,,,,,,,,,html-button-response,320,2.0.0,691286,660ff598a3391e9b7d8feab4,2,30,1701,,,,,,,,,"<img src= ""rock_img/I_Peridotite_14.jpg"" style=""width:8cm; height:5.3cm;""><p>What type of rock is this?</p>",1,class_response,2,train,9,Basalt,Peridotite,14,FALSE,2,7,,
,,,,,,,,,,,html-button-response,321,2.0.0,692294,660ff598a3391e9b7d8feab4,2,30,1005,,,,,,,,,"<img src= rock_img/I_Peridotite_14.jpg style=""width:8cm; height:5.3cm;""><p style='font-size: 30px; color: red;'><strong>Incorrect!</strong></p><p style='font-size: 30px;'><strong>This rock is peridotite</strong></p>",0,corr_feedback,2,train,9,,,,,,,,
,,,,,,,,,,,html-button-response,322,2.0.0,693975,660ff598a3391e9b7d8feab4,2,30,1680,,,,,,,,,"<img src= ""rock_img/I_Diorite_12.jpg"" style=""width:8cm; height:4.88cm;""><p>What type of rock is this?</p>",6,class_response,2,train,10,Peridotite,Diorite,12,FALSE,7,3,,
,,,,,,,,,,,html-button-response,323,2.0.0,694830,660ff598a3391e9b7d8feab4,2,30,853,,,,,,,,,"<img src= rock_img/I_Diorite_12.jpg style=""width:8cm; height:4.88cm;""><p style='font-size: 30px; color: red;'><strong>Incorrect!</strong></p><p style='font-size: 30px;'><strong>This rock is diorite</strong></p>",0,corr_feedback,2,train,10,,,,,,,,
,,,,,,,,,,,html-button-response,324,2.0.0,700974,660ff598a3391e9b7d8feab4,2,30,6141,,,,,,,,,"<img src= ""rock_img/I_Pegmatite_13.jpg"" style=""width:8cm; height:4.95cm;""><p>What type of rock is this?</p>",2,class_response,2,train,11,Diorite,Pegmatite,13,FALSE,3,6,,
,,,,,,,,,,,html-button-response,325,2.0.0,701911,660ff598a3391e9b7d8feab4,2,30,934,,,,,,,,,"<img src= rock_img/I_Pegmatite_13.jpg style=""width:8cm; height:4.95cm;""><p style='font-size: 30px; color: red;'><strong>Incorrect!</strong></p><p style='font-size: 30px;'><strong>This rock is pegmatite</strong></p>",0,corr_feedback,2,train,11,,,,,,,,
,,,,,,,,,,,html-button-response,326,2.0.0,703791,660ff598a3391e9b7d8feab4,2,30,1878,,,,,,,,,"<img src= ""rock_img/I_Gabbro_08.jpg"" style=""width:8cm; height:5.15cm;""><p>What type of rock is this?</p>",2,class_response,2,train,12,Diorite,Gabbro,8,FALSE,3,4,,
,,,,,,,,,,,html-button-response,327,2.0.0,704758,660ff598a3391e9b7d8feab4,2,30,964,,,,,,,,,"<img src= rock_img/I_Gabbro_08.jpg style=""width:8cm; height:5.15cm;""><p style='font-size: 30px; color: red;'><strong>Incorrect!</strong></p><p style='font-size: 30px;'><strong>This rock is gabbro</strong></p>",0,corr_feedback,2,train,12,,,,,,,,
,,,,,,,,,,,html-button-response,328,2.0.0,706797,660ff598a3391e9b7d8feab4,2,30,2037,,,,,,,,,"<img src= ""rock_img/I_Peridotite_06.jpg"" style=""width:8cm; height:7.53cm;""><p>What type of rock is this?</p>",5,class_response,2,train,13,Pegmatite,Peridotite,6,FALSE,6,7,,
,,,,,,,,,,,html-button-response,329,2.0.0,707974,660ff598a3391e9b7d8feab4,2,30,1175,,,,,,,,,"<img src= rock_img/I_Peridotite_06.jpg style=""width:8cm; height:7.53cm;""><p style='font-size: 30px; color: red;'><strong>Incorrect!</strong></p><p style='font-size: 30px;'><strong>This rock is peridotite</strong></p>",0,corr_feedback,2,train,13,,,,,,,,
,,,,,,,,,,,html-button-response,330,2.0.0,709638,660ff598a3391e9b7d8feab4,2,30,1662,,,,,,,,,"<img src= ""rock_img/I_Pumice_10.jpg"" style=""width:8cm; height:7.609999999999999cm;""><p>What type of rock is this?</p>",7,class_response,2,train,14,Pumice,Pumice,10,TRUE,8,8,,
,,,,,,,,,,,html-button-response,331,2.0.0,711142,660ff598a3391e9b7d8feab4,2,30,1501,,,,,,,,,"<img src= rock_img/I_Pumice_10.jpg style=""width:8cm; height:7.609999999999999cm;""><p style='font-size: 30px; color: green;'><strong>Correct!</strong></p><p style='font-size: 30px;'><strong>This rock is pumice</strong></p>",0,corr_feedback,2,train,14,,,,,,,,
,,,,,,,,,,,html-button-response,332,2.0.0,714830,660ff598a3391e9b7d8feab4,2,30,3685,,,,,,,,,"<img src= ""rock_img/I_Pegmatite_03.jpg"" style=""width:8cm; height:5.239999999999999cm;""><p>What type of rock is this?</p>",0,class_response,2,train,15,Andesite,Pegmatite,3,FALSE,1,6,,
,,,,,,,,,,,html-button-response,333,2.0.0,725078,660ff598a3391e9b7d8feab4,2,30,10246,,,,,,,,,"<img src= rock_img/I_Pegmatite_03.jpg style=""width:8cm; height:5.239999999999999cm;""><p style='font-size: 30px; color: red;'><strong>Incorrect!</strong></p><p style='font-size: 30px;'><strong>This rock is pegmatite</strong></p>",0,corr_feedback,2,train,15,,,,,,,,
,,,,,,,,,,,html-button-response,334,2.0.0,728022,660ff598a3391e9b7d8feab4,2,30,2943,,,,,,,,,"<img src= ""rock_img/I_Andesite_04.jpg"" style=""width:8cm; height:5.96cm;""><p>What type of rock is this?</p>",4,class_response,2,train,16,Obsidian,Andesite,4,FALSE,5,1,,
,,,,,,,,,,,html-button-response,335,2.0.0,729094,660ff598a3391e9b7d8feab4,2,30,1069,,,,,,,,,"<img src= rock_img/I_Andesite_04.jpg style=""width:8cm; height:5.96cm;""><p style='font-size: 30px; color: red;'><strong>Incorrect!</strong></p><p style='font-size: 30px;'><strong>This rock is andesite</strong></p>",0,corr_feedback,2,train,16,,,,,,,,
,,,,,,,,,,,html-button-response,336,2.0.0,730990,660ff598a3391e9b7d8feab4,2,30,1894,,,,,,,,,"<img src= ""rock_img/I_Andesite_14.jpg"" style=""width:8cm; height:5.449999999999999cm;""><p>What type of rock is this?</p>",1,class_response,2,train,17,Basalt,Andesite,14,FALSE,2,1,,
,,,,,,,,,,,html-button-response,337,2.0.0,732102,660ff598a3391e9b7d8feab4,2,30,1109,,,,,,,,,"<img src= rock_img/I_Andesite_14.jpg style=""width:8cm; height:5.449999999999999cm;""><p style='font-size: 30px; color: red;'><strong>Incorrect!</strong></p><p style='font-size: 30px;'><strong>This rock is andesite</strong></p>",0,corr_feedback,2,train,17,,,,,,,,
,,,,,,,,,,,html-button-response,338,2.0.0,733703,660ff598a3391e9b7d8feab4,2,30,1598,,,,,,,,,"<img src= ""rock_img/I_Pumice_03.jpg"" style=""width:8cm; height:6.64cm;""><p>What type of rock is this?</p>",7,class_response,2,train,18,Pumice,Pumice,3,TRUE,8,8,,
,,,,,,,,,,,html-button-response,339,2.0.0,734925,660ff598a3391e9b7d8feab4,2,30,1221,,,,,,,,,"<img src= rock_img/I_Pumice_03.jpg style=""width:8cm; height:6.64cm;""><p style='font-size: 30px; color: green;'><strong>Correct!</strong></p><p style='font-size: 30px;'><strong>This rock is pumice</strong></p>",0,corr_feedback,2,train,18,,,,,,,,
,,,,,,,,,,,html-button-response,340,2.0.0,738471,660ff598a3391e9b7d8feab4,2,30,3543,,,,,,,,,"<img src= ""rock_img/I_Pegmatite_12.jpg"" style=""width:8cm; height:5.7cm;""><p>What type of rock is this?</p>",0,class_response,2,train,19,Andesite,Pegmatite,12,FALSE,1,6,,
,,,,,,,,,,,html-button-response,341,2.0.0,739670,660ff598a3391e9b7d8feab4,2,30,1198,,,,,,,,,"<img src= rock_img/I_Pegmatite_12.jpg style=""width:8cm; height:5.7cm;""><p style='font-size: 30px; color: red;'><strong>Incorrect!</strong></p><p style='font-size: 30px;'><strong>This rock is pegmatite</strong></p>",0,corr_feedback,2,train,19,,,,,,,,
,,,,,,,,,,,html-button-response,342,2.0.0,741415,660ff598a3391e9b7d8feab4,2,30,1742,,,,,,,,,"<img src= ""rock_img/I_Basalt_14.jpg"" style=""width:8cm; height:5.82cm;""><p>What type of rock is this?</p>",2,class_response,2,train,20,Diorite,Basalt,14,FALSE,3,2,,
,,,,,,,,,,,html-button-response,343,2.0.0,742567,660ff598a3391e9b7d8feab4,2,30,1149,,,,,,,,,"<img src= rock_img/I_Basalt_14.jpg style=""width:8cm; height:5.82cm;""><p style='font-size: 30px; color: red;'><strong>Incorrect!</strong></p><p style='font-size: 30px;'><strong>This rock is basalt</strong></p>",0,corr_feedback,2,train,20,,,,,,,,
,,,,,,,,,,,html-button-response,344,2.0.0,745807,660ff598a3391e9b7d8feab4,2,30,3238,,,,,,,,,"<img src= ""rock_img/I_Andesite_10.jpg"" style=""width:8cm; height:4.16cm;""><p>What type of rock is this?</p>",2,class_response,2,train,21,Diorite,Andesite,10,FALSE,3,1,,
,,,,,,,,,,,html-button-response,345,2.0.0,746998,660ff598a3391e9b7d8feab4,2,30,1190,,,,,,,,,"<img src= rock_img/I_Andesite_10.jpg style=""width:8cm; height:4.16cm;""><p style='font-size: 30px; color: red;'><strong>Incorrect!</strong></p><p style='font-size: 30px;'><strong>This rock is andesite</strong></p>",0,corr_feedback,2,train,21,,,,,,,,
,,,,,,,,,,,html-button-response,346,2.0.0,748598,660ff598a3391e9b7d8feab4,2,30,1598,,,,,,,,,"<img src= ""rock_img/I_Pumice_04.jpg"" style=""width:8cm; height:6.819999999999999cm;""><p>What type of rock is this?</p>",7,class_response,2,train,22,Pumice,Pumice,4,TRUE,8,8,,
,,,,,,,,,,,html-button-response,347,2.0.0,749670,660ff598a3391e9b7d8feab4,2,30,1069,,,,,,,,,"<img src= rock_img/I_Pumice_04.jpg style=""width:8cm; height:6.819999999999999cm;""><p style='font-size: 30px; color: green;'><strong>Correct!</strong></p><p style='font-size: 30px;'><strong>This rock is pumice</strong></p>",0,corr_feedback,2,train,22,,,,,,,,
,,,,,,,,,,,html-button-response,348,2.0.0,750801,660ff598a3391e9b7d8feab4,2,30,1128,,,,,,,,,"<img src= ""rock_img/I_Pumice_08.jpg"" style=""width:8cm; height:6.67cm;""><p>What type of rock is this?</p>",7,class_response,2,train,23,Pumice,Pumice,8,TRUE,8,8,,
,,,,,,,,,,,html-button-response,349,2.0.0,751655,660ff598a3391e9b7d8feab4,2,30,853,,,,,,,,,"<img src= rock_img/I_Pumice_08.jpg style=""width:8cm; height:6.67cm;""><p style='font-size: 30px; color: green;'><strong>Correct!</strong></p><p style='font-size: 30px;'><strong>This rock is pumice</strong></p>",0,corr_feedback,2,train,23,,,,,,,,
,,,,,,,,,,,html-button-response,350,2.0.0,754375,660ff598a3391e9b7d8feab4,2,30,2718,,,,,,,,,"<img src= ""rock_img/I_Peridotite_14.jpg"" style=""width:8cm; height:5.3cm;""><p>What type of rock is this?</p>",0,class_response,2,train,24,Andesite,Peridotite,14,FALSE,1,7,,
,,,,,,,,,,,html-button-response,351,2.0.0,755446,660ff598a3391e9b7d8feab4,2,30,1069,,,,,,,,,"<img src= rock_img/I_Peridotite_14.jpg style=""width:8cm; height:5.3cm;""><p style='font-size: 30px; color: red;'><strong>Incorrect!</strong></p><p style='font-size: 30px;'><strong>This rock is peridotite</strong></p>",0,corr_feedback,2,train,24,,,,,,,,
,,,,,,,,,,,html-button-response,352,2.0.0,758638,660ff598a3391e9b7d8feab4,2,30,3189,,,,,,,,,"<img src= ""rock_img/I_Gabbro_01.jpg"" style=""width:8cm; height:5.21cm;""><p>What type of rock is this?</p>",6,class_response,2,train,25,Peridotite,Gabbro,1,FALSE,7,4,,
,,,,,,,,,,,html-button-response,353,2.0.0,759830,660ff598a3391e9b7d8feab4,2,30,1190,,,,,,,,,"<img src= rock_img/I_Gabbro_01.jpg style=""width:8cm; height:5.21cm;""><p style='font-size: 30px; color: red;'><strong>Incorrect!</strong></p><p style='font-size: 30px;'><strong>This rock is gabbro</strong></p>",0,corr_feedback,2,train,25,,,,,,,,
,,,,,,,,,,,html-button-response,354,2.0.0,762094,660ff598a3391e9b7d8feab4,2,30,2262,,,,,,,,,"<img src= ""rock_img/I_Pegmatite_10.jpg"" style=""width:8cm; height:4.16cm;""><p>What type of rock is this?</p>",1,class_response,2,train,26,Basalt,Pegmatite,10,FALSE,2,6,,
,,,,,,,,,,,html-button-response,355,2.0.0,763110,660ff598a3391e9b7d8feab4,2,30,1014,,,,,,,,,"<img src= rock_img/I_Pegmatite_10.jpg style=""width:8cm; height:4.16cm;""><p style='font-size: 30px; color: red;'><strong>Incorrect!</strong></p><p style='font-size: 30px;'><strong>This rock is pegmatite</strong></p>",0,corr_feedback,2,train,26,,,,,,,,
,,,,,,,,,,,html-button-response,356,2.0.0,765255,660ff598a3391e9b7d8feab4,2,30,2142,,,,,,,,,"<img src= ""rock_img/I_Diorite_15.jpg"" style=""width:8cm; height:5.54cm;""><p>What type of rock is this?</p>",3,class_response,2,train,27,Gabbro,Diorite,15,FALSE,4,3,,
,,,,,,,,,,,html-button-response,357,2.0.0,766135,660ff598a3391e9b7d8feab4,2,30,878,,,,,,,,,"<img src= rock_img/I_Diorite_15.jpg style=""width:8cm; height:5.54cm;""><p style='font-size: 30px; color: red;'><strong>Incorrect!</strong></p><p style='font-size: 30px;'><strong>This rock is diorite</strong></p>",0,corr_feedback,2,train,27,,,,,,,,
,,,,,,,,,,,html-button-response,358,2.0.0,768038,660ff598a3391e9b7d8feab4,2,30,1902,,,,,,,,,"<img src= ""rock_img/I_Peridotite_06.jpg"" style=""width:8cm; height:7.53cm;""><p>What type of rock is this?</p>",5,class_response,2,train,28,Pegmatite,Peridotite,6,FALSE,6,7,,
,,,,,,,,,,,html-button-response,359,2.0.0,768894,660ff598a3391e9b7d8feab4,2,30,853,,,,,,,,,"<img src= rock_img/I_Peridotite_06.jpg style=""width:8cm; height:7.53cm;""><p style='font-size: 30px; color: red;'><strong>Incorrect!</strong></p><p style='font-size: 30px;'><strong>This rock is peridotite</strong></p>",0,corr_feedback,2,train,28,,,,,,,,
,,,,,,,,,,,html-button-response,360,2.0.0,772950,660ff598a3391e9b7d8feab4,2,30,4054,,,,,,,,,"<img src= ""rock_img/I_Peridotite_10.jpg"" style=""width:8cm; height:5.390000000000001cm;""><p>What type of rock is this?</p>",1,class_response,2,train,29,Basalt,Peridotite,10,FALSE,2,7,,
,,,,,,,,,,,html-button-response,361,2.0.0,774191,660ff598a3391e9b7d8feab4,2,30,1238,,,,,,,,,"<img src= rock_img/I_Peridotite_10.jpg style=""width:8cm; height:5.390000000000001cm;""><p style='font-size: 30px; color: red;'><strong>Incorrect!</strong></p><p style='font-size: 30px;'><strong>This rock is peridotite</strong></p>",0,corr_feedback,2,train,29,,,,,,,,
,,,,,,,,,,,html-button-response,362,2.0.0,775430,660ff598a3391e9b7d8feab4,2,30,1238,,,,,,,,,"<img src= ""rock_img/I_Obsidian_04.jpg"" style=""width:8cm; height:6.930000000000001cm;""><p>What type of rock is this?</p>",4,class_response,2,train,30,Obsidian,Obsidian,4,TRUE,5,5,,
,,,,,,,,,,,html-button-response,363,2.0.0,776245,660ff598a3391e9b7d8feab4,2,30,813,,,,,,,,,"<img src= rock_img/I_Obsidian_04.jpg style=""width:8cm; height:6.930000000000001cm;""><p style='font-size: 30px; color: green;'><strong>Correct!</strong></p><p style='font-size: 30px;'><strong>This rock is obsidian</strong></p>",0,corr_feedback,2,train,30,,,,,,,,
,,,,,,,,,,,html-button-response,364,2.0.0,779887,660ff598a3391e9b7d8feab4,2,30,3640,,,,,,,,,"<img src= ""rock_img/I_Andesite_09.jpg"" style=""width:8cm; height:6cm;""><p>What type of rock is this?</p>",3,class_response,2,train,31,Gabbro,Andesite,9,FALSE,4,1,,
,,,,,,,,,,,html-button-response,365,2.0.0,780895,660ff598a3391e9b7d8feab4,2,30,1005,,,,,,,,,"<img src= rock_img/I_Andesite_09.jpg style=""width:8cm; height:6cm;""><p style='font-size: 30px; color: red;'><strong>Incorrect!</strong></p><p style='font-size: 30px;'><strong>This rock is andesite</strong></p>",0,corr_feedback,2,train,31,,,,,,,,
,,,,,,,,,,,html-button-response,366,2.0.0,782150,660ff598a3391e9b7d8feab4,2,30,1254,,,,,,,,,"<img src= ""rock_img/I_Basalt_12.jpg"" style=""width:8cm; height:6.010000000000001cm;""><p>What type of rock is this?</p>",0,class_response,2,train,32,Andesite,Basalt,12,FALSE,1,2,,
,,,,,,,,,,,html-button-response,367,2.0.0,783319,660ff598a3391e9b7d8feab4,2,30,1165,,,,,,,,,"<img src= rock_img/I_Basalt_12.jpg style=""width:8cm; height:6.010000000000001cm;""><p style='font-size: 30px; color: red;'><strong>Incorrect!</strong></p><p style='font-size: 30px;'><strong>This rock is basalt</strong></p>",0,corr_feedback,2,train,32,,,,,,,,
,,,,,,,,,,,html-button-response,368,2.0.0,785248,660ff598a3391e9b7d8feab4,2,30,1927,,,,,,,,,"<img src= ""rock_img/I_Diorite_07.jpg"" style=""width:8cm; height:5.239999999999999cm;""><p>What type of rock is this?</p>",6,class_response,2,train,33,Peridotite,Diorite,7,FALSE,7,3,,
,,,,,,,,,,,html-button-response,369,2.0.0,786102,660ff598a3391e9b7d8feab4,2,30,853,,,,,,,,,"<img src= rock_img/I_Diorite_07.jpg style=""width:8cm; height:5.239999999999999cm;""><p style='font-size: 30px; color: red;'><strong>Incorrect!</strong></p><p style='font-size: 30px;'><strong>This rock is diorite</strong></p>",0,corr_feedback,2,train,33,,,,,,,,
,,,,,,,,,,,html-button-response,370,2.0.0,788078,660ff598a3391e9b7d8feab4,2,30,1973,,,,,,,,,"<img src= ""rock_img/I_Gabbro_08.jpg"" style=""width:8cm; height:5.15cm;""><p>What type of rock is this?</p>",0,class_response,2,train,34,Andesite,Gabbro,8,FALSE,1,4,,
,,,,,,,,,,,html-button-response,371,2.0.0,789070,660ff598a3391e9b7d8feab4,2,30,990,,,,,,,,,"<img src= rock_img/I_Gabbro_08.jpg style=""width:8cm; height:5.15cm;""><p style='font-size: 30px; color: red;'><strong>Incorrect!</strong></p><p style='font-size: 30px;'><strong>This rock is gabbro</strong></p>",0,corr_feedback,2,train,34,,,,,,,,
,,,,,,,,,,,html-button-response,372,2.0.0,790546,660ff598a3391e9b7d8feab4,2,30,1473,,,,,,,,,"<img src= ""rock_img/I_Peridotite_13.jpg"" style=""width:8cm; height:7.58cm;""><p>What type of rock is this?</p>",2,class_response,2,train,35,Diorite,Peridotite,13,FALSE,3,7,,
,,,,,,,,,,,html-button-response,373,2.0.0,791311,660ff598a3391e9b7d8feab4,2,30,763,,,,,,,,,"<img src= rock_img/I_Peridotite_13.jpg style=""width:8cm; height:7.58cm;""><p style='font-size: 30px; color: red;'><strong>Incorrect!</strong></p><p style='font-size: 30px;'><strong>This rock is peridotite</strong></p>",0,corr_feedback,2,train,35,,,,,,,,
,,,,,,,,,,,html-button-response,374,2.0.0,794606,660ff598a3391e9b7d8feab4,2,30,3292,,,,,,,,,"<img src= ""rock_img/I_Basalt_08.jpg"" style=""width:8cm; height:10.44cm;""><p>What type of rock is this?</p>",3,class_response,2,train,36,Gabbro,Basalt,8,FALSE,4,2,,
,,,,,,,,,,,html-button-response,375,2.0.0,795630,660ff598a3391e9b7d8feab4,2,30,1022,,,,,,,,,"<img src= rock_img/I_Basalt_08.jpg style=""width:8cm; height:10.44cm;""><p style='font-size: 30px; color: red;'><strong>Incorrect!</strong></p><p style='font-size: 30px;'><strong>This rock is basalt</strong></p>",0,corr_feedback,2,train,36,,,,,,,,
,,,,,,,,,,,html-button-response,376,2.0.0,797662,660ff598a3391e9b7d8feab4,2,30,2029,,,,,,,,,"<img src= ""rock_img/I_Diorite_10.jpg"" style=""width:8cm; height:5.949999999999999cm;""><p>What type of rock is this?</p>",6,class_response,2,train,37,Peridotite,Diorite,10,FALSE,7,3,,
,,,,,,,,,,,html-button-response,377,2.0.0,798486,660ff598a3391e9b7d8feab4,2,30,823,,,,,,,,,"<img src= rock_img/I_Diorite_10.jpg style=""width:8cm; height:5.949999999999999cm;""><p style='font-size: 30px; color: red;'><strong>Incorrect!</strong></p><p style='font-size: 30px;'><strong>This rock is diorite</strong></p>",0,corr_feedback,2,train,37,,,,,,,,
,,,,,,,,,,,html-button-response,378,2.0.0,800160,660ff598a3391e9b7d8feab4,2,30,1671,,,,,,,,,"<img src= ""rock_img/I_Gabbro_14.jpg"" style=""width:8cm; height:8.48cm;""><p>What type of rock is this?</p>",0,class_response,2,train,38,Andesite,Gabbro,14,FALSE,1,4,,
,,,,,,,,,,,html-button-response,379,2.0.0,801087,660ff598a3391e9b7d8feab4,2,30,925,,,,,,,,,"<img src= rock_img/I_Gabbro_14.jpg style=""width:8cm; height:8.48cm;""><p style='font-size: 30px; color: red;'><strong>Incorrect!</strong></p><p style='font-size: 30px;'><strong>This rock is gabbro</strong></p>",0,corr_feedback,2,train,38,,,,,,,,
,,,,,,,,,,,html-button-response,380,2.0.0,803736,660ff598a3391e9b7d8feab4,2,30,2646,,,,,,,,,"<img src= ""rock_img/I_Diorite_06.jpg"" style=""width:8cm; height:6.03cm;""><p>What type of rock is this?</p>",1,class_response,2,train,39,Basalt,Diorite,6,FALSE,2,3,,
,,,,,,,,,,,html-button-response,381,2.0.0,804614,660ff598a3391e9b7d8feab4,2,30,877,,,,,,,,,"<img src= rock_img/I_Diorite_06.jpg style=""width:8cm; height:6.03cm;""><p style='font-size: 30px; color: red;'><strong>Incorrect!</strong></p><p style='font-size: 30px;'><strong>This rock is diorite</strong></p>",0,corr_feedback,2,train,39,,,,,,,,
,,,,,,,,,,,html-button-response,382,2.0.0,806086,660ff598a3391e9b7d8feab4,2,30,1469,,,,,,,,,"<img src= ""rock_img/I_Obsidian_11.jpg"" style=""width:8cm; height:6.05cm;""><p>What type of rock is this?</p>",4,class_response,2,train,40,Obsidian,Obsidian,11,TRUE,5,5,,
,,,,,,,,,,,html-button-response,383,2.0.0,806751,660ff598a3391e9b7d8feab4,2,30,661,,,,,,,,,"<img src= rock_img/I_Obsidian_11.jpg style=""width:8cm; height:6.05cm;""><p style='font-size: 30px; color: green;'><strong>Correct!</strong></p><p style='font-size: 30px;'><strong>This rock is obsidian</strong></p>",0,corr_feedback,2,train,40,,,,,,,,
,,,,,,,,,,,html-button-response,384,2.0.0,810198,660ff598a3391e9b7d8feab4,2,30,3445,,,,,,,,,"<img src= ""rock_img/I_Diorite_11.jpg"" style=""width:8cm; height:7.11cm;""><p>What type of rock is this?</p>",2,class_response,2,train,41,Diorite,Diorite,11,TRUE,3,3,,
