"width","height","webaudio","browser","browser_version","mobile","os","fullscreen","vsync_rate","webcam","microphone","trial_type","trial_index","plugin_version","time_elapsed","subjID","condition","stimID","rt","url","success","value","timeout","failed_images","failed_audio","failed_video","view_history","stimulus","response","trialType","cycle","phase","trial","resp","cat","token","corr","resp_num","cat_num","time_fb1","time_fb2"
"1280","551","true","chrome","131.0.0","false","Windows 10","true","58.77","true","true","browser-check","0","2.0.0","1033","6640be7edc706d4622dbab1c","2","51","","","","","","","","","","","","","","","","","","","","","","",""
"","","","","","","","","","","","external-html","1","2.0.0","24242","6640be7edc706d4622dbab1c","2","51","23112","consent_form.html","","","","","","","","","","","","","","","","","","","","",""
"","","","","","","","","","","","fullscreen","2","2.0.0","27049","6640be7edc706d4622dbab1c","2","51","1799","","true","","","","","","","","","","","","","","","","","","","",""
"","","","","","","","","","","","call-function","3","2.0.0","27054","6640be7edc706d4622dbab1c","2","51","","","","{}","","","","","","","","","","","","","","","","","","",""
"","","","","","","","","","","","preload","4","2.0.0","30609","6640be7edc706d4622dbab1c","2","51","","","true","","false","[]","[]","[]","","","","","","","","","","","","","","",""
"","","","","","","","","","","","instructions","5","2.0.0","107576","6640be7edc706d4622dbab1c","2","51","76966","","","","","","","","[{""page_index"":0,""viewing_time"":4855},{""page_index"":1,""viewing_time"":54370},{""page_index"":2,""viewing_time"":17740}]","","","","","","","","","","","","","",""
"","","","","","","","","","","","html-button-response","6","2.0.0","109349","6640be7edc706d4622dbab1c","2","51","1771","","","","","","","","","","0","start_test","","","","","","","","","","",""
"","","","","","","","","","","","html-button-response","7","2.0.0","112708","6640be7edc706d4622dbab1c","2","51","3357","","","","","","","","","<img src= ""rock_img/I_Basalt_05.jpg"" style=""width:8cm; height:8.18cm;""><p>What type of rock is this?</p>","4","class_response","0","test","1","Obsidian","Basalt","05","false","5","2","",""
"","","","","","","","","","","","html-keyboard-response","8","2.0.0","113217","6640be7edc706d4622dbab1c","2","51","null","","","","","","","","","<p style='font-size: 30px;'><strong>Okay</strong></p>","null","neutral_feedback","0","test","1","","","","","","","",""
"","","","","","","","","","","","html-button-response","9","2.0.0","115118","6640be7edc706d4622dbab1c","2","51","1898","","","","","","","","","<img src= ""rock_img/I_Obsidian_07.jpg"" style=""width:8cm; height:4.76cm;""><p>What type of rock is this?</p>","1","class_response","0","test","2","Basalt","Obsidian","07","false","2","5","",""
"","","","","","","","","","","","html-keyboard-response","10","2.0.0","115620","6640be7edc706d4622dbab1c","2","51","null","","","","","","","","","<p style='font-size: 30px;'><strong>Okay</strong></p>","null","neutral_feedback","0","test","2","","","","","","","",""
"","","","","","","","","","","","html-button-response","11","2.0.0","117094","6640be7edc706d4622dbab1c","2","51","1473","","","","","","","","","<img src= ""rock_img/I_Peridotite_14.jpg"" style=""width:8cm; height:5.3cm;""><p>What type of rock is this?</p>","2","class_response","0","test","3","Diorite","Peridotite","14","false","3","7","",""
"","","","","","","","","","","","html-keyboard-response","12","2.0.0","117603","6640be7edc706d4622dbab1c","2","51","null","","","","","","","","","<p style='font-size: 30px;'><strong>Okay</strong></p>","null","neutral_feedback","0","test","3","","","","","","","",""
"","","","","","","","","","","","html-button-response","13","2.0.0","119451","6640be7edc706d4622dbab1c","2","51","1846","","","","","","","","","<img src= ""rock_img/I_Diorite_06.jpg"" style=""width:8cm; height:6.03cm;""><p>What type of rock is this?</p>","7","class_response","0","test","4","Pumice","Diorite","06","false","8","3","",""
"","","","","","","","","","","","html-keyboard-response","14","2.0.0","119960","6640be7edc706d4622dbab1c","2","51","null","","","","","","","","","<p style='font-size: 30px;'><strong>Okay</strong></p>","null","neutral_feedback","0","test","4","","","","","","","",""
"","","","","","","","","","","","html-button-response","15","2.0.0","121608","6640be7edc706d4622dbab1c","2","51","1647","","","","","","","","","<img src= ""rock_img/I_Diorite_14.jpg"" style=""width:8cm; height:5.71cm;""><p>What type of rock is this?</p>","0","class_response","0","test","5","Andesite","Diorite","14","false","1","3","",""
"","","","","","","","","","","","html-keyboard-response","16","2.0.0","122120","6640be7edc706d4622dbab1c","2","51","null","","","","","","","","","<p style='font-size: 30px;'><strong>Okay</strong></p>","null","neutral_feedback","0","test","5","","","","","","","",""
"","","","","","","","","","","","html-button-response","17","2.0.0","123369","6640be7edc706d4622dbab1c","2","51","1246","","","","","","","","","<img src= ""rock_img/I_Peridotite_04.jpg"" style=""width:8cm; height:6.680000000000001cm;""><p>What type of rock is this?</p>","1","class_response","0","test","6","Basalt","Peridotite","04","false","2","7","",""
"","","","","","","","","","","","html-keyboard-response","18","2.0.0","123884","6640be7edc706d4622dbab1c","2","51","null","","","","","","","","","<p style='font-size: 30px;'><strong>Okay</strong></p>","null","neutral_feedback","0","test","6","","","","","","","",""
"","","","","","","","","","","","html-button-response","19","2.0.0","126566","6640be7edc706d4622dbab1c","2","51","2679","","","","","","","","","<img src= ""rock_img/I_Obsidian_06.jpg"" style=""width:8cm; height:6.8cm;""><p>What type of rock is this?</p>","3","class_response","0","test","7","Gabbro","Obsidian","06","false","4","5","",""
"","","","","","","","","","","","html-keyboard-response","20","2.0.0","127068","6640be7edc706d4622dbab1c","2","51","null","","","","","","","","","<p style='font-size: 30px;'><strong>Okay</strong></p>","null","neutral_feedback","0","test","7","","","","","","","",""
"","","","","","","","","","","","html-button-response","21","2.0.0","128657","6640be7edc706d4622dbab1c","2","51","1587","","","","","","","","","<img src= ""rock_img/I_Peridotite_07.jpg"" style=""width:8cm; height:4.83cm;""><p>What type of rock is this?</p>","4","class_response","0","test","8","Obsidian","Peridotite","07","false","5","7","",""
"","","","","","","","","","","","html-keyboard-response","22","2.0.0","129174","6640be7edc706d4622dbab1c","2","51","null","","","","","","","","","<p style='font-size: 30px;'><strong>Okay</strong></p>","null","neutral_feedback","0","test","8","","","","","","","",""
"","","","","","","","","","","","html-button-response","23","2.0.0","130941","6640be7edc706d4622dbab1c","2","51","1765","","","","","","","","","<img src= ""rock_img/I_Obsidian_11.jpg"" style=""width:8cm; height:6.05cm;""><p>What type of rock is this?</p>","1","class_response","0","test","9","Basalt","Obsidian","11","false","2","5","",""
"","","","","","","","","","","","html-keyboard-response","24","2.0.0","131449","6640be7edc706d4622dbab1c","2","51","null","","","","","","","","","<p style='font-size: 30px;'><strong>Okay</strong></p>","null","neutral_feedback","0","test","9","","","","","","","",""
"","","","","","","","","","","","html-button-response","25","2.0.0","133326","6640be7edc706d4622dbab1c","2","51","1875","","","","","","","","","<img src= ""rock_img/I_Andesite_01.jpg"" style=""width:8cm; height:5.87cm;""><p>What type of rock is this?</p>","4","class_response","0","test","10","Obsidian","Andesite","01","false","5","1","",""
"","","","","","","","","","","","html-keyboard-response","26","2.0.0","133833","6640be7edc706d4622dbab1c","2","51","null","","","","","","","","","<p style='font-size: 30px;'><strong>Okay</strong></p>","null","neutral_feedback","0","test","10","","","","","","","",""
"","","","","","","","","","","","html-button-response","27","2.0.0","135185","6640be7edc706d4622dbab1c","2","51","1350","","","","","","","","","<img src= ""rock_img/I_Diorite_11.jpg"" style=""width:8cm; height:7.11cm;""><p>What type of rock is this?</p>","7","class_response","0","test","11","Pumice","Diorite","11","false","8","3","",""
"","","","","","","","","","","","html-keyboard-response","28","2.0.0","135699","6640be7edc706d4622dbab1c","2","51","null","","","","","","","","","<p style='font-size: 30px;'><strong>Okay</strong></p>","null","neutral_feedback","0","test","11","","","","","","","",""
"","","","","","","","","","","","html-button-response","29","2.0.0","137137","6640be7edc706d4622dbab1c","2","51","1435","","","","","","","","","<img src= ""rock_img/I_Diorite_02.jpg"" style=""width:8cm; height:6.27cm;""><p>What type of rock is this?</p>","3","class_response","0","test","12","Gabbro","Diorite","02","false","4","3","",""
"","","","","","","","","","","","html-keyboard-response","30","2.0.0","137653","6640be7edc706d4622dbab1c","2","51","null","","","","","","","","","<p style='font-size: 30px;'><strong>Okay</strong></p>","null","neutral_feedback","0","test","12","","","","","","","",""
"","","","","","","","","","","","html-button-response","31","2.0.0","140370","6640be7edc706d4622dbab1c","2","51","2715","","","","","","","","","<img src= ""rock_img/I_Gabbro_09.jpg"" style=""width:8cm; height:7.279999999999999cm;""><p>What type of rock is this?</p>","4","class_response","0","test","13","Obsidian","Gabbro","09","false","5","4","",""
"","","","","","","","","","","","html-keyboard-response","32","2.0.0","140880","6640be7edc706d4622dbab1c","2","51","null","","","","","","","","","<p style='font-size: 30px;'><strong>Okay</strong></p>","null","neutral_feedback","0","test","13","","","","","","","",""
"","","","","","","","","","","","html-button-response","33","2.0.0","142692","6640be7edc706d4622dbab1c","2","51","1811","","","","","","","","","<img src= ""rock_img/I_Basalt_16.jpg"" style=""width:8cm; height:7.659999999999999cm;""><p>What type of rock is this?</p>","1","class_response","0","test","14","Basalt","Basalt","16","true","2","2","",""
"","","","","","","","","","","","html-keyboard-response","34","2.0.0","143195","6640be7edc706d4622dbab1c","2","51","null","","","","","","","","","<p style='font-size: 30px;'><strong>Okay</strong></p>","null","neutral_feedback","0","test","14","","","","","","","",""
"","","","","","","","","","","","html-button-response","35","2.0.0","144620","6640be7edc706d4622dbab1c","2","51","1423","","","","","","","","","<img src= ""rock_img/I_Pegmatite_12.jpg"" style=""width:8cm; height:5.7cm;""><p>What type of rock is this?</p>","5","class_response","0","test","15","Pegmatite","Pegmatite","12","true","6","6","",""
"","","","","","","","","","","","html-keyboard-response","36","2.0.0","145133","6640be7edc706d4622dbab1c","2","51","null","","","","","","","","","<p style='font-size: 30px;'><strong>Okay</strong></p>","null","neutral_feedback","0","test","15","","","","","","","",""
"","","","","","","","","","","","html-button-response","37","2.0.0","146498","6640be7edc706d4622dbab1c","2","51","1363","","","","","","","","","<img src= ""rock_img/I_Pumice_16.jpg"" style=""width:8cm; height:6.79cm;""><p>What type of rock is this?</p>","7","class_response","0","test","16","Pumice","Pumice","16","true","8","8","",""
"","","","","","","","","","","","html-keyboard-response","38","2.0.0","147004","6640be7edc706d4622dbab1c","2","51","null","","","","","","","","","<p style='font-size: 30px;'><strong>Okay</strong></p>","null","neutral_feedback","0","test","16","","","","","","","",""
"","","","","","","","","","","","html-button-response","39","2.0.0","148102","6640be7edc706d4622dbab1c","2","51","1097","","","","","","","","","<img src= ""rock_img/I_Peridotite_02.jpg"" style=""width:8cm; height:5.859999999999999cm;""><p>What type of rock is this?</p>","3","class_response","0","test","17","Gabbro","Peridotite","02","false","4","7","",""
"","","","","","","","","","","","html-keyboard-response","40","2.0.0","148603","6640be7edc706d4622dbab1c","2","51","null","","","","","","","","","<p style='font-size: 30px;'><strong>Okay</strong></p>","null","neutral_feedback","0","test","17","","","","","","","",""
"","","","","","","","","","","","html-button-response","41","2.0.0","149591","6640be7edc706d4622dbab1c","2","51","987","","","","","","","","","<img src= ""rock_img/I_Gabbro_11.jpg"" style=""width:8cm; height:6.2cm;""><p>What type of rock is this?</p>","0","class_response","0","test","18","Andesite","Gabbro","11","false","1","4","",""
"","","","","","","","","","","","html-keyboard-response","42","2.0.0","150096","6640be7edc706d4622dbab1c","2","51","null","","","","","","","","","<p style='font-size: 30px;'><strong>Okay</strong></p>","null","neutral_feedback","0","test","18","","","","","","","",""
"","","","","","","","","","","","html-button-response","43","2.0.0","151149","6640be7edc706d4622dbab1c","2","51","1051","","","","","","","","","<img src= ""rock_img/I_Diorite_13.jpg"" style=""width:8cm; height:6.29cm;""><p>What type of rock is this?</p>","1","class_response","0","test","19","Basalt","Diorite","13","false","2","3","",""
"","","","","","","","","","","","html-keyboard-response","44","2.0.0","151652","6640be7edc706d4622dbab1c","2","51","null","","","","","","","","","<p style='font-size: 30px;'><strong>Okay</strong></p>","null","neutral_feedback","0","test","19","","","","","","","",""
"","","","","","","","","","","","html-button-response","45","2.0.0","152702","6640be7edc706d4622dbab1c","2","51","1047","","","","","","","","","<img src= ""rock_img/I_Basalt_12.jpg"" style=""width:8cm; height:6.010000000000001cm;""><p>What type of rock is this?</p>","0","class_response","0","test","20","Andesite","Basalt","12","false","1","2","",""
"","","","","","","","","","","","html-keyboard-response","46","2.0.0","153216","6640be7edc706d4622dbab1c","2","51","null","","","","","","","","","<p style='font-size: 30px;'><strong>Okay</strong></p>","null","neutral_feedback","0","test","20","","","","","","","",""
"","","","","","","","","","","","html-button-response","47","2.0.0","155586","6640be7edc706d4622dbab1c","2","51","2366","","","","","","","","","<img src= ""rock_img/I_Obsidian_10.jpg"" style=""width:8cm; height:6.260000000000001cm;""><p>What type of rock is this?</p>","6","class_response","0","test","21","Peridotite","Obsidian","10","false","7","5","",""
"","","","","","","","","","","","html-keyboard-response","48","2.0.0","156093","6640be7edc706d4622dbab1c","2","51","null","","","","","","","","","<p style='font-size: 30px;'><strong>Okay</strong></p>","null","neutral_feedback","0","test","21","","","","","","","",""
"","","","","","","","","","","","html-button-response","49","2.0.0","157618","6640be7edc706d4622dbab1c","2","51","1523","","","","","","","","","<img src= ""rock_img/I_Basalt_08.jpg"" style=""width:8cm; height:10.44cm;""><p>What type of rock is this?</p>","0","class_response","0","test","22","Andesite","Basalt","08","false","1","2","",""
"","","","","","","","","","","","html-keyboard-response","50","2.0.0","158133","6640be7edc706d4622dbab1c","2","51","null","","","","","","","","","<p style='font-size: 30px;'><strong>Okay</strong></p>","null","neutral_feedback","0","test","22","","","","","","","",""
"","","","","","","","","","","","html-button-response","51","2.0.0","159241","6640be7edc706d4622dbab1c","2","51","1106","","","","","","","","","<img src= ""rock_img/I_Pumice_13.jpg"" style=""width:8cm; height:8.200000000000001cm;""><p>What type of rock is this?</p>","2","class_response","0","test","23","Diorite","Pumice","13","false","3","8","",""
"","","","","","","","","","","","html-keyboard-response","52","2.0.0","159746","6640be7edc706d4622dbab1c","2","51","null","","","","","","","","","<p style='font-size: 30px;'><strong>Okay</strong></p>","null","neutral_feedback","0","test","23","","","","","","","",""
"","","","","","","","","","","","html-button-response","53","2.0.0","160850","6640be7edc706d4622dbab1c","2","51","1102","","","","","","","","","<img src= ""rock_img/I_Gabbro_03.jpg"" style=""width:8cm; height:8.52cm;""><p>What type of rock is this?</p>","1","class_response","0","test","24","Basalt","Gabbro","03","false","2","4","",""
"","","","","","","","","","","","html-keyboard-response","54","2.0.0","161358","6640be7edc706d4622dbab1c","2","51","null","","","","","","","","","<p style='font-size: 30px;'><strong>Okay</strong></p>","null","neutral_feedback","0","test","24","","","","","","","",""
"","","","","","","","","","","","html-button-response","55","2.0.0","162885","6640be7edc706d4622dbab1c","2","51","1525","","","","","","","","","<img src= ""rock_img/I_Andesite_02.jpg"" style=""width:8cm; height:8.5cm;""><p>What type of rock is this?</p>","5","class_response","0","test","25","Pegmatite","Andesite","02","false","6","1","",""
"","","","","","","","","","","","html-keyboard-response","56","2.0.0","163388","6640be7edc706d4622dbab1c","2","51","null","","","","","","","","","<p style='font-size: 30px;'><strong>Okay</strong></p>","null","neutral_feedback","0","test","25","","","","","","","",""
"","","","","","","","","","","","html-button-response","57","2.0.0","165308","6640be7edc706d4622dbab1c","2","51","1918","","","","","","","","","<img src= ""rock_img/I_Pumice_06.jpg"" style=""width:8cm; height:6.9399999999999995cm;""><p>What type of rock is this?</p>","2","class_response","0","test","26","Diorite","Pumice","06","false","3","8","",""
"","","","","","","","","","","","html-keyboard-response","58","2.0.0","165811","6640be7edc706d4622dbab1c","2","51","null","","","","","","","","","<p style='font-size: 30px;'><strong>Okay</strong></p>","null","neutral_feedback","0","test","26","","","","","","","",""
"","","","","","","","","","","","html-button-response","59","2.0.0","167457","6640be7edc706d4622dbab1c","2","51","1644","","","","","","","","","<img src= ""rock_img/I_Pegmatite_16.jpg"" style=""width:8cm; height:5.8cm;""><p>What type of rock is this?</p>","1","class_response","0","test","27","Basalt","Pegmatite","16","false","2","6","",""
"","","","","","","","","","","","html-keyboard-response","60","2.0.0","167972","6640be7edc706d4622dbab1c","2","51","null","","","","","","","","","<p style='font-size: 30px;'><strong>Okay</strong></p>","null","neutral_feedback","0","test","27","","","","","","","",""
"","","","","","","","","","","","html-button-response","61","2.0.0","169432","6640be7edc706d4622dbab1c","2","51","1459","","","","","","","","","<img src= ""rock_img/I_Obsidian_05.jpg"" style=""width:8cm; height:6.33cm;""><p>What type of rock is this?</p>","4","class_response","0","test","28","Obsidian","Obsidian","05","true","5","5","",""
"","","","","","","","","","","","html-keyboard-response","62","2.0.0","169942","6640be7edc706d4622dbab1c","2","51","null","","","","","","","","","<p style='font-size: 30px;'><strong>Okay</strong></p>","null","neutral_feedback","0","test","28","","","","","","","",""
"","","","","","","","","","","","html-button-response","63","2.0.0","171991","6640be7edc706d4622dbab1c","2","51","2048","","","","","","","","","<img src= ""rock_img/I_Pegmatite_06.jpg"" style=""width:8cm; height:5.17cm;""><p>What type of rock is this?</p>","0","class_response","0","test","29","Andesite","Pegmatite","06","false","1","6","",""
"","","","","","","","","","","","html-keyboard-response","64","2.0.0","172506","6640be7edc706d4622dbab1c","2","51","null","","","","","","","","","<p style='font-size: 30px;'><strong>Okay</strong></p>","null","neutral_feedback","0","test","29","","","","","","","",""
"","","","","","","","","","","","html-button-response","65","2.0.0","173772","6640be7edc706d4622dbab1c","2","51","1266","","","","","","","","","<img src= ""rock_img/I_Andesite_07.jpg"" style=""width:8cm; height:5.93cm;""><p>What type of rock is this?</p>","0","class_response","0","test","30","Andesite","Andesite","07","true","1","1","",""
"","","","","","","","","","","","html-keyboard-response","66","2.0.0","174275","6640be7edc706d4622dbab1c","2","51","null","","","","","","","","","<p style='font-size: 30px;'><strong>Okay</strong></p>","null","neutral_feedback","0","test","30","","","","","","","",""
"","","","","","","","","","","","html-button-response","67","2.0.0","175088","6640be7edc706d4622dbab1c","2","51","812","","","","","","","","","<img src= ""rock_img/I_Andesite_09.jpg"" style=""width:8cm; height:6cm;""><p>What type of rock is this?</p>","0","class_response","0","test","31","Andesite","Andesite","09","true","1","1","",""
"","","","","","","","","","","","html-keyboard-response","68","2.0.0","175596","6640be7edc706d4622dbab1c","2","51","null","","","","","","","","","<p style='font-size: 30px;'><strong>Okay</strong></p>","null","neutral_feedback","0","test","31","","","","","","","",""
"","","","","","","","","","","","html-button-response","69","2.0.0","176992","6640be7edc706d4622dbab1c","2","51","1396","","","","","","","","","<img src= ""rock_img/I_Gabbro_05.jpg"" style=""width:8cm; height:6cm;""><p>What type of rock is this?</p>","3","class_response","0","test","32","Gabbro","Gabbro","05","true","4","4","",""
"","","","","","","","","","","","html-keyboard-response","70","2.0.0","177502","6640be7edc706d4622dbab1c","2","51","null","","","","","","","","","<p style='font-size: 30px;'><strong>Okay</strong></p>","null","neutral_feedback","0","test","32","","","","","","","",""
"","","","","","","","","","","","html-button-response","71","2.0.0","179867","6640be7edc706d4622dbab1c","2","51","2364","","","","","","","","","<img src= ""rock_img/I_Basalt_04.jpg"" style=""width:8cm; height:7.53cm;""><p>What type of rock is this?</p>","4","class_response","0","test","33","Obsidian","Basalt","04","false","5","2","",""
"","","","","","","","","","","","html-keyboard-response","72","2.0.0","180376","6640be7edc706d4622dbab1c","2","51","null","","","","","","","","","<p style='font-size: 30px;'><strong>Okay</strong></p>","null","neutral_feedback","0","test","33","","","","","","","",""
"","","","","","","","","","","","html-button-response","73","2.0.0","181814","6640be7edc706d4622dbab1c","2","51","1437","","","","","","","","","<img src= ""rock_img/I_Pumice_08.jpg"" style=""width:8cm; height:6.67cm;""><p>What type of rock is this?</p>","1","class_response","0","test","34","Basalt","Pumice","08","false","2","8","",""
"","","","","","","","","","","","html-keyboard-response","74","2.0.0","182318","6640be7edc706d4622dbab1c","2","51","null","","","","","","","","","<p style='font-size: 30px;'><strong>Okay</strong></p>","null","neutral_feedback","0","test","34","","","","","","","",""
"","","","","","","","","","","","html-button-response","75","2.0.0","190267","6640be7edc706d4622dbab1c","2","51","7948","","","","","","","","","<img src= ""rock_img/I_Andesite_03.jpg"" style=""width:8cm; height:5.73cm;""><p>What type of rock is this?</p>","0","class_response","0","test","35","Andesite","Andesite","03","true","1","1","",""
"","","","","","","","","","","","html-keyboard-response","76","2.0.0","190778","6640be7edc706d4622dbab1c","2","51","null","","","","","","","","","<p style='font-size: 30px;'><strong>Okay</strong></p>","null","neutral_feedback","0","test","35","","","","","","","",""
"","","","","","","","","","","","html-button-response","77","2.0.0","192026","6640be7edc706d4622dbab1c","2","51","1247","","","","","","","","","<img src= ""rock_img/I_Obsidian_08.jpg"" style=""width:8cm; height:7.39cm;""><p>What type of rock is this?</p>","4","class_response","0","test","36","Obsidian","Obsidian","08","true","5","5","",""
"","","","","","","","","","","","html-keyboard-response","78","2.0.0","192538","6640be7edc706d4622dbab1c","2","51","null","","","","","","","","","<p style='font-size: 30px;'><strong>Okay</strong></p>","null","neutral_feedback","0","test","36","","","","","","","",""
"","","","","","","","","","","","html-button-response","79","2.0.0","194575","6640be7edc706d4622dbab1c","2","51","2035","","","","","","","","","<img src= ""rock_img/I_Gabbro_16.jpg"" style=""width:8cm; height:6.44cm;""><p>What type of rock is this?</p>","1","class_response","0","test","37","Basalt","Gabbro","16","false","2","4","",""
"","","","","","","","","","","","html-keyboard-response","80","2.0.0","195090","6640be7edc706d4622dbab1c","2","51","null","","","","","","","","","<p style='font-size: 30px;'><strong>Okay</strong></p>","null","neutral_feedback","0","test","37","","","","","","","",""
"","","","","","","","","","","","html-button-response","81","2.0.0","196902","6640be7edc706d4622dbab1c","2","51","1810","","","","","","","","","<img src= ""rock_img/I_Andesite_04.jpg"" style=""width:8cm; height:5.96cm;""><p>What type of rock is this?</p>","3","class_response","0","test","38","Gabbro","Andesite","04","false","4","1","",""
"","","","","","","","","","","","html-keyboard-response","82","2.0.0","197417","6640be7edc706d4622dbab1c","2","51","null","","","","","","","","","<p style='font-size: 30px;'><strong>Okay</strong></p>","null","neutral_feedback","0","test","38","","","","","","","",""
"","","","","","","","","","","","html-button-response","83","2.0.0","199901","6640be7edc706d4622dbab1c","2","51","2482","","","","","","","","","<img src= ""rock_img/I_Gabbro_14.jpg"" style=""width:8cm; height:8.48cm;""><p>What type of rock is this?</p>","0","class_response","0","test","39","Andesite","Gabbro","14","false","1","4","",""
"","","","","","","","","","","","html-keyboard-response","84","2.0.0","200414","6640be7edc706d4622dbab1c","2","51","null","","","","","","","","","<p style='font-size: 30px;'><strong>Okay</strong></p>","null","neutral_feedback","0","test","39","","","","","","","",""
"","","","","","","","","","","","html-button-response","85","2.0.0","201730","6640be7edc706d4622dbab1c","2","51","1315","","","","","","","","","<img src= ""rock_img/I_Peridotite_08.jpg"" style=""width:8cm; height:6.7cm;""><p>What type of rock is this?</p>","6","class_response","0","test","40","Peridotite","Peridotite","08","true","7","7","",""
"","","","","","","","","","","","html-keyboard-response","86","2.0.0","202242","6640be7edc706d4622dbab1c","2","51","null","","","","","","","","","<p style='font-size: 30px;'><strong>Okay</strong></p>","null","neutral_feedback","0","test","40","","","","","","","",""
"","","","","","","","","","","","html-button-response","87","2.0.0","203558","6640be7edc706d4622dbab1c","2","51","1314","","","","","","","","","<img src= ""rock_img/I_Pumice_05.jpg"" style=""width:8cm; height:7.25cm;""><p>What type of rock is this?</p>","7","class_response","0","test","41","Pumice","Pumice","05","true","8","8","",""
"","","","","","","","","","","","html-keyboard-response","88","2.0.0","204065","6640be7edc706d4622dbab1c","2","51","null","","","","","","","","","<p style='font-size: 30px;'><strong>Okay</strong></p>","null","neutral_feedback","0","test","41","","","","","","","",""
"","","","","","","","","","","","html-button-response","89","2.0.0","205729","6640be7edc706d4622dbab1c","2","51","1663","","","","","","","","","<img src= ""rock_img/I_Diorite_12.jpg"" style=""width:8cm; height:4.88cm;""><p>What type of rock is this?</p>","1","class_response","0","test","42","Basalt","Diorite","12","false","2","3","",""
"","","","","","","","","","","","html-keyboard-response","90","2.0.0","206234","6640be7edc706d4622dbab1c","2","51","null","","","","","","","","","<p style='font-size: 30px;'><strong>Okay</strong></p>","null","neutral_feedback","0","test","42","","","","","","","",""
"","","","","","","","","","","","html-button-response","91","2.0.0","207862","6640be7edc706d4622dbab1c","2","51","1627","","","","","","","","","<img src= ""rock_img/I_Pumice_10.jpg"" style=""width:8cm; height:7.609999999999999cm;""><p>What type of rock is this?</p>","7","class_response","0","test","43","Pumice","Pumice","10","true","8","8","",""
"","","","","","","","","","","","html-keyboard-response","92","2.0.0","208364","6640be7edc706d4622dbab1c","2","51","null","","","","","","","","","<p style='font-size: 30px;'><strong>Okay</strong></p>","null","neutral_feedback","0","test","43","","","","","","","",""
"","","","","","","","","","","","html-button-response","93","2.0.0","210548","6640be7edc706d4622dbab1c","2","51","2183","","","","","","","","","<img src= ""rock_img/I_Pegmatite_07.jpg"" style=""width:8cm; height:6.7cm;""><p>What type of rock is this?</p>","4","class_response","0","test","44","Obsidian","Pegmatite","07","false","5","6","",""
"","","","","","","","","","","","html-keyboard-response","94","2.0.0","211053","6640be7edc706d4622dbab1c","2","51","null","","","","","","","","","<p style='font-size: 30px;'><strong>Okay</strong></p>","null","neutral_feedback","0","test","44","","","","","","","",""
"","","","","","","","","","","","html-button-response","95","2.0.0","212863","6640be7edc706d4622dbab1c","2","51","1809","","","","","","","","","<img src= ""rock_img/I_Pegmatite_13.jpg"" style=""width:8cm; height:4.95cm;""><p>What type of rock is this?</p>","3","class_response","0","test","45","Gabbro","Pegmatite","13","false","4","6","",""
"","","","","","","","","","","","html-keyboard-response","96","2.0.0","213374","6640be7edc706d4622dbab1c","2","51","null","","","","","","","","","<p style='font-size: 30px;'><strong>Okay</strong></p>","null","neutral_feedback","0","test","45","","","","","","","",""
"","","","","","","","","","","","html-button-response","97","2.0.0","216280","6640be7edc706d4622dbab1c","2","51","2904","","","","","","","","","<img src= ""rock_img/I_Basalt_02.jpg"" style=""width:8cm; height:6.45cm;""><p>What type of rock is this?</p>","1","class_response","0","test","46","Basalt","Basalt","02","true","2","2","",""
"","","","","","","","","","","","html-keyboard-response","98","2.0.0","216784","6640be7edc706d4622dbab1c","2","51","null","","","","","","","","","<p style='font-size: 30px;'><strong>Okay</strong></p>","null","neutral_feedback","0","test","46","","","","","","","",""
"","","","","","","","","","","","html-button-response","99","2.0.0","218204","6640be7edc706d4622dbab1c","2","51","1418","","","","","","","","","<img src= ""rock_img/I_Peridotite_12.jpg"" style=""width:8cm; height:4.54cm;""><p>What type of rock is this?</p>","6","class_response","0","test","47","Peridotite","Peridotite","12","true","7","7","",""
"","","","","","","","","","","","html-keyboard-response","100","2.0.0","218712","6640be7edc706d4622dbab1c","2","51","null","","","","","","","","","<p style='font-size: 30px;'><strong>Okay</strong></p>","null","neutral_feedback","0","test","47","","","","","","","",""
"","","","","","","","","","","","html-button-response","101","2.0.0","221708","6640be7edc706d4622dbab1c","2","51","2994","","","","","","","","","<img src= ""rock_img/I_Pegmatite_09.jpg"" style=""width:8cm; height:4.03cm;""><p>What type of rock is this?</p>","5","class_response","0","test","48","Pegmatite","Pegmatite","09","true","6","6","",""
"","","","","","","","","","","","html-keyboard-response","102","2.0.0","222219","6640be7edc706d4622dbab1c","2","51","null","","","","","","","","","<p style='font-size: 30px;'><strong>Okay</strong></p>","null","neutral_feedback","0","test","48","","","","","","","",""
"","","","","","","","","","","","instructions","103","2.0.0","241685","6640be7edc706d4622dbab1c","2","51","19443","","","","","","","","[{""page_index"":0,""viewing_time"":10822},{""page_index"":1,""viewing_time"":6396},{""page_index"":2,""viewing_time"":2225}]","","","","","","","","","","","","","",""
"","","","","","","","","","","","html-button-response","104","2.0.0","243160","6640be7edc706d4622dbab1c","2","51","1474","","","","","","","","","","0","start_train","","","","","","","","","","",""
"","","","","","","","","","","","html-button-response","105","2.0.0","244839","6640be7edc706d4622dbab1c","2","51","1677","","","","","","","","","<img src= ""rock_img/I_Gabbro_08.jpg"" style=""width:8cm; height:5.15cm;""><p>What type of rock is this?</p>","1","class_response","1","train","1","Basalt","Gabbro","08","false","2","4","",""
"","","","","","","","","","","","html-button-response","106","2.0.0","246955","6640be7edc706d4622dbab1c","2","51","2114","","","","","","","","","<img src= rock_img/I_Gabbro_08.jpg style=""width:8cm; height:5.15cm;""><p style='font-size: 30px; color: red;'><strong>Incorrect!</strong></p><p style='font-size: 30px;'><strong>This rock is gabbro</strong></p>","0","corr_feedback","1","train","1","","","","","","","",""
"","","","","","","","","","","","html-button-response","107","2.0.0","248548","6640be7edc706d4622dbab1c","2","51","1591","","","","","","","","","<img src= ""rock_img/I_Gabbro_08.jpg"" style=""width:8cm; height:5.15cm;""><p>What type of rock is this?</p>","3","class_response","1","train","2","Gabbro","Gabbro","08","true","4","4","",""
"","","","","","","","","","","","html-button-response","108","2.0.0","249648","6640be7edc706d4622dbab1c","2","51","1098","","","","","","","","","<img src= rock_img/I_Gabbro_08.jpg style=""width:8cm; height:5.15cm;""><p style='font-size: 30px; color: green;'><strong>Correct!</strong></p><p style='font-size: 30px;'><strong>This rock is gabbro</strong></p>","0","corr_feedback","1","train","2","","","","","","","",""
"","","","","","","","","","","","html-button-response","109","2.0.0","251180","6640be7edc706d4622dbab1c","2","51","1531","","","","","","","","","<img src= ""rock_img/I_Andesite_06.jpg"" style=""width:8cm; height:6.840000000000001cm;""><p>What type of rock is this?</p>","5","class_response","1","train","3","Pegmatite","Andesite","06","false","6","1","",""
"","","","","","","","","","","","html-button-response","110","2.0.0","252689","6640be7edc706d4622dbab1c","2","51","1507","","","","","","","","","<img src= rock_img/I_Andesite_06.jpg style=""width:8cm; height:6.840000000000001cm;""><p style='font-size: 30px; color: red;'><strong>Incorrect!</strong></p><p style='font-size: 30px;'><strong>This rock is andesite</strong></p>","0","corr_feedback","1","train","3","","","","","","","",""
"","","","","","","","","","","","html-button-response","111","2.0.0","253460","6640be7edc706d4622dbab1c","2","51","769","","","","","","","","","<img src= ""rock_img/I_Basalt_14.jpg"" style=""width:8cm; height:5.82cm;""><p>What type of rock is this?</p>","0","class_response","1","train","4","Andesite","Basalt","14","false","1","2","",""
"","","","","","","","","","","","html-button-response","112","2.0.0","255109","6640be7edc706d4622dbab1c","2","51","1646","","","","","","","","","<img src= rock_img/I_Basalt_14.jpg style=""width:8cm; height:5.82cm;""><p style='font-size: 30px; color: red;'><strong>Incorrect!</strong></p><p style='font-size: 30px;'><strong>This rock is basalt</strong></p>","0","corr_feedback","1","train","4","","","","","","","",""
"","","","","","","","","","","","html-button-response","113","2.0.0","256159","6640be7edc706d4622dbab1c","2","51","1049","","","","","","","","","<img src= ""rock_img/I_Andesite_05.jpg"" style=""width:8cm; height:4.12cm;""><p>What type of rock is this?</p>","2","class_response","1","train","5","Diorite","Andesite","05","false","3","1","",""
"","","","","","","","","","","","html-button-response","114","2.0.0","257323","6640be7edc706d4622dbab1c","2","51","1162","","","","","","","","","<img src= rock_img/I_Andesite_05.jpg style=""width:8cm; height:4.12cm;""><p style='font-size: 30px; color: red;'><strong>Incorrect!</strong></p><p style='font-size: 30px;'><strong>This rock is andesite</strong></p>","0","corr_feedback","1","train","5","","","","","","","",""
"","","","","","","","","","","","html-button-response","115","2.0.0","258341","6640be7edc706d4622dbab1c","2","51","1016","","","","","","","","","<img src= ""rock_img/I_Gabbro_10.jpg"" style=""width:8cm; height:5.680000000000001cm;""><p>What type of rock is this?</p>","1","class_response","1","train","6","Basalt","Gabbro","10","false","2","4","",""
"","","","","","","","","","","","html-button-response","116","2.0.0","259253","6640be7edc706d4622dbab1c","2","51","910","","","","","","","","","<img src= rock_img/I_Gabbro_10.jpg style=""width:8cm; height:5.680000000000001cm;""><p style='font-size: 30px; color: red;'><strong>Incorrect!</strong></p><p style='font-size: 30px;'><strong>This rock is gabbro</strong></p>","0","corr_feedback","1","train","6","","","","","","","",""
"","","","","","","","","","","","html-button-response","117","2.0.0","260654","6640be7edc706d4622dbab1c","2","51","1400","","","","","","","","","<img src= ""rock_img/I_Pegmatite_05.jpg"" style=""width:8cm; height:7.300000000000001cm;""><p>What type of rock is this?</p>","6","class_response","1","train","7","Peridotite","Pegmatite","05","false","7","6","",""
"","","","","","","","","","","","html-button-response","118","2.0.0","261650","6640be7edc706d4622dbab1c","2","51","995","","","","","","","","","<img src= rock_img/I_Pegmatite_05.jpg style=""width:8cm; height:7.300000000000001cm;""><p style='font-size: 30px; color: red;'><strong>Incorrect!</strong></p><p style='font-size: 30px;'><strong>This rock is pegmatite</strong></p>","0","corr_feedback","1","train","7","","","","","","","",""
"","","","","","","","","","","","html-button-response","119","2.0.0","262824","6640be7edc706d4622dbab1c","2","51","1174","","","","","","","","","<img src= ""rock_img/I_Obsidian_09.jpg"" style=""width:8cm; height:5cm;""><p>What type of rock is this?</p>","4","class_response","1","train","8","Obsidian","Obsidian","09","true","5","5","",""
"","","","","","","","","","","","html-button-response","120","2.0.0","263644","6640be7edc706d4622dbab1c","2","51","819","","","","","","","","","<img src= rock_img/I_Obsidian_09.jpg style=""width:8cm; height:5cm;""><p style='font-size: 30px; color: green;'><strong>Correct!</strong></p><p style='font-size: 30px;'><strong>This rock is obsidian</strong></p>","0","corr_feedback","1","train","8","","","","","","","",""
"","","","","","","","","","","","html-button-response","121","2.0.0","264726","6640be7edc706d4622dbab1c","2","51","1081","","","","","","","","","<img src= ""rock_img/I_Obsidian_02.jpg"" style=""width:8cm; height:7.51cm;""><p>What type of rock is this?</p>","4","class_response","1","train","9","Obsidian","Obsidian","02","true","5","5","",""
"","","","","","","","","","","","html-button-response","122","2.0.0","267708","6640be7edc706d4622dbab1c","2","51","2982","","","","","","","","","<img src= rock_img/I_Obsidian_02.jpg style=""width:8cm; height:7.51cm;""><p style='font-size: 30px; color: green;'><strong>Correct!</strong></p><p style='font-size: 30px;'><strong>This rock is obsidian</strong></p>","0","corr_feedback","1","train","9","","","","","","","",""
"","","","","","","","","","","","html-button-response","123","2.0.0","268906","6640be7edc706d4622dbab1c","2","51","1197","","","","","","","","","<img src= ""rock_img/I_Diorite_10.jpg"" style=""width:8cm; height:5.949999999999999cm;""><p>What type of rock is this?</p>","0","class_response","1","train","10","Andesite","Diorite","10","false","1","3","",""
"","","","","","","","","","","","html-button-response","124","2.0.0","269744","6640be7edc706d4622dbab1c","2","51","837","","","","","","","","","<img src= rock_img/I_Diorite_10.jpg style=""width:8cm; height:5.949999999999999cm;""><p style='font-size: 30px; color: red;'><strong>Incorrect!</strong></p><p style='font-size: 30px;'><strong>This rock is diorite</strong></p>","0","corr_feedback","1","train","10","","","","","","","",""
"","","","","","","","","","","","html-button-response","125","2.0.0","276169","6640be7edc706d4622dbab1c","2","51","6423","","","","","","","","","<img src= ""rock_img/I_Pegmatite_03.jpg"" style=""width:8cm; height:5.239999999999999cm;""><p>What type of rock is this?</p>","2","class_response","1","train","11","Diorite","Pegmatite","03","false","3","6","",""
"","","","","","","","","","","","html-button-response","126","2.0.0","277030","6640be7edc706d4622dbab1c","2","51","859","","","","","","","","","<img src= rock_img/I_Pegmatite_03.jpg style=""width:8cm; height:5.239999999999999cm;""><p style='font-size: 30px; color: red;'><strong>Incorrect!</strong></p><p style='font-size: 30px;'><strong>This rock is pegmatite</strong></p>","0","corr_feedback","1","train","11","","","","","","","",""
"","","","","","","","","","","","html-button-response","127","2.0.0","279944","6640be7edc706d4622dbab1c","2","51","2912","","","","","","","","","<img src= ""rock_img/I_Andesite_11.jpg"" style=""width:8cm; height:4.92cm;""><p>What type of rock is this?</p>","1","class_response","1","train","12","Basalt","Andesite","11","false","2","1","",""
"","","","","","","","","","","","html-button-response","128","2.0.0","280714","6640be7edc706d4622dbab1c","2","51","768","","","","","","","","","<img src= rock_img/I_Andesite_11.jpg style=""width:8cm; height:4.92cm;""><p style='font-size: 30px; color: red;'><strong>Incorrect!</strong></p><p style='font-size: 30px;'><strong>This rock is andesite</strong></p>","0","corr_feedback","1","train","12","","","","","","","",""
"","","","","","","","","","","","html-button-response","129","2.0.0","282143","6640be7edc706d4622dbab1c","2","51","1427","","","","","","","","","<img src= ""rock_img/I_Obsidian_04.jpg"" style=""width:8cm; height:6.930000000000001cm;""><p>What type of rock is this?</p>","4","class_response","1","train","13","Obsidian","Obsidian","04","true","5","5","",""
"","","","","","","","","","","","html-button-response","130","2.0.0","282848","6640be7edc706d4622dbab1c","2","51","704","","","","","","","","","<img src= rock_img/I_Obsidian_04.jpg style=""width:8cm; height:6.930000000000001cm;""><p style='font-size: 30px; color: green;'><strong>Correct!</strong></p><p style='font-size: 30px;'><strong>This rock is obsidian</strong></p>","0","corr_feedback","1","train","13","","","","","","","",""
"","","","","","","","","","","","html-button-response","131","2.0.0","290991","6640be7edc706d4622dbab1c","2","51","8141","","","","","","","","","<img src= ""rock_img/I_Gabbro_01.jpg"" style=""width:8cm; height:5.21cm;""><p>What type of rock is this?</p>","2","class_response","1","train","14","Diorite","Gabbro","01","false","3","4","",""
"","","","","","","","","","","","html-button-response","132","2.0.0","291894","6640be7edc706d4622dbab1c","2","51","901","","","","","","","","","<img src= rock_img/I_Gabbro_01.jpg style=""width:8cm; height:5.21cm;""><p style='font-size: 30px; color: red;'><strong>Incorrect!</strong></p><p style='font-size: 30px;'><strong>This rock is gabbro</strong></p>","0","corr_feedback","1","train","14","","","","","","","",""
"","","","","","","","","","","","html-button-response","133","2.0.0","293586","6640be7edc706d4622dbab1c","2","51","1690","","","","","","","","","<img src= ""rock_img/I_Gabbro_12.jpg"" style=""width:8cm; height:7.800000000000001cm;""><p>What type of rock is this?</p>","1","class_response","1","train","15","Basalt","Gabbro","12","false","2","4","",""
"","","","","","","","","","","","html-button-response","134","2.0.0","294504","6640be7edc706d4622dbab1c","2","51","916","","","","","","","","","<img src= rock_img/I_Gabbro_12.jpg style=""width:8cm; height:7.800000000000001cm;""><p style='font-size: 30px; color: red;'><strong>Incorrect!</strong></p><p style='font-size: 30px;'><strong>This rock is gabbro</strong></p>","0","corr_feedback","1","train","15","","","","","","","",""
"","","","","","","","","","","","html-button-response","135","2.0.0","296413","6640be7edc706d4622dbab1c","2","51","1907","","","","","","","","","<img src= ""rock_img/I_Diorite_16.jpg"" style=""width:8cm; height:6.74cm;""><p>What type of rock is this?</p>","3","class_response","1","train","16","Gabbro","Diorite","16","false","4","3","",""
"","","","","","","","","","","","html-button-response","136","2.0.0","297278","6640be7edc706d4622dbab1c","2","51","864","","","","","","","","","<img src= rock_img/I_Diorite_16.jpg style=""width:8cm; height:6.74cm;""><p style='font-size: 30px; color: red;'><strong>Incorrect!</strong></p><p style='font-size: 30px;'><strong>This rock is diorite</strong></p>","0","corr_feedback","1","train","16","","","","","","","",""
"","","","","","","","","","","","html-button-response","137","2.0.0","298537","6640be7edc706d4622dbab1c","2","51","1258","","","","","","","","","<img src= ""rock_img/I_Obsidian_12.jpg"" style=""width:8cm; height:6.53cm;""><p>What type of rock is this?</p>","4","class_response","1","train","17","Obsidian","Obsidian","12","true","5","5","",""
"","","","","","","","","","","","html-button-response","138","2.0.0","299175","6640be7edc706d4622dbab1c","2","51","637","","","","","","","","","<img src= rock_img/I_Obsidian_12.jpg style=""width:8cm; height:6.53cm;""><p style='font-size: 30px; color: green;'><strong>Correct!</strong></p><p style='font-size: 30px;'><strong>This rock is obsidian</strong></p>","0","corr_feedback","1","train","17","","","","","","","",""
"","","","","","","","","","","","html-button-response","139","2.0.0","300366","6640be7edc706d4622dbab1c","2","51","1189","","","","","","","","","<img src= ""rock_img/I_Peridotite_16.jpg"" style=""width:8cm; height:6.989999999999999cm;""><p>What type of rock is this?</p>","5","class_response","1","train","18","Pegmatite","Peridotite","16","false","6","7","",""
"","","","","","","","","","","","html-button-response","140","2.0.0","301123","6640be7edc706d4622dbab1c","2","51","755","","","","","","","","","<img src= rock_img/I_Peridotite_16.jpg style=""width:8cm; height:6.989999999999999cm;""><p style='font-size: 30px; color: red;'><strong>Incorrect!</strong></p><p style='font-size: 30px;'><strong>This rock is peridotite</strong></p>","0","corr_feedback","1","train","18","","","","","","","",""
"","","","","","","","","","","","html-button-response","141","2.0.0","302359","6640be7edc706d4622dbab1c","2","51","1236","","","","","","","","","<img src= ""rock_img/I_Gabbro_13.jpg"" style=""width:8cm; height:5.08cm;""><p>What type of rock is this?</p>","6","class_response","1","train","19","Peridotite","Gabbro","13","false","7","4","",""
"","","","","","","","","","","","html-button-response","142","2.0.0","303053","6640be7edc706d4622dbab1c","2","51","693","","","","","","","","","<img src= rock_img/I_Gabbro_13.jpg style=""width:8cm; height:5.08cm;""><p style='font-size: 30px; color: red;'><strong>Incorrect!</strong></p><p style='font-size: 30px;'><strong>This rock is gabbro</strong></p>","0","corr_feedback","1","train","19","","","","","","","",""
"","","","","","","","","","","","html-button-response","143","2.0.0","304246","6640be7edc706d4622dbab1c","2","51","1192","","","","","","","","","<img src= ""rock_img/I_Pumice_04.jpg"" style=""width:8cm; height:6.819999999999999cm;""><p>What type of rock is this?</p>","7","class_response","1","train","20","Pumice","Pumice","04","true","8","8","",""
"","","","","","","","","","","","html-button-response","144","2.0.0","304896","6640be7edc706d4622dbab1c","2","51","649","","","","","","","","","<img src= rock_img/I_Pumice_04.jpg style=""width:8cm; height:6.819999999999999cm;""><p style='font-size: 30px; color: green;'><strong>Correct!</strong></p><p style='font-size: 30px;'><strong>This rock is pumice</strong></p>","0","corr_feedback","1","train","20","","","","","","","",""
"","","","","","","","","","","","html-button-response","145","2.0.0","306063","6640be7edc706d4622dbab1c","2","51","1166","","","","","","","","","<img src= ""rock_img/I_Andesite_10.jpg"" style=""width:8cm; height:4.16cm;""><p>What type of rock is this?</p>","1","class_response","1","train","21","Basalt","Andesite","10","false","2","1","",""
"","","","","","","","","","","","html-button-response","146","2.0.0","306869","6640be7edc706d4622dbab1c","2","51","805","","","","","","","","","<img src= rock_img/I_Andesite_10.jpg style=""width:8cm; height:4.16cm;""><p style='font-size: 30px; color: red;'><strong>Incorrect!</strong></p><p style='font-size: 30px;'><strong>This rock is andesite</strong></p>","0","corr_feedback","1","train","21","","","","","","","",""
"","","","","","","","","","","","html-button-response","147","2.0.0","308066","6640be7edc706d4622dbab1c","2","51","1196","","","","","","","","","<img src= ""rock_img/I_Diorite_09.jpg"" style=""width:8cm; height:5.27cm;""><p>What type of rock is this?</p>","3","class_response","1","train","22","Gabbro","Diorite","09","false","4","3","",""
"","","","","","","","","","","","html-button-response","148","2.0.0","308973","6640be7edc706d4622dbab1c","2","51","906","","","","","","","","","<img src= rock_img/I_Diorite_09.jpg style=""width:8cm; height:5.27cm;""><p style='font-size: 30px; color: red;'><strong>Incorrect!</strong></p><p style='font-size: 30px;'><strong>This rock is diorite</strong></p>","0","corr_feedback","1","train","22","","","","","","","",""
"","","","","","","","","","","","html-button-response","149","2.0.0","309993","6640be7edc706d4622dbab1c","2","51","1019","","","","","","","","","<img src= ""rock_img/I_Obsidian_14.jpg"" style=""width:8cm; height:7.64cm;""><p>What type of rock is this?</p>","4","class_response","1","train","23","Obsidian","Obsidian","14","true","5","5","",""
"","","","","","","","","","","","html-button-response","150","2.0.0","310583","6640be7edc706d4622dbab1c","2","51","589","","","","","","","","","<img src= rock_img/I_Obsidian_14.jpg style=""width:8cm; height:7.64cm;""><p style='font-size: 30px; color: green;'><strong>Correct!</strong></p><p style='font-size: 30px;'><strong>This rock is obsidian</strong></p>","0","corr_feedback","1","train","23","","","","","","","",""
"","","","","","","","","","","","html-button-response","151","2.0.0","312071","6640be7edc706d4622dbab1c","2","51","1486","","","","","","","","","<img src= ""rock_img/I_Diorite_07.jpg"" style=""width:8cm; height:5.239999999999999cm;""><p>What type of rock is this?</p>","2","class_response","1","train","24","Diorite","Diorite","07","true","3","3","",""
"","","","","","","","","","","","html-button-response","152","2.0.0","312758","6640be7edc706d4622dbab1c","2","51","685","","","","","","","","","<img src= rock_img/I_Diorite_07.jpg style=""width:8cm; height:5.239999999999999cm;""><p style='font-size: 30px; color: green;'><strong>Correct!</strong></p><p style='font-size: 30px;'><strong>This rock is diorite</strong></p>","0","corr_feedback","1","train","24","","","","","","","",""
"","","","","","","","","","","","html-button-response","153","2.0.0","313958","6640be7edc706d4622dbab1c","2","51","1198","","","","","","","","","<img src= ""rock_img/I_Pumice_03.jpg"" style=""width:8cm; height:6.64cm;""><p>What type of rock is this?</p>","7","class_response","1","train","25","Pumice","Pumice","03","true","8","8","",""
"","","","","","","","","","","","html-button-response","154","2.0.0","314558","6640be7edc706d4622dbab1c","2","51","598","","","","","","","","","<img src= rock_img/I_Pumice_03.jpg style=""width:8cm; height:6.64cm;""><p style='font-size: 30px; color: green;'><strong>Correct!</strong></p><p style='font-size: 30px;'><strong>This rock is pumice</strong></p>","0","corr_feedback","1","train","25","","","","","","","",""
"","","","","","","","","","","","html-button-response","155","2.0.0","315793","6640be7edc706d4622dbab1c","2","51","1233","","","","","","","","","<img src= ""rock_img/I_Basalt_01.jpg"" style=""width:8cm; height:7.880000000000001cm;""><p>What type of rock is this?</p>","1","class_response","1","train","26","Basalt","Basalt","01","true","2","2","",""
"","","","","","","","","","","","html-button-response","156","2.0.0","316470","6640be7edc706d4622dbab1c","2","51","676","","","","","","","","","<img src= rock_img/I_Basalt_01.jpg style=""width:8cm; height:7.880000000000001cm;""><p style='font-size: 30px; color: green;'><strong>Correct!</strong></p><p style='font-size: 30px;'><strong>This rock is basalt</strong></p>","0","corr_feedback","1","train","26","","","","","","","",""
"","","","","","","","","","","","html-button-response","157","2.0.0","317755","6640be7edc706d4622dbab1c","2","51","1283","","","","","","","","","<img src= ""rock_img/I_Diorite_15.jpg"" style=""width:8cm; height:5.54cm;""><p>What type of rock is this?</p>","0","class_response","1","train","27","Andesite","Diorite","15","false","1","3","",""
"","","","","","","","","","","","html-button-response","158","2.0.0","318692","6640be7edc706d4622dbab1c","2","51","934","","","","","","","","","<img src= rock_img/I_Diorite_15.jpg style=""width:8cm; height:5.54cm;""><p style='font-size: 30px; color: red;'><strong>Incorrect!</strong></p><p style='font-size: 30px;'><strong>This rock is diorite</strong></p>","0","corr_feedback","1","train","27","","","","","","","",""
"","","","","","","","","","","","html-button-response","159","2.0.0","323071","6640be7edc706d4622dbab1c","2","51","4377","","","","","","","","","<img src= ""rock_img/I_Pegmatite_08.jpg"" style=""width:8cm; height:7.68cm;""><p>What type of rock is this?</p>","5","class_response","1","train","28","Pegmatite","Pegmatite","08","true","6","6","",""
"","","","","","","","","","","","html-button-response","160","2.0.0","326950","6640be7edc706d4622dbab1c","2","51","3877","","","","","","","","","<img src= rock_img/I_Pegmatite_08.jpg style=""width:8cm; height:7.68cm;""><p style='font-size: 30px; color: green;'><strong>Correct!</strong></p><p style='font-size: 30px;'><strong>This rock is pegmatite</strong></p>","0","corr_feedback","1","train","28","","","","","","","",""
"","","","","","","","","","","","html-button-response","161","2.0.0","329924","6640be7edc706d4622dbab1c","2","51","2971","","","","","","","","","<img src= ""rock_img/I_Pegmatite_11.jpg"" style=""width:8cm; height:8.14cm;""><p>What type of rock is this?</p>","6","class_response","1","train","29","Peridotite","Pegmatite","11","false","7","6","",""
"","","","","","","","","","","","html-button-response","162","2.0.0","331489","6640be7edc706d4622dbab1c","2","51","1564","","","","","","","","","<img src= rock_img/I_Pegmatite_11.jpg style=""width:8cm; height:8.14cm;""><p style='font-size: 30px; color: red;'><strong>Incorrect!</strong></p><p style='font-size: 30px;'><strong>This rock is pegmatite</strong></p>","0","corr_feedback","1","train","29","","","","","","","",""
"","","","","","","","","","","","html-button-response","163","2.0.0","333071","6640be7edc706d4622dbab1c","2","51","1580","","","","","","","","","<img src= ""rock_img/I_Pegmatite_10.jpg"" style=""width:8cm; height:4.16cm;""><p>What type of rock is this?</p>","1","class_response","1","train","30","Basalt","Pegmatite","10","false","2","6","",""
"","","","","","","","","","","","html-button-response","164","2.0.0","334137","6640be7edc706d4622dbab1c","2","51","1065","","","","","","","","","<img src= rock_img/I_Pegmatite_10.jpg style=""width:8cm; height:4.16cm;""><p style='font-size: 30px; color: red;'><strong>Incorrect!</strong></p><p style='font-size: 30px;'><strong>This rock is pegmatite</strong></p>","0","corr_feedback","1","train","30","","","","","","","",""
"","","","","","","","","","","","html-button-response","165","2.0.0","335787","6640be7edc706d4622dbab1c","2","51","1647","","","","","","","","","<img src= ""rock_img/I_Basalt_11.jpg"" style=""width:8cm; height:5.359999999999999cm;""><p>What type of rock is this?</p>","0","class_response","1","train","31","Andesite","Basalt","11","false","1","2","",""
"","","","","","","","","","","","html-button-response","166","2.0.0","336737","6640be7edc706d4622dbab1c","2","51","948","","","","","","","","","<img src= rock_img/I_Basalt_11.jpg style=""width:8cm; height:5.359999999999999cm;""><p style='font-size: 30px; color: red;'><strong>Incorrect!</strong></p><p style='font-size: 30px;'><strong>This rock is basalt</strong></p>","0","corr_feedback","1","train","31","","","","","","","",""
"","","","","","","","","","","","html-button-response","167","2.0.0","337972","6640be7edc706d4622dbab1c","2","51","1234","","","","","","","","","<img src= ""rock_img/I_Pumice_14.jpg"" style=""width:8cm; height:6.39cm;""><p>What type of rock is this?</p>","7","class_response","1","train","32","Pumice","Pumice","14","true","8","8","",""
"","","","","","","","","","","","html-button-response","168","2.0.0","338681","6640be7edc706d4622dbab1c","2","51","707","","","","","","","","","<img src= rock_img/I_Pumice_14.jpg style=""width:8cm; height:6.39cm;""><p style='font-size: 30px; color: green;'><strong>Correct!</strong></p><p style='font-size: 30px;'><strong>This rock is pumice</strong></p>","0","corr_feedback","1","train","32","","","","","","","",""
"","","","","","","","","","","","html-button-response","169","2.0.0","340121","6640be7edc706d4622dbab1c","2","51","1438","","","","","","","","","<img src= ""rock_img/I_Peridotite_06.jpg"" style=""width:8cm; height:7.53cm;""><p>What type of rock is this?</p>","1","class_response","1","train","33","Basalt","Peridotite","06","false","2","7","",""
"","","","","","","","","","","","html-button-response","170","2.0.0","340962","6640be7edc706d4622dbab1c","2","51","840","","","","","","","","","<img src= rock_img/I_Peridotite_06.jpg style=""width:8cm; height:7.53cm;""><p style='font-size: 30px; color: red;'><strong>Incorrect!</strong></p><p style='font-size: 30px;'><strong>This rock is peridotite</strong></p>","0","corr_feedback","1","train","33","","","","","","","",""
"","","","","","","","","","","","html-button-response","171","2.0.0","342189","6640be7edc706d4622dbab1c","2","51","1225","","","","","","","","","<img src= ""rock_img/I_Basalt_06.jpg"" style=""width:8cm; height:7.06cm;""><p>What type of rock is this?</p>","4","class_response","1","train","34","Obsidian","Basalt","06","false","5","2","",""
"","","","","","","","","","","","html-button-response","172","2.0.0","342837","6640be7edc706d4622dbab1c","2","51","646","","","","","","","","","<img src= rock_img/I_Basalt_06.jpg style=""width:8cm; height:7.06cm;""><p style='font-size: 30px; color: red;'><strong>Incorrect!</strong></p><p style='font-size: 30px;'><strong>This rock is basalt</strong></p>","0","corr_feedback","1","train","34","","","","","","","",""
"","","","","","","","","","","","html-button-response","173","2.0.0","343930","6640be7edc706d4622dbab1c","2","51","1091","","","","","","","","","<img src= ""rock_img/I_Basalt_14.jpg"" style=""width:8cm; height:5.82cm;""><p>What type of rock is this?</p>","2","class_response","1","train","35","Diorite","Basalt","14","false","3","2","",""
"","","","","","","","","","","","html-button-response","174","2.0.0","344566","6640be7edc706d4622dbab1c","2","51","635","","","","","","","","","<img src= rock_img/I_Basalt_14.jpg style=""width:8cm; height:5.82cm;""><p style='font-size: 30px; color: red;'><strong>Incorrect!</strong></p><p style='font-size: 30px;'><strong>This rock is basalt</strong></p>","0","corr_feedback","1","train","35","","","","","","","",""
"","","","","","","","","","","","html-button-response","175","2.0.0","345380","6640be7edc706d4622dbab1c","2","51","812","","","","","","","","","<img src= ""rock_img/I_Diorite_15.jpg"" style=""width:8cm; height:5.54cm;""><p>What type of rock is this?</p>","5","class_response","1","train","36","Pegmatite","Diorite","15","false","6","3","",""
"","","","","","","","","","","","html-button-response","176","2.0.0","346093","6640be7edc706d4622dbab1c","2","51","712","","","","","","","","","<img src= rock_img/I_Diorite_15.jpg style=""width:8cm; height:5.54cm;""><p style='font-size: 30px; color: red;'><strong>Incorrect!</strong></p><p style='font-size: 30px;'><strong>This rock is diorite</strong></p>","0","corr_feedback","1","train","36","","","","","","","",""
"","","","","","","","","","","","html-button-response","177","2.0.0","348463","6640be7edc706d4622dbab1c","2","51","2369","","","","","","","","","<img src= ""rock_img/I_Basalt_10.jpg"" style=""width:8cm; height:5.85cm;""><p>What type of rock is this?</p>","4","class_response","1","train","37","Obsidian","Basalt","10","false","5","2","",""
"","","","","","","","","","","","html-button-response","178","2.0.0","349105","6640be7edc706d4622dbab1c","2","51","641","","","","","","","","","<img src= rock_img/I_Basalt_10.jpg style=""width:8cm; height:5.85cm;""><p style='font-size: 30px; color: red;'><strong>Incorrect!</strong></p><p style='font-size: 30px;'><strong>This rock is basalt</strong></p>","0","corr_feedback","1","train","37","","","","","","","",""
"","","","","","","","","","","","html-button-response","179","2.0.0","350033","6640be7edc706d4622dbab1c","2","51","927","","","","","","","","","<img src= ""rock_img/I_Diorite_08.jpg"" style=""width:8cm; height:6.37cm;""><p>What type of rock is this?</p>","1","class_response","1","train","38","Basalt","Diorite","08","false","2","3","",""
"","","","","","","","","","","","html-button-response","180","2.0.0","350939","6640be7edc706d4622dbab1c","2","51","905","","","","","","","","","<img src= rock_img/I_Diorite_08.jpg style=""width:8cm; height:6.37cm;""><p style='font-size: 30px; color: red;'><strong>Incorrect!</strong></p><p style='font-size: 30px;'><strong>This rock is diorite</strong></p>","0","corr_feedback","1","train","38","","","","","","","",""
"","","","","","","","","","","","html-button-response","181","2.0.0","352241","6640be7edc706d4622dbab1c","2","51","1301","","","","","","","","","<img src= ""rock_img/I_Peridotite_10.jpg"" style=""width:8cm; height:5.390000000000001cm;""><p>What type of rock is this?</p>","0","class_response","1","train","39","Andesite","Peridotite","10","false","1","7","",""
"","","","","","","","","","","","html-button-response","182","2.0.0","352972","6640be7edc706d4622dbab1c","2","51","730","","","","","","","","","<img src= rock_img/I_Peridotite_10.jpg style=""width:8cm; height:5.390000000000001cm;""><p style='font-size: 30px; color: red;'><strong>Incorrect!</strong></p><p style='font-size: 30px;'><strong>This rock is peridotite</strong></p>","0","corr_feedback","1","train","39","","","","","","","",""
"","","","","","","","","","","","html-button-response","183","2.0.0","354384","6640be7edc706d4622dbab1c","2","51","1411","","","","","","","","","<img src= ""rock_img/I_Basalt_09.jpg"" style=""width:8cm; height:6.2cm;""><p>What type of rock is this?</p>","6","class_response","1","train","40","Peridotite","Basalt","09","false","7","2","",""
"","","","","","","","","","","","html-button-response","184","2.0.0","355084","6640be7edc706d4622dbab1c","2","51","698","","","","","","","","","<img src= rock_img/I_Basalt_09.jpg style=""width:8cm; height:6.2cm;""><p style='font-size: 30px; color: red;'><strong>Incorrect!</strong></p><p style='font-size: 30px;'><strong>This rock is basalt</strong></p>","0","corr_feedback","1","train","40","","","","","","","",""
"","","","","","","","","","","","html-button-response","185","2.0.0","355855","6640be7edc706d4622dbab1c","2","51","768","","","","","","","","","<img src= ""rock_img/I_Diorite_08.jpg"" style=""width:8cm; height:6.37cm;""><p>What type of rock is this?</p>","2","class_response","1","train","41","Diorite","Diorite","08","true","3","3","",""
"","","","","","","","","","","","html-button-response","186","2.0.0","356886","6640be7edc706d4622dbab1c","2","51","1030","","","","","","","","","<img src= rock_img/I_Diorite_08.jpg style=""width:8cm; height:6.37cm;""><p style='font-size: 30px; color: green;'><strong>Correct!</strong></p><p style='font-size: 30px;'><strong>This rock is diorite</strong></p>","0","corr_feedback","1","train","41","","","","","","","",""
"","","","","","","","","","","","html-button-response","187","2.0.0","358922","6640be7edc706d4622dbab1c","2","51","2034","","","","","","","","","<img src= ""rock_img/I_Pumice_09.jpg"" style=""width:8cm; height:6.44cm;""><p>What type of rock is this?</p>","7","class_response","1","train","42","Pumice","Pumice","09","true","8","8","",""
"","","","","","","","","","","","html-button-response","188","2.0.0","359571","6640be7edc706d4622dbab1c","2","51","648","","","","","","","","","<img src= rock_img/I_Pumice_09.jpg style=""width:8cm; height:6.44cm;""><p style='font-size: 30px; color: green;'><strong>Correct!</strong></p><p style='font-size: 30px;'><strong>This rock is pumice</strong></p>","0","corr_feedback","1","train","42","","","","","","","",""
"","","","","","","","","","","","html-button-response","189","2.0.0","360762","6640be7edc706d4622dbab1c","2","51","1188","","","","","","","","","<img src= ""rock_img/I_Peridotite_15.jpg"" style=""width:8cm; height:6cm;""><p>What type of rock is this?</p>","1","class_response","1","train","43","Basalt","Peridotite","15","false","2","7","",""
"","","","","","","","","","","","html-button-response","190","2.0.0","361437","6640be7edc706d4622dbab1c","2","51","674","","","","","","","","","<img src= rock_img/I_Peridotite_15.jpg style=""width:8cm; height:6cm;""><p style='font-size: 30px; color: red;'><strong>Incorrect!</strong></p><p style='font-size: 30px;'><strong>This rock is peridotite</strong></p>","0","corr_feedback","1","train","43","","","","","","","",""
"","","","","","","","","","","","html-button-response","191","2.0.0","362707","6640be7edc706d4622dbab1c","2","51","1268","","","","","","","","","<img src= ""rock_img/I_Peridotite_05.jpg"" style=""width:8cm; height:7.1499999999999995cm;""><p>What type of rock is this?</p>","3","class_response","1","train","44","Gabbro","Peridotite","05","false","4","7","",""
"","","","","","","","","","","","html-button-response","192","2.0.0","363894","6640be7edc706d4622dbab1c","2","51","1185","","","","","","","","","<img src= rock_img/I_Peridotite_05.jpg style=""width:8cm; height:7.1499999999999995cm;""><p style='font-size: 30px; color: red;'><strong>Incorrect!</strong></p><p style='font-size: 30px;'><strong>This rock is peridotite</strong></p>","0","corr_feedback","1","train","44","","","","","","","",""
"","","","","","","","","","","","html-button-response","193","2.0.0","365716","6640be7edc706d4622dbab1c","2","51","1820","","","","","","","","","<img src= ""rock_img/I_Gabbro_15.jpg"" style=""width:8cm; height:6.29cm;""><p>What type of rock is this?</p>","2","class_response","1","train","45","Diorite","Gabbro","15","false","3","4","",""
"","","","","","","","","","","","html-button-response","194","2.0.0","366603","6640be7edc706d4622dbab1c","2","51","885","","","","","","","","","<img src= rock_img/I_Gabbro_15.jpg style=""width:8cm; height:6.29cm;""><p style='font-size: 30px; color: red;'><strong>Incorrect!</strong></p><p style='font-size: 30px;'><strong>This rock is gabbro</strong></p>","0","corr_feedback","1","train","45","","","","","","","",""
"","","","","","","","","","","","html-button-response","195","2.0.0","369554","6640be7edc706d4622dbab1c","2","51","2948","","","","","","","","","<img src= ""rock_img/I_Pumice_15.jpg"" style=""width:8cm; height:7.86cm;""><p>What type of rock is this?</p>","7","class_response","1","train","46","Pumice","Pumice","15","true","8","8","",""
"","","","","","","","","","","","html-button-response","196","2.0.0","370437","6640be7edc706d4622dbab1c","2","51","881","","","","","","","","","<img src= rock_img/I_Pumice_15.jpg style=""width:8cm; height:7.86cm;""><p style='font-size: 30px; color: green;'><strong>Correct!</strong></p><p style='font-size: 30px;'><strong>This rock is pumice</strong></p>","0","corr_feedback","1","train","46","","","","","","","",""
"","","","","","","","","","","","html-button-response","197","2.0.0","376009","6640be7edc706d4622dbab1c","2","51","5571","","","","","","","","","<img src= ""rock_img/I_Andesite_14.jpg"" style=""width:8cm; height:5.449999999999999cm;""><p>What type of rock is this?</p>","0","class_response","1","train","47","Andesite","Andesite","14","true","1","1","",""
"","","","","","","","","","","","html-button-response","198","2.0.0","377328","6640be7edc706d4622dbab1c","2","51","1317","","","","","","","","","<img src= rock_img/I_Andesite_14.jpg style=""width:8cm; height:5.449999999999999cm;""><p style='font-size: 30px; color: green;'><strong>Correct!</strong></p><p style='font-size: 30px;'><strong>This rock is andesite</strong></p>","0","corr_feedback","1","train","47","","","","","","","",""
"","","","","","","","","","","","html-button-response","199","2.0.0","378353","6640be7edc706d4622dbab1c","2","51","1023","","","","","","","","","<img src= ""rock_img/I_Obsidian_16.jpg"" style=""width:8cm; height:9.3cm;""><p>What type of rock is this?</p>","4","class_response","1","train","48","Obsidian","Obsidian","16","true","5","5","",""
"","","","","","","","","","","","html-button-response","200","2.0.0","378979","6640be7edc706d4622dbab1c","2","51","625","","","","","","","","","<img src= rock_img/I_Obsidian_16.jpg style=""width:8cm; height:9.3cm;""><p style='font-size: 30px; color: green;'><strong>Correct!</strong></p><p style='font-size: 30px;'><strong>This rock is obsidian</strong></p>","0","corr_feedback","1","train","48","","","","","","","",""
"","","","","","","","","","","","instructions","203","2.0.0","403639","6640be7edc706d4622dbab1c","2","51","24658","","","","","","","","[{""page_index"":0,""viewing_time"":3798},{""page_index"":1,""viewing_time"":20860}]","","","","","","","","","","","","","",""
"","","","","","","","","","","","html-button-response","204","2.0.0","405717","6640be7edc706d4622dbab1c","2","51","2076","","","","","","","","","","0","start_test","","","","","","","","","","",""
"","","","","","","","","","","","html-button-response","205","2.0.0","408508","6640be7edc706d4622dbab1c","2","51","2786","","","","","","","","","<img src= ""rock_img/I_Andesite_03.jpg"" style=""width:8cm; height:5.73cm;""><p>What type of rock is this?</p>","1","class_response","1","test","1","Basalt","Andesite","03","false","2","1","",""
"","","","","","","","","","","","html-keyboard-response","206","2.0.0","409009","6640be7edc706d4622dbab1c","2","51","null","","","","","","","","","<p style='font-size: 30px;'><strong>Okay</strong></p>","null","neutral_feedback","1","test","1","","","","","","","",""
"","","","","","","","","","","","html-button-response","207","2.0.0","410989","6640be7edc706d4622dbab1c","2","51","1978","","","","","","","","","<img src= ""rock_img/I_Pegmatite_06.jpg"" style=""width:8cm; height:5.17cm;""><p>What type of rock is this?</p>","6","class_response","1","test","2","Peridotite","Pegmatite","06","false","7","6","",""
"","","","","","","","","","","","html-keyboard-response","208","2.0.0","411495","6640be7edc706d4622dbab1c","2","51","null","","","","","","","","","<p style='font-size: 30px;'><strong>Okay</strong></p>","null","neutral_feedback","1","test","2","","","","","","","",""
"","","","","","","","","","","","html-button-response","209","2.0.0","412655","6640be7edc706d4622dbab1c","2","51","1159","","","","","","","","","<img src= ""rock_img/I_Pumice_13.jpg"" style=""width:8cm; height:8.200000000000001cm;""><p>What type of rock is this?</p>","7","class_response","1","test","3","Pumice","Pumice","13","true","8","8","",""
"","","","","","","","","","","","html-keyboard-response","210","2.0.0","413159","6640be7edc706d4622dbab1c","2","51","null","","","","","","","","","<p style='font-size: 30px;'><strong>Okay</strong></p>","null","neutral_feedback","1","test","3","","","","","","","",""
"","","","","","","","","","","","html-button-response","211","2.0.0","414783","6640be7edc706d4622dbab1c","2","51","1623","","","","","","","","","<img src= ""rock_img/I_Andesite_07.jpg"" style=""width:8cm; height:5.93cm;""><p>What type of rock is this?</p>","5","class_response","1","test","4","Pegmatite","Andesite","07","false","6","1","",""
"","","","","","","","","","","","html-keyboard-response","212","2.0.0","415292","6640be7edc706d4622dbab1c","2","51","null","","","","","","","","","<p style='font-size: 30px;'><strong>Okay</strong></p>","null","neutral_feedback","1","test","4","","","","","","","",""
"","","","","","","","","","","","html-button-response","213","2.0.0","417769","6640be7edc706d4622dbab1c","2","51","2476","","","","","","","","","<img src= ""rock_img/I_Peridotite_08.jpg"" style=""width:8cm; height:6.7cm;""><p>What type of rock is this?</p>","6","class_response","1","test","5","Peridotite","Peridotite","08","true","7","7","",""
"","","","","","","","","","","","html-keyboard-response","214","2.0.0","418278","6640be7edc706d4622dbab1c","2","51","null","","","","","","","","","<p style='font-size: 30px;'><strong>Okay</strong></p>","null","neutral_feedback","1","test","5","","","","","","","",""
"","","","","","","","","","","","html-button-response","215","2.0.0","420013","6640be7edc706d4622dbab1c","2","51","1733","","","","","","","","","<img src= ""rock_img/I_Gabbro_03.jpg"" style=""width:8cm; height:8.52cm;""><p>What type of rock is this?</p>","3","class_response","1","test","6","Gabbro","Gabbro","03","true","4","4","",""
"","","","","","","","","","","","html-keyboard-response","216","2.0.0","420520","6640be7edc706d4622dbab1c","2","51","null","","","","","","","","","<p style='font-size: 30px;'><strong>Okay</strong></p>","null","neutral_feedback","1","test","6","","","","","","","",""
"","","","","","","","","","","","html-button-response","217","2.0.0","421491","6640be7edc706d4622dbab1c","2","51","970","","","","","","","","","<img src= ""rock_img/I_Pumice_10.jpg"" style=""width:8cm; height:7.609999999999999cm;""><p>What type of rock is this?</p>","7","class_response","1","test","7","Pumice","Pumice","10","true","8","8","",""
"","","","","","","","","","","","html-keyboard-response","218","2.0.0","422001","6640be7edc706d4622dbab1c","2","51","null","","","","","","","","","<p style='font-size: 30px;'><strong>Okay</strong></p>","null","neutral_feedback","1","test","7","","","","","","","",""
"","","","","","","","","","","","html-button-response","219","2.0.0","423195","6640be7edc706d4622dbab1c","2","51","1193","","","","","","","","","<img src= ""rock_img/I_Diorite_02.jpg"" style=""width:8cm; height:6.27cm;""><p>What type of rock is this?</p>","3","class_response","1","test","8","Gabbro","Diorite","02","false","4","3","",""
"","","","","","","","","","","","html-keyboard-response","220","2.0.0","423710","6640be7edc706d4622dbab1c","2","51","null","","","","","","","","","<p style='font-size: 30px;'><strong>Okay</strong></p>","null","neutral_feedback","1","test","8","","","","","","","",""
"","","","","","","","","","","","html-button-response","221","2.0.0","424988","6640be7edc706d4622dbab1c","2","51","1276","","","","","","","","","<img src= ""rock_img/I_Gabbro_14.jpg"" style=""width:8cm; height:8.48cm;""><p>What type of rock is this?</p>","2","class_response","1","test","9","Diorite","Gabbro","14","false","3","4","",""
"","","","","","","","","","","","html-keyboard-response","222","2.0.0","425499","6640be7edc706d4622dbab1c","2","51","null","","","","","","","","","<p style='font-size: 30px;'><strong>Okay</strong></p>","null","neutral_feedback","1","test","9","","","","","","","",""
"","","","","","","","","","","","html-button-response","223","2.0.0","426641","6640be7edc706d4622dbab1c","2","51","1140","","","","","","","","","<img src= ""rock_img/I_Andesite_02.jpg"" style=""width:8cm; height:8.5cm;""><p>What type of rock is this?</p>","1","class_response","1","test","10","Basalt","Andesite","02","false","2","1","",""
"","","","","","","","","","","","html-keyboard-response","224","2.0.0","427151","6640be7edc706d4622dbab1c","2","51","null","","","","","","","","","<p style='font-size: 30px;'><strong>Okay</strong></p>","null","neutral_feedback","1","test","10","","","","","","","",""
"","","","","","","","","","","","html-button-response","225","2.0.0","428423","6640be7edc706d4622dbab1c","2","51","1268","","","","","","","","","<img src= ""rock_img/I_Obsidian_07.jpg"" style=""width:8cm; height:4.76cm;""><p>What type of rock is this?</p>","4","class_response","1","test","11","Obsidian","Obsidian","07","true","5","5","",""
"","","","","","","","","","","","html-keyboard-response","226","2.0.0","428929","6640be7edc706d4622dbab1c","2","51","null","","","","","","","","","<p style='font-size: 30px;'><strong>Okay</strong></p>","null","neutral_feedback","1","test","11","","","","","","","",""
"","","","","","","","","","","","html-button-response","227","2.0.0","430042","6640be7edc706d4622dbab1c","2","51","1111","","","","","","","","","<img src= ""rock_img/I_Basalt_12.jpg"" style=""width:8cm; height:6.010000000000001cm;""><p>What type of rock is this?</p>","7","class_response","1","test","12","Pumice","Basalt","12","false","8","2","",""
"","","","","","","","","","","","html-keyboard-response","228","2.0.0","430550","6640be7edc706d4622dbab1c","2","51","null","","","","","","","","","<p style='font-size: 30px;'><strong>Okay</strong></p>","null","neutral_feedback","1","test","12","","","","","","","",""
"","","","","","","","","","","","html-button-response","229","2.0.0","432239","6640be7edc706d4622dbab1c","2","51","1688","","","","","","","","","<img src= ""rock_img/I_Pegmatite_16.jpg"" style=""width:8cm; height:5.8cm;""><p>What type of rock is this?</p>","5","class_response","1","test","13","Pegmatite","Pegmatite","16","true","6","6","",""
"","","","","","","","","","","","html-keyboard-response","230","2.0.0","432747","6640be7edc706d4622dbab1c","2","51","null","","","","","","","","","<p style='font-size: 30px;'><strong>Okay</strong></p>","null","neutral_feedback","1","test","13","","","","","","","",""
"","","","","","","","","","","","html-button-response","231","2.0.0","433879","6640be7edc706d4622dbab1c","2","51","1130","","","","","","","","","<img src= ""rock_img/I_Pumice_08.jpg"" style=""width:8cm; height:6.67cm;""><p>What type of rock is this?</p>","7","class_response","1","test","14","Pumice","Pumice","08","true","8","8","",""
"","","","","","","","","","","","html-keyboard-response","232","2.0.0","434382","6640be7edc706d4622dbab1c","2","51","null","","","","","","","","","<p style='font-size: 30px;'><strong>Okay</strong></p>","null","neutral_feedback","1","test","14","","","","","","","",""
"","","","","","","","","","","","html-button-response","233","2.0.0","435621","6640be7edc706d4622dbab1c","2","51","1237","","","","","","","","","<img src= ""rock_img/I_Andesite_01.jpg"" style=""width:8cm; height:5.87cm;""><p>What type of rock is this?</p>","0","class_response","1","test","15","Andesite","Andesite","01","true","1","1","",""
"","","","","","","","","","","","html-keyboard-response","234","2.0.0","436136","6640be7edc706d4622dbab1c","2","51","null","","","","","","","","","<p style='font-size: 30px;'><strong>Okay</strong></p>","null","neutral_feedback","1","test","15","","","","","","","",""
"","","","","","","","","","","","html-button-response","235","2.0.0","437124","6640be7edc706d4622dbab1c","2","51","986","","","","","","","","","<img src= ""rock_img/I_Basalt_05.jpg"" style=""width:8cm; height:8.18cm;""><p>What type of rock is this?</p>","3","class_response","1","test","16","Gabbro","Basalt","05","false","4","2","",""
"","","","","","","","","","","","html-keyboard-response","236","2.0.0","437639","6640be7edc706d4622dbab1c","2","51","null","","","","","","","","","<p style='font-size: 30px;'><strong>Okay</strong></p>","null","neutral_feedback","1","test","16","","","","","","","",""
"","","","","","","","","","","","html-button-response","237","2.0.0","438804","6640be7edc706d4622dbab1c","2","51","1162","","","","","","","","","<img src= ""rock_img/I_Gabbro_11.jpg"" style=""width:8cm; height:6.2cm;""><p>What type of rock is this?</p>","1","class_response","1","test","17","Basalt","Gabbro","11","false","2","4","",""
"","","","","","","","","","","","html-keyboard-response","238","2.0.0","439316","6640be7edc706d4622dbab1c","2","51","null","","","","","","","","","<p style='font-size: 30px;'><strong>Okay</strong></p>","null","neutral_feedback","1","test","17","","","","","","","",""
"","","","","","","","","","","","html-button-response","239","2.0.0","441340","6640be7edc706d4622dbab1c","2","51","2023","","","","","","","","","<img src= ""rock_img/I_Diorite_13.jpg"" style=""width:8cm; height:6.29cm;""><p>What type of rock is this?</p>","2","class_response","1","test","18","Diorite","Diorite","13","true","3","3","",""
"","","","","","","","","","","","html-keyboard-response","240","2.0.0","441867","6640be7edc706d4622dbab1c","2","51","null","","","","","","","","","<p style='font-size: 30px;'><strong>Okay</strong></p>","null","neutral_feedback","1","test","18","","","","","","","",""
"","","","","","","","","","","","html-button-response","241","2.0.0","442897","6640be7edc706d4622dbab1c","2","51","1029","","","","","","","","","<img src= ""rock_img/I_Peridotite_07.jpg"" style=""width:8cm; height:4.83cm;""><p>What type of rock is this?</p>","0","class_response","1","test","19","Andesite","Peridotite","07","false","1","7","",""
"","","","","","","","","","","","html-keyboard-response","242","2.0.0","443400","6640be7edc706d4622dbab1c","2","51","null","","","","","","","","","<p style='font-size: 30px;'><strong>Okay</strong></p>","null","neutral_feedback","1","test","19","","","","","","","",""
"","","","","","","","","","","","html-button-response","243","2.0.0","445843","6640be7edc706d4622dbab1c","2","51","2443","","","","","","","","","<img src= ""rock_img/I_Basalt_08.jpg"" style=""width:8cm; height:10.44cm;""><p>What type of rock is this?</p>","5","class_response","1","test","20","Pegmatite","Basalt","08","false","6","2","",""
"","","","","","","","","","","","html-keyboard-response","244","2.0.0","446351","6640be7edc706d4622dbab1c","2","51","null","","","","","","","","","<p style='font-size: 30px;'><strong>Okay</strong></p>","null","neutral_feedback","1","test","20","","","","","","","",""
"","","","","","","","","","","","html-button-response","245","2.0.0","447437","6640be7edc706d4622dbab1c","2","51","1085","","","","","","","","","<img src= ""rock_img/I_Gabbro_16.jpg"" style=""width:8cm; height:6.44cm;""><p>What type of rock is this?</p>","6","class_response","1","test","21","Peridotite","Gabbro","16","false","7","4","",""
"","","","","","","","","","","","html-keyboard-response","246","2.0.0","447949","6640be7edc706d4622dbab1c","2","51","null","","","","","","","","","<p style='font-size: 30px;'><strong>Okay</strong></p>","null","neutral_feedback","1","test","21","","","","","","","",""
"","","","","","","","","","","","html-button-response","247","2.0.0","448914","6640be7edc706d4622dbab1c","2","51","964","","","","","","","","","<img src= ""rock_img/I_Pumice_06.jpg"" style=""width:8cm; height:6.9399999999999995cm;""><p>What type of rock is this?</p>","7","class_response","1","test","22","Pumice","Pumice","06","true","8","8","",""
"","","","","","","","","","","","html-keyboard-response","248","2.0.0","449422","6640be7edc706d4622dbab1c","2","51","null","","","","","","","","","<p style='font-size: 30px;'><strong>Okay</strong></p>","null","neutral_feedback","1","test","22","","","","","","","",""
"","","","","","","","","","","","html-button-response","249","2.0.0","450641","6640be7edc706d4622dbab1c","2","51","1217","","","","","","","","","<img src= ""rock_img/I_Basalt_02.jpg"" style=""width:8cm; height:6.45cm;""><p>What type of rock is this?</p>","1","class_response","1","test","23","Basalt","Basalt","02","true","2","2","",""
"","","","","","","","","","","","html-keyboard-response","250","2.0.0","451155","6640be7edc706d4622dbab1c","2","51","null","","","","","","","","","<p style='font-size: 30px;'><strong>Okay</strong></p>","null","neutral_feedback","1","test","23","","","","","","","",""
"","","","","","","","","","","","html-button-response","251","2.0.0","452541","6640be7edc706d4622dbab1c","2","51","1385","","","","","","","","","<img src= ""rock_img/I_Pegmatite_12.jpg"" style=""width:8cm; height:5.7cm;""><p>What type of rock is this?</p>","2","class_response","1","test","24","Diorite","Pegmatite","12","false","3","6","",""
"","","","","","","","","","","","html-keyboard-response","252","2.0.0","453046","6640be7edc706d4622dbab1c","2","51","null","","","","","","","","","<p style='font-size: 30px;'><strong>Okay</strong></p>","null","neutral_feedback","1","test","24","","","","","","","",""
"","","","","","","","","","","","html-button-response","253","2.0.0","455338","6640be7edc706d4622dbab1c","2","51","2290","","","","","","","","","<img src= ""rock_img/I_Gabbro_09.jpg"" style=""width:8cm; height:7.279999999999999cm;""><p>What type of rock is this?</p>","4","class_response","1","test","25","Obsidian","Gabbro","09","false","5","4","",""
"","","","","","","","","","","","html-keyboard-response","254","2.0.0","455841","6640be7edc706d4622dbab1c","2","51","null","","","","","","","","","<p style='font-size: 30px;'><strong>Okay</strong></p>","null","neutral_feedback","1","test","25","","","","","","","",""
"","","","","","","","","","","","html-button-response","255","2.0.0","456791","6640be7edc706d4622dbab1c","2","51","947","","","","","","","","","<img src= ""rock_img/I_Peridotite_04.jpg"" style=""width:8cm; height:6.680000000000001cm;""><p>What type of rock is this?</p>","5","class_response","1","test","26","Pegmatite","Peridotite","04","false","6","7","",""
"","","","","","","","","","","","html-keyboard-response","256","2.0.0","457305","6640be7edc706d4622dbab1c","2","51","null","","","","","","","","","<p style='font-size: 30px;'><strong>Okay</strong></p>","null","neutral_feedback","1","test","26","","","","","","","",""
"","","","","","","","","","","","html-button-response","257","2.0.0","458262","6640be7edc706d4622dbab1c","2","51","955","","","","","","","","","<img src= ""rock_img/I_Obsidian_11.jpg"" style=""width:8cm; height:6.05cm;""><p>What type of rock is this?</p>","4","class_response","1","test","27","Obsidian","Obsidian","11","true","5","5","",""
"","","","","","","","","","","","html-keyboard-response","258","2.0.0","458774","6640be7edc706d4622dbab1c","2","51","null","","","","","","","","","<p style='font-size: 30px;'><strong>Okay</strong></p>","null","neutral_feedback","1","test","27","","","","","","","",""
"","","","","","","","","","","","html-button-response","259","2.0.0","459820","6640be7edc706d4622dbab1c","2","51","1045","","","","","","","","","<img src= ""rock_img/I_Obsidian_08.jpg"" style=""width:8cm; height:7.39cm;""><p>What type of rock is this?</p>","4","class_response","1","test","28","Obsidian","Obsidian","08","true","5","5","",""
"","","","","","","","","","","","html-keyboard-response","260","2.0.0","460343","6640be7edc706d4622dbab1c","2","51","null","","","","","","","","","<p style='font-size: 30px;'><strong>Okay</strong></p>","null","neutral_feedback","1","test","28","","","","","","","",""
"","","","","","","","","","","","html-button-response","261","2.0.0","461706","6640be7edc706d4622dbab1c","2","51","1361","","","","","","","","","<img src= ""rock_img/I_Peridotite_12.jpg"" style=""width:8cm; height:4.54cm;""><p>What type of rock is this?</p>","2","class_response","1","test","29","Diorite","Peridotite","12","false","3","7","",""
"","","","","","","","","","","","html-keyboard-response","262","2.0.0","462221","6640be7edc706d4622dbab1c","2","51","null","","","","","","","","","<p style='font-size: 30px;'><strong>Okay</strong></p>","null","neutral_feedback","1","test","29","","","","","","","",""
"","","","","","","","","","","","html-button-response","263","2.0.0","463368","6640be7edc706d4622dbab1c","2","51","1145","","","","","","","","","<img src= ""rock_img/I_Pumice_05.jpg"" style=""width:8cm; height:7.25cm;""><p>What type of rock is this?</p>","7","class_response","1","test","30","Pumice","Pumice","05","true","8","8","",""
"","","","","","","","","","","","html-keyboard-response","264","2.0.0","463881","6640be7edc706d4622dbab1c","2","51","null","","","","","","","","","<p style='font-size: 30px;'><strong>Okay</strong></p>","null","neutral_feedback","1","test","30","","","","","","","",""
"","","","","","","","","","","","html-button-response","265","2.0.0","464783","6640be7edc706d4622dbab1c","2","51","900","","","","","","","","","<img src= ""rock_img/I_Diorite_12.jpg"" style=""width:8cm; height:4.88cm;""><p>What type of rock is this?</p>","1","class_response","1","test","31","Basalt","Diorite","12","false","2","3","",""
"","","","","","","","","","","","html-keyboard-response","266","2.0.0","465300","6640be7edc706d4622dbab1c","2","51","null","","","","","","","","","<p style='font-size: 30px;'><strong>Okay</strong></p>","null","neutral_feedback","1","test","31","","","","","","","",""
"","","","","","","","","","","","html-button-response","267","2.0.0","466480","6640be7edc706d4622dbab1c","2","51","1178","","","","","","","","","<img src= ""rock_img/I_Obsidian_10.jpg"" style=""width:8cm; height:6.260000000000001cm;""><p>What type of rock is this?</p>","4","class_response","1","test","32","Obsidian","Obsidian","10","true","5","5","",""
"","","","","","","","","","","","html-keyboard-response","268","2.0.0","466984","6640be7edc706d4622dbab1c","2","51","null","","","","","","","","","<p style='font-size: 30px;'><strong>Okay</strong></p>","null","neutral_feedback","1","test","32","","","","","","","",""
"","","","","","","","","","","","html-button-response","269","2.0.0","468604","6640be7edc706d4622dbab1c","2","51","1619","","","","","","","","","<img src= ""rock_img/I_Pegmatite_09.jpg"" style=""width:8cm; height:4.03cm;""><p>What type of rock is this?</p>","5","class_response","1","test","33","Pegmatite","Pegmatite","09","true","6","6","",""
"","","","","","","","","","","","html-keyboard-response","270","2.0.0","469112","6640be7edc706d4622dbab1c","2","51","null","","","","","","","","","<p style='font-size: 30px;'><strong>Okay</strong></p>","null","neutral_feedback","1","test","33","","","","","","","",""
"","","","","","","","","","","","html-button-response","271","2.0.0","470545","6640be7edc706d4622dbab1c","2","51","1432","","","","","","","","","<img src= ""rock_img/I_Peridotite_02.jpg"" style=""width:8cm; height:5.859999999999999cm;""><p>What type of rock is this?</p>","0","class_response","1","test","34","Andesite","Peridotite","02","false","1","7","",""
"","","","","","","","","","","","html-keyboard-response","272","2.0.0","471057","6640be7edc706d4622dbab1c","2","51","null","","","","","","","","","<p style='font-size: 30px;'><strong>Okay</strong></p>","null","neutral_feedback","1","test","34","","","","","","","",""
"","","","","","","","","","","","html-button-response","273","2.0.0","472525","6640be7edc706d4622dbab1c","2","51","1467","","","","","","","","","<img src= ""rock_img/I_Pegmatite_13.jpg"" style=""width:8cm; height:4.95cm;""><p>What type of rock is this?</p>","1","class_response","1","test","35","Basalt","Pegmatite","13","false","2","6","",""
"","","","","","","","","","","","html-keyboard-response","274","2.0.0","473032","6640be7edc706d4622dbab1c","2","51","null","","","","","","","","","<p style='font-size: 30px;'><strong>Okay</strong></p>","null","neutral_feedback","1","test","35","","","","","","","",""
"","","","","","","","","","","","html-button-response","275","2.0.0","474514","6640be7edc706d4622dbab1c","2","51","1481","","","","","","","","","<img src= ""rock_img/I_Diorite_11.jpg"" style=""width:8cm; height:7.11cm;""><p>What type of rock is this?</p>","2","class_response","1","test","36","Diorite","Diorite","11","true","3","3","",""
"","","","","","","","","","","","html-keyboard-response","276","2.0.0","475029","6640be7edc706d4622dbab1c","2","51","null","","","","","","","","","<p style='font-size: 30px;'><strong>Okay</strong></p>","null","neutral_feedback","1","test","36","","","","","","","",""
"","","","","","","","","","","","html-button-response","277","2.0.0","477057","6640be7edc706d4622dbab1c","2","51","2027","","","","","","","","","<img src= ""rock_img/I_Diorite_06.jpg"" style=""width:8cm; height:6.03cm;""><p>What type of rock is this?</p>","3","class_response","1","test","37","Gabbro","Diorite","06","false","4","3","",""
"","","","","","","","","","","","html-keyboard-response","278","2.0.0","477564","6640be7edc706d4622dbab1c","2","51","null","","","","","","","","","<p style='font-size: 30px;'><strong>Okay</strong></p>","null","neutral_feedback","1","test","37","","","","","","","",""
"","","","","","","","","","","","html-button-response","279","2.0.0","481146","6640be7edc706d4622dbab1c","2","51","3580","","","","","","","","","<img src= ""rock_img/I_Diorite_14.jpg"" style=""width:8cm; height:5.71cm;""><p>What type of rock is this?</p>","3","class_response","1","test","38","Gabbro","Diorite","14","false","4","3","",""
"","","","","","","","","","","","html-keyboard-response","280","2.0.0","481648","6640be7edc706d4622dbab1c","2","51","null","","","","","","","","","<p style='font-size: 30px;'><strong>Okay</strong></p>","null","neutral_feedback","1","test","38","","","","","","","",""
"","","","","","","","","","","","html-button-response","281","2.0.0","483187","6640be7edc706d4622dbab1c","2","51","1539","","","","","","","","","<img src= ""rock_img/I_Obsidian_05.jpg"" style=""width:8cm; height:6.33cm;""><p>What type of rock is this?</p>","4","class_response","1","test","39","Obsidian","Obsidian","05","true","5","5","",""
"","","","","","","","","","","","html-keyboard-response","282","2.0.0","483689","6640be7edc706d4622dbab1c","2","51","null","","","","","","","","","<p style='font-size: 30px;'><strong>Okay</strong></p>","null","neutral_feedback","1","test","39","","","","","","","",""
"","","","","","","","","","","","html-button-response","283","2.0.0","486591","6640be7edc706d4622dbab1c","2","51","2901","","","","","","","","","<img src= ""rock_img/I_Basalt_04.jpg"" style=""width:8cm; height:7.53cm;""><p>What type of rock is this?</p>","1","class_response","1","test","40","Basalt","Basalt","04","true","2","2","",""
"","","","","","","","","","","","html-keyboard-response","284","2.0.0","487100","6640be7edc706d4622dbab1c","2","51","null","","","","","","","","","<p style='font-size: 30px;'><strong>Okay</strong></p>","null","neutral_feedback","1","test","40","","","","","","","",""
"","","","","","","","","","","","html-button-response","285","2.0.0","492294","6640be7edc706d4622dbab1c","2","51","5192","","","","","","","","","<img src= ""rock_img/I_Obsidian_06.jpg"" style=""width:8cm; height:6.8cm;""><p>What type of rock is this?</p>","4","class_response","1","test","41","Obsidian","Obsidian","06","true","5","5","",""
"","","","","","","","","","","","html-keyboard-response","286","2.0.0","492810","6640be7edc706d4622dbab1c","2","51","null","","","","","","","","","<p style='font-size: 30px;'><strong>Okay</strong></p>","null","neutral_feedback","1","test","41","","","","","","","",""
"","","","","","","","","","","","html-button-response","287","2.0.0","523838","6640be7edc706d4622dbab1c","2","51","31024","","","","","","","","","<img src= ""rock_img/I_Gabbro_05.jpg"" style=""width:8cm; height:6cm;""><p>What type of rock is this?</p>","1","class_response","1","test","42","Basalt","Gabbro","05","false","2","4","",""
"","","","","","","","","","","","html-keyboard-response","288","2.0.0","524354","6640be7edc706d4622dbab1c","2","51","null","","","","","","","","","<p style='font-size: 30px;'><strong>Okay</strong></p>","null","neutral_feedback","1","test","42","","","","","","","",""
"","","","","","","","","","","","html-button-response","289","2.0.0","540873","6640be7edc706d4622dbab1c","2","51","16518","","","","","","","","","<img src= ""rock_img/I_Peridotite_14.jpg"" style=""width:8cm; height:5.3cm;""><p>What type of rock is this?</p>","2","class_response","1","test","43","Diorite","Peridotite","14","false","3","7","",""
"","","","","","","","","","","","html-keyboard-response","290","2.0.0","541374","6640be7edc706d4622dbab1c","2","51","null","","","","","","","","","<p style='font-size: 30px;'><strong>Okay</strong></p>","null","neutral_feedback","1","test","43","","","","","","","",""
"","","","","","","","","","","","html-button-response","291","2.0.0","543325","6640be7edc706d4622dbab1c","2","51","1950","","","","","","","","","<img src= ""rock_img/I_Pumice_16.jpg"" style=""width:8cm; height:6.79cm;""><p>What type of rock is this?</p>","7","class_response","1","test","44","Pumice","Pumice","16","true","8","8","",""
"","","","","","","","","","","","html-keyboard-response","292","2.0.0","543836","6640be7edc706d4622dbab1c","2","51","null","","","","","","","","","<p style='font-size: 30px;'><strong>Okay</strong></p>","null","neutral_feedback","1","test","44","","","","","","","",""
"","","","","","","","","","","","html-button-response","293","2.0.0","546856","6640be7edc706d4622dbab1c","2","51","3020","","","","","","","","","<img src= ""rock_img/I_Andesite_04.jpg"" style=""width:8cm; height:5.96cm;""><p>What type of rock is this?</p>","0","class_response","1","test","45","Andesite","Andesite","04","true","1","1","",""
"","","","","","","","","","","","html-keyboard-response","294","2.0.0","547359","6640be7edc706d4622dbab1c","2","51","null","","","","","","","","","<p style='font-size: 30px;'><strong>Okay</strong></p>","null","neutral_feedback","1","test","45","","","","","","","",""
"","","","","","","","","","","","html-button-response","295","2.0.0","549222","6640be7edc706d4622dbab1c","2","51","1861","","","","","","","","","<img src= ""rock_img/I_Pegmatite_07.jpg"" style=""width:8cm; height:6.7cm;""><p>What type of rock is this?</p>","5","class_response","1","test","46","Pegmatite","Pegmatite","07","true","6","6","",""
"","","","","","","","","","","","html-keyboard-response","296","2.0.0","549723","6640be7edc706d4622dbab1c","2","51","null","","","","","","","","","<p style='font-size: 30px;'><strong>Okay</strong></p>","null","neutral_feedback","1","test","46","","","","","","","",""
"","","","","","","","","","","","html-button-response","297","2.0.0","556655","6640be7edc706d4622dbab1c","2","51","6930","","","","","","","","","<img src= ""rock_img/I_Basalt_16.jpg"" style=""width:8cm; height:7.659999999999999cm;""><p>What type of rock is this?</p>","3","class_response","1","test","47","Gabbro","Basalt","16","false","4","2","",""
"","","","","","","","","","","","html-keyboard-response","298","2.0.0","557162","6640be7edc706d4622dbab1c","2","51","null","","","","","","","","","<p style='font-size: 30px;'><strong>Okay</strong></p>","null","neutral_feedback","1","test","47","","","","","","","",""
"","","","","","","","","","","","html-button-response","299","2.0.0","560347","6640be7edc706d4622dbab1c","2","51","3182","","","","","","","","","<img src= ""rock_img/I_Andesite_09.jpg"" style=""width:8cm; height:6cm;""><p>What type of rock is this?</p>","1","class_response","1","test","48","Basalt","Andesite","09","false","2","1","",""
"","","","","","","","","","","","html-keyboard-response","300","2.0.0","560853","6640be7edc706d4622dbab1c","2","51","null","","","","","","","","","<p style='font-size: 30px;'><strong>Okay</strong></p>","null","neutral_feedback","1","test","48","","","","","","","",""
"","","","","","","","","","","","html-button-response","301","2.0.0","590976","6640be7edc706d4622dbab1c","2","51","","","","","","","","","","","","cycle_feedback","","","","","","","","","","19814.700000047684","10304.099999904633"
"","","","","","","","","","","","html-button-response","303","2.0.0","592390","6640be7edc706d4622dbab1c","2","51","1413","","","","","","","","","","0","start_train","","","","","","","","","","",""
"","","","","","","","","","","","html-button-response","304","2.0.0","594220","6640be7edc706d4622dbab1c","2","51","1829","","","","","","","","","<img src= ""rock_img/I_Pegmatite_15.jpg"" style=""width:8cm; height:6cm;""><p>What type of rock is this?</p>","1","class_response","2","train","1","Basalt","Pegmatite","15","false","2","6","",""
