"width","height","webaudio","browser","browser_version","mobile","os","fullscreen","vsync_rate","webcam","microphone","trial_type","trial_index","plugin_version","time_elapsed","subjID","condition","stimID","rt","url","success","value","timeout","failed_images","failed_audio","failed_video","view_history","stimulus","response","trialType","cycle","phase","trial","resp","cat","token","corr","resp_num","cat_num","time_fb1","time_fb2"
"1920","947","true","firefox","132.0.0","false","Windows 10","true","17.81","false","false","browser-check","0","2.0.0","3966","633f4f203450d46b01e3d16b","2","27","","","","","","","","","","","","","","","","","","","","","","",""
"","","","","","","","","","","","external-html","1","2.0.0","9506","633f4f203450d46b01e3d16b","2","27","5443","consent_form.html","","","","","","","","","","","","","","","","","","","","",""
"","","","","","","","","","","","fullscreen","2","2.0.0","11882","633f4f203450d46b01e3d16b","2","27","1367","","true","","","","","","","","","","","","","","","","","","","",""
"","","","","","","","","","","","call-function","3","2.0.0","11883","633f4f203450d46b01e3d16b","2","27","","","","{}","","","","","","","","","","","","","","","","","","",""
"","","","","","","","","","","","preload","4","2.0.0","15094","633f4f203450d46b01e3d16b","2","27","","","true","","false","[]","[]","[]","","","","","","","","","","","","","","",""
"","","","","","","","","","","","instructions","5","2.0.0","70474","633f4f203450d46b01e3d16b","2","27","55379","","","","","","","","[{""page_index"":0,""viewing_time"":3757},{""page_index"":1,""viewing_time"":8248},{""page_index"":2,""viewing_time"":43374}]","","","","","","","","","","","","","",""
"","","","","","","","","","","","html-button-response","6","2.0.0","72003","633f4f203450d46b01e3d16b","2","27","1528","","","","","","","","","","0","start_test","","","","","","","","","","",""
"","","","","","","","","","","","html-button-response","7","2.0.0","82594","633f4f203450d46b01e3d16b","2","27","10589","","","","","","","","","<img src= ""rock_img/I_Obsidian_11.jpg"" style=""width:8cm; height:6.05cm;""><p>What type of rock is this?</p>","6","class_response","0","test","1","Peridotite","Obsidian","11","false","7","5","",""
"","","","","","","","","","","","html-keyboard-response","8","2.0.0","83104","633f4f203450d46b01e3d16b","2","27","null","","","","","","","","","<p style='font-size: 30px;'><strong>Okay</strong></p>","null","neutral_feedback","0","test","1","","","","","","","",""
"","","","","","","","","","","","html-button-response","9","2.0.0","85146","633f4f203450d46b01e3d16b","2","27","2041","","","","","","","","","<img src= ""rock_img/I_Diorite_14.jpg"" style=""width:8cm; height:5.71cm;""><p>What type of rock is this?</p>","7","class_response","0","test","2","Pumice","Diorite","14","false","8","3","",""
"","","","","","","","","","","","html-keyboard-response","10","2.0.0","85655","633f4f203450d46b01e3d16b","2","27","null","","","","","","","","","<p style='font-size: 30px;'><strong>Okay</strong></p>","null","neutral_feedback","0","test","2","","","","","","","",""
"","","","","","","","","","","","html-button-response","11","2.0.0","87624","633f4f203450d46b01e3d16b","2","27","1966","","","","","","","","","<img src= ""rock_img/I_Diorite_10.jpg"" style=""width:8cm; height:5.949999999999999cm;""><p>What type of rock is this?</p>","0","class_response","0","test","3","Andesite","Diorite","10","false","1","3","",""
"","","","","","","","","","","","html-keyboard-response","12","2.0.0","88128","633f4f203450d46b01e3d16b","2","27","null","","","","","","","","","<p style='font-size: 30px;'><strong>Okay</strong></p>","null","neutral_feedback","0","test","3","","","","","","","",""
"","","","","","","","","","","","html-button-response","13","2.0.0","89400","633f4f203450d46b01e3d16b","2","27","1272","","","","","","","","","<img src= ""rock_img/I_Pegmatite_07.jpg"" style=""width:8cm; height:6.7cm;""><p>What type of rock is this?</p>","4","class_response","0","test","4","Obsidian","Pegmatite","07","false","5","6","",""
"","","","","","","","","","","","html-keyboard-response","14","2.0.0","89912","633f4f203450d46b01e3d16b","2","27","null","","","","","","","","","<p style='font-size: 30px;'><strong>Okay</strong></p>","null","neutral_feedback","0","test","4","","","","","","","",""
"","","","","","","","","","","","html-button-response","15","2.0.0","91826","633f4f203450d46b01e3d16b","2","27","1911","","","","","","","","","<img src= ""rock_img/I_Basalt_01.jpg"" style=""width:8cm; height:7.880000000000001cm;""><p>What type of rock is this?</p>","5","class_response","0","test","5","Pegmatite","Basalt","01","false","6","2","",""
"","","","","","","","","","","","html-keyboard-response","16","2.0.0","92340","633f4f203450d46b01e3d16b","2","27","null","","","","","","","","","<p style='font-size: 30px;'><strong>Okay</strong></p>","null","neutral_feedback","0","test","5","","","","","","","",""
"","","","","","","","","","","","html-button-response","17","2.0.0","93993","633f4f203450d46b01e3d16b","2","27","1653","","","","","","","","","<img src= ""rock_img/I_Obsidian_16.jpg"" style=""width:8cm; height:9.3cm;""><p>What type of rock is this?</p>","6","class_response","0","test","6","Peridotite","Obsidian","16","false","7","5","",""
"","","","","","","","","","","","html-keyboard-response","18","2.0.0","94503","633f4f203450d46b01e3d16b","2","27","null","","","","","","","","","<p style='font-size: 30px;'><strong>Okay</strong></p>","null","neutral_feedback","0","test","6","","","","","","","",""
"","","","","","","","","","","","html-button-response","19","2.0.0","95669","633f4f203450d46b01e3d16b","2","27","1166","","","","","","","","","<img src= ""rock_img/I_Pegmatite_09.jpg"" style=""width:8cm; height:4.03cm;""><p>What type of rock is this?</p>","2","class_response","0","test","7","Diorite","Pegmatite","09","false","3","6","",""
"","","","","","","","","","","","html-keyboard-response","20","2.0.0","96182","633f4f203450d46b01e3d16b","2","27","null","","","","","","","","","<p style='font-size: 30px;'><strong>Okay</strong></p>","null","neutral_feedback","0","test","7","","","","","","","",""
"","","","","","","","","","","","html-button-response","21","2.0.0","97693","633f4f203450d46b01e3d16b","2","27","1509","","","","","","","","","<img src= ""rock_img/I_Andesite_10.jpg"" style=""width:8cm; height:4.16cm;""><p>What type of rock is this?</p>","3","class_response","0","test","8","Gabbro","Andesite","10","false","4","1","",""
"","","","","","","","","","","","html-keyboard-response","22","2.0.0","98195","633f4f203450d46b01e3d16b","2","27","null","","","","","","","","","<p style='font-size: 30px;'><strong>Okay</strong></p>","null","neutral_feedback","0","test","8","","","","","","","",""
"","","","","","","","","","","","html-button-response","23","2.0.0","99491","633f4f203450d46b01e3d16b","2","27","1293","","","","","","","","","<img src= ""rock_img/I_Basalt_06.jpg"" style=""width:8cm; height:7.06cm;""><p>What type of rock is this?</p>","1","class_response","0","test","9","Basalt","Basalt","06","true","2","2","",""
"","","","","","","","","","","","html-keyboard-response","24","2.0.0","99996","633f4f203450d46b01e3d16b","2","27","null","","","","","","","","","<p style='font-size: 30px;'><strong>Okay</strong></p>","null","neutral_feedback","0","test","9","","","","","","","",""
"","","","","","","","","","","","html-button-response","25","2.0.0","101377","633f4f203450d46b01e3d16b","2","27","1379","","","","","","","","","<img src= ""rock_img/I_Pumice_13.jpg"" style=""width:8cm; height:8.200000000000001cm;""><p>What type of rock is this?</p>","5","class_response","0","test","10","Pegmatite","Pumice","13","false","6","8","",""
"","","","","","","","","","","","html-keyboard-response","26","2.0.0","101909","633f4f203450d46b01e3d16b","2","27","null","","","","","","","","","<p style='font-size: 30px;'><strong>Okay</strong></p>","null","neutral_feedback","0","test","10","","","","","","","",""
"","","","","","","","","","","","html-button-response","27","2.0.0","103377","633f4f203450d46b01e3d16b","2","27","1468","","","","","","","","","<img src= ""rock_img/I_Gabbro_13.jpg"" style=""width:8cm; height:5.08cm;""><p>What type of rock is this?</p>","7","class_response","0","test","11","Pumice","Gabbro","13","false","8","4","",""
"","","","","","","","","","","","html-keyboard-response","28","2.0.0","103884","633f4f203450d46b01e3d16b","2","27","null","","","","","","","","","<p style='font-size: 30px;'><strong>Okay</strong></p>","null","neutral_feedback","0","test","11","","","","","","","",""
"","","","","","","","","","","","html-button-response","29","2.0.0","105761","633f4f203450d46b01e3d16b","2","27","1876","","","","","","","","","<img src= ""rock_img/I_Peridotite_08.jpg"" style=""width:8cm; height:6.7cm;""><p>What type of rock is this?</p>","2","class_response","0","test","12","Diorite","Peridotite","08","false","3","7","",""
"","","","","","","","","","","","html-keyboard-response","30","2.0.0","106271","633f4f203450d46b01e3d16b","2","27","null","","","","","","","","","<p style='font-size: 30px;'><strong>Okay</strong></p>","null","neutral_feedback","0","test","12","","","","","","","",""
"","","","","","","","","","","","html-button-response","31","2.0.0","107463","633f4f203450d46b01e3d16b","2","27","1193","","","","","","","","","<img src= ""rock_img/I_Pumice_08.jpg"" style=""width:8cm; height:6.67cm;""><p>What type of rock is this?</p>","0","class_response","0","test","13","Andesite","Pumice","08","false","1","8","",""
"","","","","","","","","","","","html-keyboard-response","32","2.0.0","107967","633f4f203450d46b01e3d16b","2","27","null","","","","","","","","","<p style='font-size: 30px;'><strong>Okay</strong></p>","null","neutral_feedback","0","test","13","","","","","","","",""
"","","","","","","","","","","","html-button-response","33","2.0.0","109144","633f4f203450d46b01e3d16b","2","27","1176","","","","","","","","","<img src= ""rock_img/I_Basalt_02.jpg"" style=""width:8cm; height:6.45cm;""><p>What type of rock is this?</p>","4","class_response","0","test","14","Obsidian","Basalt","02","false","5","2","",""
"","","","","","","","","","","","html-keyboard-response","34","2.0.0","109651","633f4f203450d46b01e3d16b","2","27","null","","","","","","","","","<p style='font-size: 30px;'><strong>Okay</strong></p>","null","neutral_feedback","0","test","14","","","","","","","",""
"","","","","","","","","","","","html-button-response","35","2.0.0","111436","633f4f203450d46b01e3d16b","2","27","1784","","","","","","","","","<img src= ""rock_img/I_Andesite_16.jpg"" style=""width:8cm; height:6.010000000000001cm;""><p>What type of rock is this?</p>","2","class_response","0","test","15","Diorite","Andesite","16","false","3","1","",""
"","","","","","","","","","","","html-keyboard-response","36","2.0.0","111942","633f4f203450d46b01e3d16b","2","27","null","","","","","","","","","<p style='font-size: 30px;'><strong>Okay</strong></p>","null","neutral_feedback","0","test","15","","","","","","","",""
"","","","","","","","","","","","html-button-response","37","2.0.0","113117","633f4f203450d46b01e3d16b","2","27","1173","","","","","","","","","<img src= ""rock_img/I_Peridotite_12.jpg"" style=""width:8cm; height:4.54cm;""><p>What type of rock is this?</p>","2","class_response","0","test","16","Diorite","Peridotite","12","false","3","7","",""
"","","","","","","","","","","","html-keyboard-response","38","2.0.0","113618","633f4f203450d46b01e3d16b","2","27","null","","","","","","","","","<p style='font-size: 30px;'><strong>Okay</strong></p>","null","neutral_feedback","0","test","16","","","","","","","",""
"","","","","","","","","","","","html-button-response","39","2.0.0","116032","633f4f203450d46b01e3d16b","2","27","2413","","","","","","","","","<img src= ""rock_img/I_Pegmatite_03.jpg"" style=""width:8cm; height:5.239999999999999cm;""><p>What type of rock is this?</p>","3","class_response","0","test","17","Gabbro","Pegmatite","03","false","4","6","",""
"","","","","","","","","","","","html-keyboard-response","40","2.0.0","116546","633f4f203450d46b01e3d16b","2","27","null","","","","","","","","","<p style='font-size: 30px;'><strong>Okay</strong></p>","null","neutral_feedback","0","test","17","","","","","","","",""
"","","","","","","","","","","","html-button-response","41","2.0.0","117403","633f4f203450d46b01e3d16b","2","27","856","","","","","","","","","<img src= ""rock_img/I_Pegmatite_08.jpg"" style=""width:8cm; height:7.68cm;""><p>What type of rock is this?</p>","1","class_response","0","test","18","Basalt","Pegmatite","08","false","2","6","",""
"","","","","","","","","","","","html-keyboard-response","42","2.0.0","117913","633f4f203450d46b01e3d16b","2","27","null","","","","","","","","","<p style='font-size: 30px;'><strong>Okay</strong></p>","null","neutral_feedback","0","test","18","","","","","","","",""
"","","","","","","","","","","","html-button-response","43","2.0.0","119012","633f4f203450d46b01e3d16b","2","27","1097","","","","","","","","","<img src= ""rock_img/I_Diorite_11.jpg"" style=""width:8cm; height:7.11cm;""><p>What type of rock is this?</p>","1","class_response","0","test","19","Basalt","Diorite","11","false","2","3","",""
"","","","","","","","","","","","html-keyboard-response","44","2.0.0","119524","633f4f203450d46b01e3d16b","2","27","null","","","","","","","","","<p style='font-size: 30px;'><strong>Okay</strong></p>","null","neutral_feedback","0","test","19","","","","","","","",""
"","","","","","","","","","","","html-button-response","45","2.0.0","120541","633f4f203450d46b01e3d16b","2","27","1014","","","","","","","","","<img src= ""rock_img/I_Diorite_15.jpg"" style=""width:8cm; height:5.54cm;""><p>What type of rock is this?</p>","1","class_response","0","test","20","Basalt","Diorite","15","false","2","3","",""
"","","","","","","","","","","","html-keyboard-response","46","2.0.0","121054","633f4f203450d46b01e3d16b","2","27","null","","","","","","","","","<p style='font-size: 30px;'><strong>Okay</strong></p>","null","neutral_feedback","0","test","20","","","","","","","",""
"","","","","","","","","","","","html-button-response","47","2.0.0","121963","633f4f203450d46b01e3d16b","2","27","908","","","","","","","","","<img src= ""rock_img/I_Gabbro_10.jpg"" style=""width:8cm; height:5.680000000000001cm;""><p>What type of rock is this?</p>","2","class_response","0","test","21","Diorite","Gabbro","10","false","3","4","",""
"","","","","","","","","","","","html-keyboard-response","48","2.0.0","122486","633f4f203450d46b01e3d16b","2","27","null","","","","","","","","","<p style='font-size: 30px;'><strong>Okay</strong></p>","null","neutral_feedback","0","test","21","","","","","","","",""
"","","","","","","","","","","","html-button-response","49","2.0.0","123651","633f4f203450d46b01e3d16b","2","27","1165","","","","","","","","","<img src= ""rock_img/I_Gabbro_11.jpg"" style=""width:8cm; height:6.2cm;""><p>What type of rock is this?</p>","0","class_response","0","test","22","Andesite","Gabbro","11","false","1","4","",""
"","","","","","","","","","","","html-keyboard-response","50","2.0.0","124153","633f4f203450d46b01e3d16b","2","27","null","","","","","","","","","<p style='font-size: 30px;'><strong>Okay</strong></p>","null","neutral_feedback","0","test","22","","","","","","","",""
"","","","","","","","","","","","html-button-response","51","2.0.0","125324","633f4f203450d46b01e3d16b","2","27","1170","","","","","","","","","<img src= ""rock_img/I_Peridotite_06.jpg"" style=""width:8cm; height:7.53cm;""><p>What type of rock is this?</p>","2","class_response","0","test","23","Diorite","Peridotite","06","false","3","7","",""
"","","","","","","","","","","","html-keyboard-response","52","2.0.0","125831","633f4f203450d46b01e3d16b","2","27","null","","","","","","","","","<p style='font-size: 30px;'><strong>Okay</strong></p>","null","neutral_feedback","0","test","23","","","","","","","",""
"","","","","","","","","","","","html-button-response","53","2.0.0","127278","633f4f203450d46b01e3d16b","2","27","1447","","","","","","","","","<img src= ""rock_img/I_Andesite_04.jpg"" style=""width:8cm; height:5.96cm;""><p>What type of rock is this?</p>","2","class_response","0","test","24","Diorite","Andesite","04","false","3","1","",""
"","","","","","","","","","","","html-keyboard-response","54","2.0.0","127794","633f4f203450d46b01e3d16b","2","27","null","","","","","","","","","<p style='font-size: 30px;'><strong>Okay</strong></p>","null","neutral_feedback","0","test","24","","","","","","","",""
"","","","","","","","","","","","html-button-response","55","2.0.0","129536","633f4f203450d46b01e3d16b","2","27","1741","","","","","","","","","<img src= ""rock_img/I_Obsidian_05.jpg"" style=""width:8cm; height:6.33cm;""><p>What type of rock is this?</p>","6","class_response","0","test","25","Peridotite","Obsidian","05","false","7","5","",""
"","","","","","","","","","","","html-keyboard-response","56","2.0.0","130044","633f4f203450d46b01e3d16b","2","27","null","","","","","","","","","<p style='font-size: 30px;'><strong>Okay</strong></p>","null","neutral_feedback","0","test","25","","","","","","","",""
"","","","","","","","","","","","html-button-response","57","2.0.0","131138","633f4f203450d46b01e3d16b","2","27","1095","","","","","","","","","<img src= ""rock_img/I_Basalt_12.jpg"" style=""width:8cm; height:6.010000000000001cm;""><p>What type of rock is this?</p>","5","class_response","0","test","26","Pegmatite","Basalt","12","false","6","2","",""
"","","","","","","","","","","","html-keyboard-response","58","2.0.0","131655","633f4f203450d46b01e3d16b","2","27","null","","","","","","","","","<p style='font-size: 30px;'><strong>Okay</strong></p>","null","neutral_feedback","0","test","26","","","","","","","",""
"","","","","","","","","","","","html-button-response","59","2.0.0","132768","633f4f203450d46b01e3d16b","2","27","1112","","","","","","","","","<img src= ""rock_img/I_Gabbro_03.jpg"" style=""width:8cm; height:8.52cm;""><p>What type of rock is this?</p>","1","class_response","0","test","27","Basalt","Gabbro","03","false","2","4","",""
"","","","","","","","","","","","html-keyboard-response","60","2.0.0","133272","633f4f203450d46b01e3d16b","2","27","null","","","","","","","","","<p style='font-size: 30px;'><strong>Okay</strong></p>","null","neutral_feedback","0","test","27","","","","","","","",""
"","","","","","","","","","","","html-button-response","61","2.0.0","134213","633f4f203450d46b01e3d16b","2","27","940","","","","","","","","","<img src= ""rock_img/I_Obsidian_14.jpg"" style=""width:8cm; height:7.64cm;""><p>What type of rock is this?</p>","6","class_response","0","test","28","Peridotite","Obsidian","14","false","7","5","",""
"","","","","","","","","","","","html-keyboard-response","62","2.0.0","134714","633f4f203450d46b01e3d16b","2","27","null","","","","","","","","","<p style='font-size: 30px;'><strong>Okay</strong></p>","null","neutral_feedback","0","test","28","","","","","","","",""
"","","","","","","","","","","","html-button-response","63","2.0.0","136268","633f4f203450d46b01e3d16b","2","27","1554","","","","","","","","","<img src= ""rock_img/I_Gabbro_15.jpg"" style=""width:8cm; height:6.29cm;""><p>What type of rock is this?</p>","1","class_response","0","test","29","Basalt","Gabbro","15","false","2","4","",""
"","","","","","","","","","","","html-keyboard-response","64","2.0.0","136769","633f4f203450d46b01e3d16b","2","27","null","","","","","","","","","<p style='font-size: 30px;'><strong>Okay</strong></p>","null","neutral_feedback","0","test","29","","","","","","","",""
"","","","","","","","","","","","html-button-response","65","2.0.0","138735","633f4f203450d46b01e3d16b","2","27","1964","","","","","","","","","<img src= ""rock_img/I_Obsidian_12.jpg"" style=""width:8cm; height:6.53cm;""><p>What type of rock is this?</p>","6","class_response","0","test","30","Peridotite","Obsidian","12","false","7","5","",""
"","","","","","","","","","","","html-keyboard-response","66","2.0.0","139247","633f4f203450d46b01e3d16b","2","27","null","","","","","","","","","<p style='font-size: 30px;'><strong>Okay</strong></p>","null","neutral_feedback","0","test","30","","","","","","","",""
"","","","","","","","","","","","html-button-response","67","2.0.0","140948","633f4f203450d46b01e3d16b","2","27","1701","","","","","","","","","<img src= ""rock_img/I_Basalt_16.jpg"" style=""width:8cm; height:7.659999999999999cm;""><p>What type of rock is this?</p>","7","class_response","0","test","31","Pumice","Basalt","16","false","8","2","",""
"","","","","","","","","","","","html-keyboard-response","68","2.0.0","141457","633f4f203450d46b01e3d16b","2","27","null","","","","","","","","","<p style='font-size: 30px;'><strong>Okay</strong></p>","null","neutral_feedback","0","test","31","","","","","","","",""
"","","","","","","","","","","","html-button-response","69","2.0.0","142363","633f4f203450d46b01e3d16b","2","27","903","","","","","","","","","<img src= ""rock_img/I_Pumice_16.jpg"" style=""width:8cm; height:6.79cm;""><p>What type of rock is this?</p>","7","class_response","0","test","32","Pumice","Pumice","16","true","8","8","",""
"","","","","","","","","","","","html-keyboard-response","70","2.0.0","142871","633f4f203450d46b01e3d16b","2","27","null","","","","","","","","","<p style='font-size: 30px;'><strong>Okay</strong></p>","null","neutral_feedback","0","test","32","","","","","","","",""
"","","","","","","","","","","","html-button-response","71","2.0.0","143944","633f4f203450d46b01e3d16b","2","27","1072","","","","","","","","","<img src= ""rock_img/I_Gabbro_08.jpg"" style=""width:8cm; height:5.15cm;""><p>What type of rock is this?</p>","0","class_response","0","test","33","Andesite","Gabbro","08","false","1","4","",""
"","","","","","","","","","","","html-keyboard-response","72","2.0.0","144455","633f4f203450d46b01e3d16b","2","27","null","","","","","","","","","<p style='font-size: 30px;'><strong>Okay</strong></p>","null","neutral_feedback","0","test","33","","","","","","","",""
"","","","","","","","","","","","html-button-response","73","2.0.0","145405","633f4f203450d46b01e3d16b","2","27","950","","","","","","","","","<img src= ""rock_img/I_Peridotite_15.jpg"" style=""width:8cm; height:6cm;""><p>What type of rock is this?</p>","1","class_response","0","test","34","Basalt","Peridotite","15","false","2","7","",""
"","","","","","","","","","","","html-keyboard-response","74","2.0.0","145920","633f4f203450d46b01e3d16b","2","27","null","","","","","","","","","<p style='font-size: 30px;'><strong>Okay</strong></p>","null","neutral_feedback","0","test","34","","","","","","","",""
"","","","","","","","","","","","html-button-response","75","2.0.0","147113","633f4f203450d46b01e3d16b","2","27","1191","","","","","","","","","<img src= ""rock_img/I_Pumice_15.jpg"" style=""width:8cm; height:7.86cm;""><p>What type of rock is this?</p>","4","class_response","0","test","35","Obsidian","Pumice","15","false","5","8","",""
"","","","","","","","","","","","html-keyboard-response","76","2.0.0","147629","633f4f203450d46b01e3d16b","2","27","null","","","","","","","","","<p style='font-size: 30px;'><strong>Okay</strong></p>","null","neutral_feedback","0","test","35","","","","","","","",""
"","","","","","","","","","","","html-button-response","77","2.0.0","149385","633f4f203450d46b01e3d16b","2","27","1755","","","","","","","","","<img src= ""rock_img/I_Diorite_16.jpg"" style=""width:8cm; height:6.74cm;""><p>What type of rock is this?</p>","1","class_response","0","test","36","Basalt","Diorite","16","false","2","3","",""
"","","","","","","","","","","","html-keyboard-response","78","2.0.0","149901","633f4f203450d46b01e3d16b","2","27","null","","","","","","","","","<p style='font-size: 30px;'><strong>Okay</strong></p>","null","neutral_feedback","0","test","36","","","","","","","",""
"","","","","","","","","","","","html-button-response","79","2.0.0","150920","633f4f203450d46b01e3d16b","2","27","1020","","","","","","","","","<img src= ""rock_img/I_Diorite_02.jpg"" style=""width:8cm; height:6.27cm;""><p>What type of rock is this?</p>","1","class_response","0","test","37","Basalt","Diorite","02","false","2","3","",""
"","","","","","","","","","","","html-keyboard-response","80","2.0.0","151474","633f4f203450d46b01e3d16b","2","27","null","","","","","","","","","<p style='font-size: 30px;'><strong>Okay</strong></p>","null","neutral_feedback","0","test","37","","","","","","","",""
"","","","","","","","","","","","html-button-response","81","2.0.0","152194","633f4f203450d46b01e3d16b","2","27","720","","","","","","","","","<img src= ""rock_img/I_Pegmatite_05.jpg"" style=""width:8cm; height:7.300000000000001cm;""><p>What type of rock is this?</p>","1","class_response","0","test","38","Basalt","Pegmatite","05","false","2","6","",""
"","","","","","","","","","","","html-keyboard-response","82","2.0.0","152705","633f4f203450d46b01e3d16b","2","27","null","","","","","","","","","<p style='font-size: 30px;'><strong>Okay</strong></p>","null","neutral_feedback","0","test","38","","","","","","","",""
"","","","","","","","","","","","html-button-response","83","2.0.0","153656","633f4f203450d46b01e3d16b","2","27","950","","","","","","","","","<img src= ""rock_img/I_Obsidian_02.jpg"" style=""width:8cm; height:7.51cm;""><p>What type of rock is this?</p>","6","class_response","0","test","39","Peridotite","Obsidian","02","false","7","5","",""
"","","","","","","","","","","","html-keyboard-response","84","2.0.0","154163","633f4f203450d46b01e3d16b","2","27","null","","","","","","","","","<p style='font-size: 30px;'><strong>Okay</strong></p>","null","neutral_feedback","0","test","39","","","","","","","",""
"","","","","","","","","","","","html-button-response","85","2.0.0","155491","633f4f203450d46b01e3d16b","2","27","1329","","","","","","","","","<img src= ""rock_img/I_Peridotite_05.jpg"" style=""width:8cm; height:7.1499999999999995cm;""><p>What type of rock is this?</p>","5","class_response","0","test","40","Pegmatite","Peridotite","05","false","6","7","",""
"","","","","","","","","","","","html-keyboard-response","86","2.0.0","156042","633f4f203450d46b01e3d16b","2","27","null","","","","","","","","","<p style='font-size: 30px;'><strong>Okay</strong></p>","null","neutral_feedback","0","test","40","","","","","","","",""
"","","","","","","","","","","","html-button-response","87","2.0.0","157415","633f4f203450d46b01e3d16b","2","27","1371","","","","","","","","","<img src= ""rock_img/I_Andesite_06.jpg"" style=""width:8cm; height:6.840000000000001cm;""><p>What type of rock is this?</p>","3","class_response","0","test","41","Gabbro","Andesite","06","false","4","1","",""
"","","","","","","","","","","","html-keyboard-response","88","2.0.0","157944","633f4f203450d46b01e3d16b","2","27","null","","","","","","","","","<p style='font-size: 30px;'><strong>Okay</strong></p>","null","neutral_feedback","0","test","41","","","","","","","",""
"","","","","","","","","","","","html-button-response","89","2.0.0","158705","633f4f203450d46b01e3d16b","2","27","760","","","","","","","","","<img src= ""rock_img/I_Basalt_09.jpg"" style=""width:8cm; height:6.2cm;""><p>What type of rock is this?</p>","7","class_response","0","test","42","Pumice","Basalt","09","false","8","2","",""
"","","","","","","","","","","","html-keyboard-response","90","2.0.0","159213","633f4f203450d46b01e3d16b","2","27","null","","","","","","","","","<p style='font-size: 30px;'><strong>Okay</strong></p>","null","neutral_feedback","0","test","42","","","","","","","",""
"","","","","","","","","","","","html-button-response","91","2.0.0","160796","633f4f203450d46b01e3d16b","2","27","1583","","","","","","","","","<img src= ""rock_img/I_Andesite_02.jpg"" style=""width:8cm; height:8.5cm;""><p>What type of rock is this?</p>","0","class_response","0","test","43","Andesite","Andesite","02","true","1","1","",""
"","","","","","","","","","","","html-keyboard-response","92","2.0.0","161308","633f4f203450d46b01e3d16b","2","27","null","","","","","","","","","<p style='font-size: 30px;'><strong>Okay</strong></p>","null","neutral_feedback","0","test","43","","","","","","","",""
"","","","","","","","","","","","html-button-response","93","2.0.0","162420","633f4f203450d46b01e3d16b","2","27","1110","","","","","","","","","<img src= ""rock_img/I_Pumice_09.jpg"" style=""width:8cm; height:6.44cm;""><p>What type of rock is this?</p>","5","class_response","0","test","44","Pegmatite","Pumice","09","false","6","8","",""
"","","","","","","","","","","","html-keyboard-response","94","2.0.0","162957","633f4f203450d46b01e3d16b","2","27","null","","","","","","","","","<p style='font-size: 30px;'><strong>Okay</strong></p>","null","neutral_feedback","0","test","44","","","","","","","",""
"","","","","","","","","","","","html-button-response","95","2.0.0","164155","633f4f203450d46b01e3d16b","2","27","1197","","","","","","","","","<img src= ""rock_img/I_Andesite_01.jpg"" style=""width:8cm; height:5.87cm;""><p>What type of rock is this?</p>","4","class_response","0","test","45","Obsidian","Andesite","01","false","5","1","",""
"","","","","","","","","","","","html-keyboard-response","96","2.0.0","164671","633f4f203450d46b01e3d16b","2","27","null","","","","","","","","","<p style='font-size: 30px;'><strong>Okay</strong></p>","null","neutral_feedback","0","test","45","","","","","","","",""
"","","","","","","","","","","","html-button-response","97","2.0.0","165625","633f4f203450d46b01e3d16b","2","27","954","","","","","","","","","<img src= ""rock_img/I_Pegmatite_11.jpg"" style=""width:8cm; height:8.14cm;""><p>What type of rock is this?</p>","1","class_response","0","test","46","Basalt","Pegmatite","11","false","2","6","",""
"","","","","","","","","","","","html-keyboard-response","98","2.0.0","166127","633f4f203450d46b01e3d16b","2","27","null","","","","","","","","","<p style='font-size: 30px;'><strong>Okay</strong></p>","null","neutral_feedback","0","test","46","","","","","","","",""
"","","","","","","","","","","","html-button-response","99","2.0.0","168011","633f4f203450d46b01e3d16b","2","27","1883","","","","","","","","","<img src= ""rock_img/I_Pumice_03.jpg"" style=""width:8cm; height:6.64cm;""><p>What type of rock is this?</p>","3","class_response","0","test","47","Gabbro","Pumice","03","false","4","8","",""
"","","","","","","","","","","","html-keyboard-response","100","2.0.0","168523","633f4f203450d46b01e3d16b","2","27","null","","","","","","","","","<p style='font-size: 30px;'><strong>Okay</strong></p>","null","neutral_feedback","0","test","47","","","","","","","",""
"","","","","","","","","","","","html-button-response","101","2.0.0","169719","633f4f203450d46b01e3d16b","2","27","1196","","","","","","","","","<img src= ""rock_img/I_Peridotite_02.jpg"" style=""width:8cm; height:5.859999999999999cm;""><p>What type of rock is this?</p>","1","class_response","0","test","48","Basalt","Peridotite","02","false","2","7","",""
"","","","","","","","","","","","html-keyboard-response","102","2.0.0","170234","633f4f203450d46b01e3d16b","2","27","null","","","","","","","","","<p style='font-size: 30px;'><strong>Okay</strong></p>","null","neutral_feedback","0","test","48","","","","","","","",""
"","","","","","","","","","","","instructions","103","2.0.0","186562","633f4f203450d46b01e3d16b","2","27","16308","","","","","","","","[{""page_index"":0,""viewing_time"":9635},{""page_index"":1,""viewing_time"":3626},{""page_index"":2,""viewing_time"":3047}]","","","","","","","","","","","","","",""
"","","","","","","","","","","","html-button-response","104","2.0.0","190582","633f4f203450d46b01e3d16b","2","27","4019","","","","","","","","","","0","start_train","","","","","","","","","","",""
"","","","","","","","","","","","html-button-response","105","2.0.0","192135","633f4f203450d46b01e3d16b","2","27","1552","","","","","","","","","<img src= ""rock_img/I_Pegmatite_15.jpg"" style=""width:8cm; height:6cm;""><p>What type of rock is this?</p>","1","class_response","1","train","1","Basalt","Pegmatite","15","false","2","6","",""
"","","","","","","","","","","","html-button-response","106","2.0.0","193495","633f4f203450d46b01e3d16b","2","27","1359","","","","","","","","","<img src= rock_img/I_Pegmatite_15.jpg style=""width:8cm; height:6cm;""><p style='font-size: 30px; color: red;'><strong>Incorrect!</strong></p><p style='font-size: 30px;'><strong>This rock is pegmatite</strong></p>","0","corr_feedback","1","train","1","","","","","","","",""
"","","","","","","","","","","","html-button-response","107","2.0.0","195088","633f4f203450d46b01e3d16b","2","27","1592","","","","","","","","","<img src= ""rock_img/I_Gabbro_05.jpg"" style=""width:8cm; height:6cm;""><p>What type of rock is this?</p>","3","class_response","1","train","2","Gabbro","Gabbro","05","true","4","4","",""
"","","","","","","","","","","","html-button-response","108","2.0.0","196614","633f4f203450d46b01e3d16b","2","27","1526","","","","","","","","","<img src= rock_img/I_Gabbro_05.jpg style=""width:8cm; height:6cm;""><p style='font-size: 30px; color: green;'><strong>Correct!</strong></p><p style='font-size: 30px;'><strong>This rock is gabbro</strong></p>","0","corr_feedback","1","train","2","","","","","","","",""
"","","","","","","","","","","","html-button-response","109","2.0.0","198169","633f4f203450d46b01e3d16b","2","27","1552","","","","","","","","","<img src= ""rock_img/I_Basalt_11.jpg"" style=""width:8cm; height:5.359999999999999cm;""><p>What type of rock is this?</p>","3","class_response","1","train","3","Gabbro","Basalt","11","false","4","2","",""
"","","","","","","","","","","","html-button-response","110","2.0.0","199179","633f4f203450d46b01e3d16b","2","27","1010","","","","","","","","","<img src= rock_img/I_Basalt_11.jpg style=""width:8cm; height:5.359999999999999cm;""><p style='font-size: 30px; color: red;'><strong>Incorrect!</strong></p><p style='font-size: 30px;'><strong>This rock is basalt</strong></p>","0","corr_feedback","1","train","3","","","","","","","",""
"","","","","","","","","","","","html-button-response","111","2.0.0","200910","633f4f203450d46b01e3d16b","2","27","1730","","","","","","","","","<img src= ""rock_img/I_Pumice_14.jpg"" style=""width:8cm; height:6.39cm;""><p>What type of rock is this?</p>","1","class_response","1","train","4","Basalt","Pumice","14","false","2","8","",""
"","","","","","","","","","","","html-button-response","112","2.0.0","201588","633f4f203450d46b01e3d16b","2","27","677","","","","","","","","","<img src= rock_img/I_Pumice_14.jpg style=""width:8cm; height:6.39cm;""><p style='font-size: 30px; color: red;'><strong>Incorrect!</strong></p><p style='font-size: 30px;'><strong>This rock is pumice</strong></p>","0","corr_feedback","1","train","4","","","","","","","",""
"","","","","","","","","","","","html-button-response","113","2.0.0","203805","633f4f203450d46b01e3d16b","2","27","2216","","","","","","","","","<img src= ""rock_img/I_Basalt_08.jpg"" style=""width:8cm; height:10.44cm;""><p>What type of rock is this?</p>","4","class_response","1","train","5","Obsidian","Basalt","08","false","5","2","",""
"","","","","","","","","","","","html-button-response","114","2.0.0","204896","633f4f203450d46b01e3d16b","2","27","1090","","","","","","","","","<img src= rock_img/I_Basalt_08.jpg style=""width:8cm; height:10.44cm;""><p style='font-size: 30px; color: red;'><strong>Incorrect!</strong></p><p style='font-size: 30px;'><strong>This rock is basalt</strong></p>","0","corr_feedback","1","train","5","","","","","","","",""
"","","","","","","","","","","","html-button-response","115","2.0.0","206702","633f4f203450d46b01e3d16b","2","27","1805","","","","","","","","","<img src= ""rock_img/I_Diorite_12.jpg"" style=""width:8cm; height:4.88cm;""><p>What type of rock is this?</p>","0","class_response","1","train","6","Andesite","Diorite","12","false","1","3","",""
"","","","","","","","","","","","html-button-response","116","2.0.0","207443","633f4f203450d46b01e3d16b","2","27","740","","","","","","","","","<img src= rock_img/I_Diorite_12.jpg style=""width:8cm; height:4.88cm;""><p style='font-size: 30px; color: red;'><strong>Incorrect!</strong></p><p style='font-size: 30px;'><strong>This rock is diorite</strong></p>","0","corr_feedback","1","train","6","","","","","","","",""
"","","","","","","","","","","","html-button-response","117","2.0.0","208940","633f4f203450d46b01e3d16b","2","27","1496","","","","","","","","","<img src= ""rock_img/I_Diorite_06.jpg"" style=""width:8cm; height:6.03cm;""><p>What type of rock is this?</p>","2","class_response","1","train","7","Diorite","Diorite","06","true","3","3","",""
"","","","","","","","","","","","html-button-response","118","2.0.0","209600","633f4f203450d46b01e3d16b","2","27","660","","","","","","","","","<img src= rock_img/I_Diorite_06.jpg style=""width:8cm; height:6.03cm;""><p style='font-size: 30px; color: green;'><strong>Correct!</strong></p><p style='font-size: 30px;'><strong>This rock is diorite</strong></p>","0","corr_feedback","1","train","7","","","","","","","",""
"","","","","","","","","","","","html-button-response","119","2.0.0","211190","633f4f203450d46b01e3d16b","2","27","1590","","","","","","","","","<img src= ""rock_img/I_Peridotite_04.jpg"" style=""width:8cm; height:6.680000000000001cm;""><p>What type of rock is this?</p>","2","class_response","1","train","8","Diorite","Peridotite","04","false","3","7","",""
"","","","","","","","","","","","html-button-response","120","2.0.0","211810","633f4f203450d46b01e3d16b","2","27","618","","","","","","","","","<img src= rock_img/I_Peridotite_04.jpg style=""width:8cm; height:6.680000000000001cm;""><p style='font-size: 30px; color: red;'><strong>Incorrect!</strong></p><p style='font-size: 30px;'><strong>This rock is peridotite</strong></p>","0","corr_feedback","1","train","8","","","","","","","",""
"","","","","","","","","","","","html-button-response","121","2.0.0","213119","633f4f203450d46b01e3d16b","2","27","1308","","","","","","","","","<img src= ""rock_img/I_Andesite_07.jpg"" style=""width:8cm; height:5.93cm;""><p>What type of rock is this?</p>","2","class_response","1","train","9","Diorite","Andesite","07","false","3","1","",""
"","","","","","","","","","","","html-button-response","122","2.0.0","213674","633f4f203450d46b01e3d16b","2","27","554","","","","","","","","","<img src= rock_img/I_Andesite_07.jpg style=""width:8cm; height:5.93cm;""><p style='font-size: 30px; color: red;'><strong>Incorrect!</strong></p><p style='font-size: 30px;'><strong>This rock is andesite</strong></p>","0","corr_feedback","1","train","9","","","","","","","",""
"","","","","","","","","","","","html-button-response","123","2.0.0","215187","633f4f203450d46b01e3d16b","2","27","1512","","","","","","","","","<img src= ""rock_img/I_Obsidian_08.jpg"" style=""width:8cm; height:7.39cm;""><p>What type of rock is this?</p>","5","class_response","1","train","10","Pegmatite","Obsidian","08","false","6","5","",""
"","","","","","","","","","","","html-button-response","124","2.0.0","216094","633f4f203450d46b01e3d16b","2","27","906","","","","","","","","","<img src= rock_img/I_Obsidian_08.jpg style=""width:8cm; height:7.39cm;""><p style='font-size: 30px; color: red;'><strong>Incorrect!</strong></p><p style='font-size: 30px;'><strong>This rock is obsidian</strong></p>","0","corr_feedback","1","train","10","","","","","","","",""
"","","","","","","","","","","","html-button-response","125","2.0.0","218482","633f4f203450d46b01e3d16b","2","27","2387","","","","","","","","","<img src= ""rock_img/I_Obsidian_09.jpg"" style=""width:8cm; height:5cm;""><p>What type of rock is this?</p>","4","class_response","1","train","11","Obsidian","Obsidian","09","true","5","5","",""
"","","","","","","","","","","","html-button-response","126","2.0.0","219291","633f4f203450d46b01e3d16b","2","27","808","","","","","","","","","<img src= rock_img/I_Obsidian_09.jpg style=""width:8cm; height:5cm;""><p style='font-size: 30px; color: green;'><strong>Correct!</strong></p><p style='font-size: 30px;'><strong>This rock is obsidian</strong></p>","0","corr_feedback","1","train","11","","","","","","","",""
"","","","","","","","","","","","html-button-response","127","2.0.0","220497","633f4f203450d46b01e3d16b","2","27","1205","","","","","","","","","<img src= ""rock_img/I_Obsidian_07.jpg"" style=""width:8cm; height:4.76cm;""><p>What type of rock is this?</p>","4","class_response","1","train","12","Obsidian","Obsidian","07","true","5","5","",""
"","","","","","","","","","","","html-button-response","128","2.0.0","221142","633f4f203450d46b01e3d16b","2","27","645","","","","","","","","","<img src= rock_img/I_Obsidian_07.jpg style=""width:8cm; height:4.76cm;""><p style='font-size: 30px; color: green;'><strong>Correct!</strong></p><p style='font-size: 30px;'><strong>This rock is obsidian</strong></p>","0","corr_feedback","1","train","12","","","","","","","",""
"","","","","","","","","","","","html-button-response","129","2.0.0","222340","633f4f203450d46b01e3d16b","2","27","1196","","","","","","","","","<img src= ""rock_img/I_Basalt_05.jpg"" style=""width:8cm; height:8.18cm;""><p>What type of rock is this?</p>","0","class_response","1","train","13","Andesite","Basalt","05","false","1","2","",""
"","","","","","","","","","","","html-button-response","130","2.0.0","223337","633f4f203450d46b01e3d16b","2","27","996","","","","","","","","","<img src= rock_img/I_Basalt_05.jpg style=""width:8cm; height:8.18cm;""><p style='font-size: 30px; color: red;'><strong>Incorrect!</strong></p><p style='font-size: 30px;'><strong>This rock is basalt</strong></p>","0","corr_feedback","1","train","13","","","","","","","",""
"","","","","","","","","","","","html-button-response","131","2.0.0","224620","633f4f203450d46b01e3d16b","2","27","1282","","","","","","","","","<img src= ""rock_img/I_Pumice_06.jpg"" style=""width:8cm; height:6.9399999999999995cm;""><p>What type of rock is this?</p>","1","class_response","1","train","14","Basalt","Pumice","06","false","2","8","",""
"","","","","","","","","","","","html-button-response","132","2.0.0","225289","633f4f203450d46b01e3d16b","2","27","668","","","","","","","","","<img src= rock_img/I_Pumice_06.jpg style=""width:8cm; height:6.9399999999999995cm;""><p style='font-size: 30px; color: red;'><strong>Incorrect!</strong></p><p style='font-size: 30px;'><strong>This rock is pumice</strong></p>","0","corr_feedback","1","train","14","","","","","","","",""
"","","","","","","","","","","","html-button-response","133","2.0.0","226675","633f4f203450d46b01e3d16b","2","27","1385","","","","","","","","","<img src= ""rock_img/I_Pumice_02.jpg"" style=""width:8cm; height:7.3999999999999995cm;""><p>What type of rock is this?</p>","1","class_response","1","train","15","Basalt","Pumice","02","false","2","8","",""
"","","","","","","","","","","","html-button-response","134","2.0.0","227417","633f4f203450d46b01e3d16b","2","27","741","","","","","","","","","<img src= rock_img/I_Pumice_02.jpg style=""width:8cm; height:7.3999999999999995cm;""><p style='font-size: 30px; color: red;'><strong>Incorrect!</strong></p><p style='font-size: 30px;'><strong>This rock is pumice</strong></p>","0","corr_feedback","1","train","15","","","","","","","",""
"","","","","","","","","","","","html-button-response","135","2.0.0","230444","633f4f203450d46b01e3d16b","2","27","3026","","","","","","","","","<img src= ""rock_img/I_Peridotite_13.jpg"" style=""width:8cm; height:7.58cm;""><p>What type of rock is this?</p>","7","class_response","1","train","16","Pumice","Peridotite","13","false","8","7","",""
"","","","","","","","","","","","html-button-response","136","2.0.0","231077","633f4f203450d46b01e3d16b","2","27","632","","","","","","","","","<img src= rock_img/I_Peridotite_13.jpg style=""width:8cm; height:7.58cm;""><p style='font-size: 30px; color: red;'><strong>Incorrect!</strong></p><p style='font-size: 30px;'><strong>This rock is peridotite</strong></p>","0","corr_feedback","1","train","16","","","","","","","",""
"","","","","","","","","","","","html-button-response","137","2.0.0","233080","633f4f203450d46b01e3d16b","2","27","2003","","","","","","","","","<img src= ""rock_img/I_Gabbro_16.jpg"" style=""width:8cm; height:6.44cm;""><p>What type of rock is this?</p>","6","class_response","1","train","17","Peridotite","Gabbro","16","false","7","4","",""
"","","","","","","","","","","","html-button-response","138","2.0.0","233673","633f4f203450d46b01e3d16b","2","27","592","","","","","","","","","<img src= rock_img/I_Gabbro_16.jpg style=""width:8cm; height:6.44cm;""><p style='font-size: 30px; color: red;'><strong>Incorrect!</strong></p><p style='font-size: 30px;'><strong>This rock is gabbro</strong></p>","0","corr_feedback","1","train","17","","","","","","","",""
"","","","","","","","","","","","html-button-response","139","2.0.0","235206","633f4f203450d46b01e3d16b","2","27","1532","","","","","","","","","<img src= ""rock_img/I_Diorite_07.jpg"" style=""width:8cm; height:5.239999999999999cm;""><p>What type of rock is this?</p>","0","class_response","1","train","18","Andesite","Diorite","07","false","1","3","",""
"","","","","","","","","","","","html-button-response","140","2.0.0","235925","633f4f203450d46b01e3d16b","2","27","719","","","","","","","","","<img src= rock_img/I_Diorite_07.jpg style=""width:8cm; height:5.239999999999999cm;""><p style='font-size: 30px; color: red;'><strong>Incorrect!</strong></p><p style='font-size: 30px;'><strong>This rock is diorite</strong></p>","0","corr_feedback","1","train","18","","","","","","","",""
"","","","","","","","","","","","html-button-response","141","2.0.0","238669","633f4f203450d46b01e3d16b","2","27","2742","","","","","","","","","<img src= ""rock_img/I_Peridotite_16.jpg"" style=""width:8cm; height:6.989999999999999cm;""><p>What type of rock is this?</p>","2","class_response","1","train","19","Diorite","Peridotite","16","false","3","7","",""
"","","","","","","","","","","","html-button-response","142","2.0.0","239278","633f4f203450d46b01e3d16b","2","27","609","","","","","","","","","<img src= rock_img/I_Peridotite_16.jpg style=""width:8cm; height:6.989999999999999cm;""><p style='font-size: 30px; color: red;'><strong>Incorrect!</strong></p><p style='font-size: 30px;'><strong>This rock is peridotite</strong></p>","0","corr_feedback","1","train","19","","","","","","","",""
"","","","","","","","","","","","html-button-response","143","2.0.0","240628","633f4f203450d46b01e3d16b","2","27","1349","","","","","","","","","<img src= ""rock_img/I_Basalt_04.jpg"" style=""width:8cm; height:7.53cm;""><p>What type of rock is this?</p>","5","class_response","1","train","20","Pegmatite","Basalt","04","false","6","2","",""
"","","","","","","","","","","","html-button-response","144","2.0.0","241311","633f4f203450d46b01e3d16b","2","27","682","","","","","","","","","<img src= rock_img/I_Basalt_04.jpg style=""width:8cm; height:7.53cm;""><p style='font-size: 30px; color: red;'><strong>Incorrect!</strong></p><p style='font-size: 30px;'><strong>This rock is basalt</strong></p>","0","corr_feedback","1","train","20","","","","","","","",""
"","","","","","","","","","","","html-button-response","145","2.0.0","242888","633f4f203450d46b01e3d16b","2","27","1576","","","","","","","","","<img src= ""rock_img/I_Gabbro_14.jpg"" style=""width:8cm; height:8.48cm;""><p>What type of rock is this?</p>","1","class_response","1","train","21","Basalt","Gabbro","14","false","2","4","",""
"","","","","","","","","","","","html-button-response","146","2.0.0","243503","633f4f203450d46b01e3d16b","2","27","614","","","","","","","","","<img src= rock_img/I_Gabbro_14.jpg style=""width:8cm; height:8.48cm;""><p style='font-size: 30px; color: red;'><strong>Incorrect!</strong></p><p style='font-size: 30px;'><strong>This rock is gabbro</strong></p>","0","corr_feedback","1","train","21","","","","","","","",""
"","","","","","","","","","","","html-button-response","147","2.0.0","245209","633f4f203450d46b01e3d16b","2","27","1704","","","","","","","","","<img src= ""rock_img/I_Basalt_14.jpg"" style=""width:8cm; height:5.82cm;""><p>What type of rock is this?</p>","3","class_response","1","train","22","Gabbro","Basalt","14","false","4","2","",""
"","","","","","","","","","","","html-button-response","148","2.0.0","245806","633f4f203450d46b01e3d16b","2","27","597","","","","","","","","","<img src= rock_img/I_Basalt_14.jpg style=""width:8cm; height:5.82cm;""><p style='font-size: 30px; color: red;'><strong>Incorrect!</strong></p><p style='font-size: 30px;'><strong>This rock is basalt</strong></p>","0","corr_feedback","1","train","22","","","","","","","",""
"","","","","","","","","","","","html-button-response","149","2.0.0","247111","633f4f203450d46b01e3d16b","2","27","1303","","","","","","","","","<img src= ""rock_img/I_Pegmatite_12.jpg"" style=""width:8cm; height:5.7cm;""><p>What type of rock is this?</p>","0","class_response","1","train","23","Andesite","Pegmatite","12","false","1","6","",""
"","","","","","","","","","","","html-button-response","150","2.0.0","247843","633f4f203450d46b01e3d16b","2","27","731","","","","","","","","","<img src= rock_img/I_Pegmatite_12.jpg style=""width:8cm; height:5.7cm;""><p style='font-size: 30px; color: red;'><strong>Incorrect!</strong></p><p style='font-size: 30px;'><strong>This rock is pegmatite</strong></p>","0","corr_feedback","1","train","23","","","","","","","",""
"","","","","","","","","","","","html-button-response","151","2.0.0","249239","633f4f203450d46b01e3d16b","2","27","1395","","","","","","","","","<img src= ""rock_img/I_Peridotite_16.jpg"" style=""width:8cm; height:6.989999999999999cm;""><p>What type of rock is this?</p>","0","class_response","1","train","24","Andesite","Peridotite","16","false","1","7","",""
"","","","","","","","","","","","html-button-response","152","2.0.0","250127","633f4f203450d46b01e3d16b","2","27","887","","","","","","","","","<img src= rock_img/I_Peridotite_16.jpg style=""width:8cm; height:6.989999999999999cm;""><p style='font-size: 30px; color: red;'><strong>Incorrect!</strong></p><p style='font-size: 30px;'><strong>This rock is peridotite</strong></p>","0","corr_feedback","1","train","24","","","","","","","",""
"","","","","","","","","","","","html-button-response","153","2.0.0","251767","633f4f203450d46b01e3d16b","2","27","1639","","","","","","","","","<img src= ""rock_img/I_Obsidian_04.jpg"" style=""width:8cm; height:6.930000000000001cm;""><p>What type of rock is this?</p>","5","class_response","1","train","25","Pegmatite","Obsidian","04","false","6","5","",""
"","","","","","","","","","","","html-button-response","154","2.0.0","252327","633f4f203450d46b01e3d16b","2","27","559","","","","","","","","","<img src= rock_img/I_Obsidian_04.jpg style=""width:8cm; height:6.930000000000001cm;""><p style='font-size: 30px; color: red;'><strong>Incorrect!</strong></p><p style='font-size: 30px;'><strong>This rock is obsidian</strong></p>","0","corr_feedback","1","train","25","","","","","","","",""
"","","","","","","","","","","","html-button-response","155","2.0.0","253967","633f4f203450d46b01e3d16b","2","27","1639","","","","","","","","","<img src= ""rock_img/I_Peridotite_14.jpg"" style=""width:8cm; height:5.3cm;""><p>What type of rock is this?</p>","4","class_response","1","train","26","Obsidian","Peridotite","14","false","5","7","",""
"","","","","","","","","","","","html-button-response","156","2.0.0","254599","633f4f203450d46b01e3d16b","2","27","631","","","","","","","","","<img src= rock_img/I_Peridotite_14.jpg style=""width:8cm; height:5.3cm;""><p style='font-size: 30px; color: red;'><strong>Incorrect!</strong></p><p style='font-size: 30px;'><strong>This rock is peridotite</strong></p>","0","corr_feedback","1","train","26","","","","","","","",""
"","","","","","","","","","","","html-button-response","157","2.0.0","257433","633f4f203450d46b01e3d16b","2","27","2833","","","","","","","","","<img src= ""rock_img/I_Diorite_13.jpg"" style=""width:8cm; height:6.29cm;""><p>What type of rock is this?</p>","2","class_response","1","train","27","Diorite","Diorite","13","true","3","3","",""
"","","","","","","","","","","","html-button-response","158","2.0.0","258042","633f4f203450d46b01e3d16b","2","27","608","","","","","","","","","<img src= rock_img/I_Diorite_13.jpg style=""width:8cm; height:6.29cm;""><p style='font-size: 30px; color: green;'><strong>Correct!</strong></p><p style='font-size: 30px;'><strong>This rock is diorite</strong></p>","0","corr_feedback","1","train","27","","","","","","","",""
"","","","","","","","","","","","html-button-response","159","2.0.0","259744","633f4f203450d46b01e3d16b","2","27","1701","","","","","","","","","<img src= ""rock_img/I_Andesite_05.jpg"" style=""width:8cm; height:4.12cm;""><p>What type of rock is this?</p>","3","class_response","1","train","28","Gabbro","Andesite","05","false","4","1","",""
"","","","","","","","","","","","html-button-response","160","2.0.0","260269","633f4f203450d46b01e3d16b","2","27","525","","","","","","","","","<img src= rock_img/I_Andesite_05.jpg style=""width:8cm; height:4.12cm;""><p style='font-size: 30px; color: red;'><strong>Incorrect!</strong></p><p style='font-size: 30px;'><strong>This rock is andesite</strong></p>","0","corr_feedback","1","train","28","","","","","","","",""
"","","","","","","","","","","","html-button-response","161","2.0.0","261973","633f4f203450d46b01e3d16b","2","27","1702","","","","","","","","","<img src= ""rock_img/I_Gabbro_01.jpg"" style=""width:8cm; height:5.21cm;""><p>What type of rock is this?</p>","0","class_response","1","train","29","Andesite","Gabbro","01","false","1","4","",""
"","","","","","","","","","","","html-button-response","162","2.0.0","262623","633f4f203450d46b01e3d16b","2","27","649","","","","","","","","","<img src= rock_img/I_Gabbro_01.jpg style=""width:8cm; height:5.21cm;""><p style='font-size: 30px; color: red;'><strong>Incorrect!</strong></p><p style='font-size: 30px;'><strong>This rock is gabbro</strong></p>","0","corr_feedback","1","train","29","","","","","","","",""
"","","","","","","","","","","","html-button-response","163","2.0.0","264490","633f4f203450d46b01e3d16b","2","27","1867","","","","","","","","","<img src= ""rock_img/I_Gabbro_09.jpg"" style=""width:8cm; height:7.279999999999999cm;""><p>What type of rock is this?</p>","3","class_response","1","train","30","Gabbro","Gabbro","09","true","4","4","",""
"","","","","","","","","","","","html-button-response","164","2.0.0","265072","633f4f203450d46b01e3d16b","2","27","581","","","","","","","","","<img src= rock_img/I_Gabbro_09.jpg style=""width:8cm; height:7.279999999999999cm;""><p style='font-size: 30px; color: green;'><strong>Correct!</strong></p><p style='font-size: 30px;'><strong>This rock is gabbro</strong></p>","0","corr_feedback","1","train","30","","","","","","","",""
"","","","","","","","","","","","html-button-response","165","2.0.0","267422","633f4f203450d46b01e3d16b","2","27","2349","","","","","","","","","<img src= ""rock_img/I_Obsidian_10.jpg"" style=""width:8cm; height:6.260000000000001cm;""><p>What type of rock is this?</p>","4","class_response","1","train","31","Obsidian","Obsidian","10","true","5","5","",""
"","","","","","","","","","","","html-button-response","166","2.0.0","268016","633f4f203450d46b01e3d16b","2","27","593","","","","","","","","","<img src= rock_img/I_Obsidian_10.jpg style=""width:8cm; height:6.260000000000001cm;""><p style='font-size: 30px; color: green;'><strong>Correct!</strong></p><p style='font-size: 30px;'><strong>This rock is obsidian</strong></p>","0","corr_feedback","1","train","31","","","","","","","",""
"","","","","","","","","","","","html-button-response","167","2.0.0","269808","633f4f203450d46b01e3d16b","2","27","1792","","","","","","","","","<img src= ""rock_img/I_Diorite_09.jpg"" style=""width:8cm; height:5.27cm;""><p>What type of rock is this?</p>","0","class_response","1","train","32","Andesite","Diorite","09","false","1","3","",""
"","","","","","","","","","","","html-button-response","168","2.0.0","270571","633f4f203450d46b01e3d16b","2","27","761","","","","","","","","","<img src= rock_img/I_Diorite_09.jpg style=""width:8cm; height:5.27cm;""><p style='font-size: 30px; color: red;'><strong>Incorrect!</strong></p><p style='font-size: 30px;'><strong>This rock is diorite</strong></p>","0","corr_feedback","1","train","32","","","","","","","",""
"","","","","","","","","","","","html-button-response","169","2.0.0","272538","633f4f203450d46b01e3d16b","2","27","1967","","","","","","","","","<img src= ""rock_img/I_Pegmatite_10.jpg"" style=""width:8cm; height:4.16cm;""><p>What type of rock is this?</p>","2","class_response","1","train","33","Diorite","Pegmatite","10","false","3","6","",""
"","","","","","","","","","","","html-button-response","170","2.0.0","273078","633f4f203450d46b01e3d16b","2","27","538","","","","","","","","","<img src= rock_img/I_Pegmatite_10.jpg style=""width:8cm; height:4.16cm;""><p style='font-size: 30px; color: red;'><strong>Incorrect!</strong></p><p style='font-size: 30px;'><strong>This rock is pegmatite</strong></p>","0","corr_feedback","1","train","33","","","","","","","",""
"","","","","","","","","","","","html-button-response","171","2.0.0","274565","633f4f203450d46b01e3d16b","2","27","1487","","","","","","","","","<img src= ""rock_img/I_Andesite_14.jpg"" style=""width:8cm; height:5.449999999999999cm;""><p>What type of rock is this?</p>","3","class_response","1","train","34","Gabbro","Andesite","14","false","4","1","",""
"","","","","","","","","","","","html-button-response","172","2.0.0","275088","633f4f203450d46b01e3d16b","2","27","522","","","","","","","","","<img src= rock_img/I_Andesite_14.jpg style=""width:8cm; height:5.449999999999999cm;""><p style='font-size: 30px; color: red;'><strong>Incorrect!</strong></p><p style='font-size: 30px;'><strong>This rock is andesite</strong></p>","0","corr_feedback","1","train","34","","","","","","","",""
"","","","","","","","","","","","html-button-response","173","2.0.0","276902","633f4f203450d46b01e3d16b","2","27","1813","","","","","","","","","<img src= ""rock_img/I_Peridotite_10.jpg"" style=""width:8cm; height:5.390000000000001cm;""><p>What type of rock is this?</p>","0","class_response","1","train","35","Andesite","Peridotite","10","false","1","7","",""
"","","","","","","","","","","","html-button-response","174","2.0.0","277716","633f4f203450d46b01e3d16b","2","27","812","","","","","","","","","<img src= rock_img/I_Peridotite_10.jpg style=""width:8cm; height:5.390000000000001cm;""><p style='font-size: 30px; color: red;'><strong>Incorrect!</strong></p><p style='font-size: 30px;'><strong>This rock is peridotite</strong></p>","0","corr_feedback","1","train","35","","","","","","","",""
"","","","","","","","","","","","html-button-response","175","2.0.0","279432","633f4f203450d46b01e3d16b","2","27","1714","","","","","","","","","<img src= ""rock_img/I_Diorite_08.jpg"" style=""width:8cm; height:6.37cm;""><p>What type of rock is this?</p>","2","class_response","1","train","36","Diorite","Diorite","08","true","3","3","",""
"","","","","","","","","","","","html-button-response","176","2.0.0","279976","633f4f203450d46b01e3d16b","2","27","544","","","","","","","","","<img src= rock_img/I_Diorite_08.jpg style=""width:8cm; height:6.37cm;""><p style='font-size: 30px; color: green;'><strong>Correct!</strong></p><p style='font-size: 30px;'><strong>This rock is diorite</strong></p>","0","corr_feedback","1","train","36","","","","","","","",""
"","","","","","","","","","","","html-button-response","177","2.0.0","281295","633f4f203450d46b01e3d16b","2","27","1318","","","","","","","","","<img src= ""rock_img/I_Diorite_12.jpg"" style=""width:8cm; height:4.88cm;""><p>What type of rock is this?</p>","2","class_response","1","train","37","Diorite","Diorite","12","true","3","3","",""
"","","","","","","","","","","","html-button-response","178","2.0.0","281765","633f4f203450d46b01e3d16b","2","27","470","","","","","","","","","<img src= rock_img/I_Diorite_12.jpg style=""width:8cm; height:4.88cm;""><p style='font-size: 30px; color: green;'><strong>Correct!</strong></p><p style='font-size: 30px;'><strong>This rock is diorite</strong></p>","0","corr_feedback","1","train","37","","","","","","","",""
"","","","","","","","","","","","html-button-response","179","2.0.0","283677","633f4f203450d46b01e3d16b","2","27","1910","","","","","","","","","<img src= ""rock_img/I_Basalt_10.jpg"" style=""width:8cm; height:5.85cm;""><p>What type of rock is this?</p>","4","class_response","1","train","38","Obsidian","Basalt","10","false","5","2","",""
"","","","","","","","","","","","html-button-response","180","2.0.0","284268","633f4f203450d46b01e3d16b","2","27","590","","","","","","","","","<img src= rock_img/I_Basalt_10.jpg style=""width:8cm; height:5.85cm;""><p style='font-size: 30px; color: red;'><strong>Incorrect!</strong></p><p style='font-size: 30px;'><strong>This rock is basalt</strong></p>","0","corr_feedback","1","train","38","","","","","","","",""
"","","","","","","","","","","","html-button-response","181","2.0.0","285804","633f4f203450d46b01e3d16b","2","27","1535","","","","","","","","","<img src= ""rock_img/I_Andesite_11.jpg"" style=""width:8cm; height:4.92cm;""><p>What type of rock is this?</p>","1","class_response","1","train","39","Basalt","Andesite","11","false","2","1","",""
"","","","","","","","","","","","html-button-response","182","2.0.0","286399","633f4f203450d46b01e3d16b","2","27","593","","","","","","","","","<img src= rock_img/I_Andesite_11.jpg style=""width:8cm; height:4.92cm;""><p style='font-size: 30px; color: red;'><strong>Incorrect!</strong></p><p style='font-size: 30px;'><strong>This rock is andesite</strong></p>","0","corr_feedback","1","train","39","","","","","","","",""
"","","","","","","","","","","","html-button-response","183","2.0.0","287785","633f4f203450d46b01e3d16b","2","27","1386","","","","","","","","","<img src= ""rock_img/I_Pumice_05.jpg"" style=""width:8cm; height:7.25cm;""><p>What type of rock is this?</p>","5","class_response","1","train","40","Pegmatite","Pumice","05","false","6","8","",""
"","","","","","","","","","","","html-button-response","184","2.0.0","288471","633f4f203450d46b01e3d16b","2","27","685","","","","","","","","","<img src= rock_img/I_Pumice_05.jpg style=""width:8cm; height:7.25cm;""><p style='font-size: 30px; color: red;'><strong>Incorrect!</strong></p><p style='font-size: 30px;'><strong>This rock is pumice</strong></p>","0","corr_feedback","1","train","40","","","","","","","",""
"","","","","","","","","","","","html-button-response","185","2.0.0","290429","633f4f203450d46b01e3d16b","2","27","1956","","","","","","","","","<img src= ""rock_img/I_Pegmatite_16.jpg"" style=""width:8cm; height:5.8cm;""><p>What type of rock is this?</p>","3","class_response","1","train","41","Gabbro","Pegmatite","16","false","4","6","",""
"","","","","","","","","","","","html-button-response","186","2.0.0","291035","633f4f203450d46b01e3d16b","2","27","605","","","","","","","","","<img src= rock_img/I_Pegmatite_16.jpg style=""width:8cm; height:5.8cm;""><p style='font-size: 30px; color: red;'><strong>Incorrect!</strong></p><p style='font-size: 30px;'><strong>This rock is pegmatite</strong></p>","0","corr_feedback","1","train","41","","","","","","","",""
"","","","","","","","","","","","html-button-response","187","2.0.0","294500","633f4f203450d46b01e3d16b","2","27","3464","","","","","","","","","<img src= ""rock_img/I_Pumice_10.jpg"" style=""width:8cm; height:7.609999999999999cm;""><p>What type of rock is this?</p>","6","class_response","1","train","42","Peridotite","Pumice","10","false","7","8","",""
"","","","","","","","","","","","html-button-response","188","2.0.0","295072","633f4f203450d46b01e3d16b","2","27","573","","","","","","","","","<img src= rock_img/I_Pumice_10.jpg style=""width:8cm; height:7.609999999999999cm;""><p style='font-size: 30px; color: red;'><strong>Incorrect!</strong></p><p style='font-size: 30px;'><strong>This rock is pumice</strong></p>","0","corr_feedback","1","train","42","","","","","","","",""
"","","","","","","","","","","","html-button-response","189","2.0.0","296887","633f4f203450d46b01e3d16b","2","27","1813","","","","","","","","","<img src= ""rock_img/I_Pegmatite_06.jpg"" style=""width:8cm; height:5.17cm;""><p>What type of rock is this?</p>","2","class_response","1","train","43","Diorite","Pegmatite","06","false","3","6","",""
"","","","","","","","","","","","html-button-response","190","2.0.0","297399","633f4f203450d46b01e3d16b","2","27","511","","","","","","","","","<img src= rock_img/I_Pegmatite_06.jpg style=""width:8cm; height:5.17cm;""><p style='font-size: 30px; color: red;'><strong>Incorrect!</strong></p><p style='font-size: 30px;'><strong>This rock is pegmatite</strong></p>","0","corr_feedback","1","train","43","","","","","","","",""
"","","","","","","","","","","","html-button-response","191","2.0.0","298786","633f4f203450d46b01e3d16b","2","27","1387","","","","","","","","","<img src= ""rock_img/I_Obsidian_06.jpg"" style=""width:8cm; height:6.8cm;""><p>What type of rock is this?</p>","4","class_response","1","train","44","Obsidian","Obsidian","06","true","5","5","",""
"","","","","","","","","","","","html-button-response","192","2.0.0","299409","633f4f203450d46b01e3d16b","2","27","621","","","","","","","","","<img src= rock_img/I_Obsidian_06.jpg style=""width:8cm; height:6.8cm;""><p style='font-size: 30px; color: green;'><strong>Correct!</strong></p><p style='font-size: 30px;'><strong>This rock is obsidian</strong></p>","0","corr_feedback","1","train","44","","","","","","","",""
"","","","","","","","","","","","html-button-response","193","2.0.0","301119","633f4f203450d46b01e3d16b","2","27","1709","","","","","","","","","<img src= ""rock_img/I_Andesite_03.jpg"" style=""width:8cm; height:5.73cm;""><p>What type of rock is this?</p>","5","class_response","1","train","45","Pegmatite","Andesite","03","false","6","1","",""
"","","","","","","","","","","","html-button-response","194","2.0.0","301792","633f4f203450d46b01e3d16b","2","27","672","","","","","","","","","<img src= rock_img/I_Andesite_03.jpg style=""width:8cm; height:5.73cm;""><p style='font-size: 30px; color: red;'><strong>Incorrect!</strong></p><p style='font-size: 30px;'><strong>This rock is andesite</strong></p>","0","corr_feedback","1","train","45","","","","","","","",""
"","","","","","","","","","","","html-button-response","195","2.0.0","303134","633f4f203450d46b01e3d16b","2","27","1341","","","","","","","","","<img src= ""rock_img/I_Gabbro_12.jpg"" style=""width:8cm; height:7.800000000000001cm;""><p>What type of rock is this?</p>","0","class_response","1","train","46","Andesite","Gabbro","12","false","1","4","",""
"","","","","","","","","","","","html-button-response","196","2.0.0","303715","633f4f203450d46b01e3d16b","2","27","580","","","","","","","","","<img src= rock_img/I_Gabbro_12.jpg style=""width:8cm; height:7.800000000000001cm;""><p style='font-size: 30px; color: red;'><strong>Incorrect!</strong></p><p style='font-size: 30px;'><strong>This rock is gabbro</strong></p>","0","corr_feedback","1","train","46","","","","","","","",""
"","","","","","","","","","","","html-button-response","197","2.0.0","305707","633f4f203450d46b01e3d16b","2","27","1990","","","","","","","","","<img src= ""rock_img/I_Pegmatite_13.jpg"" style=""width:8cm; height:4.95cm;""><p>What type of rock is this?</p>","2","class_response","1","train","47","Diorite","Pegmatite","13","false","3","6","",""
"","","","","","","","","","","","html-button-response","198","2.0.0","306244","633f4f203450d46b01e3d16b","2","27","536","","","","","","","","","<img src= rock_img/I_Pegmatite_13.jpg style=""width:8cm; height:4.95cm;""><p style='font-size: 30px; color: red;'><strong>Incorrect!</strong></p><p style='font-size: 30px;'><strong>This rock is pegmatite</strong></p>","0","corr_feedback","1","train","47","","","","","","","",""
"","","","","","","","","","","","html-button-response","199","2.0.0","307755","633f4f203450d46b01e3d16b","2","27","1510","","","","","","","","","<img src= ""rock_img/I_Peridotite_07.jpg"" style=""width:8cm; height:4.83cm;""><p>What type of rock is this?</p>","6","class_response","1","train","48","Peridotite","Peridotite","07","true","7","7","",""
"","","","","","","","","","","","html-button-response","200","2.0.0","308491","633f4f203450d46b01e3d16b","2","27","735","","","","","","","","","<img src= rock_img/I_Peridotite_07.jpg style=""width:8cm; height:4.83cm;""><p style='font-size: 30px; color: green;'><strong>Correct!</strong></p><p style='font-size: 30px;'><strong>This rock is peridotite</strong></p>","0","corr_feedback","1","train","48","","","","","","","",""
"","","","","","","","","","","","instructions","203","2.0.0","331402","633f4f203450d46b01e3d16b","2","27","22910","","","","","","","","[{""page_index"":0,""viewing_time"":5499},{""page_index"":1,""viewing_time"":17411}]","","","","","","","","","","","","","",""
"","","","","","","","","","","","html-button-response","204","2.0.0","332609","633f4f203450d46b01e3d16b","2","27","1206","","","","","","","","","","0","start_test","","","","","","","","","","",""
"","","","","","","","","","","","html-button-response","205","2.0.0","334619","633f4f203450d46b01e3d16b","2","27","2011","","","","","","","","","<img src= ""rock_img/I_Obsidian_14.jpg"" style=""width:8cm; height:7.64cm;""><p>What type of rock is this?</p>","4","class_response","1","test","1","Obsidian","Obsidian","14","true","5","5","",""
"","","","","","","","","","","","html-keyboard-response","206","2.0.0","335122","633f4f203450d46b01e3d16b","2","27","null","","","","","","","","","<p style='font-size: 30px;'><strong>Okay</strong></p>","null","neutral_feedback","1","test","1","","","","","","","",""
"","","","","","","","","","","","html-button-response","207","2.0.0","336878","633f4f203450d46b01e3d16b","2","27","1755","","","","","","","","","<img src= ""rock_img/I_Pegmatite_08.jpg"" style=""width:8cm; height:7.68cm;""><p>What type of rock is this?</p>","1","class_response","1","test","2","Basalt","Pegmatite","08","false","2","6","",""
"","","","","","","","","","","","html-keyboard-response","208","2.0.0","337384","633f4f203450d46b01e3d16b","2","27","null","","","","","","","","","<p style='font-size: 30px;'><strong>Okay</strong></p>","null","neutral_feedback","1","test","2","","","","","","","",""
"","","","","","","","","","","","html-button-response","209","2.0.0","338738","633f4f203450d46b01e3d16b","2","27","1353","","","","","","","","","<img src= ""rock_img/I_Basalt_16.jpg"" style=""width:8cm; height:7.659999999999999cm;""><p>What type of rock is this?</p>","6","class_response","1","test","3","Peridotite","Basalt","16","false","7","2","",""
"","","","","","","","","","","","html-keyboard-response","210","2.0.0","339254","633f4f203450d46b01e3d16b","2","27","null","","","","","","","","","<p style='font-size: 30px;'><strong>Okay</strong></p>","null","neutral_feedback","1","test","3","","","","","","","",""
"","","","","","","","","","","","html-button-response","211","2.0.0","340789","633f4f203450d46b01e3d16b","2","27","1534","","","","","","","","","<img src= ""rock_img/I_Basalt_12.jpg"" style=""width:8cm; height:6.010000000000001cm;""><p>What type of rock is this?</p>","3","class_response","1","test","4","Gabbro","Basalt","12","false","4","2","",""
"","","","","","","","","","","","html-keyboard-response","212","2.0.0","341304","633f4f203450d46b01e3d16b","2","27","null","","","","","","","","","<p style='font-size: 30px;'><strong>Okay</strong></p>","null","neutral_feedback","1","test","4","","","","","","","",""
"","","","","","","","","","","","html-button-response","213","2.0.0","342538","633f4f203450d46b01e3d16b","2","27","1232","","","","","","","","","<img src= ""rock_img/I_Peridotite_05.jpg"" style=""width:8cm; height:7.1499999999999995cm;""><p>What type of rock is this?</p>","3","class_response","1","test","5","Gabbro","Peridotite","05","false","4","7","",""
"","","","","","","","","","","","html-keyboard-response","214","2.0.0","343050","633f4f203450d46b01e3d16b","2","27","null","","","","","","","","","<p style='font-size: 30px;'><strong>Okay</strong></p>","null","neutral_feedback","1","test","5","","","","","","","",""
"","","","","","","","","","","","html-button-response","215","2.0.0","344915","633f4f203450d46b01e3d16b","2","27","1863","","","","","","","","","<img src= ""rock_img/I_Andesite_02.jpg"" style=""width:8cm; height:8.5cm;""><p>What type of rock is this?</p>","5","class_response","1","test","6","Pegmatite","Andesite","02","false","6","1","",""
"","","","","","","","","","","","html-keyboard-response","216","2.0.0","345415","633f4f203450d46b01e3d16b","2","27","null","","","","","","","","","<p style='font-size: 30px;'><strong>Okay</strong></p>","null","neutral_feedback","1","test","6","","","","","","","",""
"","","","","","","","","","","","html-button-response","217","2.0.0","346979","633f4f203450d46b01e3d16b","2","27","1564","","","","","","","","","<img src= ""rock_img/I_Pumice_03.jpg"" style=""width:8cm; height:6.64cm;""><p>What type of rock is this?</p>","7","class_response","1","test","7","Pumice","Pumice","03","true","8","8","",""
"","","","","","","","","","","","html-keyboard-response","218","2.0.0","347481","633f4f203450d46b01e3d16b","2","27","null","","","","","","","","","<p style='font-size: 30px;'><strong>Okay</strong></p>","null","neutral_feedback","1","test","7","","","","","","","",""
"","","","","","","","","","","","html-button-response","219","2.0.0","348775","633f4f203450d46b01e3d16b","2","27","1293","","","","","","","","","<img src= ""rock_img/I_Andesite_01.jpg"" style=""width:8cm; height:5.87cm;""><p>What type of rock is this?</p>","6","class_response","1","test","8","Peridotite","Andesite","01","false","7","1","",""
"","","","","","","","","","","","html-keyboard-response","220","2.0.0","349287","633f4f203450d46b01e3d16b","2","27","null","","","","","","","","","<p style='font-size: 30px;'><strong>Okay</strong></p>","null","neutral_feedback","1","test","8","","","","","","","",""
"","","","","","","","","","","","html-button-response","221","2.0.0","350407","633f4f203450d46b01e3d16b","2","27","1119","","","","","","","","","<img src= ""rock_img/I_Diorite_16.jpg"" style=""width:8cm; height:6.74cm;""><p>What type of rock is this?</p>","2","class_response","1","test","9","Diorite","Diorite","16","true","3","3","",""
"","","","","","","","","","","","html-keyboard-response","222","2.0.0","350919","633f4f203450d46b01e3d16b","2","27","null","","","","","","","","","<p style='font-size: 30px;'><strong>Okay</strong></p>","null","neutral_feedback","1","test","9","","","","","","","",""
"","","","","","","","","","","","html-button-response","223","2.0.0","352258","633f4f203450d46b01e3d16b","2","27","1338","","","","","","","","","<img src= ""rock_img/I_Pumice_08.jpg"" style=""width:8cm; height:6.67cm;""><p>What type of rock is this?</p>","0","class_response","1","test","10","Andesite","Pumice","08","false","1","8","",""
"","","","","","","","","","","","html-keyboard-response","224","2.0.0","352761","633f4f203450d46b01e3d16b","2","27","null","","","","","","","","","<p style='font-size: 30px;'><strong>Okay</strong></p>","null","neutral_feedback","1","test","10","","","","","","","",""
"","","","","","","","","","","","html-button-response","225","2.0.0","355083","633f4f203450d46b01e3d16b","2","27","2322","","","","","","","","","<img src= ""rock_img/I_Pegmatite_11.jpg"" style=""width:8cm; height:8.14cm;""><p>What type of rock is this?</p>","5","class_response","1","test","11","Pegmatite","Pegmatite","11","true","6","6","",""
"","","","","","","","","","","","html-keyboard-response","226","2.0.0","355595","633f4f203450d46b01e3d16b","2","27","null","","","","","","","","","<p style='font-size: 30px;'><strong>Okay</strong></p>","null","neutral_feedback","1","test","11","","","","","","","",""
"","","","","","","","","","","","html-button-response","227","2.0.0","357204","633f4f203450d46b01e3d16b","2","27","1608","","","","","","","","","<img src= ""rock_img/I_Gabbro_08.jpg"" style=""width:8cm; height:5.15cm;""><p>What type of rock is this?</p>","7","class_response","1","test","12","Pumice","Gabbro","08","false","8","4","",""
"","","","","","","","","","","","html-keyboard-response","228","2.0.0","357755","633f4f203450d46b01e3d16b","2","27","null","","","","","","","","","<p style='font-size: 30px;'><strong>Okay</strong></p>","null","neutral_feedback","1","test","12","","","","","","","",""
"","","","","","","","","","","","html-button-response","229","2.0.0","359249","633f4f203450d46b01e3d16b","2","27","1492","","","","","","","","","<img src= ""rock_img/I_Andesite_04.jpg"" style=""width:8cm; height:5.96cm;""><p>What type of rock is this?</p>","1","class_response","1","test","13","Basalt","Andesite","04","false","2","1","",""
"","","","","","","","","","","","html-keyboard-response","230","2.0.0","359759","633f4f203450d46b01e3d16b","2","27","null","","","","","","","","","<p style='font-size: 30px;'><strong>Okay</strong></p>","null","neutral_feedback","1","test","13","","","","","","","",""
"","","","","","","","","","","","html-button-response","231","2.0.0","360643","633f4f203450d46b01e3d16b","2","27","883","","","","","","","","","<img src= ""rock_img/I_Gabbro_11.jpg"" style=""width:8cm; height:6.2cm;""><p>What type of rock is this?</p>","1","class_response","1","test","14","Basalt","Gabbro","11","false","2","4","",""
"","","","","","","","","","","","html-keyboard-response","232","2.0.0","361148","633f4f203450d46b01e3d16b","2","27","null","","","","","","","","","<p style='font-size: 30px;'><strong>Okay</strong></p>","null","neutral_feedback","1","test","14","","","","","","","",""
"","","","","","","","","","","","html-button-response","233","2.0.0","362221","633f4f203450d46b01e3d16b","2","27","1073","","","","","","","","","<img src= ""rock_img/I_Diorite_14.jpg"" style=""width:8cm; height:5.71cm;""><p>What type of rock is this?</p>","2","class_response","1","test","15","Diorite","Diorite","14","true","3","3","",""
"","","","","","","","","","","","html-keyboard-response","234","2.0.0","362733","633f4f203450d46b01e3d16b","2","27","null","","","","","","","","","<p style='font-size: 30px;'><strong>Okay</strong></p>","null","neutral_feedback","1","test","15","","","","","","","",""
"","","","","","","","","","","","html-button-response","235","2.0.0","365263","633f4f203450d46b01e3d16b","2","27","2529","","","","","","","","","<img src= ""rock_img/I_Peridotite_15.jpg"" style=""width:8cm; height:6cm;""><p>What type of rock is this?</p>","3","class_response","1","test","16","Gabbro","Peridotite","15","false","4","7","",""
"","","","","","","","","","","","html-keyboard-response","236","2.0.0","365776","633f4f203450d46b01e3d16b","2","27","null","","","","","","","","","<p style='font-size: 30px;'><strong>Okay</strong></p>","null","neutral_feedback","1","test","16","","","","","","","",""
"","","","","","","","","","","","html-button-response","237","2.0.0","366723","633f4f203450d46b01e3d16b","2","27","944","","","","","","","","","<img src= ""rock_img/I_Peridotite_06.jpg"" style=""width:8cm; height:7.53cm;""><p>What type of rock is this?</p>","3","class_response","1","test","17","Gabbro","Peridotite","06","false","4","7","",""
"","","","","","","","","","","","html-keyboard-response","238","2.0.0","367226","633f4f203450d46b01e3d16b","2","27","null","","","","","","","","","<p style='font-size: 30px;'><strong>Okay</strong></p>","null","neutral_feedback","1","test","17","","","","","","","",""
"","","","","","","","","","","","html-button-response","239","2.0.0","368572","633f4f203450d46b01e3d16b","2","27","1346","","","","","","","","","<img src= ""rock_img/I_Gabbro_15.jpg"" style=""width:8cm; height:6.29cm;""><p>What type of rock is this?</p>","2","class_response","1","test","18","Diorite","Gabbro","15","false","3","4","",""
"","","","","","","","","","","","html-keyboard-response","240","2.0.0","369081","633f4f203450d46b01e3d16b","2","27","null","","","","","","","","","<p style='font-size: 30px;'><strong>Okay</strong></p>","null","neutral_feedback","1","test","18","","","","","","","",""
"","","","","","","","","","","","html-button-response","241","2.0.0","370463","633f4f203450d46b01e3d16b","2","27","1383","","","","","","","","","<img src= ""rock_img/I_Obsidian_02.jpg"" style=""width:8cm; height:7.51cm;""><p>What type of rock is this?</p>","4","class_response","1","test","19","Obsidian","Obsidian","02","true","5","5","",""
"","","","","","","","","","","","html-keyboard-response","242","2.0.0","370971","633f4f203450d46b01e3d16b","2","27","null","","","","","","","","","<p style='font-size: 30px;'><strong>Okay</strong></p>","null","neutral_feedback","1","test","19","","","","","","","",""
"","","","","","","","","","","","html-button-response","243","2.0.0","372197","633f4f203450d46b01e3d16b","2","27","1225","","","","","","","","","<img src= ""rock_img/I_Pegmatite_03.jpg"" style=""width:8cm; height:5.239999999999999cm;""><p>What type of rock is this?</p>","5","class_response","1","test","20","Pegmatite","Pegmatite","03","true","6","6","",""
"","","","","","","","","","","","html-keyboard-response","244","2.0.0","372705","633f4f203450d46b01e3d16b","2","27","null","","","","","","","","","<p style='font-size: 30px;'><strong>Okay</strong></p>","null","neutral_feedback","1","test","20","","","","","","","",""
"","","","","","","","","","","","html-button-response","245","2.0.0","374693","633f4f203450d46b01e3d16b","2","27","1988","","","","","","","","","<img src= ""rock_img/I_Pegmatite_05.jpg"" style=""width:8cm; height:7.300000000000001cm;""><p>What type of rock is this?</p>","5","class_response","1","test","21","Pegmatite","Pegmatite","05","true","6","6","",""
"","","","","","","","","","","","html-keyboard-response","246","2.0.0","375199","633f4f203450d46b01e3d16b","2","27","null","","","","","","","","","<p style='font-size: 30px;'><strong>Okay</strong></p>","null","neutral_feedback","1","test","21","","","","","","","",""
"","","","","","","","","","","","html-button-response","247","2.0.0","376457","633f4f203450d46b01e3d16b","2","27","1257","","","","","","","","","<img src= ""rock_img/I_Obsidian_12.jpg"" style=""width:8cm; height:6.53cm;""><p>What type of rock is this?</p>","4","class_response","1","test","22","Obsidian","Obsidian","12","true","5","5","",""
"","","","","","","","","","","","html-keyboard-response","248","2.0.0","376973","633f4f203450d46b01e3d16b","2","27","null","","","","","","","","","<p style='font-size: 30px;'><strong>Okay</strong></p>","null","neutral_feedback","1","test","22","","","","","","","",""
"","","","","","","","","","","","html-button-response","249","2.0.0","378073","633f4f203450d46b01e3d16b","2","27","1099","","","","","","","","","<img src= ""rock_img/I_Basalt_01.jpg"" style=""width:8cm; height:7.880000000000001cm;""><p>What type of rock is this?</p>","0","class_response","1","test","23","Andesite","Basalt","01","false","1","2","",""
"","","","","","","","","","","","html-keyboard-response","250","2.0.0","378577","633f4f203450d46b01e3d16b","2","27","null","","","","","","","","","<p style='font-size: 30px;'><strong>Okay</strong></p>","null","neutral_feedback","1","test","23","","","","","","","",""
"","","","","","","","","","","","html-button-response","251","2.0.0","379885","633f4f203450d46b01e3d16b","2","27","1308","","","","","","","","","<img src= ""rock_img/I_Peridotite_02.jpg"" style=""width:8cm; height:5.859999999999999cm;""><p>What type of rock is this?</p>","1","class_response","1","test","24","Basalt","Peridotite","02","false","2","7","",""
"","","","","","","","","","","","html-keyboard-response","252","2.0.0","380395","633f4f203450d46b01e3d16b","2","27","null","","","","","","","","","<p style='font-size: 30px;'><strong>Okay</strong></p>","null","neutral_feedback","1","test","24","","","","","","","",""
"","","","","","","","","","","","html-button-response","253","2.0.0","383326","633f4f203450d46b01e3d16b","2","27","2929","","","","","","","","","<img src= ""rock_img/I_Peridotite_12.jpg"" style=""width:8cm; height:4.54cm;""><p>What type of rock is this?</p>","1","class_response","1","test","25","Basalt","Peridotite","12","false","2","7","",""
"","","","","","","","","","","","html-keyboard-response","254","2.0.0","383834","633f4f203450d46b01e3d16b","2","27","null","","","","","","","","","<p style='font-size: 30px;'><strong>Okay</strong></p>","null","neutral_feedback","1","test","25","","","","","","","",""
"","","","","","","","","","","","html-button-response","255","2.0.0","386511","633f4f203450d46b01e3d16b","2","27","2677","","","","","","","","","<img src= ""rock_img/I_Pegmatite_09.jpg"" style=""width:8cm; height:4.03cm;""><p>What type of rock is this?</p>","5","class_response","1","test","26","Pegmatite","Pegmatite","09","true","6","6","",""
"","","","","","","","","","","","html-keyboard-response","256","2.0.0","387027","633f4f203450d46b01e3d16b","2","27","null","","","","","","","","","<p style='font-size: 30px;'><strong>Okay</strong></p>","null","neutral_feedback","1","test","26","","","","","","","",""
"","","","","","","","","","","","html-button-response","257","2.0.0","388189","633f4f203450d46b01e3d16b","2","27","1161","","","","","","","","","<img src= ""rock_img/I_Obsidian_16.jpg"" style=""width:8cm; height:9.3cm;""><p>What type of rock is this?</p>","4","class_response","1","test","27","Obsidian","Obsidian","16","true","5","5","",""
"","","","","","","","","","","","html-keyboard-response","258","2.0.0","388695","633f4f203450d46b01e3d16b","2","27","null","","","","","","","","","<p style='font-size: 30px;'><strong>Okay</strong></p>","null","neutral_feedback","1","test","27","","","","","","","",""
"","","","","","","","","","","","html-button-response","259","2.0.0","389925","633f4f203450d46b01e3d16b","2","27","1229","","","","","","","","","<img src= ""rock_img/I_Gabbro_13.jpg"" style=""width:8cm; height:5.08cm;""><p>What type of rock is this?</p>","6","class_response","1","test","28","Peridotite","Gabbro","13","false","7","4","",""
"","","","","","","","","","","","html-keyboard-response","260","2.0.0","390436","633f4f203450d46b01e3d16b","2","27","null","","","","","","","","","<p style='font-size: 30px;'><strong>Okay</strong></p>","null","neutral_feedback","1","test","28","","","","","","","",""
"","","","","","","","","","","","html-button-response","261","2.0.0","392222","633f4f203450d46b01e3d16b","2","27","1785","","","","","","","","","<img src= ""rock_img/I_Diorite_15.jpg"" style=""width:8cm; height:5.54cm;""><p>What type of rock is this?</p>","2","class_response","1","test","29","Diorite","Diorite","15","true","3","3","",""
"","","","","","","","","","","","html-keyboard-response","262","2.0.0","392736","633f4f203450d46b01e3d16b","2","27","null","","","","","","","","","<p style='font-size: 30px;'><strong>Okay</strong></p>","null","neutral_feedback","1","test","29","","","","","","","",""
"","","","","","","","","","","","html-button-response","263","2.0.0","393475","633f4f203450d46b01e3d16b","2","27","737","","","","","","","","","<img src= ""rock_img/I_Diorite_11.jpg"" style=""width:8cm; height:7.11cm;""><p>What type of rock is this?</p>","2","class_response","1","test","30","Diorite","Diorite","11","true","3","3","",""
"","","","","","","","","","","","html-keyboard-response","264","2.0.0","393985","633f4f203450d46b01e3d16b","2","27","null","","","","","","","","","<p style='font-size: 30px;'><strong>Okay</strong></p>","null","neutral_feedback","1","test","30","","","","","","","",""
"","","","","","","","","","","","html-button-response","265","2.0.0","395377","633f4f203450d46b01e3d16b","2","27","1391","","","","","","","","","<img src= ""rock_img/I_Obsidian_11.jpg"" style=""width:8cm; height:6.05cm;""><p>What type of rock is this?</p>","4","class_response","1","test","31","Obsidian","Obsidian","11","true","5","5","",""
"","","","","","","","","","","","html-keyboard-response","266","2.0.0","395890","633f4f203450d46b01e3d16b","2","27","null","","","","","","","","","<p style='font-size: 30px;'><strong>Okay</strong></p>","null","neutral_feedback","1","test","31","","","","","","","",""
"","","","","","","","","","","","html-button-response","267","2.0.0","397009","633f4f203450d46b01e3d16b","2","27","1118","","","","","","","","","<img src= ""rock_img/I_Andesite_10.jpg"" style=""width:8cm; height:4.16cm;""><p>What type of rock is this?</p>","5","class_response","1","test","32","Pegmatite","Andesite","10","false","6","1","",""
"","","","","","","","","","","","html-keyboard-response","268","2.0.0","397518","633f4f203450d46b01e3d16b","2","27","null","","","","","","","","","<p style='font-size: 30px;'><strong>Okay</strong></p>","null","neutral_feedback","1","test","32","","","","","","","",""
"","","","","","","","","","","","html-button-response","269","2.0.0","398600","633f4f203450d46b01e3d16b","2","27","1080","","","","","","","","","<img src= ""rock_img/I_Diorite_02.jpg"" style=""width:8cm; height:6.27cm;""><p>What type of rock is this?</p>","2","class_response","1","test","33","Diorite","Diorite","02","true","3","3","",""
"","","","","","","","","","","","html-keyboard-response","270","2.0.0","399115","633f4f203450d46b01e3d16b","2","27","null","","","","","","","","","<p style='font-size: 30px;'><strong>Okay</strong></p>","null","neutral_feedback","1","test","33","","","","","","","",""
"","","","","","","","","","","","html-button-response","271","2.0.0","400483","633f4f203450d46b01e3d16b","2","27","1369","","","","","","","","","<img src= ""rock_img/I_Basalt_06.jpg"" style=""width:8cm; height:7.06cm;""><p>What type of rock is this?</p>","5","class_response","1","test","34","Pegmatite","Basalt","06","false","6","2","",""
"","","","","","","","","","","","html-keyboard-response","272","2.0.0","400987","633f4f203450d46b01e3d16b","2","27","null","","","","","","","","","<p style='font-size: 30px;'><strong>Okay</strong></p>","null","neutral_feedback","1","test","34","","","","","","","",""
"","","","","","","","","","","","html-button-response","273","2.0.0","402627","633f4f203450d46b01e3d16b","2","27","1639","","","","","","","","","<img src= ""rock_img/I_Andesite_16.jpg"" style=""width:8cm; height:6.010000000000001cm;""><p>What type of rock is this?</p>","1","class_response","1","test","35","Basalt","Andesite","16","false","2","1","",""
"","","","","","","","","","","","html-keyboard-response","274","2.0.0","403129","633f4f203450d46b01e3d16b","2","27","null","","","","","","","","","<p style='font-size: 30px;'><strong>Okay</strong></p>","null","neutral_feedback","1","test","35","","","","","","","",""
"","","","","","","","","","","","html-button-response","275","2.0.0","404475","633f4f203450d46b01e3d16b","2","27","1344","","","","","","","","","<img src= ""rock_img/I_Gabbro_03.jpg"" style=""width:8cm; height:8.52cm;""><p>What type of rock is this?</p>","2","class_response","1","test","36","Diorite","Gabbro","03","false","3","4","",""
"","","","","","","","","","","","html-keyboard-response","276","2.0.0","404977","633f4f203450d46b01e3d16b","2","27","null","","","","","","","","","<p style='font-size: 30px;'><strong>Okay</strong></p>","null","neutral_feedback","1","test","36","","","","","","","",""
"","","","","","","","","","","","html-button-response","277","2.0.0","406016","633f4f203450d46b01e3d16b","2","27","1040","","","","","","","","","<img src= ""rock_img/I_Pumice_15.jpg"" style=""width:8cm; height:7.86cm;""><p>What type of rock is this?</p>","7","class_response","1","test","37","Pumice","Pumice","15","true","8","8","",""
"","","","","","","","","","","","html-keyboard-response","278","2.0.0","406523","633f4f203450d46b01e3d16b","2","27","null","","","","","","","","","<p style='font-size: 30px;'><strong>Okay</strong></p>","null","neutral_feedback","1","test","37","","","","","","","",""
"","","","","","","","","","","","html-button-response","279","2.0.0","407664","633f4f203450d46b01e3d16b","2","27","1140","","","","","","","","","<img src= ""rock_img/I_Obsidian_05.jpg"" style=""width:8cm; height:6.33cm;""><p>What type of rock is this?</p>","4","class_response","1","test","38","Obsidian","Obsidian","05","true","5","5","",""
"","","","","","","","","","","","html-keyboard-response","280","2.0.0","408176","633f4f203450d46b01e3d16b","2","27","null","","","","","","","","","<p style='font-size: 30px;'><strong>Okay</strong></p>","null","neutral_feedback","1","test","38","","","","","","","",""
"","","","","","","","","","","","html-button-response","281","2.0.0","409497","633f4f203450d46b01e3d16b","2","27","1320","","","","","","","","","<img src= ""rock_img/I_Basalt_02.jpg"" style=""width:8cm; height:6.45cm;""><p>What type of rock is this?</p>","0","class_response","1","test","39","Andesite","Basalt","02","false","1","2","",""
"","","","","","","","","","","","html-keyboard-response","282","2.0.0","410011","633f4f203450d46b01e3d16b","2","27","null","","","","","","","","","<p style='font-size: 30px;'><strong>Okay</strong></p>","null","neutral_feedback","1","test","39","","","","","","","",""
"","","","","","","","","","","","html-button-response","283","2.0.0","411112","633f4f203450d46b01e3d16b","2","27","1101","","","","","","","","","<img src= ""rock_img/I_Gabbro_10.jpg"" style=""width:8cm; height:5.680000000000001cm;""><p>What type of rock is this?</p>","5","class_response","1","test","40","Pegmatite","Gabbro","10","false","6","4","",""
"","","","","","","","","","","","html-keyboard-response","284","2.0.0","411624","633f4f203450d46b01e3d16b","2","27","null","","","","","","","","","<p style='font-size: 30px;'><strong>Okay</strong></p>","null","neutral_feedback","1","test","40","","","","","","","",""
"","","","","","","","","","","","html-button-response","285","2.0.0","412919","633f4f203450d46b01e3d16b","2","27","1294","","","","","","","","","<img src= ""rock_img/I_Peridotite_08.jpg"" style=""width:8cm; height:6.7cm;""><p>What type of rock is this?</p>","1","class_response","1","test","41","Basalt","Peridotite","08","false","2","7","",""
"","","","","","","","","","","","html-keyboard-response","286","2.0.0","413430","633f4f203450d46b01e3d16b","2","27","null","","","","","","","","","<p style='font-size: 30px;'><strong>Okay</strong></p>","null","neutral_feedback","1","test","41","","","","","","","",""
"","","","","","","","","","","","html-button-response","287","2.0.0","415175","633f4f203450d46b01e3d16b","2","27","1743","","","","","","","","","<img src= ""rock_img/I_Pumice_09.jpg"" style=""width:8cm; height:6.44cm;""><p>What type of rock is this?</p>","7","class_response","1","test","42","Pumice","Pumice","09","true","8","8","",""
"","","","","","","","","","","","html-keyboard-response","288","2.0.0","415682","633f4f203450d46b01e3d16b","2","27","null","","","","","","","","","<p style='font-size: 30px;'><strong>Okay</strong></p>","null","neutral_feedback","1","test","42","","","","","","","",""
"","","","","","","","","","","","html-button-response","289","2.0.0","416771","633f4f203450d46b01e3d16b","2","27","1087","","","","","","","","","<img src= ""rock_img/I_Diorite_10.jpg"" style=""width:8cm; height:5.949999999999999cm;""><p>What type of rock is this?</p>","2","class_response","1","test","43","Diorite","Diorite","10","true","3","3","",""
"","","","","","","","","","","","html-keyboard-response","290","2.0.0","417278","633f4f203450d46b01e3d16b","2","27","null","","","","","","","","","<p style='font-size: 30px;'><strong>Okay</strong></p>","null","neutral_feedback","1","test","43","","","","","","","",""
"","","","","","","","","","","","html-button-response","291","2.0.0","418486","633f4f203450d46b01e3d16b","2","27","1207","","","","","","","","","<img src= ""rock_img/I_Pumice_16.jpg"" style=""width:8cm; height:6.79cm;""><p>What type of rock is this?</p>","7","class_response","1","test","44","Pumice","Pumice","16","true","8","8","",""
"","","","","","","","","","","","html-keyboard-response","292","2.0.0","418990","633f4f203450d46b01e3d16b","2","27","null","","","","","","","","","<p style='font-size: 30px;'><strong>Okay</strong></p>","null","neutral_feedback","1","test","44","","","","","","","",""
"","","","","","","","","","","","html-button-response","293","2.0.0","420361","633f4f203450d46b01e3d16b","2","27","1370","","","","","","","","","<img src= ""rock_img/I_Pumice_13.jpg"" style=""width:8cm; height:8.200000000000001cm;""><p>What type of rock is this?</p>","3","class_response","1","test","45","Gabbro","Pumice","13","false","4","8","",""
"","","","","","","","","","","","html-keyboard-response","294","2.0.0","420873","633f4f203450d46b01e3d16b","2","27","null","","","","","","","","","<p style='font-size: 30px;'><strong>Okay</strong></p>","null","neutral_feedback","1","test","45","","","","","","","",""
"","","","","","","","","","","","html-button-response","295","2.0.0","421943","633f4f203450d46b01e3d16b","2","27","1069","","","","","","","","","<img src= ""rock_img/I_Andesite_06.jpg"" style=""width:8cm; height:6.840000000000001cm;""><p>What type of rock is this?</p>","6","class_response","1","test","46","Peridotite","Andesite","06","false","7","1","",""
"","","","","","","","","","","","html-keyboard-response","296","2.0.0","422498","633f4f203450d46b01e3d16b","2","27","null","","","","","","","","","<p style='font-size: 30px;'><strong>Okay</strong></p>","null","neutral_feedback","1","test","46","","","","","","","",""
"","","","","","","","","","","","html-button-response","297","2.0.0","423321","633f4f203450d46b01e3d16b","2","27","822","","","","","","","","","<img src= ""rock_img/I_Basalt_09.jpg"" style=""width:8cm; height:6.2cm;""><p>What type of rock is this?</p>","6","class_response","1","test","47","Peridotite","Basalt","09","false","7","2","",""
"","","","","","","","","","","","html-keyboard-response","298","2.0.0","423827","633f4f203450d46b01e3d16b","2","27","null","","","","","","","","","<p style='font-size: 30px;'><strong>Okay</strong></p>","null","neutral_feedback","1","test","47","","","","","","","",""
"","","","","","","","","","","","html-button-response","299","2.0.0","425214","633f4f203450d46b01e3d16b","2","27","1386","","","","","","","","","<img src= ""rock_img/I_Pegmatite_07.jpg"" style=""width:8cm; height:6.7cm;""><p>What type of rock is this?</p>","1","class_response","1","test","48","Basalt","Pegmatite","07","false","2","6","",""
"","","","","","","","","","","","html-keyboard-response","300","2.0.0","425727","633f4f203450d46b01e3d16b","2","27","null","","","","","","","","","<p style='font-size: 30px;'><strong>Okay</strong></p>","null","neutral_feedback","1","test","48","","","","","","","",""
"","","","","","","","","","","","html-button-response","301","2.0.0","480750","633f4f203450d46b01e3d16b","2","27","","","","","","","","","","","","cycle_feedback","","","","","","","","","","5401","49619"
"","","","","","","","","","","","html-button-response","303","2.0.0","481852","633f4f203450d46b01e3d16b","2","27","1102","","","","","","","","","","0","start_train","","","","","","","","","","",""
"","","","","","","","","","","","html-button-response","304","2.0.0","483523","633f4f203450d46b01e3d16b","2","27","1669","","","","","","","","","<img src= ""rock_img/I_Andesite_09.jpg"" style=""width:8cm; height:6cm;""><p>What type of rock is this?</p>","1","class_response","2","train","1","Basalt","Andesite","09","false","2","1","",""
