"width","height","webaudio","browser","browser_version","mobile","os","fullscreen","vsync_rate","webcam","microphone","trial_type","trial_index","plugin_version","time_elapsed","subjID","condition","stimID","rt","url","success","value","timeout","failed_images","failed_audio","failed_video","view_history","stimulus","response","trialType","cycle","phase","trial","resp","cat","token","corr","resp_num","cat_num","time_fb1","time_fb2"
"1912","962","true","edge-chromium","131.0.0","false","Windows 10","true","60.77","false","true","browser-check","0","2.0.0","997","67177dc558c22e03d6799712","2","11","","","","","","","","","","","","","","","","","","","","","","",""
"","","","","","","","","","","","external-html","1","2.0.0","53896","67177dc558c22e03d6799712","2","11","52827","consent_form.html","","","","","","","","","","","","","","","","","","","","",""
"","","","","","","","","","","","fullscreen","2","2.0.0","57727","67177dc558c22e03d6799712","2","11","2815","","true","","","","","","","","","","","","","","","","","","","",""
"","","","","","","","","","","","call-function","3","2.0.0","57728","67177dc558c22e03d6799712","2","11","","","","{}","","","","","","","","","","","","","","","","","","",""
"","","","","","","","","","","","preload","4","2.0.0","63488","67177dc558c22e03d6799712","2","11","","","true","","false","[]","[]","[]","","","","","","","","","","","","","","",""
"","","","","","","","","","","","instructions","5","2.0.0","108166","67177dc558c22e03d6799712","2","11","44678","","","","","","","","[{""page_index"":0,""viewing_time"":7705},{""page_index"":1,""viewing_time"":22539},{""page_index"":2,""viewing_time"":14434}]","","","","","","","","","","","","","",""
"","","","","","","","","","","","html-button-response","6","2.0.0","111935","67177dc558c22e03d6799712","2","11","3767","","","","","","","","","","0","start_test","","","","","","","","","","",""
"","","","","","","","","","","","html-button-response","7","2.0.0","120656","67177dc558c22e03d6799712","2","11","8720","","","","","","","","","<img src= ""rock_img/I_Basalt_09.jpg"" style=""width:8cm; height:6.2cm;""><p>What type of rock is this?</p>","1","class_response","0","test","1","Basalt","Basalt","09","true","2","2","",""
"","","","","","","","","","","","html-keyboard-response","8","2.0.0","121158","67177dc558c22e03d6799712","2","11","null","","","","","","","","","<p style='font-size: 30px;'><strong>Okay</strong></p>","null","neutral_feedback","0","test","1","","","","","","","",""
"","","","","","","","","","","","html-button-response","9","2.0.0","128977","67177dc558c22e03d6799712","2","11","7817","","","","","","","","","<img src= ""rock_img/I_Pumice_15.jpg"" style=""width:8cm; height:7.86cm;""><p>What type of rock is this?</p>","7","class_response","0","test","2","Pumice","Pumice","15","true","8","8","",""
"","","","","","","","","","","","html-keyboard-response","10","2.0.0","129478","67177dc558c22e03d6799712","2","11","null","","","","","","","","","<p style='font-size: 30px;'><strong>Okay</strong></p>","null","neutral_feedback","0","test","2","","","","","","","",""
"","","","","","","","","","","","html-button-response","11","2.0.0","136401","67177dc558c22e03d6799712","2","11","6923","","","","","","","","","<img src= ""rock_img/I_Andesite_04.jpg"" style=""width:8cm; height:5.96cm;""><p>What type of rock is this?</p>","0","class_response","0","test","3","Andesite","Andesite","04","true","1","1","",""
"","","","","","","","","","","","html-keyboard-response","12","2.0.0","136911","67177dc558c22e03d6799712","2","11","null","","","","","","","","","<p style='font-size: 30px;'><strong>Okay</strong></p>","null","neutral_feedback","0","test","3","","","","","","","",""
"","","","","","","","","","","","html-button-response","13","2.0.0","142186","67177dc558c22e03d6799712","2","11","5275","","","","","","","","","<img src= ""rock_img/I_Diorite_06.jpg"" style=""width:8cm; height:6.03cm;""><p>What type of rock is this?</p>","4","class_response","0","test","4","Obsidian","Diorite","06","false","5","3","",""
"","","","","","","","","","","","html-keyboard-response","14","2.0.0","142688","67177dc558c22e03d6799712","2","11","null","","","","","","","","","<p style='font-size: 30px;'><strong>Okay</strong></p>","null","neutral_feedback","0","test","4","","","","","","","",""
"","","","","","","","","","","","html-button-response","15","2.0.0","144138","67177dc558c22e03d6799712","2","11","1450","","","","","","","","","<img src= ""rock_img/I_Gabbro_03.jpg"" style=""width:8cm; height:8.52cm;""><p>What type of rock is this?</p>","4","class_response","0","test","5","Obsidian","Gabbro","03","false","5","4","",""
"","","","","","","","","","","","html-keyboard-response","16","2.0.0","144640","67177dc558c22e03d6799712","2","11","null","","","","","","","","","<p style='font-size: 30px;'><strong>Okay</strong></p>","null","neutral_feedback","0","test","5","","","","","","","",""
"","","","","","","","","","","","html-button-response","17","2.0.0","147347","67177dc558c22e03d6799712","2","11","2706","","","","","","","","","<img src= ""rock_img/I_Gabbro_16.jpg"" style=""width:8cm; height:6.44cm;""><p>What type of rock is this?</p>","5","class_response","0","test","6","Pegmatite","Gabbro","16","false","6","4","",""
"","","","","","","","","","","","html-keyboard-response","18","2.0.0","147850","67177dc558c22e03d6799712","2","11","null","","","","","","","","","<p style='font-size: 30px;'><strong>Okay</strong></p>","null","neutral_feedback","0","test","6","","","","","","","",""
"","","","","","","","","","","","html-button-response","19","2.0.0","150275","67177dc558c22e03d6799712","2","11","2424","","","","","","","","","<img src= ""rock_img/I_Pumice_10.jpg"" style=""width:8cm; height:7.609999999999999cm;""><p>What type of rock is this?</p>","7","class_response","0","test","7","Pumice","Pumice","10","true","8","8","",""
"","","","","","","","","","","","html-keyboard-response","20","2.0.0","150777","67177dc558c22e03d6799712","2","11","null","","","","","","","","","<p style='font-size: 30px;'><strong>Okay</strong></p>","null","neutral_feedback","0","test","7","","","","","","","",""
"","","","","","","","","","","","html-button-response","21","2.0.0","155124","67177dc558c22e03d6799712","2","11","4346","","","","","","","","","<img src= ""rock_img/I_Basalt_08.jpg"" style=""width:8cm; height:10.44cm;""><p>What type of rock is this?</p>","5","class_response","0","test","8","Pegmatite","Basalt","08","false","6","2","",""
"","","","","","","","","","","","html-keyboard-response","22","2.0.0","155630","67177dc558c22e03d6799712","2","11","null","","","","","","","","","<p style='font-size: 30px;'><strong>Okay</strong></p>","null","neutral_feedback","0","test","8","","","","","","","",""
"","","","","","","","","","","","html-button-response","23","2.0.0","157852","67177dc558c22e03d6799712","2","11","2221","","","","","","","","","<img src= ""rock_img/I_Peridotite_10.jpg"" style=""width:8cm; height:5.390000000000001cm;""><p>What type of rock is this?</p>","7","class_response","0","test","9","Pumice","Peridotite","10","false","8","7","",""
"","","","","","","","","","","","html-keyboard-response","24","2.0.0","158354","67177dc558c22e03d6799712","2","11","null","","","","","","","","","<p style='font-size: 30px;'><strong>Okay</strong></p>","null","neutral_feedback","0","test","9","","","","","","","",""
"","","","","","","","","","","","html-button-response","25","2.0.0","160172","67177dc558c22e03d6799712","2","11","1817","","","","","","","","","<img src= ""rock_img/I_Peridotite_07.jpg"" style=""width:8cm; height:4.83cm;""><p>What type of rock is this?</p>","7","class_response","0","test","10","Pumice","Peridotite","07","false","8","7","",""
"","","","","","","","","","","","html-keyboard-response","26","2.0.0","160682","67177dc558c22e03d6799712","2","11","null","","","","","","","","","<p style='font-size: 30px;'><strong>Okay</strong></p>","null","neutral_feedback","0","test","10","","","","","","","",""
"","","","","","","","","","","","html-button-response","27","2.0.0","164309","67177dc558c22e03d6799712","2","11","3626","","","","","","","","","<img src= ""rock_img/I_Gabbro_13.jpg"" style=""width:8cm; height:5.08cm;""><p>What type of rock is this?</p>","3","class_response","0","test","11","Gabbro","Gabbro","13","true","4","4","",""
"","","","","","","","","","","","html-keyboard-response","28","2.0.0","164812","67177dc558c22e03d6799712","2","11","null","","","","","","","","","<p style='font-size: 30px;'><strong>Okay</strong></p>","null","neutral_feedback","0","test","11","","","","","","","",""
"","","","","","","","","","","","html-button-response","29","2.0.0","170069","67177dc558c22e03d6799712","2","11","5256","","","","","","","","","<img src= ""rock_img/I_Peridotite_13.jpg"" style=""width:8cm; height:7.58cm;""><p>What type of rock is this?</p>","1","class_response","0","test","12","Basalt","Peridotite","13","false","2","7","",""
"","","","","","","","","","","","html-keyboard-response","30","2.0.0","170576","67177dc558c22e03d6799712","2","11","null","","","","","","","","","<p style='font-size: 30px;'><strong>Okay</strong></p>","null","neutral_feedback","0","test","12","","","","","","","",""
"","","","","","","","","","","","html-button-response","31","2.0.0","175198","67177dc558c22e03d6799712","2","11","4622","","","","","","","","","<img src= ""rock_img/I_Andesite_03.jpg"" style=""width:8cm; height:5.73cm;""><p>What type of rock is this?</p>","2","class_response","0","test","13","Diorite","Andesite","03","false","3","1","",""
"","","","","","","","","","","","html-keyboard-response","32","2.0.0","175702","67177dc558c22e03d6799712","2","11","null","","","","","","","","","<p style='font-size: 30px;'><strong>Okay</strong></p>","null","neutral_feedback","0","test","13","","","","","","","",""
"","","","","","","","","","","","html-button-response","33","2.0.0","177926","67177dc558c22e03d6799712","2","11","2223","","","","","","","","","<img src= ""rock_img/I_Diorite_14.jpg"" style=""width:8cm; height:5.71cm;""><p>What type of rock is this?</p>","0","class_response","0","test","14","Andesite","Diorite","14","false","1","3","",""
"","","","","","","","","","","","html-keyboard-response","34","2.0.0","178427","67177dc558c22e03d6799712","2","11","null","","","","","","","","","<p style='font-size: 30px;'><strong>Okay</strong></p>","null","neutral_feedback","0","test","14","","","","","","","",""
"","","","","","","","","","","","html-button-response","35","2.0.0","182407","67177dc558c22e03d6799712","2","11","3979","","","","","","","","","<img src= ""rock_img/I_Pegmatite_08.jpg"" style=""width:8cm; height:7.68cm;""><p>What type of rock is this?</p>","4","class_response","0","test","15","Obsidian","Pegmatite","08","false","5","6","",""
"","","","","","","","","","","","html-keyboard-response","36","2.0.0","182909","67177dc558c22e03d6799712","2","11","null","","","","","","","","","<p style='font-size: 30px;'><strong>Okay</strong></p>","null","neutral_feedback","0","test","15","","","","","","","",""
"","","","","","","","","","","","html-button-response","37","2.0.0","184279","67177dc558c22e03d6799712","2","11","1369","","","","","","","","","<img src= ""rock_img/I_Pegmatite_07.jpg"" style=""width:8cm; height:6.7cm;""><p>What type of rock is this?</p>","4","class_response","0","test","16","Obsidian","Pegmatite","07","false","5","6","",""
"","","","","","","","","","","","html-keyboard-response","38","2.0.0","184779","67177dc558c22e03d6799712","2","11","null","","","","","","","","","<p style='font-size: 30px;'><strong>Okay</strong></p>","null","neutral_feedback","0","test","16","","","","","","","",""
"","","","","","","","","","","","html-button-response","39","2.0.0","187519","67177dc558c22e03d6799712","2","11","2739","","","","","","","","","<img src= ""rock_img/I_Gabbro_11.jpg"" style=""width:8cm; height:6.2cm;""><p>What type of rock is this?</p>","2","class_response","0","test","17","Diorite","Gabbro","11","false","3","4","",""
"","","","","","","","","","","","html-keyboard-response","40","2.0.0","188020","67177dc558c22e03d6799712","2","11","null","","","","","","","","","<p style='font-size: 30px;'><strong>Okay</strong></p>","null","neutral_feedback","0","test","17","","","","","","","",""
"","","","","","","","","","","","html-button-response","41","2.0.0","191816","67177dc558c22e03d6799712","2","11","3795","","","","","","","","","<img src= ""rock_img/I_Diorite_15.jpg"" style=""width:8cm; height:5.54cm;""><p>What type of rock is this?</p>","5","class_response","0","test","18","Pegmatite","Diorite","15","false","6","3","",""
"","","","","","","","","","","","html-keyboard-response","42","2.0.0","192323","67177dc558c22e03d6799712","2","11","null","","","","","","","","","<p style='font-size: 30px;'><strong>Okay</strong></p>","null","neutral_feedback","0","test","18","","","","","","","",""
"","","","","","","","","","","","html-button-response","43","2.0.0","193944","67177dc558c22e03d6799712","2","11","1621","","","","","","","","","<img src= ""rock_img/I_Basalt_04.jpg"" style=""width:8cm; height:7.53cm;""><p>What type of rock is this?</p>","6","class_response","0","test","19","Peridotite","Basalt","04","false","7","2","",""
"","","","","","","","","","","","html-keyboard-response","44","2.0.0","194457","67177dc558c22e03d6799712","2","11","null","","","","","","","","","<p style='font-size: 30px;'><strong>Okay</strong></p>","null","neutral_feedback","0","test","19","","","","","","","",""
"","","","","","","","","","","","html-button-response","45","2.0.0","198737","67177dc558c22e03d6799712","2","11","4279","","","","","","","","","<img src= ""rock_img/I_Gabbro_15.jpg"" style=""width:8cm; height:6.29cm;""><p>What type of rock is this?</p>","0","class_response","0","test","20","Andesite","Gabbro","15","false","1","4","",""
"","","","","","","","","","","","html-keyboard-response","46","2.0.0","199240","67177dc558c22e03d6799712","2","11","null","","","","","","","","","<p style='font-size: 30px;'><strong>Okay</strong></p>","null","neutral_feedback","0","test","20","","","","","","","",""
"","","","","","","","","","","","html-button-response","47","2.0.0","203401","67177dc558c22e03d6799712","2","11","4161","","","","","","","","","<img src= ""rock_img/I_Andesite_09.jpg"" style=""width:8cm; height:6cm;""><p>What type of rock is this?</p>","0","class_response","0","test","21","Andesite","Andesite","09","true","1","1","",""
"","","","","","","","","","","","html-keyboard-response","48","2.0.0","203915","67177dc558c22e03d6799712","2","11","null","","","","","","","","","<p style='font-size: 30px;'><strong>Okay</strong></p>","null","neutral_feedback","0","test","21","","","","","","","",""
"","","","","","","","","","","","html-button-response","49","2.0.0","206394","67177dc558c22e03d6799712","2","11","2478","","","","","","","","","<img src= ""rock_img/I_Diorite_11.jpg"" style=""width:8cm; height:7.11cm;""><p>What type of rock is this?</p>","4","class_response","0","test","22","Obsidian","Diorite","11","false","5","3","",""
"","","","","","","","","","","","html-keyboard-response","50","2.0.0","206895","67177dc558c22e03d6799712","2","11","null","","","","","","","","","<p style='font-size: 30px;'><strong>Okay</strong></p>","null","neutral_feedback","0","test","22","","","","","","","",""
"","","","","","","","","","","","html-button-response","51","2.0.0","209538","67177dc558c22e03d6799712","2","11","2642","","","","","","","","","<img src= ""rock_img/I_Andesite_16.jpg"" style=""width:8cm; height:6.010000000000001cm;""><p>What type of rock is this?</p>","5","class_response","0","test","23","Pegmatite","Andesite","16","false","6","1","",""
"","","","","","","","","","","","html-keyboard-response","52","2.0.0","210042","67177dc558c22e03d6799712","2","11","null","","","","","","","","","<p style='font-size: 30px;'><strong>Okay</strong></p>","null","neutral_feedback","0","test","23","","","","","","","",""
"","","","","","","","","","","","html-button-response","53","2.0.0","211546","67177dc558c22e03d6799712","2","11","1504","","","","","","","","","<img src= ""rock_img/I_Pegmatite_03.jpg"" style=""width:8cm; height:5.239999999999999cm;""><p>What type of rock is this?</p>","4","class_response","0","test","24","Obsidian","Pegmatite","03","false","5","6","",""
"","","","","","","","","","","","html-keyboard-response","54","2.0.0","212058","67177dc558c22e03d6799712","2","11","null","","","","","","","","","<p style='font-size: 30px;'><strong>Okay</strong></p>","null","neutral_feedback","0","test","24","","","","","","","",""
"","","","","","","","","","","","html-button-response","55","2.0.0","213434","67177dc558c22e03d6799712","2","11","1376","","","","","","","","","<img src= ""rock_img/I_Obsidian_08.jpg"" style=""width:8cm; height:7.39cm;""><p>What type of rock is this?</p>","4","class_response","0","test","25","Obsidian","Obsidian","08","true","5","5","",""
"","","","","","","","","","","","html-keyboard-response","56","2.0.0","213936","67177dc558c22e03d6799712","2","11","null","","","","","","","","","<p style='font-size: 30px;'><strong>Okay</strong></p>","null","neutral_feedback","0","test","25","","","","","","","",""
"","","","","","","","","","","","html-button-response","57","2.0.0","215187","67177dc558c22e03d6799712","2","11","1250","","","","","","","","","<img src= ""rock_img/I_Obsidian_09.jpg"" style=""width:8cm; height:5cm;""><p>What type of rock is this?</p>","4","class_response","0","test","26","Obsidian","Obsidian","09","true","5","5","",""
"","","","","","","","","","","","html-keyboard-response","58","2.0.0","215687","67177dc558c22e03d6799712","2","11","null","","","","","","","","","<p style='font-size: 30px;'><strong>Okay</strong></p>","null","neutral_feedback","0","test","26","","","","","","","",""
"","","","","","","","","","","","html-button-response","59","2.0.0","217771","67177dc558c22e03d6799712","2","11","2083","","","","","","","","","<img src= ""rock_img/I_Basalt_14.jpg"" style=""width:8cm; height:5.82cm;""><p>What type of rock is this?</p>","7","class_response","0","test","27","Pumice","Basalt","14","false","8","2","",""
"","","","","","","","","","","","html-keyboard-response","60","2.0.0","218277","67177dc558c22e03d6799712","2","11","null","","","","","","","","","<p style='font-size: 30px;'><strong>Okay</strong></p>","null","neutral_feedback","0","test","27","","","","","","","",""
"","","","","","","","","","","","html-button-response","61","2.0.0","223091","67177dc558c22e03d6799712","2","11","4814","","","","","","","","","<img src= ""rock_img/I_Andesite_14.jpg"" style=""width:8cm; height:5.449999999999999cm;""><p>What type of rock is this?</p>","2","class_response","0","test","28","Diorite","Andesite","14","false","3","1","",""
"","","","","","","","","","","","html-keyboard-response","62","2.0.0","223608","67177dc558c22e03d6799712","2","11","null","","","","","","","","","<p style='font-size: 30px;'><strong>Okay</strong></p>","null","neutral_feedback","0","test","28","","","","","","","",""
"","","","","","","","","","","","html-button-response","63","2.0.0","226012","67177dc558c22e03d6799712","2","11","2403","","","","","","","","","<img src= ""rock_img/I_Basalt_11.jpg"" style=""width:8cm; height:5.359999999999999cm;""><p>What type of rock is this?</p>","7","class_response","0","test","29","Pumice","Basalt","11","false","8","2","",""
"","","","","","","","","","","","html-keyboard-response","64","2.0.0","226523","67177dc558c22e03d6799712","2","11","null","","","","","","","","","<p style='font-size: 30px;'><strong>Okay</strong></p>","null","neutral_feedback","0","test","29","","","","","","","",""
"","","","","","","","","","","","html-button-response","65","2.0.0","228372","67177dc558c22e03d6799712","2","11","1849","","","","","","","","","<img src= ""rock_img/I_Peridotite_02.jpg"" style=""width:8cm; height:5.859999999999999cm;""><p>What type of rock is this?</p>","1","class_response","0","test","30","Basalt","Peridotite","02","false","2","7","",""
"","","","","","","","","","","","html-keyboard-response","66","2.0.0","228874","67177dc558c22e03d6799712","2","11","null","","","","","","","","","<p style='font-size: 30px;'><strong>Okay</strong></p>","null","neutral_feedback","0","test","30","","","","","","","",""
"","","","","","","","","","","","html-button-response","67","2.0.0","231108","67177dc558c22e03d6799712","2","11","2234","","","","","","","","","<img src= ""rock_img/I_Pumice_03.jpg"" style=""width:8cm; height:6.64cm;""><p>What type of rock is this?</p>","7","class_response","0","test","31","Pumice","Pumice","03","true","8","8","",""
"","","","","","","","","","","","html-keyboard-response","68","2.0.0","231616","67177dc558c22e03d6799712","2","11","null","","","","","","","","","<p style='font-size: 30px;'><strong>Okay</strong></p>","null","neutral_feedback","0","test","31","","","","","","","",""
"","","","","","","","","","","","html-button-response","69","2.0.0","232869","67177dc558c22e03d6799712","2","11","1252","","","","","","","","","<img src= ""rock_img/I_Pumice_09.jpg"" style=""width:8cm; height:6.44cm;""><p>What type of rock is this?</p>","7","class_response","0","test","32","Pumice","Pumice","09","true","8","8","",""
"","","","","","","","","","","","html-keyboard-response","70","2.0.0","233383","67177dc558c22e03d6799712","2","11","null","","","","","","","","","<p style='font-size: 30px;'><strong>Okay</strong></p>","null","neutral_feedback","0","test","32","","","","","","","",""
"","","","","","","","","","","","html-button-response","71","2.0.0","234813","67177dc558c22e03d6799712","2","11","1429","","","","","","","","","<img src= ""rock_img/I_Obsidian_07.jpg"" style=""width:8cm; height:4.76cm;""><p>What type of rock is this?</p>","4","class_response","0","test","33","Obsidian","Obsidian","07","true","5","5","",""
"","","","","","","","","","","","html-keyboard-response","72","2.0.0","235325","67177dc558c22e03d6799712","2","11","null","","","","","","","","","<p style='font-size: 30px;'><strong>Okay</strong></p>","null","neutral_feedback","0","test","33","","","","","","","",""
"","","","","","","","","","","","html-button-response","73","2.0.0","237797","67177dc558c22e03d6799712","2","11","2472","","","","","","","","","<img src= ""rock_img/I_Pegmatite_13.jpg"" style=""width:8cm; height:4.95cm;""><p>What type of rock is this?</p>","0","class_response","0","test","34","Andesite","Pegmatite","13","false","1","6","",""
"","","","","","","","","","","","html-keyboard-response","74","2.0.0","238304","67177dc558c22e03d6799712","2","11","null","","","","","","","","","<p style='font-size: 30px;'><strong>Okay</strong></p>","null","neutral_feedback","0","test","34","","","","","","","",""
"","","","","","","","","","","","html-button-response","75","2.0.0","239774","67177dc558c22e03d6799712","2","11","1469","","","","","","","","","<img src= ""rock_img/I_Obsidian_12.jpg"" style=""width:8cm; height:6.53cm;""><p>What type of rock is this?</p>","4","class_response","0","test","35","Obsidian","Obsidian","12","true","5","5","",""
"","","","","","","","","","","","html-keyboard-response","76","2.0.0","240279","67177dc558c22e03d6799712","2","11","null","","","","","","","","","<p style='font-size: 30px;'><strong>Okay</strong></p>","null","neutral_feedback","0","test","35","","","","","","","",""
"","","","","","","","","","","","html-button-response","77","2.0.0","243398","67177dc558c22e03d6799712","2","11","3118","","","","","","","","","<img src= ""rock_img/I_Peridotite_15.jpg"" style=""width:8cm; height:6cm;""><p>What type of rock is this?</p>","6","class_response","0","test","36","Peridotite","Peridotite","15","true","7","7","",""
"","","","","","","","","","","","html-keyboard-response","78","2.0.0","243900","67177dc558c22e03d6799712","2","11","null","","","","","","","","","<p style='font-size: 30px;'><strong>Okay</strong></p>","null","neutral_feedback","0","test","36","","","","","","","",""
"","","","","","","","","","","","html-button-response","79","2.0.0","246958","67177dc558c22e03d6799712","2","11","3058","","","","","","","","","<img src= ""rock_img/I_Basalt_06.jpg"" style=""width:8cm; height:7.06cm;""><p>What type of rock is this?</p>","5","class_response","0","test","37","Pegmatite","Basalt","06","false","6","2","",""
"","","","","","","","","","","","html-keyboard-response","80","2.0.0","247468","67177dc558c22e03d6799712","2","11","null","","","","","","","","","<p style='font-size: 30px;'><strong>Okay</strong></p>","null","neutral_feedback","0","test","37","","","","","","","",""
"","","","","","","","","","","","html-button-response","81","2.0.0","248903","67177dc558c22e03d6799712","2","11","1434","","","","","","","","","<img src= ""rock_img/I_Pegmatite_16.jpg"" style=""width:8cm; height:5.8cm;""><p>What type of rock is this?</p>","4","class_response","0","test","38","Obsidian","Pegmatite","16","false","5","6","",""
"","","","","","","","","","","","html-keyboard-response","82","2.0.0","249407","67177dc558c22e03d6799712","2","11","null","","","","","","","","","<p style='font-size: 30px;'><strong>Okay</strong></p>","null","neutral_feedback","0","test","38","","","","","","","",""
"","","","","","","","","","","","html-button-response","83","2.0.0","251559","67177dc558c22e03d6799712","2","11","2152","","","","","","","","","<img src= ""rock_img/I_Pegmatite_10.jpg"" style=""width:8cm; height:4.16cm;""><p>What type of rock is this?</p>","4","class_response","0","test","39","Obsidian","Pegmatite","10","false","5","6","",""
"","","","","","","","","","","","html-keyboard-response","84","2.0.0","252070","67177dc558c22e03d6799712","2","11","null","","","","","","","","","<p style='font-size: 30px;'><strong>Okay</strong></p>","null","neutral_feedback","0","test","39","","","","","","","",""
"","","","","","","","","","","","html-button-response","85","2.0.0","253511","67177dc558c22e03d6799712","2","11","1440","","","","","","","","","<img src= ""rock_img/I_Obsidian_16.jpg"" style=""width:8cm; height:9.3cm;""><p>What type of rock is this?</p>","4","class_response","0","test","40","Obsidian","Obsidian","16","true","5","5","",""
"","","","","","","","","","","","html-keyboard-response","86","2.0.0","254013","67177dc558c22e03d6799712","2","11","null","","","","","","","","","<p style='font-size: 30px;'><strong>Okay</strong></p>","null","neutral_feedback","0","test","40","","","","","","","",""
"","","","","","","","","","","","html-button-response","87","2.0.0","256551","67177dc558c22e03d6799712","2","11","2538","","","","","","","","","<img src= ""rock_img/I_Peridotite_05.jpg"" style=""width:8cm; height:7.1499999999999995cm;""><p>What type of rock is this?</p>","3","class_response","0","test","41","Gabbro","Peridotite","05","false","4","7","",""
"","","","","","","","","","","","html-keyboard-response","88","2.0.0","257055","67177dc558c22e03d6799712","2","11","null","","","","","","","","","<p style='font-size: 30px;'><strong>Okay</strong></p>","null","neutral_feedback","0","test","41","","","","","","","",""
"","","","","","","","","","","","html-button-response","89","2.0.0","258456","67177dc558c22e03d6799712","2","11","1400","","","","","","","","","<img src= ""rock_img/I_Pumice_14.jpg"" style=""width:8cm; height:6.39cm;""><p>What type of rock is this?</p>","7","class_response","0","test","42","Pumice","Pumice","14","true","8","8","",""
"","","","","","","","","","","","html-keyboard-response","90","2.0.0","258957","67177dc558c22e03d6799712","2","11","null","","","","","","","","","<p style='font-size: 30px;'><strong>Okay</strong></p>","null","neutral_feedback","0","test","42","","","","","","","",""
"","","","","","","","","","","","html-button-response","91","2.0.0","260960","67177dc558c22e03d6799712","2","11","2002","","","","","","","","","<img src= ""rock_img/I_Diorite_08.jpg"" style=""width:8cm; height:6.37cm;""><p>What type of rock is this?</p>","4","class_response","0","test","43","Obsidian","Diorite","08","false","5","3","",""
"","","","","","","","","","","","html-keyboard-response","92","2.0.0","261475","67177dc558c22e03d6799712","2","11","null","","","","","","","","","<p style='font-size: 30px;'><strong>Okay</strong></p>","null","neutral_feedback","0","test","43","","","","","","","",""
"","","","","","","","","","","","html-button-response","93","2.0.0","263096","67177dc558c22e03d6799712","2","11","1621","","","","","","","","","<img src= ""rock_img/I_Andesite_05.jpg"" style=""width:8cm; height:4.12cm;""><p>What type of rock is this?</p>","0","class_response","0","test","44","Andesite","Andesite","05","true","1","1","",""
"","","","","","","","","","","","html-keyboard-response","94","2.0.0","263605","67177dc558c22e03d6799712","2","11","null","","","","","","","","","<p style='font-size: 30px;'><strong>Okay</strong></p>","null","neutral_feedback","0","test","44","","","","","","","",""
"","","","","","","","","","","","html-button-response","95","2.0.0","265313","67177dc558c22e03d6799712","2","11","1707","","","","","","","","","<img src= ""rock_img/I_Pumice_02.jpg"" style=""width:8cm; height:7.3999999999999995cm;""><p>What type of rock is this?</p>","7","class_response","0","test","45","Pumice","Pumice","02","true","8","8","",""
"","","","","","","","","","","","html-keyboard-response","96","2.0.0","265821","67177dc558c22e03d6799712","2","11","null","","","","","","","","","<p style='font-size: 30px;'><strong>Okay</strong></p>","null","neutral_feedback","0","test","45","","","","","","","",""
"","","","","","","","","","","","html-button-response","97","2.0.0","267569","67177dc558c22e03d6799712","2","11","1748","","","","","","","","","<img src= ""rock_img/I_Gabbro_10.jpg"" style=""width:8cm; height:5.680000000000001cm;""><p>What type of rock is this?</p>","1","class_response","0","test","46","Basalt","Gabbro","10","false","2","4","",""
"","","","","","","","","","","","html-keyboard-response","98","2.0.0","268073","67177dc558c22e03d6799712","2","11","null","","","","","","","","","<p style='font-size: 30px;'><strong>Okay</strong></p>","null","neutral_feedback","0","test","46","","","","","","","",""
"","","","","","","","","","","","html-button-response","99","2.0.0","269513","67177dc558c22e03d6799712","2","11","1440","","","","","","","","","<img src= ""rock_img/I_Obsidian_05.jpg"" style=""width:8cm; height:6.33cm;""><p>What type of rock is this?</p>","4","class_response","0","test","47","Obsidian","Obsidian","05","true","5","5","",""
"","","","","","","","","","","","html-keyboard-response","100","2.0.0","270017","67177dc558c22e03d6799712","2","11","null","","","","","","","","","<p style='font-size: 30px;'><strong>Okay</strong></p>","null","neutral_feedback","0","test","47","","","","","","","",""
"","","","","","","","","","","","html-button-response","101","2.0.0","271737","67177dc558c22e03d6799712","2","11","1719","","","","","","","","","<img src= ""rock_img/I_Diorite_13.jpg"" style=""width:8cm; height:6.29cm;""><p>What type of rock is this?</p>","1","class_response","0","test","48","Basalt","Diorite","13","false","2","3","",""
"","","","","","","","","","","","html-keyboard-response","102","2.0.0","272240","67177dc558c22e03d6799712","2","11","null","","","","","","","","","<p style='font-size: 30px;'><strong>Okay</strong></p>","null","neutral_feedback","0","test","48","","","","","","","",""
"","","","","","","","","","","","instructions","103","2.0.0","301293","67177dc558c22e03d6799712","2","11","29036","","","","","","","","[{""page_index"":0,""viewing_time"":16922},{""page_index"":1,""viewing_time"":6177},{""page_index"":2,""viewing_time"":5937}]","","","","","","","","","","","","","",""
"","","","","","","","","","","","html-button-response","104","2.0.0","304405","67177dc558c22e03d6799712","2","11","3112","","","","","","","","","","0","start_train","","","","","","","","","","",""
"","","","","","","","","","","","html-button-response","105","2.0.0","309526","67177dc558c22e03d6799712","2","11","5120","","","","","","","","","<img src= ""rock_img/I_Basalt_10.jpg"" style=""width:8cm; height:5.85cm;""><p>What type of rock is this?</p>","1","class_response","1","train","1","Basalt","Basalt","10","true","2","2","",""
"","","","","","","","","","","","html-button-response","106","2.0.0","318383","67177dc558c22e03d6799712","2","11","8856","","","","","","","","","<img src= rock_img/I_Basalt_10.jpg style=""width:8cm; height:5.85cm;""><p style='font-size: 30px; color: green;'><strong>Correct!</strong></p><p style='font-size: 30px;'><strong>This rock is basalt</strong></p>","0","corr_feedback","1","train","1","","","","","","","",""
"","","","","","","","","","","","html-button-response","107","2.0.0","327352","67177dc558c22e03d6799712","2","11","8968","","","","","","","","","<img src= ""rock_img/I_Diorite_07.jpg"" style=""width:8cm; height:5.239999999999999cm;""><p>What type of rock is this?</p>","5","class_response","1","train","2","Pegmatite","Diorite","07","false","6","3","",""
"","","","","","","","","","","","html-button-response","108","2.0.0","348258","67177dc558c22e03d6799712","2","11","20906","","","","","","","","","<img src= rock_img/I_Diorite_07.jpg style=""width:8cm; height:5.239999999999999cm;""><p style='font-size: 30px; color: red;'><strong>Incorrect!</strong></p><p style='font-size: 30px;'><strong>This rock is diorite</strong></p>","0","corr_feedback","1","train","2","","","","","","","",""
"","","","","","","","","","","","html-button-response","109","2.0.0","350971","67177dc558c22e03d6799712","2","11","2712","","","","","","","","","<img src= ""rock_img/I_Basalt_12.jpg"" style=""width:8cm; height:6.010000000000001cm;""><p>What type of rock is this?</p>","7","class_response","1","train","3","Pumice","Basalt","12","false","8","2","",""
"","","","","","","","","","","","html-button-response","110","2.0.0","360204","67177dc558c22e03d6799712","2","11","9232","","","","","","","","","<img src= rock_img/I_Basalt_12.jpg style=""width:8cm; height:6.010000000000001cm;""><p style='font-size: 30px; color: red;'><strong>Incorrect!</strong></p><p style='font-size: 30px;'><strong>This rock is basalt</strong></p>","0","corr_feedback","1","train","3","","","","","","","",""
"","","","","","","","","","","","html-button-response","111","2.0.0","364436","67177dc558c22e03d6799712","2","11","4232","","","","","","","","","<img src= ""rock_img/I_Pumice_13.jpg"" style=""width:8cm; height:8.200000000000001cm;""><p>What type of rock is this?</p>","6","class_response","1","train","4","Peridotite","Pumice","13","false","7","8","",""
"","","","","","","","","","","","html-button-response","112","2.0.0","371357","67177dc558c22e03d6799712","2","11","6920","","","","","","","","","<img src= rock_img/I_Pumice_13.jpg style=""width:8cm; height:8.200000000000001cm;""><p style='font-size: 30px; color: red;'><strong>Incorrect!</strong></p><p style='font-size: 30px;'><strong>This rock is pumice</strong></p>","0","corr_feedback","1","train","4","","","","","","","",""
"","","","","","","","","","","","html-button-response","113","2.0.0","380126","67177dc558c22e03d6799712","2","11","8768","","","","","","","","","<img src= ""rock_img/I_Diorite_12.jpg"" style=""width:8cm; height:4.88cm;""><p>What type of rock is this?</p>","2","class_response","1","train","5","Diorite","Diorite","12","true","3","3","",""
"","","","","","","","","","","","html-button-response","114","2.0.0","385847","67177dc558c22e03d6799712","2","11","5720","","","","","","","","","<img src= rock_img/I_Diorite_12.jpg style=""width:8cm; height:4.88cm;""><p style='font-size: 30px; color: green;'><strong>Correct!</strong></p><p style='font-size: 30px;'><strong>This rock is diorite</strong></p>","0","corr_feedback","1","train","5","","","","","","","",""
"","","","","","","","","","","","html-button-response","115","2.0.0","388527","67177dc558c22e03d6799712","2","11","2680","","","","","","","","","<img src= ""rock_img/I_Gabbro_01.jpg"" style=""width:8cm; height:5.21cm;""><p>What type of rock is this?</p>","1","class_response","1","train","6","Basalt","Gabbro","01","false","2","4","",""
"","","","","","","","","","","","html-button-response","116","2.0.0","393928","67177dc558c22e03d6799712","2","11","5400","","","","","","","","","<img src= rock_img/I_Gabbro_01.jpg style=""width:8cm; height:5.21cm;""><p style='font-size: 30px; color: red;'><strong>Incorrect!</strong></p><p style='font-size: 30px;'><strong>This rock is gabbro</strong></p>","0","corr_feedback","1","train","6","","","","","","","",""
"","","","","","","","","","","","html-button-response","117","2.0.0","400648","67177dc558c22e03d6799712","2","11","6720","","","","","","","","","<img src= ""rock_img/I_Diorite_07.jpg"" style=""width:8cm; height:5.239999999999999cm;""><p>What type of rock is this?</p>","2","class_response","1","train","7","Diorite","Diorite","07","true","3","3","",""
"","","","","","","","","","","","html-button-response","118","2.0.0","403273","67177dc558c22e03d6799712","2","11","2623","","","","","","","","","<img src= rock_img/I_Diorite_07.jpg style=""width:8cm; height:5.239999999999999cm;""><p style='font-size: 30px; color: green;'><strong>Correct!</strong></p><p style='font-size: 30px;'><strong>This rock is diorite</strong></p>","0","corr_feedback","1","train","7","","","","","","","",""
"","","","","","","","","","","","html-button-response","119","2.0.0","405905","67177dc558c22e03d6799712","2","11","2632","","","","","","","","","<img src= ""rock_img/I_Gabbro_08.jpg"" style=""width:8cm; height:5.15cm;""><p>What type of rock is this?</p>","1","class_response","1","train","8","Basalt","Gabbro","08","false","2","4","",""
"","","","","","","","","","","","html-button-response","120","2.0.0","411762","67177dc558c22e03d6799712","2","11","5856","","","","","","","","","<img src= rock_img/I_Gabbro_08.jpg style=""width:8cm; height:5.15cm;""><p style='font-size: 30px; color: red;'><strong>Incorrect!</strong></p><p style='font-size: 30px;'><strong>This rock is gabbro</strong></p>","0","corr_feedback","1","train","8","","","","","","","",""
"","","","","","","","","","","","html-button-response","121","2.0.0","413122","67177dc558c22e03d6799712","2","11","1360","","","","","","","","","<img src= ""rock_img/I_Basalt_01.jpg"" style=""width:8cm; height:7.880000000000001cm;""><p>What type of rock is this?</p>","1","class_response","1","train","9","Basalt","Basalt","01","true","2","2","",""
"","","","","","","","","","","","html-button-response","122","2.0.0","416474","67177dc558c22e03d6799712","2","11","3351","","","","","","","","","<img src= rock_img/I_Basalt_01.jpg style=""width:8cm; height:7.880000000000001cm;""><p style='font-size: 30px; color: green;'><strong>Correct!</strong></p><p style='font-size: 30px;'><strong>This rock is basalt</strong></p>","0","corr_feedback","1","train","9","","","","","","","",""
"","","","","","","","","","","","html-button-response","123","2.0.0","418178","67177dc558c22e03d6799712","2","11","1703","","","","","","","","","<img src= ""rock_img/I_Pumice_16.jpg"" style=""width:8cm; height:6.79cm;""><p>What type of rock is this?</p>","7","class_response","1","train","10","Pumice","Pumice","16","true","8","8","",""
"","","","","","","","","","","","html-button-response","124","2.0.0","421211","67177dc558c22e03d6799712","2","11","3032","","","","","","","","","<img src= rock_img/I_Pumice_16.jpg style=""width:8cm; height:6.79cm;""><p style='font-size: 30px; color: green;'><strong>Correct!</strong></p><p style='font-size: 30px;'><strong>This rock is pumice</strong></p>","0","corr_feedback","1","train","10","","","","","","","",""
"","","","","","","","","","","","html-button-response","125","2.0.0","424019","67177dc558c22e03d6799712","2","11","2808","","","","","","","","","<img src= ""rock_img/I_Andesite_11.jpg"" style=""width:8cm; height:4.92cm;""><p>What type of rock is this?</p>","1","class_response","1","train","11","Basalt","Andesite","11","false","2","1","",""
"","","","","","","","","","","","html-button-response","126","2.0.0","430204","67177dc558c22e03d6799712","2","11","6184","","","","","","","","","<img src= rock_img/I_Andesite_11.jpg style=""width:8cm; height:4.92cm;""><p style='font-size: 30px; color: red;'><strong>Incorrect!</strong></p><p style='font-size: 30px;'><strong>This rock is andesite</strong></p>","0","corr_feedback","1","train","11","","","","","","","",""
"","","","","","","","","","","","html-button-response","127","2.0.0","432908","67177dc558c22e03d6799712","2","11","2704","","","","","","","","","<img src= ""rock_img/I_Gabbro_14.jpg"" style=""width:8cm; height:8.48cm;""><p>What type of rock is this?</p>","0","class_response","1","train","12","Andesite","Gabbro","14","false","1","4","",""
"","","","","","","","","","","","html-button-response","128","2.0.0","437869","67177dc558c22e03d6799712","2","11","4960","","","","","","","","","<img src= rock_img/I_Gabbro_14.jpg style=""width:8cm; height:8.48cm;""><p style='font-size: 30px; color: red;'><strong>Incorrect!</strong></p><p style='font-size: 30px;'><strong>This rock is gabbro</strong></p>","0","corr_feedback","1","train","12","","","","","","","",""
"","","","","","","","","","","","html-button-response","129","2.0.0","439429","67177dc558c22e03d6799712","2","11","1559","","","","","","","","","<img src= ""rock_img/I_Obsidian_10.jpg"" style=""width:8cm; height:6.260000000000001cm;""><p>What type of rock is this?</p>","4","class_response","1","train","13","Obsidian","Obsidian","10","true","5","5","",""
"","","","","","","","","","","","html-button-response","130","2.0.0","441165","67177dc558c22e03d6799712","2","11","1735","","","","","","","","","<img src= rock_img/I_Obsidian_10.jpg style=""width:8cm; height:6.260000000000001cm;""><p style='font-size: 30px; color: green;'><strong>Correct!</strong></p><p style='font-size: 30px;'><strong>This rock is obsidian</strong></p>","0","corr_feedback","1","train","13","","","","","","","",""
"","","","","","","","","","","","html-button-response","131","2.0.0","442381","67177dc558c22e03d6799712","2","11","1215","","","","","","","","","<img src= ""rock_img/I_Pegmatite_11.jpg"" style=""width:8cm; height:8.14cm;""><p>What type of rock is this?</p>","4","class_response","1","train","14","Obsidian","Pegmatite","11","false","5","6","",""
"","","","","","","","","","","","html-button-response","132","2.0.0","447078","67177dc558c22e03d6799712","2","11","4696","","","","","","","","","<img src= rock_img/I_Pegmatite_11.jpg style=""width:8cm; height:8.14cm;""><p style='font-size: 30px; color: red;'><strong>Incorrect!</strong></p><p style='font-size: 30px;'><strong>This rock is pegmatite</strong></p>","0","corr_feedback","1","train","14","","","","","","","",""
"","","","","","","","","","","","html-button-response","133","2.0.0","448598","67177dc558c22e03d6799712","2","11","1519","","","","","","","","","<img src= ""rock_img/I_Basalt_01.jpg"" style=""width:8cm; height:7.880000000000001cm;""><p>What type of rock is this?</p>","1","class_response","1","train","15","Basalt","Basalt","01","true","2","2","",""
"","","","","","","","","","","","html-button-response","134","2.0.0","449838","67177dc558c22e03d6799712","2","11","1239","","","","","","","","","<img src= rock_img/I_Basalt_01.jpg style=""width:8cm; height:7.880000000000001cm;""><p style='font-size: 30px; color: green;'><strong>Correct!</strong></p><p style='font-size: 30px;'><strong>This rock is basalt</strong></p>","0","corr_feedback","1","train","15","","","","","","","",""
"","","","","","","","","","","","html-button-response","135","2.0.0","455231","67177dc558c22e03d6799712","2","11","5392","","","","","","","","","<img src= ""rock_img/I_Diorite_02.jpg"" style=""width:8cm; height:6.27cm;""><p>What type of rock is this?</p>","3","class_response","1","train","16","Gabbro","Diorite","02","false","4","3","",""
"","","","","","","","","","","","html-button-response","136","2.0.0","460135","67177dc558c22e03d6799712","2","11","4904","","","","","","","","","<img src= rock_img/I_Diorite_02.jpg style=""width:8cm; height:6.27cm;""><p style='font-size: 30px; color: red;'><strong>Incorrect!</strong></p><p style='font-size: 30px;'><strong>This rock is diorite</strong></p>","0","corr_feedback","1","train","16","","","","","","","",""
"","","","","","","","","","","","html-button-response","137","2.0.0","464920","67177dc558c22e03d6799712","2","11","4784","","","","","","","","","<img src= ""rock_img/I_Diorite_10.jpg"" style=""width:8cm; height:5.949999999999999cm;""><p>What type of rock is this?</p>","0","class_response","1","train","17","Andesite","Diorite","10","false","1","3","",""
"","","","","","","","","","","","html-button-response","138","2.0.0","469448","67177dc558c22e03d6799712","2","11","4528","","","","","","","","","<img src= rock_img/I_Diorite_10.jpg style=""width:8cm; height:5.949999999999999cm;""><p style='font-size: 30px; color: red;'><strong>Incorrect!</strong></p><p style='font-size: 30px;'><strong>This rock is diorite</strong></p>","0","corr_feedback","1","train","17","","","","","","","",""
"","","","","","","","","","","","html-button-response","139","2.0.0","475769","67177dc558c22e03d6799712","2","11","6320","","","","","","","","","<img src= ""rock_img/I_Andesite_02.jpg"" style=""width:8cm; height:8.5cm;""><p>What type of rock is this?</p>","2","class_response","1","train","18","Diorite","Andesite","02","false","3","1","",""
"","","","","","","","","","","","html-button-response","140","2.0.0","480434","67177dc558c22e03d6799712","2","11","4664","","","","","","","","","<img src= rock_img/I_Andesite_02.jpg style=""width:8cm; height:8.5cm;""><p style='font-size: 30px; color: red;'><strong>Incorrect!</strong></p><p style='font-size: 30px;'><strong>This rock is andesite</strong></p>","0","corr_feedback","1","train","18","","","","","","","",""
"","","","","","","","","","","","html-button-response","141","2.0.0","481858","67177dc558c22e03d6799712","2","11","1423","","","","","","","","","<img src= ""rock_img/I_Gabbro_12.jpg"" style=""width:8cm; height:7.800000000000001cm;""><p>What type of rock is this?</p>","1","class_response","1","train","19","Basalt","Gabbro","12","false","2","4","",""
"","","","","","","","","","","","html-button-response","142","2.0.0","486210","67177dc558c22e03d6799712","2","11","4352","","","","","","","","","<img src= rock_img/I_Gabbro_12.jpg style=""width:8cm; height:7.800000000000001cm;""><p style='font-size: 30px; color: red;'><strong>Incorrect!</strong></p><p style='font-size: 30px;'><strong>This rock is gabbro</strong></p>","0","corr_feedback","1","train","19","","","","","","","",""
"","","","","","","","","","","","html-button-response","143","2.0.0","489427","67177dc558c22e03d6799712","2","11","3216","","","","","","","","","<img src= ""rock_img/I_Gabbro_08.jpg"" style=""width:8cm; height:5.15cm;""><p>What type of rock is this?</p>","2","class_response","1","train","20","Diorite","Gabbro","08","false","3","4","",""
"","","","","","","","","","","","html-button-response","144","2.0.0","493867","67177dc558c22e03d6799712","2","11","4439","","","","","","","","","<img src= rock_img/I_Gabbro_08.jpg style=""width:8cm; height:5.15cm;""><p style='font-size: 30px; color: red;'><strong>Incorrect!</strong></p><p style='font-size: 30px;'><strong>This rock is gabbro</strong></p>","0","corr_feedback","1","train","20","","","","","","","",""
"","","","","","","","","","","","html-button-response","145","2.0.0","496636","67177dc558c22e03d6799712","2","11","2768","","","","","","","","","<img src= ""rock_img/I_Diorite_12.jpg"" style=""width:8cm; height:4.88cm;""><p>What type of rock is this?</p>","5","class_response","1","train","21","Pegmatite","Diorite","12","false","6","3","",""
"","","","","","","","","","","","html-button-response","146","2.0.0","499108","67177dc558c22e03d6799712","2","11","2471","","","","","","","","","<img src= rock_img/I_Diorite_12.jpg style=""width:8cm; height:4.88cm;""><p style='font-size: 30px; color: red;'><strong>Incorrect!</strong></p><p style='font-size: 30px;'><strong>This rock is diorite</strong></p>","0","corr_feedback","1","train","21","","","","","","","",""
"","","","","","","","","","","","html-button-response","147","2.0.0","500932","67177dc558c22e03d6799712","2","11","1823","","","","","","","","","<img src= ""rock_img/I_Pegmatite_15.jpg"" style=""width:8cm; height:6cm;""><p>What type of rock is this?</p>","4","class_response","1","train","22","Obsidian","Pegmatite","15","false","5","6","",""
"","","","","","","","","","","","html-button-response","148","2.0.0","505765","67177dc558c22e03d6799712","2","11","4832","","","","","","","","","<img src= rock_img/I_Pegmatite_15.jpg style=""width:8cm; height:6cm;""><p style='font-size: 30px; color: red;'><strong>Incorrect!</strong></p><p style='font-size: 30px;'><strong>This rock is pegmatite</strong></p>","0","corr_feedback","1","train","22","","","","","","","",""
"","","","","","","","","","","","html-button-response","149","2.0.0","507437","67177dc558c22e03d6799712","2","11","1671","","","","","","","","","<img src= ""rock_img/I_Pegmatite_05.jpg"" style=""width:8cm; height:7.300000000000001cm;""><p>What type of rock is this?</p>","4","class_response","1","train","23","Obsidian","Pegmatite","05","false","5","6","",""
"","","","","","","","","","","","html-button-response","150","2.0.0","512301","67177dc558c22e03d6799712","2","11","4864","","","","","","","","","<img src= rock_img/I_Pegmatite_05.jpg style=""width:8cm; height:7.300000000000001cm;""><p style='font-size: 30px; color: red;'><strong>Incorrect!</strong></p><p style='font-size: 30px;'><strong>This rock is pegmatite</strong></p>","0","corr_feedback","1","train","23","","","","","","","",""
"","","","","","","","","","","","html-button-response","151","2.0.0","515262","67177dc558c22e03d6799712","2","11","2960","","","","","","","","","<img src= ""rock_img/I_Diorite_09.jpg"" style=""width:8cm; height:5.27cm;""><p>What type of rock is this?</p>","2","class_response","1","train","24","Diorite","Diorite","09","true","3","3","",""
"","","","","","","","","","","","html-button-response","152","2.0.0","520766","67177dc558c22e03d6799712","2","11","5504","","","","","","","","","<img src= rock_img/I_Diorite_09.jpg style=""width:8cm; height:5.27cm;""><p style='font-size: 30px; color: green;'><strong>Correct!</strong></p><p style='font-size: 30px;'><strong>This rock is diorite</strong></p>","0","corr_feedback","1","train","24","","","","","","","",""
"","","","","","","","","","","","html-button-response","153","2.0.0","528631","67177dc558c22e03d6799712","2","11","7864","","","","","","","","","<img src= ""rock_img/I_Pegmatite_05.jpg"" style=""width:8cm; height:7.300000000000001cm;""><p>What type of rock is this?</p>","0","class_response","1","train","25","Andesite","Pegmatite","05","false","1","6","",""
"","","","","","","","","","","","html-button-response","154","2.0.0","530520","67177dc558c22e03d6799712","2","11","1888","","","","","","","","","<img src= rock_img/I_Pegmatite_05.jpg style=""width:8cm; height:7.300000000000001cm;""><p style='font-size: 30px; color: red;'><strong>Incorrect!</strong></p><p style='font-size: 30px;'><strong>This rock is pegmatite</strong></p>","0","corr_feedback","1","train","25","","","","","","","",""
"","","","","","","","","","","","html-button-response","155","2.0.0","532032","67177dc558c22e03d6799712","2","11","1511","","","","","","","","","<img src= ""rock_img/I_Peridotite_06.jpg"" style=""width:8cm; height:7.53cm;""><p>What type of rock is this?</p>","4","class_response","1","train","26","Obsidian","Peridotite","06","false","5","7","",""
"","","","","","","","","","","","html-button-response","156","2.0.0","537488","67177dc558c22e03d6799712","2","11","5456","","","","","","","","","<img src= rock_img/I_Peridotite_06.jpg style=""width:8cm; height:7.53cm;""><p style='font-size: 30px; color: red;'><strong>Incorrect!</strong></p><p style='font-size: 30px;'><strong>This rock is peridotite</strong></p>","0","corr_feedback","1","train","26","","","","","","","",""
"","","","","","","","","","","","html-button-response","157","2.0.0","539937","67177dc558c22e03d6799712","2","11","2447","","","","","","","","","<img src= ""rock_img/I_Pegmatite_09.jpg"" style=""width:8cm; height:4.03cm;""><p>What type of rock is this?</p>","4","class_response","1","train","27","Obsidian","Pegmatite","09","false","5","6","",""
"","","","","","","","","","","","html-button-response","158","2.0.0","541145","67177dc558c22e03d6799712","2","11","1207","","","","","","","","","<img src= rock_img/I_Pegmatite_09.jpg style=""width:8cm; height:4.03cm;""><p style='font-size: 30px; color: red;'><strong>Incorrect!</strong></p><p style='font-size: 30px;'><strong>This rock is pegmatite</strong></p>","0","corr_feedback","1","train","27","","","","","","","",""
"","","","","","","","","","","","html-button-response","159","2.0.0","544185","67177dc558c22e03d6799712","2","11","3040","","","","","","","","","<img src= ""rock_img/I_Andesite_06.jpg"" style=""width:8cm; height:6.840000000000001cm;""><p>What type of rock is this?</p>","2","class_response","1","train","28","Diorite","Andesite","06","false","3","1","",""
"","","","","","","","","","","","html-button-response","160","2.0.0","545193","67177dc558c22e03d6799712","2","11","1007","","","","","","","","","<img src= rock_img/I_Andesite_06.jpg style=""width:8cm; height:6.840000000000001cm;""><p style='font-size: 30px; color: red;'><strong>Incorrect!</strong></p><p style='font-size: 30px;'><strong>This rock is andesite</strong></p>","0","corr_feedback","1","train","28","","","","","","","",""
"","","","","","","","","","","","html-button-response","161","2.0.0","547610","67177dc558c22e03d6799712","2","11","2416","","","","","","","","","<img src= ""rock_img/I_Peridotite_16.jpg"" style=""width:8cm; height:6.989999999999999cm;""><p>What type of rock is this?</p>","4","class_response","1","train","29","Obsidian","Peridotite","16","false","5","7","",""
"","","","","","","","","","","","html-button-response","162","2.0.0","548658","67177dc558c22e03d6799712","2","11","1047","","","","","","","","","<img src= rock_img/I_Peridotite_16.jpg style=""width:8cm; height:6.989999999999999cm;""><p style='font-size: 30px; color: red;'><strong>Incorrect!</strong></p><p style='font-size: 30px;'><strong>This rock is peridotite</strong></p>","0","corr_feedback","1","train","29","","","","","","","",""
"","","","","","","","","","","","html-button-response","163","2.0.0","549946","67177dc558c22e03d6799712","2","11","1287","","","","","","","","","<img src= ""rock_img/I_Obsidian_02.jpg"" style=""width:8cm; height:7.51cm;""><p>What type of rock is this?</p>","4","class_response","1","train","30","Obsidian","Obsidian","02","true","5","5","",""
"","","","","","","","","","","","html-button-response","164","2.0.0","551090","67177dc558c22e03d6799712","2","11","1143","","","","","","","","","<img src= rock_img/I_Obsidian_02.jpg style=""width:8cm; height:7.51cm;""><p style='font-size: 30px; color: green;'><strong>Correct!</strong></p><p style='font-size: 30px;'><strong>This rock is obsidian</strong></p>","0","corr_feedback","1","train","30","","","","","","","",""
"","","","","","","","","","","","html-button-response","165","2.0.0","553546","67177dc558c22e03d6799712","2","11","2456","","","","","","","","","<img src= ""rock_img/I_Diorite_09.jpg"" style=""width:8cm; height:5.27cm;""><p>What type of rock is this?</p>","2","class_response","1","train","31","Diorite","Diorite","09","true","3","3","",""
"","","","","","","","","","","","html-button-response","166","2.0.0","554594","67177dc558c22e03d6799712","2","11","1047","","","","","","","","","<img src= rock_img/I_Diorite_09.jpg style=""width:8cm; height:5.27cm;""><p style='font-size: 30px; color: green;'><strong>Correct!</strong></p><p style='font-size: 30px;'><strong>This rock is diorite</strong></p>","0","corr_feedback","1","train","31","","","","","","","",""
"","","","","","","","","","","","html-button-response","167","2.0.0","557603","67177dc558c22e03d6799712","2","11","3008","","","","","","","","","<img src= ""rock_img/I_Diorite_16.jpg"" style=""width:8cm; height:6.74cm;""><p>What type of rock is this?</p>","2","class_response","1","train","32","Diorite","Diorite","16","true","3","3","",""
"","","","","","","","","","","","html-button-response","168","2.0.0","558939","67177dc558c22e03d6799712","2","11","1335","","","","","","","","","<img src= rock_img/I_Diorite_16.jpg style=""width:8cm; height:6.74cm;""><p style='font-size: 30px; color: green;'><strong>Correct!</strong></p><p style='font-size: 30px;'><strong>This rock is diorite</strong></p>","0","corr_feedback","1","train","32","","","","","","","",""
"","","","","","","","","","","","html-button-response","169","2.0.0","561195","67177dc558c22e03d6799712","2","11","2255","","","","","","","","","<img src= ""rock_img/I_Pegmatite_11.jpg"" style=""width:8cm; height:8.14cm;""><p>What type of rock is this?</p>","0","class_response","1","train","33","Andesite","Pegmatite","11","false","1","6","",""
"","","","","","","","","","","","html-button-response","170","2.0.0","562363","67177dc558c22e03d6799712","2","11","1167","","","","","","","","","<img src= rock_img/I_Pegmatite_11.jpg style=""width:8cm; height:8.14cm;""><p style='font-size: 30px; color: red;'><strong>Incorrect!</strong></p><p style='font-size: 30px;'><strong>This rock is pegmatite</strong></p>","0","corr_feedback","1","train","33","","","","","","","",""
"","","","","","","","","","","","html-button-response","171","2.0.0","567212","67177dc558c22e03d6799712","2","11","4848","","","","","","","","","<img src= ""rock_img/I_Gabbro_09.jpg"" style=""width:8cm; height:7.279999999999999cm;""><p>What type of rock is this?</p>","5","class_response","1","train","34","Pegmatite","Gabbro","09","false","6","4","",""
"","","","","","","","","","","","html-button-response","172","2.0.0","568340","67177dc558c22e03d6799712","2","11","1127","","","","","","","","","<img src= rock_img/I_Gabbro_09.jpg style=""width:8cm; height:7.279999999999999cm;""><p style='font-size: 30px; color: red;'><strong>Incorrect!</strong></p><p style='font-size: 30px;'><strong>This rock is gabbro</strong></p>","0","corr_feedback","1","train","34","","","","","","","",""
"","","","","","","","","","","","html-button-response","173","2.0.0","570364","67177dc558c22e03d6799712","2","11","2023","","","","","","","","","<img src= ""rock_img/I_Peridotite_12.jpg"" style=""width:8cm; height:4.54cm;""><p>What type of rock is this?</p>","2","class_response","1","train","35","Diorite","Peridotite","12","false","3","7","",""
"","","","","","","","","","","","html-button-response","174","2.0.0","571636","67177dc558c22e03d6799712","2","11","1271","","","","","","","","","<img src= rock_img/I_Peridotite_12.jpg style=""width:8cm; height:4.54cm;""><p style='font-size: 30px; color: red;'><strong>Incorrect!</strong></p><p style='font-size: 30px;'><strong>This rock is peridotite</strong></p>","0","corr_feedback","1","train","35","","","","","","","",""
"","","","","","","","","","","","html-button-response","175","2.0.0","573493","67177dc558c22e03d6799712","2","11","1855","","","","","","","","","<img src= ""rock_img/I_Basalt_05.jpg"" style=""width:8cm; height:8.18cm;""><p>What type of rock is this?</p>","1","class_response","1","train","36","Basalt","Basalt","05","true","2","2","",""
"","","","","","","","","","","","html-button-response","176","2.0.0","574509","67177dc558c22e03d6799712","2","11","1015","","","","","","","","","<img src= rock_img/I_Basalt_05.jpg style=""width:8cm; height:8.18cm;""><p style='font-size: 30px; color: green;'><strong>Correct!</strong></p><p style='font-size: 30px;'><strong>This rock is basalt</strong></p>","0","corr_feedback","1","train","36","","","","","","","",""
"","","","","","","","","","","","html-button-response","177","2.0.0","579413","67177dc558c22e03d6799712","2","11","4904","","","","","","","","","<img src= ""rock_img/I_Peridotite_06.jpg"" style=""width:8cm; height:7.53cm;""><p>What type of rock is this?</p>","0","class_response","1","train","37","Andesite","Peridotite","06","false","1","7","",""
"","","","","","","","","","","","html-button-response","178","2.0.0","580629","67177dc558c22e03d6799712","2","11","1215","","","","","","","","","<img src= rock_img/I_Peridotite_06.jpg style=""width:8cm; height:7.53cm;""><p style='font-size: 30px; color: red;'><strong>Incorrect!</strong></p><p style='font-size: 30px;'><strong>This rock is peridotite</strong></p>","0","corr_feedback","1","train","37","","","","","","","",""
"","","","","","","","","","","","html-button-response","179","2.0.0","582718","67177dc558c22e03d6799712","2","11","2088","","","","","","","","","<img src= ""rock_img/I_Peridotite_08.jpg"" style=""width:8cm; height:6.7cm;""><p>What type of rock is this?</p>","7","class_response","1","train","38","Pumice","Peridotite","08","false","8","7","",""
"","","","","","","","","","","","html-button-response","180","2.0.0","583998","67177dc558c22e03d6799712","2","11","1279","","","","","","","","","<img src= rock_img/I_Peridotite_08.jpg style=""width:8cm; height:6.7cm;""><p style='font-size: 30px; color: red;'><strong>Incorrect!</strong></p><p style='font-size: 30px;'><strong>This rock is peridotite</strong></p>","0","corr_feedback","1","train","38","","","","","","","",""
"","","","","","","","","","","","html-button-response","181","2.0.0","585902","67177dc558c22e03d6799712","2","11","1904","","","","","","","","","<img src= ""rock_img/I_Pegmatite_12.jpg"" style=""width:8cm; height:5.7cm;""><p>What type of rock is this?</p>","3","class_response","1","train","39","Gabbro","Pegmatite","12","false","4","6","",""
"","","","","","","","","","","","html-button-response","182","2.0.0","586822","67177dc558c22e03d6799712","2","11","919","","","","","","","","","<img src= rock_img/I_Pegmatite_12.jpg style=""width:8cm; height:5.7cm;""><p style='font-size: 30px; color: red;'><strong>Incorrect!</strong></p><p style='font-size: 30px;'><strong>This rock is pegmatite</strong></p>","0","corr_feedback","1","train","39","","","","","","","",""
"","","","","","","","","","","","html-button-response","183","2.0.0","588590","67177dc558c22e03d6799712","2","11","1767","","","","","","","","","<img src= ""rock_img/I_Basalt_16.jpg"" style=""width:8cm; height:7.659999999999999cm;""><p>What type of rock is this?</p>","7","class_response","1","train","40","Pumice","Basalt","16","false","8","2","",""
"","","","","","","","","","","","html-button-response","184","2.0.0","589927","67177dc558c22e03d6799712","2","11","1336","","","","","","","","","<img src= rock_img/I_Basalt_16.jpg style=""width:8cm; height:7.659999999999999cm;""><p style='font-size: 30px; color: red;'><strong>Incorrect!</strong></p><p style='font-size: 30px;'><strong>This rock is basalt</strong></p>","0","corr_feedback","1","train","40","","","","","","","",""
"","","","","","","","","","","","html-button-response","185","2.0.0","594743","67177dc558c22e03d6799712","2","11","4816","","","","","","","","","<img src= ""rock_img/I_Pegmatite_06.jpg"" style=""width:8cm; height:5.17cm;""><p>What type of rock is this?</p>","2","class_response","1","train","41","Diorite","Pegmatite","06","false","3","6","",""
"","","","","","","","","","","","html-button-response","186","2.0.0","595927","67177dc558c22e03d6799712","2","11","1183","","","","","","","","","<img src= rock_img/I_Pegmatite_06.jpg style=""width:8cm; height:5.17cm;""><p style='font-size: 30px; color: red;'><strong>Incorrect!</strong></p><p style='font-size: 30px;'><strong>This rock is pegmatite</strong></p>","0","corr_feedback","1","train","41","","","","","","","",""
"","","","","","","","","","","","html-button-response","187","2.0.0","598976","67177dc558c22e03d6799712","2","11","3048","","","","","","","","","<img src= ""rock_img/I_Gabbro_05.jpg"" style=""width:8cm; height:6cm;""><p>What type of rock is this?</p>","1","class_response","1","train","42","Basalt","Gabbro","05","false","2","4","",""
"","","","","","","","","","","","html-button-response","188","2.0.0","600208","67177dc558c22e03d6799712","2","11","1231","","","","","","","","","<img src= rock_img/I_Gabbro_05.jpg style=""width:8cm; height:6cm;""><p style='font-size: 30px; color: red;'><strong>Incorrect!</strong></p><p style='font-size: 30px;'><strong>This rock is gabbro</strong></p>","0","corr_feedback","1","train","42","","","","","","","",""
"","","","","","","","","","","","html-button-response","189","2.0.0","604016","67177dc558c22e03d6799712","2","11","3808","","","","","","","","","<img src= ""rock_img/I_Peridotite_14.jpg"" style=""width:8cm; height:5.3cm;""><p>What type of rock is this?</p>","1","class_response","1","train","43","Basalt","Peridotite","14","false","2","7","",""
"","","","","","","","","","","","html-button-response","190","2.0.0","605208","67177dc558c22e03d6799712","2","11","1191","","","","","","","","","<img src= rock_img/I_Peridotite_14.jpg style=""width:8cm; height:5.3cm;""><p style='font-size: 30px; color: red;'><strong>Incorrect!</strong></p><p style='font-size: 30px;'><strong>This rock is peridotite</strong></p>","0","corr_feedback","1","train","43","","","","","","","",""
"","","","","","","","","","","","html-button-response","191","2.0.0","613689","67177dc558c22e03d6799712","2","11","8480","","","","","","","","","<img src= ""rock_img/I_Pegmatite_15.jpg"" style=""width:8cm; height:6cm;""><p>What type of rock is this?</p>","0","class_response","1","train","44","Andesite","Pegmatite","15","false","1","6","",""
"","","","","","","","","","","","html-button-response","192","2.0.0","615370","67177dc558c22e03d6799712","2","11","1679","","","","","","","","","<img src= rock_img/I_Pegmatite_15.jpg style=""width:8cm; height:6cm;""><p style='font-size: 30px; color: red;'><strong>Incorrect!</strong></p><p style='font-size: 30px;'><strong>This rock is pegmatite</strong></p>","0","corr_feedback","1","train","44","","","","","","","",""
"","","","","","","","","","","","html-button-response","193","2.0.0","618578","67177dc558c22e03d6799712","2","11","3208","","","","","","","","","<img src= ""rock_img/I_Andesite_01.jpg"" style=""width:8cm; height:5.87cm;""><p>What type of rock is this?</p>","3","class_response","1","train","45","Gabbro","Andesite","01","false","4","1","",""
"","","","","","","","","","","","html-button-response","194","2.0.0","619722","67177dc558c22e03d6799712","2","11","1143","","","","","","","","","<img src= rock_img/I_Andesite_01.jpg style=""width:8cm; height:5.87cm;""><p style='font-size: 30px; color: red;'><strong>Incorrect!</strong></p><p style='font-size: 30px;'><strong>This rock is andesite</strong></p>","0","corr_feedback","1","train","45","","","","","","","",""
"","","","","","","","","","","","html-button-response","195","2.0.0","623074","67177dc558c22e03d6799712","2","11","3352","","","","","","","","","<img src= ""rock_img/I_Andesite_10.jpg"" style=""width:8cm; height:4.16cm;""><p>What type of rock is this?</p>","1","class_response","1","train","46","Basalt","Andesite","10","false","2","1","",""
"","","","","","","","","","","","html-button-response","196","2.0.0","624235","67177dc558c22e03d6799712","2","11","1159","","","","","","","","","<img src= rock_img/I_Andesite_10.jpg style=""width:8cm; height:4.16cm;""><p style='font-size: 30px; color: red;'><strong>Incorrect!</strong></p><p style='font-size: 30px;'><strong>This rock is andesite</strong></p>","0","corr_feedback","1","train","46","","","","","","","",""
"","","","","","","","","","","","html-button-response","197","2.0.0","629259","67177dc558c22e03d6799712","2","11","5024","","","","","","","","","<img src= ""rock_img/I_Peridotite_04.jpg"" style=""width:8cm; height:6.680000000000001cm;""><p>What type of rock is this?</p>","6","class_response","1","train","47","Peridotite","Peridotite","04","true","7","7","",""
"","","","","","","","","","","","html-button-response","198","2.0.0","631435","67177dc558c22e03d6799712","2","11","2175","","","","","","","","","<img src= rock_img/I_Peridotite_04.jpg style=""width:8cm; height:6.680000000000001cm;""><p style='font-size: 30px; color: green;'><strong>Correct!</strong></p><p style='font-size: 30px;'><strong>This rock is peridotite</strong></p>","0","corr_feedback","1","train","47","","","","","","","",""
"","","","","","","","","","","","html-button-response","199","2.0.0","632692","67177dc558c22e03d6799712","2","11","1255","","","","","","","","","<img src= ""rock_img/I_Basalt_02.jpg"" style=""width:8cm; height:6.45cm;""><p>What type of rock is this?</p>","1","class_response","1","train","48","Basalt","Basalt","02","true","2","2","",""
"","","","","","","","","","","","html-button-response","200","2.0.0","634020","67177dc558c22e03d6799712","2","11","1327","","","","","","","","","<img src= rock_img/I_Basalt_02.jpg style=""width:8cm; height:6.45cm;""><p style='font-size: 30px; color: green;'><strong>Correct!</strong></p><p style='font-size: 30px;'><strong>This rock is basalt</strong></p>","0","corr_feedback","1","train","48","","","","","","","",""
"","","","","","","","","","","","instructions","203","2.0.0","657607","67177dc558c22e03d6799712","2","11","23586","","","","","","","","[{""page_index"":0,""viewing_time"":6640},{""page_index"":1,""viewing_time"":16946}]","","","","","","","","","","","","","",""
"","","","","","","","","","","","html-button-response","204","2.0.0","658967","67177dc558c22e03d6799712","2","11","1359","","","","","","","","","","0","start_test","","","","","","","","","","",""
"","","","","","","","","","","","html-button-response","205","2.0.0","677769","67177dc558c22e03d6799712","2","11","18801","","","","","","","","","<img src= ""rock_img/I_Pegmatite_16.jpg"" style=""width:8cm; height:5.8cm;""><p>What type of rock is this?</p>","5","class_response","1","test","1","Pegmatite","Pegmatite","16","true","6","6","",""
"","","","","","","","","","","","html-keyboard-response","206","2.0.0","678272","67177dc558c22e03d6799712","2","11","null","","","","","","","","","<p style='font-size: 30px;'><strong>Okay</strong></p>","null","neutral_feedback","1","test","1","","","","","","","",""
"","","","","","","","","","","","html-button-response","207","2.0.0","679993","67177dc558c22e03d6799712","2","11","1721","","","","","","","","","<img src= ""rock_img/I_Obsidian_12.jpg"" style=""width:8cm; height:6.53cm;""><p>What type of rock is this?</p>","4","class_response","1","test","2","Obsidian","Obsidian","12","true","5","5","",""
"","","","","","","","","","","","html-keyboard-response","208","2.0.0","680494","67177dc558c22e03d6799712","2","11","null","","","","","","","","","<p style='font-size: 30px;'><strong>Okay</strong></p>","null","neutral_feedback","1","test","2","","","","","","","",""
"","","","","","","","","","","","html-button-response","209","2.0.0","696067","67177dc558c22e03d6799712","2","11","15573","","","","","","","","","<img src= ""rock_img/I_Gabbro_15.jpg"" style=""width:8cm; height:6.29cm;""><p>What type of rock is this?</p>","3","class_response","1","test","3","Gabbro","Gabbro","15","true","4","4","",""
"","","","","","","","","","","","html-keyboard-response","210","2.0.0","696568","67177dc558c22e03d6799712","2","11","null","","","","","","","","","<p style='font-size: 30px;'><strong>Okay</strong></p>","null","neutral_feedback","1","test","3","","","","","","","",""
"","","","","","","","","","","","html-button-response","211","2.0.0","698787","67177dc558c22e03d6799712","2","11","2219","","","","","","","","","<img src= ""rock_img/I_Basalt_04.jpg"" style=""width:8cm; height:7.53cm;""><p>What type of rock is this?</p>","1","class_response","1","test","4","Basalt","Basalt","04","true","2","2","",""
"","","","","","","","","","","","html-keyboard-response","212","2.0.0","699295","67177dc558c22e03d6799712","2","11","null","","","","","","","","","<p style='font-size: 30px;'><strong>Okay</strong></p>","null","neutral_feedback","1","test","4","","","","","","","",""
"","","","","","","","","","","","html-button-response","213","2.0.0","705668","67177dc558c22e03d6799712","2","11","6373","","","","","","","","","<img src= ""rock_img/I_Andesite_03.jpg"" style=""width:8cm; height:5.73cm;""><p>What type of rock is this?</p>","0","class_response","1","test","5","Andesite","Andesite","03","true","1","1","",""
"","","","","","","","","","","","html-keyboard-response","214","2.0.0","706174","67177dc558c22e03d6799712","2","11","null","","","","","","","","","<p style='font-size: 30px;'><strong>Okay</strong></p>","null","neutral_feedback","1","test","5","","","","","","","",""
"","","","","","","","","","","","html-button-response","215","2.0.0","738728","67177dc558c22e03d6799712","2","11","32553","","","","","","","","","<img src= ""rock_img/I_Basalt_11.jpg"" style=""width:8cm; height:5.359999999999999cm;""><p>What type of rock is this?</p>","7","class_response","1","test","6","Pumice","Basalt","11","false","8","2","",""
"","","","","","","","","","","","html-keyboard-response","216","2.0.0","739230","67177dc558c22e03d6799712","2","11","null","","","","","","","","","<p style='font-size: 30px;'><strong>Okay</strong></p>","null","neutral_feedback","1","test","6","","","","","","","",""
"","","","","","","","","","","","html-button-response","217","2.0.0","748081","67177dc558c22e03d6799712","2","11","8850","","","","","","","","","<img src= ""rock_img/I_Pegmatite_08.jpg"" style=""width:8cm; height:7.68cm;""><p>What type of rock is this?</p>","5","class_response","1","test","7","Pegmatite","Pegmatite","08","true","6","6","",""
"","","","","","","","","","","","html-keyboard-response","218","2.0.0","748593","67177dc558c22e03d6799712","2","11","null","","","","","","","","","<p style='font-size: 30px;'><strong>Okay</strong></p>","null","neutral_feedback","1","test","7","","","","","","","",""
"","","","","","","","","","","","html-button-response","219","2.0.0","755050","67177dc558c22e03d6799712","2","11","6457","","","","","","","","","<img src= ""rock_img/I_Peridotite_13.jpg"" style=""width:8cm; height:7.58cm;""><p>What type of rock is this?</p>","2","class_response","1","test","8","Diorite","Peridotite","13","false","3","7","",""
"","","","","","","","","","","","html-keyboard-response","220","2.0.0","755551","67177dc558c22e03d6799712","2","11","null","","","","","","","","","<p style='font-size: 30px;'><strong>Okay</strong></p>","null","neutral_feedback","1","test","8","","","","","","","",""
"","","","","","","","","","","","html-button-response","221","2.0.0","757419","67177dc558c22e03d6799712","2","11","1867","","","","","","","","","<img src= ""rock_img/I_Pumice_15.jpg"" style=""width:8cm; height:7.86cm;""><p>What type of rock is this?</p>","7","class_response","1","test","9","Pumice","Pumice","15","true","8","8","",""
"","","","","","","","","","","","html-keyboard-response","222","2.0.0","757920","67177dc558c22e03d6799712","2","11","null","","","","","","","","","<p style='font-size: 30px;'><strong>Okay</strong></p>","null","neutral_feedback","1","test","9","","","","","","","",""
"","","","","","","","","","","","html-button-response","223","2.0.0","763043","67177dc558c22e03d6799712","2","11","5122","","","","","","","","","<img src= ""rock_img/I_Diorite_08.jpg"" style=""width:8cm; height:6.37cm;""><p>What type of rock is this?</p>","0","class_response","1","test","10","Andesite","Diorite","08","false","1","3","",""
"","","","","","","","","","","","html-keyboard-response","224","2.0.0","763546","67177dc558c22e03d6799712","2","11","null","","","","","","","","","<p style='font-size: 30px;'><strong>Okay</strong></p>","null","neutral_feedback","1","test","10","","","","","","","",""
"","","","","","","","","","","","html-button-response","225","2.0.0","764963","67177dc558c22e03d6799712","2","11","1417","","","","","","","","","<img src= ""rock_img/I_Diorite_14.jpg"" style=""width:8cm; height:5.71cm;""><p>What type of rock is this?</p>","0","class_response","1","test","11","Andesite","Diorite","14","false","1","3","",""
"","","","","","","","","","","","html-keyboard-response","226","2.0.0","765467","67177dc558c22e03d6799712","2","11","null","","","","","","","","","<p style='font-size: 30px;'><strong>Okay</strong></p>","null","neutral_feedback","1","test","11","","","","","","","",""
"","","","","","","","","","","","html-button-response","227","2.0.0","773716","67177dc558c22e03d6799712","2","11","8249","","","","","","","","","<img src= ""rock_img/I_Peridotite_02.jpg"" style=""width:8cm; height:5.859999999999999cm;""><p>What type of rock is this?</p>","2","class_response","1","test","12","Diorite","Peridotite","02","false","3","7","",""
"","","","","","","","","","","","html-keyboard-response","228","2.0.0","774228","67177dc558c22e03d6799712","2","11","null","","","","","","","","","<p style='font-size: 30px;'><strong>Okay</strong></p>","null","neutral_feedback","1","test","12","","","","","","","",""
"","","","","","","","","","","","html-button-response","229","2.0.0","775949","67177dc558c22e03d6799712","2","11","1719","","","","","","","","","<img src= ""rock_img/I_Pumice_02.jpg"" style=""width:8cm; height:7.3999999999999995cm;""><p>What type of rock is this?</p>","7","class_response","1","test","13","Pumice","Pumice","02","true","8","8","",""
"","","","","","","","","","","","html-keyboard-response","230","2.0.0","776462","67177dc558c22e03d6799712","2","11","null","","","","","","","","","<p style='font-size: 30px;'><strong>Okay</strong></p>","null","neutral_feedback","1","test","13","","","","","","","",""
"","","","","","","","","","","","html-button-response","231","2.0.0","777829","67177dc558c22e03d6799712","2","11","1366","","","","","","","","","<img src= ""rock_img/I_Obsidian_07.jpg"" style=""width:8cm; height:4.76cm;""><p>What type of rock is this?</p>","4","class_response","1","test","14","Obsidian","Obsidian","07","true","5","5","",""
"","","","","","","","","","","","html-keyboard-response","232","2.0.0","778329","67177dc558c22e03d6799712","2","11","null","","","","","","","","","<p style='font-size: 30px;'><strong>Okay</strong></p>","null","neutral_feedback","1","test","14","","","","","","","",""
"","","","","","","","","","","","html-button-response","233","2.0.0","801792","67177dc558c22e03d6799712","2","11","23462","","","","","","","","","<img src= ""rock_img/I_Peridotite_05.jpg"" style=""width:8cm; height:7.1499999999999995cm;""><p>What type of rock is this?</p>","3","class_response","1","test","15","Gabbro","Peridotite","05","false","4","7","",""
"","","","","","","","","","","","html-keyboard-response","234","2.0.0","802292","67177dc558c22e03d6799712","2","11","null","","","","","","","","","<p style='font-size: 30px;'><strong>Okay</strong></p>","null","neutral_feedback","1","test","15","","","","","","","",""
"","","","","","","","","","","","html-button-response","235","2.0.0","804024","67177dc558c22e03d6799712","2","11","1731","","","","","","","","","<img src= ""rock_img/I_Pumice_10.jpg"" style=""width:8cm; height:7.609999999999999cm;""><p>What type of rock is this?</p>","7","class_response","1","test","16","Pumice","Pumice","10","true","8","8","",""
"","","","","","","","","","","","html-keyboard-response","236","2.0.0","804528","67177dc558c22e03d6799712","2","11","null","","","","","","","","","<p style='font-size: 30px;'><strong>Okay</strong></p>","null","neutral_feedback","1","test","16","","","","","","","",""
"","","","","","","","","","","","html-button-response","237","2.0.0","805832","67177dc558c22e03d6799712","2","11","1304","","","","","","","","","<img src= ""rock_img/I_Obsidian_08.jpg"" style=""width:8cm; height:7.39cm;""><p>What type of rock is this?</p>","4","class_response","1","test","17","Obsidian","Obsidian","08","true","5","5","",""
"","","","","","","","","","","","html-keyboard-response","238","2.0.0","806338","67177dc558c22e03d6799712","2","11","null","","","","","","","","","<p style='font-size: 30px;'><strong>Okay</strong></p>","null","neutral_feedback","1","test","17","","","","","","","",""
"","","","","","","","","","","","html-button-response","239","2.0.0","816209","67177dc558c22e03d6799712","2","11","9871","","","","","","","","","<img src= ""rock_img/I_Diorite_13.jpg"" style=""width:8cm; height:6.29cm;""><p>What type of rock is this?</p>","2","class_response","1","test","18","Diorite","Diorite","13","true","3","3","",""
"","","","","","","","","","","","html-keyboard-response","240","2.0.0","816710","67177dc558c22e03d6799712","2","11","null","","","","","","","","","<p style='font-size: 30px;'><strong>Okay</strong></p>","null","neutral_feedback","1","test","18","","","","","","","",""
"","","","","","","","","","","","html-button-response","241","2.0.0","824978","67177dc558c22e03d6799712","2","11","8268","","","","","","","","","<img src= ""rock_img/I_Diorite_15.jpg"" style=""width:8cm; height:5.54cm;""><p>What type of rock is this?</p>","2","class_response","1","test","19","Diorite","Diorite","15","true","3","3","",""
"","","","","","","","","","","","html-keyboard-response","242","2.0.0","825480","67177dc558c22e03d6799712","2","11","null","","","","","","","","","<p style='font-size: 30px;'><strong>Okay</strong></p>","null","neutral_feedback","1","test","19","","","","","","","",""
"","","","","","","","","","","","html-button-response","243","2.0.0","826979","67177dc558c22e03d6799712","2","11","1497","","","","","","","","","<img src= ""rock_img/I_Pumice_14.jpg"" style=""width:8cm; height:6.39cm;""><p>What type of rock is this?</p>","7","class_response","1","test","20","Pumice","Pumice","14","true","8","8","",""
"","","","","","","","","","","","html-keyboard-response","244","2.0.0","827480","67177dc558c22e03d6799712","2","11","null","","","","","","","","","<p style='font-size: 30px;'><strong>Okay</strong></p>","null","neutral_feedback","1","test","20","","","","","","","",""
"","","","","","","","","","","","html-button-response","245","2.0.0","830643","67177dc558c22e03d6799712","2","11","3162","","","","","","","","","<img src= ""rock_img/I_Gabbro_16.jpg"" style=""width:8cm; height:6.44cm;""><p>What type of rock is this?</p>","3","class_response","1","test","21","Gabbro","Gabbro","16","true","4","4","",""
"","","","","","","","","","","","html-keyboard-response","246","2.0.0","831144","67177dc558c22e03d6799712","2","11","null","","","","","","","","","<p style='font-size: 30px;'><strong>Okay</strong></p>","null","neutral_feedback","1","test","21","","","","","","","",""
"","","","","","","","","","","","html-button-response","247","2.0.0","833403","67177dc558c22e03d6799712","2","11","2259","","","","","","","","","<img src= ""rock_img/I_Peridotite_10.jpg"" style=""width:8cm; height:5.390000000000001cm;""><p>What type of rock is this?</p>","3","class_response","1","test","22","Gabbro","Peridotite","10","false","4","7","",""
"","","","","","","","","","","","html-keyboard-response","248","2.0.0","833907","67177dc558c22e03d6799712","2","11","null","","","","","","","","","<p style='font-size: 30px;'><strong>Okay</strong></p>","null","neutral_feedback","1","test","22","","","","","","","",""
"","","","","","","","","","","","html-button-response","249","2.0.0","835244","67177dc558c22e03d6799712","2","11","1336","","","","","","","","","<img src= ""rock_img/I_Basalt_08.jpg"" style=""width:8cm; height:10.44cm;""><p>What type of rock is this?</p>","1","class_response","1","test","23","Basalt","Basalt","08","true","2","2","",""
"","","","","","","","","","","","html-keyboard-response","250","2.0.0","835748","67177dc558c22e03d6799712","2","11","null","","","","","","","","","<p style='font-size: 30px;'><strong>Okay</strong></p>","null","neutral_feedback","1","test","23","","","","","","","",""
"","","","","","","","","","","","html-button-response","251","2.0.0","837212","67177dc558c22e03d6799712","2","11","1463","","","","","","","","","<img src= ""rock_img/I_Basalt_06.jpg"" style=""width:8cm; height:7.06cm;""><p>What type of rock is this?</p>","1","class_response","1","test","24","Basalt","Basalt","06","true","2","2","",""
"","","","","","","","","","","","html-keyboard-response","252","2.0.0","837716","67177dc558c22e03d6799712","2","11","null","","","","","","","","","<p style='font-size: 30px;'><strong>Okay</strong></p>","null","neutral_feedback","1","test","24","","","","","","","",""
"","","","","","","","","","","","html-button-response","253","2.0.0","864151","67177dc558c22e03d6799712","2","11","26435","","","","","","","","","<img src= ""rock_img/I_Basalt_14.jpg"" style=""width:8cm; height:5.82cm;""><p>What type of rock is this?</p>","0","class_response","1","test","25","Andesite","Basalt","14","false","1","2","",""
"","","","","","","","","","","","html-keyboard-response","254","2.0.0","864655","67177dc558c22e03d6799712","2","11","null","","","","","","","","","<p style='font-size: 30px;'><strong>Okay</strong></p>","null","neutral_feedback","1","test","25","","","","","","","",""
"","","","","","","","","","","","html-button-response","255","2.0.0","872640","67177dc558c22e03d6799712","2","11","7984","","","","","","","","","<img src= ""rock_img/I_Diorite_06.jpg"" style=""width:8cm; height:6.03cm;""><p>What type of rock is this?</p>","6","class_response","1","test","26","Peridotite","Diorite","06","false","7","3","",""
"","","","","","","","","","","","html-keyboard-response","256","2.0.0","873143","67177dc558c22e03d6799712","2","11","null","","","","","","","","","<p style='font-size: 30px;'><strong>Okay</strong></p>","null","neutral_feedback","1","test","26","","","","","","","",""
"","","","","","","","","","","","html-button-response","257","2.0.0","875032","67177dc558c22e03d6799712","2","11","1888","","","","","","","","","<img src= ""rock_img/I_Pegmatite_13.jpg"" style=""width:8cm; height:4.95cm;""><p>What type of rock is this?</p>","2","class_response","1","test","27","Diorite","Pegmatite","13","false","3","6","",""
"","","","","","","","","","","","html-keyboard-response","258","2.0.0","875540","67177dc558c22e03d6799712","2","11","null","","","","","","","","","<p style='font-size: 30px;'><strong>Okay</strong></p>","null","neutral_feedback","1","test","27","","","","","","","",""
"","","","","","","","","","","","html-button-response","259","2.0.0","877408","67177dc558c22e03d6799712","2","11","1868","","","","","","","","","<img src= ""rock_img/I_Gabbro_03.jpg"" style=""width:8cm; height:8.52cm;""><p>What type of rock is this?</p>","3","class_response","1","test","28","Gabbro","Gabbro","03","true","4","4","",""
"","","","","","","","","","","","html-keyboard-response","260","2.0.0","877909","67177dc558c22e03d6799712","2","11","null","","","","","","","","","<p style='font-size: 30px;'><strong>Okay</strong></p>","null","neutral_feedback","1","test","28","","","","","","","",""
"","","","","","","","","","","","html-button-response","261","2.0.0","879209","67177dc558c22e03d6799712","2","11","1299","","","","","","","","","<img src= ""rock_img/I_Obsidian_16.jpg"" style=""width:8cm; height:9.3cm;""><p>What type of rock is this?</p>","4","class_response","1","test","29","Obsidian","Obsidian","16","true","5","5","",""
"","","","","","","","","","","","html-keyboard-response","262","2.0.0","879709","67177dc558c22e03d6799712","2","11","null","","","","","","","","","<p style='font-size: 30px;'><strong>Okay</strong></p>","null","neutral_feedback","1","test","29","","","","","","","",""
"","","","","","","","","","","","html-button-response","263","2.0.0","881249","67177dc558c22e03d6799712","2","11","1539","","","","","","","","","<img src= ""rock_img/I_Pumice_03.jpg"" style=""width:8cm; height:6.64cm;""><p>What type of rock is this?</p>","7","class_response","1","test","30","Pumice","Pumice","03","true","8","8","",""
"","","","","","","","","","","","html-keyboard-response","264","2.0.0","881760","67177dc558c22e03d6799712","2","11","null","","","","","","","","","<p style='font-size: 30px;'><strong>Okay</strong></p>","null","neutral_feedback","1","test","30","","","","","","","",""
"","","","","","","","","","","","html-button-response","265","2.0.0","889618","67177dc558c22e03d6799712","2","11","7857","","","","","","","","","<img src= ""rock_img/I_Peridotite_07.jpg"" style=""width:8cm; height:4.83cm;""><p>What type of rock is this?</p>","3","class_response","1","test","31","Gabbro","Peridotite","07","false","4","7","",""
"","","","","","","","","","","","html-keyboard-response","266","2.0.0","890120","67177dc558c22e03d6799712","2","11","null","","","","","","","","","<p style='font-size: 30px;'><strong>Okay</strong></p>","null","neutral_feedback","1","test","31","","","","","","","",""
"","","","","","","","","","","","html-button-response","267","2.0.0","897283","67177dc558c22e03d6799712","2","11","7162","","","","","","","","","<img src= ""rock_img/I_Pegmatite_07.jpg"" style=""width:8cm; height:6.7cm;""><p>What type of rock is this?</p>","5","class_response","1","test","32","Pegmatite","Pegmatite","07","true","6","6","",""
"","","","","","","","","","","","html-keyboard-response","268","2.0.0","897790","67177dc558c22e03d6799712","2","11","null","","","","","","","","","<p style='font-size: 30px;'><strong>Okay</strong></p>","null","neutral_feedback","1","test","32","","","","","","","",""
"","","","","","","","","","","","html-button-response","269","2.0.0","899083","67177dc558c22e03d6799712","2","11","1292","","","","","","","","","<img src= ""rock_img/I_Pegmatite_10.jpg"" style=""width:8cm; height:4.16cm;""><p>What type of rock is this?</p>","5","class_response","1","test","33","Pegmatite","Pegmatite","10","true","6","6","",""
"","","","","","","","","","","","html-keyboard-response","270","2.0.0","899598","67177dc558c22e03d6799712","2","11","null","","","","","","","","","<p style='font-size: 30px;'><strong>Okay</strong></p>","null","neutral_feedback","1","test","33","","","","","","","",""
"","","","","","","","","","","","html-button-response","271","2.0.0","904428","67177dc558c22e03d6799712","2","11","4829","","","","","","","","","<img src= ""rock_img/I_Peridotite_15.jpg"" style=""width:8cm; height:6cm;""><p>What type of rock is this?</p>","0","class_response","1","test","34","Andesite","Peridotite","15","false","1","7","",""
"","","","","","","","","","","","html-keyboard-response","272","2.0.0","904928","67177dc558c22e03d6799712","2","11","null","","","","","","","","","<p style='font-size: 30px;'><strong>Okay</strong></p>","null","neutral_feedback","1","test","34","","","","","","","",""
"","","","","","","","","","","","html-button-response","273","2.0.0","906204","67177dc558c22e03d6799712","2","11","1275","","","","","","","","","<img src= ""rock_img/I_Basalt_09.jpg"" style=""width:8cm; height:6.2cm;""><p>What type of rock is this?</p>","1","class_response","1","test","35","Basalt","Basalt","09","true","2","2","",""
"","","","","","","","","","","","html-keyboard-response","274","2.0.0","906714","67177dc558c22e03d6799712","2","11","null","","","","","","","","","<p style='font-size: 30px;'><strong>Okay</strong></p>","null","neutral_feedback","1","test","35","","","","","","","",""
"","","","","","","","","","","","html-button-response","275","2.0.0","908020","67177dc558c22e03d6799712","2","11","1305","","","","","","","","","<img src= ""rock_img/I_Obsidian_05.jpg"" style=""width:8cm; height:6.33cm;""><p>What type of rock is this?</p>","4","class_response","1","test","36","Obsidian","Obsidian","05","true","5","5","",""
"","","","","","","","","","","","html-keyboard-response","276","2.0.0","908535","67177dc558c22e03d6799712","2","11","null","","","","","","","","","<p style='font-size: 30px;'><strong>Okay</strong></p>","null","neutral_feedback","1","test","36","","","","","","","",""
"","","","","","","","","","","","html-button-response","277","2.0.0","909868","67177dc558c22e03d6799712","2","11","1333","","","","","","","","","<img src= ""rock_img/I_Pumice_09.jpg"" style=""width:8cm; height:6.44cm;""><p>What type of rock is this?</p>","7","class_response","1","test","37","Pumice","Pumice","09","true","8","8","",""
"","","","","","","","","","","","html-keyboard-response","278","2.0.0","910378","67177dc558c22e03d6799712","2","11","null","","","","","","","","","<p style='font-size: 30px;'><strong>Okay</strong></p>","null","neutral_feedback","1","test","37","","","","","","","",""
"","","","","","","","","","","","html-button-response","279","2.0.0","916549","67177dc558c22e03d6799712","2","11","6171","","","","","","","","","<img src= ""rock_img/I_Andesite_05.jpg"" style=""width:8cm; height:4.12cm;""><p>What type of rock is this?</p>","3","class_response","1","test","38","Gabbro","Andesite","05","false","4","1","",""
"","","","","","","","","","","","html-keyboard-response","280","2.0.0","917063","67177dc558c22e03d6799712","2","11","null","","","","","","","","","<p style='font-size: 30px;'><strong>Okay</strong></p>","null","neutral_feedback","1","test","38","","","","","","","",""
"","","","","","","","","","","","html-button-response","281","2.0.0","928086","67177dc558c22e03d6799712","2","11","11022","","","","","","","","","<img src= ""rock_img/I_Pegmatite_03.jpg"" style=""width:8cm; height:5.239999999999999cm;""><p>What type of rock is this?</p>","5","class_response","1","test","39","Pegmatite","Pegmatite","03","true","6","6","",""
"","","","","","","","","","","","html-keyboard-response","282","2.0.0","928595","67177dc558c22e03d6799712","2","11","null","","","","","","","","","<p style='font-size: 30px;'><strong>Okay</strong></p>","null","neutral_feedback","1","test","39","","","","","","","",""
"","","","","","","","","","","","html-button-response","283","2.0.0","930759","67177dc558c22e03d6799712","2","11","2163","","","","","","","","","<img src= ""rock_img/I_Andesite_16.jpg"" style=""width:8cm; height:6.010000000000001cm;""><p>What type of rock is this?</p>","3","class_response","1","test","40","Gabbro","Andesite","16","false","4","1","",""
"","","","","","","","","","","","html-keyboard-response","284","2.0.0","931261","67177dc558c22e03d6799712","2","11","null","","","","","","","","","<p style='font-size: 30px;'><strong>Okay</strong></p>","null","neutral_feedback","1","test","40","","","","","","","",""
"","","","","","","","","","","","html-button-response","285","2.0.0","934199","67177dc558c22e03d6799712","2","11","2937","","","","","","","","","<img src= ""rock_img/I_Gabbro_13.jpg"" style=""width:8cm; height:5.08cm;""><p>What type of rock is this?</p>","0","class_response","1","test","41","Andesite","Gabbro","13","false","1","4","",""
"","","","","","","","","","","","html-keyboard-response","286","2.0.0","934700","67177dc558c22e03d6799712","2","11","null","","","","","","","","","<p style='font-size: 30px;'><strong>Okay</strong></p>","null","neutral_feedback","1","test","41","","","","","","","",""
"","","","","","","","","","","","html-button-response","287","2.0.0","937023","67177dc558c22e03d6799712","2","11","2322","","","","","","","","","<img src= ""rock_img/I_Gabbro_10.jpg"" style=""width:8cm; height:5.680000000000001cm;""><p>What type of rock is this?</p>","0","class_response","1","test","42","Andesite","Gabbro","10","false","1","4","",""
"","","","","","","","","","","","html-keyboard-response","288","2.0.0","937530","67177dc558c22e03d6799712","2","11","null","","","","","","","","","<p style='font-size: 30px;'><strong>Okay</strong></p>","null","neutral_feedback","1","test","42","","","","","","","",""
"","","","","","","","","","","","html-button-response","289","2.0.0","939032","67177dc558c22e03d6799712","2","11","1501","","","","","","","","","<img src= ""rock_img/I_Gabbro_11.jpg"" style=""width:8cm; height:6.2cm;""><p>What type of rock is this?</p>","3","class_response","1","test","43","Gabbro","Gabbro","11","true","4","4","",""
"","","","","","","","","","","","html-keyboard-response","290","2.0.0","939540","67177dc558c22e03d6799712","2","11","null","","","","","","","","","<p style='font-size: 30px;'><strong>Okay</strong></p>","null","neutral_feedback","1","test","43","","","","","","","",""
"","","","","","","","","","","","html-button-response","291","2.0.0","943944","67177dc558c22e03d6799712","2","11","4403","","","","","","","","","<img src= ""rock_img/I_Andesite_09.jpg"" style=""width:8cm; height:6cm;""><p>What type of rock is this?</p>","3","class_response","1","test","44","Gabbro","Andesite","09","false","4","1","",""
"","","","","","","","","","","","html-keyboard-response","292","2.0.0","944456","67177dc558c22e03d6799712","2","11","null","","","","","","","","","<p style='font-size: 30px;'><strong>Okay</strong></p>","null","neutral_feedback","1","test","44","","","","","","","",""
"","","","","","","","","","","","html-button-response","293","2.0.0","947585","67177dc558c22e03d6799712","2","11","3128","","","","","","","","","<img src= ""rock_img/I_Andesite_14.jpg"" style=""width:8cm; height:5.449999999999999cm;""><p>What type of rock is this?</p>","5","class_response","1","test","45","Pegmatite","Andesite","14","false","6","1","",""
"","","","","","","","","","","","html-keyboard-response","294","2.0.0","948096","67177dc558c22e03d6799712","2","11","null","","","","","","","","","<p style='font-size: 30px;'><strong>Okay</strong></p>","null","neutral_feedback","1","test","45","","","","","","","",""
"","","","","","","","","","","","html-button-response","295","2.0.0","950265","67177dc558c22e03d6799712","2","11","2168","","","","","","","","","<img src= ""rock_img/I_Andesite_04.jpg"" style=""width:8cm; height:5.96cm;""><p>What type of rock is this?</p>","5","class_response","1","test","46","Pegmatite","Andesite","04","false","6","1","",""
"","","","","","","","","","","","html-keyboard-response","296","2.0.0","950766","67177dc558c22e03d6799712","2","11","null","","","","","","","","","<p style='font-size: 30px;'><strong>Okay</strong></p>","null","neutral_feedback","1","test","46","","","","","","","",""
"","","","","","","","","","","","html-button-response","297","2.0.0","952585","67177dc558c22e03d6799712","2","11","1819","","","","","","","","","<img src= ""rock_img/I_Diorite_11.jpg"" style=""width:8cm; height:7.11cm;""><p>What type of rock is this?</p>","2","class_response","1","test","47","Diorite","Diorite","11","true","3","3","",""
"","","","","","","","","","","","html-keyboard-response","298","2.0.0","953094","67177dc558c22e03d6799712","2","11","null","","","","","","","","","<p style='font-size: 30px;'><strong>Okay</strong></p>","null","neutral_feedback","1","test","47","","","","","","","",""
"","","","","","","","","","","","html-button-response","299","2.0.0","954233","67177dc558c22e03d6799712","2","11","1139","","","","","","","","","<img src= ""rock_img/I_Obsidian_09.jpg"" style=""width:8cm; height:5cm;""><p>What type of rock is this?</p>","4","class_response","1","test","48","Obsidian","Obsidian","09","true","5","5","",""
"","","","","","","","","","","","html-keyboard-response","300","2.0.0","954737","67177dc558c22e03d6799712","2","11","null","","","","","","","","","<p style='font-size: 30px;'><strong>Okay</strong></p>","null","neutral_feedback","1","test","48","","","","","","","",""
"","","","","","","","","","","","html-button-response","301","2.0.0","980917","67177dc558c22e03d6799712","2","11","","","","","","","","","","","","cycle_feedback","","","","","","","","","","13086.400000095367","13089.5"
"","","","","","","","","","","","html-button-response","303","2.0.0","984029","67177dc558c22e03d6799712","2","11","3111","","","","","","","","","","0","start_train","","","","","","","","","","",""
"","","","","","","","","","","","html-button-response","304","2.0.0","985637","67177dc558c22e03d6799712","2","11","1607","","","","","","","","","<img src= ""rock_img/I_Pumice_06.jpg"" style=""width:8cm; height:6.9399999999999995cm;""><p>What type of rock is this?</p>","7","class_response","2","train","1","Pumice","Pumice","06","true","8","8","",""
