"width","height","webaudio","browser","browser_version","mobile","os","fullscreen","vsync_rate","webcam","microphone","trial_type","trial_index","plugin_version","time_elapsed","subjID","condition","stimID","rt","url","success","value","timeout","failed_images","failed_audio","failed_video","view_history","stimulus","response","trialType","cycle","phase","trial","resp","cat","token","corr","resp_num","cat_num","time_fb1","time_fb2"
"1344","671","true","chrome","131.0.0","false","Windows 10","true","60.28","false","false","browser-check","0","2.0.0","1009","5c2e693a86a578000141ca47","2","20","","","","","","","","","","","","","","","","","","","","","","",""
"","","","","","","","","","","","external-html","1","2.0.0","6242","5c2e693a86a578000141ca47","2","20","5136","consent_form.html","","","","","","","","","","","","","","","","","","","","",""
"","","","","","","","","","","","fullscreen","2","2.0.0","9275","5c2e693a86a578000141ca47","2","20","2028","","true","","","","","","","","","","","","","","","","","","","",""
"","","","","","","","","","","","call-function","3","2.0.0","9277","5c2e693a86a578000141ca47","2","20","","","","{}","","","","","","","","","","","","","","","","","","",""
"","","","","","","","","","","","preload","4","2.0.0","11352","5c2e693a86a578000141ca47","2","20","","","true","","false","[]","[]","[]","","","","","","","","","","","","","","",""
"","","","","","","","","","","","instructions","5","2.0.0","257782","5c2e693a86a578000141ca47","2","20","246429","","","","","","","","[{""page_index"":0,""viewing_time"":235343},{""page_index"":1,""viewing_time"":7530},{""page_index"":2,""viewing_time"":3556}]","","","","","","","","","","","","","",""
"","","","","","","","","","","","html-button-response","6","2.0.0","258972","5c2e693a86a578000141ca47","2","20","1189","","","","","","","","","","0","start_test","","","","","","","","","","",""
"","","","","","","","","","","","html-button-response","7","2.0.0","262314","5c2e693a86a578000141ca47","2","20","3341","","","","","","","","","<img src= ""rock_img/I_Andesite_14.jpg"" style=""width:8cm; height:5.449999999999999cm;""><p>What type of rock is this?</p>","1","class_response","0","test","1","Basalt","Andesite","14","false","2","1","",""
"","","","","","","","","","","","html-keyboard-response","8","2.0.0","262828","5c2e693a86a578000141ca47","2","20","null","","","","","","","","","<p style='font-size: 30px;'><strong>Okay</strong></p>","null","neutral_feedback","0","test","1","","","","","","","",""
"","","","","","","","","","","","html-button-response","9","2.0.0","265244","5c2e693a86a578000141ca47","2","20","2413","","","","","","","","","<img src= ""rock_img/I_Peridotite_12.jpg"" style=""width:8cm; height:4.54cm;""><p>What type of rock is this?</p>","7","class_response","0","test","2","Pumice","Peridotite","12","false","8","7","",""
"","","","","","","","","","","","html-keyboard-response","10","2.0.0","265746","5c2e693a86a578000141ca47","2","20","null","","","","","","","","","<p style='font-size: 30px;'><strong>Okay</strong></p>","null","neutral_feedback","0","test","2","","","","","","","",""
"","","","","","","","","","","","html-button-response","11","2.0.0","267674","5c2e693a86a578000141ca47","2","20","1926","","","","","","","","","<img src= ""rock_img/I_Peridotite_16.jpg"" style=""width:8cm; height:6.989999999999999cm;""><p>What type of rock is this?</p>","6","class_response","0","test","3","Peridotite","Peridotite","16","true","7","7","",""
"","","","","","","","","","","","html-keyboard-response","12","2.0.0","268181","5c2e693a86a578000141ca47","2","20","null","","","","","","","","","<p style='font-size: 30px;'><strong>Okay</strong></p>","null","neutral_feedback","0","test","3","","","","","","","",""
"","","","","","","","","","","","html-button-response","13","2.0.0","270377","5c2e693a86a578000141ca47","2","20","2194","","","","","","","","","<img src= ""rock_img/I_Andesite_11.jpg"" style=""width:8cm; height:4.92cm;""><p>What type of rock is this?</p>","0","class_response","0","test","4","Andesite","Andesite","11","true","1","1","",""
"","","","","","","","","","","","html-keyboard-response","14","2.0.0","270885","5c2e693a86a578000141ca47","2","20","null","","","","","","","","","<p style='font-size: 30px;'><strong>Okay</strong></p>","null","neutral_feedback","0","test","4","","","","","","","",""
"","","","","","","","","","","","html-button-response","15","2.0.0","272642","5c2e693a86a578000141ca47","2","20","1754","","","","","","","","","<img src= ""rock_img/I_Gabbro_13.jpg"" style=""width:8cm; height:5.08cm;""><p>What type of rock is this?</p>","5","class_response","0","test","5","Pegmatite","Gabbro","13","false","6","4","",""
"","","","","","","","","","","","html-keyboard-response","16","2.0.0","273153","5c2e693a86a578000141ca47","2","20","null","","","","","","","","","<p style='font-size: 30px;'><strong>Okay</strong></p>","null","neutral_feedback","0","test","5","","","","","","","",""
"","","","","","","","","","","","html-button-response","17","2.0.0","274148","5c2e693a86a578000141ca47","2","20","992","","","","","","","","","<img src= ""rock_img/I_Obsidian_11.jpg"" style=""width:8cm; height:6.05cm;""><p>What type of rock is this?</p>","4","class_response","0","test","6","Obsidian","Obsidian","11","true","5","5","",""
"","","","","","","","","","","","html-keyboard-response","18","2.0.0","274653","5c2e693a86a578000141ca47","2","20","null","","","","","","","","","<p style='font-size: 30px;'><strong>Okay</strong></p>","null","neutral_feedback","0","test","6","","","","","","","",""
"","","","","","","","","","","","html-button-response","19","2.0.0","276356","5c2e693a86a578000141ca47","2","20","1702","","","","","","","","","<img src= ""rock_img/I_Gabbro_16.jpg"" style=""width:8cm; height:6.44cm;""><p>What type of rock is this?</p>","2","class_response","0","test","7","Diorite","Gabbro","16","false","3","4","",""
"","","","","","","","","","","","html-keyboard-response","20","2.0.0","276864","5c2e693a86a578000141ca47","2","20","null","","","","","","","","","<p style='font-size: 30px;'><strong>Okay</strong></p>","null","neutral_feedback","0","test","7","","","","","","","",""
"","","","","","","","","","","","html-button-response","21","2.0.0","278188","5c2e693a86a578000141ca47","2","20","1322","","","","","","","","","<img src= ""rock_img/I_Pegmatite_15.jpg"" style=""width:8cm; height:6cm;""><p>What type of rock is this?</p>","3","class_response","0","test","8","Gabbro","Pegmatite","15","false","4","6","",""
"","","","","","","","","","","","html-keyboard-response","22","2.0.0","278690","5c2e693a86a578000141ca47","2","20","null","","","","","","","","","<p style='font-size: 30px;'><strong>Okay</strong></p>","null","neutral_feedback","0","test","8","","","","","","","",""
"","","","","","","","","","","","html-button-response","23","2.0.0","280990","5c2e693a86a578000141ca47","2","20","2298","","","","","","","","","<img src= ""rock_img/I_Peridotite_14.jpg"" style=""width:8cm; height:5.3cm;""><p>What type of rock is this?</p>","1","class_response","0","test","9","Basalt","Peridotite","14","false","2","7","",""
"","","","","","","","","","","","html-keyboard-response","24","2.0.0","281491","5c2e693a86a578000141ca47","2","20","null","","","","","","","","","<p style='font-size: 30px;'><strong>Okay</strong></p>","null","neutral_feedback","0","test","9","","","","","","","",""
"","","","","","","","","","","","html-button-response","25","2.0.0","283174","5c2e693a86a578000141ca47","2","20","1681","","","","","","","","","<img src= ""rock_img/I_Pumice_13.jpg"" style=""width:8cm; height:8.200000000000001cm;""><p>What type of rock is this?</p>","0","class_response","0","test","10","Andesite","Pumice","13","false","1","8","",""
"","","","","","","","","","","","html-keyboard-response","26","2.0.0","283676","5c2e693a86a578000141ca47","2","20","null","","","","","","","","","<p style='font-size: 30px;'><strong>Okay</strong></p>","null","neutral_feedback","0","test","10","","","","","","","",""
"","","","","","","","","","","","html-button-response","27","2.0.0","285140","5c2e693a86a578000141ca47","2","20","1462","","","","","","","","","<img src= ""rock_img/I_Pegmatite_08.jpg"" style=""width:8cm; height:7.68cm;""><p>What type of rock is this?</p>","4","class_response","0","test","11","Obsidian","Pegmatite","08","false","5","6","",""
"","","","","","","","","","","","html-keyboard-response","28","2.0.0","285641","5c2e693a86a578000141ca47","2","20","null","","","","","","","","","<p style='font-size: 30px;'><strong>Okay</strong></p>","null","neutral_feedback","0","test","11","","","","","","","",""
"","","","","","","","","","","","html-button-response","29","2.0.0","287602","5c2e693a86a578000141ca47","2","20","1959","","","","","","","","","<img src= ""rock_img/I_Diorite_12.jpg"" style=""width:8cm; height:4.88cm;""><p>What type of rock is this?</p>","7","class_response","0","test","12","Pumice","Diorite","12","false","8","3","",""
"","","","","","","","","","","","html-keyboard-response","30","2.0.0","288113","5c2e693a86a578000141ca47","2","20","null","","","","","","","","","<p style='font-size: 30px;'><strong>Okay</strong></p>","null","neutral_feedback","0","test","12","","","","","","","",""
"","","","","","","","","","","","html-button-response","31","2.0.0","289242","5c2e693a86a578000141ca47","2","20","1128","","","","","","","","","<img src= ""rock_img/I_Pumice_02.jpg"" style=""width:8cm; height:7.3999999999999995cm;""><p>What type of rock is this?</p>","7","class_response","0","test","13","Pumice","Pumice","02","true","8","8","",""
"","","","","","","","","","","","html-keyboard-response","32","2.0.0","289748","5c2e693a86a578000141ca47","2","20","null","","","","","","","","","<p style='font-size: 30px;'><strong>Okay</strong></p>","null","neutral_feedback","0","test","13","","","","","","","",""
"","","","","","","","","","","","html-button-response","33","2.0.0","292736","5c2e693a86a578000141ca47","2","20","2986","","","","","","","","","<img src= ""rock_img/I_Andesite_03.jpg"" style=""width:8cm; height:5.73cm;""><p>What type of rock is this?</p>","0","class_response","0","test","14","Andesite","Andesite","03","true","1","1","",""
"","","","","","","","","","","","html-keyboard-response","34","2.0.0","293251","5c2e693a86a578000141ca47","2","20","null","","","","","","","","","<p style='font-size: 30px;'><strong>Okay</strong></p>","null","neutral_feedback","0","test","14","","","","","","","",""
"","","","","","","","","","","","html-button-response","35","2.0.0","294422","5c2e693a86a578000141ca47","2","20","1169","","","","","","","","","<img src= ""rock_img/I_Pumice_14.jpg"" style=""width:8cm; height:6.39cm;""><p>What type of rock is this?</p>","7","class_response","0","test","15","Pumice","Pumice","14","true","8","8","",""
"","","","","","","","","","","","html-keyboard-response","36","2.0.0","294936","5c2e693a86a578000141ca47","2","20","null","","","","","","","","","<p style='font-size: 30px;'><strong>Okay</strong></p>","null","neutral_feedback","0","test","15","","","","","","","",""
"","","","","","","","","","","","html-button-response","37","2.0.0","296647","5c2e693a86a578000141ca47","2","20","1711","","","","","","","","","<img src= ""rock_img/I_Gabbro_12.jpg"" style=""width:8cm; height:7.800000000000001cm;""><p>What type of rock is this?</p>","6","class_response","0","test","16","Peridotite","Gabbro","12","false","7","4","",""
"","","","","","","","","","","","html-keyboard-response","38","2.0.0","297148","5c2e693a86a578000141ca47","2","20","null","","","","","","","","","<p style='font-size: 30px;'><strong>Okay</strong></p>","null","neutral_feedback","0","test","16","","","","","","","",""
"","","","","","","","","","","","html-button-response","39","2.0.0","298346","5c2e693a86a578000141ca47","2","20","1196","","","","","","","","","<img src= ""rock_img/I_Pegmatite_07.jpg"" style=""width:8cm; height:6.7cm;""><p>What type of rock is this?</p>","6","class_response","0","test","17","Peridotite","Pegmatite","07","false","7","6","",""
"","","","","","","","","","","","html-keyboard-response","40","2.0.0","298855","5c2e693a86a578000141ca47","2","20","null","","","","","","","","","<p style='font-size: 30px;'><strong>Okay</strong></p>","null","neutral_feedback","0","test","17","","","","","","","",""
"","","","","","","","","","","","html-button-response","41","2.0.0","300258","5c2e693a86a578000141ca47","2","20","1401","","","","","","","","","<img src= ""rock_img/I_Pumice_08.jpg"" style=""width:8cm; height:6.67cm;""><p>What type of rock is this?</p>","7","class_response","0","test","18","Pumice","Pumice","08","true","8","8","",""
"","","","","","","","","","","","html-keyboard-response","42","2.0.0","300768","5c2e693a86a578000141ca47","2","20","null","","","","","","","","","<p style='font-size: 30px;'><strong>Okay</strong></p>","null","neutral_feedback","0","test","18","","","","","","","",""
"","","","","","","","","","","","html-button-response","43","2.0.0","302687","5c2e693a86a578000141ca47","2","20","1918","","","","","","","","","<img src= ""rock_img/I_Diorite_07.jpg"" style=""width:8cm; height:5.239999999999999cm;""><p>What type of rock is this?</p>","4","class_response","0","test","19","Obsidian","Diorite","07","false","5","3","",""
"","","","","","","","","","","","html-keyboard-response","44","2.0.0","303192","5c2e693a86a578000141ca47","2","20","null","","","","","","","","","<p style='font-size: 30px;'><strong>Okay</strong></p>","null","neutral_feedback","0","test","19","","","","","","","",""
"","","","","","","","","","","","html-button-response","45","2.0.0","305439","5c2e693a86a578000141ca47","2","20","2245","","","","","","","","","<img src= ""rock_img/I_Gabbro_09.jpg"" style=""width:8cm; height:7.279999999999999cm;""><p>What type of rock is this?</p>","4","class_response","0","test","20","Obsidian","Gabbro","09","false","5","4","",""
"","","","","","","","","","","","html-keyboard-response","46","2.0.0","305944","5c2e693a86a578000141ca47","2","20","null","","","","","","","","","<p style='font-size: 30px;'><strong>Okay</strong></p>","null","neutral_feedback","0","test","20","","","","","","","",""
"","","","","","","","","","","","html-button-response","47","2.0.0","307191","5c2e693a86a578000141ca47","2","20","1245","","","","","","","","","<img src= ""rock_img/I_Basalt_14.jpg"" style=""width:8cm; height:5.82cm;""><p>What type of rock is this?</p>","2","class_response","0","test","21","Diorite","Basalt","14","false","3","2","",""
"","","","","","","","","","","","html-keyboard-response","48","2.0.0","307697","5c2e693a86a578000141ca47","2","20","null","","","","","","","","","<p style='font-size: 30px;'><strong>Okay</strong></p>","null","neutral_feedback","0","test","21","","","","","","","",""
"","","","","","","","","","","","html-button-response","49","2.0.0","309258","5c2e693a86a578000141ca47","2","20","1559","","","","","","","","","<img src= ""rock_img/I_Peridotite_13.jpg"" style=""width:8cm; height:7.58cm;""><p>What type of rock is this?</p>","6","class_response","0","test","22","Peridotite","Peridotite","13","true","7","7","",""
"","","","","","","","","","","","html-keyboard-response","50","2.0.0","309763","5c2e693a86a578000141ca47","2","20","null","","","","","","","","","<p style='font-size: 30px;'><strong>Okay</strong></p>","null","neutral_feedback","0","test","22","","","","","","","",""
"","","","","","","","","","","","html-button-response","51","2.0.0","311641","5c2e693a86a578000141ca47","2","20","1877","","","","","","","","","<img src= ""rock_img/I_Basalt_06.jpg"" style=""width:8cm; height:7.06cm;""><p>What type of rock is this?</p>","4","class_response","0","test","23","Obsidian","Basalt","06","false","5","2","",""
"","","","","","","","","","","","html-keyboard-response","52","2.0.0","312155","5c2e693a86a578000141ca47","2","20","null","","","","","","","","","<p style='font-size: 30px;'><strong>Okay</strong></p>","null","neutral_feedback","0","test","23","","","","","","","",""
"","","","","","","","","","","","html-button-response","53","2.0.0","313545","5c2e693a86a578000141ca47","2","20","1389","","","","","","","","","<img src= ""rock_img/I_Pumice_16.jpg"" style=""width:8cm; height:6.79cm;""><p>What type of rock is this?</p>","7","class_response","0","test","24","Pumice","Pumice","16","true","8","8","",""
"","","","","","","","","","","","html-keyboard-response","54","2.0.0","314055","5c2e693a86a578000141ca47","2","20","null","","","","","","","","","<p style='font-size: 30px;'><strong>Okay</strong></p>","null","neutral_feedback","0","test","24","","","","","","","",""
"","","","","","","","","","","","html-button-response","55","2.0.0","314913","5c2e693a86a578000141ca47","2","20","857","","","","","","","","","<img src= ""rock_img/I_Pumice_06.jpg"" style=""width:8cm; height:6.9399999999999995cm;""><p>What type of rock is this?</p>","7","class_response","0","test","25","Pumice","Pumice","06","true","8","8","",""
"","","","","","","","","","","","html-keyboard-response","56","2.0.0","315422","5c2e693a86a578000141ca47","2","20","null","","","","","","","","","<p style='font-size: 30px;'><strong>Okay</strong></p>","null","neutral_feedback","0","test","25","","","","","","","",""
"","","","","","","","","","","","html-button-response","57","2.0.0","318099","5c2e693a86a578000141ca47","2","20","2675","","","","","","","","","<img src= ""rock_img/I_Diorite_14.jpg"" style=""width:8cm; height:5.71cm;""><p>What type of rock is this?</p>","3","class_response","0","test","26","Gabbro","Diorite","14","false","4","3","",""
"","","","","","","","","","","","html-keyboard-response","58","2.0.0","318603","5c2e693a86a578000141ca47","2","20","null","","","","","","","","","<p style='font-size: 30px;'><strong>Okay</strong></p>","null","neutral_feedback","0","test","26","","","","","","","",""
"","","","","","","","","","","","html-button-response","59","2.0.0","319436","5c2e693a86a578000141ca47","2","20","830","","","","","","","","","<img src= ""rock_img/I_Diorite_06.jpg"" style=""width:8cm; height:6.03cm;""><p>What type of rock is this?</p>","3","class_response","0","test","27","Gabbro","Diorite","06","false","4","3","",""
"","","","","","","","","","","","html-keyboard-response","60","2.0.0","319949","5c2e693a86a578000141ca47","2","20","null","","","","","","","","","<p style='font-size: 30px;'><strong>Okay</strong></p>","null","neutral_feedback","0","test","27","","","","","","","",""
"","","","","","","","","","","","html-button-response","61","2.0.0","321671","5c2e693a86a578000141ca47","2","20","1721","","","","","","","","","<img src= ""rock_img/I_Andesite_09.jpg"" style=""width:8cm; height:6cm;""><p>What type of rock is this?</p>","1","class_response","0","test","28","Basalt","Andesite","09","false","2","1","",""
"","","","","","","","","","","","html-keyboard-response","62","2.0.0","322176","5c2e693a86a578000141ca47","2","20","null","","","","","","","","","<p style='font-size: 30px;'><strong>Okay</strong></p>","null","neutral_feedback","0","test","28","","","","","","","",""
"","","","","","","","","","","","html-button-response","63","2.0.0","323397","5c2e693a86a578000141ca47","2","20","1220","","","","","","","","","<img src= ""rock_img/I_Peridotite_07.jpg"" style=""width:8cm; height:4.83cm;""><p>What type of rock is this?</p>","1","class_response","0","test","29","Basalt","Peridotite","07","false","2","7","",""
"","","","","","","","","","","","html-keyboard-response","64","2.0.0","323906","5c2e693a86a578000141ca47","2","20","null","","","","","","","","","<p style='font-size: 30px;'><strong>Okay</strong></p>","null","neutral_feedback","0","test","29","","","","","","","",""
"","","","","","","","","","","","html-button-response","65","2.0.0","326270","5c2e693a86a578000141ca47","2","20","2361","","","","","","","","","<img src= ""rock_img/I_Pegmatite_13.jpg"" style=""width:8cm; height:4.95cm;""><p>What type of rock is this?</p>","3","class_response","0","test","30","Gabbro","Pegmatite","13","false","4","6","",""
"","","","","","","","","","","","html-keyboard-response","66","2.0.0","326776","5c2e693a86a578000141ca47","2","20","null","","","","","","","","","<p style='font-size: 30px;'><strong>Okay</strong></p>","null","neutral_feedback","0","test","30","","","","","","","",""
"","","","","","","","","","","","html-button-response","67","2.0.0","327972","5c2e693a86a578000141ca47","2","20","1194","","","","","","","","","<img src= ""rock_img/I_Obsidian_12.jpg"" style=""width:8cm; height:6.53cm;""><p>What type of rock is this?</p>","4","class_response","0","test","31","Obsidian","Obsidian","12","true","5","5","",""
"","","","","","","","","","","","html-keyboard-response","68","2.0.0","328473","5c2e693a86a578000141ca47","2","20","null","","","","","","","","","<p style='font-size: 30px;'><strong>Okay</strong></p>","null","neutral_feedback","0","test","31","","","","","","","",""
"","","","","","","","","","","","html-button-response","69","2.0.0","330336","5c2e693a86a578000141ca47","2","20","1860","","","","","","","","","<img src= ""rock_img/I_Diorite_02.jpg"" style=""width:8cm; height:6.27cm;""><p>What type of rock is this?</p>","6","class_response","0","test","32","Peridotite","Diorite","02","false","7","3","",""
"","","","","","","","","","","","html-keyboard-response","70","2.0.0","330848","5c2e693a86a578000141ca47","2","20","null","","","","","","","","","<p style='font-size: 30px;'><strong>Okay</strong></p>","null","neutral_feedback","0","test","32","","","","","","","",""
"","","","","","","","","","","","html-button-response","71","2.0.0","332090","5c2e693a86a578000141ca47","2","20","1240","","","","","","","","","<img src= ""rock_img/I_Andesite_06.jpg"" style=""width:8cm; height:6.840000000000001cm;""><p>What type of rock is this?</p>","0","class_response","0","test","33","Andesite","Andesite","06","true","1","1","",""
"","","","","","","","","","","","html-keyboard-response","72","2.0.0","332598","5c2e693a86a578000141ca47","2","20","null","","","","","","","","","<p style='font-size: 30px;'><strong>Okay</strong></p>","null","neutral_feedback","0","test","33","","","","","","","",""
"","","","","","","","","","","","html-button-response","73","2.0.0","333772","5c2e693a86a578000141ca47","2","20","1172","","","","","","","","","<img src= ""rock_img/I_Obsidian_08.jpg"" style=""width:8cm; height:7.39cm;""><p>What type of rock is this?</p>","4","class_response","0","test","34","Obsidian","Obsidian","08","true","5","5","",""
"","","","","","","","","","","","html-keyboard-response","74","2.0.0","334283","5c2e693a86a578000141ca47","2","20","null","","","","","","","","","<p style='font-size: 30px;'><strong>Okay</strong></p>","null","neutral_feedback","0","test","34","","","","","","","",""
"","","","","","","","","","","","html-button-response","75","2.0.0","335382","5c2e693a86a578000141ca47","2","20","1096","","","","","","","","","<img src= ""rock_img/I_Obsidian_16.jpg"" style=""width:8cm; height:9.3cm;""><p>What type of rock is this?</p>","4","class_response","0","test","35","Obsidian","Obsidian","16","true","5","5","",""
"","","","","","","","","","","","html-keyboard-response","76","2.0.0","335893","5c2e693a86a578000141ca47","2","20","null","","","","","","","","","<p style='font-size: 30px;'><strong>Okay</strong></p>","null","neutral_feedback","0","test","35","","","","","","","",""
"","","","","","","","","","","","html-button-response","77","2.0.0","338383","5c2e693a86a578000141ca47","2","20","2488","","","","","","","","","<img src= ""rock_img/I_Gabbro_08.jpg"" style=""width:8cm; height:5.15cm;""><p>What type of rock is this?</p>","0","class_response","0","test","36","Andesite","Gabbro","08","false","1","4","",""
"","","","","","","","","","","","html-keyboard-response","78","2.0.0","338885","5c2e693a86a578000141ca47","2","20","null","","","","","","","","","<p style='font-size: 30px;'><strong>Okay</strong></p>","null","neutral_feedback","0","test","36","","","","","","","",""
"","","","","","","","","","","","html-button-response","79","2.0.0","339780","5c2e693a86a578000141ca47","2","20","893","","","","","","","","","<img src= ""rock_img/I_Diorite_11.jpg"" style=""width:8cm; height:7.11cm;""><p>What type of rock is this?</p>","1","class_response","0","test","37","Basalt","Diorite","11","false","2","3","",""
"","","","","","","","","","","","html-keyboard-response","80","2.0.0","340285","5c2e693a86a578000141ca47","2","20","null","","","","","","","","","<p style='font-size: 30px;'><strong>Okay</strong></p>","null","neutral_feedback","0","test","37","","","","","","","",""
"","","","","","","","","","","","html-button-response","81","2.0.0","341351","5c2e693a86a578000141ca47","2","20","1064","","","","","","","","","<img src= ""rock_img/I_Obsidian_02.jpg"" style=""width:8cm; height:7.51cm;""><p>What type of rock is this?</p>","4","class_response","0","test","38","Obsidian","Obsidian","02","true","5","5","",""
"","","","","","","","","","","","html-keyboard-response","82","2.0.0","341864","5c2e693a86a578000141ca47","2","20","null","","","","","","","","","<p style='font-size: 30px;'><strong>Okay</strong></p>","null","neutral_feedback","0","test","38","","","","","","","",""
"","","","","","","","","","","","html-button-response","83","2.0.0","343469","5c2e693a86a578000141ca47","2","20","1604","","","","","","","","","<img src= ""rock_img/I_Pegmatite_09.jpg"" style=""width:8cm; height:4.03cm;""><p>What type of rock is this?</p>","6","class_response","0","test","39","Peridotite","Pegmatite","09","false","7","6","",""
"","","","","","","","","","","","html-keyboard-response","84","2.0.0","343971","5c2e693a86a578000141ca47","2","20","null","","","","","","","","","<p style='font-size: 30px;'><strong>Okay</strong></p>","null","neutral_feedback","0","test","39","","","","","","","",""
"","","","","","","","","","","","html-button-response","85","2.0.0","345428","5c2e693a86a578000141ca47","2","20","1455","","","","","","","","","<img src= ""rock_img/I_Basalt_10.jpg"" style=""width:8cm; height:5.85cm;""><p>What type of rock is this?</p>","5","class_response","0","test","40","Pegmatite","Basalt","10","false","6","2","",""
"","","","","","","","","","","","html-keyboard-response","86","2.0.0","345940","5c2e693a86a578000141ca47","2","20","null","","","","","","","","","<p style='font-size: 30px;'><strong>Okay</strong></p>","null","neutral_feedback","0","test","40","","","","","","","",""
"","","","","","","","","","","","html-button-response","87","2.0.0","347615","5c2e693a86a578000141ca47","2","20","1673","","","","","","","","","<img src= ""rock_img/I_Gabbro_14.jpg"" style=""width:8cm; height:8.48cm;""><p>What type of rock is this?</p>","7","class_response","0","test","41","Pumice","Gabbro","14","false","8","4","",""
"","","","","","","","","","","","html-keyboard-response","88","2.0.0","348126","5c2e693a86a578000141ca47","2","20","null","","","","","","","","","<p style='font-size: 30px;'><strong>Okay</strong></p>","null","neutral_feedback","0","test","41","","","","","","","",""
"","","","","","","","","","","","html-button-response","89","2.0.0","349326","5c2e693a86a578000141ca47","2","20","1198","","","","","","","","","<img src= ""rock_img/I_Peridotite_15.jpg"" style=""width:8cm; height:6cm;""><p>What type of rock is this?</p>","6","class_response","0","test","42","Peridotite","Peridotite","15","true","7","7","",""
"","","","","","","","","","","","html-keyboard-response","90","2.0.0","349839","5c2e693a86a578000141ca47","2","20","null","","","","","","","","","<p style='font-size: 30px;'><strong>Okay</strong></p>","null","neutral_feedback","0","test","42","","","","","","","",""
"","","","","","","","","","","","html-button-response","91","2.0.0","351530","5c2e693a86a578000141ca47","2","20","1689","","","","","","","","","<img src= ""rock_img/I_Basalt_02.jpg"" style=""width:8cm; height:6.45cm;""><p>What type of rock is this?</p>","4","class_response","0","test","43","Obsidian","Basalt","02","false","5","2","",""
"","","","","","","","","","","","html-keyboard-response","92","2.0.0","352045","5c2e693a86a578000141ca47","2","20","null","","","","","","","","","<p style='font-size: 30px;'><strong>Okay</strong></p>","null","neutral_feedback","0","test","43","","","","","","","",""
"","","","","","","","","","","","html-button-response","93","2.0.0","354172","5c2e693a86a578000141ca47","2","20","2126","","","","","","","","","<img src= ""rock_img/I_Basalt_05.jpg"" style=""width:8cm; height:8.18cm;""><p>What type of rock is this?</p>","5","class_response","0","test","44","Pegmatite","Basalt","05","false","6","2","",""
"","","","","","","","","","","","html-keyboard-response","94","2.0.0","354680","5c2e693a86a578000141ca47","2","20","null","","","","","","","","","<p style='font-size: 30px;'><strong>Okay</strong></p>","null","neutral_feedback","0","test","44","","","","","","","",""
"","","","","","","","","","","","html-button-response","95","2.0.0","355911","5c2e693a86a578000141ca47","2","20","1229","","","","","","","","","<img src= ""rock_img/I_Andesite_16.jpg"" style=""width:8cm; height:6.010000000000001cm;""><p>What type of rock is this?</p>","1","class_response","0","test","45","Basalt","Andesite","16","false","2","1","",""
"","","","","","","","","","","","html-keyboard-response","96","2.0.0","356416","5c2e693a86a578000141ca47","2","20","null","","","","","","","","","<p style='font-size: 30px;'><strong>Okay</strong></p>","null","neutral_feedback","0","test","45","","","","","","","",""
"","","","","","","","","","","","html-button-response","97","2.0.0","357577","5c2e693a86a578000141ca47","2","20","1160","","","","","","","","","<img src= ""rock_img/I_Basalt_08.jpg"" style=""width:8cm; height:10.44cm;""><p>What type of rock is this?</p>","2","class_response","0","test","46","Diorite","Basalt","08","false","3","2","",""
"","","","","","","","","","","","html-keyboard-response","98","2.0.0","358085","5c2e693a86a578000141ca47","2","20","null","","","","","","","","","<p style='font-size: 30px;'><strong>Okay</strong></p>","null","neutral_feedback","0","test","46","","","","","","","",""
"","","","","","","","","","","","html-button-response","99","2.0.0","359244","5c2e693a86a578000141ca47","2","20","1157","","","","","","","","","<img src= ""rock_img/I_Pegmatite_11.jpg"" style=""width:8cm; height:8.14cm;""><p>What type of rock is this?</p>","3","class_response","0","test","47","Gabbro","Pegmatite","11","false","4","6","",""
"","","","","","","","","","","","html-keyboard-response","100","2.0.0","359753","5c2e693a86a578000141ca47","2","20","null","","","","","","","","","<p style='font-size: 30px;'><strong>Okay</strong></p>","null","neutral_feedback","0","test","47","","","","","","","",""
"","","","","","","","","","","","html-button-response","101","2.0.0","360994","5c2e693a86a578000141ca47","2","20","1239","","","","","","","","","<img src= ""rock_img/I_Obsidian_10.jpg"" style=""width:8cm; height:6.260000000000001cm;""><p>What type of rock is this?</p>","4","class_response","0","test","48","Obsidian","Obsidian","10","true","5","5","",""
"","","","","","","","","","","","html-keyboard-response","102","2.0.0","361506","5c2e693a86a578000141ca47","2","20","null","","","","","","","","","<p style='font-size: 30px;'><strong>Okay</strong></p>","null","neutral_feedback","0","test","48","","","","","","","",""
"","","","","","","","","","","","instructions","103","2.0.0","377705","5c2e693a86a578000141ca47","2","20","16183","","","","","","","","[{""page_index"":0,""viewing_time"":11679},{""page_index"":1,""viewing_time"":2134},{""page_index"":2,""viewing_time"":2370}]","","","","","","","","","","","","","",""
"","","","","","","","","","","","html-button-response","104","2.0.0","379071","5c2e693a86a578000141ca47","2","20","1365","","","","","","","","","","0","start_train","","","","","","","","","","",""
"","","","","","","","","","","","html-button-response","105","2.0.0","382833","5c2e693a86a578000141ca47","2","20","3761","","","","","","","","","<img src= ""rock_img/I_Andesite_01.jpg"" style=""width:8cm; height:5.87cm;""><p>What type of rock is this?</p>","0","class_response","1","train","1","Andesite","Andesite","01","true","1","1","",""
"","","","","","","","","","","","html-button-response","106","2.0.0","383960","5c2e693a86a578000141ca47","2","20","1125","","","","","","","","","<img src= rock_img/I_Andesite_01.jpg style=""width:8cm; height:5.87cm;""><p style='font-size: 30px; color: green;'><strong>Correct!</strong></p><p style='font-size: 30px;'><strong>This rock is andesite</strong></p>","0","corr_feedback","1","train","1","","","","","","","",""
"","","","","","","","","","","","html-button-response","107","2.0.0","385801","5c2e693a86a578000141ca47","2","20","1841","","","","","","","","","<img src= ""rock_img/I_Basalt_01.jpg"" style=""width:8cm; height:7.880000000000001cm;""><p>What type of rock is this?</p>","5","class_response","1","train","2","Pegmatite","Basalt","01","false","6","2","",""
"","","","","","","","","","","","html-button-response","108","2.0.0","387003","5c2e693a86a578000141ca47","2","20","1201","","","","","","","","","<img src= rock_img/I_Basalt_01.jpg style=""width:8cm; height:7.880000000000001cm;""><p style='font-size: 30px; color: red;'><strong>Incorrect!</strong></p><p style='font-size: 30px;'><strong>This rock is basalt</strong></p>","0","corr_feedback","1","train","2","","","","","","","",""
"","","","","","","","","","","","html-button-response","109","2.0.0","389599","5c2e693a86a578000141ca47","2","20","2595","","","","","","","","","<img src= ""rock_img/I_Basalt_04.jpg"" style=""width:8cm; height:7.53cm;""><p>What type of rock is this?</p>","0","class_response","1","train","3","Andesite","Basalt","04","false","1","2","",""
"","","","","","","","","","","","html-button-response","110","2.0.0","390773","5c2e693a86a578000141ca47","2","20","1174","","","","","","","","","<img src= rock_img/I_Basalt_04.jpg style=""width:8cm; height:7.53cm;""><p style='font-size: 30px; color: red;'><strong>Incorrect!</strong></p><p style='font-size: 30px;'><strong>This rock is basalt</strong></p>","0","corr_feedback","1","train","3","","","","","","","",""
"","","","","","","","","","","","html-button-response","111","2.0.0","392702","5c2e693a86a578000141ca47","2","20","1927","","","","","","","","","<img src= ""rock_img/I_Diorite_16.jpg"" style=""width:8cm; height:6.74cm;""><p>What type of rock is this?</p>","3","class_response","1","train","4","Gabbro","Diorite","16","false","4","3","",""
"","","","","","","","","","","","html-button-response","112","2.0.0","393961","5c2e693a86a578000141ca47","2","20","1259","","","","","","","","","<img src= rock_img/I_Diorite_16.jpg style=""width:8cm; height:6.74cm;""><p style='font-size: 30px; color: red;'><strong>Incorrect!</strong></p><p style='font-size: 30px;'><strong>This rock is diorite</strong></p>","0","corr_feedback","1","train","4","","","","","","","",""
"","","","","","","","","","","","html-button-response","113","2.0.0","395824","5c2e693a86a578000141ca47","2","20","1861","","","","","","","","","<img src= ""rock_img/I_Gabbro_10.jpg"" style=""width:8cm; height:5.680000000000001cm;""><p>What type of rock is this?</p>","1","class_response","1","train","5","Basalt","Gabbro","10","false","2","4","",""
"","","","","","","","","","","","html-button-response","114","2.0.0","396829","5c2e693a86a578000141ca47","2","20","1005","","","","","","","","","<img src= rock_img/I_Gabbro_10.jpg style=""width:8cm; height:5.680000000000001cm;""><p style='font-size: 30px; color: red;'><strong>Incorrect!</strong></p><p style='font-size: 30px;'><strong>This rock is gabbro</strong></p>","0","corr_feedback","1","train","5","","","","","","","",""
"","","","","","","","","","","","html-button-response","115","2.0.0","398599","5c2e693a86a578000141ca47","2","20","1769","","","","","","","","","<img src= ""rock_img/I_Andesite_04.jpg"" style=""width:8cm; height:5.96cm;""><p>What type of rock is this?</p>","3","class_response","1","train","6","Gabbro","Andesite","04","false","4","1","",""
"","","","","","","","","","","","html-button-response","116","2.0.0","399739","5c2e693a86a578000141ca47","2","20","1139","","","","","","","","","<img src= rock_img/I_Andesite_04.jpg style=""width:8cm; height:5.96cm;""><p style='font-size: 30px; color: red;'><strong>Incorrect!</strong></p><p style='font-size: 30px;'><strong>This rock is andesite</strong></p>","0","corr_feedback","1","train","6","","","","","","","",""
"","","","","","","","","","","","html-button-response","117","2.0.0","401084","5c2e693a86a578000141ca47","2","20","1343","","","","","","","","","<img src= ""rock_img/I_Gabbro_05.jpg"" style=""width:8cm; height:6cm;""><p>What type of rock is this?</p>","6","class_response","1","train","7","Peridotite","Gabbro","05","false","7","4","",""
"","","","","","","","","","","","html-button-response","118","2.0.0","402047","5c2e693a86a578000141ca47","2","20","963","","","","","","","","","<img src= rock_img/I_Gabbro_05.jpg style=""width:8cm; height:6cm;""><p style='font-size: 30px; color: red;'><strong>Incorrect!</strong></p><p style='font-size: 30px;'><strong>This rock is gabbro</strong></p>","0","corr_feedback","1","train","7","","","","","","","",""
"","","","","","","","","","","","html-button-response","119","2.0.0","404317","5c2e693a86a578000141ca47","2","20","2269","","","","","","","","","<img src= ""rock_img/I_Diorite_13.jpg"" style=""width:8cm; height:6.29cm;""><p>What type of rock is this?</p>","5","class_response","1","train","8","Pegmatite","Diorite","13","false","6","3","",""
"","","","","","","","","","","","html-button-response","120","2.0.0","405339","5c2e693a86a578000141ca47","2","20","1021","","","","","","","","","<img src= rock_img/I_Diorite_13.jpg style=""width:8cm; height:6.29cm;""><p style='font-size: 30px; color: red;'><strong>Incorrect!</strong></p><p style='font-size: 30px;'><strong>This rock is diorite</strong></p>","0","corr_feedback","1","train","8","","","","","","","",""
"","","","","","","","","","","","html-button-response","121","2.0.0","407444","5c2e693a86a578000141ca47","2","20","2103","","","","","","","","","<img src= ""rock_img/I_Pegmatite_16.jpg"" style=""width:8cm; height:5.8cm;""><p>What type of rock is this?</p>","6","class_response","1","train","9","Peridotite","Pegmatite","16","false","7","6","",""
"","","","","","","","","","","","html-button-response","122","2.0.0","408517","5c2e693a86a578000141ca47","2","20","1073","","","","","","","","","<img src= rock_img/I_Pegmatite_16.jpg style=""width:8cm; height:5.8cm;""><p style='font-size: 30px; color: red;'><strong>Incorrect!</strong></p><p style='font-size: 30px;'><strong>This rock is pegmatite</strong></p>","0","corr_feedback","1","train","9","","","","","","","",""
"","","","","","","","","","","","html-button-response","123","2.0.0","409694","5c2e693a86a578000141ca47","2","20","1175","","","","","","","","","<img src= ""rock_img/I_Peridotite_10.jpg"" style=""width:8cm; height:5.390000000000001cm;""><p>What type of rock is this?</p>","6","class_response","1","train","10","Peridotite","Peridotite","10","true","7","7","",""
"","","","","","","","","","","","html-button-response","124","2.0.0","410599","5c2e693a86a578000141ca47","2","20","905","","","","","","","","","<img src= rock_img/I_Peridotite_10.jpg style=""width:8cm; height:5.390000000000001cm;""><p style='font-size: 30px; color: green;'><strong>Correct!</strong></p><p style='font-size: 30px;'><strong>This rock is peridotite</strong></p>","0","corr_feedback","1","train","10","","","","","","","",""
"","","","","","","","","","","","html-button-response","125","2.0.0","412002","5c2e693a86a578000141ca47","2","20","1402","","","","","","","","","<img src= ""rock_img/I_Obsidian_07.jpg"" style=""width:8cm; height:4.76cm;""><p>What type of rock is this?</p>","4","class_response","1","train","11","Obsidian","Obsidian","07","true","5","5","",""
"","","","","","","","","","","","html-button-response","126","2.0.0","412950","5c2e693a86a578000141ca47","2","20","947","","","","","","","","","<img src= rock_img/I_Obsidian_07.jpg style=""width:8cm; height:4.76cm;""><p style='font-size: 30px; color: green;'><strong>Correct!</strong></p><p style='font-size: 30px;'><strong>This rock is obsidian</strong></p>","0","corr_feedback","1","train","11","","","","","","","",""
"","","","","","","","","","","","html-button-response","127","2.0.0","414552","5c2e693a86a578000141ca47","2","20","1602","","","","","","","","","<img src= ""rock_img/I_Gabbro_01.jpg"" style=""width:8cm; height:5.21cm;""><p>What type of rock is this?</p>","1","class_response","1","train","12","Basalt","Gabbro","01","false","2","4","",""
"","","","","","","","","","","","html-button-response","128","2.0.0","415519","5c2e693a86a578000141ca47","2","20","966","","","","","","","","","<img src= rock_img/I_Gabbro_01.jpg style=""width:8cm; height:5.21cm;""><p style='font-size: 30px; color: red;'><strong>Incorrect!</strong></p><p style='font-size: 30px;'><strong>This rock is gabbro</strong></p>","0","corr_feedback","1","train","12","","","","","","","",""
"","","","","","","","","","","","html-button-response","129","2.0.0","418702","5c2e693a86a578000141ca47","2","20","3181","","","","","","","","","<img src= ""rock_img/I_Gabbro_15.jpg"" style=""width:8cm; height:6.29cm;""><p>What type of rock is this?</p>","2","class_response","1","train","13","Diorite","Gabbro","15","false","3","4","",""
"","","","","","","","","","","","html-button-response","130","2.0.0","419557","5c2e693a86a578000141ca47","2","20","855","","","","","","","","","<img src= rock_img/I_Gabbro_15.jpg style=""width:8cm; height:6.29cm;""><p style='font-size: 30px; color: red;'><strong>Incorrect!</strong></p><p style='font-size: 30px;'><strong>This rock is gabbro</strong></p>","0","corr_feedback","1","train","13","","","","","","","",""
"","","","","","","","","","","","html-button-response","131","2.0.0","420737","5c2e693a86a578000141ca47","2","20","1179","","","","","","","","","<img src= ""rock_img/I_Diorite_15.jpg"" style=""width:8cm; height:5.54cm;""><p>What type of rock is this?</p>","3","class_response","1","train","14","Gabbro","Diorite","15","false","4","3","",""
"","","","","","","","","","","","html-button-response","132","2.0.0","421601","5c2e693a86a578000141ca47","2","20","863","","","","","","","","","<img src= rock_img/I_Diorite_15.jpg style=""width:8cm; height:5.54cm;""><p style='font-size: 30px; color: red;'><strong>Incorrect!</strong></p><p style='font-size: 30px;'><strong>This rock is diorite</strong></p>","0","corr_feedback","1","train","14","","","","","","","",""
"","","","","","","","","","","","html-button-response","133","2.0.0","423383","5c2e693a86a578000141ca47","2","20","1781","","","","","","","","","<img src= ""rock_img/I_Gabbro_15.jpg"" style=""width:8cm; height:6.29cm;""><p>What type of rock is this?</p>","3","class_response","1","train","15","Gabbro","Gabbro","15","true","4","4","",""
"","","","","","","","","","","","html-button-response","134","2.0.0","424127","5c2e693a86a578000141ca47","2","20","743","","","","","","","","","<img src= rock_img/I_Gabbro_15.jpg style=""width:8cm; height:6.29cm;""><p style='font-size: 30px; color: green;'><strong>Correct!</strong></p><p style='font-size: 30px;'><strong>This rock is gabbro</strong></p>","0","corr_feedback","1","train","15","","","","","","","",""
"","","","","","","","","","","","html-button-response","135","2.0.0","425771","5c2e693a86a578000141ca47","2","20","1643","","","","","","","","","<img src= ""rock_img/I_Andesite_07.jpg"" style=""width:8cm; height:5.93cm;""><p>What type of rock is this?</p>","2","class_response","1","train","16","Diorite","Andesite","07","false","3","1","",""
"","","","","","","","","","","","html-button-response","136","2.0.0","426775","5c2e693a86a578000141ca47","2","20","1003","","","","","","","","","<img src= rock_img/I_Andesite_07.jpg style=""width:8cm; height:5.93cm;""><p style='font-size: 30px; color: red;'><strong>Incorrect!</strong></p><p style='font-size: 30px;'><strong>This rock is andesite</strong></p>","0","corr_feedback","1","train","16","","","","","","","",""
"","","","","","","","","","","","html-button-response","137","2.0.0","429267","5c2e693a86a578000141ca47","2","20","2491","","","","","","","","","<img src= ""rock_img/I_Diorite_09.jpg"" style=""width:8cm; height:5.27cm;""><p>What type of rock is this?</p>","3","class_response","1","train","17","Gabbro","Diorite","09","false","4","3","",""
"","","","","","","","","","","","html-button-response","138","2.0.0","429985","5c2e693a86a578000141ca47","2","20","717","","","","","","","","","<img src= rock_img/I_Diorite_09.jpg style=""width:8cm; height:5.27cm;""><p style='font-size: 30px; color: red;'><strong>Incorrect!</strong></p><p style='font-size: 30px;'><strong>This rock is diorite</strong></p>","0","corr_feedback","1","train","17","","","","","","","",""
"","","","","","","","","","","","html-button-response","139","2.0.0","431705","5c2e693a86a578000141ca47","2","20","1719","","","","","","","","","<img src= ""rock_img/I_Andesite_05.jpg"" style=""width:8cm; height:4.12cm;""><p>What type of rock is this?</p>","0","class_response","1","train","18","Andesite","Andesite","05","true","1","1","",""
"","","","","","","","","","","","html-button-response","140","2.0.0","432581","5c2e693a86a578000141ca47","2","20","875","","","","","","","","","<img src= rock_img/I_Andesite_05.jpg style=""width:8cm; height:4.12cm;""><p style='font-size: 30px; color: green;'><strong>Correct!</strong></p><p style='font-size: 30px;'><strong>This rock is andesite</strong></p>","0","corr_feedback","1","train","18","","","","","","","",""
"","","","","","","","","","","","html-button-response","141","2.0.0","434716","5c2e693a86a578000141ca47","2","20","2133","","","","","","","","","<img src= ""rock_img/I_Diorite_16.jpg"" style=""width:8cm; height:6.74cm;""><p>What type of rock is this?</p>","3","class_response","1","train","19","Gabbro","Diorite","16","false","4","3","",""
"","","","","","","","","","","","html-button-response","142","2.0.0","435545","5c2e693a86a578000141ca47","2","20","829","","","","","","","","","<img src= rock_img/I_Diorite_16.jpg style=""width:8cm; height:6.74cm;""><p style='font-size: 30px; color: red;'><strong>Incorrect!</strong></p><p style='font-size: 30px;'><strong>This rock is diorite</strong></p>","0","corr_feedback","1","train","19","","","","","","","",""
"","","","","","","","","","","","html-button-response","143","2.0.0","437220","5c2e693a86a578000141ca47","2","20","1674","","","","","","","","","<img src= ""rock_img/I_Pegmatite_05.jpg"" style=""width:8cm; height:7.300000000000001cm;""><p>What type of rock is this?</p>","4","class_response","1","train","20","Obsidian","Pegmatite","05","false","5","6","",""
"","","","","","","","","","","","html-button-response","144","2.0.0","438349","5c2e693a86a578000141ca47","2","20","1129","","","","","","","","","<img src= rock_img/I_Pegmatite_05.jpg style=""width:8cm; height:7.300000000000001cm;""><p style='font-size: 30px; color: red;'><strong>Incorrect!</strong></p><p style='font-size: 30px;'><strong>This rock is pegmatite</strong></p>","0","corr_feedback","1","train","20","","","","","","","",""
"","","","","","","","","","","","html-button-response","145","2.0.0","442108","5c2e693a86a578000141ca47","2","20","3757","","","","","","","","","<img src= ""rock_img/I_Basalt_16.jpg"" style=""width:8cm; height:7.659999999999999cm;""><p>What type of rock is this?</p>","5","class_response","1","train","21","Pegmatite","Basalt","16","false","6","2","",""
"","","","","","","","","","","","html-button-response","146","2.0.0","442983","5c2e693a86a578000141ca47","2","20","874","","","","","","","","","<img src= rock_img/I_Basalt_16.jpg style=""width:8cm; height:7.659999999999999cm;""><p style='font-size: 30px; color: red;'><strong>Incorrect!</strong></p><p style='font-size: 30px;'><strong>This rock is basalt</strong></p>","0","corr_feedback","1","train","21","","","","","","","",""
"","","","","","","","","","","","html-button-response","147","2.0.0","444354","5c2e693a86a578000141ca47","2","20","1369","","","","","","","","","<img src= ""rock_img/I_Peridotite_05.jpg"" style=""width:8cm; height:7.1499999999999995cm;""><p>What type of rock is this?</p>","6","class_response","1","train","22","Peridotite","Peridotite","05","true","7","7","",""
"","","","","","","","","","","","html-button-response","148","2.0.0","444958","5c2e693a86a578000141ca47","2","20","603","","","","","","","","","<img src= rock_img/I_Peridotite_05.jpg style=""width:8cm; height:7.1499999999999995cm;""><p style='font-size: 30px; color: green;'><strong>Correct!</strong></p><p style='font-size: 30px;'><strong>This rock is peridotite</strong></p>","0","corr_feedback","1","train","22","","","","","","","",""
"","","","","","","","","","","","html-button-response","149","2.0.0","446999","5c2e693a86a578000141ca47","2","20","2041","","","","","","","","","<img src= ""rock_img/I_Diorite_10.jpg"" style=""width:8cm; height:5.949999999999999cm;""><p>What type of rock is this?</p>","1","class_response","1","train","23","Basalt","Diorite","10","false","2","3","",""
"","","","","","","","","","","","html-button-response","150","2.0.0","447729","5c2e693a86a578000141ca47","2","20","729","","","","","","","","","<img src= rock_img/I_Diorite_10.jpg style=""width:8cm; height:5.949999999999999cm;""><p style='font-size: 30px; color: red;'><strong>Incorrect!</strong></p><p style='font-size: 30px;'><strong>This rock is diorite</strong></p>","0","corr_feedback","1","train","23","","","","","","","",""
"","","","","","","","","","","","html-button-response","151","2.0.0","449453","5c2e693a86a578000141ca47","2","20","1723","","","","","","","","","<img src= ""rock_img/I_Basalt_12.jpg"" style=""width:8cm; height:6.010000000000001cm;""><p>What type of rock is this?</p>","7","class_response","1","train","24","Pumice","Basalt","12","false","8","2","",""
"","","","","","","","","","","","html-button-response","152","2.0.0","450785","5c2e693a86a578000141ca47","2","20","1331","","","","","","","","","<img src= rock_img/I_Basalt_12.jpg style=""width:8cm; height:6.010000000000001cm;""><p style='font-size: 30px; color: red;'><strong>Incorrect!</strong></p><p style='font-size: 30px;'><strong>This rock is basalt</strong></p>","0","corr_feedback","1","train","24","","","","","","","",""
"","","","","","","","","","","","html-button-response","153","2.0.0","453461","5c2e693a86a578000141ca47","2","20","2675","","","","","","","","","<img src= ""rock_img/I_Basalt_09.jpg"" style=""width:8cm; height:6.2cm;""><p>What type of rock is this?</p>","1","class_response","1","train","25","Basalt","Basalt","09","true","2","2","",""
"","","","","","","","","","","","html-button-response","154","2.0.0","454241","5c2e693a86a578000141ca47","2","20","779","","","","","","","","","<img src= rock_img/I_Basalt_09.jpg style=""width:8cm; height:6.2cm;""><p style='font-size: 30px; color: green;'><strong>Correct!</strong></p><p style='font-size: 30px;'><strong>This rock is basalt</strong></p>","0","corr_feedback","1","train","25","","","","","","","",""
"","","","","","","","","","","","html-button-response","155","2.0.0","455477","5c2e693a86a578000141ca47","2","20","1235","","","","","","","","","<img src= ""rock_img/I_Basalt_04.jpg"" style=""width:8cm; height:7.53cm;""><p>What type of rock is this?</p>","1","class_response","1","train","26","Basalt","Basalt","04","true","2","2","",""
"","","","","","","","","","","","html-button-response","156","2.0.0","456149","5c2e693a86a578000141ca47","2","20","671","","","","","","","","","<img src= rock_img/I_Basalt_04.jpg style=""width:8cm; height:7.53cm;""><p style='font-size: 30px; color: green;'><strong>Correct!</strong></p><p style='font-size: 30px;'><strong>This rock is basalt</strong></p>","0","corr_feedback","1","train","26","","","","","","","",""
"","","","","","","","","","","","html-button-response","157","2.0.0","458916","5c2e693a86a578000141ca47","2","20","2765","","","","","","","","","<img src= ""rock_img/I_Pegmatite_06.jpg"" style=""width:8cm; height:5.17cm;""><p>What type of rock is this?</p>","2","class_response","1","train","27","Diorite","Pegmatite","06","false","3","6","",""
"","","","","","","","","","","","html-button-response","158","2.0.0","459737","5c2e693a86a578000141ca47","2","20","821","","","","","","","","","<img src= rock_img/I_Pegmatite_06.jpg style=""width:8cm; height:5.17cm;""><p style='font-size: 30px; color: red;'><strong>Incorrect!</strong></p><p style='font-size: 30px;'><strong>This rock is pegmatite</strong></p>","0","corr_feedback","1","train","27","","","","","","","",""
"","","","","","","","","","","","html-button-response","159","2.0.0","461477","5c2e693a86a578000141ca47","2","20","1739","","","","","","","","","<img src= ""rock_img/I_Basalt_11.jpg"" style=""width:8cm; height:5.359999999999999cm;""><p>What type of rock is this?</p>","7","class_response","1","train","28","Pumice","Basalt","11","false","8","2","",""
"","","","","","","","","","","","html-button-response","160","2.0.0","462229","5c2e693a86a578000141ca47","2","20","752","","","","","","","","","<img src= rock_img/I_Basalt_11.jpg style=""width:8cm; height:5.359999999999999cm;""><p style='font-size: 30px; color: red;'><strong>Incorrect!</strong></p><p style='font-size: 30px;'><strong>This rock is basalt</strong></p>","0","corr_feedback","1","train","28","","","","","","","",""
"","","","","","","","","","","","html-button-response","161","2.0.0","464158","5c2e693a86a578000141ca47","2","20","1927","","","","","","","","","<img src= ""rock_img/I_Gabbro_03.jpg"" style=""width:8cm; height:8.52cm;""><p>What type of rock is this?</p>","2","class_response","1","train","29","Diorite","Gabbro","03","false","3","4","",""
"","","","","","","","","","","","html-button-response","162","2.0.0","465006","5c2e693a86a578000141ca47","2","20","847","","","","","","","","","<img src= rock_img/I_Gabbro_03.jpg style=""width:8cm; height:8.52cm;""><p style='font-size: 30px; color: red;'><strong>Incorrect!</strong></p><p style='font-size: 30px;'><strong>This rock is gabbro</strong></p>","0","corr_feedback","1","train","29","","","","","","","",""
"","","","","","","","","","","","html-button-response","163","2.0.0","466457","5c2e693a86a578000141ca47","2","20","1451","","","","","","","","","<img src= ""rock_img/I_Pumice_05.jpg"" style=""width:8cm; height:7.25cm;""><p>What type of rock is this?</p>","7","class_response","1","train","30","Pumice","Pumice","05","true","8","8","",""
"","","","","","","","","","","","html-button-response","164","2.0.0","467053","5c2e693a86a578000141ca47","2","20","595","","","","","","","","","<img src= rock_img/I_Pumice_05.jpg style=""width:8cm; height:7.25cm;""><p style='font-size: 30px; color: green;'><strong>Correct!</strong></p><p style='font-size: 30px;'><strong>This rock is pumice</strong></p>","0","corr_feedback","1","train","30","","","","","","","",""
"","","","","","","","","","","","html-button-response","165","2.0.0","468336","5c2e693a86a578000141ca47","2","20","1281","","","","","","","","","<img src= ""rock_img/I_Obsidian_05.jpg"" style=""width:8cm; height:6.33cm;""><p>What type of rock is this?</p>","4","class_response","1","train","31","Obsidian","Obsidian","05","true","5","5","",""
"","","","","","","","","","","","html-button-response","166","2.0.0","469041","5c2e693a86a578000141ca47","2","20","705","","","","","","","","","<img src= rock_img/I_Obsidian_05.jpg style=""width:8cm; height:6.33cm;""><p style='font-size: 30px; color: green;'><strong>Correct!</strong></p><p style='font-size: 30px;'><strong>This rock is obsidian</strong></p>","0","corr_feedback","1","train","31","","","","","","","",""
"","","","","","","","","","","","html-button-response","167","2.0.0","470164","5c2e693a86a578000141ca47","2","20","1121","","","","","","","","","<img src= ""rock_img/I_Pegmatite_03.jpg"" style=""width:8cm; height:5.239999999999999cm;""><p>What type of rock is this?</p>","6","class_response","1","train","32","Peridotite","Pegmatite","03","false","7","6","",""
"","","","","","","","","","","","html-button-response","168","2.0.0","471253","5c2e693a86a578000141ca47","2","20","1089","","","","","","","","","<img src= rock_img/I_Pegmatite_03.jpg style=""width:8cm; height:5.239999999999999cm;""><p style='font-size: 30px; color: red;'><strong>Incorrect!</strong></p><p style='font-size: 30px;'><strong>This rock is pegmatite</strong></p>","0","corr_feedback","1","train","32","","","","","","","",""
"","","","","","","","","","","","html-button-response","169","2.0.0","472339","5c2e693a86a578000141ca47","2","20","1085","","","","","","","","","<img src= ""rock_img/I_Diorite_08.jpg"" style=""width:8cm; height:6.37cm;""><p>What type of rock is this?</p>","6","class_response","1","train","33","Peridotite","Diorite","08","false","7","3","",""
"","","","","","","","","","","","html-button-response","170","2.0.0","473127","5c2e693a86a578000141ca47","2","20","787","","","","","","","","","<img src= rock_img/I_Diorite_08.jpg style=""width:8cm; height:6.37cm;""><p style='font-size: 30px; color: red;'><strong>Incorrect!</strong></p><p style='font-size: 30px;'><strong>This rock is diorite</strong></p>","0","corr_feedback","1","train","33","","","","","","","",""
"","","","","","","","","","","","html-button-response","171","2.0.0","474026","5c2e693a86a578000141ca47","2","20","897","","","","","","","","","<img src= ""rock_img/I_Peridotite_02.jpg"" style=""width:8cm; height:5.859999999999999cm;""><p>What type of rock is this?</p>","6","class_response","1","train","34","Peridotite","Peridotite","02","true","7","7","",""
"","","","","","","","","","","","html-button-response","172","2.0.0","474597","5c2e693a86a578000141ca47","2","20","571","","","","","","","","","<img src= rock_img/I_Peridotite_02.jpg style=""width:8cm; height:5.859999999999999cm;""><p style='font-size: 30px; color: green;'><strong>Correct!</strong></p><p style='font-size: 30px;'><strong>This rock is peridotite</strong></p>","0","corr_feedback","1","train","34","","","","","","","",""
"","","","","","","","","","","","html-button-response","173","2.0.0","476984","5c2e693a86a578000141ca47","2","20","2386","","","","","","","","","<img src= ""rock_img/I_Pegmatite_06.jpg"" style=""width:8cm; height:5.17cm;""><p>What type of rock is this?</p>","2","class_response","1","train","35","Diorite","Pegmatite","06","false","3","6","",""
"","","","","","","","","","","","html-button-response","174","2.0.0","477727","5c2e693a86a578000141ca47","2","20","743","","","","","","","","","<img src= rock_img/I_Pegmatite_06.jpg style=""width:8cm; height:5.17cm;""><p style='font-size: 30px; color: red;'><strong>Incorrect!</strong></p><p style='font-size: 30px;'><strong>This rock is pegmatite</strong></p>","0","corr_feedback","1","train","35","","","","","","","",""
"","","","","","","","","","","","html-button-response","175","2.0.0","479057","5c2e693a86a578000141ca47","2","20","1329","","","","","","","","","<img src= ""rock_img/I_Pegmatite_12.jpg"" style=""width:8cm; height:5.7cm;""><p>What type of rock is this?</p>","2","class_response","1","train","36","Diorite","Pegmatite","12","false","3","6","",""
"","","","","","","","","","","","html-button-response","176","2.0.0","479779","5c2e693a86a578000141ca47","2","20","721","","","","","","","","","<img src= rock_img/I_Pegmatite_12.jpg style=""width:8cm; height:5.7cm;""><p style='font-size: 30px; color: red;'><strong>Incorrect!</strong></p><p style='font-size: 30px;'><strong>This rock is pegmatite</strong></p>","0","corr_feedback","1","train","36","","","","","","","",""
"","","","","","","","","","","","html-button-response","177","2.0.0","481137","5c2e693a86a578000141ca47","2","20","1358","","","","","","","","","<img src= ""rock_img/I_Peridotite_04.jpg"" style=""width:8cm; height:6.680000000000001cm;""><p>What type of rock is this?</p>","2","class_response","1","train","37","Diorite","Peridotite","04","false","3","7","",""
"","","","","","","","","","","","html-button-response","178","2.0.0","481809","5c2e693a86a578000141ca47","2","20","671","","","","","","","","","<img src= rock_img/I_Peridotite_04.jpg style=""width:8cm; height:6.680000000000001cm;""><p style='font-size: 30px; color: red;'><strong>Incorrect!</strong></p><p style='font-size: 30px;'><strong>This rock is peridotite</strong></p>","0","corr_feedback","1","train","37","","","","","","","",""
"","","","","","","","","","","","html-button-response","179","2.0.0","483224","5c2e693a86a578000141ca47","2","20","1413","","","","","","","","","<img src= ""rock_img/I_Pegmatite_05.jpg"" style=""width:8cm; height:7.300000000000001cm;""><p>What type of rock is this?</p>","5","class_response","1","train","38","Pegmatite","Pegmatite","05","true","6","6","",""
"","","","","","","","","","","","html-button-response","180","2.0.0","483921","5c2e693a86a578000141ca47","2","20","697","","","","","","","","","<img src= rock_img/I_Pegmatite_05.jpg style=""width:8cm; height:7.300000000000001cm;""><p style='font-size: 30px; color: green;'><strong>Correct!</strong></p><p style='font-size: 30px;'><strong>This rock is pegmatite</strong></p>","0","corr_feedback","1","train","38","","","","","","","",""
"","","","","","","","","","","","html-button-response","181","2.0.0","486149","5c2e693a86a578000141ca47","2","20","2227","","","","","","","","","<img src= ""rock_img/I_Gabbro_03.jpg"" style=""width:8cm; height:8.52cm;""><p>What type of rock is this?</p>","1","class_response","1","train","39","Basalt","Gabbro","03","false","2","4","",""
"","","","","","","","","","","","html-button-response","182","2.0.0","486951","5c2e693a86a578000141ca47","2","20","801","","","","","","","","","<img src= rock_img/I_Gabbro_03.jpg style=""width:8cm; height:8.52cm;""><p style='font-size: 30px; color: red;'><strong>Incorrect!</strong></p><p style='font-size: 30px;'><strong>This rock is gabbro</strong></p>","0","corr_feedback","1","train","39","","","","","","","",""
"","","","","","","","","","","","html-button-response","183","2.0.0","488374","5c2e693a86a578000141ca47","2","20","1421","","","","","","","","","<img src= ""rock_img/I_Diorite_08.jpg"" style=""width:8cm; height:6.37cm;""><p>What type of rock is this?</p>","3","class_response","1","train","40","Gabbro","Diorite","08","false","4","3","",""
"","","","","","","","","","","","html-button-response","184","2.0.0","489061","5c2e693a86a578000141ca47","2","20","687","","","","","","","","","<img src= rock_img/I_Diorite_08.jpg style=""width:8cm; height:6.37cm;""><p style='font-size: 30px; color: red;'><strong>Incorrect!</strong></p><p style='font-size: 30px;'><strong>This rock is diorite</strong></p>","0","corr_feedback","1","train","40","","","","","","","",""
"","","","","","","","","","","","html-button-response","185","2.0.0","490719","5c2e693a86a578000141ca47","2","20","1657","","","","","","","","","<img src= ""rock_img/I_Andesite_02.jpg"" style=""width:8cm; height:8.5cm;""><p>What type of rock is this?</p>","1","class_response","1","train","41","Basalt","Andesite","02","false","2","1","",""
"","","","","","","","","","","","html-button-response","186","2.0.0","491503","5c2e693a86a578000141ca47","2","20","783","","","","","","","","","<img src= rock_img/I_Andesite_02.jpg style=""width:8cm; height:8.5cm;""><p style='font-size: 30px; color: red;'><strong>Incorrect!</strong></p><p style='font-size: 30px;'><strong>This rock is andesite</strong></p>","0","corr_feedback","1","train","41","","","","","","","",""
"","","","","","","","","","","","html-button-response","187","2.0.0","493031","5c2e693a86a578000141ca47","2","20","1527","","","","","","","","","<img src= ""rock_img/I_Pegmatite_10.jpg"" style=""width:8cm; height:4.16cm;""><p>What type of rock is this?</p>","6","class_response","1","train","42","Peridotite","Pegmatite","10","false","7","6","",""
"","","","","","","","","","","","html-button-response","188","2.0.0","493759","5c2e693a86a578000141ca47","2","20","727","","","","","","","","","<img src= rock_img/I_Pegmatite_10.jpg style=""width:8cm; height:4.16cm;""><p style='font-size: 30px; color: red;'><strong>Incorrect!</strong></p><p style='font-size: 30px;'><strong>This rock is pegmatite</strong></p>","0","corr_feedback","1","train","42","","","","","","","",""
"","","","","","","","","","","","html-button-response","189","2.0.0","496727","5c2e693a86a578000141ca47","2","20","2967","","","","","","","","","<img src= ""rock_img/I_Basalt_11.jpg"" style=""width:8cm; height:5.359999999999999cm;""><p>What type of rock is this?</p>","1","class_response","1","train","43","Basalt","Basalt","11","true","2","2","",""
"","","","","","","","","","","","html-button-response","190","2.0.0","497353","5c2e693a86a578000141ca47","2","20","625","","","","","","","","","<img src= rock_img/I_Basalt_11.jpg style=""width:8cm; height:5.359999999999999cm;""><p style='font-size: 30px; color: green;'><strong>Correct!</strong></p><p style='font-size: 30px;'><strong>This rock is basalt</strong></p>","0","corr_feedback","1","train","43","","","","","","","",""
"","","","","","","","","","","","html-button-response","191","2.0.0","498938","5c2e693a86a578000141ca47","2","20","1583","","","","","","","","","<img src= ""rock_img/I_Pumice_03.jpg"" style=""width:8cm; height:6.64cm;""><p>What type of rock is this?</p>","7","class_response","1","train","44","Pumice","Pumice","03","true","8","8","",""
"","","","","","","","","","","","html-button-response","192","2.0.0","499661","5c2e693a86a578000141ca47","2","20","723","","","","","","","","","<img src= rock_img/I_Pumice_03.jpg style=""width:8cm; height:6.64cm;""><p style='font-size: 30px; color: green;'><strong>Correct!</strong></p><p style='font-size: 30px;'><strong>This rock is pumice</strong></p>","0","corr_feedback","1","train","44","","","","","","","",""
"","","","","","","","","","","","html-button-response","193","2.0.0","502495","5c2e693a86a578000141ca47","2","20","2833","","","","","","","","","<img src= ""rock_img/I_Gabbro_10.jpg"" style=""width:8cm; height:5.680000000000001cm;""><p>What type of rock is this?</p>","3","class_response","1","train","45","Gabbro","Gabbro","10","true","4","4","",""
"","","","","","","","","","","","html-button-response","194","2.0.0","503158","5c2e693a86a578000141ca47","2","20","662","","","","","","","","","<img src= rock_img/I_Gabbro_10.jpg style=""width:8cm; height:5.680000000000001cm;""><p style='font-size: 30px; color: green;'><strong>Correct!</strong></p><p style='font-size: 30px;'><strong>This rock is gabbro</strong></p>","0","corr_feedback","1","train","45","","","","","","","",""
"","","","","","","","","","","","html-button-response","195","2.0.0","504193","5c2e693a86a578000141ca47","2","20","1035","","","","","","","","","<img src= ""rock_img/I_Peridotite_08.jpg"" style=""width:8cm; height:6.7cm;""><p>What type of rock is this?</p>","6","class_response","1","train","46","Peridotite","Peridotite","08","true","7","7","",""
"","","","","","","","","","","","html-button-response","196","2.0.0","504757","5c2e693a86a578000141ca47","2","20","563","","","","","","","","","<img src= rock_img/I_Peridotite_08.jpg style=""width:8cm; height:6.7cm;""><p style='font-size: 30px; color: green;'><strong>Correct!</strong></p><p style='font-size: 30px;'><strong>This rock is peridotite</strong></p>","0","corr_feedback","1","train","46","","","","","","","",""
"","","","","","","","","","","","html-button-response","197","2.0.0","506645","5c2e693a86a578000141ca47","2","20","1887","","","","","","","","","<img src= ""rock_img/I_Basalt_12.jpg"" style=""width:8cm; height:6.010000000000001cm;""><p>What type of rock is this?</p>","1","class_response","1","train","47","Basalt","Basalt","12","true","2","2","",""
"","","","","","","","","","","","html-button-response","198","2.0.0","507261","5c2e693a86a578000141ca47","2","20","615","","","","","","","","","<img src= rock_img/I_Basalt_12.jpg style=""width:8cm; height:6.010000000000001cm;""><p style='font-size: 30px; color: green;'><strong>Correct!</strong></p><p style='font-size: 30px;'><strong>This rock is basalt</strong></p>","0","corr_feedback","1","train","47","","","","","","","",""
"","","","","","","","","","","","html-button-response","199","2.0.0","510047","5c2e693a86a578000141ca47","2","20","2785","","","","","","","","","<img src= ""rock_img/I_Gabbro_11.jpg"" style=""width:8cm; height:6.2cm;""><p>What type of rock is this?</p>","0","class_response","1","train","48","Andesite","Gabbro","11","false","1","4","",""
"","","","","","","","","","","","html-button-response","200","2.0.0","510865","5c2e693a86a578000141ca47","2","20","817","","","","","","","","","<img src= rock_img/I_Gabbro_11.jpg style=""width:8cm; height:6.2cm;""><p style='font-size: 30px; color: red;'><strong>Incorrect!</strong></p><p style='font-size: 30px;'><strong>This rock is gabbro</strong></p>","0","corr_feedback","1","train","48","","","","","","","",""
"","","","","","","","","","","","instructions","203","2.0.0","575217","5c2e693a86a578000141ca47","2","20","64351","","","","","","","","[{""page_index"":0,""viewing_time"":57651},{""page_index"":1,""viewing_time"":6700}]","","","","","","","","","","","","","",""
"","","","","","","","","","","","html-button-response","204","2.0.0","578017","5c2e693a86a578000141ca47","2","20","2799","","","","","","","","","","0","start_test","","","","","","","","","","",""
"","","","","","","","","","","","html-button-response","205","2.0.0","580812","5c2e693a86a578000141ca47","2","20","2793","","","","","","","","","<img src= ""rock_img/I_Pegmatite_08.jpg"" style=""width:8cm; height:7.68cm;""><p>What type of rock is this?</p>","5","class_response","1","test","1","Pegmatite","Pegmatite","08","true","6","6","",""
"","","","","","","","","","","","html-keyboard-response","206","2.0.0","581320","5c2e693a86a578000141ca47","2","20","null","","","","","","","","","<p style='font-size: 30px;'><strong>Okay</strong></p>","null","neutral_feedback","1","test","1","","","","","","","",""
"","","","","","","","","","","","html-button-response","207","2.0.0","584975","5c2e693a86a578000141ca47","2","20","3654","","","","","","","","","<img src= ""rock_img/I_Basalt_08.jpg"" style=""width:8cm; height:10.44cm;""><p>What type of rock is this?</p>","1","class_response","1","test","2","Basalt","Basalt","08","true","2","2","",""
"","","","","","","","","","","","html-keyboard-response","208","2.0.0","585489","5c2e693a86a578000141ca47","2","20","null","","","","","","","","","<p style='font-size: 30px;'><strong>Okay</strong></p>","null","neutral_feedback","1","test","2","","","","","","","",""
"","","","","","","","","","","","html-button-response","209","2.0.0","587291","5c2e693a86a578000141ca47","2","20","1800","","","","","","","","","<img src= ""rock_img/I_Diorite_06.jpg"" style=""width:8cm; height:6.03cm;""><p>What type of rock is this?</p>","2","class_response","1","test","3","Diorite","Diorite","06","true","3","3","",""
"","","","","","","","","","","","html-keyboard-response","210","2.0.0","587807","5c2e693a86a578000141ca47","2","20","null","","","","","","","","","<p style='font-size: 30px;'><strong>Okay</strong></p>","null","neutral_feedback","1","test","3","","","","","","","",""
"","","","","","","","","","","","html-button-response","211","2.0.0","591378","5c2e693a86a578000141ca47","2","20","3571","","","","","","","","","<img src= ""rock_img/I_Basalt_05.jpg"" style=""width:8cm; height:8.18cm;""><p>What type of rock is this?</p>","0","class_response","1","test","4","Andesite","Basalt","05","false","1","2","",""
"","","","","","","","","","","","html-keyboard-response","212","2.0.0","591881","5c2e693a86a578000141ca47","2","20","null","","","","","","","","","<p style='font-size: 30px;'><strong>Okay</strong></p>","null","neutral_feedback","1","test","4","","","","","","","",""
"","","","","","","","","","","","html-button-response","213","2.0.0","594148","5c2e693a86a578000141ca47","2","20","2266","","","","","","","","","<img src= ""rock_img/I_Peridotite_12.jpg"" style=""width:8cm; height:4.54cm;""><p>What type of rock is this?</p>","2","class_response","1","test","5","Diorite","Peridotite","12","false","3","7","",""
"","","","","","","","","","","","html-keyboard-response","214","2.0.0","594649","5c2e693a86a578000141ca47","2","20","null","","","","","","","","","<p style='font-size: 30px;'><strong>Okay</strong></p>","null","neutral_feedback","1","test","5","","","","","","","",""
"","","","","","","","","","","","html-button-response","215","2.0.0","597695","5c2e693a86a578000141ca47","2","20","3045","","","","","","","","","<img src= ""rock_img/I_Pegmatite_11.jpg"" style=""width:8cm; height:8.14cm;""><p>What type of rock is this?</p>","5","class_response","1","test","6","Pegmatite","Pegmatite","11","true","6","6","",""
"","","","","","","","","","","","html-keyboard-response","216","2.0.0","598204","5c2e693a86a578000141ca47","2","20","null","","","","","","","","","<p style='font-size: 30px;'><strong>Okay</strong></p>","null","neutral_feedback","1","test","6","","","","","","","",""
"","","","","","","","","","","","html-button-response","217","2.0.0","599673","5c2e693a86a578000141ca47","2","20","1468","","","","","","","","","<img src= ""rock_img/I_Pegmatite_07.jpg"" style=""width:8cm; height:6.7cm;""><p>What type of rock is this?</p>","5","class_response","1","test","7","Pegmatite","Pegmatite","07","true","6","6","",""
"","","","","","","","","","","","html-keyboard-response","218","2.0.0","600184","5c2e693a86a578000141ca47","2","20","null","","","","","","","","","<p style='font-size: 30px;'><strong>Okay</strong></p>","null","neutral_feedback","1","test","7","","","","","","","",""
"","","","","","","","","","","","html-button-response","219","2.0.0","601235","5c2e693a86a578000141ca47","2","20","1050","","","","","","","","","<img src= ""rock_img/I_Obsidian_02.jpg"" style=""width:8cm; height:7.51cm;""><p>What type of rock is this?</p>","4","class_response","1","test","8","Obsidian","Obsidian","02","true","5","5","",""
"","","","","","","","","","","","html-keyboard-response","220","2.0.0","601746","5c2e693a86a578000141ca47","2","20","null","","","","","","","","","<p style='font-size: 30px;'><strong>Okay</strong></p>","null","neutral_feedback","1","test","8","","","","","","","",""
"","","","","","","","","","","","html-button-response","221","2.0.0","603001","5c2e693a86a578000141ca47","2","20","1254","","","","","","","","","<img src= ""rock_img/I_Pumice_08.jpg"" style=""width:8cm; height:6.67cm;""><p>What type of rock is this?</p>","7","class_response","1","test","9","Pumice","Pumice","08","true","8","8","",""
"","","","","","","","","","","","html-keyboard-response","222","2.0.0","603511","5c2e693a86a578000141ca47","2","20","null","","","","","","","","","<p style='font-size: 30px;'><strong>Okay</strong></p>","null","neutral_feedback","1","test","9","","","","","","","",""
"","","","","","","","","","","","html-button-response","223","2.0.0","604611","5c2e693a86a578000141ca47","2","20","1098","","","","","","","","","<img src= ""rock_img/I_Obsidian_11.jpg"" style=""width:8cm; height:6.05cm;""><p>What type of rock is this?</p>","4","class_response","1","test","10","Obsidian","Obsidian","11","true","5","5","",""
"","","","","","","","","","","","html-keyboard-response","224","2.0.0","605121","5c2e693a86a578000141ca47","2","20","null","","","","","","","","","<p style='font-size: 30px;'><strong>Okay</strong></p>","null","neutral_feedback","1","test","10","","","","","","","",""
"","","","","","","","","","","","html-button-response","225","2.0.0","606912","5c2e693a86a578000141ca47","2","20","1788","","","","","","","","","<img src= ""rock_img/I_Pumice_13.jpg"" style=""width:8cm; height:8.200000000000001cm;""><p>What type of rock is this?</p>","7","class_response","1","test","11","Pumice","Pumice","13","true","8","8","",""
"","","","","","","","","","","","html-keyboard-response","226","2.0.0","607423","5c2e693a86a578000141ca47","2","20","null","","","","","","","","","<p style='font-size: 30px;'><strong>Okay</strong></p>","null","neutral_feedback","1","test","11","","","","","","","",""
"","","","","","","","","","","","html-button-response","227","2.0.0","609281","5c2e693a86a578000141ca47","2","20","1857","","","","","","","","","<img src= ""rock_img/I_Andesite_03.jpg"" style=""width:8cm; height:5.73cm;""><p>What type of rock is this?</p>","1","class_response","1","test","12","Basalt","Andesite","03","false","2","1","",""
"","","","","","","","","","","","html-keyboard-response","228","2.0.0","609786","5c2e693a86a578000141ca47","2","20","null","","","","","","","","","<p style='font-size: 30px;'><strong>Okay</strong></p>","null","neutral_feedback","1","test","12","","","","","","","",""
"","","","","","","","","","","","html-button-response","229","2.0.0","610914","5c2e693a86a578000141ca47","2","20","1125","","","","","","","","","<img src= ""rock_img/I_Peridotite_15.jpg"" style=""width:8cm; height:6cm;""><p>What type of rock is this?</p>","6","class_response","1","test","13","Peridotite","Peridotite","15","true","7","7","",""
"","","","","","","","","","","","html-keyboard-response","230","2.0.0","611426","5c2e693a86a578000141ca47","2","20","null","","","","","","","","","<p style='font-size: 30px;'><strong>Okay</strong></p>","null","neutral_feedback","1","test","13","","","","","","","",""
"","","","","","","","","","","","html-button-response","231","2.0.0","613013","5c2e693a86a578000141ca47","2","20","1586","","","","","","","","","<img src= ""rock_img/I_Diorite_02.jpg"" style=""width:8cm; height:6.27cm;""><p>What type of rock is this?</p>","2","class_response","1","test","14","Diorite","Diorite","02","true","3","3","",""
"","","","","","","","","","","","html-keyboard-response","232","2.0.0","613528","5c2e693a86a578000141ca47","2","20","null","","","","","","","","","<p style='font-size: 30px;'><strong>Okay</strong></p>","null","neutral_feedback","1","test","14","","","","","","","",""
"","","","","","","","","","","","html-button-response","233","2.0.0","615993","5c2e693a86a578000141ca47","2","20","2463","","","","","","","","","<img src= ""rock_img/I_Basalt_06.jpg"" style=""width:8cm; height:7.06cm;""><p>What type of rock is this?</p>","1","class_response","1","test","15","Basalt","Basalt","06","true","2","2","",""
"","","","","","","","","","","","html-keyboard-response","234","2.0.0","616498","5c2e693a86a578000141ca47","2","20","null","","","","","","","","","<p style='font-size: 30px;'><strong>Okay</strong></p>","null","neutral_feedback","1","test","15","","","","","","","",""
"","","","","","","","","","","","html-button-response","235","2.0.0","617955","5c2e693a86a578000141ca47","2","20","1456","","","","","","","","","<img src= ""rock_img/I_Andesite_11.jpg"" style=""width:8cm; height:4.92cm;""><p>What type of rock is this?</p>","0","class_response","1","test","16","Andesite","Andesite","11","true","1","1","",""
"","","","","","","","","","","","html-keyboard-response","236","2.0.0","618465","5c2e693a86a578000141ca47","2","20","null","","","","","","","","","<p style='font-size: 30px;'><strong>Okay</strong></p>","null","neutral_feedback","1","test","16","","","","","","","",""
"","","","","","","","","","","","html-button-response","237","2.0.0","619704","5c2e693a86a578000141ca47","2","20","1238","","","","","","","","","<img src= ""rock_img/I_Pumice_14.jpg"" style=""width:8cm; height:6.39cm;""><p>What type of rock is this?</p>","7","class_response","1","test","17","Pumice","Pumice","14","true","8","8","",""
"","","","","","","","","","","","html-keyboard-response","238","2.0.0","620210","5c2e693a86a578000141ca47","2","20","null","","","","","","","","","<p style='font-size: 30px;'><strong>Okay</strong></p>","null","neutral_feedback","1","test","17","","","","","","","",""
"","","","","","","","","","","","html-button-response","239","2.0.0","621505","5c2e693a86a578000141ca47","2","20","1294","","","","","","","","","<img src= ""rock_img/I_Obsidian_12.jpg"" style=""width:8cm; height:6.53cm;""><p>What type of rock is this?</p>","4","class_response","1","test","18","Obsidian","Obsidian","12","true","5","5","",""
"","","","","","","","","","","","html-keyboard-response","240","2.0.0","622013","5c2e693a86a578000141ca47","2","20","null","","","","","","","","","<p style='font-size: 30px;'><strong>Okay</strong></p>","null","neutral_feedback","1","test","18","","","","","","","",""
"","","","","","","","","","","","html-button-response","241","2.0.0","623609","5c2e693a86a578000141ca47","2","20","1595","","","","","","","","","<img src= ""rock_img/I_Pumice_16.jpg"" style=""width:8cm; height:6.79cm;""><p>What type of rock is this?</p>","7","class_response","1","test","19","Pumice","Pumice","16","true","8","8","",""
"","","","","","","","","","","","html-keyboard-response","242","2.0.0","624111","5c2e693a86a578000141ca47","2","20","null","","","","","","","","","<p style='font-size: 30px;'><strong>Okay</strong></p>","null","neutral_feedback","1","test","19","","","","","","","",""
"","","","","","","","","","","","html-button-response","243","2.0.0","626781","5c2e693a86a578000141ca47","2","20","2669","","","","","","","","","<img src= ""rock_img/I_Basalt_10.jpg"" style=""width:8cm; height:5.85cm;""><p>What type of rock is this?</p>","0","class_response","1","test","20","Andesite","Basalt","10","false","1","2","",""
"","","","","","","","","","","","html-keyboard-response","244","2.0.0","627282","5c2e693a86a578000141ca47","2","20","null","","","","","","","","","<p style='font-size: 30px;'><strong>Okay</strong></p>","null","neutral_feedback","1","test","20","","","","","","","",""
"","","","","","","","","","","","html-button-response","245","2.0.0","629109","5c2e693a86a578000141ca47","2","20","1827","","","","","","","","","<img src= ""rock_img/I_Gabbro_13.jpg"" style=""width:8cm; height:5.08cm;""><p>What type of rock is this?</p>","3","class_response","1","test","21","Gabbro","Gabbro","13","true","4","4","",""
"","","","","","","","","","","","html-keyboard-response","246","2.0.0","629610","5c2e693a86a578000141ca47","2","20","null","","","","","","","","","<p style='font-size: 30px;'><strong>Okay</strong></p>","null","neutral_feedback","1","test","21","","","","","","","",""
"","","","","","","","","","","","html-button-response","247","2.0.0","630675","5c2e693a86a578000141ca47","2","20","1063","","","","","","","","","<img src= ""rock_img/I_Diorite_12.jpg"" style=""width:8cm; height:4.88cm;""><p>What type of rock is this?</p>","3","class_response","1","test","22","Gabbro","Diorite","12","false","4","3","",""
"","","","","","","","","","","","html-keyboard-response","248","2.0.0","631191","5c2e693a86a578000141ca47","2","20","null","","","","","","","","","<p style='font-size: 30px;'><strong>Okay</strong></p>","null","neutral_feedback","1","test","22","","","","","","","",""
"","","","","","","","","","","","html-button-response","249","2.0.0","632189","5c2e693a86a578000141ca47","2","20","998","","","","","","","","","<img src= ""rock_img/I_Gabbro_08.jpg"" style=""width:8cm; height:5.15cm;""><p>What type of rock is this?</p>","3","class_response","1","test","23","Gabbro","Gabbro","08","true","4","4","",""
"","","","","","","","","","","","html-keyboard-response","250","2.0.0","632692","5c2e693a86a578000141ca47","2","20","null","","","","","","","","","<p style='font-size: 30px;'><strong>Okay</strong></p>","null","neutral_feedback","1","test","23","","","","","","","",""
"","","","","","","","","","","","html-button-response","251","2.0.0","635675","5c2e693a86a578000141ca47","2","20","2981","","","","","","","","","<img src= ""rock_img/I_Gabbro_14.jpg"" style=""width:8cm; height:8.48cm;""><p>What type of rock is this?</p>","3","class_response","1","test","24","Gabbro","Gabbro","14","true","4","4","",""
"","","","","","","","","","","","html-keyboard-response","252","2.0.0","636186","5c2e693a86a578000141ca47","2","20","null","","","","","","","","","<p style='font-size: 30px;'><strong>Okay</strong></p>","null","neutral_feedback","1","test","24","","","","","","","",""
"","","","","","","","","","","","html-button-response","253","2.0.0","638287","5c2e693a86a578000141ca47","2","20","2100","","","","","","","","","<img src= ""rock_img/I_Gabbro_12.jpg"" style=""width:8cm; height:7.800000000000001cm;""><p>What type of rock is this?</p>","1","class_response","1","test","25","Basalt","Gabbro","12","false","2","4","",""
"","","","","","","","","","","","html-keyboard-response","254","2.0.0","638797","5c2e693a86a578000141ca47","2","20","null","","","","","","","","","<p style='font-size: 30px;'><strong>Okay</strong></p>","null","neutral_feedback","1","test","25","","","","","","","",""
"","","","","","","","","","","","html-button-response","255","2.0.0","640123","5c2e693a86a578000141ca47","2","20","1324","","","","","","","","","<img src= ""rock_img/I_Pegmatite_15.jpg"" style=""width:8cm; height:6cm;""><p>What type of rock is this?</p>","5","class_response","1","test","26","Pegmatite","Pegmatite","15","true","6","6","",""
"","","","","","","","","","","","html-keyboard-response","256","2.0.0","640632","5c2e693a86a578000141ca47","2","20","null","","","","","","","","","<p style='font-size: 30px;'><strong>Okay</strong></p>","null","neutral_feedback","1","test","26","","","","","","","",""
"","","","","","","","","","","","html-button-response","257","2.0.0","644797","5c2e693a86a578000141ca47","2","20","4164","","","","","","","","","<img src= ""rock_img/I_Basalt_14.jpg"" style=""width:8cm; height:5.82cm;""><p>What type of rock is this?</p>","1","class_response","1","test","27","Basalt","Basalt","14","true","2","2","",""
"","","","","","","","","","","","html-keyboard-response","258","2.0.0","645303","5c2e693a86a578000141ca47","2","20","null","","","","","","","","","<p style='font-size: 30px;'><strong>Okay</strong></p>","null","neutral_feedback","1","test","27","","","","","","","",""
"","","","","","","","","","","","html-button-response","259","2.0.0","646169","5c2e693a86a578000141ca47","2","20","865","","","","","","","","","<img src= ""rock_img/I_Gabbro_16.jpg"" style=""width:8cm; height:6.44cm;""><p>What type of rock is this?</p>","1","class_response","1","test","28","Basalt","Gabbro","16","false","2","4","",""
"","","","","","","","","","","","html-keyboard-response","260","2.0.0","646671","5c2e693a86a578000141ca47","2","20","null","","","","","","","","","<p style='font-size: 30px;'><strong>Okay</strong></p>","null","neutral_feedback","1","test","28","","","","","","","",""
"","","","","","","","","","","","html-button-response","261","2.0.0","648247","5c2e693a86a578000141ca47","2","20","1575","","","","","","","","","<img src= ""rock_img/I_Diorite_07.jpg"" style=""width:8cm; height:5.239999999999999cm;""><p>What type of rock is this?</p>","2","class_response","1","test","29","Diorite","Diorite","07","true","3","3","",""
"","","","","","","","","","","","html-keyboard-response","262","2.0.0","648757","5c2e693a86a578000141ca47","2","20","null","","","","","","","","","<p style='font-size: 30px;'><strong>Okay</strong></p>","null","neutral_feedback","1","test","29","","","","","","","",""
"","","","","","","","","","","","html-button-response","263","2.0.0","649849","5c2e693a86a578000141ca47","2","20","1090","","","","","","","","","<img src= ""rock_img/I_Obsidian_10.jpg"" style=""width:8cm; height:6.260000000000001cm;""><p>What type of rock is this?</p>","4","class_response","1","test","30","Obsidian","Obsidian","10","true","5","5","",""
"","","","","","","","","","","","html-keyboard-response","264","2.0.0","650359","5c2e693a86a578000141ca47","2","20","null","","","","","","","","","<p style='font-size: 30px;'><strong>Okay</strong></p>","null","neutral_feedback","1","test","30","","","","","","","",""
"","","","","","","","","","","","html-button-response","265","2.0.0","652380","5c2e693a86a578000141ca47","2","20","2019","","","","","","","","","<img src= ""rock_img/I_Pegmatite_09.jpg"" style=""width:8cm; height:4.03cm;""><p>What type of rock is this?</p>","5","class_response","1","test","31","Pegmatite","Pegmatite","09","true","6","6","",""
"","","","","","","","","","","","html-keyboard-response","266","2.0.0","652886","5c2e693a86a578000141ca47","2","20","null","","","","","","","","","<p style='font-size: 30px;'><strong>Okay</strong></p>","null","neutral_feedback","1","test","31","","","","","","","",""
"","","","","","","","","","","","html-button-response","267","2.0.0","654154","5c2e693a86a578000141ca47","2","20","1267","","","","","","","","","<img src= ""rock_img/I_Obsidian_16.jpg"" style=""width:8cm; height:9.3cm;""><p>What type of rock is this?</p>","4","class_response","1","test","32","Obsidian","Obsidian","16","true","5","5","",""
"","","","","","","","","","","","html-keyboard-response","268","2.0.0","654660","5c2e693a86a578000141ca47","2","20","null","","","","","","","","","<p style='font-size: 30px;'><strong>Okay</strong></p>","null","neutral_feedback","1","test","32","","","","","","","",""
"","","","","","","","","","","","html-button-response","269","2.0.0","656181","5c2e693a86a578000141ca47","2","20","1520","","","","","","","","","<img src= ""rock_img/I_Andesite_09.jpg"" style=""width:8cm; height:6cm;""><p>What type of rock is this?</p>","1","class_response","1","test","33","Basalt","Andesite","09","false","2","1","",""
"","","","","","","","","","","","html-keyboard-response","270","2.0.0","656693","5c2e693a86a578000141ca47","2","20","null","","","","","","","","","<p style='font-size: 30px;'><strong>Okay</strong></p>","null","neutral_feedback","1","test","33","","","","","","","",""
"","","","","","","","","","","","html-button-response","271","2.0.0","657901","5c2e693a86a578000141ca47","2","20","1206","","","","","","","","","<img src= ""rock_img/I_Peridotite_13.jpg"" style=""width:8cm; height:7.58cm;""><p>What type of rock is this?</p>","6","class_response","1","test","34","Peridotite","Peridotite","13","true","7","7","",""
"","","","","","","","","","","","html-keyboard-response","272","2.0.0","658411","5c2e693a86a578000141ca47","2","20","null","","","","","","","","","<p style='font-size: 30px;'><strong>Okay</strong></p>","null","neutral_feedback","1","test","34","","","","","","","",""
"","","","","","","","","","","","html-button-response","273","2.0.0","661369","5c2e693a86a578000141ca47","2","20","2957","","","","","","","","","<img src= ""rock_img/I_Peridotite_14.jpg"" style=""width:8cm; height:5.3cm;""><p>What type of rock is this?</p>","2","class_response","1","test","35","Diorite","Peridotite","14","false","3","7","",""
"","","","","","","","","","","","html-keyboard-response","274","2.0.0","661883","5c2e693a86a578000141ca47","2","20","null","","","","","","","","","<p style='font-size: 30px;'><strong>Okay</strong></p>","null","neutral_feedback","1","test","35","","","","","","","",""
"","","","","","","","","","","","html-button-response","275","2.0.0","663520","5c2e693a86a578000141ca47","2","20","1634","","","","","","","","","<img src= ""rock_img/I_Pumice_02.jpg"" style=""width:8cm; height:7.3999999999999995cm;""><p>What type of rock is this?</p>","7","class_response","1","test","36","Pumice","Pumice","02","true","8","8","",""
"","","","","","","","","","","","html-keyboard-response","276","2.0.0","664034","5c2e693a86a578000141ca47","2","20","null","","","","","","","","","<p style='font-size: 30px;'><strong>Okay</strong></p>","null","neutral_feedback","1","test","36","","","","","","","",""
"","","","","","","","","","","","html-button-response","277","2.0.0","666325","5c2e693a86a578000141ca47","2","20","2290","","","","","","","","","<img src= ""rock_img/I_Andesite_14.jpg"" style=""width:8cm; height:5.449999999999999cm;""><p>What type of rock is this?</p>","1","class_response","1","test","37","Basalt","Andesite","14","false","2","1","",""
"","","","","","","","","","","","html-keyboard-response","278","2.0.0","666835","5c2e693a86a578000141ca47","2","20","null","","","","","","","","","<p style='font-size: 30px;'><strong>Okay</strong></p>","null","neutral_feedback","1","test","37","","","","","","","",""
"","","","","","","","","","","","html-button-response","279","2.0.0","670097","5c2e693a86a578000141ca47","2","20","3261","","","","","","","","","<img src= ""rock_img/I_Pegmatite_13.jpg"" style=""width:8cm; height:4.95cm;""><p>What type of rock is this?</p>","3","class_response","1","test","38","Gabbro","Pegmatite","13","false","4","6","",""
"","","","","","","","","","","","html-keyboard-response","280","2.0.0","670606","5c2e693a86a578000141ca47","2","20","null","","","","","","","","","<p style='font-size: 30px;'><strong>Okay</strong></p>","null","neutral_feedback","1","test","38","","","","","","","",""
"","","","","","","","","","","","html-button-response","281","2.0.0","671771","5c2e693a86a578000141ca47","2","20","1164","","","","","","","","","<img src= ""rock_img/I_Pumice_06.jpg"" style=""width:8cm; height:6.9399999999999995cm;""><p>What type of rock is this?</p>","7","class_response","1","test","39","Pumice","Pumice","06","true","8","8","",""
"","","","","","","","","","","","html-keyboard-response","282","2.0.0","672273","5c2e693a86a578000141ca47","2","20","null","","","","","","","","","<p style='font-size: 30px;'><strong>Okay</strong></p>","null","neutral_feedback","1","test","39","","","","","","","",""
"","","","","","","","","","","","html-button-response","283","2.0.0","674089","5c2e693a86a578000141ca47","2","20","1814","","","","","","","","","<img src= ""rock_img/I_Gabbro_09.jpg"" style=""width:8cm; height:7.279999999999999cm;""><p>What type of rock is this?</p>","1","class_response","1","test","40","Basalt","Gabbro","09","false","2","4","",""
"","","","","","","","","","","","html-keyboard-response","284","2.0.0","674593","5c2e693a86a578000141ca47","2","20","null","","","","","","","","","<p style='font-size: 30px;'><strong>Okay</strong></p>","null","neutral_feedback","1","test","40","","","","","","","",""
"","","","","","","","","","","","html-button-response","285","2.0.0","675999","5c2e693a86a578000141ca47","2","20","1405","","","","","","","","","<img src= ""rock_img/I_Andesite_16.jpg"" style=""width:8cm; height:6.010000000000001cm;""><p>What type of rock is this?</p>","0","class_response","1","test","41","Andesite","Andesite","16","true","1","1","",""
"","","","","","","","","","","","html-keyboard-response","286","2.0.0","676511","5c2e693a86a578000141ca47","2","20","null","","","","","","","","","<p style='font-size: 30px;'><strong>Okay</strong></p>","null","neutral_feedback","1","test","41","","","","","","","",""
"","","","","","","","","","","","html-button-response","287","2.0.0","679454","5c2e693a86a578000141ca47","2","20","2941","","","","","","","","","<img src= ""rock_img/I_Peridotite_16.jpg"" style=""width:8cm; height:6.989999999999999cm;""><p>What type of rock is this?</p>","5","class_response","1","test","42","Pegmatite","Peridotite","16","false","6","7","",""
"","","","","","","","","","","","html-keyboard-response","288","2.0.0","679963","5c2e693a86a578000141ca47","2","20","null","","","","","","","","","<p style='font-size: 30px;'><strong>Okay</strong></p>","null","neutral_feedback","1","test","42","","","","","","","",""
"","","","","","","","","","","","html-button-response","289","2.0.0","681385","5c2e693a86a578000141ca47","2","20","1421","","","","","","","","","<img src= ""rock_img/I_Diorite_14.jpg"" style=""width:8cm; height:5.71cm;""><p>What type of rock is this?</p>","2","class_response","1","test","43","Diorite","Diorite","14","true","3","3","",""
"","","","","","","","","","","","html-keyboard-response","290","2.0.0","681897","5c2e693a86a578000141ca47","2","20","null","","","","","","","","","<p style='font-size: 30px;'><strong>Okay</strong></p>","null","neutral_feedback","1","test","43","","","","","","","",""
"","","","","","","","","","","","html-button-response","291","2.0.0","682987","5c2e693a86a578000141ca47","2","20","1089","","","","","","","","","<img src= ""rock_img/I_Obsidian_08.jpg"" style=""width:8cm; height:7.39cm;""><p>What type of rock is this?</p>","4","class_response","1","test","44","Obsidian","Obsidian","08","true","5","5","",""
"","","","","","","","","","","","html-keyboard-response","292","2.0.0","683503","5c2e693a86a578000141ca47","2","20","null","","","","","","","","","<p style='font-size: 30px;'><strong>Okay</strong></p>","null","neutral_feedback","1","test","44","","","","","","","",""
"","","","","","","","","","","","html-button-response","293","2.0.0","685049","5c2e693a86a578000141ca47","2","20","1544","","","","","","","","","<img src= ""rock_img/I_Andesite_06.jpg"" style=""width:8cm; height:6.840000000000001cm;""><p>What type of rock is this?</p>","1","class_response","1","test","45","Basalt","Andesite","06","false","2","1","",""
"","","","","","","","","","","","html-keyboard-response","294","2.0.0","685566","5c2e693a86a578000141ca47","2","20","null","","","","","","","","","<p style='font-size: 30px;'><strong>Okay</strong></p>","null","neutral_feedback","1","test","45","","","","","","","",""
"","","","","","","","","","","","html-button-response","295","2.0.0","687115","5c2e693a86a578000141ca47","2","20","1548","","","","","","","","","<img src= ""rock_img/I_Diorite_11.jpg"" style=""width:8cm; height:7.11cm;""><p>What type of rock is this?</p>","2","class_response","1","test","46","Diorite","Diorite","11","true","3","3","",""
"","","","","","","","","","","","html-keyboard-response","296","2.0.0","687619","5c2e693a86a578000141ca47","2","20","null","","","","","","","","","<p style='font-size: 30px;'><strong>Okay</strong></p>","null","neutral_feedback","1","test","46","","","","","","","",""
"","","","","","","","","","","","html-button-response","297","2.0.0","688743","5c2e693a86a578000141ca47","2","20","1123","","","","","","","","","<img src= ""rock_img/I_Peridotite_07.jpg"" style=""width:8cm; height:4.83cm;""><p>What type of rock is this?</p>","3","class_response","1","test","47","Gabbro","Peridotite","07","false","4","7","",""
"","","","","","","","","","","","html-keyboard-response","298","2.0.0","689251","5c2e693a86a578000141ca47","2","20","null","","","","","","","","","<p style='font-size: 30px;'><strong>Okay</strong></p>","null","neutral_feedback","1","test","47","","","","","","","",""
"","","","","","","","","","","","html-button-response","299","2.0.0","690685","5c2e693a86a578000141ca47","2","20","1432","","","","","","","","","<img src= ""rock_img/I_Basalt_02.jpg"" style=""width:8cm; height:6.45cm;""><p>What type of rock is this?</p>","1","class_response","1","test","48","Basalt","Basalt","02","true","2","2","",""
"","","","","","","","","","","","html-keyboard-response","300","2.0.0","691188","5c2e693a86a578000141ca47","2","20","null","","","","","","","","","<p style='font-size: 30px;'><strong>Okay</strong></p>","null","neutral_feedback","1","test","48","","","","","","","",""
"","","","","","","","","","","","html-button-response","301","2.0.0","711013","5c2e693a86a578000141ca47","2","20","","","","","","","","","","","","cycle_feedback","","","","","","","","","","5914.5999999940395","13903.59999999404"
"","","","","","","","","","","","html-button-response","303","2.0.0","712633","5c2e693a86a578000141ca47","2","20","1619","","","","","","","","","","0","start_train","","","","","","","","","","",""
"","","","","","","","","","","","html-button-response","304","2.0.0","715655","5c2e693a86a578000141ca47","2","20","3021","","","","","","","","","<img src= ""rock_img/I_Andesite_05.jpg"" style=""width:8cm; height:4.12cm;""><p>What type of rock is this?</p>","3","class_response","2","train","1","Gabbro","Andesite","05","false","4","1","",""
