"width","height","webaudio","browser","browser_version","mobile","os","fullscreen","vsync_rate","webcam","microphone","trial_type","trial_index","plugin_version","time_elapsed","subjID","condition","stimID","rt","url","success","value","timeout","failed_images","failed_audio","failed_video","view_history","stimulus","response","trialType","cycle","phase","trial","resp","cat","token","corr","resp_num","cat_num","time_fb1","time_fb2"
"730","636","true","firefox","132.0.0","false","Windows 10","true","60.54","true","true","browser-check","0","2.0.0","1022","668545bb7810640d0a057f0f","2","34","","","","","","","","","","","","","","","","","","","","","","",""
"","","","","","","","","","","","external-html","1","2.0.0","22173","668545bb7810640d0a057f0f","2","34","18732","consent_form.html","","","","","","","","","","","","","","","","","","","","",""
"","","","","","","","","","","","fullscreen","2","2.0.0","31113","668545bb7810640d0a057f0f","2","34","7860","","true","","","","","","","","","","","","","","","","","","","",""
"","","","","","","","","","","","call-function","3","2.0.0","31115","668545bb7810640d0a057f0f","2","34","","","","{}","","","","","","","","","","","","","","","","","","",""
"","","","","","","","","","","","preload","4","2.0.0","128991","668545bb7810640d0a057f0f","2","34","","","true","","false","[]","[]","[]","","","","","","","","","","","","","","",""
"","","","","","","","","","","","instructions","5","2.0.0","251231","668545bb7810640d0a057f0f","2","34","122235","","","","","","","","[{""page_index"":0,""viewing_time"":17518},{""page_index"":1,""viewing_time"":44999},{""page_index"":2,""viewing_time"":59718}]","","","","","","","","","","","","","",""
"","","","","","","","","","","","html-button-response","6","2.0.0","259377","668545bb7810640d0a057f0f","2","34","8142","","","","","","","","","","0","start_test","","","","","","","","","","",""
"","","","","","","","","","","","html-button-response","7","2.0.0","270091","668545bb7810640d0a057f0f","2","34","10710","","","","","","","","","<img src= ""rock_img/I_Obsidian_05.jpg"" style=""width:8cm; height:6.33cm;""><p>What type of rock is this?</p>","5","class_response","0","test","1","Pegmatite","Obsidian","05","false","6","5","",""
"","","","","","","","","","","","html-keyboard-response","8","2.0.0","270603","668545bb7810640d0a057f0f","2","34","null","","","","","","","","","<p style='font-size: 30px;'><strong>Okay</strong></p>","null","neutral_feedback","0","test","1","","","","","","","",""
"","","","","","","","","","","","html-button-response","9","2.0.0","273020","668545bb7810640d0a057f0f","2","34","2412","","","","","","","","","<img src= ""rock_img/I_Andesite_05.jpg"" style=""width:8cm; height:4.12cm;""><p>What type of rock is this?</p>","1","class_response","0","test","2","Basalt","Andesite","05","false","2","1","",""
"","","","","","","","","","","","html-keyboard-response","10","2.0.0","273537","668545bb7810640d0a057f0f","2","34","null","","","","","","","","","<p style='font-size: 30px;'><strong>Okay</strong></p>","null","neutral_feedback","0","test","2","","","","","","","",""
"","","","","","","","","","","","html-button-response","11","2.0.0","279160","668545bb7810640d0a057f0f","2","34","5621","","","","","","","","","<img src= ""rock_img/I_Peridotite_13.jpg"" style=""width:8cm; height:7.58cm;""><p>What type of rock is this?</p>","1","class_response","0","test","3","Basalt","Peridotite","13","false","2","7","",""
"","","","","","","","","","","","html-keyboard-response","12","2.0.0","279672","668545bb7810640d0a057f0f","2","34","null","","","","","","","","","<p style='font-size: 30px;'><strong>Okay</strong></p>","null","neutral_feedback","0","test","3","","","","","","","",""
"","","","","","","","","","","","html-button-response","13","2.0.0","281977","668545bb7810640d0a057f0f","2","34","2303","","","","","","","","","<img src= ""rock_img/I_Andesite_07.jpg"" style=""width:8cm; height:5.93cm;""><p>What type of rock is this?</p>","0","class_response","0","test","4","Andesite","Andesite","07","true","1","1","",""
"","","","","","","","","","","","html-keyboard-response","14","2.0.0","282479","668545bb7810640d0a057f0f","2","34","null","","","","","","","","","<p style='font-size: 30px;'><strong>Okay</strong></p>","null","neutral_feedback","0","test","4","","","","","","","",""
"","","","","","","","","","","","html-button-response","15","2.0.0","284353","668545bb7810640d0a057f0f","2","34","1871","","","","","","","","","<img src= ""rock_img/I_Andesite_09.jpg"" style=""width:8cm; height:6cm;""><p>What type of rock is this?</p>","2","class_response","0","test","5","Diorite","Andesite","09","false","3","1","",""
"","","","","","","","","","","","html-keyboard-response","16","2.0.0","284863","668545bb7810640d0a057f0f","2","34","null","","","","","","","","","<p style='font-size: 30px;'><strong>Okay</strong></p>","null","neutral_feedback","0","test","5","","","","","","","",""
"","","","","","","","","","","","html-button-response","17","2.0.0","286095","668545bb7810640d0a057f0f","2","34","1229","","","","","","","","","<img src= ""rock_img/I_Diorite_09.jpg"" style=""width:8cm; height:5.27cm;""><p>What type of rock is this?</p>","3","class_response","0","test","6","Gabbro","Diorite","09","false","4","3","",""
"","","","","","","","","","","","html-keyboard-response","18","2.0.0","286604","668545bb7810640d0a057f0f","2","34","null","","","","","","","","","<p style='font-size: 30px;'><strong>Okay</strong></p>","null","neutral_feedback","0","test","6","","","","","","","",""
"","","","","","","","","","","","html-button-response","19","2.0.0","290207","668545bb7810640d0a057f0f","2","34","3600","","","","","","","","","<img src= ""rock_img/I_Basalt_14.jpg"" style=""width:8cm; height:5.82cm;""><p>What type of rock is this?</p>","6","class_response","0","test","7","Peridotite","Basalt","14","false","7","2","",""
"","","","","","","","","","","","html-keyboard-response","20","2.0.0","290714","668545bb7810640d0a057f0f","2","34","null","","","","","","","","","<p style='font-size: 30px;'><strong>Okay</strong></p>","null","neutral_feedback","0","test","7","","","","","","","",""
"","","","","","","","","","","","html-button-response","21","2.0.0","294345","668545bb7810640d0a057f0f","2","34","3629","","","","","","","","","<img src= ""rock_img/I_Gabbro_15.jpg"" style=""width:8cm; height:6.29cm;""><p>What type of rock is this?</p>","4","class_response","0","test","8","Obsidian","Gabbro","15","false","5","4","",""
"","","","","","","","","","","","html-keyboard-response","22","2.0.0","294903","668545bb7810640d0a057f0f","2","34","null","","","","","","","","","<p style='font-size: 30px;'><strong>Okay</strong></p>","null","neutral_feedback","0","test","8","","","","","","","",""
"","","","","","","","","","","","html-button-response","23","2.0.0","296700","668545bb7810640d0a057f0f","2","34","1796","","","","","","","","","<img src= ""rock_img/I_Pegmatite_09.jpg"" style=""width:8cm; height:4.03cm;""><p>What type of rock is this?</p>","4","class_response","0","test","9","Obsidian","Pegmatite","09","false","5","6","",""
"","","","","","","","","","","","html-keyboard-response","24","2.0.0","297208","668545bb7810640d0a057f0f","2","34","null","","","","","","","","","<p style='font-size: 30px;'><strong>Okay</strong></p>","null","neutral_feedback","0","test","9","","","","","","","",""
"","","","","","","","","","","","html-button-response","25","2.0.0","299520","668545bb7810640d0a057f0f","2","34","2310","","","","","","","","","<img src= ""rock_img/I_Basalt_05.jpg"" style=""width:8cm; height:8.18cm;""><p>What type of rock is this?</p>","5","class_response","0","test","10","Pegmatite","Basalt","05","false","6","2","",""
"","","","","","","","","","","","html-keyboard-response","26","2.0.0","300032","668545bb7810640d0a057f0f","2","34","null","","","","","","","","","<p style='font-size: 30px;'><strong>Okay</strong></p>","null","neutral_feedback","0","test","10","","","","","","","",""
"","","","","","","","","","","","html-button-response","27","2.0.0","301461","668545bb7810640d0a057f0f","2","34","1428","","","","","","","","","<img src= ""rock_img/I_Pumice_05.jpg"" style=""width:8cm; height:7.25cm;""><p>What type of rock is this?</p>","2","class_response","0","test","11","Diorite","Pumice","05","false","3","8","",""
"","","","","","","","","","","","html-keyboard-response","28","2.0.0","301976","668545bb7810640d0a057f0f","2","34","null","","","","","","","","","<p style='font-size: 30px;'><strong>Okay</strong></p>","null","neutral_feedback","0","test","11","","","","","","","",""
"","","","","","","","","","","","html-button-response","29","2.0.0","303447","668545bb7810640d0a057f0f","2","34","1467","","","","","","","","","<img src= ""rock_img/I_Diorite_08.jpg"" style=""width:8cm; height:6.37cm;""><p>What type of rock is this?</p>","3","class_response","0","test","12","Gabbro","Diorite","08","false","4","3","",""
"","","","","","","","","","","","html-keyboard-response","30","2.0.0","303985","668545bb7810640d0a057f0f","2","34","null","","","","","","","","","<p style='font-size: 30px;'><strong>Okay</strong></p>","null","neutral_feedback","0","test","12","","","","","","","",""
"","","","","","","","","","","","html-button-response","31","2.0.0","308528","668545bb7810640d0a057f0f","2","34","4539","","","","","","","","","<img src= ""rock_img/I_Obsidian_07.jpg"" style=""width:8cm; height:4.76cm;""><p>What type of rock is this?</p>","3","class_response","0","test","13","Gabbro","Obsidian","07","false","4","5","",""
"","","","","","","","","","","","html-keyboard-response","32","2.0.0","309037","668545bb7810640d0a057f0f","2","34","null","","","","","","","","","<p style='font-size: 30px;'><strong>Okay</strong></p>","null","neutral_feedback","0","test","13","","","","","","","",""
"","","","","","","","","","","","html-button-response","33","2.0.0","310719","668545bb7810640d0a057f0f","2","34","1680","","","","","","","","","<img src= ""rock_img/I_Pegmatite_06.jpg"" style=""width:8cm; height:5.17cm;""><p>What type of rock is this?</p>","2","class_response","0","test","14","Diorite","Pegmatite","06","false","3","6","",""
"","","","","","","","","","","","html-keyboard-response","34","2.0.0","311233","668545bb7810640d0a057f0f","2","34","null","","","","","","","","","<p style='font-size: 30px;'><strong>Okay</strong></p>","null","neutral_feedback","0","test","14","","","","","","","",""
"","","","","","","","","","","","html-button-response","35","2.0.0","313789","668545bb7810640d0a057f0f","2","34","2554","","","","","","","","","<img src= ""rock_img/I_Gabbro_12.jpg"" style=""width:8cm; height:7.800000000000001cm;""><p>What type of rock is this?</p>","1","class_response","0","test","15","Basalt","Gabbro","12","false","2","4","",""
"","","","","","","","","","","","html-keyboard-response","36","2.0.0","314291","668545bb7810640d0a057f0f","2","34","null","","","","","","","","","<p style='font-size: 30px;'><strong>Okay</strong></p>","null","neutral_feedback","0","test","15","","","","","","","",""
"","","","","","","","","","","","html-button-response","37","2.0.0","316356","668545bb7810640d0a057f0f","2","34","2064","","","","","","","","","<img src= ""rock_img/I_Peridotite_04.jpg"" style=""width:8cm; height:6.680000000000001cm;""><p>What type of rock is this?</p>","4","class_response","0","test","16","Obsidian","Peridotite","04","false","5","7","",""
"","","","","","","","","","","","html-keyboard-response","38","2.0.0","316864","668545bb7810640d0a057f0f","2","34","null","","","","","","","","","<p style='font-size: 30px;'><strong>Okay</strong></p>","null","neutral_feedback","0","test","16","","","","","","","",""
"","","","","","","","","","","","html-button-response","39","2.0.0","319421","668545bb7810640d0a057f0f","2","34","2555","","","","","","","","","<img src= ""rock_img/I_Diorite_14.jpg"" style=""width:8cm; height:5.71cm;""><p>What type of rock is this?</p>","1","class_response","0","test","17","Basalt","Diorite","14","false","2","3","",""
"","","","","","","","","","","","html-keyboard-response","40","2.0.0","319923","668545bb7810640d0a057f0f","2","34","null","","","","","","","","","<p style='font-size: 30px;'><strong>Okay</strong></p>","null","neutral_feedback","0","test","17","","","","","","","",""
"","","","","","","","","","","","html-button-response","41","2.0.0","322659","668545bb7810640d0a057f0f","2","34","2734","","","","","","","","","<img src= ""rock_img/I_Diorite_12.jpg"" style=""width:8cm; height:4.88cm;""><p>What type of rock is this?</p>","6","class_response","0","test","18","Peridotite","Diorite","12","false","7","3","",""
"","","","","","","","","","","","html-keyboard-response","42","2.0.0","323170","668545bb7810640d0a057f0f","2","34","null","","","","","","","","","<p style='font-size: 30px;'><strong>Okay</strong></p>","null","neutral_feedback","0","test","18","","","","","","","",""
"","","","","","","","","","","","html-button-response","43","2.0.0","324275","668545bb7810640d0a057f0f","2","34","1103","","","","","","","","","<img src= ""rock_img/I_Diorite_11.jpg"" style=""width:8cm; height:7.11cm;""><p>What type of rock is this?</p>","2","class_response","0","test","19","Diorite","Diorite","11","true","3","3","",""
"","","","","","","","","","","","html-keyboard-response","44","2.0.0","324786","668545bb7810640d0a057f0f","2","34","null","","","","","","","","","<p style='font-size: 30px;'><strong>Okay</strong></p>","null","neutral_feedback","0","test","19","","","","","","","",""
"","","","","","","","","","","","html-button-response","45","2.0.0","327171","668545bb7810640d0a057f0f","2","34","2383","","","","","","","","","<img src= ""rock_img/I_Basalt_08.jpg"" style=""width:8cm; height:10.44cm;""><p>What type of rock is this?</p>","5","class_response","0","test","20","Pegmatite","Basalt","08","false","6","2","",""
"","","","","","","","","","","","html-keyboard-response","46","2.0.0","327687","668545bb7810640d0a057f0f","2","34","null","","","","","","","","","<p style='font-size: 30px;'><strong>Okay</strong></p>","null","neutral_feedback","0","test","20","","","","","","","",""
"","","","","","","","","","","","html-button-response","47","2.0.0","370245","668545bb7810640d0a057f0f","2","34","42555","","","","","","","","","<img src= ""rock_img/I_Andesite_10.jpg"" style=""width:8cm; height:4.16cm;""><p>What type of rock is this?</p>","5","class_response","0","test","21","Pegmatite","Andesite","10","false","6","1","",""
"","","","","","","","","","","","html-keyboard-response","48","2.0.0","370801","668545bb7810640d0a057f0f","2","34","null","","","","","","","","","<p style='font-size: 30px;'><strong>Okay</strong></p>","null","neutral_feedback","0","test","21","","","","","","","",""
"","","","","","","","","","","","html-button-response","49","2.0.0","371863","668545bb7810640d0a057f0f","2","34","1061","","","","","","","","","<img src= ""rock_img/I_Basalt_01.jpg"" style=""width:8cm; height:7.880000000000001cm;""><p>What type of rock is this?</p>","2","class_response","0","test","22","Diorite","Basalt","01","false","3","2","",""
"","","","","","","","","","","","html-keyboard-response","50","2.0.0","372432","668545bb7810640d0a057f0f","2","34","null","","","","","","","","","<p style='font-size: 30px;'><strong>Okay</strong></p>","null","neutral_feedback","0","test","22","","","","","","","",""
"","","","","","","","","","","","html-button-response","51","2.0.0","373299","668545bb7810640d0a057f0f","2","34","866","","","","","","","","","<img src= ""rock_img/I_Peridotite_14.jpg"" style=""width:8cm; height:5.3cm;""><p>What type of rock is this?</p>","3","class_response","0","test","23","Gabbro","Peridotite","14","false","4","7","",""
"","","","","","","","","","","","html-keyboard-response","52","2.0.0","373812","668545bb7810640d0a057f0f","2","34","null","","","","","","","","","<p style='font-size: 30px;'><strong>Okay</strong></p>","null","neutral_feedback","0","test","23","","","","","","","",""
"","","","","","","","","","","","html-button-response","53","2.0.0","374811","668545bb7810640d0a057f0f","2","34","998","","","","","","","","","<img src= ""rock_img/I_Obsidian_04.jpg"" style=""width:8cm; height:6.930000000000001cm;""><p>What type of rock is this?</p>","4","class_response","0","test","24","Obsidian","Obsidian","04","true","5","5","",""
"","","","","","","","","","","","html-keyboard-response","54","2.0.0","375318","668545bb7810640d0a057f0f","2","34","null","","","","","","","","","<p style='font-size: 30px;'><strong>Okay</strong></p>","null","neutral_feedback","0","test","24","","","","","","","",""
"","","","","","","","","","","","html-button-response","55","2.0.0","375980","668545bb7810640d0a057f0f","2","34","661","","","","","","","","","<img src= ""rock_img/I_Pumice_10.jpg"" style=""width:8cm; height:7.609999999999999cm;""><p>What type of rock is this?</p>","1","class_response","0","test","25","Basalt","Pumice","10","false","2","8","",""
"","","","","","","","","","","","html-keyboard-response","56","2.0.0","376494","668545bb7810640d0a057f0f","2","34","null","","","","","","","","","<p style='font-size: 30px;'><strong>Okay</strong></p>","null","neutral_feedback","0","test","25","","","","","","","",""
"","","","","","","","","","","","html-button-response","57","2.0.0","376983","668545bb7810640d0a057f0f","2","34","488","","","","","","","","","<img src= ""rock_img/I_Pumice_06.jpg"" style=""width:8cm; height:6.9399999999999995cm;""><p>What type of rock is this?</p>","2","class_response","0","test","26","Diorite","Pumice","06","false","3","8","",""
"","","","","","","","","","","","html-keyboard-response","58","2.0.0","377498","668545bb7810640d0a057f0f","2","34","null","","","","","","","","","<p style='font-size: 30px;'><strong>Okay</strong></p>","null","neutral_feedback","0","test","26","","","","","","","",""
"","","","","","","","","","","","html-button-response","59","2.0.0","378199","668545bb7810640d0a057f0f","2","34","699","","","","","","","","","<img src= ""rock_img/I_Andesite_01.jpg"" style=""width:8cm; height:5.87cm;""><p>What type of rock is this?</p>","6","class_response","0","test","27","Peridotite","Andesite","01","false","7","1","",""
"","","","","","","","","","","","html-keyboard-response","60","2.0.0","378705","668545bb7810640d0a057f0f","2","34","null","","","","","","","","","<p style='font-size: 30px;'><strong>Okay</strong></p>","null","neutral_feedback","0","test","27","","","","","","","",""
"","","","","","","","","","","","html-button-response","61","2.0.0","379366","668545bb7810640d0a057f0f","2","34","659","","","","","","","","","<img src= ""rock_img/I_Peridotite_07.jpg"" style=""width:8cm; height:4.83cm;""><p>What type of rock is this?</p>","5","class_response","0","test","28","Pegmatite","Peridotite","07","false","6","7","",""
"","","","","","","","","","","","html-keyboard-response","62","2.0.0","379882","668545bb7810640d0a057f0f","2","34","null","","","","","","","","","<p style='font-size: 30px;'><strong>Okay</strong></p>","null","neutral_feedback","0","test","28","","","","","","","",""
"","","","","","","","","","","","html-button-response","63","2.0.0","381673","668545bb7810640d0a057f0f","2","34","1790","","","","","","","","","<img src= ""rock_img/I_Diorite_10.jpg"" style=""width:8cm; height:5.949999999999999cm;""><p>What type of rock is this?</p>","3","class_response","0","test","29","Gabbro","Diorite","10","false","4","3","",""
"","","","","","","","","","","","html-keyboard-response","64","2.0.0","382187","668545bb7810640d0a057f0f","2","34","null","","","","","","","","","<p style='font-size: 30px;'><strong>Okay</strong></p>","null","neutral_feedback","0","test","29","","","","","","","",""
"","","","","","","","","","","","html-button-response","65","2.0.0","382733","668545bb7810640d0a057f0f","2","34","543","","","","","","","","","<img src= ""rock_img/I_Obsidian_12.jpg"" style=""width:8cm; height:6.53cm;""><p>What type of rock is this?</p>","7","class_response","0","test","30","Pumice","Obsidian","12","false","8","5","",""
"","","","","","","","","","","","html-keyboard-response","66","2.0.0","383239","668545bb7810640d0a057f0f","2","34","null","","","","","","","","","<p style='font-size: 30px;'><strong>Okay</strong></p>","null","neutral_feedback","0","test","30","","","","","","","",""
"","","","","","","","","","","","html-button-response","67","2.0.0","383790","668545bb7810640d0a057f0f","2","34","550","","","","","","","","","<img src= ""rock_img/I_Obsidian_16.jpg"" style=""width:8cm; height:9.3cm;""><p>What type of rock is this?</p>","3","class_response","0","test","31","Gabbro","Obsidian","16","false","4","5","",""
"","","","","","","","","","","","html-keyboard-response","68","2.0.0","384321","668545bb7810640d0a057f0f","2","34","null","","","","","","","","","<p style='font-size: 30px;'><strong>Okay</strong></p>","null","neutral_feedback","0","test","31","","","","","","","",""
"","","","","","","","","","","","html-button-response","69","2.0.0","384765","668545bb7810640d0a057f0f","2","34","443","","","","","","","","","<img src= ""rock_img/I_Pegmatite_16.jpg"" style=""width:8cm; height:5.8cm;""><p>What type of rock is this?</p>","6","class_response","0","test","32","Peridotite","Pegmatite","16","false","7","6","",""
"","","","","","","","","","","","html-keyboard-response","70","2.0.0","385279","668545bb7810640d0a057f0f","2","34","null","","","","","","","","","<p style='font-size: 30px;'><strong>Okay</strong></p>","null","neutral_feedback","0","test","32","","","","","","","",""
"","","","","","","","","","","","html-button-response","71","2.0.0","385701","668545bb7810640d0a057f0f","2","34","420","","","","","","","","","<img src= ""rock_img/I_Basalt_12.jpg"" style=""width:8cm; height:6.010000000000001cm;""><p>What type of rock is this?</p>","2","class_response","0","test","33","Diorite","Basalt","12","false","3","2","",""
"","","","","","","","","","","","html-keyboard-response","72","2.0.0","386203","668545bb7810640d0a057f0f","2","34","null","","","","","","","","","<p style='font-size: 30px;'><strong>Okay</strong></p>","null","neutral_feedback","0","test","33","","","","","","","",""
"","","","","","","","","","","","html-button-response","73","2.0.0","386701","668545bb7810640d0a057f0f","2","34","496","","","","","","","","","<img src= ""rock_img/I_Gabbro_16.jpg"" style=""width:8cm; height:6.44cm;""><p>What type of rock is this?</p>","5","class_response","0","test","34","Pegmatite","Gabbro","16","false","6","4","",""
"","","","","","","","","","","","html-keyboard-response","74","2.0.0","387208","668545bb7810640d0a057f0f","2","34","null","","","","","","","","","<p style='font-size: 30px;'><strong>Okay</strong></p>","null","neutral_feedback","0","test","34","","","","","","","",""
"","","","","","","","","","","","html-button-response","75","2.0.0","387697","668545bb7810640d0a057f0f","2","34","487","","","","","","","","","<img src= ""rock_img/I_Pegmatite_12.jpg"" style=""width:8cm; height:5.7cm;""><p>What type of rock is this?</p>","4","class_response","0","test","35","Obsidian","Pegmatite","12","false","5","6","",""
"","","","","","","","","","","","html-keyboard-response","76","2.0.0","388212","668545bb7810640d0a057f0f","2","34","null","","","","","","","","","<p style='font-size: 30px;'><strong>Okay</strong></p>","null","neutral_feedback","0","test","35","","","","","","","",""
"","","","","","","","","","","","html-button-response","77","2.0.0","389267","668545bb7810640d0a057f0f","2","34","1055","","","","","","","","","<img src= ""rock_img/I_Pegmatite_13.jpg"" style=""width:8cm; height:4.95cm;""><p>What type of rock is this?</p>","0","class_response","0","test","36","Andesite","Pegmatite","13","false","1","6","",""
"","","","","","","","","","","","html-keyboard-response","78","2.0.0","389780","668545bb7810640d0a057f0f","2","34","null","","","","","","","","","<p style='font-size: 30px;'><strong>Okay</strong></p>","null","neutral_feedback","0","test","36","","","","","","","",""
"","","","","","","","","","","","html-button-response","79","2.0.0","391907","668545bb7810640d0a057f0f","2","34","2126","","","","","","","","","<img src= ""rock_img/I_Pumice_03.jpg"" style=""width:8cm; height:6.64cm;""><p>What type of rock is this?</p>","1","class_response","0","test","37","Basalt","Pumice","03","false","2","8","",""
"","","","","","","","","","","","html-keyboard-response","80","2.0.0","392417","668545bb7810640d0a057f0f","2","34","null","","","","","","","","","<p style='font-size: 30px;'><strong>Okay</strong></p>","null","neutral_feedback","0","test","37","","","","","","","",""
"","","","","","","","","","","","html-button-response","81","2.0.0","392987","668545bb7810640d0a057f0f","2","34","567","","","","","","","","","<img src= ""rock_img/I_Gabbro_05.jpg"" style=""width:8cm; height:6cm;""><p>What type of rock is this?</p>","4","class_response","0","test","38","Obsidian","Gabbro","05","false","5","4","",""
"","","","","","","","","","","","html-keyboard-response","82","2.0.0","393497","668545bb7810640d0a057f0f","2","34","null","","","","","","","","","<p style='font-size: 30px;'><strong>Okay</strong></p>","null","neutral_feedback","0","test","38","","","","","","","",""
"","","","","","","","","","","","html-button-response","83","2.0.0","394501","668545bb7810640d0a057f0f","2","34","1003","","","","","","","","","<img src= ""rock_img/I_Andesite_03.jpg"" style=""width:8cm; height:5.73cm;""><p>What type of rock is this?</p>","0","class_response","0","test","39","Andesite","Andesite","03","true","1","1","",""
"","","","","","","","","","","","html-keyboard-response","84","2.0.0","395003","668545bb7810640d0a057f0f","2","34","null","","","","","","","","","<p style='font-size: 30px;'><strong>Okay</strong></p>","null","neutral_feedback","0","test","39","","","","","","","",""
"","","","","","","","","","","","html-button-response","85","2.0.0","396231","668545bb7810640d0a057f0f","2","34","1226","","","","","","","","","<img src= ""rock_img/I_Peridotite_12.jpg"" style=""width:8cm; height:4.54cm;""><p>What type of rock is this?</p>","5","class_response","0","test","40","Pegmatite","Peridotite","12","false","6","7","",""
"","","","","","","","","","","","html-keyboard-response","86","2.0.0","396745","668545bb7810640d0a057f0f","2","34","null","","","","","","","","","<p style='font-size: 30px;'><strong>Okay</strong></p>","null","neutral_feedback","0","test","40","","","","","","","",""
"","","","","","","","","","","","html-button-response","87","2.0.0","398045","668545bb7810640d0a057f0f","2","34","1298","","","","","","","","","<img src= ""rock_img/I_Pegmatite_11.jpg"" style=""width:8cm; height:8.14cm;""><p>What type of rock is this?</p>","2","class_response","0","test","41","Diorite","Pegmatite","11","false","3","6","",""
"","","","","","","","","","","","html-keyboard-response","88","2.0.0","398549","668545bb7810640d0a057f0f","2","34","null","","","","","","","","","<p style='font-size: 30px;'><strong>Okay</strong></p>","null","neutral_feedback","0","test","41","","","","","","","",""
"","","","","","","","","","","","html-button-response","89","2.0.0","399049","668545bb7810640d0a057f0f","2","34","498","","","","","","","","","<img src= ""rock_img/I_Gabbro_09.jpg"" style=""width:8cm; height:7.279999999999999cm;""><p>What type of rock is this?</p>","2","class_response","0","test","42","Diorite","Gabbro","09","false","3","4","",""
"","","","","","","","","","","","html-keyboard-response","90","2.0.0","399553","668545bb7810640d0a057f0f","2","34","null","","","","","","","","","<p style='font-size: 30px;'><strong>Okay</strong></p>","null","neutral_feedback","0","test","42","","","","","","","",""
"","","","","","","","","","","","html-button-response","91","2.0.0","399985","668545bb7810640d0a057f0f","2","34","430","","","","","","","","","<img src= ""rock_img/I_Pumice_15.jpg"" style=""width:8cm; height:7.86cm;""><p>What type of rock is this?</p>","6","class_response","0","test","43","Peridotite","Pumice","15","false","7","8","",""
"","","","","","","","","","","","html-keyboard-response","92","2.0.0","400496","668545bb7810640d0a057f0f","2","34","null","","","","","","","","","<p style='font-size: 30px;'><strong>Okay</strong></p>","null","neutral_feedback","0","test","43","","","","","","","",""
"","","","","","","","","","","","html-button-response","93","2.0.0","400903","668545bb7810640d0a057f0f","2","34","404","","","","","","","","","<img src= ""rock_img/I_Basalt_06.jpg"" style=""width:8cm; height:7.06cm;""><p>What type of rock is this?</p>","3","class_response","0","test","44","Gabbro","Basalt","06","false","4","2","",""
"","","","","","","","","","","","html-keyboard-response","94","2.0.0","401419","668545bb7810640d0a057f0f","2","34","null","","","","","","","","","<p style='font-size: 30px;'><strong>Okay</strong></p>","null","neutral_feedback","0","test","44","","","","","","","",""
"","","","","","","","","","","","html-button-response","95","2.0.0","401945","668545bb7810640d0a057f0f","2","34","523","","","","","","","","","<img src= ""rock_img/I_Pumice_09.jpg"" style=""width:8cm; height:6.44cm;""><p>What type of rock is this?</p>","1","class_response","0","test","45","Basalt","Pumice","09","false","2","8","",""
"","","","","","","","","","","","html-keyboard-response","96","2.0.0","402454","668545bb7810640d0a057f0f","2","34","null","","","","","","","","","<p style='font-size: 30px;'><strong>Okay</strong></p>","null","neutral_feedback","0","test","45","","","","","","","",""
"","","","","","","","","","","","html-button-response","97","2.0.0","402941","668545bb7810640d0a057f0f","2","34","485","","","","","","","","","<img src= ""rock_img/I_Obsidian_10.jpg"" style=""width:8cm; height:6.260000000000001cm;""><p>What type of rock is this?</p>","0","class_response","0","test","46","Andesite","Obsidian","10","false","1","5","",""
"","","","","","","","","","","","html-keyboard-response","98","2.0.0","403443","668545bb7810640d0a057f0f","2","34","null","","","","","","","","","<p style='font-size: 30px;'><strong>Okay</strong></p>","null","neutral_feedback","0","test","46","","","","","","","",""
"","","","","","","","","","","","html-button-response","99","2.0.0","404377","668545bb7810640d0a057f0f","2","34","933","","","","","","","","","<img src= ""rock_img/I_Gabbro_08.jpg"" style=""width:8cm; height:5.15cm;""><p>What type of rock is this?</p>","4","class_response","0","test","47","Obsidian","Gabbro","08","false","5","4","",""
"","","","","","","","","","","","html-keyboard-response","100","2.0.0","404933","668545bb7810640d0a057f0f","2","34","null","","","","","","","","","<p style='font-size: 30px;'><strong>Okay</strong></p>","null","neutral_feedback","0","test","47","","","","","","","",""
"","","","","","","","","","","","html-button-response","101","2.0.0","406029","668545bb7810640d0a057f0f","2","34","1094","","","","","","","","","<img src= ""rock_img/I_Peridotite_08.jpg"" style=""width:8cm; height:6.7cm;""><p>What type of rock is this?</p>","1","class_response","0","test","48","Basalt","Peridotite","08","false","2","7","",""
"","","","","","","","","","","","html-keyboard-response","102","2.0.0","406532","668545bb7810640d0a057f0f","2","34","null","","","","","","","","","<p style='font-size: 30px;'><strong>Okay</strong></p>","null","neutral_feedback","0","test","48","","","","","","","",""
"","","","","","","","","","","","instructions","103","2.0.0","463727","668545bb7810640d0a057f0f","2","34","57140","","","","","","","","[{""page_index"":0,""viewing_time"":39888},{""page_index"":1,""viewing_time"":6234},{""page_index"":2,""viewing_time"":11018}]","","","","","","","","","","","","","",""
"","","","","","","","","","","","html-button-response","104","2.0.0","465955","668545bb7810640d0a057f0f","2","34","2226","","","","","","","","","","0","start_train","","","","","","","","","","",""
"","","","","","","","","","","","html-button-response","105","2.0.0","468570","668545bb7810640d0a057f0f","2","34","2613","","","","","","","","","<img src= ""rock_img/I_Pumice_13.jpg"" style=""width:8cm; height:8.200000000000001cm;""><p>What type of rock is this?</p>","2","class_response","1","train","1","Diorite","Pumice","13","false","3","8","",""
"","","","","","","","","","","","html-button-response","106","2.0.0","473305","668545bb7810640d0a057f0f","2","34","4732","","","","","","","","","<img src= rock_img/I_Pumice_13.jpg style=""width:8cm; height:8.200000000000001cm;""><p style='font-size: 30px; color: red;'><strong>Incorrect!</strong></p><p style='font-size: 30px;'><strong>This rock is pumice</strong></p>","0","corr_feedback","1","train","1","","","","","","","",""
"","","","","","","","","","","","html-button-response","107","2.0.0","475357","668545bb7810640d0a057f0f","2","34","2050","","","","","","","","","<img src= ""rock_img/I_Pumice_16.jpg"" style=""width:8cm; height:6.79cm;""><p>What type of rock is this?</p>","0","class_response","1","train","2","Andesite","Pumice","16","false","1","8","",""
"","","","","","","","","","","","html-button-response","108","2.0.0","476611","668545bb7810640d0a057f0f","2","34","1252","","","","","","","","","<img src= rock_img/I_Pumice_16.jpg style=""width:8cm; height:6.79cm;""><p style='font-size: 30px; color: red;'><strong>Incorrect!</strong></p><p style='font-size: 30px;'><strong>This rock is pumice</strong></p>","0","corr_feedback","1","train","2","","","","","","","",""
"","","","","","","","","","","","html-button-response","109","2.0.0","477559","668545bb7810640d0a057f0f","2","34","947","","","","","","","","","<img src= ""rock_img/I_Pumice_02.jpg"" style=""width:8cm; height:7.3999999999999995cm;""><p>What type of rock is this?</p>","2","class_response","1","train","3","Diorite","Pumice","02","false","3","8","",""
"","","","","","","","","","","","html-button-response","110","2.0.0","478771","668545bb7810640d0a057f0f","2","34","1210","","","","","","","","","<img src= rock_img/I_Pumice_02.jpg style=""width:8cm; height:7.3999999999999995cm;""><p style='font-size: 30px; color: red;'><strong>Incorrect!</strong></p><p style='font-size: 30px;'><strong>This rock is pumice</strong></p>","0","corr_feedback","1","train","3","","","","","","","",""
"","","","","","","","","","","","html-button-response","111","2.0.0","479688","668545bb7810640d0a057f0f","2","34","915","","","","","","","","","<img src= ""rock_img/I_Pumice_04.jpg"" style=""width:8cm; height:6.819999999999999cm;""><p>What type of rock is this?</p>","1","class_response","1","train","4","Basalt","Pumice","04","false","2","8","",""
"","","","","","","","","","","","html-button-response","112","2.0.0","480951","668545bb7810640d0a057f0f","2","34","1262","","","","","","","","","<img src= rock_img/I_Pumice_04.jpg style=""width:8cm; height:6.819999999999999cm;""><p style='font-size: 30px; color: red;'><strong>Incorrect!</strong></p><p style='font-size: 30px;'><strong>This rock is pumice</strong></p>","0","corr_feedback","1","train","4","","","","","","","",""
"","","","","","","","","","","","html-button-response","113","2.0.0","607666","668545bb7810640d0a057f0f","2","34","126712","","","","","","","","","<img src= ""rock_img/I_Peridotite_02.jpg"" style=""width:8cm; height:5.859999999999999cm;""><p>What type of rock is this?</p>","5","class_response","1","train","5","Pegmatite","Peridotite","02","false","6","7","",""
"","","","","","","","","","","","html-button-response","114","2.0.0","608905","668545bb7810640d0a057f0f","2","34","1237","","","","","","","","","<img src= rock_img/I_Peridotite_02.jpg style=""width:8cm; height:5.859999999999999cm;""><p style='font-size: 30px; color: red;'><strong>Incorrect!</strong></p><p style='font-size: 30px;'><strong>This rock is peridotite</strong></p>","0","corr_feedback","1","train","5","","","","","","","",""
"","","","","","","","","","","","html-button-response","115","2.0.0","613865","668545bb7810640d0a057f0f","2","34","4958","","","","","","","","","<img src= ""rock_img/I_Obsidian_09.jpg"" style=""width:8cm; height:5cm;""><p>What type of rock is this?</p>","4","class_response","1","train","6","Obsidian","Obsidian","09","true","5","5","",""
"","","","","","","","","","","","html-button-response","116","2.0.0","615335","668545bb7810640d0a057f0f","2","34","1468","","","","","","","","","<img src= rock_img/I_Obsidian_09.jpg style=""width:8cm; height:5cm;""><p style='font-size: 30px; color: green;'><strong>Correct!</strong></p><p style='font-size: 30px;'><strong>This rock is obsidian</strong></p>","0","corr_feedback","1","train","6","","","","","","","",""
"","","","","","","","","","","","html-button-response","117","2.0.0","638004","668545bb7810640d0a057f0f","2","34","22666","","","","","","","","","<img src= ""rock_img/I_Basalt_16.jpg"" style=""width:8cm; height:7.659999999999999cm;""><p>What type of rock is this?</p>","1","class_response","1","train","7","Basalt","Basalt","16","true","2","2","",""
"","","","","","","","","","","","html-button-response","118","2.0.0","640721","668545bb7810640d0a057f0f","2","34","2715","","","","","","","","","<img src= rock_img/I_Basalt_16.jpg style=""width:8cm; height:7.659999999999999cm;""><p style='font-size: 30px; color: green;'><strong>Correct!</strong></p><p style='font-size: 30px;'><strong>This rock is basalt</strong></p>","0","corr_feedback","1","train","7","","","","","","","",""
"","","","","","","","","","","","html-button-response","119","2.0.0","643337","668545bb7810640d0a057f0f","2","34","2612","","","","","","","","","<img src= ""rock_img/I_Obsidian_14.jpg"" style=""width:8cm; height:7.64cm;""><p>What type of rock is this?</p>","4","class_response","1","train","8","Obsidian","Obsidian","14","true","5","5","",""
"","","","","","","","","","","","html-button-response","120","2.0.0","644597","668545bb7810640d0a057f0f","2","34","1257","","","","","","","","","<img src= rock_img/I_Obsidian_14.jpg style=""width:8cm; height:7.64cm;""><p style='font-size: 30px; color: green;'><strong>Correct!</strong></p><p style='font-size: 30px;'><strong>This rock is obsidian</strong></p>","0","corr_feedback","1","train","8","","","","","","","",""
"","","","","","","","","","","","html-button-response","121","2.0.0","646365","668545bb7810640d0a057f0f","2","34","1766","","","","","","","","","<img src= ""rock_img/I_Peridotite_06.jpg"" style=""width:8cm; height:7.53cm;""><p>What type of rock is this?</p>","3","class_response","1","train","9","Gabbro","Peridotite","06","false","4","7","",""
"","","","","","","","","","","","html-button-response","122","2.0.0","648073","668545bb7810640d0a057f0f","2","34","1706","","","","","","","","","<img src= rock_img/I_Peridotite_06.jpg style=""width:8cm; height:7.53cm;""><p style='font-size: 30px; color: red;'><strong>Incorrect!</strong></p><p style='font-size: 30px;'><strong>This rock is peridotite</strong></p>","0","corr_feedback","1","train","9","","","","","","","",""
"","","","","","","","","","","","html-button-response","123","2.0.0","656204","668545bb7810640d0a057f0f","2","34","8129","","","","","","","","","<img src= ""rock_img/I_Diorite_06.jpg"" style=""width:8cm; height:6.03cm;""><p>What type of rock is this?</p>","3","class_response","1","train","10","Gabbro","Diorite","06","false","4","3","",""
"","","","","","","","","","","","html-button-response","124","2.0.0","658881","668545bb7810640d0a057f0f","2","34","2677","","","","","","","","","<img src= rock_img/I_Diorite_06.jpg style=""width:8cm; height:6.03cm;""><p style='font-size: 30px; color: red;'><strong>Incorrect!</strong></p><p style='font-size: 30px;'><strong>This rock is diorite</strong></p>","0","corr_feedback","1","train","10","","","","","","","",""
"","","","","","","","","","","","html-button-response","125","2.0.0","671119","668545bb7810640d0a057f0f","2","34","12236","","","","","","","","","<img src= ""rock_img/I_Basalt_11.jpg"" style=""width:8cm; height:5.359999999999999cm;""><p>What type of rock is this?</p>","7","class_response","1","train","11","Pumice","Basalt","11","false","8","2","",""
"","","","","","","","","","","","html-button-response","126","2.0.0","672459","668545bb7810640d0a057f0f","2","34","1338","","","","","","","","","<img src= rock_img/I_Basalt_11.jpg style=""width:8cm; height:5.359999999999999cm;""><p style='font-size: 30px; color: red;'><strong>Incorrect!</strong></p><p style='font-size: 30px;'><strong>This rock is basalt</strong></p>","0","corr_feedback","1","train","11","","","","","","","",""
"","","","","","","","","","","","html-button-response","127","2.0.0","674536","668545bb7810640d0a057f0f","2","34","2074","","","","","","","","","<img src= ""rock_img/I_Andesite_04.jpg"" style=""width:8cm; height:5.96cm;""><p>What type of rock is this?</p>","6","class_response","1","train","12","Peridotite","Andesite","04","false","7","1","",""
"","","","","","","","","","","","html-button-response","128","2.0.0","675325","668545bb7810640d0a057f0f","2","34","788","","","","","","","","","<img src= rock_img/I_Andesite_04.jpg style=""width:8cm; height:5.96cm;""><p style='font-size: 30px; color: red;'><strong>Incorrect!</strong></p><p style='font-size: 30px;'><strong>This rock is andesite</strong></p>","0","corr_feedback","1","train","12","","","","","","","",""
"","","","","","","","","","","","html-button-response","129","2.0.0","680793","668545bb7810640d0a057f0f","2","34","5466","","","","","","","","","<img src= ""rock_img/I_Andesite_14.jpg"" style=""width:8cm; height:5.449999999999999cm;""><p>What type of rock is this?</p>","3","class_response","1","train","13","Gabbro","Andesite","14","false","4","1","",""
"","","","","","","","","","","","html-button-response","130","2.0.0","682053","668545bb7810640d0a057f0f","2","34","1257","","","","","","","","","<img src= rock_img/I_Andesite_14.jpg style=""width:8cm; height:5.449999999999999cm;""><p style='font-size: 30px; color: red;'><strong>Incorrect!</strong></p><p style='font-size: 30px;'><strong>This rock is andesite</strong></p>","0","corr_feedback","1","train","13","","","","","","","",""
"","","","","","","","","","","","html-button-response","131","2.0.0","695490","668545bb7810640d0a057f0f","2","34","13434","","","","","","","","","<img src= ""rock_img/I_Pegmatite_05.jpg"" style=""width:8cm; height:7.300000000000001cm;""><p>What type of rock is this?</p>","5","class_response","1","train","14","Pegmatite","Pegmatite","05","true","6","6","",""
"","","","","","","","","","","","html-button-response","132","2.0.0","699634","668545bb7810640d0a057f0f","2","34","4142","","","","","","","","","<img src= rock_img/I_Pegmatite_05.jpg style=""width:8cm; height:7.300000000000001cm;""><p style='font-size: 30px; color: green;'><strong>Correct!</strong></p><p style='font-size: 30px;'><strong>This rock is pegmatite</strong></p>","0","corr_feedback","1","train","14","","","","","","","",""
"","","","","","","","","","","","html-button-response","133","2.0.0","711377","668545bb7810640d0a057f0f","2","34","11741","","","","","","","","","<img src= ""rock_img/I_Basalt_10.jpg"" style=""width:8cm; height:5.85cm;""><p>What type of rock is this?</p>","1","class_response","1","train","15","Basalt","Basalt","10","true","2","2","",""
"","","","","","","","","","","","html-button-response","134","2.0.0","712885","668545bb7810640d0a057f0f","2","34","1505","","","","","","","","","<img src= rock_img/I_Basalt_10.jpg style=""width:8cm; height:5.85cm;""><p style='font-size: 30px; color: green;'><strong>Correct!</strong></p><p style='font-size: 30px;'><strong>This rock is basalt</strong></p>","0","corr_feedback","1","train","15","","","","","","","",""
"","","","","","","","","","","","html-button-response","135","2.0.0","722435","668545bb7810640d0a057f0f","2","34","9548","","","","","","","","","<img src= ""rock_img/I_Gabbro_03.jpg"" style=""width:8cm; height:8.52cm;""><p>What type of rock is this?</p>","5","class_response","1","train","16","Pegmatite","Gabbro","03","false","6","4","",""
"","","","","","","","","","","","html-button-response","136","2.0.0","723396","668545bb7810640d0a057f0f","2","34","958","","","","","","","","","<img src= rock_img/I_Gabbro_03.jpg style=""width:8cm; height:8.52cm;""><p style='font-size: 30px; color: red;'><strong>Incorrect!</strong></p><p style='font-size: 30px;'><strong>This rock is gabbro</strong></p>","0","corr_feedback","1","train","16","","","","","","","",""
"","","","","","","","","","","","html-button-response","137","2.0.0","724760","668545bb7810640d0a057f0f","2","34","1363","","","","","","","","","<img src= ""rock_img/I_Diorite_13.jpg"" style=""width:8cm; height:6.29cm;""><p>What type of rock is this?</p>","3","class_response","1","train","17","Gabbro","Diorite","13","false","4","3","",""
"","","","","","","","","","","","html-button-response","138","2.0.0","725855","668545bb7810640d0a057f0f","2","34","1093","","","","","","","","","<img src= rock_img/I_Diorite_13.jpg style=""width:8cm; height:6.29cm;""><p style='font-size: 30px; color: red;'><strong>Incorrect!</strong></p><p style='font-size: 30px;'><strong>This rock is diorite</strong></p>","0","corr_feedback","1","train","17","","","","","","","",""
"","","","","","","","","","","","html-button-response","139","2.0.0","727381","668545bb7810640d0a057f0f","2","34","1524","","","","","","","","","<img src= ""rock_img/I_Peridotite_10.jpg"" style=""width:8cm; height:5.390000000000001cm;""><p>What type of rock is this?</p>","3","class_response","1","train","18","Gabbro","Peridotite","10","false","4","7","",""
"","","","","","","","","","","","html-button-response","140","2.0.0","728325","668545bb7810640d0a057f0f","2","34","942","","","","","","","","","<img src= rock_img/I_Peridotite_10.jpg style=""width:8cm; height:5.390000000000001cm;""><p style='font-size: 30px; color: red;'><strong>Incorrect!</strong></p><p style='font-size: 30px;'><strong>This rock is peridotite</strong></p>","0","corr_feedback","1","train","18","","","","","","","",""
"","","","","","","","","","","","html-button-response","141","2.0.0","730185","668545bb7810640d0a057f0f","2","34","1858","","","","","","","","","<img src= ""rock_img/I_Gabbro_01.jpg"" style=""width:8cm; height:5.21cm;""><p>What type of rock is this?</p>","2","class_response","1","train","19","Diorite","Gabbro","01","false","3","4","",""
"","","","","","","","","","","","html-button-response","142","2.0.0","731017","668545bb7810640d0a057f0f","2","34","829","","","","","","","","","<img src= rock_img/I_Gabbro_01.jpg style=""width:8cm; height:5.21cm;""><p style='font-size: 30px; color: red;'><strong>Incorrect!</strong></p><p style='font-size: 30px;'><strong>This rock is gabbro</strong></p>","0","corr_feedback","1","train","19","","","","","","","",""
"","","","","","","","","","","","html-button-response","143","2.0.0","732101","668545bb7810640d0a057f0f","2","34","1082","","","","","","","","","<img src= ""rock_img/I_Basalt_16.jpg"" style=""width:8cm; height:7.659999999999999cm;""><p>What type of rock is this?</p>","6","class_response","1","train","20","Peridotite","Basalt","16","false","7","2","",""
"","","","","","","","","","","","html-button-response","144","2.0.0","733638","668545bb7810640d0a057f0f","2","34","1534","","","","","","","","","<img src= rock_img/I_Basalt_16.jpg style=""width:8cm; height:7.659999999999999cm;""><p style='font-size: 30px; color: red;'><strong>Incorrect!</strong></p><p style='font-size: 30px;'><strong>This rock is basalt</strong></p>","0","corr_feedback","1","train","20","","","","","","","",""
"","","","","","","","","","","","html-button-response","145","2.0.0","735655","668545bb7810640d0a057f0f","2","34","2017","","","","","","","","","<img src= ""rock_img/I_Gabbro_13.jpg"" style=""width:8cm; height:5.08cm;""><p>What type of rock is this?</p>","1","class_response","1","train","21","Basalt","Gabbro","13","false","2","4","",""
"","","","","","","","","","","","html-button-response","146","2.0.0","738155","668545bb7810640d0a057f0f","2","34","2497","","","","","","","","","<img src= rock_img/I_Gabbro_13.jpg style=""width:8cm; height:5.08cm;""><p style='font-size: 30px; color: red;'><strong>Incorrect!</strong></p><p style='font-size: 30px;'><strong>This rock is gabbro</strong></p>","0","corr_feedback","1","train","21","","","","","","","",""
"","","","","","","","","","","","html-button-response","147","2.0.0","742375","668545bb7810640d0a057f0f","2","34","4219","","","","","","","","","<img src= ""rock_img/I_Basalt_04.jpg"" style=""width:8cm; height:7.53cm;""><p>What type of rock is this?</p>","4","class_response","1","train","22","Obsidian","Basalt","04","false","5","2","",""
"","","","","","","","","","","","html-button-response","148","2.0.0","743651","668545bb7810640d0a057f0f","2","34","1272","","","","","","","","","<img src= rock_img/I_Basalt_04.jpg style=""width:8cm; height:7.53cm;""><p style='font-size: 30px; color: red;'><strong>Incorrect!</strong></p><p style='font-size: 30px;'><strong>This rock is basalt</strong></p>","0","corr_feedback","1","train","22","","","","","","","",""
"","","","","","","","","","","","html-button-response","149","2.0.0","745525","668545bb7810640d0a057f0f","2","34","1872","","","","","","","","","<img src= ""rock_img/I_Diorite_02.jpg"" style=""width:8cm; height:6.27cm;""><p>What type of rock is this?</p>","0","class_response","1","train","23","Andesite","Diorite","02","false","1","3","",""
"","","","","","","","","","","","html-button-response","150","2.0.0","746506","668545bb7810640d0a057f0f","2","34","978","","","","","","","","","<img src= rock_img/I_Diorite_02.jpg style=""width:8cm; height:6.27cm;""><p style='font-size: 30px; color: red;'><strong>Incorrect!</strong></p><p style='font-size: 30px;'><strong>This rock is diorite</strong></p>","0","corr_feedback","1","train","23","","","","","","","",""
"","","","","","","","","","","","html-button-response","151","2.0.0","748253","668545bb7810640d0a057f0f","2","34","1745","","","","","","","","","<img src= ""rock_img/I_Obsidian_11.jpg"" style=""width:8cm; height:6.05cm;""><p>What type of rock is this?</p>","4","class_response","1","train","24","Obsidian","Obsidian","11","true","5","5","",""
"","","","","","","","","","","","html-button-response","152","2.0.0","749221","668545bb7810640d0a057f0f","2","34","965","","","","","","","","","<img src= rock_img/I_Obsidian_11.jpg style=""width:8cm; height:6.05cm;""><p style='font-size: 30px; color: green;'><strong>Correct!</strong></p><p style='font-size: 30px;'><strong>This rock is obsidian</strong></p>","0","corr_feedback","1","train","24","","","","","","","",""
"","","","","","","","","","","","html-button-response","153","2.0.0","751493","668545bb7810640d0a057f0f","2","34","2270","","","","","","","","","<img src= ""rock_img/I_Peridotite_05.jpg"" style=""width:8cm; height:7.1499999999999995cm;""><p>What type of rock is this?</p>","7","class_response","1","train","25","Pumice","Peridotite","05","false","8","7","",""
"","","","","","","","","","","","html-button-response","154","2.0.0","752425","668545bb7810640d0a057f0f","2","34","930","","","","","","","","","<img src= rock_img/I_Peridotite_05.jpg style=""width:8cm; height:7.1499999999999995cm;""><p style='font-size: 30px; color: red;'><strong>Incorrect!</strong></p><p style='font-size: 30px;'><strong>This rock is peridotite</strong></p>","0","corr_feedback","1","train","25","","","","","","","",""
"","","","","","","","","","","","html-button-response","155","2.0.0","753895","668545bb7810640d0a057f0f","2","34","1468","","","","","","","","","<img src= ""rock_img/I_Basalt_09.jpg"" style=""width:8cm; height:6.2cm;""><p>What type of rock is this?</p>","3","class_response","1","train","26","Gabbro","Basalt","09","false","4","2","",""
"","","","","","","","","","","","html-button-response","156","2.0.0","754848","668545bb7810640d0a057f0f","2","34","951","","","","","","","","","<img src= rock_img/I_Basalt_09.jpg style=""width:8cm; height:6.2cm;""><p style='font-size: 30px; color: red;'><strong>Incorrect!</strong></p><p style='font-size: 30px;'><strong>This rock is basalt</strong></p>","0","corr_feedback","1","train","26","","","","","","","",""
"","","","","","","","","","","","html-button-response","157","2.0.0","762402","668545bb7810640d0a057f0f","2","34","7551","","","","","","","","","<img src= ""rock_img/I_Pegmatite_08.jpg"" style=""width:8cm; height:7.68cm;""><p>What type of rock is this?</p>","1","class_response","1","train","27","Basalt","Pegmatite","08","false","2","6","",""
"","","","","","","","","","","","html-button-response","158","2.0.0","763250","668545bb7810640d0a057f0f","2","34","846","","","","","","","","","<img src= rock_img/I_Pegmatite_08.jpg style=""width:8cm; height:7.68cm;""><p style='font-size: 30px; color: red;'><strong>Incorrect!</strong></p><p style='font-size: 30px;'><strong>This rock is pegmatite</strong></p>","0","corr_feedback","1","train","27","","","","","","","",""
"","","","","","","","","","","","html-button-response","159","2.0.0","764114","668545bb7810640d0a057f0f","2","34","860","","","","","","","","","<img src= ""rock_img/I_Pumice_08.jpg"" style=""width:8cm; height:6.67cm;""><p>What type of rock is this?</p>","3","class_response","1","train","28","Gabbro","Pumice","08","false","4","8","",""
"","","","","","","","","","","","html-button-response","160","2.0.0","765146","668545bb7810640d0a057f0f","2","34","1029","","","","","","","","","<img src= rock_img/I_Pumice_08.jpg style=""width:8cm; height:6.67cm;""><p style='font-size: 30px; color: red;'><strong>Incorrect!</strong></p><p style='font-size: 30px;'><strong>This rock is pumice</strong></p>","0","corr_feedback","1","train","28","","","","","","","",""
"","","","","","","","","","","","html-button-response","161","2.0.0","765857","668545bb7810640d0a057f0f","2","34","710","","","","","","","","","<img src= ""rock_img/I_Gabbro_11.jpg"" style=""width:8cm; height:6.2cm;""><p>What type of rock is this?</p>","6","class_response","1","train","29","Peridotite","Gabbro","11","false","7","4","",""
"","","","","","","","","","","","html-button-response","162","2.0.0","766482","668545bb7810640d0a057f0f","2","34","623","","","","","","","","","<img src= rock_img/I_Gabbro_11.jpg style=""width:8cm; height:6.2cm;""><p style='font-size: 30px; color: red;'><strong>Incorrect!</strong></p><p style='font-size: 30px;'><strong>This rock is gabbro</strong></p>","0","corr_feedback","1","train","29","","","","","","","",""
"","","","","","","","","","","","html-button-response","163","2.0.0","767202","668545bb7810640d0a057f0f","2","34","717","","","","","","","","","<img src= ""rock_img/I_Andesite_16.jpg"" style=""width:8cm; height:6.010000000000001cm;""><p>What type of rock is this?</p>","2","class_response","1","train","30","Diorite","Andesite","16","false","3","1","",""
"","","","","","","","","","","","html-button-response","164","2.0.0","768294","668545bb7810640d0a057f0f","2","34","1090","","","","","","","","","<img src= rock_img/I_Andesite_16.jpg style=""width:8cm; height:6.010000000000001cm;""><p style='font-size: 30px; color: red;'><strong>Incorrect!</strong></p><p style='font-size: 30px;'><strong>This rock is andesite</strong></p>","0","corr_feedback","1","train","30","","","","","","","",""
"","","","","","","","","","","","html-button-response","165","2.0.0","769813","668545bb7810640d0a057f0f","2","34","1518","","","","","","","","","<img src= ""rock_img/I_Pegmatite_10.jpg"" style=""width:8cm; height:4.16cm;""><p>What type of rock is this?</p>","0","class_response","1","train","31","Andesite","Pegmatite","10","false","1","6","",""
"","","","","","","","","","","","html-button-response","166","2.0.0","770760","668545bb7810640d0a057f0f","2","34","944","","","","","","","","","<img src= rock_img/I_Pegmatite_10.jpg style=""width:8cm; height:4.16cm;""><p style='font-size: 30px; color: red;'><strong>Incorrect!</strong></p><p style='font-size: 30px;'><strong>This rock is pegmatite</strong></p>","0","corr_feedback","1","train","31","","","","","","","",""
"","","","","","","","","","","","html-button-response","167","2.0.0","771736","668545bb7810640d0a057f0f","2","34","975","","","","","","","","","<img src= ""rock_img/I_Diorite_16.jpg"" style=""width:8cm; height:6.74cm;""><p>What type of rock is this?</p>","1","class_response","1","train","32","Basalt","Diorite","16","false","2","3","",""
"","","","","","","","","","","","html-button-response","168","2.0.0","772503","668545bb7810640d0a057f0f","2","34","765","","","","","","","","","<img src= rock_img/I_Diorite_16.jpg style=""width:8cm; height:6.74cm;""><p style='font-size: 30px; color: red;'><strong>Incorrect!</strong></p><p style='font-size: 30px;'><strong>This rock is diorite</strong></p>","0","corr_feedback","1","train","32","","","","","","","",""
"","","","","","","","","","","","html-button-response","169","2.0.0","773679","668545bb7810640d0a057f0f","2","34","1173","","","","","","","","","<img src= ""rock_img/I_Peridotite_15.jpg"" style=""width:8cm; height:6cm;""><p>What type of rock is this?</p>","2","class_response","1","train","33","Diorite","Peridotite","15","false","3","7","",""
"","","","","","","","","","","","html-button-response","170","2.0.0","774588","668545bb7810640d0a057f0f","2","34","906","","","","","","","","","<img src= rock_img/I_Peridotite_15.jpg style=""width:8cm; height:6cm;""><p style='font-size: 30px; color: red;'><strong>Incorrect!</strong></p><p style='font-size: 30px;'><strong>This rock is peridotite</strong></p>","0","corr_feedback","1","train","33","","","","","","","",""
"","","","","","","","","","","","html-button-response","171","2.0.0","775823","668545bb7810640d0a057f0f","2","34","1234","","","","","","","","","<img src= ""rock_img/I_Pegmatite_03.jpg"" style=""width:8cm; height:5.239999999999999cm;""><p>What type of rock is this?</p>","7","class_response","1","train","34","Pumice","Pegmatite","03","false","8","6","",""
"","","","","","","","","","","","html-button-response","172","2.0.0","776843","668545bb7810640d0a057f0f","2","34","1019","","","","","","","","","<img src= rock_img/I_Pegmatite_03.jpg style=""width:8cm; height:5.239999999999999cm;""><p style='font-size: 30px; color: red;'><strong>Incorrect!</strong></p><p style='font-size: 30px;'><strong>This rock is pegmatite</strong></p>","0","corr_feedback","1","train","34","","","","","","","",""
"","","","","","","","","","","","html-button-response","173","2.0.0","778331","668545bb7810640d0a057f0f","2","34","1486","","","","","","","","","<img src= ""rock_img/I_Andesite_11.jpg"" style=""width:8cm; height:4.92cm;""><p>What type of rock is this?</p>","3","class_response","1","train","35","Gabbro","Andesite","11","false","4","1","",""
"","","","","","","","","","","","html-button-response","174","2.0.0","779585","668545bb7810640d0a057f0f","2","34","1252","","","","","","","","","<img src= rock_img/I_Andesite_11.jpg style=""width:8cm; height:4.92cm;""><p style='font-size: 30px; color: red;'><strong>Incorrect!</strong></p><p style='font-size: 30px;'><strong>This rock is andesite</strong></p>","0","corr_feedback","1","train","35","","","","","","","",""
"","","","","","","","","","","","html-button-response","175","2.0.0","781338","668545bb7810640d0a057f0f","2","34","1750","","","","","","","","","<img src= ""rock_img/I_Pegmatite_07.jpg"" style=""width:8cm; height:6.7cm;""><p>What type of rock is this?</p>","2","class_response","1","train","36","Diorite","Pegmatite","07","false","3","6","",""
"","","","","","","","","","","","html-button-response","176","2.0.0","782322","668545bb7810640d0a057f0f","2","34","983","","","","","","","","","<img src= rock_img/I_Pegmatite_07.jpg style=""width:8cm; height:6.7cm;""><p style='font-size: 30px; color: red;'><strong>Incorrect!</strong></p><p style='font-size: 30px;'><strong>This rock is pegmatite</strong></p>","0","corr_feedback","1","train","36","","","","","","","",""
"","","","","","","","","","","","html-button-response","177","2.0.0","784941","668545bb7810640d0a057f0f","2","34","2616","","","","","","","","","<img src= ""rock_img/I_Pegmatite_15.jpg"" style=""width:8cm; height:6cm;""><p>What type of rock is this?</p>","0","class_response","1","train","37","Andesite","Pegmatite","15","false","1","6","",""
"","","","","","","","","","","","html-button-response","178","2.0.0","785925","668545bb7810640d0a057f0f","2","34","982","","","","","","","","","<img src= rock_img/I_Pegmatite_15.jpg style=""width:8cm; height:6cm;""><p style='font-size: 30px; color: red;'><strong>Incorrect!</strong></p><p style='font-size: 30px;'><strong>This rock is pegmatite</strong></p>","0","corr_feedback","1","train","37","","","","","","","",""
"","","","","","","","","","","","html-button-response","179","2.0.0","787800","668545bb7810640d0a057f0f","2","34","1872","","","","","","","","","<img src= ""rock_img/I_Peridotite_16.jpg"" style=""width:8cm; height:6.989999999999999cm;""><p>What type of rock is this?</p>","5","class_response","1","train","38","Pegmatite","Peridotite","16","false","6","7","",""
"","","","","","","","","","","","html-button-response","180","2.0.0","788567","668545bb7810640d0a057f0f","2","34","765","","","","","","","","","<img src= rock_img/I_Peridotite_16.jpg style=""width:8cm; height:6.989999999999999cm;""><p style='font-size: 30px; color: red;'><strong>Incorrect!</strong></p><p style='font-size: 30px;'><strong>This rock is peridotite</strong></p>","0","corr_feedback","1","train","38","","","","","","","",""
"","","","","","","","","","","","html-button-response","181","2.0.0","790380","668545bb7810640d0a057f0f","2","34","1810","","","","","","","","","<img src= ""rock_img/I_Obsidian_02.jpg"" style=""width:8cm; height:7.51cm;""><p>What type of rock is this?</p>","5","class_response","1","train","39","Pegmatite","Obsidian","02","false","6","5","",""
"","","","","","","","","","","","html-button-response","182","2.0.0","791443","668545bb7810640d0a057f0f","2","34","1062","","","","","","","","","<img src= rock_img/I_Obsidian_02.jpg style=""width:8cm; height:7.51cm;""><p style='font-size: 30px; color: red;'><strong>Incorrect!</strong></p><p style='font-size: 30px;'><strong>This rock is obsidian</strong></p>","0","corr_feedback","1","train","39","","","","","","","",""
"","","","","","","","","","","","html-button-response","183","2.0.0","793940","668545bb7810640d0a057f0f","2","34","2494","","","","","","","","","<img src= ""rock_img/I_Diorite_07.jpg"" style=""width:8cm; height:5.239999999999999cm;""><p>What type of rock is this?</p>","1","class_response","1","train","40","Basalt","Diorite","07","false","2","3","",""
"","","","","","","","","","","","html-button-response","184","2.0.0","794855","668545bb7810640d0a057f0f","2","34","913","","","","","","","","","<img src= rock_img/I_Diorite_07.jpg style=""width:8cm; height:5.239999999999999cm;""><p style='font-size: 30px; color: red;'><strong>Incorrect!</strong></p><p style='font-size: 30px;'><strong>This rock is diorite</strong></p>","0","corr_feedback","1","train","40","","","","","","","",""
"","","","","","","","","","","","html-button-response","185","2.0.0","794895","668545bb7810640d0a057f0f","2","34","37","","","","","","","","","<img src= ""rock_img/I_Pumice_14.jpg"" style=""width:8cm; height:6.39cm;""><p>What type of rock is this?</p>","5","class_response","1","train","41","Pegmatite","Pumice","14","false","6","8","",""
"","","","","","","","","","","","html-button-response","186","2.0.0","797070","668545bb7810640d0a057f0f","2","34","2173","","","","","","","","","<img src= rock_img/I_Pumice_14.jpg style=""width:8cm; height:6.39cm;""><p style='font-size: 30px; color: red;'><strong>Incorrect!</strong></p><p style='font-size: 30px;'><strong>This rock is pumice</strong></p>","0","corr_feedback","1","train","41","","","","","","","",""
"","","","","","","","","","","","html-button-response","187","2.0.0","799789","668545bb7810640d0a057f0f","2","34","2717","","","","","","","","","<img src= ""rock_img/I_Basalt_02.jpg"" style=""width:8cm; height:6.45cm;""><p>What type of rock is this?</p>","3","class_response","1","train","42","Gabbro","Basalt","02","false","4","2","",""
"","","","","","","","","","","","html-button-response","188","2.0.0","800973","668545bb7810640d0a057f0f","2","34","1181","","","","","","","","","<img src= rock_img/I_Basalt_02.jpg style=""width:8cm; height:6.45cm;""><p style='font-size: 30px; color: red;'><strong>Incorrect!</strong></p><p style='font-size: 30px;'><strong>This rock is basalt</strong></p>","0","corr_feedback","1","train","42","","","","","","","",""
"","","","","","","","","","","","html-button-response","189","2.0.0","803422","668545bb7810640d0a057f0f","2","34","2445","","","","","","","","","<img src= ""rock_img/I_Gabbro_10.jpg"" style=""width:8cm; height:5.680000000000001cm;""><p>What type of rock is this?</p>","4","class_response","1","train","43","Obsidian","Gabbro","10","false","5","4","",""
"","","","","","","","","","","","html-button-response","190","2.0.0","805779","668545bb7810640d0a057f0f","2","34","2356","","","","","","","","","<img src= rock_img/I_Gabbro_10.jpg style=""width:8cm; height:5.680000000000001cm;""><p style='font-size: 30px; color: red;'><strong>Incorrect!</strong></p><p style='font-size: 30px;'><strong>This rock is gabbro</strong></p>","0","corr_feedback","1","train","43","","","","","","","",""
"","","","","","","","","","","","html-button-response","191","2.0.0","828151","668545bb7810640d0a057f0f","2","34","22370","","","","","","","","","<img src= ""rock_img/I_Diorite_15.jpg"" style=""width:8cm; height:5.54cm;""><p>What type of rock is this?</p>","3","class_response","1","train","44","Gabbro","Diorite","15","false","4","3","",""
"","","","","","","","","","","","html-button-response","192","2.0.0","829332","668545bb7810640d0a057f0f","2","34","1178","","","","","","","","","<img src= rock_img/I_Diorite_15.jpg style=""width:8cm; height:5.54cm;""><p style='font-size: 30px; color: red;'><strong>Incorrect!</strong></p><p style='font-size: 30px;'><strong>This rock is diorite</strong></p>","0","corr_feedback","1","train","44","","","","","","","",""
"","","","","","","","","","","","html-button-response","193","2.0.0","833334","668545bb7810640d0a057f0f","2","34","4000","","","","","","","","","<img src= ""rock_img/I_Obsidian_08.jpg"" style=""width:8cm; height:7.39cm;""><p>What type of rock is this?</p>","0","class_response","1","train","45","Andesite","Obsidian","08","false","1","5","",""
"","","","","","","","","","","","html-button-response","194","2.0.0","834481","668545bb7810640d0a057f0f","2","34","1146","","","","","","","","","<img src= rock_img/I_Obsidian_08.jpg style=""width:8cm; height:7.39cm;""><p style='font-size: 30px; color: red;'><strong>Incorrect!</strong></p><p style='font-size: 30px;'><strong>This rock is obsidian</strong></p>","0","corr_feedback","1","train","45","","","","","","","",""
"","","","","","","","","","","","html-button-response","195","2.0.0","836098","668545bb7810640d0a057f0f","2","34","1613","","","","","","","","","<img src= ""rock_img/I_Gabbro_14.jpg"" style=""width:8cm; height:8.48cm;""><p>What type of rock is this?</p>","2","class_response","1","train","46","Diorite","Gabbro","14","false","3","4","",""
"","","","","","","","","","","","html-button-response","196","2.0.0","836945","668545bb7810640d0a057f0f","2","34","845","","","","","","","","","<img src= rock_img/I_Gabbro_14.jpg style=""width:8cm; height:8.48cm;""><p style='font-size: 30px; color: red;'><strong>Incorrect!</strong></p><p style='font-size: 30px;'><strong>This rock is gabbro</strong></p>","0","corr_feedback","1","train","46","","","","","","","",""
"","","","","","","","","","","","html-button-response","197","2.0.0","839300","668545bb7810640d0a057f0f","2","34","2353","","","","","","","","","<img src= ""rock_img/I_Pegmatite_07.jpg"" style=""width:8cm; height:6.7cm;""><p>What type of rock is this?</p>","3","class_response","1","train","47","Gabbro","Pegmatite","07","false","4","6","",""
"","","","","","","","","","","","html-button-response","198","2.0.0","840320","668545bb7810640d0a057f0f","2","34","1017","","","","","","","","","<img src= rock_img/I_Pegmatite_07.jpg style=""width:8cm; height:6.7cm;""><p style='font-size: 30px; color: red;'><strong>Incorrect!</strong></p><p style='font-size: 30px;'><strong>This rock is pegmatite</strong></p>","0","corr_feedback","1","train","47","","","","","","","",""
"","","","","","","","","","","","html-button-response","199","2.0.0","842499","668545bb7810640d0a057f0f","2","34","2178","","","","","","","","","<img src= ""rock_img/I_Obsidian_06.jpg"" style=""width:8cm; height:6.8cm;""><p>What type of rock is this?</p>","1","class_response","1","train","48","Basalt","Obsidian","06","false","2","5","",""
"","","","","","","","","","","","html-button-response","200","2.0.0","843827","668545bb7810640d0a057f0f","2","34","1325","","","","","","","","","<img src= rock_img/I_Obsidian_06.jpg style=""width:8cm; height:6.8cm;""><p style='font-size: 30px; color: red;'><strong>Incorrect!</strong></p><p style='font-size: 30px;'><strong>This rock is obsidian</strong></p>","0","corr_feedback","1","train","48","","","","","","","",""
"","","","","","","","","","","","instructions","203","2.0.0","945016","668545bb7810640d0a057f0f","2","34","101186","","","","","","","","[{""page_index"":0,""viewing_time"":4467},{""page_index"":1,""viewing_time"":96719}]","","","","","","","","","","","","","",""
"","","","","","","","","","","","html-button-response","204","2.0.0","946531","668545bb7810640d0a057f0f","2","34","1514","","","","","","","","","","0","start_test","","","","","","","","","","",""
"","","","","","","","","","","","html-button-response","205","2.0.0","948568","668545bb7810640d0a057f0f","2","34","2034","","","","","","","","","<img src= ""rock_img/I_Diorite_09.jpg"" style=""width:8cm; height:5.27cm;""><p>What type of rock is this?</p>","3","class_response","1","test","1","Gabbro","Diorite","09","false","4","3","",""
"","","","","","","","","","","","html-keyboard-response","206","2.0.0","949069","668545bb7810640d0a057f0f","2","34","null","","","","","","","","","<p style='font-size: 30px;'><strong>Okay</strong></p>","null","neutral_feedback","1","test","1","","","","","","","",""
"","","","","","","","","","","","html-button-response","207","2.0.0","950088","668545bb7810640d0a057f0f","2","34","1017","","","","","","","","","<img src= ""rock_img/I_Pegmatite_12.jpg"" style=""width:8cm; height:5.7cm;""><p>What type of rock is this?</p>","1","class_response","1","test","2","Basalt","Pegmatite","12","false","2","6","",""
"","","","","","","","","","","","html-keyboard-response","208","2.0.0","950591","668545bb7810640d0a057f0f","2","34","null","","","","","","","","","<p style='font-size: 30px;'><strong>Okay</strong></p>","null","neutral_feedback","1","test","2","","","","","","","",""
"","","","","","","","","","","","html-button-response","209","2.0.0","952022","668545bb7810640d0a057f0f","2","34","1428","","","","","","","","","<img src= ""rock_img/I_Obsidian_04.jpg"" style=""width:8cm; height:6.930000000000001cm;""><p>What type of rock is this?</p>","4","class_response","1","test","3","Obsidian","Obsidian","04","true","5","5","",""
"","","","","","","","","","","","html-keyboard-response","210","2.0.0","952534","668545bb7810640d0a057f0f","2","34","null","","","","","","","","","<p style='font-size: 30px;'><strong>Okay</strong></p>","null","neutral_feedback","1","test","3","","","","","","","",""
"","","","","","","","","","","","html-button-response","211","2.0.0","954465","668545bb7810640d0a057f0f","2","34","1931","","","","","","","","","<img src= ""rock_img/I_Basalt_12.jpg"" style=""width:8cm; height:6.010000000000001cm;""><p>What type of rock is this?</p>","0","class_response","1","test","4","Andesite","Basalt","12","false","1","2","",""
"","","","","","","","","","","","html-keyboard-response","212","2.0.0","954982","668545bb7810640d0a057f0f","2","34","null","","","","","","","","","<p style='font-size: 30px;'><strong>Okay</strong></p>","null","neutral_feedback","1","test","4","","","","","","","",""
"","","","","","","","","","","","html-button-response","213","2.0.0","956306","668545bb7810640d0a057f0f","2","34","1320","","","","","","","","","<img src= ""rock_img/I_Diorite_12.jpg"" style=""width:8cm; height:4.88cm;""><p>What type of rock is this?</p>","5","class_response","1","test","5","Pegmatite","Diorite","12","false","6","3","",""
"","","","","","","","","","","","html-keyboard-response","214","2.0.0","956812","668545bb7810640d0a057f0f","2","34","null","","","","","","","","","<p style='font-size: 30px;'><strong>Okay</strong></p>","null","neutral_feedback","1","test","5","","","","","","","",""
"","","","","","","","","","","","html-button-response","215","2.0.0","957798","668545bb7810640d0a057f0f","2","34","983","","","","","","","","","<img src= ""rock_img/I_Pumice_05.jpg"" style=""width:8cm; height:7.25cm;""><p>What type of rock is this?</p>","2","class_response","1","test","6","Diorite","Pumice","05","false","3","8","",""
"","","","","","","","","","","","html-keyboard-response","216","2.0.0","958310","668545bb7810640d0a057f0f","2","34","null","","","","","","","","","<p style='font-size: 30px;'><strong>Okay</strong></p>","null","neutral_feedback","1","test","6","","","","","","","",""
"","","","","","","","","","","","html-button-response","217","2.0.0","959018","668545bb7810640d0a057f0f","2","34","705","","","","","","","","","<img src= ""rock_img/I_Andesite_05.jpg"" style=""width:8cm; height:4.12cm;""><p>What type of rock is this?</p>","7","class_response","1","test","7","Pumice","Andesite","05","false","8","1","",""
"","","","","","","","","","","","html-keyboard-response","218","2.0.0","959536","668545bb7810640d0a057f0f","2","34","null","","","","","","","","","<p style='font-size: 30px;'><strong>Okay</strong></p>","null","neutral_feedback","1","test","7","","","","","","","",""
"","","","","","","","","","","","html-button-response","219","2.0.0","960030","668545bb7810640d0a057f0f","2","34","492","","","","","","","","","<img src= ""rock_img/I_Andesite_01.jpg"" style=""width:8cm; height:5.87cm;""><p>What type of rock is this?</p>","3","class_response","1","test","8","Gabbro","Andesite","01","false","4","1","",""
"","","","","","","","","","","","html-keyboard-response","220","2.0.0","960539","668545bb7810640d0a057f0f","2","34","null","","","","","","","","","<p style='font-size: 30px;'><strong>Okay</strong></p>","null","neutral_feedback","1","test","8","","","","","","","",""
"","","","","","","","","","","","html-button-response","221","2.0.0","961040","668545bb7810640d0a057f0f","2","34","499","","","","","","","","","<img src= ""rock_img/I_Peridotite_08.jpg"" style=""width:8cm; height:6.7cm;""><p>What type of rock is this?</p>","2","class_response","1","test","9","Diorite","Peridotite","08","false","3","7","",""
"","","","","","","","","","","","html-keyboard-response","222","2.0.0","961550","668545bb7810640d0a057f0f","2","34","null","","","","","","","","","<p style='font-size: 30px;'><strong>Okay</strong></p>","null","neutral_feedback","1","test","9","","","","","","","",""
"","","","","","","","","","","","html-button-response","223","2.0.0","962580","668545bb7810640d0a057f0f","2","34","1028","","","","","","","","","<img src= ""rock_img/I_Pumice_15.jpg"" style=""width:8cm; height:7.86cm;""><p>What type of rock is this?</p>","6","class_response","1","test","10","Peridotite","Pumice","15","false","7","8","",""
"","","","","","","","","","","","html-keyboard-response","224","2.0.0","963093","668545bb7810640d0a057f0f","2","34","null","","","","","","","","","<p style='font-size: 30px;'><strong>Okay</strong></p>","null","neutral_feedback","1","test","10","","","","","","","",""
"","","","","","","","","","","","html-button-response","225","2.0.0","963781","668545bb7810640d0a057f0f","2","34","686","","","","","","","","","<img src= ""rock_img/I_Diorite_14.jpg"" style=""width:8cm; height:5.71cm;""><p>What type of rock is this?</p>","4","class_response","1","test","11","Obsidian","Diorite","14","false","5","3","",""
"","","","","","","","","","","","html-keyboard-response","226","2.0.0","964289","668545bb7810640d0a057f0f","2","34","null","","","","","","","","","<p style='font-size: 30px;'><strong>Okay</strong></p>","null","neutral_feedback","1","test","11","","","","","","","",""
"","","","","","","","","","","","html-button-response","227","2.0.0","964916","668545bb7810640d0a057f0f","2","34","625","","","","","","","","","<img src= ""rock_img/I_Peridotite_12.jpg"" style=""width:8cm; height:4.54cm;""><p>What type of rock is this?</p>","0","class_response","1","test","12","Andesite","Peridotite","12","false","1","7","",""
"","","","","","","","","","","","html-keyboard-response","228","2.0.0","965431","668545bb7810640d0a057f0f","2","34","null","","","","","","","","","<p style='font-size: 30px;'><strong>Okay</strong></p>","null","neutral_feedback","1","test","12","","","","","","","",""
"","","","","","","","","","","","html-button-response","229","2.0.0","965960","668545bb7810640d0a057f0f","2","34","526","","","","","","","","","<img src= ""rock_img/I_Peridotite_04.jpg"" style=""width:8cm; height:6.680000000000001cm;""><p>What type of rock is this?</p>","1","class_response","1","test","13","Basalt","Peridotite","04","false","2","7","",""
"","","","","","","","","","","","html-keyboard-response","230","2.0.0","966470","668545bb7810640d0a057f0f","2","34","null","","","","","","","","","<p style='font-size: 30px;'><strong>Okay</strong></p>","null","neutral_feedback","1","test","13","","","","","","","",""
"","","","","","","","","","","","html-button-response","231","2.0.0","967024","668545bb7810640d0a057f0f","2","34","553","","","","","","","","","<img src= ""rock_img/I_Basalt_14.jpg"" style=""width:8cm; height:5.82cm;""><p>What type of rock is this?</p>","5","class_response","1","test","14","Pegmatite","Basalt","14","false","6","2","",""
"","","","","","","","","","","","html-keyboard-response","232","2.0.0","967525","668545bb7810640d0a057f0f","2","34","null","","","","","","","","","<p style='font-size: 30px;'><strong>Okay</strong></p>","null","neutral_feedback","1","test","14","","","","","","","",""
"","","","","","","","","","","","html-button-response","233","2.0.0","968140","668545bb7810640d0a057f0f","2","34","613","","","","","","","","","<img src= ""rock_img/I_Diorite_08.jpg"" style=""width:8cm; height:6.37cm;""><p>What type of rock is this?</p>","2","class_response","1","test","15","Diorite","Diorite","08","true","3","3","",""
"","","","","","","","","","","","html-keyboard-response","234","2.0.0","968647","668545bb7810640d0a057f0f","2","34","null","","","","","","","","","<p style='font-size: 30px;'><strong>Okay</strong></p>","null","neutral_feedback","1","test","15","","","","","","","",""
"","","","","","","","","","","","html-button-response","235","2.0.0","969407","668545bb7810640d0a057f0f","2","34","757","","","","","","","","","<img src= ""rock_img/I_Andesite_09.jpg"" style=""width:8cm; height:6cm;""><p>What type of rock is this?</p>","5","class_response","1","test","16","Pegmatite","Andesite","09","false","6","1","",""
"","","","","","","","","","","","html-keyboard-response","236","2.0.0","969918","668545bb7810640d0a057f0f","2","34","null","","","","","","","","","<p style='font-size: 30px;'><strong>Okay</strong></p>","null","neutral_feedback","1","test","16","","","","","","","",""
"","","","","","","","","","","","html-button-response","237","2.0.0","970994","668545bb7810640d0a057f0f","2","34","1073","","","","","","","","","<img src= ""rock_img/I_Gabbro_16.jpg"" style=""width:8cm; height:6.44cm;""><p>What type of rock is this?</p>","2","class_response","1","test","17","Diorite","Gabbro","16","false","3","4","",""
"","","","","","","","","","","","html-keyboard-response","238","2.0.0","971497","668545bb7810640d0a057f0f","2","34","null","","","","","","","","","<p style='font-size: 30px;'><strong>Okay</strong></p>","null","neutral_feedback","1","test","17","","","","","","","",""
"","","","","","","","","","","","html-button-response","239","2.0.0","972690","668545bb7810640d0a057f0f","2","34","1191","","","","","","","","","<img src= ""rock_img/I_Basalt_08.jpg"" style=""width:8cm; height:10.44cm;""><p>What type of rock is this?</p>","6","class_response","1","test","18","Peridotite","Basalt","08","false","7","2","",""
"","","","","","","","","","","","html-keyboard-response","240","2.0.0","973195","668545bb7810640d0a057f0f","2","34","null","","","","","","","","","<p style='font-size: 30px;'><strong>Okay</strong></p>","null","neutral_feedback","1","test","18","","","","","","","",""
"","","","","","","","","","","","html-button-response","241","2.0.0","973977","668545bb7810640d0a057f0f","2","34","779","","","","","","","","","<img src= ""rock_img/I_Andesite_07.jpg"" style=""width:8cm; height:5.93cm;""><p>What type of rock is this?</p>","4","class_response","1","test","19","Obsidian","Andesite","07","false","5","1","",""
"","","","","","","","","","","","html-keyboard-response","242","2.0.0","974483","668545bb7810640d0a057f0f","2","34","null","","","","","","","","","<p style='font-size: 30px;'><strong>Okay</strong></p>","null","neutral_feedback","1","test","19","","","","","","","",""
"","","","","","","","","","","","html-button-response","243","2.0.0","975799","668545bb7810640d0a057f0f","2","34","1313","","","","","","","","","<img src= ""rock_img/I_Basalt_05.jpg"" style=""width:8cm; height:8.18cm;""><p>What type of rock is this?</p>","5","class_response","1","test","20","Pegmatite","Basalt","05","false","6","2","",""
"","","","","","","","","","","","html-keyboard-response","244","2.0.0","976304","668545bb7810640d0a057f0f","2","34","null","","","","","","","","","<p style='font-size: 30px;'><strong>Okay</strong></p>","null","neutral_feedback","1","test","20","","","","","","","",""
"","","","","","","","","","","","html-button-response","245","2.0.0","977030","668545bb7810640d0a057f0f","2","34","725","","","","","","","","","<img src= ""rock_img/I_Pumice_06.jpg"" style=""width:8cm; height:6.9399999999999995cm;""><p>What type of rock is this?</p>","4","class_response","1","test","21","Obsidian","Pumice","06","false","5","8","",""
"","","","","","","","","","","","html-keyboard-response","246","2.0.0","977544","668545bb7810640d0a057f0f","2","34","null","","","","","","","","","<p style='font-size: 30px;'><strong>Okay</strong></p>","null","neutral_feedback","1","test","21","","","","","","","",""
"","","","","","","","","","","","html-button-response","247","2.0.0","978292","668545bb7810640d0a057f0f","2","34","746","","","","","","","","","<img src= ""rock_img/I_Peridotite_14.jpg"" style=""width:8cm; height:5.3cm;""><p>What type of rock is this?</p>","5","class_response","1","test","22","Pegmatite","Peridotite","14","false","6","7","",""
"","","","","","","","","","","","html-keyboard-response","248","2.0.0","978804","668545bb7810640d0a057f0f","2","34","null","","","","","","","","","<p style='font-size: 30px;'><strong>Okay</strong></p>","null","neutral_feedback","1","test","22","","","","","","","",""
"","","","","","","","","","","","html-button-response","249","2.0.0","979596","668545bb7810640d0a057f0f","2","34","791","","","","","","","","","<img src= ""rock_img/I_Pumice_03.jpg"" style=""width:8cm; height:6.64cm;""><p>What type of rock is this?</p>","2","class_response","1","test","23","Diorite","Pumice","03","false","3","8","",""
"","","","","","","","","","","","html-keyboard-response","250","2.0.0","980110","668545bb7810640d0a057f0f","2","34","null","","","","","","","","","<p style='font-size: 30px;'><strong>Okay</strong></p>","null","neutral_feedback","1","test","23","","","","","","","",""
"","","","","","","","","","","","html-button-response","251","2.0.0","980648","668545bb7810640d0a057f0f","2","34","535","","","","","","","","","<img src= ""rock_img/I_Pegmatite_16.jpg"" style=""width:8cm; height:5.8cm;""><p>What type of rock is this?</p>","3","class_response","1","test","24","Gabbro","Pegmatite","16","false","4","6","",""
"","","","","","","","","","","","html-keyboard-response","252","2.0.0","981161","668545bb7810640d0a057f0f","2","34","null","","","","","","","","","<p style='font-size: 30px;'><strong>Okay</strong></p>","null","neutral_feedback","1","test","24","","","","","","","",""
"","","","","","","","","","","","html-button-response","253","2.0.0","981772","668545bb7810640d0a057f0f","2","34","609","","","","","","","","","<img src= ""rock_img/I_Basalt_06.jpg"" style=""width:8cm; height:7.06cm;""><p>What type of rock is this?</p>","6","class_response","1","test","25","Peridotite","Basalt","06","false","7","2","",""
"","","","","","","","","","","","html-keyboard-response","254","2.0.0","982276","668545bb7810640d0a057f0f","2","34","null","","","","","","","","","<p style='font-size: 30px;'><strong>Okay</strong></p>","null","neutral_feedback","1","test","25","","","","","","","",""
"","","","","","","","","","","","html-button-response","255","2.0.0","982779","668545bb7810640d0a057f0f","2","34","502","","","","","","","","","<img src= ""rock_img/I_Pegmatite_11.jpg"" style=""width:8cm; height:8.14cm;""><p>What type of rock is this?</p>","3","class_response","1","test","26","Gabbro","Pegmatite","11","false","4","6","",""
"","","","","","","","","","","","html-keyboard-response","256","2.0.0","983296","668545bb7810640d0a057f0f","2","34","null","","","","","","","","","<p style='font-size: 30px;'><strong>Okay</strong></p>","null","neutral_feedback","1","test","26","","","","","","","",""
"","","","","","","","","","","","html-button-response","257","2.0.0","984032","668545bb7810640d0a057f0f","2","34","735","","","","","","","","","<img src= ""rock_img/I_Obsidian_12.jpg"" style=""width:8cm; height:6.53cm;""><p>What type of rock is this?</p>","7","class_response","1","test","27","Pumice","Obsidian","12","false","8","5","",""
"","","","","","","","","","","","html-keyboard-response","258","2.0.0","984545","668545bb7810640d0a057f0f","2","34","null","","","","","","","","","<p style='font-size: 30px;'><strong>Okay</strong></p>","null","neutral_feedback","1","test","27","","","","","","","",""
"","","","","","","","","","","","html-button-response","259","2.0.0","985140","668545bb7810640d0a057f0f","2","34","595","","","","","","","","","<img src= ""rock_img/I_Peridotite_07.jpg"" style=""width:8cm; height:4.83cm;""><p>What type of rock is this?</p>","2","class_response","1","test","28","Diorite","Peridotite","07","false","3","7","",""
"","","","","","","","","","","","html-keyboard-response","260","2.0.0","985646","668545bb7810640d0a057f0f","2","34","null","","","","","","","","","<p style='font-size: 30px;'><strong>Okay</strong></p>","null","neutral_feedback","1","test","28","","","","","","","",""
"","","","","","","","","","","","html-button-response","261","2.0.0","986136","668545bb7810640d0a057f0f","2","34","488","","","","","","","","","<img src= ""rock_img/I_Gabbro_05.jpg"" style=""width:8cm; height:6cm;""><p>What type of rock is this?</p>","1","class_response","1","test","29","Basalt","Gabbro","05","false","2","4","",""
"","","","","","","","","","","","html-keyboard-response","262","2.0.0","986650","668545bb7810640d0a057f0f","2","34","null","","","","","","","","","<p style='font-size: 30px;'><strong>Okay</strong></p>","null","neutral_feedback","1","test","29","","","","","","","",""
"","","","","","","","","","","","html-button-response","263","2.0.0","987889","668545bb7810640d0a057f0f","2","34","1235","","","","","","","","","<img src= ""rock_img/I_Gabbro_09.jpg"" style=""width:8cm; height:7.279999999999999cm;""><p>What type of rock is this?</p>","1","class_response","1","test","30","Basalt","Gabbro","09","false","2","4","",""
"","","","","","","","","","","","html-keyboard-response","264","2.0.0","988399","668545bb7810640d0a057f0f","2","34","null","","","","","","","","","<p style='font-size: 30px;'><strong>Okay</strong></p>","null","neutral_feedback","1","test","30","","","","","","","",""
"","","","","","","","","","","","html-button-response","265","2.0.0","989090","668545bb7810640d0a057f0f","2","34","689","","","","","","","","","<img src= ""rock_img/I_Obsidian_05.jpg"" style=""width:8cm; height:6.33cm;""><p>What type of rock is this?</p>","0","class_response","1","test","31","Andesite","Obsidian","05","false","1","5","",""
"","","","","","","","","","","","html-keyboard-response","266","2.0.0","989601","668545bb7810640d0a057f0f","2","34","null","","","","","","","","","<p style='font-size: 30px;'><strong>Okay</strong></p>","null","neutral_feedback","1","test","31","","","","","","","",""
"","","","","","","","","","","","html-button-response","267","2.0.0","990090","668545bb7810640d0a057f0f","2","34","487","","","","","","","","","<img src= ""rock_img/I_Gabbro_15.jpg"" style=""width:8cm; height:6.29cm;""><p>What type of rock is this?</p>","4","class_response","1","test","32","Obsidian","Gabbro","15","false","5","4","",""
"","","","","","","","","","","","html-keyboard-response","268","2.0.0","990594","668545bb7810640d0a057f0f","2","34","null","","","","","","","","","<p style='font-size: 30px;'><strong>Okay</strong></p>","null","neutral_feedback","1","test","32","","","","","","","",""
"","","","","","","","","","","","html-button-response","269","2.0.0","991494","668545bb7810640d0a057f0f","2","34","898","","","","","","","","","<img src= ""rock_img/I_Obsidian_16.jpg"" style=""width:8cm; height:9.3cm;""><p>What type of rock is this?</p>","5","class_response","1","test","33","Pegmatite","Obsidian","16","false","6","5","",""
"","","","","","","","","","","","html-keyboard-response","270","2.0.0","992006","668545bb7810640d0a057f0f","2","34","null","","","","","","","","","<p style='font-size: 30px;'><strong>Okay</strong></p>","null","neutral_feedback","1","test","33","","","","","","","",""
"","","","","","","","","","","","html-button-response","271","2.0.0","992713","668545bb7810640d0a057f0f","2","34","705","","","","","","","","","<img src= ""rock_img/I_Pegmatite_09.jpg"" style=""width:8cm; height:4.03cm;""><p>What type of rock is this?</p>","6","class_response","1","test","34","Peridotite","Pegmatite","09","false","7","6","",""
"","","","","","","","","","","","html-keyboard-response","272","2.0.0","993230","668545bb7810640d0a057f0f","2","34","null","","","","","","","","","<p style='font-size: 30px;'><strong>Okay</strong></p>","null","neutral_feedback","1","test","34","","","","","","","",""
"","","","","","","","","","","","html-button-response","273","2.0.0","994078","668545bb7810640d0a057f0f","2","34","846","","","","","","","","","<img src= ""rock_img/I_Andesite_03.jpg"" style=""width:8cm; height:5.73cm;""><p>What type of rock is this?</p>","2","class_response","1","test","35","Diorite","Andesite","03","false","3","1","",""
"","","","","","","","","","","","html-keyboard-response","274","2.0.0","994584","668545bb7810640d0a057f0f","2","34","null","","","","","","","","","<p style='font-size: 30px;'><strong>Okay</strong></p>","null","neutral_feedback","1","test","35","","","","","","","",""
"","","","","","","","","","","","html-button-response","275","2.0.0","995352","668545bb7810640d0a057f0f","2","34","767","","","","","","","","","<img src= ""rock_img/I_Peridotite_13.jpg"" style=""width:8cm; height:7.58cm;""><p>What type of rock is this?</p>","3","class_response","1","test","36","Gabbro","Peridotite","13","false","4","7","",""
"","","","","","","","","","","","html-keyboard-response","276","2.0.0","995858","668545bb7810640d0a057f0f","2","34","null","","","","","","","","","<p style='font-size: 30px;'><strong>Okay</strong></p>","null","neutral_feedback","1","test","36","","","","","","","",""
"","","","","","","","","","","","html-button-response","277","2.0.0","996372","668545bb7810640d0a057f0f","2","34","511","","","","","","","","","<img src= ""rock_img/I_Diorite_10.jpg"" style=""width:8cm; height:5.949999999999999cm;""><p>What type of rock is this?</p>","7","class_response","1","test","37","Pumice","Diorite","10","false","8","3","",""
"","","","","","","","","","","","html-keyboard-response","278","2.0.0","996879","668545bb7810640d0a057f0f","2","34","null","","","","","","","","","<p style='font-size: 30px;'><strong>Okay</strong></p>","null","neutral_feedback","1","test","37","","","","","","","",""
"","","","","","","","","","","","html-button-response","279","2.0.0","997652","668545bb7810640d0a057f0f","2","34","771","","","","","","","","","<img src= ""rock_img/I_Obsidian_10.jpg"" style=""width:8cm; height:6.260000000000001cm;""><p>What type of rock is this?</p>","6","class_response","1","test","38","Peridotite","Obsidian","10","false","7","5","",""
"","","","","","","","","","","","html-keyboard-response","280","2.0.0","998155","668545bb7810640d0a057f0f","2","34","null","","","","","","","","","<p style='font-size: 30px;'><strong>Okay</strong></p>","null","neutral_feedback","1","test","38","","","","","","","",""
"","","","","","","","","","","","html-button-response","281","2.0.0","998699","668545bb7810640d0a057f0f","2","34","542","","","","","","","","","<img src= ""rock_img/I_Pumice_09.jpg"" style=""width:8cm; height:6.44cm;""><p>What type of rock is this?</p>","2","class_response","1","test","39","Diorite","Pumice","09","false","3","8","",""
"","","","","","","","","","","","html-keyboard-response","282","2.0.0","999205","668545bb7810640d0a057f0f","2","34","null","","","","","","","","","<p style='font-size: 30px;'><strong>Okay</strong></p>","null","neutral_feedback","1","test","39","","","","","","","",""
"","","","","","","","","","","","html-button-response","283","2.0.0","999980","668545bb7810640d0a057f0f","2","34","773","","","","","","","","","<img src= ""rock_img/I_Pumice_10.jpg"" style=""width:8cm; height:7.609999999999999cm;""><p>What type of rock is this?</p>","1","class_response","1","test","40","Basalt","Pumice","10","false","2","8","",""
"","","","","","","","","","","","html-keyboard-response","284","2.0.0","1000486","668545bb7810640d0a057f0f","2","34","null","","","","","","","","","<p style='font-size: 30px;'><strong>Okay</strong></p>","null","neutral_feedback","1","test","40","","","","","","","",""
"","","","","","","","","","","","html-button-response","285","2.0.0","1001924","668545bb7810640d0a057f0f","2","34","1433","","","","","","","","","<img src= ""rock_img/I_Pegmatite_13.jpg"" style=""width:8cm; height:4.95cm;""><p>What type of rock is this?</p>","0","class_response","1","test","41","Andesite","Pegmatite","13","false","1","6","",""
"","","","","","","","","","","","html-keyboard-response","286","2.0.0","1002432","668545bb7810640d0a057f0f","2","34","null","","","","","","","","","<p style='font-size: 30px;'><strong>Okay</strong></p>","null","neutral_feedback","1","test","41","","","","","","","",""
"","","","","","","","","","","","html-button-response","287","2.0.0","1003144","668545bb7810640d0a057f0f","2","34","711","","","","","","","","","<img src= ""rock_img/I_Andesite_10.jpg"" style=""width:8cm; height:4.16cm;""><p>What type of rock is this?</p>","4","class_response","1","test","42","Obsidian","Andesite","10","false","5","1","",""
"","","","","","","","","","","","html-keyboard-response","288","2.0.0","1003646","668545bb7810640d0a057f0f","2","34","null","","","","","","","","","<p style='font-size: 30px;'><strong>Okay</strong></p>","null","neutral_feedback","1","test","42","","","","","","","",""
"","","","","","","","","","","","html-button-response","289","2.0.0","1004614","668545bb7810640d0a057f0f","2","34","966","","","","","","","","","<img src= ""rock_img/I_Basalt_01.jpg"" style=""width:8cm; height:7.880000000000001cm;""><p>What type of rock is this?</p>","1","class_response","1","test","43","Basalt","Basalt","01","true","2","2","",""
"","","","","","","","","","","","html-keyboard-response","290","2.0.0","1005125","668545bb7810640d0a057f0f","2","34","null","","","","","","","","","<p style='font-size: 30px;'><strong>Okay</strong></p>","null","neutral_feedback","1","test","43","","","","","","","",""
"","","","","","","","","","","","html-button-response","291","2.0.0","1005702","668545bb7810640d0a057f0f","2","34","575","","","","","","","","","<img src= ""rock_img/I_Diorite_11.jpg"" style=""width:8cm; height:7.11cm;""><p>What type of rock is this?</p>","5","class_response","1","test","44","Pegmatite","Diorite","11","false","6","3","",""
"","","","","","","","","","","","html-keyboard-response","292","2.0.0","1006204","668545bb7810640d0a057f0f","2","34","null","","","","","","","","","<p style='font-size: 30px;'><strong>Okay</strong></p>","null","neutral_feedback","1","test","44","","","","","","","",""
"","","","","","","","","","","","html-button-response","293","2.0.0","1006795","668545bb7810640d0a057f0f","2","34","587","","","","","","","","","<img src= ""rock_img/I_Gabbro_12.jpg"" style=""width:8cm; height:7.800000000000001cm;""><p>What type of rock is this?</p>","2","class_response","1","test","45","Diorite","Gabbro","12","false","3","4","",""
"","","","","","","","","","","","html-keyboard-response","294","2.0.0","1007301","668545bb7810640d0a057f0f","2","34","null","","","","","","","","","<p style='font-size: 30px;'><strong>Okay</strong></p>","null","neutral_feedback","1","test","45","","","","","","","",""
"","","","","","","","","","","","html-button-response","295","2.0.0","1007991","668545bb7810640d0a057f0f","2","34","686","","","","","","","","","<img src= ""rock_img/I_Obsidian_07.jpg"" style=""width:8cm; height:4.76cm;""><p>What type of rock is this?</p>","6","class_response","1","test","46","Peridotite","Obsidian","07","false","7","5","",""
"","","","","","","","","","","","html-keyboard-response","296","2.0.0","1008504","668545bb7810640d0a057f0f","2","34","null","","","","","","","","","<p style='font-size: 30px;'><strong>Okay</strong></p>","null","neutral_feedback","1","test","46","","","","","","","",""
"","","","","","","","","","","","html-button-response","297","2.0.0","1009086","668545bb7810640d0a057f0f","2","34","581","","","","","","","","","<img src= ""rock_img/I_Gabbro_08.jpg"" style=""width:8cm; height:5.15cm;""><p>What type of rock is this?</p>","3","class_response","1","test","47","Gabbro","Gabbro","08","true","4","4","",""
"","","","","","","","","","","","html-keyboard-response","298","2.0.0","1009589","668545bb7810640d0a057f0f","2","34","null","","","","","","","","","<p style='font-size: 30px;'><strong>Okay</strong></p>","null","neutral_feedback","1","test","47","","","","","","","",""
"","","","","","","","","","","","html-button-response","299","2.0.0","1010049","668545bb7810640d0a057f0f","2","34","459","","","","","","","","","<img src= ""rock_img/I_Pegmatite_06.jpg"" style=""width:8cm; height:5.17cm;""><p>What type of rock is this?</p>","7","class_response","1","test","48","Pumice","Pegmatite","06","false","8","6","",""
"","","","","","","","","","","","html-keyboard-response","300","2.0.0","1010561","668545bb7810640d0a057f0f","2","34","null","","","","","","","","","<p style='font-size: 30px;'><strong>Okay</strong></p>","null","neutral_feedback","1","test","48","","","","","","","",""
"","","","","","","","","","","","html-button-response","301","2.0.0","1047684","668545bb7810640d0a057f0f","2","34","","","","","","","","","","","","cycle_feedback","","","","","","","","","","7663","29447"
"","","","","","","","","","","","html-button-response","303","2.0.0","1049185","668545bb7810640d0a057f0f","2","34","1498","","","","","","","","","","0","start_train","","","","","","","","","","",""
"","","","","","","","","","","","html-button-response","304","2.0.0","1052025","668545bb7810640d0a057f0f","2","34","2838","","","","","","","","","<img src= ""rock_img/I_Peridotite_06.jpg"" style=""width:8cm; height:7.53cm;""><p>What type of rock is this?</p>","1","class_response","2","train","1","Basalt","Peridotite","06","false","2","7","",""
