"width","height","webaudio","browser","browser_version","mobile","os","fullscreen","vsync_rate","webcam","microphone","trial_type","trial_index","plugin_version","time_elapsed","subjID","condition","stimID","rt","url","success","value","timeout","failed_images","failed_audio","failed_video","view_history","stimulus","response","trialType","cycle","phase","trial","resp","cat","token","corr","resp_num","cat_num","time_fb1","time_fb2"
"1536","730","true","chrome","130.0.0","false","Windows 10","true","60.67","true","true","browser-check","0","2.0.0","992","62c5cdfe50000fce3e390be0","2","53","","","","","","","","","","","","","","","","","","","","","","",""
"","","","","","","","","","","","external-html","1","2.0.0","5692","62c5cdfe50000fce3e390be0","2","53","4617","consent_form.html","","","","","","","","","","","","","","","","","","","","",""
"","","","","","","","","","","","fullscreen","2","2.0.0","8038","62c5cdfe50000fce3e390be0","2","53","1341","","true","","","","","","","","","","","","","","","","","","","",""
"","","","","","","","","","","","call-function","3","2.0.0","8040","62c5cdfe50000fce3e390be0","2","53","","","","{}","","","","","","","","","","","","","","","","","","",""
"","","","","","","","","","","","preload","4","2.0.0","11897","62c5cdfe50000fce3e390be0","2","53","","","true","","false","[]","[]","[]","","","","","","","","","","","","","","",""
"","","","","","","","","","","","instructions","5","2.0.0","62790","62c5cdfe50000fce3e390be0","2","53","50892","","","","","","","","[{""page_index"":0,""viewing_time"":11091},{""page_index"":1,""viewing_time"":23149},{""page_index"":2,""viewing_time"":16651}]","","","","","","","","","","","","","",""
"","","","","","","","","","","","html-button-response","6","2.0.0","66776","62c5cdfe50000fce3e390be0","2","53","3982","","","","","","","","","","0","start_test","","","","","","","","","","",""
"","","","","","","","","","","","html-button-response","7","2.0.0","74219","62c5cdfe50000fce3e390be0","2","53","7440","","","","","","","","","<img src= ""rock_img/I_Diorite_09.jpg"" style=""width:8cm; height:5.27cm;""><p>What type of rock is this?</p>","6","class_response","0","test","1","Peridotite","Diorite","09","false","7","3","",""
"","","","","","","","","","","","html-keyboard-response","8","2.0.0","74724","62c5cdfe50000fce3e390be0","2","53","null","","","","","","","","","<p style='font-size: 30px;'><strong>Okay</strong></p>","null","neutral_feedback","0","test","1","","","","","","","",""
"","","","","","","","","","","","html-button-response","9","2.0.0","102123","62c5cdfe50000fce3e390be0","2","53","27398","","","","","","","","","<img src= ""rock_img/I_Obsidian_02.jpg"" style=""width:8cm; height:7.51cm;""><p>What type of rock is this?</p>","4","class_response","0","test","2","Obsidian","Obsidian","02","true","5","5","",""
"","","","","","","","","","","","html-keyboard-response","10","2.0.0","102628","62c5cdfe50000fce3e390be0","2","53","null","","","","","","","","","<p style='font-size: 30px;'><strong>Okay</strong></p>","null","neutral_feedback","0","test","2","","","","","","","",""
"","","","","","","","","","","","html-button-response","11","2.0.0","119319","62c5cdfe50000fce3e390be0","2","53","16690","","","","","","","","","<img src= ""rock_img/I_Gabbro_01.jpg"" style=""width:8cm; height:5.21cm;""><p>What type of rock is this?</p>","3","class_response","0","test","3","Gabbro","Gabbro","01","true","4","4","",""
"","","","","","","","","","","","html-keyboard-response","12","2.0.0","119837","62c5cdfe50000fce3e390be0","2","53","null","","","","","","","","","<p style='font-size: 30px;'><strong>Okay</strong></p>","null","neutral_feedback","0","test","3","","","","","","","",""
"","","","","","","","","","","","html-button-response","13","2.0.0","154370","62c5cdfe50000fce3e390be0","2","53","34531","","","","","","","","","<img src= ""rock_img/I_Pumice_13.jpg"" style=""width:8cm; height:8.200000000000001cm;""><p>What type of rock is this?</p>","7","class_response","0","test","4","Pumice","Pumice","13","true","8","8","",""
"","","","","","","","","","","","html-keyboard-response","14","2.0.0","154872","62c5cdfe50000fce3e390be0","2","53","null","","","","","","","","","<p style='font-size: 30px;'><strong>Okay</strong></p>","null","neutral_feedback","0","test","4","","","","","","","",""
"","","","","","","","","","","","html-button-response","15","2.0.0","189059","62c5cdfe50000fce3e390be0","2","53","34185","","","","","","","","","<img src= ""rock_img/I_Diorite_16.jpg"" style=""width:8cm; height:6.74cm;""><p>What type of rock is this?</p>","2","class_response","0","test","5","Diorite","Diorite","16","true","3","3","",""
"","","","","","","","","","","","html-keyboard-response","16","2.0.0","189562","62c5cdfe50000fce3e390be0","2","53","null","","","","","","","","","<p style='font-size: 30px;'><strong>Okay</strong></p>","null","neutral_feedback","0","test","5","","","","","","","",""
"","","","","","","","","","","","html-button-response","17","2.0.0","191276","62c5cdfe50000fce3e390be0","2","53","1712","","","","","","","","","<img src= ""rock_img/I_Gabbro_10.jpg"" style=""width:8cm; height:5.680000000000001cm;""><p>What type of rock is this?</p>","1","class_response","0","test","6","Basalt","Gabbro","10","false","2","4","",""
"","","","","","","","","","","","html-keyboard-response","18","2.0.0","191777","62c5cdfe50000fce3e390be0","2","53","null","","","","","","","","","<p style='font-size: 30px;'><strong>Okay</strong></p>","null","neutral_feedback","0","test","6","","","","","","","",""
"","","","","","","","","","","","html-button-response","19","2.0.0","199672","62c5cdfe50000fce3e390be0","2","53","7893","","","","","","","","","<img src= ""rock_img/I_Basalt_08.jpg"" style=""width:8cm; height:10.44cm;""><p>What type of rock is this?</p>","5","class_response","0","test","7","Pegmatite","Basalt","08","false","6","2","",""
"","","","","","","","","","","","html-keyboard-response","20","2.0.0","200183","62c5cdfe50000fce3e390be0","2","53","null","","","","","","","","","<p style='font-size: 30px;'><strong>Okay</strong></p>","null","neutral_feedback","0","test","7","","","","","","","",""
"","","","","","","","","","","","html-button-response","21","2.0.0","201621","62c5cdfe50000fce3e390be0","2","53","1436","","","","","","","","","<img src= ""rock_img/I_Peridotite_05.jpg"" style=""width:8cm; height:7.1499999999999995cm;""><p>What type of rock is this?</p>","0","class_response","0","test","8","Andesite","Peridotite","05","false","1","7","",""
"","","","","","","","","","","","html-keyboard-response","22","2.0.0","202123","62c5cdfe50000fce3e390be0","2","53","null","","","","","","","","","<p style='font-size: 30px;'><strong>Okay</strong></p>","null","neutral_feedback","0","test","8","","","","","","","",""
"","","","","","","","","","","","html-button-response","23","2.0.0","207330","62c5cdfe50000fce3e390be0","2","53","5206","","","","","","","","","<img src= ""rock_img/I_Peridotite_13.jpg"" style=""width:8cm; height:7.58cm;""><p>What type of rock is this?</p>","6","class_response","0","test","9","Peridotite","Peridotite","13","true","7","7","",""
"","","","","","","","","","","","html-keyboard-response","24","2.0.0","207833","62c5cdfe50000fce3e390be0","2","53","null","","","","","","","","","<p style='font-size: 30px;'><strong>Okay</strong></p>","null","neutral_feedback","0","test","9","","","","","","","",""
"","","","","","","","","","","","html-button-response","25","2.0.0","213417","62c5cdfe50000fce3e390be0","2","53","5582","","","","","","","","","<img src= ""rock_img/I_Pegmatite_06.jpg"" style=""width:8cm; height:5.17cm;""><p>What type of rock is this?</p>","7","class_response","0","test","10","Pumice","Pegmatite","06","false","8","6","",""
"","","","","","","","","","","","html-keyboard-response","26","2.0.0","213920","62c5cdfe50000fce3e390be0","2","53","null","","","","","","","","","<p style='font-size: 30px;'><strong>Okay</strong></p>","null","neutral_feedback","0","test","10","","","","","","","",""
"","","","","","","","","","","","html-button-response","27","2.0.0","215626","62c5cdfe50000fce3e390be0","2","53","1704","","","","","","","","","<img src= ""rock_img/I_Diorite_12.jpg"" style=""width:8cm; height:4.88cm;""><p>What type of rock is this?</p>","2","class_response","0","test","11","Diorite","Diorite","12","true","3","3","",""
"","","","","","","","","","","","html-keyboard-response","28","2.0.0","216129","62c5cdfe50000fce3e390be0","2","53","null","","","","","","","","","<p style='font-size: 30px;'><strong>Okay</strong></p>","null","neutral_feedback","0","test","11","","","","","","","",""
"","","","","","","","","","","","html-button-response","29","2.0.0","219524","62c5cdfe50000fce3e390be0","2","53","3394","","","","","","","","","<img src= ""rock_img/I_Basalt_12.jpg"" style=""width:8cm; height:6.010000000000001cm;""><p>What type of rock is this?</p>","0","class_response","0","test","12","Andesite","Basalt","12","false","1","2","",""
"","","","","","","","","","","","html-keyboard-response","30","2.0.0","220032","62c5cdfe50000fce3e390be0","2","53","null","","","","","","","","","<p style='font-size: 30px;'><strong>Okay</strong></p>","null","neutral_feedback","0","test","12","","","","","","","",""
"","","","","","","","","","","","html-button-response","31","2.0.0","222038","62c5cdfe50000fce3e390be0","2","53","2003","","","","","","","","","<img src= ""rock_img/I_Peridotite_07.jpg"" style=""width:8cm; height:4.83cm;""><p>What type of rock is this?</p>","1","class_response","0","test","13","Basalt","Peridotite","07","false","2","7","",""
"","","","","","","","","","","","html-keyboard-response","32","2.0.0","222539","62c5cdfe50000fce3e390be0","2","53","null","","","","","","","","","<p style='font-size: 30px;'><strong>Okay</strong></p>","null","neutral_feedback","0","test","13","","","","","","","",""
"","","","","","","","","","","","html-button-response","33","2.0.0","224752","62c5cdfe50000fce3e390be0","2","53","2210","","","","","","","","","<img src= ""rock_img/I_Andesite_05.jpg"" style=""width:8cm; height:4.12cm;""><p>What type of rock is this?</p>","3","class_response","0","test","14","Gabbro","Andesite","05","false","4","1","",""
"","","","","","","","","","","","html-keyboard-response","34","2.0.0","225262","62c5cdfe50000fce3e390be0","2","53","null","","","","","","","","","<p style='font-size: 30px;'><strong>Okay</strong></p>","null","neutral_feedback","0","test","14","","","","","","","",""
"","","","","","","","","","","","html-button-response","35","2.0.0","227401","62c5cdfe50000fce3e390be0","2","53","2136","","","","","","","","","<img src= ""rock_img/I_Andesite_01.jpg"" style=""width:8cm; height:5.87cm;""><p>What type of rock is this?</p>","5","class_response","0","test","15","Pegmatite","Andesite","01","false","6","1","",""
"","","","","","","","","","","","html-keyboard-response","36","2.0.0","227911","62c5cdfe50000fce3e390be0","2","53","null","","","","","","","","","<p style='font-size: 30px;'><strong>Okay</strong></p>","null","neutral_feedback","0","test","15","","","","","","","",""
"","","","","","","","","","","","html-button-response","37","2.0.0","230152","62c5cdfe50000fce3e390be0","2","53","2238","","","","","","","","","<img src= ""rock_img/I_Pumice_10.jpg"" style=""width:8cm; height:7.609999999999999cm;""><p>What type of rock is this?</p>","7","class_response","0","test","16","Pumice","Pumice","10","true","8","8","",""
"","","","","","","","","","","","html-keyboard-response","38","2.0.0","230654","62c5cdfe50000fce3e390be0","2","53","null","","","","","","","","","<p style='font-size: 30px;'><strong>Okay</strong></p>","null","neutral_feedback","0","test","16","","","","","","","",""
"","","","","","","","","","","","html-button-response","39","2.0.0","232657","62c5cdfe50000fce3e390be0","2","53","2000","","","","","","","","","<img src= ""rock_img/I_Pegmatite_09.jpg"" style=""width:8cm; height:4.03cm;""><p>What type of rock is this?</p>","6","class_response","0","test","17","Peridotite","Pegmatite","09","false","7","6","",""
"","","","","","","","","","","","html-keyboard-response","40","2.0.0","233172","62c5cdfe50000fce3e390be0","2","53","null","","","","","","","","","<p style='font-size: 30px;'><strong>Okay</strong></p>","null","neutral_feedback","0","test","17","","","","","","","",""
"","","","","","","","","","","","html-button-response","41","2.0.0","235385","62c5cdfe50000fce3e390be0","2","53","2212","","","","","","","","","<img src= ""rock_img/I_Peridotite_06.jpg"" style=""width:8cm; height:7.53cm;""><p>What type of rock is this?</p>","6","class_response","0","test","18","Peridotite","Peridotite","06","true","7","7","",""
"","","","","","","","","","","","html-keyboard-response","42","2.0.0","235902","62c5cdfe50000fce3e390be0","2","53","null","","","","","","","","","<p style='font-size: 30px;'><strong>Okay</strong></p>","null","neutral_feedback","0","test","18","","","","","","","",""
"","","","","","","","","","","","html-button-response","43","2.0.0","237811","62c5cdfe50000fce3e390be0","2","53","1907","","","","","","","","","<img src= ""rock_img/I_Pumice_04.jpg"" style=""width:8cm; height:6.819999999999999cm;""><p>What type of rock is this?</p>","7","class_response","0","test","19","Pumice","Pumice","04","true","8","8","",""
"","","","","","","","","","","","html-keyboard-response","44","2.0.0","238312","62c5cdfe50000fce3e390be0","2","53","null","","","","","","","","","<p style='font-size: 30px;'><strong>Okay</strong></p>","null","neutral_feedback","0","test","19","","","","","","","",""
"","","","","","","","","","","","html-button-response","45","2.0.0","239399","62c5cdfe50000fce3e390be0","2","53","1086","","","","","","","","","<img src= ""rock_img/I_Basalt_04.jpg"" style=""width:8cm; height:7.53cm;""><p>What type of rock is this?</p>","1","class_response","0","test","20","Basalt","Basalt","04","true","2","2","",""
"","","","","","","","","","","","html-keyboard-response","46","2.0.0","239903","62c5cdfe50000fce3e390be0","2","53","null","","","","","","","","","<p style='font-size: 30px;'><strong>Okay</strong></p>","null","neutral_feedback","0","test","20","","","","","","","",""
"","","","","","","","","","","","html-button-response","47","2.0.0","242115","62c5cdfe50000fce3e390be0","2","53","2210","","","","","","","","","<img src= ""rock_img/I_Peridotite_14.jpg"" style=""width:8cm; height:5.3cm;""><p>What type of rock is this?</p>","2","class_response","0","test","21","Diorite","Peridotite","14","false","3","7","",""
"","","","","","","","","","","","html-keyboard-response","48","2.0.0","242618","62c5cdfe50000fce3e390be0","2","53","null","","","","","","","","","<p style='font-size: 30px;'><strong>Okay</strong></p>","null","neutral_feedback","0","test","21","","","","","","","",""
"","","","","","","","","","","","html-button-response","49","2.0.0","244462","62c5cdfe50000fce3e390be0","2","53","1842","","","","","","","","","<img src= ""rock_img/I_Pumice_15.jpg"" style=""width:8cm; height:7.86cm;""><p>What type of rock is this?</p>","5","class_response","0","test","22","Pegmatite","Pumice","15","false","6","8","",""
"","","","","","","","","","","","html-keyboard-response","50","2.0.0","244977","62c5cdfe50000fce3e390be0","2","53","null","","","","","","","","","<p style='font-size: 30px;'><strong>Okay</strong></p>","null","neutral_feedback","0","test","22","","","","","","","",""
"","","","","","","","","","","","html-button-response","51","2.0.0","246310","62c5cdfe50000fce3e390be0","2","53","1331","","","","","","","","","<img src= ""rock_img/I_Pegmatite_16.jpg"" style=""width:8cm; height:5.8cm;""><p>What type of rock is this?</p>","3","class_response","0","test","23","Gabbro","Pegmatite","16","false","4","6","",""
"","","","","","","","","","","","html-keyboard-response","52","2.0.0","246816","62c5cdfe50000fce3e390be0","2","53","null","","","","","","","","","<p style='font-size: 30px;'><strong>Okay</strong></p>","null","neutral_feedback","0","test","23","","","","","","","",""
"","","","","","","","","","","","html-button-response","53","2.0.0","248786","62c5cdfe50000fce3e390be0","2","53","1968","","","","","","","","","<img src= ""rock_img/I_Obsidian_10.jpg"" style=""width:8cm; height:6.260000000000001cm;""><p>What type of rock is this?</p>","6","class_response","0","test","24","Peridotite","Obsidian","10","false","7","5","",""
"","","","","","","","","","","","html-keyboard-response","54","2.0.0","249298","62c5cdfe50000fce3e390be0","2","53","null","","","","","","","","","<p style='font-size: 30px;'><strong>Okay</strong></p>","null","neutral_feedback","0","test","24","","","","","","","",""
"","","","","","","","","","","","html-button-response","55","2.0.0","251283","62c5cdfe50000fce3e390be0","2","53","1983","","","","","","","","","<img src= ""rock_img/I_Diorite_10.jpg"" style=""width:8cm; height:5.949999999999999cm;""><p>What type of rock is this?</p>","0","class_response","0","test","25","Andesite","Diorite","10","false","1","3","",""
"","","","","","","","","","","","html-keyboard-response","56","2.0.0","251790","62c5cdfe50000fce3e390be0","2","53","null","","","","","","","","","<p style='font-size: 30px;'><strong>Okay</strong></p>","null","neutral_feedback","0","test","25","","","","","","","",""
"","","","","","","","","","","","html-button-response","57","2.0.0","253030","62c5cdfe50000fce3e390be0","2","53","1238","","","","","","","","","<img src= ""rock_img/I_Basalt_11.jpg"" style=""width:8cm; height:5.359999999999999cm;""><p>What type of rock is this?</p>","1","class_response","0","test","26","Basalt","Basalt","11","true","2","2","",""
"","","","","","","","","","","","html-keyboard-response","58","2.0.0","253545","62c5cdfe50000fce3e390be0","2","53","null","","","","","","","","","<p style='font-size: 30px;'><strong>Okay</strong></p>","null","neutral_feedback","0","test","26","","","","","","","",""
"","","","","","","","","","","","html-button-response","59","2.0.0","254857","62c5cdfe50000fce3e390be0","2","53","1310","","","","","","","","","<img src= ""rock_img/I_Obsidian_14.jpg"" style=""width:8cm; height:7.64cm;""><p>What type of rock is this?</p>","4","class_response","0","test","27","Obsidian","Obsidian","14","true","5","5","",""
"","","","","","","","","","","","html-keyboard-response","60","2.0.0","255374","62c5cdfe50000fce3e390be0","2","53","null","","","","","","","","","<p style='font-size: 30px;'><strong>Okay</strong></p>","null","neutral_feedback","0","test","27","","","","","","","",""
"","","","","","","","","","","","html-button-response","61","2.0.0","256778","62c5cdfe50000fce3e390be0","2","53","1402","","","","","","","","","<img src= ""rock_img/I_Gabbro_15.jpg"" style=""width:8cm; height:6.29cm;""><p>What type of rock is this?</p>","3","class_response","0","test","28","Gabbro","Gabbro","15","true","4","4","",""
"","","","","","","","","","","","html-keyboard-response","62","2.0.0","257284","62c5cdfe50000fce3e390be0","2","53","null","","","","","","","","","<p style='font-size: 30px;'><strong>Okay</strong></p>","null","neutral_feedback","0","test","28","","","","","","","",""
"","","","","","","","","","","","html-button-response","63","2.0.0","259261","62c5cdfe50000fce3e390be0","2","53","1974","","","","","","","","","<img src= ""rock_img/I_Andesite_16.jpg"" style=""width:8cm; height:6.010000000000001cm;""><p>What type of rock is this?</p>","2","class_response","0","test","29","Diorite","Andesite","16","false","3","1","",""
"","","","","","","","","","","","html-keyboard-response","64","2.0.0","259766","62c5cdfe50000fce3e390be0","2","53","null","","","","","","","","","<p style='font-size: 30px;'><strong>Okay</strong></p>","null","neutral_feedback","0","test","29","","","","","","","",""
"","","","","","","","","","","","html-button-response","65","2.0.0","261239","62c5cdfe50000fce3e390be0","2","53","1472","","","","","","","","","<img src= ""rock_img/I_Andesite_14.jpg"" style=""width:8cm; height:5.449999999999999cm;""><p>What type of rock is this?</p>","2","class_response","0","test","30","Diorite","Andesite","14","false","3","1","",""
"","","","","","","","","","","","html-keyboard-response","66","2.0.0","261741","62c5cdfe50000fce3e390be0","2","53","null","","","","","","","","","<p style='font-size: 30px;'><strong>Okay</strong></p>","null","neutral_feedback","0","test","30","","","","","","","",""
"","","","","","","","","","","","html-button-response","67","2.0.0","288245","62c5cdfe50000fce3e390be0","2","53","26501","","","","","","","","","<img src= ""rock_img/I_Pegmatite_12.jpg"" style=""width:8cm; height:5.7cm;""><p>What type of rock is this?</p>","3","class_response","0","test","31","Gabbro","Pegmatite","12","false","4","6","",""
"","","","","","","","","","","","html-keyboard-response","68","2.0.0","288750","62c5cdfe50000fce3e390be0","2","53","null","","","","","","","","","<p style='font-size: 30px;'><strong>Okay</strong></p>","null","neutral_feedback","0","test","31","","","","","","","",""
"","","","","","","","","","","","html-button-response","69","2.0.0","289826","62c5cdfe50000fce3e390be0","2","53","1075","","","","","","","","","<img src= ""rock_img/I_Pegmatite_11.jpg"" style=""width:8cm; height:8.14cm;""><p>What type of rock is this?</p>","6","class_response","0","test","32","Peridotite","Pegmatite","11","false","7","6","",""
"","","","","","","","","","","","html-keyboard-response","70","2.0.0","290328","62c5cdfe50000fce3e390be0","2","53","null","","","","","","","","","<p style='font-size: 30px;'><strong>Okay</strong></p>","null","neutral_feedback","0","test","32","","","","","","","",""
"","","","","","","","","","","","html-button-response","71","2.0.0","291891","62c5cdfe50000fce3e390be0","2","53","1561","","","","","","","","","<img src= ""rock_img/I_Gabbro_16.jpg"" style=""width:8cm; height:6.44cm;""><p>What type of rock is this?</p>","5","class_response","0","test","33","Pegmatite","Gabbro","16","false","6","4","",""
"","","","","","","","","","","","html-keyboard-response","72","2.0.0","292407","62c5cdfe50000fce3e390be0","2","53","null","","","","","","","","","<p style='font-size: 30px;'><strong>Okay</strong></p>","null","neutral_feedback","0","test","33","","","","","","","",""
"","","","","","","","","","","","html-button-response","73","2.0.0","294345","62c5cdfe50000fce3e390be0","2","53","1936","","","","","","","","","<img src= ""rock_img/I_Peridotite_16.jpg"" style=""width:8cm; height:6.989999999999999cm;""><p>What type of rock is this?</p>","6","class_response","0","test","34","Peridotite","Peridotite","16","true","7","7","",""
"","","","","","","","","","","","html-keyboard-response","74","2.0.0","294846","62c5cdfe50000fce3e390be0","2","53","null","","","","","","","","","<p style='font-size: 30px;'><strong>Okay</strong></p>","null","neutral_feedback","0","test","34","","","","","","","",""
"","","","","","","","","","","","html-button-response","75","2.0.0","296627","62c5cdfe50000fce3e390be0","2","53","1779","","","","","","","","","<img src= ""rock_img/I_Pumice_16.jpg"" style=""width:8cm; height:6.79cm;""><p>What type of rock is this?</p>","7","class_response","0","test","35","Pumice","Pumice","16","true","8","8","",""
"","","","","","","","","","","","html-keyboard-response","76","2.0.0","297143","62c5cdfe50000fce3e390be0","2","53","null","","","","","","","","","<p style='font-size: 30px;'><strong>Okay</strong></p>","null","neutral_feedback","0","test","35","","","","","","","",""
"","","","","","","","","","","","html-button-response","77","2.0.0","299356","62c5cdfe50000fce3e390be0","2","53","2211","","","","","","","","","<img src= ""rock_img/I_Andesite_03.jpg"" style=""width:8cm; height:5.73cm;""><p>What type of rock is this?</p>","2","class_response","0","test","36","Diorite","Andesite","03","false","3","1","",""
"","","","","","","","","","","","html-keyboard-response","78","2.0.0","299867","62c5cdfe50000fce3e390be0","2","53","null","","","","","","","","","<p style='font-size: 30px;'><strong>Okay</strong></p>","null","neutral_feedback","0","test","36","","","","","","","",""
"","","","","","","","","","","","html-button-response","79","2.0.0","302091","62c5cdfe50000fce3e390be0","2","53","2223","","","","","","","","","<img src= ""rock_img/I_Andesite_02.jpg"" style=""width:8cm; height:8.5cm;""><p>What type of rock is this?</p>","3","class_response","0","test","37","Gabbro","Andesite","02","false","4","1","",""
"","","","","","","","","","","","html-keyboard-response","80","2.0.0","302603","62c5cdfe50000fce3e390be0","2","53","null","","","","","","","","","<p style='font-size: 30px;'><strong>Okay</strong></p>","null","neutral_feedback","0","test","37","","","","","","","",""
"","","","","","","","","","","","html-button-response","81","2.0.0","304359","62c5cdfe50000fce3e390be0","2","53","1754","","","","","","","","","<img src= ""rock_img/I_Obsidian_05.jpg"" style=""width:8cm; height:6.33cm;""><p>What type of rock is this?</p>","6","class_response","0","test","38","Peridotite","Obsidian","05","false","7","5","",""
"","","","","","","","","","","","html-keyboard-response","82","2.0.0","304860","62c5cdfe50000fce3e390be0","2","53","null","","","","","","","","","<p style='font-size: 30px;'><strong>Okay</strong></p>","null","neutral_feedback","0","test","38","","","","","","","",""
"","","","","","","","","","","","html-button-response","83","2.0.0","306475","62c5cdfe50000fce3e390be0","2","53","1612","","","","","","","","","<img src= ""rock_img/I_Gabbro_12.jpg"" style=""width:8cm; height:7.800000000000001cm;""><p>What type of rock is this?</p>","0","class_response","0","test","39","Andesite","Gabbro","12","false","1","4","",""
"","","","","","","","","","","","html-keyboard-response","84","2.0.0","306986","62c5cdfe50000fce3e390be0","2","53","null","","","","","","","","","<p style='font-size: 30px;'><strong>Okay</strong></p>","null","neutral_feedback","0","test","39","","","","","","","",""
"","","","","","","","","","","","html-button-response","85","2.0.0","308631","62c5cdfe50000fce3e390be0","2","53","1643","","","","","","","","","<img src= ""rock_img/I_Pumice_09.jpg"" style=""width:8cm; height:6.44cm;""><p>What type of rock is this?</p>","7","class_response","0","test","40","Pumice","Pumice","09","true","8","8","",""
"","","","","","","","","","","","html-keyboard-response","86","2.0.0","309136","62c5cdfe50000fce3e390be0","2","53","null","","","","","","","","","<p style='font-size: 30px;'><strong>Okay</strong></p>","null","neutral_feedback","0","test","40","","","","","","","",""
"","","","","","","","","","","","html-button-response","87","2.0.0","310905","62c5cdfe50000fce3e390be0","2","53","1768","","","","","","","","","<img src= ""rock_img/I_Obsidian_11.jpg"" style=""width:8cm; height:6.05cm;""><p>What type of rock is this?</p>","4","class_response","0","test","41","Obsidian","Obsidian","11","true","5","5","",""
"","","","","","","","","","","","html-keyboard-response","88","2.0.0","311415","62c5cdfe50000fce3e390be0","2","53","null","","","","","","","","","<p style='font-size: 30px;'><strong>Okay</strong></p>","null","neutral_feedback","0","test","41","","","","","","","",""
"","","","","","","","","","","","html-button-response","89","2.0.0","313159","62c5cdfe50000fce3e390be0","2","53","1741","","","","","","","","","<img src= ""rock_img/I_Basalt_14.jpg"" style=""width:8cm; height:5.82cm;""><p>What type of rock is this?</p>","7","class_response","0","test","42","Pumice","Basalt","14","false","8","2","",""
"","","","","","","","","","","","html-keyboard-response","90","2.0.0","313667","62c5cdfe50000fce3e390be0","2","53","null","","","","","","","","","<p style='font-size: 30px;'><strong>Okay</strong></p>","null","neutral_feedback","0","test","42","","","","","","","",""
"","","","","","","","","","","","html-button-response","91","2.0.0","317744","62c5cdfe50000fce3e390be0","2","53","4075","","","","","","","","","<img src= ""rock_img/I_Diorite_02.jpg"" style=""width:8cm; height:6.27cm;""><p>What type of rock is this?</p>","2","class_response","0","test","43","Diorite","Diorite","02","true","3","3","",""
"","","","","","","","","","","","html-keyboard-response","92","2.0.0","318247","62c5cdfe50000fce3e390be0","2","53","null","","","","","","","","","<p style='font-size: 30px;'><strong>Okay</strong></p>","null","neutral_feedback","0","test","43","","","","","","","",""
"","","","","","","","","","","","html-button-response","93","2.0.0","319425","62c5cdfe50000fce3e390be0","2","53","1177","","","","","","","","","<img src= ""rock_img/I_Obsidian_07.jpg"" style=""width:8cm; height:4.76cm;""><p>What type of rock is this?</p>","5","class_response","0","test","44","Pegmatite","Obsidian","07","false","6","5","",""
"","","","","","","","","","","","html-keyboard-response","94","2.0.0","319942","62c5cdfe50000fce3e390be0","2","53","null","","","","","","","","","<p style='font-size: 30px;'><strong>Okay</strong></p>","null","neutral_feedback","0","test","44","","","","","","","",""
"","","","","","","","","","","","html-button-response","95","2.0.0","323807","62c5cdfe50000fce3e390be0","2","53","3864","","","","","","","","","<img src= ""rock_img/I_Diorite_08.jpg"" style=""width:8cm; height:6.37cm;""><p>What type of rock is this?</p>","2","class_response","0","test","45","Diorite","Diorite","08","true","3","3","",""
"","","","","","","","","","","","html-keyboard-response","96","2.0.0","324323","62c5cdfe50000fce3e390be0","2","53","null","","","","","","","","","<p style='font-size: 30px;'><strong>Okay</strong></p>","null","neutral_feedback","0","test","45","","","","","","","",""
"","","","","","","","","","","","html-button-response","97","2.0.0","325793","62c5cdfe50000fce3e390be0","2","53","1468","","","","","","","","","<img src= ""rock_img/I_Gabbro_05.jpg"" style=""width:8cm; height:6cm;""><p>What type of rock is this?</p>","1","class_response","0","test","46","Basalt","Gabbro","05","false","2","4","",""
"","","","","","","","","","","","html-keyboard-response","98","2.0.0","326300","62c5cdfe50000fce3e390be0","2","53","null","","","","","","","","","<p style='font-size: 30px;'><strong>Okay</strong></p>","null","neutral_feedback","0","test","46","","","","","","","",""
"","","","","","","","","","","","html-button-response","99","2.0.0","327323","62c5cdfe50000fce3e390be0","2","53","1021","","","","","","","","","<img src= ""rock_img/I_Basalt_05.jpg"" style=""width:8cm; height:8.18cm;""><p>What type of rock is this?</p>","1","class_response","0","test","47","Basalt","Basalt","05","true","2","2","",""
"","","","","","","","","","","","html-keyboard-response","100","2.0.0","327828","62c5cdfe50000fce3e390be0","2","53","null","","","","","","","","","<p style='font-size: 30px;'><strong>Okay</strong></p>","null","neutral_feedback","0","test","47","","","","","","","",""
"","","","","","","","","","","","html-button-response","101","2.0.0","330196","62c5cdfe50000fce3e390be0","2","53","2366","","","","","","","","","<img src= ""rock_img/I_Pegmatite_05.jpg"" style=""width:8cm; height:7.300000000000001cm;""><p>What type of rock is this?</p>","3","class_response","0","test","48","Gabbro","Pegmatite","05","false","4","6","",""
"","","","","","","","","","","","html-keyboard-response","102","2.0.0","330704","62c5cdfe50000fce3e390be0","2","53","null","","","","","","","","","<p style='font-size: 30px;'><strong>Okay</strong></p>","null","neutral_feedback","0","test","48","","","","","","","",""
"","","","","","","","","","","","instructions","103","2.0.0","356509","62c5cdfe50000fce3e390be0","2","53","25764","","","","","","","","[{""page_index"":0,""viewing_time"":15284},{""page_index"":1,""viewing_time"":5928},{""page_index"":2,""viewing_time"":4552}]","","","","","","","","","","","","","",""
"","","","","","","","","","","","html-button-response","104","2.0.0","359796","62c5cdfe50000fce3e390be0","2","53","3285","","","","","","","","","","0","start_train","","","","","","","","","","",""
"","","","","","","","","","","","html-button-response","105","2.0.0","362893","62c5cdfe50000fce3e390be0","2","53","3093","","","","","","","","","<img src= ""rock_img/I_Basalt_02.jpg"" style=""width:8cm; height:6.45cm;""><p>What type of rock is this?</p>","1","class_response","1","train","1","Basalt","Basalt","02","true","2","2","",""
"","","","","","","","","","","","html-button-response","106","2.0.0","364359","62c5cdfe50000fce3e390be0","2","53","1463","","","","","","","","","<img src= rock_img/I_Basalt_02.jpg style=""width:8cm; height:6.45cm;""><p style='font-size: 30px; color: green;'><strong>Correct!</strong></p><p style='font-size: 30px;'><strong>This rock is basalt</strong></p>","0","corr_feedback","1","train","1","","","","","","","",""
"","","","","","","","","","","","html-button-response","107","2.0.0","365875","62c5cdfe50000fce3e390be0","2","53","1513","","","","","","","","","<img src= ""rock_img/I_Pegmatite_03.jpg"" style=""width:8cm; height:5.239999999999999cm;""><p>What type of rock is this?</p>","6","class_response","1","train","2","Peridotite","Pegmatite","03","false","7","6","",""
"","","","","","","","","","","","html-button-response","108","2.0.0","367389","62c5cdfe50000fce3e390be0","2","53","1511","","","","","","","","","<img src= rock_img/I_Pegmatite_03.jpg style=""width:8cm; height:5.239999999999999cm;""><p style='font-size: 30px; color: red;'><strong>Incorrect!</strong></p><p style='font-size: 30px;'><strong>This rock is pegmatite</strong></p>","0","corr_feedback","1","train","2","","","","","","","",""
"","","","","","","","","","","","html-button-response","109","2.0.0","370589","62c5cdfe50000fce3e390be0","2","53","3198","","","","","","","","","<img src= ""rock_img/I_Andesite_10.jpg"" style=""width:8cm; height:4.16cm;""><p>What type of rock is this?</p>","0","class_response","1","train","3","Andesite","Andesite","10","true","1","1","",""
"","","","","","","","","","","","html-button-response","110","2.0.0","372185","62c5cdfe50000fce3e390be0","2","53","1594","","","","","","","","","<img src= rock_img/I_Andesite_10.jpg style=""width:8cm; height:4.16cm;""><p style='font-size: 30px; color: green;'><strong>Correct!</strong></p><p style='font-size: 30px;'><strong>This rock is andesite</strong></p>","0","corr_feedback","1","train","3","","","","","","","",""
"","","","","","","","","","","","html-button-response","111","2.0.0","373888","62c5cdfe50000fce3e390be0","2","53","1700","","","","","","","","","<img src= ""rock_img/I_Andesite_10.jpg"" style=""width:8cm; height:4.16cm;""><p>What type of rock is this?</p>","0","class_response","1","train","4","Andesite","Andesite","10","true","1","1","",""
"","","","","","","","","","","","html-button-response","112","2.0.0","375051","62c5cdfe50000fce3e390be0","2","53","1161","","","","","","","","","<img src= rock_img/I_Andesite_10.jpg style=""width:8cm; height:4.16cm;""><p style='font-size: 30px; color: green;'><strong>Correct!</strong></p><p style='font-size: 30px;'><strong>This rock is andesite</strong></p>","0","corr_feedback","1","train","4","","","","","","","",""
"","","","","","","","","","","","html-button-response","113","2.0.0","376690","62c5cdfe50000fce3e390be0","2","53","1636","","","","","","","","","<img src= ""rock_img/I_Obsidian_06.jpg"" style=""width:8cm; height:6.8cm;""><p>What type of rock is this?</p>","5","class_response","1","train","5","Pegmatite","Obsidian","06","false","6","5","",""
"","","","","","","","","","","","html-button-response","114","2.0.0","377419","62c5cdfe50000fce3e390be0","2","53","727","","","","","","","","","<img src= rock_img/I_Obsidian_06.jpg style=""width:8cm; height:6.8cm;""><p style='font-size: 30px; color: red;'><strong>Incorrect!</strong></p><p style='font-size: 30px;'><strong>This rock is obsidian</strong></p>","0","corr_feedback","1","train","5","","","","","","","",""
"","","","","","","","","","","","html-button-response","115","2.0.0","379049","62c5cdfe50000fce3e390be0","2","53","1627","","","","","","","","","<img src= ""rock_img/I_Obsidian_16.jpg"" style=""width:8cm; height:9.3cm;""><p>What type of rock is this?</p>","4","class_response","1","train","6","Obsidian","Obsidian","16","true","5","5","",""
"","","","","","","","","","","","html-button-response","116","2.0.0","380316","62c5cdfe50000fce3e390be0","2","53","1265","","","","","","","","","<img src= rock_img/I_Obsidian_16.jpg style=""width:8cm; height:9.3cm;""><p style='font-size: 30px; color: green;'><strong>Correct!</strong></p><p style='font-size: 30px;'><strong>This rock is obsidian</strong></p>","0","corr_feedback","1","train","6","","","","","","","",""
"","","","","","","","","","","","html-button-response","117","2.0.0","383183","62c5cdfe50000fce3e390be0","2","53","2864","","","","","","","","","<img src= ""rock_img/I_Gabbro_03.jpg"" style=""width:8cm; height:8.52cm;""><p>What type of rock is this?</p>","2","class_response","1","train","7","Diorite","Gabbro","03","false","3","4","",""
"","","","","","","","","","","","html-button-response","118","2.0.0","384368","62c5cdfe50000fce3e390be0","2","53","1183","","","","","","","","","<img src= rock_img/I_Gabbro_03.jpg style=""width:8cm; height:8.52cm;""><p style='font-size: 30px; color: red;'><strong>Incorrect!</strong></p><p style='font-size: 30px;'><strong>This rock is gabbro</strong></p>","0","corr_feedback","1","train","7","","","","","","","",""
"","","","","","","","","","","","html-button-response","119","2.0.0","385854","62c5cdfe50000fce3e390be0","2","53","1483","","","","","","","","","<img src= ""rock_img/I_Obsidian_09.jpg"" style=""width:8cm; height:5cm;""><p>What type of rock is this?</p>","4","class_response","1","train","8","Obsidian","Obsidian","09","true","5","5","",""
"","","","","","","","","","","","html-button-response","120","2.0.0","387137","62c5cdfe50000fce3e390be0","2","53","1281","","","","","","","","","<img src= rock_img/I_Obsidian_09.jpg style=""width:8cm; height:5cm;""><p style='font-size: 30px; color: green;'><strong>Correct!</strong></p><p style='font-size: 30px;'><strong>This rock is obsidian</strong></p>","0","corr_feedback","1","train","8","","","","","","","",""
"","","","","","","","","","","","html-button-response","121","2.0.0","388498","62c5cdfe50000fce3e390be0","2","53","1359","","","","","","","","","<img src= ""rock_img/I_Basalt_06.jpg"" style=""width:8cm; height:7.06cm;""><p>What type of rock is this?</p>","1","class_response","1","train","9","Basalt","Basalt","06","true","2","2","",""
"","","","","","","","","","","","html-button-response","122","2.0.0","389740","62c5cdfe50000fce3e390be0","2","53","1239","","","","","","","","","<img src= rock_img/I_Basalt_06.jpg style=""width:8cm; height:7.06cm;""><p style='font-size: 30px; color: green;'><strong>Correct!</strong></p><p style='font-size: 30px;'><strong>This rock is basalt</strong></p>","0","corr_feedback","1","train","9","","","","","","","",""
"","","","","","","","","","","","html-button-response","123","2.0.0","391980","62c5cdfe50000fce3e390be0","2","53","2239","","","","","","","","","<img src= ""rock_img/I_Andesite_09.jpg"" style=""width:8cm; height:6cm;""><p>What type of rock is this?</p>","2","class_response","1","train","10","Diorite","Andesite","09","false","3","1","",""
"","","","","","","","","","","","html-button-response","124","2.0.0","393072","62c5cdfe50000fce3e390be0","2","53","1089","","","","","","","","","<img src= rock_img/I_Andesite_09.jpg style=""width:8cm; height:6cm;""><p style='font-size: 30px; color: red;'><strong>Incorrect!</strong></p><p style='font-size: 30px;'><strong>This rock is andesite</strong></p>","0","corr_feedback","1","train","10","","","","","","","",""
"","","","","","","","","","","","html-button-response","125","2.0.0","395797","62c5cdfe50000fce3e390be0","2","53","2722","","","","","","","","","<img src= ""rock_img/I_Pegmatite_13.jpg"" style=""width:8cm; height:4.95cm;""><p>What type of rock is this?</p>","6","class_response","1","train","11","Peridotite","Pegmatite","13","false","7","6","",""
"","","","","","","","","","","","html-button-response","126","2.0.0","397085","62c5cdfe50000fce3e390be0","2","53","1286","","","","","","","","","<img src= rock_img/I_Pegmatite_13.jpg style=""width:8cm; height:4.95cm;""><p style='font-size: 30px; color: red;'><strong>Incorrect!</strong></p><p style='font-size: 30px;'><strong>This rock is pegmatite</strong></p>","0","corr_feedback","1","train","11","","","","","","","",""
"","","","","","","","","","","","html-button-response","127","2.0.0","398951","62c5cdfe50000fce3e390be0","2","53","1864","","","","","","","","","<img src= ""rock_img/I_Basalt_10.jpg"" style=""width:8cm; height:5.85cm;""><p>What type of rock is this?</p>","4","class_response","1","train","12","Obsidian","Basalt","10","false","5","2","",""
"","","","","","","","","","","","html-button-response","128","2.0.0","400220","62c5cdfe50000fce3e390be0","2","53","1267","","","","","","","","","<img src= rock_img/I_Basalt_10.jpg style=""width:8cm; height:5.85cm;""><p style='font-size: 30px; color: red;'><strong>Incorrect!</strong></p><p style='font-size: 30px;'><strong>This rock is basalt</strong></p>","0","corr_feedback","1","train","12","","","","","","","",""
"","","","","","","","","","","","html-button-response","129","2.0.0","402248","62c5cdfe50000fce3e390be0","2","53","2026","","","","","","","","","<img src= ""rock_img/I_Andesite_04.jpg"" style=""width:8cm; height:5.96cm;""><p>What type of rock is this?</p>","0","class_response","1","train","13","Andesite","Andesite","04","true","1","1","",""
"","","","","","","","","","","","html-button-response","130","2.0.0","403533","62c5cdfe50000fce3e390be0","2","53","1283","","","","","","","","","<img src= rock_img/I_Andesite_04.jpg style=""width:8cm; height:5.96cm;""><p style='font-size: 30px; color: green;'><strong>Correct!</strong></p><p style='font-size: 30px;'><strong>This rock is andesite</strong></p>","0","corr_feedback","1","train","13","","","","","","","",""
"","","","","","","","","","","","html-button-response","131","2.0.0","405301","62c5cdfe50000fce3e390be0","2","53","1765","","","","","","","","","<img src= ""rock_img/I_Andesite_11.jpg"" style=""width:8cm; height:4.92cm;""><p>What type of rock is this?</p>","2","class_response","1","train","14","Diorite","Andesite","11","false","3","1","",""
"","","","","","","","","","","","html-button-response","132","2.0.0","406350","62c5cdfe50000fce3e390be0","2","53","1047","","","","","","","","","<img src= rock_img/I_Andesite_11.jpg style=""width:8cm; height:4.92cm;""><p style='font-size: 30px; color: red;'><strong>Incorrect!</strong></p><p style='font-size: 30px;'><strong>This rock is andesite</strong></p>","0","corr_feedback","1","train","14","","","","","","","",""
"","","","","","","","","","","","html-button-response","133","2.0.0","407635","62c5cdfe50000fce3e390be0","2","53","1282","","","","","","","","","<img src= ""rock_img/I_Gabbro_08.jpg"" style=""width:8cm; height:5.15cm;""><p>What type of rock is this?</p>","2","class_response","1","train","15","Diorite","Gabbro","08","false","3","4","",""
"","","","","","","","","","","","html-button-response","134","2.0.0","408659","62c5cdfe50000fce3e390be0","2","53","1022","","","","","","","","","<img src= rock_img/I_Gabbro_08.jpg style=""width:8cm; height:5.15cm;""><p style='font-size: 30px; color: red;'><strong>Incorrect!</strong></p><p style='font-size: 30px;'><strong>This rock is gabbro</strong></p>","0","corr_feedback","1","train","15","","","","","","","",""
"","","","","","","","","","","","html-button-response","135","2.0.0","410094","62c5cdfe50000fce3e390be0","2","53","1434","","","","","","","","","<img src= ""rock_img/I_Andesite_09.jpg"" style=""width:8cm; height:6cm;""><p>What type of rock is this?</p>","0","class_response","1","train","16","Andesite","Andesite","09","true","1","1","",""
"","","","","","","","","","","","html-button-response","136","2.0.0","411310","62c5cdfe50000fce3e390be0","2","53","1214","","","","","","","","","<img src= rock_img/I_Andesite_09.jpg style=""width:8cm; height:6cm;""><p style='font-size: 30px; color: green;'><strong>Correct!</strong></p><p style='font-size: 30px;'><strong>This rock is andesite</strong></p>","0","corr_feedback","1","train","16","","","","","","","",""
"","","","","","","","","","","","html-button-response","137","2.0.0","413304","62c5cdfe50000fce3e390be0","2","53","1991","","","","","","","","","<img src= ""rock_img/I_Andesite_06.jpg"" style=""width:8cm; height:6.840000000000001cm;""><p>What type of rock is this?</p>","0","class_response","1","train","17","Andesite","Andesite","06","true","1","1","",""
"","","","","","","","","","","","html-button-response","138","2.0.0","414332","62c5cdfe50000fce3e390be0","2","53","1027","","","","","","","","","<img src= rock_img/I_Andesite_06.jpg style=""width:8cm; height:6.840000000000001cm;""><p style='font-size: 30px; color: green;'><strong>Correct!</strong></p><p style='font-size: 30px;'><strong>This rock is andesite</strong></p>","0","corr_feedback","1","train","17","","","","","","","",""
"","","","","","","","","","","","html-button-response","139","2.0.0","415925","62c5cdfe50000fce3e390be0","2","53","1590","","","","","","","","","<img src= ""rock_img/I_Pegmatite_15.jpg"" style=""width:8cm; height:6cm;""><p>What type of rock is this?</p>","5","class_response","1","train","18","Pegmatite","Pegmatite","15","true","6","6","",""
"","","","","","","","","","","","html-button-response","140","2.0.0","416996","62c5cdfe50000fce3e390be0","2","53","1070","","","","","","","","","<img src= rock_img/I_Pegmatite_15.jpg style=""width:8cm; height:6cm;""><p style='font-size: 30px; color: green;'><strong>Correct!</strong></p><p style='font-size: 30px;'><strong>This rock is pegmatite</strong></p>","0","corr_feedback","1","train","18","","","","","","","",""
"","","","","","","","","","","","html-button-response","141","2.0.0","418886","62c5cdfe50000fce3e390be0","2","53","1888","","","","","","","","","<img src= ""rock_img/I_Diorite_13.jpg"" style=""width:8cm; height:6.29cm;""><p>What type of rock is this?</p>","2","class_response","1","train","19","Diorite","Diorite","13","true","3","3","",""
"","","","","","","","","","","","html-button-response","142","2.0.0","419981","62c5cdfe50000fce3e390be0","2","53","1092","","","","","","","","","<img src= rock_img/I_Diorite_13.jpg style=""width:8cm; height:6.29cm;""><p style='font-size: 30px; color: green;'><strong>Correct!</strong></p><p style='font-size: 30px;'><strong>This rock is diorite</strong></p>","0","corr_feedback","1","train","19","","","","","","","",""
"","","","","","","","","","","","html-button-response","143","2.0.0","422067","62c5cdfe50000fce3e390be0","2","53","2084","","","","","","","","","<img src= ""rock_img/I_Pumice_08.jpg"" style=""width:8cm; height:6.67cm;""><p>What type of rock is this?</p>","6","class_response","1","train","20","Peridotite","Pumice","08","false","7","8","",""
"","","","","","","","","","","","html-button-response","144","2.0.0","423054","62c5cdfe50000fce3e390be0","2","53","985","","","","","","","","","<img src= rock_img/I_Pumice_08.jpg style=""width:8cm; height:6.67cm;""><p style='font-size: 30px; color: red;'><strong>Incorrect!</strong></p><p style='font-size: 30px;'><strong>This rock is pumice</strong></p>","0","corr_feedback","1","train","20","","","","","","","",""
"","","","","","","","","","","","html-button-response","145","2.0.0","424629","62c5cdfe50000fce3e390be0","2","53","1572","","","","","","","","","<img src= ""rock_img/I_Pegmatite_03.jpg"" style=""width:8cm; height:5.239999999999999cm;""><p>What type of rock is this?</p>","5","class_response","1","train","21","Pegmatite","Pegmatite","03","true","6","6","",""
"","","","","","","","","","","","html-button-response","146","2.0.0","425624","62c5cdfe50000fce3e390be0","2","53","993","","","","","","","","","<img src= rock_img/I_Pegmatite_03.jpg style=""width:8cm; height:5.239999999999999cm;""><p style='font-size: 30px; color: green;'><strong>Correct!</strong></p><p style='font-size: 30px;'><strong>This rock is pegmatite</strong></p>","0","corr_feedback","1","train","21","","","","","","","",""
"","","","","","","","","","","","html-button-response","147","2.0.0","429231","62c5cdfe50000fce3e390be0","2","53","3604","","","","","","","","","<img src= ""rock_img/I_Pegmatite_08.jpg"" style=""width:8cm; height:7.68cm;""><p>What type of rock is this?</p>","5","class_response","1","train","22","Pegmatite","Pegmatite","08","true","6","6","",""
"","","","","","","","","","","","html-button-response","148","2.0.0","430164","62c5cdfe50000fce3e390be0","2","53","931","","","","","","","","","<img src= rock_img/I_Pegmatite_08.jpg style=""width:8cm; height:7.68cm;""><p style='font-size: 30px; color: green;'><strong>Correct!</strong></p><p style='font-size: 30px;'><strong>This rock is pegmatite</strong></p>","0","corr_feedback","1","train","22","","","","","","","",""
"","","","","","","","","","","","html-button-response","149","2.0.0","432092","62c5cdfe50000fce3e390be0","2","53","1925","","","","","","","","","<img src= ""rock_img/I_Gabbro_09.jpg"" style=""width:8cm; height:7.279999999999999cm;""><p>What type of rock is this?</p>","1","class_response","1","train","23","Basalt","Gabbro","09","false","2","4","",""
"","","","","","","","","","","","html-button-response","150","2.0.0","433064","62c5cdfe50000fce3e390be0","2","53","970","","","","","","","","","<img src= rock_img/I_Gabbro_09.jpg style=""width:8cm; height:7.279999999999999cm;""><p style='font-size: 30px; color: red;'><strong>Incorrect!</strong></p><p style='font-size: 30px;'><strong>This rock is gabbro</strong></p>","0","corr_feedback","1","train","23","","","","","","","",""
"","","","","","","","","","","","html-button-response","151","2.0.0","435009","62c5cdfe50000fce3e390be0","2","53","1942","","","","","","","","","<img src= ""rock_img/I_Gabbro_13.jpg"" style=""width:8cm; height:5.08cm;""><p>What type of rock is this?</p>","6","class_response","1","train","24","Peridotite","Gabbro","13","false","7","4","",""
"","","","","","","","","","","","html-button-response","152","2.0.0","435981","62c5cdfe50000fce3e390be0","2","53","970","","","","","","","","","<img src= rock_img/I_Gabbro_13.jpg style=""width:8cm; height:5.08cm;""><p style='font-size: 30px; color: red;'><strong>Incorrect!</strong></p><p style='font-size: 30px;'><strong>This rock is gabbro</strong></p>","0","corr_feedback","1","train","24","","","","","","","",""
"","","","","","","","","","","","html-button-response","153","2.0.0","437636","62c5cdfe50000fce3e390be0","2","53","1653","","","","","","","","","<img src= ""rock_img/I_Diorite_07.jpg"" style=""width:8cm; height:5.239999999999999cm;""><p>What type of rock is this?</p>","2","class_response","1","train","25","Diorite","Diorite","07","true","3","3","",""
"","","","","","","","","","","","html-button-response","154","2.0.0","438604","62c5cdfe50000fce3e390be0","2","53","966","","","","","","","","","<img src= rock_img/I_Diorite_07.jpg style=""width:8cm; height:5.239999999999999cm;""><p style='font-size: 30px; color: green;'><strong>Correct!</strong></p><p style='font-size: 30px;'><strong>This rock is diorite</strong></p>","0","corr_feedback","1","train","25","","","","","","","",""
"","","","","","","","","","","","html-button-response","155","2.0.0","439966","62c5cdfe50000fce3e390be0","2","53","1359","","","","","","","","","<img src= ""rock_img/I_Pegmatite_10.jpg"" style=""width:8cm; height:4.16cm;""><p>What type of rock is this?</p>","5","class_response","1","train","26","Pegmatite","Pegmatite","10","true","6","6","",""
"","","","","","","","","","","","html-button-response","156","2.0.0","440922","62c5cdfe50000fce3e390be0","2","53","953","","","","","","","","","<img src= rock_img/I_Pegmatite_10.jpg style=""width:8cm; height:4.16cm;""><p style='font-size: 30px; color: green;'><strong>Correct!</strong></p><p style='font-size: 30px;'><strong>This rock is pegmatite</strong></p>","0","corr_feedback","1","train","26","","","","","","","",""
"","","","","","","","","","","","html-button-response","157","2.0.0","442713","62c5cdfe50000fce3e390be0","2","53","1789","","","","","","","","","<img src= ""rock_img/I_Obsidian_12.jpg"" style=""width:8cm; height:6.53cm;""><p>What type of rock is this?</p>","4","class_response","1","train","27","Obsidian","Obsidian","12","true","5","5","",""
"","","","","","","","","","","","html-button-response","158","2.0.0","443873","62c5cdfe50000fce3e390be0","2","53","1158","","","","","","","","","<img src= rock_img/I_Obsidian_12.jpg style=""width:8cm; height:6.53cm;""><p style='font-size: 30px; color: green;'><strong>Correct!</strong></p><p style='font-size: 30px;'><strong>This rock is obsidian</strong></p>","0","corr_feedback","1","train","27","","","","","","","",""
"","","","","","","","","","","","html-button-response","159","2.0.0","445662","62c5cdfe50000fce3e390be0","2","53","1786","","","","","","","","","<img src= ""rock_img/I_Basalt_16.jpg"" style=""width:8cm; height:7.659999999999999cm;""><p>What type of rock is this?</p>","7","class_response","1","train","28","Pumice","Basalt","16","false","8","2","",""
"","","","","","","","","","","","html-button-response","160","2.0.0","446893","62c5cdfe50000fce3e390be0","2","53","1229","","","","","","","","","<img src= rock_img/I_Basalt_16.jpg style=""width:8cm; height:7.659999999999999cm;""><p style='font-size: 30px; color: red;'><strong>Incorrect!</strong></p><p style='font-size: 30px;'><strong>This rock is basalt</strong></p>","0","corr_feedback","1","train","28","","","","","","","",""
"","","","","","","","","","","","html-button-response","161","2.0.0","448952","62c5cdfe50000fce3e390be0","2","53","2056","","","","","","","","","<img src= ""rock_img/I_Peridotite_10.jpg"" style=""width:8cm; height:5.390000000000001cm;""><p>What type of rock is this?</p>","0","class_response","1","train","29","Andesite","Peridotite","10","false","1","7","",""
"","","","","","","","","","","","html-button-response","162","2.0.0","450027","62c5cdfe50000fce3e390be0","2","53","1073","","","","","","","","","<img src= rock_img/I_Peridotite_10.jpg style=""width:8cm; height:5.390000000000001cm;""><p style='font-size: 30px; color: red;'><strong>Incorrect!</strong></p><p style='font-size: 30px;'><strong>This rock is peridotite</strong></p>","0","corr_feedback","1","train","29","","","","","","","",""
"","","","","","","","","","","","html-button-response","163","2.0.0","451847","62c5cdfe50000fce3e390be0","2","53","1818","","","","","","","","","<img src= ""rock_img/I_Obsidian_08.jpg"" style=""width:8cm; height:7.39cm;""><p>What type of rock is this?</p>","4","class_response","1","train","30","Obsidian","Obsidian","08","true","5","5","",""
"","","","","","","","","","","","html-button-response","164","2.0.0","452807","62c5cdfe50000fce3e390be0","2","53","958","","","","","","","","","<img src= rock_img/I_Obsidian_08.jpg style=""width:8cm; height:7.39cm;""><p style='font-size: 30px; color: green;'><strong>Correct!</strong></p><p style='font-size: 30px;'><strong>This rock is obsidian</strong></p>","0","corr_feedback","1","train","30","","","","","","","",""
"","","","","","","","","","","","html-button-response","165","2.0.0","454157","62c5cdfe50000fce3e390be0","2","53","1347","","","","","","","","","<img src= ""rock_img/I_Peridotite_15.jpg"" style=""width:8cm; height:6cm;""><p>What type of rock is this?</p>","5","class_response","1","train","31","Pegmatite","Peridotite","15","false","6","7","",""
"","","","","","","","","","","","html-button-response","166","2.0.0","455024","62c5cdfe50000fce3e390be0","2","53","865","","","","","","","","","<img src= rock_img/I_Peridotite_15.jpg style=""width:8cm; height:6cm;""><p style='font-size: 30px; color: red;'><strong>Incorrect!</strong></p><p style='font-size: 30px;'><strong>This rock is peridotite</strong></p>","0","corr_feedback","1","train","31","","","","","","","",""
"","","","","","","","","","","","html-button-response","167","2.0.0","456590","62c5cdfe50000fce3e390be0","2","53","1564","","","","","","","","","<img src= ""rock_img/I_Gabbro_14.jpg"" style=""width:8cm; height:8.48cm;""><p>What type of rock is this?</p>","5","class_response","1","train","32","Pegmatite","Gabbro","14","false","6","4","",""
"","","","","","","","","","","","html-button-response","168","2.0.0","457370","62c5cdfe50000fce3e390be0","2","53","778","","","","","","","","","<img src= rock_img/I_Gabbro_14.jpg style=""width:8cm; height:8.48cm;""><p style='font-size: 30px; color: red;'><strong>Incorrect!</strong></p><p style='font-size: 30px;'><strong>This rock is gabbro</strong></p>","0","corr_feedback","1","train","32","","","","","","","",""
"","","","","","","","","","","","html-button-response","169","2.0.0","458597","62c5cdfe50000fce3e390be0","2","53","1225","","","","","","","","","<img src= ""rock_img/I_Pumice_14.jpg"" style=""width:8cm; height:6.39cm;""><p>What type of rock is this?</p>","7","class_response","1","train","33","Pumice","Pumice","14","true","8","8","",""
"","","","","","","","","","","","html-button-response","170","2.0.0","459283","62c5cdfe50000fce3e390be0","2","53","685","","","","","","","","","<img src= rock_img/I_Pumice_14.jpg style=""width:8cm; height:6.39cm;""><p style='font-size: 30px; color: green;'><strong>Correct!</strong></p><p style='font-size: 30px;'><strong>This rock is pumice</strong></p>","0","corr_feedback","1","train","33","","","","","","","",""
"","","","","","","","","","","","html-button-response","171","2.0.0","462973","62c5cdfe50000fce3e390be0","2","53","3688","","","","","","","","","<img src= ""rock_img/I_Peridotite_04.jpg"" style=""width:8cm; height:6.680000000000001cm;""><p>What type of rock is this?</p>","6","class_response","1","train","34","Peridotite","Peridotite","04","true","7","7","",""
"","","","","","","","","","","","html-button-response","172","2.0.0","463630","62c5cdfe50000fce3e390be0","2","53","656","","","","","","","","","<img src= rock_img/I_Peridotite_04.jpg style=""width:8cm; height:6.680000000000001cm;""><p style='font-size: 30px; color: green;'><strong>Correct!</strong></p><p style='font-size: 30px;'><strong>This rock is peridotite</strong></p>","0","corr_feedback","1","train","34","","","","","","","",""
"","","","","","","","","","","","html-button-response","173","2.0.0","467104","62c5cdfe50000fce3e390be0","2","53","3472","","","","","","","","","<img src= ""rock_img/I_Gabbro_14.jpg"" style=""width:8cm; height:8.48cm;""><p>What type of rock is this?</p>","1","class_response","1","train","35","Basalt","Gabbro","14","false","2","4","",""
"","","","","","","","","","","","html-button-response","174","2.0.0","467876","62c5cdfe50000fce3e390be0","2","53","770","","","","","","","","","<img src= rock_img/I_Gabbro_14.jpg style=""width:8cm; height:8.48cm;""><p style='font-size: 30px; color: red;'><strong>Incorrect!</strong></p><p style='font-size: 30px;'><strong>This rock is gabbro</strong></p>","0","corr_feedback","1","train","35","","","","","","","",""
"","","","","","","","","","","","html-button-response","175","2.0.0","469009","62c5cdfe50000fce3e390be0","2","53","1132","","","","","","","","","<img src= ""rock_img/I_Pegmatite_10.jpg"" style=""width:8cm; height:4.16cm;""><p>What type of rock is this?</p>","5","class_response","1","train","36","Pegmatite","Pegmatite","10","true","6","6","",""
"","","","","","","","","","","","html-button-response","176","2.0.0","469630","62c5cdfe50000fce3e390be0","2","53","620","","","","","","","","","<img src= rock_img/I_Pegmatite_10.jpg style=""width:8cm; height:4.16cm;""><p style='font-size: 30px; color: green;'><strong>Correct!</strong></p><p style='font-size: 30px;'><strong>This rock is pegmatite</strong></p>","0","corr_feedback","1","train","36","","","","","","","",""
"","","","","","","","","","","","html-button-response","177","2.0.0","471871","62c5cdfe50000fce3e390be0","2","53","2237","","","","","","","","","<img src= ""rock_img/I_Gabbro_11.jpg"" style=""width:8cm; height:6.2cm;""><p>What type of rock is this?</p>","1","class_response","1","train","37","Basalt","Gabbro","11","false","2","4","",""
"","","","","","","","","","","","html-button-response","178","2.0.0","472571","62c5cdfe50000fce3e390be0","2","53","698","","","","","","","","","<img src= rock_img/I_Gabbro_11.jpg style=""width:8cm; height:6.2cm;""><p style='font-size: 30px; color: red;'><strong>Incorrect!</strong></p><p style='font-size: 30px;'><strong>This rock is gabbro</strong></p>","0","corr_feedback","1","train","37","","","","","","","",""
"","","","","","","","","","","","html-button-response","179","2.0.0","475251","62c5cdfe50000fce3e390be0","2","53","2677","","","","","","","","","<img src= ""rock_img/I_Pegmatite_07.jpg"" style=""width:8cm; height:6.7cm;""><p>What type of rock is this?</p>","6","class_response","1","train","38","Peridotite","Pegmatite","07","false","7","6","",""
"","","","","","","","","","","","html-button-response","180","2.0.0","475900","62c5cdfe50000fce3e390be0","2","53","648","","","","","","","","","<img src= rock_img/I_Pegmatite_07.jpg style=""width:8cm; height:6.7cm;""><p style='font-size: 30px; color: red;'><strong>Incorrect!</strong></p><p style='font-size: 30px;'><strong>This rock is pegmatite</strong></p>","0","corr_feedback","1","train","38","","","","","","","",""
"","","","","","","","","","","","html-button-response","181","2.0.0","477026","62c5cdfe50000fce3e390be0","2","53","1124","","","","","","","","","<img src= ""rock_img/I_Peridotite_08.jpg"" style=""width:8cm; height:6.7cm;""><p>What type of rock is this?</p>","6","class_response","1","train","39","Peridotite","Peridotite","08","true","7","7","",""
"","","","","","","","","","","","html-button-response","182","2.0.0","478666","62c5cdfe50000fce3e390be0","2","53","1639","","","","","","","","","<img src= rock_img/I_Peridotite_08.jpg style=""width:8cm; height:6.7cm;""><p style='font-size: 30px; color: green;'><strong>Correct!</strong></p><p style='font-size: 30px;'><strong>This rock is peridotite</strong></p>","0","corr_feedback","1","train","39","","","","","","","",""
"","","","","","","","","","","","html-button-response","183","2.0.0","480709","62c5cdfe50000fce3e390be0","2","53","2041","","","","","","","","","<img src= ""rock_img/I_Andesite_07.jpg"" style=""width:8cm; height:5.93cm;""><p>What type of rock is this?</p>","2","class_response","1","train","40","Diorite","Andesite","07","false","3","1","",""
"","","","","","","","","","","","html-button-response","184","2.0.0","481395","62c5cdfe50000fce3e390be0","2","53","685","","","","","","","","","<img src= rock_img/I_Andesite_07.jpg style=""width:8cm; height:5.93cm;""><p style='font-size: 30px; color: red;'><strong>Incorrect!</strong></p><p style='font-size: 30px;'><strong>This rock is andesite</strong></p>","0","corr_feedback","1","train","40","","","","","","","",""
"","","","","","","","","","","","html-button-response","185","2.0.0","482651","62c5cdfe50000fce3e390be0","2","53","1254","","","","","","","","","<img src= ""rock_img/I_Pegmatite_15.jpg"" style=""width:8cm; height:6cm;""><p>What type of rock is this?</p>","5","class_response","1","train","41","Pegmatite","Pegmatite","15","true","6","6","",""
"","","","","","","","","","","","html-button-response","186","2.0.0","483309","62c5cdfe50000fce3e390be0","2","53","656","","","","","","","","","<img src= rock_img/I_Pegmatite_15.jpg style=""width:8cm; height:6cm;""><p style='font-size: 30px; color: green;'><strong>Correct!</strong></p><p style='font-size: 30px;'><strong>This rock is pegmatite</strong></p>","0","corr_feedback","1","train","41","","","","","","","",""
"","","","","","","","","","","","html-button-response","187","2.0.0","486204","62c5cdfe50000fce3e390be0","2","53","2894","","","","","","","","","<img src= ""rock_img/I_Diorite_14.jpg"" style=""width:8cm; height:5.71cm;""><p>What type of rock is this?</p>","2","class_response","1","train","42","Diorite","Diorite","14","true","3","3","",""
"","","","","","","","","","","","html-button-response","188","2.0.0","486820","62c5cdfe50000fce3e390be0","2","53","614","","","","","","","","","<img src= rock_img/I_Diorite_14.jpg style=""width:8cm; height:5.71cm;""><p style='font-size: 30px; color: green;'><strong>Correct!</strong></p><p style='font-size: 30px;'><strong>This rock is diorite</strong></p>","0","corr_feedback","1","train","42","","","","","","","",""
"","","","","","","","","","","","html-button-response","189","2.0.0","488285","62c5cdfe50000fce3e390be0","2","53","1463","","","","","","","","","<img src= ""rock_img/I_Peridotite_12.jpg"" style=""width:8cm; height:4.54cm;""><p>What type of rock is this?</p>","0","class_response","1","train","43","Andesite","Peridotite","12","false","1","7","",""
"","","","","","","","","","","","html-button-response","190","2.0.0","489093","62c5cdfe50000fce3e390be0","2","53","807","","","","","","","","","<img src= rock_img/I_Peridotite_12.jpg style=""width:8cm; height:4.54cm;""><p style='font-size: 30px; color: red;'><strong>Incorrect!</strong></p><p style='font-size: 30px;'><strong>This rock is peridotite</strong></p>","0","corr_feedback","1","train","43","","","","","","","",""
"","","","","","","","","","","","html-button-response","191","2.0.0","490421","62c5cdfe50000fce3e390be0","2","53","1326","","","","","","","","","<img src= ""rock_img/I_Andesite_06.jpg"" style=""width:8cm; height:6.840000000000001cm;""><p>What type of rock is this?</p>","0","class_response","1","train","44","Andesite","Andesite","06","true","1","1","",""
"","","","","","","","","","","","html-button-response","192","2.0.0","491050","62c5cdfe50000fce3e390be0","2","53","628","","","","","","","","","<img src= rock_img/I_Andesite_06.jpg style=""width:8cm; height:6.840000000000001cm;""><p style='font-size: 30px; color: green;'><strong>Correct!</strong></p><p style='font-size: 30px;'><strong>This rock is andesite</strong></p>","0","corr_feedback","1","train","44","","","","","","","",""
"","","","","","","","","","","","html-button-response","193","2.0.0","492451","62c5cdfe50000fce3e390be0","2","53","1398","","","","","","","","","<img src= ""rock_img/I_Diorite_11.jpg"" style=""width:8cm; height:7.11cm;""><p>What type of rock is this?</p>","6","class_response","1","train","45","Peridotite","Diorite","11","false","7","3","",""
"","","","","","","","","","","","html-button-response","194","2.0.0","493896","62c5cdfe50000fce3e390be0","2","53","1444","","","","","","","","","<img src= rock_img/I_Diorite_11.jpg style=""width:8cm; height:7.11cm;""><p style='font-size: 30px; color: red;'><strong>Incorrect!</strong></p><p style='font-size: 30px;'><strong>This rock is diorite</strong></p>","0","corr_feedback","1","train","45","","","","","","","",""
"","","","","","","","","","","","html-button-response","195","2.0.0","496140","62c5cdfe50000fce3e390be0","2","53","2242","","","","","","","","","<img src= ""rock_img/I_Peridotite_02.jpg"" style=""width:8cm; height:5.859999999999999cm;""><p>What type of rock is this?</p>","6","class_response","1","train","46","Peridotite","Peridotite","02","true","7","7","",""
"","","","","","","","","","","","html-button-response","196","2.0.0","496878","62c5cdfe50000fce3e390be0","2","53","736","","","","","","","","","<img src= rock_img/I_Peridotite_02.jpg style=""width:8cm; height:5.859999999999999cm;""><p style='font-size: 30px; color: green;'><strong>Correct!</strong></p><p style='font-size: 30px;'><strong>This rock is peridotite</strong></p>","0","corr_feedback","1","train","46","","","","","","","",""
"","","","","","","","","","","","html-button-response","197","2.0.0","498293","62c5cdfe50000fce3e390be0","2","53","1413","","","","","","","","","<img src= ""rock_img/I_Pumice_05.jpg"" style=""width:8cm; height:7.25cm;""><p>What type of rock is this?</p>","7","class_response","1","train","47","Pumice","Pumice","05","true","8","8","",""
"","","","","","","","","","","","html-button-response","198","2.0.0","499073","62c5cdfe50000fce3e390be0","2","53","779","","","","","","","","","<img src= rock_img/I_Pumice_05.jpg style=""width:8cm; height:7.25cm;""><p style='font-size: 30px; color: green;'><strong>Correct!</strong></p><p style='font-size: 30px;'><strong>This rock is pumice</strong></p>","0","corr_feedback","1","train","47","","","","","","","",""
"","","","","","","","","","","","html-button-response","199","2.0.0","500257","62c5cdfe50000fce3e390be0","2","53","1182","","","","","","","","","<img src= ""rock_img/I_Basalt_01.jpg"" style=""width:8cm; height:7.880000000000001cm;""><p>What type of rock is this?</p>","1","class_response","1","train","48","Basalt","Basalt","01","true","2","2","",""
"","","","","","","","","","","","html-button-response","200","2.0.0","500835","62c5cdfe50000fce3e390be0","2","53","576","","","","","","","","","<img src= rock_img/I_Basalt_01.jpg style=""width:8cm; height:7.880000000000001cm;""><p style='font-size: 30px; color: green;'><strong>Correct!</strong></p><p style='font-size: 30px;'><strong>This rock is basalt</strong></p>","0","corr_feedback","1","train","48","","","","","","","",""
"","","","","","","","","","","","instructions","203","2.0.0","534710","62c5cdfe50000fce3e390be0","2","53","33874","","","","","","","","[{""page_index"":0,""viewing_time"":16634},{""page_index"":1,""viewing_time"":17239}]","","","","","","","","","","","","","",""
"","","","","","","","","","","","html-button-response","204","2.0.0","536728","62c5cdfe50000fce3e390be0","2","53","2016","","","","","","","","","","0","start_test","","","","","","","","","","",""
"","","","","","","","","","","","html-button-response","205","2.0.0","538044","62c5cdfe50000fce3e390be0","2","53","1313","","","","","","","","","<img src= ""rock_img/I_Pumice_16.jpg"" style=""width:8cm; height:6.79cm;""><p>What type of rock is this?</p>","7","class_response","1","test","1","Pumice","Pumice","16","true","8","8","",""
"","","","","","","","","","","","html-keyboard-response","206","2.0.0","538547","62c5cdfe50000fce3e390be0","2","53","null","","","","","","","","","<p style='font-size: 30px;'><strong>Okay</strong></p>","null","neutral_feedback","1","test","1","","","","","","","",""
"","","","","","","","","","","","html-button-response","207","2.0.0","540456","62c5cdfe50000fce3e390be0","2","53","1907","","","","","","","","","<img src= ""rock_img/I_Andesite_16.jpg"" style=""width:8cm; height:6.010000000000001cm;""><p>What type of rock is this?</p>","0","class_response","1","test","2","Andesite","Andesite","16","true","1","1","",""
"","","","","","","","","","","","html-keyboard-response","208","2.0.0","540960","62c5cdfe50000fce3e390be0","2","53","null","","","","","","","","","<p style='font-size: 30px;'><strong>Okay</strong></p>","null","neutral_feedback","1","test","2","","","","","","","",""
"","","","","","","","","","","","html-button-response","209","2.0.0","543229","62c5cdfe50000fce3e390be0","2","53","2267","","","","","","","","","<img src= ""rock_img/I_Gabbro_05.jpg"" style=""width:8cm; height:6cm;""><p>What type of rock is this?</p>","6","class_response","1","test","3","Peridotite","Gabbro","05","false","7","4","",""
"","","","","","","","","","","","html-keyboard-response","210","2.0.0","543736","62c5cdfe50000fce3e390be0","2","53","null","","","","","","","","","<p style='font-size: 30px;'><strong>Okay</strong></p>","null","neutral_feedback","1","test","3","","","","","","","",""
"","","","","","","","","","","","html-button-response","211","2.0.0","545112","62c5cdfe50000fce3e390be0","2","53","1374","","","","","","","","","<img src= ""rock_img/I_Diorite_10.jpg"" style=""width:8cm; height:5.949999999999999cm;""><p>What type of rock is this?</p>","2","class_response","1","test","4","Diorite","Diorite","10","true","3","3","",""
"","","","","","","","","","","","html-keyboard-response","212","2.0.0","545614","62c5cdfe50000fce3e390be0","2","53","null","","","","","","","","","<p style='font-size: 30px;'><strong>Okay</strong></p>","null","neutral_feedback","1","test","4","","","","","","","",""
"","","","","","","","","","","","html-button-response","213","2.0.0","547206","62c5cdfe50000fce3e390be0","2","53","1590","","","","","","","","","<img src= ""rock_img/I_Andesite_02.jpg"" style=""width:8cm; height:8.5cm;""><p>What type of rock is this?</p>","3","class_response","1","test","5","Gabbro","Andesite","02","false","4","1","",""
"","","","","","","","","","","","html-keyboard-response","214","2.0.0","547708","62c5cdfe50000fce3e390be0","2","53","null","","","","","","","","","<p style='font-size: 30px;'><strong>Okay</strong></p>","null","neutral_feedback","1","test","5","","","","","","","",""
"","","","","","","","","","","","html-button-response","215","2.0.0","549128","62c5cdfe50000fce3e390be0","2","53","1418","","","","","","","","","<img src= ""rock_img/I_Pegmatite_05.jpg"" style=""width:8cm; height:7.300000000000001cm;""><p>What type of rock is this?</p>","3","class_response","1","test","6","Gabbro","Pegmatite","05","false","4","6","",""
"","","","","","","","","","","","html-keyboard-response","216","2.0.0","549632","62c5cdfe50000fce3e390be0","2","53","null","","","","","","","","","<p style='font-size: 30px;'><strong>Okay</strong></p>","null","neutral_feedback","1","test","6","","","","","","","",""
"","","","","","","","","","","","html-button-response","217","2.0.0","551033","62c5cdfe50000fce3e390be0","2","53","1400","","","","","","","","","<img src= ""rock_img/I_Andesite_01.jpg"" style=""width:8cm; height:5.87cm;""><p>What type of rock is this?</p>","1","class_response","1","test","7","Basalt","Andesite","01","false","2","1","",""
"","","","","","","","","","","","html-keyboard-response","218","2.0.0","551545","62c5cdfe50000fce3e390be0","2","53","null","","","","","","","","","<p style='font-size: 30px;'><strong>Okay</strong></p>","null","neutral_feedback","1","test","7","","","","","","","",""
"","","","","","","","","","","","html-button-response","219","2.0.0","552888","62c5cdfe50000fce3e390be0","2","53","1341","","","","","","","","","<img src= ""rock_img/I_Andesite_03.jpg"" style=""width:8cm; height:5.73cm;""><p>What type of rock is this?</p>","0","class_response","1","test","8","Andesite","Andesite","03","true","1","1","",""
"","","","","","","","","","","","html-keyboard-response","220","2.0.0","553394","62c5cdfe50000fce3e390be0","2","53","null","","","","","","","","","<p style='font-size: 30px;'><strong>Okay</strong></p>","null","neutral_feedback","1","test","8","","","","","","","",""
"","","","","","","","","","","","html-button-response","221","2.0.0","554701","62c5cdfe50000fce3e390be0","2","53","1305","","","","","","","","","<img src= ""rock_img/I_Obsidian_11.jpg"" style=""width:8cm; height:6.05cm;""><p>What type of rock is this?</p>","4","class_response","1","test","9","Obsidian","Obsidian","11","true","5","5","",""
"","","","","","","","","","","","html-keyboard-response","222","2.0.0","555207","62c5cdfe50000fce3e390be0","2","53","null","","","","","","","","","<p style='font-size: 30px;'><strong>Okay</strong></p>","null","neutral_feedback","1","test","9","","","","","","","",""
"","","","","","","","","","","","html-button-response","223","2.0.0","556961","62c5cdfe50000fce3e390be0","2","53","1752","","","","","","","","","<img src= ""rock_img/I_Peridotite_05.jpg"" style=""width:8cm; height:7.1499999999999995cm;""><p>What type of rock is this?</p>","6","class_response","1","test","10","Peridotite","Peridotite","05","true","7","7","",""
"","","","","","","","","","","","html-keyboard-response","224","2.0.0","557464","62c5cdfe50000fce3e390be0","2","53","null","","","","","","","","","<p style='font-size: 30px;'><strong>Okay</strong></p>","null","neutral_feedback","1","test","10","","","","","","","",""
"","","","","","","","","","","","html-button-response","225","2.0.0","558642","62c5cdfe50000fce3e390be0","2","53","1177","","","","","","","","","<img src= ""rock_img/I_Pegmatite_12.jpg"" style=""width:8cm; height:5.7cm;""><p>What type of rock is this?</p>","3","class_response","1","test","11","Gabbro","Pegmatite","12","false","4","6","",""
"","","","","","","","","","","","html-keyboard-response","226","2.0.0","559148","62c5cdfe50000fce3e390be0","2","53","null","","","","","","","","","<p style='font-size: 30px;'><strong>Okay</strong></p>","null","neutral_feedback","1","test","11","","","","","","","",""
"","","","","","","","","","","","html-button-response","227","2.0.0","561466","62c5cdfe50000fce3e390be0","2","53","2317","","","","","","","","","<img src= ""rock_img/I_Gabbro_01.jpg"" style=""width:8cm; height:5.21cm;""><p>What type of rock is this?</p>","5","class_response","1","test","12","Pegmatite","Gabbro","01","false","6","4","",""
"","","","","","","","","","","","html-keyboard-response","228","2.0.0","561968","62c5cdfe50000fce3e390be0","2","53","null","","","","","","","","","<p style='font-size: 30px;'><strong>Okay</strong></p>","null","neutral_feedback","1","test","12","","","","","","","",""
"","","","","","","","","","","","html-button-response","229","2.0.0","563163","62c5cdfe50000fce3e390be0","2","53","1194","","","","","","","","","<img src= ""rock_img/I_Diorite_16.jpg"" style=""width:8cm; height:6.74cm;""><p>What type of rock is this?</p>","2","class_response","1","test","13","Diorite","Diorite","16","true","3","3","",""
"","","","","","","","","","","","html-keyboard-response","230","2.0.0","563665","62c5cdfe50000fce3e390be0","2","53","null","","","","","","","","","<p style='font-size: 30px;'><strong>Okay</strong></p>","null","neutral_feedback","1","test","13","","","","","","","",""
"","","","","","","","","","","","html-button-response","231","2.0.0","564939","62c5cdfe50000fce3e390be0","2","53","1273","","","","","","","","","<img src= ""rock_img/I_Obsidian_07.jpg"" style=""width:8cm; height:4.76cm;""><p>What type of rock is this?</p>","4","class_response","1","test","14","Obsidian","Obsidian","07","true","5","5","",""
"","","","","","","","","","","","html-keyboard-response","232","2.0.0","565449","62c5cdfe50000fce3e390be0","2","53","null","","","","","","","","","<p style='font-size: 30px;'><strong>Okay</strong></p>","null","neutral_feedback","1","test","14","","","","","","","",""
"","","","","","","","","","","","html-button-response","233","2.0.0","567097","62c5cdfe50000fce3e390be0","2","53","1647","","","","","","","","","<img src= ""rock_img/I_Basalt_11.jpg"" style=""width:8cm; height:5.359999999999999cm;""><p>What type of rock is this?</p>","1","class_response","1","test","15","Basalt","Basalt","11","true","2","2","",""
"","","","","","","","","","","","html-keyboard-response","234","2.0.0","567599","62c5cdfe50000fce3e390be0","2","53","null","","","","","","","","","<p style='font-size: 30px;'><strong>Okay</strong></p>","null","neutral_feedback","1","test","15","","","","","","","",""
"","","","","","","","","","","","html-button-response","235","2.0.0","568802","62c5cdfe50000fce3e390be0","2","53","1202","","","","","","","","","<img src= ""rock_img/I_Peridotite_06.jpg"" style=""width:8cm; height:7.53cm;""><p>What type of rock is this?</p>","6","class_response","1","test","16","Peridotite","Peridotite","06","true","7","7","",""
"","","","","","","","","","","","html-keyboard-response","236","2.0.0","569306","62c5cdfe50000fce3e390be0","2","53","null","","","","","","","","","<p style='font-size: 30px;'><strong>Okay</strong></p>","null","neutral_feedback","1","test","16","","","","","","","",""
"","","","","","","","","","","","html-button-response","237","2.0.0","570594","62c5cdfe50000fce3e390be0","2","53","1285","","","","","","","","","<img src= ""rock_img/I_Pegmatite_16.jpg"" style=""width:8cm; height:5.8cm;""><p>What type of rock is this?</p>","3","class_response","1","test","17","Gabbro","Pegmatite","16","false","4","6","",""
"","","","","","","","","","","","html-keyboard-response","238","2.0.0","571096","62c5cdfe50000fce3e390be0","2","53","null","","","","","","","","","<p style='font-size: 30px;'><strong>Okay</strong></p>","null","neutral_feedback","1","test","17","","","","","","","",""
"","","","","","","","","","","","html-button-response","239","2.0.0","573886","62c5cdfe50000fce3e390be0","2","53","2788","","","","","","","","","<img src= ""rock_img/I_Diorite_02.jpg"" style=""width:8cm; height:6.27cm;""><p>What type of rock is this?</p>","2","class_response","1","test","18","Diorite","Diorite","02","true","3","3","",""
"","","","","","","","","","","","html-keyboard-response","240","2.0.0","574388","62c5cdfe50000fce3e390be0","2","53","null","","","","","","","","","<p style='font-size: 30px;'><strong>Okay</strong></p>","null","neutral_feedback","1","test","18","","","","","","","",""
"","","","","","","","","","","","html-button-response","241","2.0.0","576340","62c5cdfe50000fce3e390be0","2","53","1950","","","","","","","","","<img src= ""rock_img/I_Pumice_15.jpg"" style=""width:8cm; height:7.86cm;""><p>What type of rock is this?</p>","7","class_response","1","test","19","Pumice","Pumice","15","true","8","8","",""
"","","","","","","","","","","","html-keyboard-response","242","2.0.0","576855","62c5cdfe50000fce3e390be0","2","53","null","","","","","","","","","<p style='font-size: 30px;'><strong>Okay</strong></p>","null","neutral_feedback","1","test","19","","","","","","","",""
"","","","","","","","","","","","html-button-response","243","2.0.0","577914","62c5cdfe50000fce3e390be0","2","53","1057","","","","","","","","","<img src= ""rock_img/I_Basalt_08.jpg"" style=""width:8cm; height:10.44cm;""><p>What type of rock is this?</p>","1","class_response","1","test","20","Basalt","Basalt","08","true","2","2","",""
"","","","","","","","","","","","html-keyboard-response","244","2.0.0","578415","62c5cdfe50000fce3e390be0","2","53","null","","","","","","","","","<p style='font-size: 30px;'><strong>Okay</strong></p>","null","neutral_feedback","1","test","20","","","","","","","",""
"","","","","","","","","","","","html-button-response","245","2.0.0","579806","62c5cdfe50000fce3e390be0","2","53","1389","","","","","","","","","<img src= ""rock_img/I_Diorite_08.jpg"" style=""width:8cm; height:6.37cm;""><p>What type of rock is this?</p>","2","class_response","1","test","21","Diorite","Diorite","08","true","3","3","",""
"","","","","","","","","","","","html-keyboard-response","246","2.0.0","580308","62c5cdfe50000fce3e390be0","2","53","null","","","","","","","","","<p style='font-size: 30px;'><strong>Okay</strong></p>","null","neutral_feedback","1","test","21","","","","","","","",""
"","","","","","","","","","","","html-button-response","247","2.0.0","581424","62c5cdfe50000fce3e390be0","2","53","1114","","","","","","","","","<img src= ""rock_img/I_Pegmatite_11.jpg"" style=""width:8cm; height:8.14cm;""><p>What type of rock is this?</p>","5","class_response","1","test","22","Pegmatite","Pegmatite","11","true","6","6","",""
"","","","","","","","","","","","html-keyboard-response","248","2.0.0","581925","62c5cdfe50000fce3e390be0","2","53","null","","","","","","","","","<p style='font-size: 30px;'><strong>Okay</strong></p>","null","neutral_feedback","1","test","22","","","","","","","",""
"","","","","","","","","","","","html-button-response","249","2.0.0","583229","62c5cdfe50000fce3e390be0","2","53","1302","","","","","","","","","<img src= ""rock_img/I_Peridotite_07.jpg"" style=""width:8cm; height:4.83cm;""><p>What type of rock is this?</p>","6","class_response","1","test","23","Peridotite","Peridotite","07","true","7","7","",""
"","","","","","","","","","","","html-keyboard-response","250","2.0.0","583739","62c5cdfe50000fce3e390be0","2","53","null","","","","","","","","","<p style='font-size: 30px;'><strong>Okay</strong></p>","null","neutral_feedback","1","test","23","","","","","","","",""
"","","","","","","","","","","","html-button-response","251","2.0.0","585112","62c5cdfe50000fce3e390be0","2","53","1372","","","","","","","","","<img src= ""rock_img/I_Pumice_04.jpg"" style=""width:8cm; height:6.819999999999999cm;""><p>What type of rock is this?</p>","7","class_response","1","test","24","Pumice","Pumice","04","true","8","8","",""
"","","","","","","","","","","","html-keyboard-response","252","2.0.0","585614","62c5cdfe50000fce3e390be0","2","53","null","","","","","","","","","<p style='font-size: 30px;'><strong>Okay</strong></p>","null","neutral_feedback","1","test","24","","","","","","","",""
"","","","","","","","","","","","html-button-response","253","2.0.0","587590","62c5cdfe50000fce3e390be0","2","53","1973","","","","","","","","","<img src= ""rock_img/I_Gabbro_16.jpg"" style=""width:8cm; height:6.44cm;""><p>What type of rock is this?</p>","1","class_response","1","test","25","Basalt","Gabbro","16","false","2","4","",""
"","","","","","","","","","","","html-keyboard-response","254","2.0.0","588092","62c5cdfe50000fce3e390be0","2","53","null","","","","","","","","","<p style='font-size: 30px;'><strong>Okay</strong></p>","null","neutral_feedback","1","test","25","","","","","","","",""
"","","","","","","","","","","","html-button-response","255","2.0.0","590123","62c5cdfe50000fce3e390be0","2","53","2030","","","","","","","","","<img src= ""rock_img/I_Obsidian_05.jpg"" style=""width:8cm; height:6.33cm;""><p>What type of rock is this?</p>","3","class_response","1","test","26","Gabbro","Obsidian","05","false","4","5","",""
"","","","","","","","","","","","html-keyboard-response","256","2.0.0","590632","62c5cdfe50000fce3e390be0","2","53","null","","","","","","","","","<p style='font-size: 30px;'><strong>Okay</strong></p>","null","neutral_feedback","1","test","26","","","","","","","",""
"","","","","","","","","","","","html-button-response","257","2.0.0","592101","62c5cdfe50000fce3e390be0","2","53","1467","","","","","","","","","<img src= ""rock_img/I_Basalt_04.jpg"" style=""width:8cm; height:7.53cm;""><p>What type of rock is this?</p>","1","class_response","1","test","27","Basalt","Basalt","04","true","2","2","",""
"","","","","","","","","","","","html-keyboard-response","258","2.0.0","592611","62c5cdfe50000fce3e390be0","2","53","null","","","","","","","","","<p style='font-size: 30px;'><strong>Okay</strong></p>","null","neutral_feedback","1","test","27","","","","","","","",""
"","","","","","","","","","","","html-button-response","259","2.0.0","594685","62c5cdfe50000fce3e390be0","2","53","2073","","","","","","","","","<img src= ""rock_img/I_Peridotite_16.jpg"" style=""width:8cm; height:6.989999999999999cm;""><p>What type of rock is this?</p>","6","class_response","1","test","28","Peridotite","Peridotite","16","true","7","7","",""
"","","","","","","","","","","","html-keyboard-response","260","2.0.0","595191","62c5cdfe50000fce3e390be0","2","53","null","","","","","","","","","<p style='font-size: 30px;'><strong>Okay</strong></p>","null","neutral_feedback","1","test","28","","","","","","","",""
"","","","","","","","","","","","html-button-response","261","2.0.0","596497","62c5cdfe50000fce3e390be0","2","53","1304","","","","","","","","","<img src= ""rock_img/I_Diorite_09.jpg"" style=""width:8cm; height:5.27cm;""><p>What type of rock is this?</p>","2","class_response","1","test","29","Diorite","Diorite","09","true","3","3","",""
"","","","","","","","","","","","html-keyboard-response","262","2.0.0","597002","62c5cdfe50000fce3e390be0","2","53","null","","","","","","","","","<p style='font-size: 30px;'><strong>Okay</strong></p>","null","neutral_feedback","1","test","29","","","","","","","",""
"","","","","","","","","","","","html-button-response","263","2.0.0","598295","62c5cdfe50000fce3e390be0","2","53","1291","","","","","","","","","<img src= ""rock_img/I_Diorite_12.jpg"" style=""width:8cm; height:4.88cm;""><p>What type of rock is this?</p>","2","class_response","1","test","30","Diorite","Diorite","12","true","3","3","",""
"","","","","","","","","","","","html-keyboard-response","264","2.0.0","598797","62c5cdfe50000fce3e390be0","2","53","null","","","","","","","","","<p style='font-size: 30px;'><strong>Okay</strong></p>","null","neutral_feedback","1","test","30","","","","","","","",""
"","","","","","","","","","","","html-button-response","265","2.0.0","601083","62c5cdfe50000fce3e390be0","2","53","2284","","","","","","","","","<img src= ""rock_img/I_Gabbro_15.jpg"" style=""width:8cm; height:6.29cm;""><p>What type of rock is this?</p>","3","class_response","1","test","31","Gabbro","Gabbro","15","true","4","4","",""
"","","","","","","","","","","","html-keyboard-response","266","2.0.0","601587","62c5cdfe50000fce3e390be0","2","53","null","","","","","","","","","<p style='font-size: 30px;'><strong>Okay</strong></p>","null","neutral_feedback","1","test","31","","","","","","","",""
"","","","","","","","","","","","html-button-response","267","2.0.0","602937","62c5cdfe50000fce3e390be0","2","53","1349","","","","","","","","","<img src= ""rock_img/I_Pegmatite_09.jpg"" style=""width:8cm; height:4.03cm;""><p>What type of rock is this?</p>","5","class_response","1","test","32","Pegmatite","Pegmatite","09","true","6","6","",""
"","","","","","","","","","","","html-keyboard-response","268","2.0.0","603438","62c5cdfe50000fce3e390be0","2","53","null","","","","","","","","","<p style='font-size: 30px;'><strong>Okay</strong></p>","null","neutral_feedback","1","test","32","","","","","","","",""
"","","","","","","","","","","","html-button-response","269","2.0.0","604425","62c5cdfe50000fce3e390be0","2","53","985","","","","","","","","","<img src= ""rock_img/I_Pumice_13.jpg"" style=""width:8cm; height:8.200000000000001cm;""><p>What type of rock is this?</p>","7","class_response","1","test","33","Pumice","Pumice","13","true","8","8","",""
"","","","","","","","","","","","html-keyboard-response","270","2.0.0","604926","62c5cdfe50000fce3e390be0","2","53","null","","","","","","","","","<p style='font-size: 30px;'><strong>Okay</strong></p>","null","neutral_feedback","1","test","33","","","","","","","",""
"","","","","","","","","","","","html-button-response","271","2.0.0","606323","62c5cdfe50000fce3e390be0","2","53","1396","","","","","","","","","<img src= ""rock_img/I_Basalt_14.jpg"" style=""width:8cm; height:5.82cm;""><p>What type of rock is this?</p>","1","class_response","1","test","34","Basalt","Basalt","14","true","2","2","",""
"","","","","","","","","","","","html-keyboard-response","272","2.0.0","606824","62c5cdfe50000fce3e390be0","2","53","null","","","","","","","","","<p style='font-size: 30px;'><strong>Okay</strong></p>","null","neutral_feedback","1","test","34","","","","","","","",""
"","","","","","","","","","","","html-button-response","273","2.0.0","607984","62c5cdfe50000fce3e390be0","2","53","1158","","","","","","","","","<img src= ""rock_img/I_Gabbro_12.jpg"" style=""width:8cm; height:7.800000000000001cm;""><p>What type of rock is this?</p>","0","class_response","1","test","35","Andesite","Gabbro","12","false","1","4","",""
"","","","","","","","","","","","html-keyboard-response","274","2.0.0","608489","62c5cdfe50000fce3e390be0","2","53","null","","","","","","","","","<p style='font-size: 30px;'><strong>Okay</strong></p>","null","neutral_feedback","1","test","35","","","","","","","",""
"","","","","","","","","","","","html-button-response","275","2.0.0","609623","62c5cdfe50000fce3e390be0","2","53","1132","","","","","","","","","<img src= ""rock_img/I_Obsidian_02.jpg"" style=""width:8cm; height:7.51cm;""><p>What type of rock is this?</p>","4","class_response","1","test","36","Obsidian","Obsidian","02","true","5","5","",""
"","","","","","","","","","","","html-keyboard-response","276","2.0.0","610133","62c5cdfe50000fce3e390be0","2","53","null","","","","","","","","","<p style='font-size: 30px;'><strong>Okay</strong></p>","null","neutral_feedback","1","test","36","","","","","","","",""
"","","","","","","","","","","","html-button-response","277","2.0.0","611884","62c5cdfe50000fce3e390be0","2","53","1749","","","","","","","","","<img src= ""rock_img/I_Pumice_09.jpg"" style=""width:8cm; height:6.44cm;""><p>What type of rock is this?</p>","7","class_response","1","test","37","Pumice","Pumice","09","true","8","8","",""
"","","","","","","","","","","","html-keyboard-response","278","2.0.0","612386","62c5cdfe50000fce3e390be0","2","53","null","","","","","","","","","<p style='font-size: 30px;'><strong>Okay</strong></p>","null","neutral_feedback","1","test","37","","","","","","","",""
"","","","","","","","","","","","html-button-response","279","2.0.0","615766","62c5cdfe50000fce3e390be0","2","53","3379","","","","","","","","","<img src= ""rock_img/I_Pegmatite_06.jpg"" style=""width:8cm; height:5.17cm;""><p>What type of rock is this?</p>","2","class_response","1","test","38","Diorite","Pegmatite","06","false","3","6","",""
"","","","","","","","","","","","html-keyboard-response","280","2.0.0","616269","62c5cdfe50000fce3e390be0","2","53","null","","","","","","","","","<p style='font-size: 30px;'><strong>Okay</strong></p>","null","neutral_feedback","1","test","38","","","","","","","",""
"","","","","","","","","","","","html-button-response","281","2.0.0","617639","62c5cdfe50000fce3e390be0","2","53","1367","","","","","","","","","<img src= ""rock_img/I_Pumice_10.jpg"" style=""width:8cm; height:7.609999999999999cm;""><p>What type of rock is this?</p>","7","class_response","1","test","39","Pumice","Pumice","10","true","8","8","",""
"","","","","","","","","","","","html-keyboard-response","282","2.0.0","618140","62c5cdfe50000fce3e390be0","2","53","null","","","","","","","","","<p style='font-size: 30px;'><strong>Okay</strong></p>","null","neutral_feedback","1","test","39","","","","","","","",""
"","","","","","","","","","","","html-button-response","283","2.0.0","619926","62c5cdfe50000fce3e390be0","2","53","1785","","","","","","","","","<img src= ""rock_img/I_Peridotite_13.jpg"" style=""width:8cm; height:7.58cm;""><p>What type of rock is this?</p>","6","class_response","1","test","40","Peridotite","Peridotite","13","true","7","7","",""
"","","","","","","","","","","","html-keyboard-response","284","2.0.0","620429","62c5cdfe50000fce3e390be0","2","53","null","","","","","","","","","<p style='font-size: 30px;'><strong>Okay</strong></p>","null","neutral_feedback","1","test","40","","","","","","","",""
"","","","","","","","","","","","html-button-response","285","2.0.0","621853","62c5cdfe50000fce3e390be0","2","53","1423","","","","","","","","","<img src= ""rock_img/I_Peridotite_14.jpg"" style=""width:8cm; height:5.3cm;""><p>What type of rock is this?</p>","6","class_response","1","test","41","Peridotite","Peridotite","14","true","7","7","",""
"","","","","","","","","","","","html-keyboard-response","286","2.0.0","622355","62c5cdfe50000fce3e390be0","2","53","null","","","","","","","","","<p style='font-size: 30px;'><strong>Okay</strong></p>","null","neutral_feedback","1","test","41","","","","","","","",""
"","","","","","","","","","","","html-button-response","287","2.0.0","623169","62c5cdfe50000fce3e390be0","2","53","812","","","","","","","","","<img src= ""rock_img/I_Basalt_05.jpg"" style=""width:8cm; height:8.18cm;""><p>What type of rock is this?</p>","1","class_response","1","test","42","Basalt","Basalt","05","true","2","2","",""
"","","","","","","","","","","","html-keyboard-response","288","2.0.0","623673","62c5cdfe50000fce3e390be0","2","53","null","","","","","","","","","<p style='font-size: 30px;'><strong>Okay</strong></p>","null","neutral_feedback","1","test","42","","","","","","","",""
"","","","","","","","","","","","html-button-response","289","2.0.0","624705","62c5cdfe50000fce3e390be0","2","53","1031","","","","","","","","","<img src= ""rock_img/I_Obsidian_10.jpg"" style=""width:8cm; height:6.260000000000001cm;""><p>What type of rock is this?</p>","4","class_response","1","test","43","Obsidian","Obsidian","10","true","5","5","",""
"","","","","","","","","","","","html-keyboard-response","290","2.0.0","625207","62c5cdfe50000fce3e390be0","2","53","null","","","","","","","","","<p style='font-size: 30px;'><strong>Okay</strong></p>","null","neutral_feedback","1","test","43","","","","","","","",""
"","","","","","","","","","","","html-button-response","291","2.0.0","626511","62c5cdfe50000fce3e390be0","2","53","1303","","","","","","","","","<img src= ""rock_img/I_Obsidian_14.jpg"" style=""width:8cm; height:7.64cm;""><p>What type of rock is this?</p>","4","class_response","1","test","44","Obsidian","Obsidian","14","true","5","5","",""
"","","","","","","","","","","","html-keyboard-response","292","2.0.0","627013","62c5cdfe50000fce3e390be0","2","53","null","","","","","","","","","<p style='font-size: 30px;'><strong>Okay</strong></p>","null","neutral_feedback","1","test","44","","","","","","","",""
"","","","","","","","","","","","html-button-response","293","2.0.0","628865","62c5cdfe50000fce3e390be0","2","53","1851","","","","","","","","","<img src= ""rock_img/I_Gabbro_10.jpg"" style=""width:8cm; height:5.680000000000001cm;""><p>What type of rock is this?</p>","1","class_response","1","test","45","Basalt","Gabbro","10","false","2","4","",""
"","","","","","","","","","","","html-keyboard-response","294","2.0.0","629367","62c5cdfe50000fce3e390be0","2","53","null","","","","","","","","","<p style='font-size: 30px;'><strong>Okay</strong></p>","null","neutral_feedback","1","test","45","","","","","","","",""
"","","","","","","","","","","","html-button-response","295","2.0.0","630295","62c5cdfe50000fce3e390be0","2","53","926","","","","","","","","","<img src= ""rock_img/I_Basalt_12.jpg"" style=""width:8cm; height:6.010000000000001cm;""><p>What type of rock is this?</p>","0","class_response","1","test","46","Andesite","Basalt","12","false","1","2","",""
"","","","","","","","","","","","html-keyboard-response","296","2.0.0","630796","62c5cdfe50000fce3e390be0","2","53","null","","","","","","","","","<p style='font-size: 30px;'><strong>Okay</strong></p>","null","neutral_feedback","1","test","46","","","","","","","",""
"","","","","","","","","","","","html-button-response","297","2.0.0","633694","62c5cdfe50000fce3e390be0","2","53","2897","","","","","","","","","<img src= ""rock_img/I_Andesite_05.jpg"" style=""width:8cm; height:4.12cm;""><p>What type of rock is this?</p>","0","class_response","1","test","47","Andesite","Andesite","05","true","1","1","",""
"","","","","","","","","","","","html-keyboard-response","298","2.0.0","634196","62c5cdfe50000fce3e390be0","2","53","null","","","","","","","","","<p style='font-size: 30px;'><strong>Okay</strong></p>","null","neutral_feedback","1","test","47","","","","","","","",""
"","","","","","","","","","","","html-button-response","299","2.0.0","635585","62c5cdfe50000fce3e390be0","2","53","1388","","","","","","","","","<img src= ""rock_img/I_Andesite_14.jpg"" style=""width:8cm; height:5.449999999999999cm;""><p>What type of rock is this?</p>","0","class_response","1","test","48","Andesite","Andesite","14","true","1","1","",""
"","","","","","","","","","","","html-keyboard-response","300","2.0.0","636091","62c5cdfe50000fce3e390be0","2","53","null","","","","","","","","","<p style='font-size: 30px;'><strong>Okay</strong></p>","null","neutral_feedback","1","test","48","","","","","","","",""
"","","","","","","","","","","","html-button-response","301","2.0.0","716969","62c5cdfe50000fce3e390be0","2","53","","","","","","","","","","","","cycle_feedback","","","","","","","","","","55048.59999999963","25821.700000000186"
"","","","","","","","","","","","html-button-response","303","2.0.0","718985","62c5cdfe50000fce3e390be0","2","53","2014","","","","","","","","","","0","start_train","","","","","","","","","","",""
"","","","","","","","","","","","html-button-response","304","2.0.0","725279","62c5cdfe50000fce3e390be0","2","53","6293","","","","","","","","","<img src= ""rock_img/I_Gabbro_08.jpg"" style=""width:8cm; height:5.15cm;""><p>What type of rock is this?</p>","3","class_response","2","train","1","Gabbro","Gabbro","08","true","4","4","",""
