"width","height","webaudio","browser","browser_version","mobile","os","fullscreen","vsync_rate","webcam","microphone","trial_type","trial_index","plugin_version","time_elapsed","subjID","condition","stimID","rt","url","success","value","timeout","failed_images","failed_audio","failed_video","view_history","stimulus","response","trialType","cycle","phase","trial","resp","cat","token","corr","resp_num","cat_num","time_fb1","time_fb2"
"1440","720","true","chrome","128.0.0","false","Mac OS","true","60.47","true","true","browser-check","0","2.0.0","1001","65f22e728039424910f7eaa8","2","39","","","","","","","","","","","","","","","","","","","","","","",""
"","","","","","","","","","","","external-html","1","2.0.0","21034","65f22e728039424910f7eaa8","2","39","19927","consent_form.html","","","","","","","","","","","","","","","","","","","","",""
"","","","","","","","","","","","fullscreen","2","2.0.0","24168","65f22e728039424910f7eaa8","2","39","2125","","true","","","","","","","","","","","","","","","","","","","",""
"","","","","","","","","","","","call-function","3","2.0.0","24171","65f22e728039424910f7eaa8","2","39","","","","{}","","","","","","","","","","","","","","","","","","",""
"","","","","","","","","","","","preload","4","2.0.0","32091","65f22e728039424910f7eaa8","2","39","","","true","","false","[]","[]","[]","","","","","","","","","","","","","","",""
"","","","","","","","","","","","instructions","5","2.0.0","63916","65f22e728039424910f7eaa8","2","39","31823","","","","","","","","[{""page_index"":0,""viewing_time"":10106},{""page_index"":1,""viewing_time"":12850},{""page_index"":2,""viewing_time"":8867}]","","","","","","","","","","","","","",""
"","","","","","","","","","","","html-button-response","6","2.0.0","65365","65f22e728039424910f7eaa8","2","39","1446","","","","","","","","","","0","start_test","","","","","","","","","","",""
"","","","","","","","","","","","html-button-response","7","2.0.0","75850","65f22e728039424910f7eaa8","2","39","10482","","","","","","","","","<img src= ""rock_img/I_Diorite_10.jpg"" style=""width:8cm; height:5.949999999999999cm;""><p>What type of rock is this?</p>","6","class_response","0","test","1","Peridotite","Diorite","10","false","7","3","",""
"","","","","","","","","","","","html-keyboard-response","8","2.0.0","76353","65f22e728039424910f7eaa8","2","39","null","","","","","","","","","<p style='font-size: 30px;'><strong>Okay</strong></p>","null","neutral_feedback","0","test","1","","","","","","","",""
"","","","","","","","","","","","html-button-response","9","2.0.0","81032","65f22e728039424910f7eaa8","2","39","4675","","","","","","","","","<img src= ""rock_img/I_Diorite_13.jpg"" style=""width:8cm; height:6.29cm;""><p>What type of rock is this?</p>","0","class_response","0","test","2","Andesite","Diorite","13","false","1","3","",""
"","","","","","","","","","","","html-keyboard-response","10","2.0.0","81536","65f22e728039424910f7eaa8","2","39","null","","","","","","","","","<p style='font-size: 30px;'><strong>Okay</strong></p>","null","neutral_feedback","0","test","2","","","","","","","",""
"","","","","","","","","","","","html-button-response","11","2.0.0","85799","65f22e728039424910f7eaa8","2","39","4260","","","","","","","","","<img src= ""rock_img/I_Pumice_06.jpg"" style=""width:8cm; height:6.9399999999999995cm;""><p>What type of rock is this?</p>","7","class_response","0","test","3","Pumice","Pumice","06","true","8","8","",""
"","","","","","","","","","","","html-keyboard-response","12","2.0.0","86302","65f22e728039424910f7eaa8","2","39","null","","","","","","","","","<p style='font-size: 30px;'><strong>Okay</strong></p>","null","neutral_feedback","0","test","3","","","","","","","",""
"","","","","","","","","","","","html-button-response","13","2.0.0","89183","65f22e728039424910f7eaa8","2","39","2877","","","","","","","","","<img src= ""rock_img/I_Peridotite_16.jpg"" style=""width:8cm; height:6.989999999999999cm;""><p>What type of rock is this?</p>","4","class_response","0","test","4","Obsidian","Peridotite","16","false","5","7","",""
"","","","","","","","","","","","html-keyboard-response","14","2.0.0","89686","65f22e728039424910f7eaa8","2","39","null","","","","","","","","","<p style='font-size: 30px;'><strong>Okay</strong></p>","null","neutral_feedback","0","test","4","","","","","","","",""
"","","","","","","","","","","","html-button-response","15","2.0.0","91199","65f22e728039424910f7eaa8","2","39","1510","","","","","","","","","<img src= ""rock_img/I_Diorite_06.jpg"" style=""width:8cm; height:6.03cm;""><p>What type of rock is this?</p>","1","class_response","0","test","5","Basalt","Diorite","06","false","2","3","",""
"","","","","","","","","","","","html-keyboard-response","16","2.0.0","91702","65f22e728039424910f7eaa8","2","39","null","","","","","","","","","<p style='font-size: 30px;'><strong>Okay</strong></p>","null","neutral_feedback","0","test","5","","","","","","","",""
"","","","","","","","","","","","html-button-response","17","2.0.0","93366","65f22e728039424910f7eaa8","2","39","1660","","","","","","","","","<img src= ""rock_img/I_Gabbro_09.jpg"" style=""width:8cm; height:7.279999999999999cm;""><p>What type of rock is this?</p>","5","class_response","0","test","6","Pegmatite","Gabbro","09","false","6","4","",""
"","","","","","","","","","","","html-keyboard-response","18","2.0.0","93868","65f22e728039424910f7eaa8","2","39","null","","","","","","","","","<p style='font-size: 30px;'><strong>Okay</strong></p>","null","neutral_feedback","0","test","6","","","","","","","",""
"","","","","","","","","","","","html-button-response","19","2.0.0","95232","65f22e728039424910f7eaa8","2","39","1360","","","","","","","","","<img src= ""rock_img/I_Pegmatite_06.jpg"" style=""width:8cm; height:5.17cm;""><p>What type of rock is this?</p>","3","class_response","0","test","7","Gabbro","Pegmatite","06","false","4","6","",""
"","","","","","","","","","","","html-keyboard-response","20","2.0.0","95734","65f22e728039424910f7eaa8","2","39","null","","","","","","","","","<p style='font-size: 30px;'><strong>Okay</strong></p>","null","neutral_feedback","0","test","7","","","","","","","",""
"","","","","","","","","","","","html-button-response","21","2.0.0","97531","65f22e728039424910f7eaa8","2","39","1794","","","","","","","","","<img src= ""rock_img/I_Pegmatite_13.jpg"" style=""width:8cm; height:4.95cm;""><p>What type of rock is this?</p>","2","class_response","0","test","8","Diorite","Pegmatite","13","false","3","6","",""
"","","","","","","","","","","","html-keyboard-response","22","2.0.0","98034","65f22e728039424910f7eaa8","2","39","null","","","","","","","","","<p style='font-size: 30px;'><strong>Okay</strong></p>","null","neutral_feedback","0","test","8","","","","","","","",""
"","","","","","","","","","","","html-button-response","23","2.0.0","103216","65f22e728039424910f7eaa8","2","39","5179","","","","","","","","","<img src= ""rock_img/I_Pegmatite_16.jpg"" style=""width:8cm; height:5.8cm;""><p>What type of rock is this?</p>","5","class_response","0","test","9","Pegmatite","Pegmatite","16","true","6","6","",""
"","","","","","","","","","","","html-keyboard-response","24","2.0.0","103718","65f22e728039424910f7eaa8","2","39","null","","","","","","","","","<p style='font-size: 30px;'><strong>Okay</strong></p>","null","neutral_feedback","0","test","9","","","","","","","",""
"","","","","","","","","","","","html-button-response","25","2.0.0","109147","65f22e728039424910f7eaa8","2","39","5426","","","","","","","","","<img src= ""rock_img/I_Andesite_05.jpg"" style=""width:8cm; height:4.12cm;""><p>What type of rock is this?</p>","4","class_response","0","test","10","Obsidian","Andesite","05","false","5","1","",""
"","","","","","","","","","","","html-keyboard-response","26","2.0.0","109649","65f22e728039424910f7eaa8","2","39","null","","","","","","","","","<p style='font-size: 30px;'><strong>Okay</strong></p>","null","neutral_feedback","0","test","10","","","","","","","",""
"","","","","","","","","","","","html-button-response","27","2.0.0","111448","65f22e728039424910f7eaa8","2","39","1797","","","","","","","","","<img src= ""rock_img/I_Pumice_14.jpg"" style=""width:8cm; height:6.39cm;""><p>What type of rock is this?</p>","2","class_response","0","test","11","Diorite","Pumice","14","false","3","8","",""
"","","","","","","","","","","","html-keyboard-response","28","2.0.0","111950","65f22e728039424910f7eaa8","2","39","null","","","","","","","","","<p style='font-size: 30px;'><strong>Okay</strong></p>","null","neutral_feedback","0","test","11","","","","","","","",""
"","","","","","","","","","","","html-button-response","29","2.0.0","114031","65f22e728039424910f7eaa8","2","39","2078","","","","","","","","","<img src= ""rock_img/I_Diorite_14.jpg"" style=""width:8cm; height:5.71cm;""><p>What type of rock is this?</p>","1","class_response","0","test","12","Basalt","Diorite","14","false","2","3","",""
"","","","","","","","","","","","html-keyboard-response","30","2.0.0","114533","65f22e728039424910f7eaa8","2","39","null","","","","","","","","","<p style='font-size: 30px;'><strong>Okay</strong></p>","null","neutral_feedback","0","test","12","","","","","","","",""
"","","","","","","","","","","","html-button-response","31","2.0.0","117049","65f22e728039424910f7eaa8","2","39","2513","","","","","","","","","<img src= ""rock_img/I_Andesite_01.jpg"" style=""width:8cm; height:5.87cm;""><p>What type of rock is this?</p>","7","class_response","0","test","13","Pumice","Andesite","01","false","8","1","",""
"","","","","","","","","","","","html-keyboard-response","32","2.0.0","117552","65f22e728039424910f7eaa8","2","39","null","","","","","","","","","<p style='font-size: 30px;'><strong>Okay</strong></p>","null","neutral_feedback","0","test","13","","","","","","","",""
"","","","","","","","","","","","html-button-response","33","2.0.0","119816","65f22e728039424910f7eaa8","2","39","2261","","","","","","","","","<img src= ""rock_img/I_Pegmatite_09.jpg"" style=""width:8cm; height:4.03cm;""><p>What type of rock is this?</p>","6","class_response","0","test","14","Peridotite","Pegmatite","09","false","7","6","",""
"","","","","","","","","","","","html-keyboard-response","34","2.0.0","120319","65f22e728039424910f7eaa8","2","39","null","","","","","","","","","<p style='font-size: 30px;'><strong>Okay</strong></p>","null","neutral_feedback","0","test","14","","","","","","","",""
"","","","","","","","","","","","html-button-response","35","2.0.0","122265","65f22e728039424910f7eaa8","2","39","1944","","","","","","","","","<img src= ""rock_img/I_Pumice_16.jpg"" style=""width:8cm; height:6.79cm;""><p>What type of rock is this?</p>","0","class_response","0","test","15","Andesite","Pumice","16","false","1","8","",""
"","","","","","","","","","","","html-keyboard-response","36","2.0.0","122768","65f22e728039424910f7eaa8","2","39","null","","","","","","","","","<p style='font-size: 30px;'><strong>Okay</strong></p>","null","neutral_feedback","0","test","15","","","","","","","",""
"","","","","","","","","","","","html-button-response","37","2.0.0","124399","65f22e728039424910f7eaa8","2","39","1628","","","","","","","","","<img src= ""rock_img/I_Pumice_03.jpg"" style=""width:8cm; height:6.64cm;""><p>What type of rock is this?</p>","1","class_response","0","test","16","Basalt","Pumice","03","false","2","8","",""
"","","","","","","","","","","","html-keyboard-response","38","2.0.0","124901","65f22e728039424910f7eaa8","2","39","null","","","","","","","","","<p style='font-size: 30px;'><strong>Okay</strong></p>","null","neutral_feedback","0","test","16","","","","","","","",""
"","","","","","","","","","","","html-button-response","39","2.0.0","127267","65f22e728039424910f7eaa8","2","39","2362","","","","","","","","","<img src= ""rock_img/I_Gabbro_05.jpg"" style=""width:8cm; height:6cm;""><p>What type of rock is this?</p>","5","class_response","0","test","17","Pegmatite","Gabbro","05","false","6","4","",""
"","","","","","","","","","","","html-keyboard-response","40","2.0.0","127769","65f22e728039424910f7eaa8","2","39","null","","","","","","","","","<p style='font-size: 30px;'><strong>Okay</strong></p>","null","neutral_feedback","0","test","17","","","","","","","",""
"","","","","","","","","","","","html-button-response","41","2.0.0","130783","65f22e728039424910f7eaa8","2","39","3011","","","","","","","","","<img src= ""rock_img/I_Gabbro_15.jpg"" style=""width:8cm; height:6.29cm;""><p>What type of rock is this?</p>","2","class_response","0","test","18","Diorite","Gabbro","15","false","3","4","",""
"","","","","","","","","","","","html-keyboard-response","42","2.0.0","131285","65f22e728039424910f7eaa8","2","39","null","","","","","","","","","<p style='font-size: 30px;'><strong>Okay</strong></p>","null","neutral_feedback","0","test","18","","","","","","","",""
"","","","","","","","","","","","html-button-response","43","2.0.0","132949","65f22e728039424910f7eaa8","2","39","1662","","","","","","","","","<img src= ""rock_img/I_Andesite_06.jpg"" style=""width:8cm; height:6.840000000000001cm;""><p>What type of rock is this?</p>","1","class_response","0","test","19","Basalt","Andesite","06","false","2","1","",""
"","","","","","","","","","","","html-keyboard-response","44","2.0.0","133452","65f22e728039424910f7eaa8","2","39","null","","","","","","","","","<p style='font-size: 30px;'><strong>Okay</strong></p>","null","neutral_feedback","0","test","19","","","","","","","",""
"","","","","","","","","","","","html-button-response","45","2.0.0","135433","65f22e728039424910f7eaa8","2","39","1978","","","","","","","","","<img src= ""rock_img/I_Gabbro_16.jpg"" style=""width:8cm; height:6.44cm;""><p>What type of rock is this?</p>","7","class_response","0","test","20","Pumice","Gabbro","16","false","8","4","",""
"","","","","","","","","","","","html-keyboard-response","46","2.0.0","135935","65f22e728039424910f7eaa8","2","39","null","","","","","","","","","<p style='font-size: 30px;'><strong>Okay</strong></p>","null","neutral_feedback","0","test","20","","","","","","","",""
"","","","","","","","","","","","html-button-response","47","2.0.0","137216","65f22e728039424910f7eaa8","2","39","1277","","","","","","","","","<img src= ""rock_img/I_Pumice_04.jpg"" style=""width:8cm; height:6.819999999999999cm;""><p>What type of rock is this?</p>","3","class_response","0","test","21","Gabbro","Pumice","04","false","4","8","",""
"","","","","","","","","","","","html-keyboard-response","48","2.0.0","137718","65f22e728039424910f7eaa8","2","39","null","","","","","","","","","<p style='font-size: 30px;'><strong>Okay</strong></p>","null","neutral_feedback","0","test","21","","","","","","","",""
"","","","","","","","","","","","html-button-response","49","2.0.0","139516","65f22e728039424910f7eaa8","2","39","1795","","","","","","","","","<img src= ""rock_img/I_Basalt_02.jpg"" style=""width:8cm; height:6.45cm;""><p>What type of rock is this?</p>","6","class_response","0","test","22","Peridotite","Basalt","02","false","7","2","",""
"","","","","","","","","","","","html-keyboard-response","50","2.0.0","140018","65f22e728039424910f7eaa8","2","39","null","","","","","","","","","<p style='font-size: 30px;'><strong>Okay</strong></p>","null","neutral_feedback","0","test","22","","","","","","","",""
"","","","","","","","","","","","html-button-response","51","2.0.0","141667","65f22e728039424910f7eaa8","2","39","1645","","","","","","","","","<img src= ""rock_img/I_Peridotite_04.jpg"" style=""width:8cm; height:6.680000000000001cm;""><p>What type of rock is this?</p>","2","class_response","0","test","23","Diorite","Peridotite","04","false","3","7","",""
"","","","","","","","","","","","html-keyboard-response","52","2.0.0","142170","65f22e728039424910f7eaa8","2","39","null","","","","","","","","","<p style='font-size: 30px;'><strong>Okay</strong></p>","null","neutral_feedback","0","test","23","","","","","","","",""
"","","","","","","","","","","","html-button-response","53","2.0.0","143866","65f22e728039424910f7eaa8","2","39","1693","","","","","","","","","<img src= ""rock_img/I_Peridotite_15.jpg"" style=""width:8cm; height:6cm;""><p>What type of rock is this?</p>","4","class_response","0","test","24","Obsidian","Peridotite","15","false","5","7","",""
"","","","","","","","","","","","html-keyboard-response","54","2.0.0","144369","65f22e728039424910f7eaa8","2","39","null","","","","","","","","","<p style='font-size: 30px;'><strong>Okay</strong></p>","null","neutral_feedback","0","test","24","","","","","","","",""
"","","","","","","","","","","","html-button-response","55","2.0.0","145818","65f22e728039424910f7eaa8","2","39","1446","","","","","","","","","<img src= ""rock_img/I_Gabbro_12.jpg"" style=""width:8cm; height:7.800000000000001cm;""><p>What type of rock is this?</p>","5","class_response","0","test","25","Pegmatite","Gabbro","12","false","6","4","",""
"","","","","","","","","","","","html-keyboard-response","56","2.0.0","146319","65f22e728039424910f7eaa8","2","39","null","","","","","","","","","<p style='font-size: 30px;'><strong>Okay</strong></p>","null","neutral_feedback","0","test","25","","","","","","","",""
"","","","","","","","","","","","html-button-response","57","2.0.0","151466","65f22e728039424910f7eaa8","2","39","5144","","","","","","","","","<img src= ""rock_img/I_Obsidian_16.jpg"" style=""width:8cm; height:9.3cm;""><p>What type of rock is this?</p>","7","class_response","0","test","26","Pumice","Obsidian","16","false","8","5","",""
"","","","","","","","","","","","html-keyboard-response","58","2.0.0","151968","65f22e728039424910f7eaa8","2","39","null","","","","","","","","","<p style='font-size: 30px;'><strong>Okay</strong></p>","null","neutral_feedback","0","test","26","","","","","","","",""
"","","","","","","","","","","","html-button-response","59","2.0.0","153733","65f22e728039424910f7eaa8","2","39","1762","","","","","","","","","<img src= ""rock_img/I_Basalt_01.jpg"" style=""width:8cm; height:7.880000000000001cm;""><p>What type of rock is this?</p>","2","class_response","0","test","27","Diorite","Basalt","01","false","3","2","",""
"","","","","","","","","","","","html-keyboard-response","60","2.0.0","154235","65f22e728039424910f7eaa8","2","39","null","","","","","","","","","<p style='font-size: 30px;'><strong>Okay</strong></p>","null","neutral_feedback","0","test","27","","","","","","","",""
"","","","","","","","","","","","html-button-response","61","2.0.0","155884","65f22e728039424910f7eaa8","2","39","1646","","","","","","","","","<img src= ""rock_img/I_Basalt_12.jpg"" style=""width:8cm; height:6.010000000000001cm;""><p>What type of rock is this?</p>","0","class_response","0","test","28","Andesite","Basalt","12","false","1","2","",""
"","","","","","","","","","","","html-keyboard-response","62","2.0.0","156386","65f22e728039424910f7eaa8","2","39","null","","","","","","","","","<p style='font-size: 30px;'><strong>Okay</strong></p>","null","neutral_feedback","0","test","28","","","","","","","",""
"","","","","","","","","","","","html-button-response","63","2.0.0","157750","65f22e728039424910f7eaa8","2","39","1360","","","","","","","","","<img src= ""rock_img/I_Obsidian_05.jpg"" style=""width:8cm; height:6.33cm;""><p>What type of rock is this?</p>","1","class_response","0","test","29","Basalt","Obsidian","05","false","2","5","",""
"","","","","","","","","","","","html-keyboard-response","64","2.0.0","158253","65f22e728039424910f7eaa8","2","39","null","","","","","","","","","<p style='font-size: 30px;'><strong>Okay</strong></p>","null","neutral_feedback","0","test","29","","","","","","","",""
"","","","","","","","","","","","html-button-response","65","2.0.0","160217","65f22e728039424910f7eaa8","2","39","1961","","","","","","","","","<img src= ""rock_img/I_Andesite_03.jpg"" style=""width:8cm; height:5.73cm;""><p>What type of rock is this?</p>","3","class_response","0","test","30","Gabbro","Andesite","03","false","4","1","",""
"","","","","","","","","","","","html-keyboard-response","66","2.0.0","160720","65f22e728039424910f7eaa8","2","39","null","","","","","","","","","<p style='font-size: 30px;'><strong>Okay</strong></p>","null","neutral_feedback","0","test","30","","","","","","","",""
"","","","","","","","","","","","html-button-response","67","2.0.0","162567","65f22e728039424910f7eaa8","2","39","1844","","","","","","","","","<img src= ""rock_img/I_Basalt_05.jpg"" style=""width:8cm; height:8.18cm;""><p>What type of rock is this?</p>","4","class_response","0","test","31","Obsidian","Basalt","05","false","5","2","",""
"","","","","","","","","","","","html-keyboard-response","68","2.0.0","163070","65f22e728039424910f7eaa8","2","39","null","","","","","","","","","<p style='font-size: 30px;'><strong>Okay</strong></p>","null","neutral_feedback","0","test","31","","","","","","","",""
"","","","","","","","","","","","html-button-response","69","2.0.0","164851","65f22e728039424910f7eaa8","2","39","1778","","","","","","","","","<img src= ""rock_img/I_Pumice_10.jpg"" style=""width:8cm; height:7.609999999999999cm;""><p>What type of rock is this?</p>","2","class_response","0","test","32","Diorite","Pumice","10","false","3","8","",""
"","","","","","","","","","","","html-keyboard-response","70","2.0.0","165353","65f22e728039424910f7eaa8","2","39","null","","","","","","","","","<p style='font-size: 30px;'><strong>Okay</strong></p>","null","neutral_feedback","0","test","32","","","","","","","",""
"","","","","","","","","","","","html-button-response","71","2.0.0","166800","65f22e728039424910f7eaa8","2","39","1444","","","","","","","","","<img src= ""rock_img/I_Diorite_12.jpg"" style=""width:8cm; height:4.88cm;""><p>What type of rock is this?</p>","1","class_response","0","test","33","Basalt","Diorite","12","false","2","3","",""
"","","","","","","","","","","","html-keyboard-response","72","2.0.0","167303","65f22e728039424910f7eaa8","2","39","null","","","","","","","","","<p style='font-size: 30px;'><strong>Okay</strong></p>","null","neutral_feedback","0","test","33","","","","","","","",""
"","","","","","","","","","","","html-button-response","73","2.0.0","171034","65f22e728039424910f7eaa8","2","39","3728","","","","","","","","","<img src= ""rock_img/I_Pegmatite_11.jpg"" style=""width:8cm; height:8.14cm;""><p>What type of rock is this?</p>","5","class_response","0","test","34","Pegmatite","Pegmatite","11","true","6","6","",""
"","","","","","","","","","","","html-keyboard-response","74","2.0.0","171537","65f22e728039424910f7eaa8","2","39","null","","","","","","","","","<p style='font-size: 30px;'><strong>Okay</strong></p>","null","neutral_feedback","0","test","34","","","","","","","",""
"","","","","","","","","","","","html-button-response","75","2.0.0","172967","65f22e728039424910f7eaa8","2","39","1427","","","","","","","","","<img src= ""rock_img/I_Diorite_15.jpg"" style=""width:8cm; height:5.54cm;""><p>What type of rock is this?</p>","0","class_response","0","test","35","Andesite","Diorite","15","false","1","3","",""
"","","","","","","","","","","","html-keyboard-response","76","2.0.0","173469","65f22e728039424910f7eaa8","2","39","null","","","","","","","","","<p style='font-size: 30px;'><strong>Okay</strong></p>","null","neutral_feedback","0","test","35","","","","","","","",""
"","","","","","","","","","","","html-button-response","77","2.0.0","175002","65f22e728039424910f7eaa8","2","39","1531","","","","","","","","","<img src= ""rock_img/I_Obsidian_11.jpg"" style=""width:8cm; height:6.05cm;""><p>What type of rock is this?</p>","3","class_response","0","test","36","Gabbro","Obsidian","11","false","4","5","",""
"","","","","","","","","","","","html-keyboard-response","78","2.0.0","175503","65f22e728039424910f7eaa8","2","39","null","","","","","","","","","<p style='font-size: 30px;'><strong>Okay</strong></p>","null","neutral_feedback","0","test","36","","","","","","","",""
"","","","","","","","","","","","html-button-response","79","2.0.0","176852","65f22e728039424910f7eaa8","2","39","1346","","","","","","","","","<img src= ""rock_img/I_Andesite_10.jpg"" style=""width:8cm; height:4.16cm;""><p>What type of rock is this?</p>","2","class_response","0","test","37","Diorite","Andesite","10","false","3","1","",""
"","","","","","","","","","","","html-keyboard-response","80","2.0.0","177354","65f22e728039424910f7eaa8","2","39","null","","","","","","","","","<p style='font-size: 30px;'><strong>Okay</strong></p>","null","neutral_feedback","0","test","37","","","","","","","",""
"","","","","","","","","","","","html-button-response","81","2.0.0","178802","65f22e728039424910f7eaa8","2","39","1445","","","","","","","","","<img src= ""rock_img/I_Basalt_16.jpg"" style=""width:8cm; height:7.659999999999999cm;""><p>What type of rock is this?</p>","6","class_response","0","test","38","Peridotite","Basalt","16","false","7","2","",""
"","","","","","","","","","","","html-keyboard-response","82","2.0.0","179304","65f22e728039424910f7eaa8","2","39","null","","","","","","","","","<p style='font-size: 30px;'><strong>Okay</strong></p>","null","neutral_feedback","0","test","38","","","","","","","",""
"","","","","","","","","","","","html-button-response","83","2.0.0","183250","65f22e728039424910f7eaa8","2","39","3943","","","","","","","","","<img src= ""rock_img/I_Obsidian_10.jpg"" style=""width:8cm; height:6.260000000000001cm;""><p>What type of rock is this?</p>","4","class_response","0","test","39","Obsidian","Obsidian","10","true","5","5","",""
"","","","","","","","","","","","html-keyboard-response","84","2.0.0","183752","65f22e728039424910f7eaa8","2","39","null","","","","","","","","","<p style='font-size: 30px;'><strong>Okay</strong></p>","null","neutral_feedback","0","test","39","","","","","","","",""
"","","","","","","","","","","","html-button-response","85","2.0.0","185301","65f22e728039424910f7eaa8","2","39","1547","","","","","","","","","<img src= ""rock_img/I_Obsidian_14.jpg"" style=""width:8cm; height:7.64cm;""><p>What type of rock is this?</p>","3","class_response","0","test","40","Gabbro","Obsidian","14","false","4","5","",""
"","","","","","","","","","","","html-keyboard-response","86","2.0.0","185803","65f22e728039424910f7eaa8","2","39","null","","","","","","","","","<p style='font-size: 30px;'><strong>Okay</strong></p>","null","neutral_feedback","0","test","40","","","","","","","",""
"","","","","","","","","","","","html-button-response","87","2.0.0","186767","65f22e728039424910f7eaa8","2","39","960","","","","","","","","","<img src= ""rock_img/I_Basalt_06.jpg"" style=""width:8cm; height:7.06cm;""><p>What type of rock is this?</p>","3","class_response","0","test","41","Gabbro","Basalt","06","false","4","2","",""
"","","","","","","","","","","","html-keyboard-response","88","2.0.0","187269","65f22e728039424910f7eaa8","2","39","null","","","","","","","","","<p style='font-size: 30px;'><strong>Okay</strong></p>","null","neutral_feedback","0","test","41","","","","","","","",""
"","","","","","","","","","","","html-button-response","89","2.0.0","188483","65f22e728039424910f7eaa8","2","39","1211","","","","","","","","","<img src= ""rock_img/I_Pegmatite_08.jpg"" style=""width:8cm; height:7.68cm;""><p>What type of rock is this?</p>","2","class_response","0","test","42","Diorite","Pegmatite","08","false","3","6","",""
"","","","","","","","","","","","html-keyboard-response","90","2.0.0","188985","65f22e728039424910f7eaa8","2","39","null","","","","","","","","","<p style='font-size: 30px;'><strong>Okay</strong></p>","null","neutral_feedback","0","test","42","","","","","","","",""
"","","","","","","","","","","","html-button-response","91","2.0.0","190667","65f22e728039424910f7eaa8","2","39","1678","","","","","","","","","<img src= ""rock_img/I_Peridotite_07.jpg"" style=""width:8cm; height:4.83cm;""><p>What type of rock is this?</p>","0","class_response","0","test","43","Andesite","Peridotite","07","false","1","7","",""
"","","","","","","","","","","","html-keyboard-response","92","2.0.0","191168","65f22e728039424910f7eaa8","2","39","null","","","","","","","","","<p style='font-size: 30px;'><strong>Okay</strong></p>","null","neutral_feedback","0","test","43","","","","","","","",""
"","","","","","","","","","","","html-button-response","93","2.0.0","192432","65f22e728039424910f7eaa8","2","39","1261","","","","","","","","","<img src= ""rock_img/I_Peridotite_02.jpg"" style=""width:8cm; height:5.859999999999999cm;""><p>What type of rock is this?</p>","5","class_response","0","test","44","Pegmatite","Peridotite","02","false","6","7","",""
"","","","","","","","","","","","html-keyboard-response","94","2.0.0","192933","65f22e728039424910f7eaa8","2","39","null","","","","","","","","","<p style='font-size: 30px;'><strong>Okay</strong></p>","null","neutral_feedback","0","test","44","","","","","","","",""
"","","","","","","","","","","","html-button-response","95","2.0.0","194766","65f22e728039424910f7eaa8","2","39","1831","","","","","","","","","<img src= ""rock_img/I_Gabbro_01.jpg"" style=""width:8cm; height:5.21cm;""><p>What type of rock is this?</p>","6","class_response","0","test","45","Peridotite","Gabbro","01","false","7","4","",""
"","","","","","","","","","","","html-keyboard-response","96","2.0.0","195269","65f22e728039424910f7eaa8","2","39","null","","","","","","","","","<p style='font-size: 30px;'><strong>Okay</strong></p>","null","neutral_feedback","0","test","45","","","","","","","",""
"","","","","","","","","","","","html-button-response","97","2.0.0","196583","65f22e728039424910f7eaa8","2","39","1311","","","","","","","","","<img src= ""rock_img/I_Obsidian_08.jpg"" style=""width:8cm; height:7.39cm;""><p>What type of rock is this?</p>","3","class_response","0","test","46","Gabbro","Obsidian","08","false","4","5","",""
"","","","","","","","","","","","html-keyboard-response","98","2.0.0","197084","65f22e728039424910f7eaa8","2","39","null","","","","","","","","","<p style='font-size: 30px;'><strong>Okay</strong></p>","null","neutral_feedback","0","test","46","","","","","","","",""
"","","","","","","","","","","","html-button-response","99","2.0.0","198716","65f22e728039424910f7eaa8","2","39","1630","","","","","","","","","<img src= ""rock_img/I_Andesite_16.jpg"" style=""width:8cm; height:6.010000000000001cm;""><p>What type of rock is this?</p>","2","class_response","0","test","47","Diorite","Andesite","16","false","3","1","",""
"","","","","","","","","","","","html-keyboard-response","100","2.0.0","199218","65f22e728039424910f7eaa8","2","39","null","","","","","","","","","<p style='font-size: 30px;'><strong>Okay</strong></p>","null","neutral_feedback","0","test","47","","","","","","","",""
"","","","","","","","","","","","html-button-response","101","2.0.0","200367","65f22e728039424910f7eaa8","2","39","1147","","","","","","","","","<img src= ""rock_img/I_Peridotite_06.jpg"" style=""width:8cm; height:7.53cm;""><p>What type of rock is this?</p>","7","class_response","0","test","48","Pumice","Peridotite","06","false","8","7","",""
"","","","","","","","","","","","html-keyboard-response","102","2.0.0","200870","65f22e728039424910f7eaa8","2","39","null","","","","","","","","","<p style='font-size: 30px;'><strong>Okay</strong></p>","null","neutral_feedback","0","test","48","","","","","","","",""
"","","","","","","","","","","","instructions","103","2.0.0","241883","65f22e728039424910f7eaa8","2","39","40984","","","","","","","","[{""page_index"":0,""viewing_time"":32369},{""page_index"":1,""viewing_time"":5681},{""page_index"":2,""viewing_time"":2934}]","","","","","","","","","","","","","",""
"","","","","","","","","","","","html-button-response","104","2.0.0","245084","65f22e728039424910f7eaa8","2","39","3199","","","","","","","","","","0","start_train","","","","","","","","","","",""
"","","","","","","","","","","","html-button-response","105","2.0.0","250000","65f22e728039424910f7eaa8","2","39","4912","","","","","","","","","<img src= ""rock_img/I_Basalt_11.jpg"" style=""width:8cm; height:5.359999999999999cm;""><p>What type of rock is this?</p>","5","class_response","1","train","1","Pegmatite","Basalt","11","false","6","2","",""
"","","","","","","","","","","","html-button-response","106","2.0.0","251532","65f22e728039424910f7eaa8","2","39","1529","","","","","","","","","<img src= rock_img/I_Basalt_11.jpg style=""width:8cm; height:5.359999999999999cm;""><p style='font-size: 30px; color: red;'><strong>Incorrect!</strong></p><p style='font-size: 30px;'><strong>This rock is basalt</strong></p>","0","corr_feedback","1","train","1","","","","","","","",""
"","","","","","","","","","","","html-button-response","107","2.0.0","253666","65f22e728039424910f7eaa8","2","39","2132","","","","","","","","","<img src= ""rock_img/I_Diorite_11.jpg"" style=""width:8cm; height:7.11cm;""><p>What type of rock is this?</p>","2","class_response","1","train","2","Diorite","Diorite","11","true","3","3","",""
"","","","","","","","","","","","html-button-response","108","2.0.0","256517","65f22e728039424910f7eaa8","2","39","2849","","","","","","","","","<img src= rock_img/I_Diorite_11.jpg style=""width:8cm; height:7.11cm;""><p style='font-size: 30px; color: green;'><strong>Correct!</strong></p><p style='font-size: 30px;'><strong>This rock is diorite</strong></p>","0","corr_feedback","1","train","2","","","","","","","",""
"","","","","","","","","","","","html-button-response","109","2.0.0","259349","65f22e728039424910f7eaa8","2","39","2829","","","","","","","","","<img src= ""rock_img/I_Diorite_09.jpg"" style=""width:8cm; height:5.27cm;""><p>What type of rock is this?</p>","0","class_response","1","train","3","Andesite","Diorite","09","false","1","3","",""
"","","","","","","","","","","","html-button-response","110","2.0.0","261068","65f22e728039424910f7eaa8","2","39","1716","","","","","","","","","<img src= rock_img/I_Diorite_09.jpg style=""width:8cm; height:5.27cm;""><p style='font-size: 30px; color: red;'><strong>Incorrect!</strong></p><p style='font-size: 30px;'><strong>This rock is diorite</strong></p>","0","corr_feedback","1","train","3","","","","","","","",""
"","","","","","","","","","","","html-button-response","111","2.0.0","263817","65f22e728039424910f7eaa8","2","39","2746","","","","","","","","","<img src= ""rock_img/I_Basalt_10.jpg"" style=""width:8cm; height:5.85cm;""><p>What type of rock is this?</p>","7","class_response","1","train","4","Pumice","Basalt","10","false","8","2","",""
"","","","","","","","","","","","html-button-response","112","2.0.0","265100","65f22e728039424910f7eaa8","2","39","1280","","","","","","","","","<img src= rock_img/I_Basalt_10.jpg style=""width:8cm; height:5.85cm;""><p style='font-size: 30px; color: red;'><strong>Incorrect!</strong></p><p style='font-size: 30px;'><strong>This rock is basalt</strong></p>","0","corr_feedback","1","train","4","","","","","","","",""
"","","","","","","","","","","","html-button-response","113","2.0.0","268369","65f22e728039424910f7eaa8","2","39","3267","","","","","","","","","<img src= ""rock_img/I_Basalt_14.jpg"" style=""width:8cm; height:5.82cm;""><p>What type of rock is this?</p>","3","class_response","1","train","5","Gabbro","Basalt","14","false","4","2","",""
"","","","","","","","","","","","html-button-response","114","2.0.0","269684","65f22e728039424910f7eaa8","2","39","1313","","","","","","","","","<img src= rock_img/I_Basalt_14.jpg style=""width:8cm; height:5.82cm;""><p style='font-size: 30px; color: red;'><strong>Incorrect!</strong></p><p style='font-size: 30px;'><strong>This rock is basalt</strong></p>","0","corr_feedback","1","train","5","","","","","","","",""
"","","","","","","","","","","","html-button-response","115","2.0.0","273551","65f22e728039424910f7eaa8","2","39","3864","","","","","","","","","<img src= ""rock_img/I_Peridotite_12.jpg"" style=""width:8cm; height:4.54cm;""><p>What type of rock is this?</p>","2","class_response","1","train","6","Diorite","Peridotite","12","false","3","7","",""
"","","","","","","","","","","","html-button-response","116","2.0.0","274819","65f22e728039424910f7eaa8","2","39","1265","","","","","","","","","<img src= rock_img/I_Peridotite_12.jpg style=""width:8cm; height:4.54cm;""><p style='font-size: 30px; color: red;'><strong>Incorrect!</strong></p><p style='font-size: 30px;'><strong>This rock is peridotite</strong></p>","0","corr_feedback","1","train","6","","","","","","","",""
"","","","","","","","","","","","html-button-response","117","2.0.0","277852","65f22e728039424910f7eaa8","2","39","3031","","","","","","","","","<img src= ""rock_img/I_Gabbro_08.jpg"" style=""width:8cm; height:5.15cm;""><p>What type of rock is this?</p>","5","class_response","1","train","7","Pegmatite","Gabbro","08","false","6","4","",""
"","","","","","","","","","","","html-button-response","118","2.0.0","279051","65f22e728039424910f7eaa8","2","39","1197","","","","","","","","","<img src= rock_img/I_Gabbro_08.jpg style=""width:8cm; height:5.15cm;""><p style='font-size: 30px; color: red;'><strong>Incorrect!</strong></p><p style='font-size: 30px;'><strong>This rock is gabbro</strong></p>","0","corr_feedback","1","train","7","","","","","","","",""
"","","","","","","","","","","","html-button-response","119","2.0.0","281251","65f22e728039424910f7eaa8","2","39","2197","","","","","","","","","<img src= ""rock_img/I_Obsidian_04.jpg"" style=""width:8cm; height:6.930000000000001cm;""><p>What type of rock is this?</p>","7","class_response","1","train","8","Pumice","Obsidian","04","false","8","5","",""
"","","","","","","","","","","","html-button-response","120","2.0.0","282633","65f22e728039424910f7eaa8","2","39","1380","","","","","","","","","<img src= rock_img/I_Obsidian_04.jpg style=""width:8cm; height:6.930000000000001cm;""><p style='font-size: 30px; color: red;'><strong>Incorrect!</strong></p><p style='font-size: 30px;'><strong>This rock is obsidian</strong></p>","0","corr_feedback","1","train","8","","","","","","","",""
"","","","","","","","","","","","html-button-response","121","2.0.0","284118","65f22e728039424910f7eaa8","2","39","1482","","","","","","","","","<img src= ""rock_img/I_Obsidian_07.jpg"" style=""width:8cm; height:4.76cm;""><p>What type of rock is this?</p>","4","class_response","1","train","9","Obsidian","Obsidian","07","true","5","5","",""
"","","","","","","","","","","","html-button-response","122","2.0.0","285500","65f22e728039424910f7eaa8","2","39","1380","","","","","","","","","<img src= rock_img/I_Obsidian_07.jpg style=""width:8cm; height:4.76cm;""><p style='font-size: 30px; color: green;'><strong>Correct!</strong></p><p style='font-size: 30px;'><strong>This rock is obsidian</strong></p>","0","corr_feedback","1","train","9","","","","","","","",""
"","","","","","","","","","","","html-button-response","123","2.0.0","288451","65f22e728039424910f7eaa8","2","39","2949","","","","","","","","","<img src= ""rock_img/I_Pumice_13.jpg"" style=""width:8cm; height:8.200000000000001cm;""><p>What type of rock is this?</p>","0","class_response","1","train","10","Andesite","Pumice","13","false","1","8","",""
"","","","","","","","","","","","html-button-response","124","2.0.0","289567","65f22e728039424910f7eaa8","2","39","1113","","","","","","","","","<img src= rock_img/I_Pumice_13.jpg style=""width:8cm; height:8.200000000000001cm;""><p style='font-size: 30px; color: red;'><strong>Incorrect!</strong></p><p style='font-size: 30px;'><strong>This rock is pumice</strong></p>","0","corr_feedback","1","train","10","","","","","","","",""
"","","","","","","","","","","","html-button-response","125","2.0.0","292300","65f22e728039424910f7eaa8","2","39","2731","","","","","","","","","<img src= ""rock_img/I_Andesite_07.jpg"" style=""width:8cm; height:5.93cm;""><p>What type of rock is this?</p>","1","class_response","1","train","11","Basalt","Andesite","07","false","2","1","",""
"","","","","","","","","","","","html-button-response","126","2.0.0","293334","65f22e728039424910f7eaa8","2","39","1031","","","","","","","","","<img src= rock_img/I_Andesite_07.jpg style=""width:8cm; height:5.93cm;""><p style='font-size: 30px; color: red;'><strong>Incorrect!</strong></p><p style='font-size: 30px;'><strong>This rock is andesite</strong></p>","0","corr_feedback","1","train","11","","","","","","","",""
"","","","","","","","","","","","html-button-response","127","2.0.0","294836","65f22e728039424910f7eaa8","2","39","1500","","","","","","","","","<img src= ""rock_img/I_Gabbro_11.jpg"" style=""width:8cm; height:6.2cm;""><p>What type of rock is this?</p>","2","class_response","1","train","12","Diorite","Gabbro","11","false","3","4","",""
"","","","","","","","","","","","html-button-response","128","2.0.0","295850","65f22e728039424910f7eaa8","2","39","1012","","","","","","","","","<img src= rock_img/I_Gabbro_11.jpg style=""width:8cm; height:6.2cm;""><p style='font-size: 30px; color: red;'><strong>Incorrect!</strong></p><p style='font-size: 30px;'><strong>This rock is gabbro</strong></p>","0","corr_feedback","1","train","12","","","","","","","",""
"","","","","","","","","","","","html-button-response","129","2.0.0","297251","65f22e728039424910f7eaa8","2","39","1398","","","","","","","","","<img src= ""rock_img/I_Peridotite_13.jpg"" style=""width:8cm; height:7.58cm;""><p>What type of rock is this?</p>","5","class_response","1","train","13","Pegmatite","Peridotite","13","false","6","7","",""
"","","","","","","","","","","","html-button-response","130","2.0.0","298201","65f22e728039424910f7eaa8","2","39","947","","","","","","","","","<img src= rock_img/I_Peridotite_13.jpg style=""width:8cm; height:7.58cm;""><p style='font-size: 30px; color: red;'><strong>Incorrect!</strong></p><p style='font-size: 30px;'><strong>This rock is peridotite</strong></p>","0","corr_feedback","1","train","13","","","","","","","",""
"","","","","","","","","","","","html-button-response","131","2.0.0","300234","65f22e728039424910f7eaa8","2","39","2031","","","","","","","","","<img src= ""rock_img/I_Andesite_04.jpg"" style=""width:8cm; height:5.96cm;""><p>What type of rock is this?</p>","7","class_response","1","train","14","Pumice","Andesite","04","false","8","1","",""
"","","","","","","","","","","","html-button-response","132","2.0.0","301285","65f22e728039424910f7eaa8","2","39","1048","","","","","","","","","<img src= rock_img/I_Andesite_04.jpg style=""width:8cm; height:5.96cm;""><p style='font-size: 30px; color: red;'><strong>Incorrect!</strong></p><p style='font-size: 30px;'><strong>This rock is andesite</strong></p>","0","corr_feedback","1","train","14","","","","","","","",""
"","","","","","","","","","","","html-button-response","133","2.0.0","303251","65f22e728039424910f7eaa8","2","39","1963","","","","","","","","","<img src= ""rock_img/I_Basalt_08.jpg"" style=""width:8cm; height:10.44cm;""><p>What type of rock is this?</p>","4","class_response","1","train","15","Obsidian","Basalt","08","false","5","2","",""
"","","","","","","","","","","","html-button-response","134","2.0.0","304600","65f22e728039424910f7eaa8","2","39","1347","","","","","","","","","<img src= rock_img/I_Basalt_08.jpg style=""width:8cm; height:10.44cm;""><p style='font-size: 30px; color: red;'><strong>Incorrect!</strong></p><p style='font-size: 30px;'><strong>This rock is basalt</strong></p>","0","corr_feedback","1","train","15","","","","","","","",""
"","","","","","","","","","","","html-button-response","135","2.0.0","306951","65f22e728039424910f7eaa8","2","39","2349","","","","","","","","","<img src= ""rock_img/I_Gabbro_10.jpg"" style=""width:8cm; height:5.680000000000001cm;""><p>What type of rock is this?</p>","0","class_response","1","train","16","Andesite","Gabbro","10","false","1","4","",""
"","","","","","","","","","","","html-button-response","136","2.0.0","308117","65f22e728039424910f7eaa8","2","39","1164","","","","","","","","","<img src= rock_img/I_Gabbro_10.jpg style=""width:8cm; height:5.680000000000001cm;""><p style='font-size: 30px; color: red;'><strong>Incorrect!</strong></p><p style='font-size: 30px;'><strong>This rock is gabbro</strong></p>","0","corr_feedback","1","train","16","","","","","","","",""
"","","","","","","","","","","","html-button-response","137","2.0.0","309384","65f22e728039424910f7eaa8","2","39","1264","","","","","","","","","<img src= ""rock_img/I_Gabbro_03.jpg"" style=""width:8cm; height:8.52cm;""><p>What type of rock is this?</p>","3","class_response","1","train","17","Gabbro","Gabbro","03","true","4","4","",""
"","","","","","","","","","","","html-button-response","138","2.0.0","310650","65f22e728039424910f7eaa8","2","39","1265","","","","","","","","","<img src= rock_img/I_Gabbro_03.jpg style=""width:8cm; height:8.52cm;""><p style='font-size: 30px; color: green;'><strong>Correct!</strong></p><p style='font-size: 30px;'><strong>This rock is gabbro</strong></p>","0","corr_feedback","1","train","17","","","","","","","",""
"","","","","","","","","","","","html-button-response","139","2.0.0","312018","65f22e728039424910f7eaa8","2","39","1365","","","","","","","","","<img src= ""rock_img/I_Obsidian_09.jpg"" style=""width:8cm; height:5cm;""><p>What type of rock is this?</p>","4","class_response","1","train","18","Obsidian","Obsidian","09","true","5","5","",""
"","","","","","","","","","","","html-button-response","140","2.0.0","314752","65f22e728039424910f7eaa8","2","39","2731","","","","","","","","","<img src= rock_img/I_Obsidian_09.jpg style=""width:8cm; height:5cm;""><p style='font-size: 30px; color: green;'><strong>Correct!</strong></p><p style='font-size: 30px;'><strong>This rock is obsidian</strong></p>","0","corr_feedback","1","train","18","","","","","","","",""
"","","","","","","","","","","","html-button-response","141","2.0.0","316601","65f22e728039424910f7eaa8","2","39","1847","","","","","","","","","<img src= ""rock_img/I_Diorite_16.jpg"" style=""width:8cm; height:6.74cm;""><p>What type of rock is this?</p>","2","class_response","1","train","19","Diorite","Diorite","16","true","3","3","",""
"","","","","","","","","","","","html-button-response","142","2.0.0","318053","65f22e728039424910f7eaa8","2","39","1450","","","","","","","","","<img src= rock_img/I_Diorite_16.jpg style=""width:8cm; height:6.74cm;""><p style='font-size: 30px; color: green;'><strong>Correct!</strong></p><p style='font-size: 30px;'><strong>This rock is diorite</strong></p>","0","corr_feedback","1","train","19","","","","","","","",""
"","","","","","","","","","","","html-button-response","143","2.0.0","320435","65f22e728039424910f7eaa8","2","39","2379","","","","","","","","","<img src= ""rock_img/I_Pegmatite_05.jpg"" style=""width:8cm; height:7.300000000000001cm;""><p>What type of rock is this?</p>","7","class_response","1","train","20","Pumice","Pegmatite","05","false","8","6","",""
"","","","","","","","","","","","html-button-response","144","2.0.0","321534","65f22e728039424910f7eaa8","2","39","1097","","","","","","","","","<img src= rock_img/I_Pegmatite_05.jpg style=""width:8cm; height:7.300000000000001cm;""><p style='font-size: 30px; color: red;'><strong>Incorrect!</strong></p><p style='font-size: 30px;'><strong>This rock is pegmatite</strong></p>","0","corr_feedback","1","train","20","","","","","","","",""
"","","","","","","","","","","","html-button-response","145","2.0.0","322987","65f22e728039424910f7eaa8","2","39","1450","","","","","","","","","<img src= ""rock_img/I_Diorite_08.jpg"" style=""width:8cm; height:6.37cm;""><p>What type of rock is this?</p>","5","class_response","1","train","21","Pegmatite","Diorite","08","false","6","3","",""
"","","","","","","","","","","","html-button-response","146","2.0.0","323951","65f22e728039424910f7eaa8","2","39","962","","","","","","","","","<img src= rock_img/I_Diorite_08.jpg style=""width:8cm; height:6.37cm;""><p style='font-size: 30px; color: red;'><strong>Incorrect!</strong></p><p style='font-size: 30px;'><strong>This rock is diorite</strong></p>","0","corr_feedback","1","train","21","","","","","","","",""
"","","","","","","","","","","","html-button-response","147","2.0.0","325451","65f22e728039424910f7eaa8","2","39","1497","","","","","","","","","<img src= ""rock_img/I_Diorite_02.jpg"" style=""width:8cm; height:6.27cm;""><p>What type of rock is this?</p>","2","class_response","1","train","22","Diorite","Diorite","02","true","3","3","",""
"","","","","","","","","","","","html-button-response","148","2.0.0","326502","65f22e728039424910f7eaa8","2","39","1048","","","","","","","","","<img src= rock_img/I_Diorite_02.jpg style=""width:8cm; height:6.27cm;""><p style='font-size: 30px; color: green;'><strong>Correct!</strong></p><p style='font-size: 30px;'><strong>This rock is diorite</strong></p>","0","corr_feedback","1","train","22","","","","","","","",""
"","","","","","","","","","","","html-button-response","149","2.0.0","328218","65f22e728039424910f7eaa8","2","39","1713","","","","","","","","","<img src= ""rock_img/I_Pumice_09.jpg"" style=""width:8cm; height:6.44cm;""><p>What type of rock is this?</p>","0","class_response","1","train","23","Andesite","Pumice","09","false","1","8","",""
"","","","","","","","","","","","html-button-response","150","2.0.0","329302","65f22e728039424910f7eaa8","2","39","1082","","","","","","","","","<img src= rock_img/I_Pumice_09.jpg style=""width:8cm; height:6.44cm;""><p style='font-size: 30px; color: red;'><strong>Incorrect!</strong></p><p style='font-size: 30px;'><strong>This rock is pumice</strong></p>","0","corr_feedback","1","train","23","","","","","","","",""
"","","","","","","","","","","","html-button-response","151","2.0.0","330519","65f22e728039424910f7eaa8","2","39","1215","","","","","","","","","<img src= ""rock_img/I_Pumice_02.jpg"" style=""width:8cm; height:7.3999999999999995cm;""><p>What type of rock is this?</p>","7","class_response","1","train","24","Pumice","Pumice","02","true","8","8","",""
"","","","","","","","","","","","html-button-response","152","2.0.0","331551","65f22e728039424910f7eaa8","2","39","1030","","","","","","","","","<img src= rock_img/I_Pumice_02.jpg style=""width:8cm; height:7.3999999999999995cm;""><p style='font-size: 30px; color: green;'><strong>Correct!</strong></p><p style='font-size: 30px;'><strong>This rock is pumice</strong></p>","0","corr_feedback","1","train","24","","","","","","","",""
"","","","","","","","","","","","html-button-response","153","2.0.0","335169","65f22e728039424910f7eaa8","2","39","3615","","","","","","","","","<img src= ""rock_img/I_Pumice_05.jpg"" style=""width:8cm; height:7.25cm;""><p>What type of rock is this?</p>","1","class_response","1","train","25","Basalt","Pumice","05","false","2","8","",""
"","","","","","","","","","","","html-button-response","154","2.0.0","336218","65f22e728039424910f7eaa8","2","39","1047","","","","","","","","","<img src= rock_img/I_Pumice_05.jpg style=""width:8cm; height:7.25cm;""><p style='font-size: 30px; color: red;'><strong>Incorrect!</strong></p><p style='font-size: 30px;'><strong>This rock is pumice</strong></p>","0","corr_feedback","1","train","25","","","","","","","",""
"","","","","","","","","","","","html-button-response","155","2.0.0","338568","65f22e728039424910f7eaa8","2","39","2348","","","","","","","","","<img src= ""rock_img/I_Andesite_09.jpg"" style=""width:8cm; height:6cm;""><p>What type of rock is this?</p>","1","class_response","1","train","26","Basalt","Andesite","09","false","2","1","",""
"","","","","","","","","","","","html-button-response","156","2.0.0","339551","65f22e728039424910f7eaa8","2","39","981","","","","","","","","","<img src= rock_img/I_Andesite_09.jpg style=""width:8cm; height:6cm;""><p style='font-size: 30px; color: red;'><strong>Incorrect!</strong></p><p style='font-size: 30px;'><strong>This rock is andesite</strong></p>","0","corr_feedback","1","train","26","","","","","","","",""
"","","","","","","","","","","","html-button-response","157","2.0.0","341901","65f22e728039424910f7eaa8","2","39","2348","","","","","","","","","<img src= ""rock_img/I_Pegmatite_03.jpg"" style=""width:8cm; height:5.239999999999999cm;""><p>What type of rock is this?</p>","0","class_response","1","train","27","Andesite","Pegmatite","03","false","1","6","",""
"","","","","","","","","","","","html-button-response","158","2.0.0","342934","65f22e728039424910f7eaa8","2","39","1031","","","","","","","","","<img src= rock_img/I_Pegmatite_03.jpg style=""width:8cm; height:5.239999999999999cm;""><p style='font-size: 30px; color: red;'><strong>Incorrect!</strong></p><p style='font-size: 30px;'><strong>This rock is pegmatite</strong></p>","0","corr_feedback","1","train","27","","","","","","","",""
"","","","","","","","","","","","html-button-response","159","2.0.0","344501","65f22e728039424910f7eaa8","2","39","1564","","","","","","","","","<img src= ""rock_img/I_Basalt_04.jpg"" style=""width:8cm; height:7.53cm;""><p>What type of rock is this?</p>","4","class_response","1","train","28","Obsidian","Basalt","04","false","5","2","",""
"","","","","","","","","","","","html-button-response","160","2.0.0","345535","65f22e728039424910f7eaa8","2","39","1032","","","","","","","","","<img src= rock_img/I_Basalt_04.jpg style=""width:8cm; height:7.53cm;""><p style='font-size: 30px; color: red;'><strong>Incorrect!</strong></p><p style='font-size: 30px;'><strong>This rock is basalt</strong></p>","0","corr_feedback","1","train","28","","","","","","","",""
"","","","","","","","","","","","html-button-response","161","2.0.0","347135","65f22e728039424910f7eaa8","2","39","1597","","","","","","","","","<img src= ""rock_img/I_Gabbro_14.jpg"" style=""width:8cm; height:8.48cm;""><p>What type of rock is this?</p>","1","class_response","1","train","29","Basalt","Gabbro","14","false","2","4","",""
"","","","","","","","","","","","html-button-response","162","2.0.0","348117","65f22e728039424910f7eaa8","2","39","980","","","","","","","","","<img src= rock_img/I_Gabbro_14.jpg style=""width:8cm; height:8.48cm;""><p style='font-size: 30px; color: red;'><strong>Incorrect!</strong></p><p style='font-size: 30px;'><strong>This rock is gabbro</strong></p>","0","corr_feedback","1","train","29","","","","","","","",""
"","","","","","","","","","","","html-button-response","163","2.0.0","349968","65f22e728039424910f7eaa8","2","39","1848","","","","","","","","","<img src= ""rock_img/I_Andesite_02.jpg"" style=""width:8cm; height:8.5cm;""><p>What type of rock is this?</p>","3","class_response","1","train","30","Gabbro","Andesite","02","false","4","1","",""
"","","","","","","","","","","","html-button-response","164","2.0.0","350901","65f22e728039424910f7eaa8","2","39","931","","","","","","","","","<img src= rock_img/I_Andesite_02.jpg style=""width:8cm; height:8.5cm;""><p style='font-size: 30px; color: red;'><strong>Incorrect!</strong></p><p style='font-size: 30px;'><strong>This rock is andesite</strong></p>","0","corr_feedback","1","train","30","","","","","","","",""
"","","","","","","","","","","","html-button-response","165","2.0.0","354435","65f22e728039424910f7eaa8","2","39","3531","","","","","","","","","<img src= ""rock_img/I_Diorite_07.jpg"" style=""width:8cm; height:5.239999999999999cm;""><p>What type of rock is this?</p>","5","class_response","1","train","31","Pegmatite","Diorite","07","false","6","3","",""
"","","","","","","","","","","","html-button-response","166","2.0.0","355403","65f22e728039424910f7eaa8","2","39","966","","","","","","","","","<img src= rock_img/I_Diorite_07.jpg style=""width:8cm; height:5.239999999999999cm;""><p style='font-size: 30px; color: red;'><strong>Incorrect!</strong></p><p style='font-size: 30px;'><strong>This rock is diorite</strong></p>","0","corr_feedback","1","train","31","","","","","","","",""
"","","","","","","","","","","","html-button-response","167","2.0.0","357885","65f22e728039424910f7eaa8","2","39","2479","","","","","","","","","<img src= ""rock_img/I_Peridotite_14.jpg"" style=""width:8cm; height:5.3cm;""><p>What type of rock is this?</p>","5","class_response","1","train","32","Pegmatite","Peridotite","14","false","6","7","",""
"","","","","","","","","","","","html-button-response","168","2.0.0","358735","65f22e728039424910f7eaa8","2","39","847","","","","","","","","","<img src= rock_img/I_Peridotite_14.jpg style=""width:8cm; height:5.3cm;""><p style='font-size: 30px; color: red;'><strong>Incorrect!</strong></p><p style='font-size: 30px;'><strong>This rock is peridotite</strong></p>","0","corr_feedback","1","train","32","","","","","","","",""
"","","","","","","","","","","","html-button-response","169","2.0.0","361068","65f22e728039424910f7eaa8","2","39","2330","","","","","","","","","<img src= ""rock_img/I_Pegmatite_15.jpg"" style=""width:8cm; height:6cm;""><p>What type of rock is this?</p>","7","class_response","1","train","33","Pumice","Pegmatite","15","false","8","6","",""
"","","","","","","","","","","","html-button-response","170","2.0.0","362117","65f22e728039424910f7eaa8","2","39","1047","","","","","","","","","<img src= rock_img/I_Pegmatite_15.jpg style=""width:8cm; height:6cm;""><p style='font-size: 30px; color: red;'><strong>Incorrect!</strong></p><p style='font-size: 30px;'><strong>This rock is pegmatite</strong></p>","0","corr_feedback","1","train","33","","","","","","","",""
"","","","","","","","","","","","html-button-response","171","2.0.0","363335","65f22e728039424910f7eaa8","2","39","1215","","","","","","","","","<img src= ""rock_img/I_Obsidian_12.jpg"" style=""width:8cm; height:6.53cm;""><p>What type of rock is this?</p>","4","class_response","1","train","34","Obsidian","Obsidian","12","true","5","5","",""
"","","","","","","","","","","","html-button-response","172","2.0.0","364368","65f22e728039424910f7eaa8","2","39","1030","","","","","","","","","<img src= rock_img/I_Obsidian_12.jpg style=""width:8cm; height:6.53cm;""><p style='font-size: 30px; color: green;'><strong>Correct!</strong></p><p style='font-size: 30px;'><strong>This rock is obsidian</strong></p>","0","corr_feedback","1","train","34","","","","","","","",""
"","","","","","","","","","","","html-button-response","173","2.0.0","366468","65f22e728039424910f7eaa8","2","39","2098","","","","","","","","","<img src= ""rock_img/I_Andesite_11.jpg"" style=""width:8cm; height:4.92cm;""><p>What type of rock is this?</p>","3","class_response","1","train","35","Gabbro","Andesite","11","false","4","1","",""
"","","","","","","","","","","","html-button-response","174","2.0.0","367420","65f22e728039424910f7eaa8","2","39","950","","","","","","","","","<img src= rock_img/I_Andesite_11.jpg style=""width:8cm; height:4.92cm;""><p style='font-size: 30px; color: red;'><strong>Incorrect!</strong></p><p style='font-size: 30px;'><strong>This rock is andesite</strong></p>","0","corr_feedback","1","train","35","","","","","","","",""
"","","","","","","","","","","","html-button-response","175","2.0.0","368685","65f22e728039424910f7eaa8","2","39","1262","","","","","","","","","<img src= ""rock_img/I_Obsidian_02.jpg"" style=""width:8cm; height:7.51cm;""><p>What type of rock is this?</p>","4","class_response","1","train","36","Obsidian","Obsidian","02","true","5","5","",""
"","","","","","","","","","","","html-button-response","176","2.0.0","369635","65f22e728039424910f7eaa8","2","39","947","","","","","","","","","<img src= rock_img/I_Obsidian_02.jpg style=""width:8cm; height:7.51cm;""><p style='font-size: 30px; color: green;'><strong>Correct!</strong></p><p style='font-size: 30px;'><strong>This rock is obsidian</strong></p>","0","corr_feedback","1","train","36","","","","","","","",""
"","","","","","","","","","","","html-button-response","177","2.0.0","373186","65f22e728039424910f7eaa8","2","39","3549","","","","","","","","","<img src= ""rock_img/I_Pegmatite_10.jpg"" style=""width:8cm; height:4.16cm;""><p>What type of rock is this?</p>","0","class_response","1","train","37","Andesite","Pegmatite","10","false","1","6","",""
"","","","","","","","","","","","html-button-response","178","2.0.0","374135","65f22e728039424910f7eaa8","2","39","948","","","","","","","","","<img src= rock_img/I_Pegmatite_10.jpg style=""width:8cm; height:4.16cm;""><p style='font-size: 30px; color: red;'><strong>Incorrect!</strong></p><p style='font-size: 30px;'><strong>This rock is pegmatite</strong></p>","0","corr_feedback","1","train","37","","","","","","","",""
"","","","","","","","","","","","html-button-response","179","2.0.0","375568","65f22e728039424910f7eaa8","2","39","1431","","","","","","","","","<img src= ""rock_img/I_Peridotite_10.jpg"" style=""width:8cm; height:5.390000000000001cm;""><p>What type of rock is this?</p>","2","class_response","1","train","38","Diorite","Peridotite","10","false","3","7","",""
"","","","","","","","","","","","html-button-response","180","2.0.0","376385","65f22e728039424910f7eaa8","2","39","815","","","","","","","","","<img src= rock_img/I_Peridotite_10.jpg style=""width:8cm; height:5.390000000000001cm;""><p style='font-size: 30px; color: red;'><strong>Incorrect!</strong></p><p style='font-size: 30px;'><strong>This rock is peridotite</strong></p>","0","corr_feedback","1","train","38","","","","","","","",""
"","","","","","","","","","","","html-button-response","181","2.0.0","378220","65f22e728039424910f7eaa8","2","39","1831","","","","","","","","","<img src= ""rock_img/I_Basalt_08.jpg"" style=""width:8cm; height:10.44cm;""><p>What type of rock is this?</p>","3","class_response","1","train","39","Gabbro","Basalt","08","false","4","2","",""
"","","","","","","","","","","","html-button-response","182","2.0.0","379170","65f22e728039424910f7eaa8","2","39","948","","","","","","","","","<img src= rock_img/I_Basalt_08.jpg style=""width:8cm; height:10.44cm;""><p style='font-size: 30px; color: red;'><strong>Incorrect!</strong></p><p style='font-size: 30px;'><strong>This rock is basalt</strong></p>","0","corr_feedback","1","train","39","","","","","","","",""
"","","","","","","","","","","","html-button-response","183","2.0.0","381368","65f22e728039424910f7eaa8","2","39","2195","","","","","","","","","<img src= ""rock_img/I_Pumice_15.jpg"" style=""width:8cm; height:7.86cm;""><p>What type of rock is this?</p>","3","class_response","1","train","40","Gabbro","Pumice","15","false","4","8","",""
"","","","","","","","","","","","html-button-response","184","2.0.0","382285","65f22e728039424910f7eaa8","2","39","916","","","","","","","","","<img src= rock_img/I_Pumice_15.jpg style=""width:8cm; height:7.86cm;""><p style='font-size: 30px; color: red;'><strong>Incorrect!</strong></p><p style='font-size: 30px;'><strong>This rock is pumice</strong></p>","0","corr_feedback","1","train","40","","","","","","","",""
"","","","","","","","","","","","html-button-response","185","2.0.0","383852","65f22e728039424910f7eaa8","2","39","1564","","","","","","","","","<img src= ""rock_img/I_Peridotite_05.jpg"" style=""width:8cm; height:7.1499999999999995cm;""><p>What type of rock is this?</p>","7","class_response","1","train","41","Pumice","Peridotite","05","false","8","7","",""
"","","","","","","","","","","","html-button-response","186","2.0.0","385101","65f22e728039424910f7eaa8","2","39","1247","","","","","","","","","<img src= rock_img/I_Peridotite_05.jpg style=""width:8cm; height:7.1499999999999995cm;""><p style='font-size: 30px; color: red;'><strong>Incorrect!</strong></p><p style='font-size: 30px;'><strong>This rock is peridotite</strong></p>","0","corr_feedback","1","train","41","","","","","","","",""
"","","","","","","","","","","","html-button-response","187","2.0.0","386302","65f22e728039424910f7eaa8","2","39","1198","","","","","","","","","<img src= ""rock_img/I_Peridotite_08.jpg"" style=""width:8cm; height:6.7cm;""><p>What type of rock is this?</p>","2","class_response","1","train","42","Diorite","Peridotite","08","false","3","7","",""
"","","","","","","","","","","","html-button-response","188","2.0.0","387520","65f22e728039424910f7eaa8","2","39","1215","","","","","","","","","<img src= rock_img/I_Peridotite_08.jpg style=""width:8cm; height:6.7cm;""><p style='font-size: 30px; color: red;'><strong>Incorrect!</strong></p><p style='font-size: 30px;'><strong>This rock is peridotite</strong></p>","0","corr_feedback","1","train","42","","","","","","","",""
"","","","","","","","","","","","html-button-response","189","2.0.0","389302","65f22e728039424910f7eaa8","2","39","1780","","","","","","","","","<img src= ""rock_img/I_Andesite_14.jpg"" style=""width:8cm; height:5.449999999999999cm;""><p>What type of rock is this?</p>","0","class_response","1","train","43","Andesite","Andesite","14","true","1","1","",""
"","","","","","","","","","","","html-button-response","190","2.0.0","391119","65f22e728039424910f7eaa8","2","39","1814","","","","","","","","","<img src= rock_img/I_Andesite_14.jpg style=""width:8cm; height:5.449999999999999cm;""><p style='font-size: 30px; color: green;'><strong>Correct!</strong></p><p style='font-size: 30px;'><strong>This rock is andesite</strong></p>","0","corr_feedback","1","train","43","","","","","","","",""
"","","","","","","","","","","","html-button-response","191","2.0.0","392721","65f22e728039424910f7eaa8","2","39","1599","","","","","","","","","<img src= ""rock_img/I_Diorite_11.jpg"" style=""width:8cm; height:7.11cm;""><p>What type of rock is this?</p>","3","class_response","1","train","44","Gabbro","Diorite","11","false","4","3","",""
"","","","","","","","","","","","html-button-response","192","2.0.0","393669","65f22e728039424910f7eaa8","2","39","945","","","","","","","","","<img src= rock_img/I_Diorite_11.jpg style=""width:8cm; height:7.11cm;""><p style='font-size: 30px; color: red;'><strong>Incorrect!</strong></p><p style='font-size: 30px;'><strong>This rock is diorite</strong></p>","0","corr_feedback","1","train","44","","","","","","","",""
"","","","","","","","","","","","html-button-response","193","2.0.0","395118","65f22e728039424910f7eaa8","2","39","1447","","","","","","","","","<img src= ""rock_img/I_Gabbro_10.jpg"" style=""width:8cm; height:5.680000000000001cm;""><p>What type of rock is this?</p>","1","class_response","1","train","45","Basalt","Gabbro","10","false","2","4","",""
"","","","","","","","","","","","html-button-response","194","2.0.0","396018","65f22e728039424910f7eaa8","2","39","898","","","","","","","","","<img src= rock_img/I_Gabbro_10.jpg style=""width:8cm; height:5.680000000000001cm;""><p style='font-size: 30px; color: red;'><strong>Incorrect!</strong></p><p style='font-size: 30px;'><strong>This rock is gabbro</strong></p>","0","corr_feedback","1","train","45","","","","","","","",""
"","","","","","","","","","","","html-button-response","195","2.0.0","397619","65f22e728039424910f7eaa8","2","39","1599","","","","","","","","","<img src= ""rock_img/I_Gabbro_13.jpg"" style=""width:8cm; height:5.08cm;""><p>What type of rock is this?</p>","3","class_response","1","train","46","Gabbro","Gabbro","13","true","4","4","",""
"","","","","","","","","","","","html-button-response","196","2.0.0","398519","65f22e728039424910f7eaa8","2","39","898","","","","","","","","","<img src= rock_img/I_Gabbro_13.jpg style=""width:8cm; height:5.08cm;""><p style='font-size: 30px; color: green;'><strong>Correct!</strong></p><p style='font-size: 30px;'><strong>This rock is gabbro</strong></p>","0","corr_feedback","1","train","46","","","","","","","",""
"","","","","","","","","","","","html-button-response","197","2.0.0","399686","65f22e728039424910f7eaa8","2","39","1164","","","","","","","","","<img src= ""rock_img/I_Basalt_09.jpg"" style=""width:8cm; height:6.2cm;""><p>What type of rock is this?</p>","3","class_response","1","train","47","Gabbro","Basalt","09","false","4","2","",""
"","","","","","","","","","","","html-button-response","198","2.0.0","400502","65f22e728039424910f7eaa8","2","39","813","","","","","","","","","<img src= rock_img/I_Basalt_09.jpg style=""width:8cm; height:6.2cm;""><p style='font-size: 30px; color: red;'><strong>Incorrect!</strong></p><p style='font-size: 30px;'><strong>This rock is basalt</strong></p>","0","corr_feedback","1","train","47","","","","","","","",""
"","","","","","","","","","","","html-button-response","199","2.0.0","402252","65f22e728039424910f7eaa8","2","39","1747","","","","","","","","","<img src= ""rock_img/I_Pegmatite_07.jpg"" style=""width:8cm; height:6.7cm;""><p>What type of rock is this?</p>","2","class_response","1","train","48","Diorite","Pegmatite","07","false","3","6","",""
"","","","","","","","","","","","html-button-response","200","2.0.0","403086","65f22e728039424910f7eaa8","2","39","832","","","","","","","","","<img src= rock_img/I_Pegmatite_07.jpg style=""width:8cm; height:6.7cm;""><p style='font-size: 30px; color: red;'><strong>Incorrect!</strong></p><p style='font-size: 30px;'><strong>This rock is pegmatite</strong></p>","0","corr_feedback","1","train","48","","","","","","","",""
"","","","","","","","","","","","instructions","203","2.0.0","452053","65f22e728039424910f7eaa8","2","39","48964","","","","","","","","[{""page_index"":0,""viewing_time"":36113},{""page_index"":1,""viewing_time"":12851}]","","","","","","","","","","","","","",""
"","","","","","","","","","","","html-button-response","204","2.0.0","454869","65f22e728039424910f7eaa8","2","39","2814","","","","","","","","","","0","start_test","","","","","","","","","","",""
"","","","","","","","","","","","html-button-response","205","2.0.0","457055","65f22e728039424910f7eaa8","2","39","2183","","","","","","","","","<img src= ""rock_img/I_Basalt_02.jpg"" style=""width:8cm; height:6.45cm;""><p>What type of rock is this?</p>","3","class_response","1","test","1","Gabbro","Basalt","02","false","4","2","",""
"","","","","","","","","","","","html-keyboard-response","206","2.0.0","457557","65f22e728039424910f7eaa8","2","39","null","","","","","","","","","<p style='font-size: 30px;'><strong>Okay</strong></p>","null","neutral_feedback","1","test","1","","","","","","","",""
"","","","","","","","","","","","html-button-response","207","2.0.0","460621","65f22e728039424910f7eaa8","2","39","3061","","","","","","","","","<img src= ""rock_img/I_Pumice_16.jpg"" style=""width:8cm; height:6.79cm;""><p>What type of rock is this?</p>","7","class_response","1","test","2","Pumice","Pumice","16","true","8","8","",""
"","","","","","","","","","","","html-keyboard-response","208","2.0.0","461123","65f22e728039424910f7eaa8","2","39","null","","","","","","","","","<p style='font-size: 30px;'><strong>Okay</strong></p>","null","neutral_feedback","1","test","2","","","","","","","",""
"","","","","","","","","","","","html-button-response","209","2.0.0","462470","65f22e728039424910f7eaa8","2","39","1344","","","","","","","","","<img src= ""rock_img/I_Obsidian_14.jpg"" style=""width:8cm; height:7.64cm;""><p>What type of rock is this?</p>","4","class_response","1","test","3","Obsidian","Obsidian","14","true","5","5","",""
"","","","","","","","","","","","html-keyboard-response","210","2.0.0","462972","65f22e728039424910f7eaa8","2","39","null","","","","","","","","","<p style='font-size: 30px;'><strong>Okay</strong></p>","null","neutral_feedback","1","test","3","","","","","","","",""
"","","","","","","","","","","","html-button-response","211","2.0.0","464806","65f22e728039424910f7eaa8","2","39","1830","","","","","","","","","<img src= ""rock_img/I_Basalt_16.jpg"" style=""width:8cm; height:7.659999999999999cm;""><p>What type of rock is this?</p>","3","class_response","1","test","4","Gabbro","Basalt","16","false","4","2","",""
"","","","","","","","","","","","html-keyboard-response","212","2.0.0","465308","65f22e728039424910f7eaa8","2","39","null","","","","","","","","","<p style='font-size: 30px;'><strong>Okay</strong></p>","null","neutral_feedback","1","test","4","","","","","","","",""
"","","","","","","","","","","","html-button-response","213","2.0.0","466703","65f22e728039424910f7eaa8","2","39","1392","","","","","","","","","<img src= ""rock_img/I_Obsidian_08.jpg"" style=""width:8cm; height:7.39cm;""><p>What type of rock is this?</p>","4","class_response","1","test","5","Obsidian","Obsidian","08","true","5","5","",""
"","","","","","","","","","","","html-keyboard-response","214","2.0.0","467205","65f22e728039424910f7eaa8","2","39","null","","","","","","","","","<p style='font-size: 30px;'><strong>Okay</strong></p>","null","neutral_feedback","1","test","5","","","","","","","",""
"","","","","","","","","","","","html-button-response","215","2.0.0","469687","65f22e728039424910f7eaa8","2","39","2479","","","","","","","","","<img src= ""rock_img/I_Basalt_05.jpg"" style=""width:8cm; height:8.18cm;""><p>What type of rock is this?</p>","3","class_response","1","test","6","Gabbro","Basalt","05","false","4","2","",""
"","","","","","","","","","","","html-keyboard-response","216","2.0.0","470189","65f22e728039424910f7eaa8","2","39","null","","","","","","","","","<p style='font-size: 30px;'><strong>Okay</strong></p>","null","neutral_feedback","1","test","6","","","","","","","",""
"","","","","","","","","","","","html-button-response","217","2.0.0","471836","65f22e728039424910f7eaa8","2","39","1644","","","","","","","","","<img src= ""rock_img/I_Andesite_01.jpg"" style=""width:8cm; height:5.87cm;""><p>What type of rock is this?</p>","2","class_response","1","test","7","Diorite","Andesite","01","false","3","1","",""
"","","","","","","","","","","","html-keyboard-response","218","2.0.0","472338","65f22e728039424910f7eaa8","2","39","null","","","","","","","","","<p style='font-size: 30px;'><strong>Okay</strong></p>","null","neutral_feedback","1","test","7","","","","","","","",""
"","","","","","","","","","","","html-button-response","219","2.0.0","474004","65f22e728039424910f7eaa8","2","39","1663","","","","","","","","","<img src= ""rock_img/I_Pumice_06.jpg"" style=""width:8cm; height:6.9399999999999995cm;""><p>What type of rock is this?</p>","6","class_response","1","test","8","Peridotite","Pumice","06","false","7","8","",""
"","","","","","","","","","","","html-keyboard-response","220","2.0.0","474506","65f22e728039424910f7eaa8","2","39","null","","","","","","","","","<p style='font-size: 30px;'><strong>Okay</strong></p>","null","neutral_feedback","1","test","8","","","","","","","",""
"","","","","","","","","","","","html-button-response","221","2.0.0","476187","65f22e728039424910f7eaa8","2","39","1678","","","","","","","","","<img src= ""rock_img/I_Gabbro_12.jpg"" style=""width:8cm; height:7.800000000000001cm;""><p>What type of rock is this?</p>","1","class_response","1","test","9","Basalt","Gabbro","12","false","2","4","",""
"","","","","","","","","","","","html-keyboard-response","222","2.0.0","476690","65f22e728039424910f7eaa8","2","39","null","","","","","","","","","<p style='font-size: 30px;'><strong>Okay</strong></p>","null","neutral_feedback","1","test","9","","","","","","","",""
"","","","","","","","","","","","html-button-response","223","2.0.0","480137","65f22e728039424910f7eaa8","2","39","3444","","","","","","","","","<img src= ""rock_img/I_Peridotite_07.jpg"" style=""width:8cm; height:4.83cm;""><p>What type of rock is this?</p>","7","class_response","1","test","10","Pumice","Peridotite","07","false","8","7","",""
"","","","","","","","","","","","html-keyboard-response","224","2.0.0","480639","65f22e728039424910f7eaa8","2","39","null","","","","","","","","","<p style='font-size: 30px;'><strong>Okay</strong></p>","null","neutral_feedback","1","test","10","","","","","","","",""
"","","","","","","","","","","","html-button-response","225","2.0.0","481837","65f22e728039424910f7eaa8","2","39","1196","","","","","","","","","<img src= ""rock_img/I_Pumice_10.jpg"" style=""width:8cm; height:7.609999999999999cm;""><p>What type of rock is this?</p>","7","class_response","1","test","11","Pumice","Pumice","10","true","8","8","",""
"","","","","","","","","","","","html-keyboard-response","226","2.0.0","482339","65f22e728039424910f7eaa8","2","39","null","","","","","","","","","<p style='font-size: 30px;'><strong>Okay</strong></p>","null","neutral_feedback","1","test","11","","","","","","","",""
"","","","","","","","","","","","html-button-response","227","2.0.0","483521","65f22e728039424910f7eaa8","2","39","1178","","","","","","","","","<img src= ""rock_img/I_Diorite_10.jpg"" style=""width:8cm; height:5.949999999999999cm;""><p>What type of rock is this?</p>","7","class_response","1","test","12","Pumice","Diorite","10","false","8","3","",""
"","","","","","","","","","","","html-keyboard-response","228","2.0.0","484024","65f22e728039424910f7eaa8","2","39","null","","","","","","","","","<p style='font-size: 30px;'><strong>Okay</strong></p>","null","neutral_feedback","1","test","12","","","","","","","",""
"","","","","","","","","","","","html-button-response","229","2.0.0","485720","65f22e728039424910f7eaa8","2","39","1693","","","","","","","","","<img src= ""rock_img/I_Andesite_05.jpg"" style=""width:8cm; height:4.12cm;""><p>What type of rock is this?</p>","1","class_response","1","test","13","Basalt","Andesite","05","false","2","1","",""
"","","","","","","","","","","","html-keyboard-response","230","2.0.0","486222","65f22e728039424910f7eaa8","2","39","null","","","","","","","","","<p style='font-size: 30px;'><strong>Okay</strong></p>","null","neutral_feedback","1","test","13","","","","","","","",""
"","","","","","","","","","","","html-button-response","231","2.0.0","489653","65f22e728039424910f7eaa8","2","39","3428","","","","","","","","","<img src= ""rock_img/I_Pegmatite_11.jpg"" style=""width:8cm; height:8.14cm;""><p>What type of rock is this?</p>","0","class_response","1","test","14","Andesite","Pegmatite","11","false","1","6","",""
"","","","","","","","","","","","html-keyboard-response","232","2.0.0","490155","65f22e728039424910f7eaa8","2","39","null","","","","","","","","","<p style='font-size: 30px;'><strong>Okay</strong></p>","null","neutral_feedback","1","test","14","","","","","","","",""
"","","","","","","","","","","","html-button-response","233","2.0.0","492570","65f22e728039424910f7eaa8","2","39","2411","","","","","","","","","<img src= ""rock_img/I_Diorite_06.jpg"" style=""width:8cm; height:6.03cm;""><p>What type of rock is this?</p>","2","class_response","1","test","15","Diorite","Diorite","06","true","3","3","",""
"","","","","","","","","","","","html-keyboard-response","234","2.0.0","493073","65f22e728039424910f7eaa8","2","39","null","","","","","","","","","<p style='font-size: 30px;'><strong>Okay</strong></p>","null","neutral_feedback","1","test","15","","","","","","","",""
"","","","","","","","","","","","html-button-response","235","2.0.0","494236","65f22e728039424910f7eaa8","2","39","1161","","","","","","","","","<img src= ""rock_img/I_Obsidian_10.jpg"" style=""width:8cm; height:6.260000000000001cm;""><p>What type of rock is this?</p>","4","class_response","1","test","16","Obsidian","Obsidian","10","true","5","5","",""
"","","","","","","","","","","","html-keyboard-response","236","2.0.0","494738","65f22e728039424910f7eaa8","2","39","null","","","","","","","","","<p style='font-size: 30px;'><strong>Okay</strong></p>","null","neutral_feedback","1","test","16","","","","","","","",""
"","","","","","","","","","","","html-button-response","237","2.0.0","497171","65f22e728039424910f7eaa8","2","39","2430","","","","","","","","","<img src= ""rock_img/I_Pegmatite_08.jpg"" style=""width:8cm; height:7.68cm;""><p>What type of rock is this?</p>","5","class_response","1","test","17","Pegmatite","Pegmatite","08","true","6","6","",""
"","","","","","","","","","","","html-keyboard-response","238","2.0.0","497673","65f22e728039424910f7eaa8","2","39","null","","","","","","","","","<p style='font-size: 30px;'><strong>Okay</strong></p>","null","neutral_feedback","1","test","17","","","","","","","",""
"","","","","","","","","","","","html-button-response","239","2.0.0","499120","65f22e728039424910f7eaa8","2","39","1444","","","","","","","","","<img src= ""rock_img/I_Andesite_06.jpg"" style=""width:8cm; height:6.840000000000001cm;""><p>What type of rock is this?</p>","6","class_response","1","test","18","Peridotite","Andesite","06","false","7","1","",""
"","","","","","","","","","","","html-keyboard-response","240","2.0.0","499622","65f22e728039424910f7eaa8","2","39","null","","","","","","","","","<p style='font-size: 30px;'><strong>Okay</strong></p>","null","neutral_feedback","1","test","18","","","","","","","",""
"","","","","","","","","","","","html-button-response","241","2.0.0","502171","65f22e728039424910f7eaa8","2","39","2545","","","","","","","","","<img src= ""rock_img/I_Pumice_04.jpg"" style=""width:8cm; height:6.819999999999999cm;""><p>What type of rock is this?</p>","7","class_response","1","test","19","Pumice","Pumice","04","true","8","8","",""
"","","","","","","","","","","","html-keyboard-response","242","2.0.0","502674","65f22e728039424910f7eaa8","2","39","null","","","","","","","","","<p style='font-size: 30px;'><strong>Okay</strong></p>","null","neutral_feedback","1","test","19","","","","","","","",""
"","","","","","","","","","","","html-button-response","243","2.0.0","504254","65f22e728039424910f7eaa8","2","39","1577","","","","","","","","","<img src= ""rock_img/I_Peridotite_02.jpg"" style=""width:8cm; height:5.859999999999999cm;""><p>What type of rock is this?</p>","2","class_response","1","test","20","Diorite","Peridotite","02","false","3","7","",""
"","","","","","","","","","","","html-keyboard-response","244","2.0.0","504756","65f22e728039424910f7eaa8","2","39","null","","","","","","","","","<p style='font-size: 30px;'><strong>Okay</strong></p>","null","neutral_feedback","1","test","20","","","","","","","",""
"","","","","","","","","","","","html-button-response","245","2.0.0","506537","65f22e728039424910f7eaa8","2","39","1778","","","","","","","","","<img src= ""rock_img/I_Peridotite_06.jpg"" style=""width:8cm; height:7.53cm;""><p>What type of rock is this?</p>","0","class_response","1","test","21","Andesite","Peridotite","06","false","1","7","",""
"","","","","","","","","","","","html-keyboard-response","246","2.0.0","507039","65f22e728039424910f7eaa8","2","39","null","","","","","","","","","<p style='font-size: 30px;'><strong>Okay</strong></p>","null","neutral_feedback","1","test","21","","","","","","","",""
"","","","","","","","","","","","html-button-response","247","2.0.0","509988","65f22e728039424910f7eaa8","2","39","2946","","","","","","","","","<img src= ""rock_img/I_Peridotite_16.jpg"" style=""width:8cm; height:6.989999999999999cm;""><p>What type of rock is this?</p>","6","class_response","1","test","22","Peridotite","Peridotite","16","true","7","7","",""
"","","","","","","","","","","","html-keyboard-response","248","2.0.0","510490","65f22e728039424910f7eaa8","2","39","null","","","","","","","","","<p style='font-size: 30px;'><strong>Okay</strong></p>","null","neutral_feedback","1","test","22","","","","","","","",""
"","","","","","","","","","","","html-button-response","249","2.0.0","511654","65f22e728039424910f7eaa8","2","39","1161","","","","","","","","","<img src= ""rock_img/I_Gabbro_16.jpg"" style=""width:8cm; height:6.44cm;""><p>What type of rock is this?</p>","3","class_response","1","test","23","Gabbro","Gabbro","16","true","4","4","",""
"","","","","","","","","","","","html-keyboard-response","250","2.0.0","512157","65f22e728039424910f7eaa8","2","39","null","","","","","","","","","<p style='font-size: 30px;'><strong>Okay</strong></p>","null","neutral_feedback","1","test","23","","","","","","","",""
"","","","","","","","","","","","html-button-response","251","2.0.0","513220","65f22e728039424910f7eaa8","2","39","1060","","","","","","","","","<img src= ""rock_img/I_Pumice_03.jpg"" style=""width:8cm; height:6.64cm;""><p>What type of rock is this?</p>","3","class_response","1","test","24","Gabbro","Pumice","03","false","4","8","",""
"","","","","","","","","","","","html-keyboard-response","252","2.0.0","513722","65f22e728039424910f7eaa8","2","39","null","","","","","","","","","<p style='font-size: 30px;'><strong>Okay</strong></p>","null","neutral_feedback","1","test","24","","","","","","","",""
"","","","","","","","","","","","html-button-response","253","2.0.0","515771","65f22e728039424910f7eaa8","2","39","2046","","","","","","","","","<img src= ""rock_img/I_Obsidian_05.jpg"" style=""width:8cm; height:6.33cm;""><p>What type of rock is this?</p>","5","class_response","1","test","25","Pegmatite","Obsidian","05","false","6","5","",""
"","","","","","","","","","","","html-keyboard-response","254","2.0.0","516274","65f22e728039424910f7eaa8","2","39","null","","","","","","","","","<p style='font-size: 30px;'><strong>Okay</strong></p>","null","neutral_feedback","1","test","25","","","","","","","",""
"","","","","","","","","","","","html-button-response","255","2.0.0","517538","65f22e728039424910f7eaa8","2","39","1261","","","","","","","","","<img src= ""rock_img/I_Basalt_01.jpg"" style=""width:8cm; height:7.880000000000001cm;""><p>What type of rock is this?</p>","2","class_response","1","test","26","Diorite","Basalt","01","false","3","2","",""
"","","","","","","","","","","","html-keyboard-response","256","2.0.0","518039","65f22e728039424910f7eaa8","2","39","null","","","","","","","","","<p style='font-size: 30px;'><strong>Okay</strong></p>","null","neutral_feedback","1","test","26","","","","","","","",""
"","","","","","","","","","","","html-button-response","257","2.0.0","729967","65f22e728039424910f7eaa8","2","39","35033","","","","","","","","","<img src= ""rock_img/I_Diorite_15.jpg"" style=""width:8cm; height:5.54cm;""><p>What type of rock is this?</p>","5","class_response","1","test","27","Pegmatite","Diorite","15","false","6","3","",""
"","","","","","","","","","","","html-keyboard-response","258","2.0.0","730469","65f22e728039424910f7eaa8","2","39","null","","","","","","","","","<p style='font-size: 30px;'><strong>Okay</strong></p>","null","neutral_feedback","1","test","27","","","","","","","",""
"","","","","","","","","","","","html-button-response","259","2.0.0","731814","65f22e728039424910f7eaa8","2","39","1343","","","","","","","","","<img src= ""rock_img/I_Pegmatite_13.jpg"" style=""width:8cm; height:4.95cm;""><p>What type of rock is this?</p>","2","class_response","1","test","28","Diorite","Pegmatite","13","false","3","6","",""
"","","","","","","","","","","","html-keyboard-response","260","2.0.0","732316","65f22e728039424910f7eaa8","2","39","null","","","","","","","","","<p style='font-size: 30px;'><strong>Okay</strong></p>","null","neutral_feedback","1","test","28","","","","","","","",""
"","","","","","","","","","","","html-button-response","261","2.0.0","737964","65f22e728039424910f7eaa8","2","39","5646","","","","","","","","","<img src= ""rock_img/I_Diorite_12.jpg"" style=""width:8cm; height:4.88cm;""><p>What type of rock is this?</p>","7","class_response","1","test","29","Pumice","Diorite","12","false","8","3","",""
"","","","","","","","","","","","html-keyboard-response","262","2.0.0","738466","65f22e728039424910f7eaa8","2","39","null","","","","","","","","","<p style='font-size: 30px;'><strong>Okay</strong></p>","null","neutral_feedback","1","test","29","","","","","","","",""
"","","","","","","","","","","","html-button-response","263","2.0.0","740796","65f22e728039424910f7eaa8","2","39","2328","","","","","","","","","<img src= ""rock_img/I_Obsidian_16.jpg"" style=""width:8cm; height:9.3cm;""><p>What type of rock is this?</p>","4","class_response","1","test","30","Obsidian","Obsidian","16","true","5","5","",""
"","","","","","","","","","","","html-keyboard-response","264","2.0.0","741298","65f22e728039424910f7eaa8","2","39","null","","","","","","","","","<p style='font-size: 30px;'><strong>Okay</strong></p>","null","neutral_feedback","1","test","30","","","","","","","",""
"","","","","","","","","","","","html-button-response","265","2.0.0","2719359","65f22e728039424910f7eaa8","2","39","264927","","","","","","","","","<img src= ""rock_img/I_Peridotite_15.jpg"" style=""width:8cm; height:6cm;""><p>What type of rock is this?</p>","3","class_response","1","test","31","Gabbro","Peridotite","15","false","4","7","",""
"","","","","","","","","","","","html-keyboard-response","266","2.0.0","2719860","65f22e728039424910f7eaa8","2","39","null","","","","","","","","","<p style='font-size: 30px;'><strong>Okay</strong></p>","null","neutral_feedback","1","test","31","","","","","","","",""
"","","","","","","","","","","","html-button-response","267","2.0.0","2721275","65f22e728039424910f7eaa8","2","39","1412","","","","","","","","","<img src= ""rock_img/I_Gabbro_15.jpg"" style=""width:8cm; height:6.29cm;""><p>What type of rock is this?</p>","2","class_response","1","test","32","Diorite","Gabbro","15","false","3","4","",""
"","","","","","","","","","","","html-keyboard-response","268","2.0.0","2721778","65f22e728039424910f7eaa8","2","39","null","","","","","","","","","<p style='font-size: 30px;'><strong>Okay</strong></p>","null","neutral_feedback","1","test","32","","","","","","","",""
"","","","","","","","","","","","html-button-response","269","2.0.0","2723241","65f22e728039424910f7eaa8","2","39","1461","","","","","","","","","<img src= ""rock_img/I_Diorite_13.jpg"" style=""width:8cm; height:6.29cm;""><p>What type of rock is this?</p>","0","class_response","1","test","33","Andesite","Diorite","13","false","1","3","",""
"","","","","","","","","","","","html-keyboard-response","270","2.0.0","2723743","65f22e728039424910f7eaa8","2","39","null","","","","","","","","","<p style='font-size: 30px;'><strong>Okay</strong></p>","null","neutral_feedback","1","test","33","","","","","","","",""
"","","","","","","","","","","","html-button-response","271","2.0.0","2724792","65f22e728039424910f7eaa8","2","39","1046","","","","","","","","","<img src= ""rock_img/I_Obsidian_11.jpg"" style=""width:8cm; height:6.05cm;""><p>What type of rock is this?</p>","4","class_response","1","test","34","Obsidian","Obsidian","11","true","5","5","",""
"","","","","","","","","","","","html-keyboard-response","272","2.0.0","2725294","65f22e728039424910f7eaa8","2","39","null","","","","","","","","","<p style='font-size: 30px;'><strong>Okay</strong></p>","null","neutral_feedback","1","test","34","","","","","","","",""
"","","","","","","","","","","","html-button-response","273","2.0.0","2726791","65f22e728039424910f7eaa8","2","39","1495","","","","","","","","","<img src= ""rock_img/I_Gabbro_09.jpg"" style=""width:8cm; height:7.279999999999999cm;""><p>What type of rock is this?</p>","6","class_response","1","test","35","Peridotite","Gabbro","09","false","7","4","",""
"","","","","","","","","","","","html-keyboard-response","274","2.0.0","2727293","65f22e728039424910f7eaa8","2","39","null","","","","","","","","","<p style='font-size: 30px;'><strong>Okay</strong></p>","null","neutral_feedback","1","test","35","","","","","","","",""
"","","","","","","","","","","","html-button-response","275","2.0.0","2728375","65f22e728039424910f7eaa8","2","39","1079","","","","","","","","","<img src= ""rock_img/I_Peridotite_04.jpg"" style=""width:8cm; height:6.680000000000001cm;""><p>What type of rock is this?</p>","1","class_response","1","test","36","Basalt","Peridotite","04","false","2","7","",""
"","","","","","","","","","","","html-keyboard-response","276","2.0.0","2728877","65f22e728039424910f7eaa8","2","39","null","","","","","","","","","<p style='font-size: 30px;'><strong>Okay</strong></p>","null","neutral_feedback","1","test","36","","","","","","","",""
"","","","","","","","","","","","html-button-response","277","2.0.0","2730858","65f22e728039424910f7eaa8","2","39","1978","","","","","","","","","<img src= ""rock_img/I_Gabbro_01.jpg"" style=""width:8cm; height:5.21cm;""><p>What type of rock is this?</p>","5","class_response","1","test","37","Pegmatite","Gabbro","01","false","6","4","",""
"","","","","","","","","","","","html-keyboard-response","278","2.0.0","2731361","65f22e728039424910f7eaa8","2","39","null","","","","","","","","","<p style='font-size: 30px;'><strong>Okay</strong></p>","null","neutral_feedback","1","test","37","","","","","","","",""
"","","","","","","","","","","","html-button-response","279","2.0.0","2733942","65f22e728039424910f7eaa8","2","39","2578","","","","","","","","","<img src= ""rock_img/I_Pegmatite_16.jpg"" style=""width:8cm; height:5.8cm;""><p>What type of rock is this?</p>","2","class_response","1","test","38","Diorite","Pegmatite","16","false","3","6","",""
"","","","","","","","","","","","html-keyboard-response","280","2.0.0","2734444","65f22e728039424910f7eaa8","2","39","null","","","","","","","","","<p style='font-size: 30px;'><strong>Okay</strong></p>","null","neutral_feedback","1","test","38","","","","","","","",""
"","","","","","","","","","","","html-button-response","281","2.0.0","2735408","65f22e728039424910f7eaa8","2","39","961","","","","","","","","","<img src= ""rock_img/I_Andesite_16.jpg"" style=""width:8cm; height:6.010000000000001cm;""><p>What type of rock is this?</p>","7","class_response","1","test","39","Pumice","Andesite","16","false","8","1","",""
"","","","","","","","","","","","html-keyboard-response","282","2.0.0","2735910","65f22e728039424910f7eaa8","2","39","null","","","","","","","","","<p style='font-size: 30px;'><strong>Okay</strong></p>","null","neutral_feedback","1","test","39","","","","","","","",""
"","","","","","","","","","","","html-button-response","283","2.0.0","2737741","65f22e728039424910f7eaa8","2","39","1828","","","","","","","","","<img src= ""rock_img/I_Andesite_03.jpg"" style=""width:8cm; height:5.73cm;""><p>What type of rock is this?</p>","3","class_response","1","test","40","Gabbro","Andesite","03","false","4","1","",""
"","","","","","","","","","","","html-keyboard-response","284","2.0.0","2738243","65f22e728039424910f7eaa8","2","39","null","","","","","","","","","<p style='font-size: 30px;'><strong>Okay</strong></p>","null","neutral_feedback","1","test","40","","","","","","","",""
"","","","","","","","","","","","html-button-response","285","2.0.0","2739740","65f22e728039424910f7eaa8","2","39","1495","","","","","","","","","<img src= ""rock_img/I_Andesite_10.jpg"" style=""width:8cm; height:4.16cm;""><p>What type of rock is this?</p>","0","class_response","1","test","41","Andesite","Andesite","10","true","1","1","",""
"","","","","","","","","","","","html-keyboard-response","286","2.0.0","2740242","65f22e728039424910f7eaa8","2","39","null","","","","","","","","","<p style='font-size: 30px;'><strong>Okay</strong></p>","null","neutral_feedback","1","test","41","","","","","","","",""
"","","","","","","","","","","","html-button-response","287","2.0.0","2741442","65f22e728039424910f7eaa8","2","39","1197","","","","","","","","","<img src= ""rock_img/I_Pegmatite_06.jpg"" style=""width:8cm; height:5.17cm;""><p>What type of rock is this?</p>","2","class_response","1","test","42","Diorite","Pegmatite","06","false","3","6","",""
"","","","","","","","","","","","html-keyboard-response","288","2.0.0","2741943","65f22e728039424910f7eaa8","2","39","null","","","","","","","","","<p style='font-size: 30px;'><strong>Okay</strong></p>","null","neutral_feedback","1","test","42","","","","","","","",""
"","","","","","","","","","","","html-button-response","289","2.0.0","2743258","65f22e728039424910f7eaa8","2","39","1311","","","","","","","","","<img src= ""rock_img/I_Pegmatite_09.jpg"" style=""width:8cm; height:4.03cm;""><p>What type of rock is this?</p>","2","class_response","1","test","43","Diorite","Pegmatite","09","false","3","6","",""
"","","","","","","","","","","","html-keyboard-response","290","2.0.0","2743760","65f22e728039424910f7eaa8","2","39","null","","","","","","","","","<p style='font-size: 30px;'><strong>Okay</strong></p>","null","neutral_feedback","1","test","43","","","","","","","",""
"","","","","","","","","","","","html-button-response","291","2.0.0","2744993","65f22e728039424910f7eaa8","2","39","1231","","","","","","","","","<img src= ""rock_img/I_Basalt_12.jpg"" style=""width:8cm; height:6.010000000000001cm;""><p>What type of rock is this?</p>","6","class_response","1","test","44","Peridotite","Basalt","12","false","7","2","",""
"","","","","","","","","","","","html-keyboard-response","292","2.0.0","2745495","65f22e728039424910f7eaa8","2","39","null","","","","","","","","","<p style='font-size: 30px;'><strong>Okay</strong></p>","null","neutral_feedback","1","test","44","","","","","","","",""
"","","","","","","","","","","","html-button-response","293","2.0.0","2747177","65f22e728039424910f7eaa8","2","39","1679","","","","","","","","","<img src= ""rock_img/I_Diorite_14.jpg"" style=""width:8cm; height:5.71cm;""><p>What type of rock is this?</p>","5","class_response","1","test","45","Pegmatite","Diorite","14","false","6","3","",""
"","","","","","","","","","","","html-keyboard-response","294","2.0.0","2747679","65f22e728039424910f7eaa8","2","39","null","","","","","","","","","<p style='font-size: 30px;'><strong>Okay</strong></p>","null","neutral_feedback","1","test","45","","","","","","","",""
"","","","","","","","","","","","html-button-response","295","2.0.0","2749242","65f22e728039424910f7eaa8","2","39","1560","","","","","","","","","<img src= ""rock_img/I_Basalt_06.jpg"" style=""width:8cm; height:7.06cm;""><p>What type of rock is this?</p>","3","class_response","1","test","46","Gabbro","Basalt","06","false","4","2","",""
"","","","","","","","","","","","html-keyboard-response","296","2.0.0","2749744","65f22e728039424910f7eaa8","2","39","null","","","","","","","","","<p style='font-size: 30px;'><strong>Okay</strong></p>","null","neutral_feedback","1","test","46","","","","","","","",""
"","","","","","","","","","","","html-button-response","297","2.0.0","2750807","65f22e728039424910f7eaa8","2","39","1061","","","","","","","","","<img src= ""rock_img/I_Gabbro_05.jpg"" style=""width:8cm; height:6cm;""><p>What type of rock is this?</p>","7","class_response","1","test","47","Pumice","Gabbro","05","false","8","4","",""
"","","","","","","","","","","","html-keyboard-response","298","2.0.0","2751310","65f22e728039424910f7eaa8","2","39","null","","","","","","","","","<p style='font-size: 30px;'><strong>Okay</strong></p>","null","neutral_feedback","1","test","47","","","","","","","",""
"","","","","","","","","","","","html-button-response","299","2.0.0","2754374","65f22e728039424910f7eaa8","2","39","3062","","","","","","","","","<img src= ""rock_img/I_Pumice_14.jpg"" style=""width:8cm; height:6.39cm;""><p>What type of rock is this?</p>","2","class_response","1","test","48","Diorite","Pumice","14","false","3","8","",""
"","","","","","","","","","","","html-keyboard-response","300","2.0.0","2754876","65f22e728039424910f7eaa8","2","39","null","","","","","","","","","<p style='font-size: 30px;'><strong>Okay</strong></p>","null","neutral_feedback","1","test","48","","","","","","","",""
"","","","","","","","","","","","html-button-response","301","2.0.0","2773490","65f22e728039424910f7eaa8","2","39","","","","","","","","","","","","cycle_feedback","","","","","","","","","","7300.700000047684","11300.299999952316"
"","","","","","","","","","","","html-button-response","303","2.0.0","2776491","65f22e728039424910f7eaa8","2","39","2998","","","","","","","","","","0","start_train","","","","","","","","","","",""
"","","","","","","","","","","","html-button-response","304","2.0.0","2779358","65f22e728039424910f7eaa8","2","39","2864","","","","","","","","","<img src= ""rock_img/I_Basalt_04.jpg"" style=""width:8cm; height:7.53cm;""><p>What type of rock is this?</p>","0","class_response","2","train","1","Andesite","Basalt","04","false","1","2","",""
