"width","height","webaudio","browser","browser_version","mobile","os","fullscreen","vsync_rate","webcam","microphone","trial_type","trial_index","plugin_version","time_elapsed","subjID","condition","stimID","rt","url","success","value","timeout","failed_images","failed_audio","failed_video","view_history","stimulus","response","trialType","cycle","phase","trial","resp","cat","token","corr","resp_num","cat_num","time_fb1","time_fb2"
"1280","593","true","chrome","130.0.0","false","Windows 10","true","60.39","true","true","browser-check","0","2.0.0","1007","5f9b96ecd60b7a3d0c62e917","2","35","","","","","","","","","","","","","","","","","","","","","","",""
"","","","","","","","","","","","external-html","1","2.0.0","6824","5f9b96ecd60b7a3d0c62e917","2","35","5754","consent_form.html","","","","","","","","","","","","","","","","","","","","",""
"","","","","","","","","","","","fullscreen","2","2.0.0","9478","5f9b96ecd60b7a3d0c62e917","2","35","1645","","true","","","","","","","","","","","","","","","","","","","",""
"","","","","","","","","","","","call-function","3","2.0.0","9480","5f9b96ecd60b7a3d0c62e917","2","35","","","","{}","","","","","","","","","","","","","","","","","","",""
"","","","","","","","","","","","preload","4","2.0.0","11525","5f9b96ecd60b7a3d0c62e917","2","35","","","true","","false","[]","[]","[]","","","","","","","","","","","","","","",""
"","","","","","","","","","","","instructions","5","2.0.0","21743","5f9b96ecd60b7a3d0c62e917","2","35","10217","","","","","","","","[{""page_index"":0,""viewing_time"":2503},{""page_index"":1,""viewing_time"":3739},{""page_index"":2,""viewing_time"":3974}]","","","","","","","","","","","","","",""
"","","","","","","","","","","","html-button-response","6","2.0.0","23485","5f9b96ecd60b7a3d0c62e917","2","35","1740","","","","","","","","","","0","start_test","","","","","","","","","","",""
"","","","","","","","","","","","html-button-response","7","2.0.0","26605","5f9b96ecd60b7a3d0c62e917","2","35","3118","","","","","","","","","<img src= ""rock_img/I_Andesite_04.jpg"" style=""width:8cm; height:5.96cm;""><p>What type of rock is this?</p>","6","class_response","0","test","1","Peridotite","Andesite","04","false","7","1","",""
"","","","","","","","","","","","html-keyboard-response","8","2.0.0","27122","5f9b96ecd60b7a3d0c62e917","2","35","null","","","","","","","","","<p style='font-size: 30px;'><strong>Okay</strong></p>","null","neutral_feedback","0","test","1","","","","","","","",""
"","","","","","","","","","","","html-button-response","9","2.0.0","28635","5f9b96ecd60b7a3d0c62e917","2","35","1511","","","","","","","","","<img src= ""rock_img/I_Gabbro_01.jpg"" style=""width:8cm; height:5.21cm;""><p>What type of rock is this?</p>","4","class_response","0","test","2","Obsidian","Gabbro","01","false","5","4","",""
"","","","","","","","","","","","html-keyboard-response","10","2.0.0","29150","5f9b96ecd60b7a3d0c62e917","2","35","null","","","","","","","","","<p style='font-size: 30px;'><strong>Okay</strong></p>","null","neutral_feedback","0","test","2","","","","","","","",""
"","","","","","","","","","","","html-button-response","11","2.0.0","30173","5f9b96ecd60b7a3d0c62e917","2","35","1021","","","","","","","","","<img src= ""rock_img/I_Pegmatite_07.jpg"" style=""width:8cm; height:6.7cm;""><p>What type of rock is this?</p>","5","class_response","0","test","3","Pegmatite","Pegmatite","07","true","6","6","",""
"","","","","","","","","","","","html-keyboard-response","12","2.0.0","30680","5f9b96ecd60b7a3d0c62e917","2","35","null","","","","","","","","","<p style='font-size: 30px;'><strong>Okay</strong></p>","null","neutral_feedback","0","test","3","","","","","","","",""
"","","","","","","","","","","","html-button-response","13","2.0.0","31858","5f9b96ecd60b7a3d0c62e917","2","35","1177","","","","","","","","","<img src= ""rock_img/I_Diorite_14.jpg"" style=""width:8cm; height:5.71cm;""><p>What type of rock is this?</p>","0","class_response","0","test","4","Andesite","Diorite","14","false","1","3","",""
"","","","","","","","","","","","html-keyboard-response","14","2.0.0","32368","5f9b96ecd60b7a3d0c62e917","2","35","null","","","","","","","","","<p style='font-size: 30px;'><strong>Okay</strong></p>","null","neutral_feedback","0","test","4","","","","","","","",""
"","","","","","","","","","","","html-button-response","15","2.0.0","33481","5f9b96ecd60b7a3d0c62e917","2","35","1111","","","","","","","","","<img src= ""rock_img/I_Andesite_11.jpg"" style=""width:8cm; height:4.92cm;""><p>What type of rock is this?</p>","3","class_response","0","test","5","Gabbro","Andesite","11","false","4","1","",""
"","","","","","","","","","","","html-keyboard-response","16","2.0.0","33996","5f9b96ecd60b7a3d0c62e917","2","35","null","","","","","","","","","<p style='font-size: 30px;'><strong>Okay</strong></p>","null","neutral_feedback","0","test","5","","","","","","","",""
"","","","","","","","","","","","html-button-response","17","2.0.0","35096","5f9b96ecd60b7a3d0c62e917","2","35","1098","","","","","","","","","<img src= ""rock_img/I_Andesite_02.jpg"" style=""width:8cm; height:8.5cm;""><p>What type of rock is this?</p>","7","class_response","0","test","6","Pumice","Andesite","02","false","8","1","",""
"","","","","","","","","","","","html-keyboard-response","18","2.0.0","35599","5f9b96ecd60b7a3d0c62e917","2","35","null","","","","","","","","","<p style='font-size: 30px;'><strong>Okay</strong></p>","null","neutral_feedback","0","test","6","","","","","","","",""
"","","","","","","","","","","","html-button-response","19","2.0.0","36493","5f9b96ecd60b7a3d0c62e917","2","35","893","","","","","","","","","<img src= ""rock_img/I_Pegmatite_11.jpg"" style=""width:8cm; height:8.14cm;""><p>What type of rock is this?</p>","2","class_response","0","test","7","Diorite","Pegmatite","11","false","3","6","",""
"","","","","","","","","","","","html-keyboard-response","20","2.0.0","37000","5f9b96ecd60b7a3d0c62e917","2","35","null","","","","","","","","","<p style='font-size: 30px;'><strong>Okay</strong></p>","null","neutral_feedback","0","test","7","","","","","","","",""
"","","","","","","","","","","","html-button-response","21","2.0.0","37952","5f9b96ecd60b7a3d0c62e917","2","35","950","","","","","","","","","<img src= ""rock_img/I_Obsidian_14.jpg"" style=""width:8cm; height:7.64cm;""><p>What type of rock is this?</p>","1","class_response","0","test","8","Basalt","Obsidian","14","false","2","5","",""
"","","","","","","","","","","","html-keyboard-response","22","2.0.0","38456","5f9b96ecd60b7a3d0c62e917","2","35","null","","","","","","","","","<p style='font-size: 30px;'><strong>Okay</strong></p>","null","neutral_feedback","0","test","8","","","","","","","",""
"","","","","","","","","","","","html-button-response","23","2.0.0","39503","5f9b96ecd60b7a3d0c62e917","2","35","1045","","","","","","","","","<img src= ""rock_img/I_Gabbro_15.jpg"" style=""width:8cm; height:6.29cm;""><p>What type of rock is this?</p>","6","class_response","0","test","9","Peridotite","Gabbro","15","false","7","4","",""
"","","","","","","","","","","","html-keyboard-response","24","2.0.0","40006","5f9b96ecd60b7a3d0c62e917","2","35","null","","","","","","","","","<p style='font-size: 30px;'><strong>Okay</strong></p>","null","neutral_feedback","0","test","9","","","","","","","",""
"","","","","","","","","","","","html-button-response","25","2.0.0","41181","5f9b96ecd60b7a3d0c62e917","2","35","1174","","","","","","","","","<img src= ""rock_img/I_Peridotite_06.jpg"" style=""width:8cm; height:7.53cm;""><p>What type of rock is this?</p>","2","class_response","0","test","10","Diorite","Peridotite","06","false","3","7","",""
"","","","","","","","","","","","html-keyboard-response","26","2.0.0","41682","5f9b96ecd60b7a3d0c62e917","2","35","null","","","","","","","","","<p style='font-size: 30px;'><strong>Okay</strong></p>","null","neutral_feedback","0","test","10","","","","","","","",""
"","","","","","","","","","","","html-button-response","27","2.0.0","42733","5f9b96ecd60b7a3d0c62e917","2","35","1050","","","","","","","","","<img src= ""rock_img/I_Basalt_09.jpg"" style=""width:8cm; height:6.2cm;""><p>What type of rock is this?</p>","3","class_response","0","test","11","Gabbro","Basalt","09","false","4","2","",""
"","","","","","","","","","","","html-keyboard-response","28","2.0.0","43244","5f9b96ecd60b7a3d0c62e917","2","35","null","","","","","","","","","<p style='font-size: 30px;'><strong>Okay</strong></p>","null","neutral_feedback","0","test","11","","","","","","","",""
"","","","","","","","","","","","html-button-response","29","2.0.0","44419","5f9b96ecd60b7a3d0c62e917","2","35","1174","","","","","","","","","<img src= ""rock_img/I_Obsidian_10.jpg"" style=""width:8cm; height:6.260000000000001cm;""><p>What type of rock is this?</p>","5","class_response","0","test","12","Pegmatite","Obsidian","10","false","6","5","",""
"","","","","","","","","","","","html-keyboard-response","30","2.0.0","44922","5f9b96ecd60b7a3d0c62e917","2","35","null","","","","","","","","","<p style='font-size: 30px;'><strong>Okay</strong></p>","null","neutral_feedback","0","test","12","","","","","","","",""
"","","","","","","","","","","","html-button-response","31","2.0.0","45918","5f9b96ecd60b7a3d0c62e917","2","35","994","","","","","","","","","<img src= ""rock_img/I_Pumice_13.jpg"" style=""width:8cm; height:8.200000000000001cm;""><p>What type of rock is this?</p>","1","class_response","0","test","13","Basalt","Pumice","13","false","2","8","",""
"","","","","","","","","","","","html-keyboard-response","32","2.0.0","46426","5f9b96ecd60b7a3d0c62e917","2","35","null","","","","","","","","","<p style='font-size: 30px;'><strong>Okay</strong></p>","null","neutral_feedback","0","test","13","","","","","","","",""
"","","","","","","","","","","","html-button-response","33","2.0.0","47577","5f9b96ecd60b7a3d0c62e917","2","35","1149","","","","","","","","","<img src= ""rock_img/I_Peridotite_16.jpg"" style=""width:8cm; height:6.989999999999999cm;""><p>What type of rock is this?</p>","7","class_response","0","test","14","Pumice","Peridotite","16","false","8","7","",""
"","","","","","","","","","","","html-keyboard-response","34","2.0.0","48086","5f9b96ecd60b7a3d0c62e917","2","35","null","","","","","","","","","<p style='font-size: 30px;'><strong>Okay</strong></p>","null","neutral_feedback","0","test","14","","","","","","","",""
"","","","","","","","","","","","html-button-response","35","2.0.0","49067","5f9b96ecd60b7a3d0c62e917","2","35","980","","","","","","","","","<img src= ""rock_img/I_Andesite_03.jpg"" style=""width:8cm; height:5.73cm;""><p>What type of rock is this?</p>","3","class_response","0","test","15","Gabbro","Andesite","03","false","4","1","",""
"","","","","","","","","","","","html-keyboard-response","36","2.0.0","49570","5f9b96ecd60b7a3d0c62e917","2","35","null","","","","","","","","","<p style='font-size: 30px;'><strong>Okay</strong></p>","null","neutral_feedback","0","test","15","","","","","","","",""
"","","","","","","","","","","","html-button-response","37","2.0.0","50494","5f9b96ecd60b7a3d0c62e917","2","35","922","","","","","","","","","<img src= ""rock_img/I_Diorite_09.jpg"" style=""width:8cm; height:5.27cm;""><p>What type of rock is this?</p>","3","class_response","0","test","16","Gabbro","Diorite","09","false","4","3","",""
"","","","","","","","","","","","html-keyboard-response","38","2.0.0","51008","5f9b96ecd60b7a3d0c62e917","2","35","null","","","","","","","","","<p style='font-size: 30px;'><strong>Okay</strong></p>","null","neutral_feedback","0","test","16","","","","","","","",""
"","","","","","","","","","","","html-button-response","39","2.0.0","51999","5f9b96ecd60b7a3d0c62e917","2","35","989","","","","","","","","","<img src= ""rock_img/I_Basalt_01.jpg"" style=""width:8cm; height:7.880000000000001cm;""><p>What type of rock is this?</p>","5","class_response","0","test","17","Pegmatite","Basalt","01","false","6","2","",""
"","","","","","","","","","","","html-keyboard-response","40","2.0.0","52508","5f9b96ecd60b7a3d0c62e917","2","35","null","","","","","","","","","<p style='font-size: 30px;'><strong>Okay</strong></p>","null","neutral_feedback","0","test","17","","","","","","","",""
"","","","","","","","","","","","html-button-response","41","2.0.0","53309","5f9b96ecd60b7a3d0c62e917","2","35","799","","","","","","","","","<img src= ""rock_img/I_Pegmatite_09.jpg"" style=""width:8cm; height:4.03cm;""><p>What type of rock is this?</p>","0","class_response","0","test","18","Andesite","Pegmatite","09","false","1","6","",""
"","","","","","","","","","","","html-keyboard-response","42","2.0.0","53820","5f9b96ecd60b7a3d0c62e917","2","35","null","","","","","","","","","<p style='font-size: 30px;'><strong>Okay</strong></p>","null","neutral_feedback","0","test","18","","","","","","","",""
"","","","","","","","","","","","html-button-response","43","2.0.0","54971","5f9b96ecd60b7a3d0c62e917","2","35","1149","","","","","","","","","<img src= ""rock_img/I_Obsidian_16.jpg"" style=""width:8cm; height:9.3cm;""><p>What type of rock is this?</p>","4","class_response","0","test","19","Obsidian","Obsidian","16","true","5","5","",""
"","","","","","","","","","","","html-keyboard-response","44","2.0.0","55480","5f9b96ecd60b7a3d0c62e917","2","35","null","","","","","","","","","<p style='font-size: 30px;'><strong>Okay</strong></p>","null","neutral_feedback","0","test","19","","","","","","","",""
"","","","","","","","","","","","html-button-response","45","2.0.0","56327","5f9b96ecd60b7a3d0c62e917","2","35","845","","","","","","","","","<img src= ""rock_img/I_Gabbro_11.jpg"" style=""width:8cm; height:6.2cm;""><p>What type of rock is this?</p>","1","class_response","0","test","20","Basalt","Gabbro","11","false","2","4","",""
"","","","","","","","","","","","html-keyboard-response","46","2.0.0","56835","5f9b96ecd60b7a3d0c62e917","2","35","null","","","","","","","","","<p style='font-size: 30px;'><strong>Okay</strong></p>","null","neutral_feedback","0","test","20","","","","","","","",""
"","","","","","","","","","","","html-button-response","47","2.0.0","57731","5f9b96ecd60b7a3d0c62e917","2","35","895","","","","","","","","","<img src= ""rock_img/I_Pumice_09.jpg"" style=""width:8cm; height:6.44cm;""><p>What type of rock is this?</p>","0","class_response","0","test","21","Andesite","Pumice","09","false","1","8","",""
"","","","","","","","","","","","html-keyboard-response","48","2.0.0","58238","5f9b96ecd60b7a3d0c62e917","2","35","null","","","","","","","","","<p style='font-size: 30px;'><strong>Okay</strong></p>","null","neutral_feedback","0","test","21","","","","","","","",""
"","","","","","","","","","","","html-button-response","49","2.0.0","59372","5f9b96ecd60b7a3d0c62e917","2","35","1133","","","","","","","","","<img src= ""rock_img/I_Diorite_15.jpg"" style=""width:8cm; height:5.54cm;""><p>What type of rock is this?</p>","3","class_response","0","test","22","Gabbro","Diorite","15","false","4","3","",""
"","","","","","","","","","","","html-keyboard-response","50","2.0.0","59882","5f9b96ecd60b7a3d0c62e917","2","35","null","","","","","","","","","<p style='font-size: 30px;'><strong>Okay</strong></p>","null","neutral_feedback","0","test","22","","","","","","","",""
"","","","","","","","","","","","html-button-response","51","2.0.0","60407","5f9b96ecd60b7a3d0c62e917","2","35","523","","","","","","","","","<img src= ""rock_img/I_Diorite_12.jpg"" style=""width:8cm; height:4.88cm;""><p>What type of rock is this?</p>","6","class_response","0","test","23","Peridotite","Diorite","12","false","7","3","",""
"","","","","","","","","","","","html-keyboard-response","52","2.0.0","60915","5f9b96ecd60b7a3d0c62e917","2","35","null","","","","","","","","","<p style='font-size: 30px;'><strong>Okay</strong></p>","null","neutral_feedback","0","test","23","","","","","","","",""
"","","","","","","","","","","","html-button-response","53","2.0.0","61874","5f9b96ecd60b7a3d0c62e917","2","35","957","","","","","","","","","<img src= ""rock_img/I_Diorite_16.jpg"" style=""width:8cm; height:6.74cm;""><p>What type of rock is this?</p>","2","class_response","0","test","24","Diorite","Diorite","16","true","3","3","",""
"","","","","","","","","","","","html-keyboard-response","54","2.0.0","62377","5f9b96ecd60b7a3d0c62e917","2","35","null","","","","","","","","","<p style='font-size: 30px;'><strong>Okay</strong></p>","null","neutral_feedback","0","test","24","","","","","","","",""
"","","","","","","","","","","","html-button-response","55","2.0.0","63347","5f9b96ecd60b7a3d0c62e917","2","35","969","","","","","","","","","<img src= ""rock_img/I_Pumice_15.jpg"" style=""width:8cm; height:7.86cm;""><p>What type of rock is this?</p>","7","class_response","0","test","25","Pumice","Pumice","15","true","8","8","",""
"","","","","","","","","","","","html-keyboard-response","56","2.0.0","63849","5f9b96ecd60b7a3d0c62e917","2","35","null","","","","","","","","","<p style='font-size: 30px;'><strong>Okay</strong></p>","null","neutral_feedback","0","test","25","","","","","","","",""
"","","","","","","","","","","","html-button-response","57","2.0.0","64413","5f9b96ecd60b7a3d0c62e917","2","35","563","","","","","","","","","<img src= ""rock_img/I_Peridotite_04.jpg"" style=""width:8cm; height:6.680000000000001cm;""><p>What type of rock is this?</p>","1","class_response","0","test","26","Basalt","Peridotite","04","false","2","7","",""
"","","","","","","","","","","","html-keyboard-response","58","2.0.0","64915","5f9b96ecd60b7a3d0c62e917","2","35","null","","","","","","","","","<p style='font-size: 30px;'><strong>Okay</strong></p>","null","neutral_feedback","0","test","26","","","","","","","",""
"","","","","","","","","","","","html-button-response","59","2.0.0","65753","5f9b96ecd60b7a3d0c62e917","2","35","837","","","","","","","","","<img src= ""rock_img/I_Obsidian_04.jpg"" style=""width:8cm; height:6.930000000000001cm;""><p>What type of rock is this?</p>","4","class_response","0","test","27","Obsidian","Obsidian","04","true","5","5","",""
"","","","","","","","","","","","html-keyboard-response","60","2.0.0","66254","5f9b96ecd60b7a3d0c62e917","2","35","null","","","","","","","","","<p style='font-size: 30px;'><strong>Okay</strong></p>","null","neutral_feedback","0","test","27","","","","","","","",""
"","","","","","","","","","","","html-button-response","61","2.0.0","67031","5f9b96ecd60b7a3d0c62e917","2","35","776","","","","","","","","","<img src= ""rock_img/I_Obsidian_09.jpg"" style=""width:8cm; height:5cm;""><p>What type of rock is this?</p>","4","class_response","0","test","28","Obsidian","Obsidian","09","true","5","5","",""
"","","","","","","","","","","","html-keyboard-response","62","2.0.0","67536","5f9b96ecd60b7a3d0c62e917","2","35","null","","","","","","","","","<p style='font-size: 30px;'><strong>Okay</strong></p>","null","neutral_feedback","0","test","28","","","","","","","",""
"","","","","","","","","","","","html-button-response","63","2.0.0","68177","5f9b96ecd60b7a3d0c62e917","2","35","639","","","","","","","","","<img src= ""rock_img/I_Pegmatite_13.jpg"" style=""width:8cm; height:4.95cm;""><p>What type of rock is this?</p>","6","class_response","0","test","29","Peridotite","Pegmatite","13","false","7","6","",""
"","","","","","","","","","","","html-keyboard-response","64","2.0.0","68677","5f9b96ecd60b7a3d0c62e917","2","35","null","","","","","","","","","<p style='font-size: 30px;'><strong>Okay</strong></p>","null","neutral_feedback","0","test","29","","","","","","","",""
"","","","","","","","","","","","html-button-response","65","2.0.0","69472","5f9b96ecd60b7a3d0c62e917","2","35","794","","","","","","","","","<img src= ""rock_img/I_Basalt_04.jpg"" style=""width:8cm; height:7.53cm;""><p>What type of rock is this?</p>","4","class_response","0","test","30","Obsidian","Basalt","04","false","5","2","",""
"","","","","","","","","","","","html-keyboard-response","66","2.0.0","69974","5f9b96ecd60b7a3d0c62e917","2","35","null","","","","","","","","","<p style='font-size: 30px;'><strong>Okay</strong></p>","null","neutral_feedback","0","test","30","","","","","","","",""
"","","","","","","","","","","","html-button-response","67","2.0.0","70577","5f9b96ecd60b7a3d0c62e917","2","35","602","","","","","","","","","<img src= ""rock_img/I_Peridotite_13.jpg"" style=""width:8cm; height:7.58cm;""><p>What type of rock is this?</p>","2","class_response","0","test","31","Diorite","Peridotite","13","false","3","7","",""
"","","","","","","","","","","","html-keyboard-response","68","2.0.0","71079","5f9b96ecd60b7a3d0c62e917","2","35","null","","","","","","","","","<p style='font-size: 30px;'><strong>Okay</strong></p>","null","neutral_feedback","0","test","31","","","","","","","",""
"","","","","","","","","","","","html-button-response","69","2.0.0","71525","5f9b96ecd60b7a3d0c62e917","2","35","445","","","","","","","","","<img src= ""rock_img/I_Andesite_14.jpg"" style=""width:8cm; height:5.449999999999999cm;""><p>What type of rock is this?</p>","5","class_response","0","test","32","Pegmatite","Andesite","14","false","6","1","",""
"","","","","","","","","","","","html-keyboard-response","70","2.0.0","72026","5f9b96ecd60b7a3d0c62e917","2","35","null","","","","","","","","","<p style='font-size: 30px;'><strong>Okay</strong></p>","null","neutral_feedback","0","test","32","","","","","","","",""
"","","","","","","","","","","","html-button-response","71","2.0.0","72575","5f9b96ecd60b7a3d0c62e917","2","35","548","","","","","","","","","<img src= ""rock_img/I_Diorite_02.jpg"" style=""width:8cm; height:6.27cm;""><p>What type of rock is this?</p>","1","class_response","0","test","33","Basalt","Diorite","02","false","2","3","",""
"","","","","","","","","","","","html-keyboard-response","72","2.0.0","73077","5f9b96ecd60b7a3d0c62e917","2","35","null","","","","","","","","","<p style='font-size: 30px;'><strong>Okay</strong></p>","null","neutral_feedback","0","test","33","","","","","","","",""
"","","","","","","","","","","","html-button-response","73","2.0.0","73743","5f9b96ecd60b7a3d0c62e917","2","35","665","","","","","","","","","<img src= ""rock_img/I_Gabbro_10.jpg"" style=""width:8cm; height:5.680000000000001cm;""><p>What type of rock is this?</p>","3","class_response","0","test","34","Gabbro","Gabbro","10","true","4","4","",""
"","","","","","","","","","","","html-keyboard-response","74","2.0.0","74245","5f9b96ecd60b7a3d0c62e917","2","35","null","","","","","","","","","<p style='font-size: 30px;'><strong>Okay</strong></p>","null","neutral_feedback","0","test","34","","","","","","","",""
"","","","","","","","","","","","html-button-response","75","2.0.0","74653","5f9b96ecd60b7a3d0c62e917","2","35","407","","","","","","","","","<img src= ""rock_img/I_Basalt_02.jpg"" style=""width:8cm; height:6.45cm;""><p>What type of rock is this?</p>","2","class_response","0","test","35","Diorite","Basalt","02","false","3","2","",""
"","","","","","","","","","","","html-keyboard-response","76","2.0.0","75164","5f9b96ecd60b7a3d0c62e917","2","35","null","","","","","","","","","<p style='font-size: 30px;'><strong>Okay</strong></p>","null","neutral_feedback","0","test","35","","","","","","","",""
"","","","","","","","","","","","html-button-response","77","2.0.0","75601","5f9b96ecd60b7a3d0c62e917","2","35","436","","","","","","","","","<img src= ""rock_img/I_Pegmatite_06.jpg"" style=""width:8cm; height:5.17cm;""><p>What type of rock is this?</p>","6","class_response","0","test","36","Peridotite","Pegmatite","06","false","7","6","",""
"","","","","","","","","","","","html-keyboard-response","78","2.0.0","76107","5f9b96ecd60b7a3d0c62e917","2","35","null","","","","","","","","","<p style='font-size: 30px;'><strong>Okay</strong></p>","null","neutral_feedback","0","test","36","","","","","","","",""
"","","","","","","","","","","","html-button-response","79","2.0.0","76715","5f9b96ecd60b7a3d0c62e917","2","35","606","","","","","","","","","<img src= ""rock_img/I_Peridotite_02.jpg"" style=""width:8cm; height:5.859999999999999cm;""><p>What type of rock is this?</p>","1","class_response","0","test","37","Basalt","Peridotite","02","false","2","7","",""
"","","","","","","","","","","","html-keyboard-response","80","2.0.0","77226","5f9b96ecd60b7a3d0c62e917","2","35","null","","","","","","","","","<p style='font-size: 30px;'><strong>Okay</strong></p>","null","neutral_feedback","0","test","37","","","","","","","",""
"","","","","","","","","","","","html-button-response","81","2.0.0","77727","5f9b96ecd60b7a3d0c62e917","2","35","500","","","","","","","","","<img src= ""rock_img/I_Peridotite_12.jpg"" style=""width:8cm; height:4.54cm;""><p>What type of rock is this?</p>","6","class_response","0","test","38","Peridotite","Peridotite","12","true","7","7","",""
"","","","","","","","","","","","html-keyboard-response","82","2.0.0","78232","5f9b96ecd60b7a3d0c62e917","2","35","null","","","","","","","","","<p style='font-size: 30px;'><strong>Okay</strong></p>","null","neutral_feedback","0","test","38","","","","","","","",""
"","","","","","","","","","","","html-button-response","83","2.0.0","79083","5f9b96ecd60b7a3d0c62e917","2","35","849","","","","","","","","","<img src= ""rock_img/I_Gabbro_03.jpg"" style=""width:8cm; height:8.52cm;""><p>What type of rock is this?</p>","2","class_response","0","test","39","Diorite","Gabbro","03","false","3","4","",""
"","","","","","","","","","","","html-keyboard-response","84","2.0.0","79590","5f9b96ecd60b7a3d0c62e917","2","35","null","","","","","","","","","<p style='font-size: 30px;'><strong>Okay</strong></p>","null","neutral_feedback","0","test","39","","","","","","","",""
"","","","","","","","","","","","html-button-response","85","2.0.0","80471","5f9b96ecd60b7a3d0c62e917","2","35","880","","","","","","","","","<img src= ""rock_img/I_Obsidian_02.jpg"" style=""width:8cm; height:7.51cm;""><p>What type of rock is this?</p>","4","class_response","0","test","40","Obsidian","Obsidian","02","true","5","5","",""
"","","","","","","","","","","","html-keyboard-response","86","2.0.0","80976","5f9b96ecd60b7a3d0c62e917","2","35","null","","","","","","","","","<p style='font-size: 30px;'><strong>Okay</strong></p>","null","neutral_feedback","0","test","40","","","","","","","",""
"","","","","","","","","","","","html-button-response","87","2.0.0","81553","5f9b96ecd60b7a3d0c62e917","2","35","575","","","","","","","","","<img src= ""rock_img/I_Andesite_16.jpg"" style=""width:8cm; height:6.010000000000001cm;""><p>What type of rock is this?</p>","4","class_response","0","test","41","Obsidian","Andesite","16","false","5","1","",""
"","","","","","","","","","","","html-keyboard-response","88","2.0.0","82056","5f9b96ecd60b7a3d0c62e917","2","35","null","","","","","","","","","<p style='font-size: 30px;'><strong>Okay</strong></p>","null","neutral_feedback","0","test","41","","","","","","","",""
"","","","","","","","","","","","html-button-response","89","2.0.0","82503","5f9b96ecd60b7a3d0c62e917","2","35","446","","","","","","","","","<img src= ""rock_img/I_Pumice_14.jpg"" style=""width:8cm; height:6.39cm;""><p>What type of rock is this?</p>","1","class_response","0","test","42","Basalt","Pumice","14","false","2","8","",""
"","","","","","","","","","","","html-keyboard-response","90","2.0.0","83005","5f9b96ecd60b7a3d0c62e917","2","35","null","","","","","","","","","<p style='font-size: 30px;'><strong>Okay</strong></p>","null","neutral_feedback","0","test","42","","","","","","","",""
"","","","","","","","","","","","html-button-response","91","2.0.0","83325","5f9b96ecd60b7a3d0c62e917","2","35","318","","","","","","","","","<img src= ""rock_img/I_Basalt_12.jpg"" style=""width:8cm; height:6.010000000000001cm;""><p>What type of rock is this?</p>","5","class_response","0","test","43","Pegmatite","Basalt","12","false","6","2","",""
"","","","","","","","","","","","html-keyboard-response","92","2.0.0","83826","5f9b96ecd60b7a3d0c62e917","2","35","null","","","","","","","","","<p style='font-size: 30px;'><strong>Okay</strong></p>","null","neutral_feedback","0","test","43","","","","","","","",""
"","","","","","","","","","","","html-button-response","93","2.0.0","84379","5f9b96ecd60b7a3d0c62e917","2","35","552","","","","","","","","","<img src= ""rock_img/I_Pumice_04.jpg"" style=""width:8cm; height:6.819999999999999cm;""><p>What type of rock is this?</p>","0","class_response","0","test","44","Andesite","Pumice","04","false","1","8","",""
"","","","","","","","","","","","html-keyboard-response","94","2.0.0","84880","5f9b96ecd60b7a3d0c62e917","2","35","null","","","","","","","","","<p style='font-size: 30px;'><strong>Okay</strong></p>","null","neutral_feedback","0","test","44","","","","","","","",""
"","","","","","","","","","","","html-button-response","95","2.0.0","85295","5f9b96ecd60b7a3d0c62e917","2","35","413","","","","","","","","","<img src= ""rock_img/I_Pegmatite_16.jpg"" style=""width:8cm; height:5.8cm;""><p>What type of rock is this?</p>","6","class_response","0","test","45","Peridotite","Pegmatite","16","false","7","6","",""
"","","","","","","","","","","","html-keyboard-response","96","2.0.0","85797","5f9b96ecd60b7a3d0c62e917","2","35","null","","","","","","","","","<p style='font-size: 30px;'><strong>Okay</strong></p>","null","neutral_feedback","0","test","45","","","","","","","",""
"","","","","","","","","","","","html-button-response","97","2.0.0","86565","5f9b96ecd60b7a3d0c62e917","2","35","767","","","","","","","","","<img src= ""rock_img/I_Pumice_05.jpg"" style=""width:8cm; height:7.25cm;""><p>What type of rock is this?</p>","1","class_response","0","test","46","Basalt","Pumice","05","false","2","8","",""
"","","","","","","","","","","","html-keyboard-response","98","2.0.0","87067","5f9b96ecd60b7a3d0c62e917","2","35","null","","","","","","","","","<p style='font-size: 30px;'><strong>Okay</strong></p>","null","neutral_feedback","0","test","46","","","","","","","",""
"","","","","","","","","","","","html-button-response","99","2.0.0","87693","5f9b96ecd60b7a3d0c62e917","2","35","624","","","","","","","","","<img src= ""rock_img/I_Gabbro_16.jpg"" style=""width:8cm; height:6.44cm;""><p>What type of rock is this?</p>","5","class_response","0","test","47","Pegmatite","Gabbro","16","false","6","4","",""
"","","","","","","","","","","","html-keyboard-response","100","2.0.0","88196","5f9b96ecd60b7a3d0c62e917","2","35","null","","","","","","","","","<p style='font-size: 30px;'><strong>Okay</strong></p>","null","neutral_feedback","0","test","47","","","","","","","",""
"","","","","","","","","","","","html-button-response","101","2.0.0","88745","5f9b96ecd60b7a3d0c62e917","2","35","548","","","","","","","","","<img src= ""rock_img/I_Basalt_16.jpg"" style=""width:8cm; height:7.659999999999999cm;""><p>What type of rock is this?</p>","2","class_response","0","test","48","Diorite","Basalt","16","false","3","2","",""
"","","","","","","","","","","","html-keyboard-response","102","2.0.0","89250","5f9b96ecd60b7a3d0c62e917","2","35","null","","","","","","","","","<p style='font-size: 30px;'><strong>Okay</strong></p>","null","neutral_feedback","0","test","48","","","","","","","",""
"","","","","","","","","","","","instructions","103","2.0.0","102357","5f9b96ecd60b7a3d0c62e917","2","35","13090","","","","","","","","[{""page_index"":0,""viewing_time"":6942},{""page_index"":1,""viewing_time"":3042},{""page_index"":2,""viewing_time"":3106}]","","","","","","","","","","","","","",""
"","","","","","","","","","","","html-button-response","104","2.0.0","103948","5f9b96ecd60b7a3d0c62e917","2","35","1591","","","","","","","","","","0","start_train","","","","","","","","","","",""
"","","","","","","","","","","","html-button-response","105","2.0.0","105063","5f9b96ecd60b7a3d0c62e917","2","35","1113","","","","","","","","","<img src= ""rock_img/I_Gabbro_08.jpg"" style=""width:8cm; height:5.15cm;""><p>What type of rock is this?</p>","1","class_response","1","train","1","Basalt","Gabbro","08","false","2","4","",""
"","","","","","","","","","","","html-button-response","106","2.0.0","106087","5f9b96ecd60b7a3d0c62e917","2","35","1018","","","","","","","","","<img src= rock_img/I_Gabbro_08.jpg style=""width:8cm; height:5.15cm;""><p style='font-size: 30px; color: red;'><strong>Incorrect!</strong></p><p style='font-size: 30px;'><strong>This rock is gabbro</strong></p>","0","corr_feedback","1","train","1","","","","","","","",""
"","","","","","","","","","","","html-button-response","107","2.0.0","107035","5f9b96ecd60b7a3d0c62e917","2","35","947","","","","","","","","","<img src= ""rock_img/I_Diorite_08.jpg"" style=""width:8cm; height:6.37cm;""><p>What type of rock is this?</p>","2","class_response","1","train","2","Diorite","Diorite","08","true","3","3","",""
"","","","","","","","","","","","html-button-response","108","2.0.0","107975","5f9b96ecd60b7a3d0c62e917","2","35","939","","","","","","","","","<img src= rock_img/I_Diorite_08.jpg style=""width:8cm; height:6.37cm;""><p style='font-size: 30px; color: green;'><strong>Correct!</strong></p><p style='font-size: 30px;'><strong>This rock is diorite</strong></p>","0","corr_feedback","1","train","2","","","","","","","",""
"","","","","","","","","","","","html-button-response","109","2.0.0","108863","5f9b96ecd60b7a3d0c62e917","2","35","887","","","","","","","","","<img src= ""rock_img/I_Peridotite_05.jpg"" style=""width:8cm; height:7.1499999999999995cm;""><p>What type of rock is this?</p>","5","class_response","1","train","3","Pegmatite","Peridotite","05","false","6","7","",""
"","","","","","","","","","","","html-button-response","110","2.0.0","109827","5f9b96ecd60b7a3d0c62e917","2","35","963","","","","","","","","","<img src= rock_img/I_Peridotite_05.jpg style=""width:8cm; height:7.1499999999999995cm;""><p style='font-size: 30px; color: red;'><strong>Incorrect!</strong></p><p style='font-size: 30px;'><strong>This rock is peridotite</strong></p>","0","corr_feedback","1","train","3","","","","","","","",""
"","","","","","","","","","","","html-button-response","111","2.0.0","110665","5f9b96ecd60b7a3d0c62e917","2","35","837","","","","","","","","","<img src= ""rock_img/I_Pegmatite_12.jpg"" style=""width:8cm; height:5.7cm;""><p>What type of rock is this?</p>","6","class_response","1","train","4","Peridotite","Pegmatite","12","false","7","6","",""
"","","","","","","","","","","","html-button-response","112","2.0.0","111575","5f9b96ecd60b7a3d0c62e917","2","35","909","","","","","","","","","<img src= rock_img/I_Pegmatite_12.jpg style=""width:8cm; height:5.7cm;""><p style='font-size: 30px; color: red;'><strong>Incorrect!</strong></p><p style='font-size: 30px;'><strong>This rock is pegmatite</strong></p>","0","corr_feedback","1","train","4","","","","","","","",""
"","","","","","","","","","","","html-button-response","113","2.0.0","113041","5f9b96ecd60b7a3d0c62e917","2","35","1465","","","","","","","","","<img src= ""rock_img/I_Gabbro_09.jpg"" style=""width:8cm; height:7.279999999999999cm;""><p>What type of rock is this?</p>","4","class_response","1","train","5","Obsidian","Gabbro","09","false","5","4","",""
"","","","","","","","","","","","html-button-response","114","2.0.0","113803","5f9b96ecd60b7a3d0c62e917","2","35","761","","","","","","","","","<img src= rock_img/I_Gabbro_09.jpg style=""width:8cm; height:7.279999999999999cm;""><p style='font-size: 30px; color: red;'><strong>Incorrect!</strong></p><p style='font-size: 30px;'><strong>This rock is gabbro</strong></p>","0","corr_feedback","1","train","5","","","","","","","",""
"","","","","","","","","","","","html-button-response","115","2.0.0","114767","5f9b96ecd60b7a3d0c62e917","2","35","962","","","","","","","","","<img src= ""rock_img/I_Andesite_09.jpg"" style=""width:8cm; height:6cm;""><p>What type of rock is this?</p>","1","class_response","1","train","6","Basalt","Andesite","09","false","2","1","",""
"","","","","","","","","","","","html-button-response","116","2.0.0","115849","5f9b96ecd60b7a3d0c62e917","2","35","1081","","","","","","","","","<img src= rock_img/I_Andesite_09.jpg style=""width:8cm; height:6cm;""><p style='font-size: 30px; color: red;'><strong>Incorrect!</strong></p><p style='font-size: 30px;'><strong>This rock is andesite</strong></p>","0","corr_feedback","1","train","6","","","","","","","",""
"","","","","","","","","","","","html-button-response","117","2.0.0","116899","5f9b96ecd60b7a3d0c62e917","2","35","1049","","","","","","","","","<img src= ""rock_img/I_Obsidian_07.jpg"" style=""width:8cm; height:4.76cm;""><p>What type of rock is this?</p>","0","class_response","1","train","7","Andesite","Obsidian","07","false","1","5","",""
"","","","","","","","","","","","html-button-response","118","2.0.0","117717","5f9b96ecd60b7a3d0c62e917","2","35","817","","","","","","","","","<img src= rock_img/I_Obsidian_07.jpg style=""width:8cm; height:4.76cm;""><p style='font-size: 30px; color: red;'><strong>Incorrect!</strong></p><p style='font-size: 30px;'><strong>This rock is obsidian</strong></p>","0","corr_feedback","1","train","7","","","","","","","",""
"","","","","","","","","","","","html-button-response","119","2.0.0","118985","5f9b96ecd60b7a3d0c62e917","2","35","1267","","","","","","","","","<img src= ""rock_img/I_Basalt_08.jpg"" style=""width:8cm; height:10.44cm;""><p>What type of rock is this?</p>","5","class_response","1","train","8","Pegmatite","Basalt","08","false","6","2","",""
"","","","","","","","","","","","html-button-response","120","2.0.0","119849","5f9b96ecd60b7a3d0c62e917","2","35","863","","","","","","","","","<img src= rock_img/I_Basalt_08.jpg style=""width:8cm; height:10.44cm;""><p style='font-size: 30px; color: red;'><strong>Incorrect!</strong></p><p style='font-size: 30px;'><strong>This rock is basalt</strong></p>","0","corr_feedback","1","train","8","","","","","","","",""
"","","","","","","","","","","","html-button-response","121","2.0.0","120891","5f9b96ecd60b7a3d0c62e917","2","35","1041","","","","","","","","","<img src= ""rock_img/I_Pegmatite_05.jpg"" style=""width:8cm; height:7.300000000000001cm;""><p>What type of rock is this?</p>","3","class_response","1","train","9","Gabbro","Pegmatite","05","false","4","6","",""
"","","","","","","","","","","","html-button-response","122","2.0.0","121675","5f9b96ecd60b7a3d0c62e917","2","35","783","","","","","","","","","<img src= rock_img/I_Pegmatite_05.jpg style=""width:8cm; height:7.300000000000001cm;""><p style='font-size: 30px; color: red;'><strong>Incorrect!</strong></p><p style='font-size: 30px;'><strong>This rock is pegmatite</strong></p>","0","corr_feedback","1","train","9","","","","","","","",""
"","","","","","","","","","","","html-button-response","123","2.0.0","122687","5f9b96ecd60b7a3d0c62e917","2","35","1011","","","","","","","","","<img src= ""rock_img/I_Peridotite_08.jpg"" style=""width:8cm; height:6.7cm;""><p>What type of rock is this?</p>","6","class_response","1","train","10","Peridotite","Peridotite","08","true","7","7","",""
"","","","","","","","","","","","html-button-response","124","2.0.0","123565","5f9b96ecd60b7a3d0c62e917","2","35","877","","","","","","","","","<img src= rock_img/I_Peridotite_08.jpg style=""width:8cm; height:6.7cm;""><p style='font-size: 30px; color: green;'><strong>Correct!</strong></p><p style='font-size: 30px;'><strong>This rock is peridotite</strong></p>","0","corr_feedback","1","train","10","","","","","","","",""
"","","","","","","","","","","","html-button-response","125","2.0.0","124593","5f9b96ecd60b7a3d0c62e917","2","35","1027","","","","","","","","","<img src= ""rock_img/I_Peridotite_14.jpg"" style=""width:8cm; height:5.3cm;""><p>What type of rock is this?</p>","7","class_response","1","train","11","Pumice","Peridotite","14","false","8","7","",""
"","","","","","","","","","","","html-button-response","126","2.0.0","125393","5f9b96ecd60b7a3d0c62e917","2","35","799","","","","","","","","","<img src= rock_img/I_Peridotite_14.jpg style=""width:8cm; height:5.3cm;""><p style='font-size: 30px; color: red;'><strong>Incorrect!</strong></p><p style='font-size: 30px;'><strong>This rock is peridotite</strong></p>","0","corr_feedback","1","train","11","","","","","","","",""
"","","","","","","","","","","","html-button-response","127","2.0.0","126374","5f9b96ecd60b7a3d0c62e917","2","35","979","","","","","","","","","<img src= ""rock_img/I_Pegmatite_03.jpg"" style=""width:8cm; height:5.239999999999999cm;""><p>What type of rock is this?</p>","1","class_response","1","train","12","Basalt","Pegmatite","03","false","2","6","",""
"","","","","","","","","","","","html-button-response","128","2.0.0","127157","5f9b96ecd60b7a3d0c62e917","2","35","782","","","","","","","","","<img src= rock_img/I_Pegmatite_03.jpg style=""width:8cm; height:5.239999999999999cm;""><p style='font-size: 30px; color: red;'><strong>Incorrect!</strong></p><p style='font-size: 30px;'><strong>This rock is pegmatite</strong></p>","0","corr_feedback","1","train","12","","","","","","","",""
"","","","","","","","","","","","html-button-response","129","2.0.0","128099","5f9b96ecd60b7a3d0c62e917","2","35","941","","","","","","","","","<img src= ""rock_img/I_Peridotite_07.jpg"" style=""width:8cm; height:4.83cm;""><p>What type of rock is this?</p>","5","class_response","1","train","13","Pegmatite","Peridotite","07","false","6","7","",""
"","","","","","","","","","","","html-button-response","130","2.0.0","128953","5f9b96ecd60b7a3d0c62e917","2","35","852","","","","","","","","","<img src= rock_img/I_Peridotite_07.jpg style=""width:8cm; height:4.83cm;""><p style='font-size: 30px; color: red;'><strong>Incorrect!</strong></p><p style='font-size: 30px;'><strong>This rock is peridotite</strong></p>","0","corr_feedback","1","train","13","","","","","","","",""
"","","","","","","","","","","","html-button-response","131","2.0.0","129799","5f9b96ecd60b7a3d0c62e917","2","35","845","","","","","","","","","<img src= ""rock_img/I_Basalt_11.jpg"" style=""width:8cm; height:5.359999999999999cm;""><p>What type of rock is this?</p>","6","class_response","1","train","14","Peridotite","Basalt","11","false","7","2","",""
"","","","","","","","","","","","html-button-response","132","2.0.0","130577","5f9b96ecd60b7a3d0c62e917","2","35","777","","","","","","","","","<img src= rock_img/I_Basalt_11.jpg style=""width:8cm; height:5.359999999999999cm;""><p style='font-size: 30px; color: red;'><strong>Incorrect!</strong></p><p style='font-size: 30px;'><strong>This rock is basalt</strong></p>","0","corr_feedback","1","train","14","","","","","","","",""
"","","","","","","","","","","","html-button-response","133","2.0.0","131383","5f9b96ecd60b7a3d0c62e917","2","35","805","","","","","","","","","<img src= ""rock_img/I_Diorite_11.jpg"" style=""width:8cm; height:7.11cm;""><p>What type of rock is this?</p>","2","class_response","1","train","15","Diorite","Diorite","11","true","3","3","",""
"","","","","","","","","","","","html-button-response","134","2.0.0","132239","5f9b96ecd60b7a3d0c62e917","2","35","855","","","","","","","","","<img src= rock_img/I_Diorite_11.jpg style=""width:8cm; height:7.11cm;""><p style='font-size: 30px; color: green;'><strong>Correct!</strong></p><p style='font-size: 30px;'><strong>This rock is diorite</strong></p>","0","corr_feedback","1","train","15","","","","","","","",""
"","","","","","","","","","","","html-button-response","135","2.0.0","133265","5f9b96ecd60b7a3d0c62e917","2","35","1024","","","","","","","","","<img src= ""rock_img/I_Pumice_02.jpg"" style=""width:8cm; height:7.3999999999999995cm;""><p>What type of rock is this?</p>","1","class_response","1","train","16","Basalt","Pumice","02","false","2","8","",""
"","","","","","","","","","","","html-button-response","136","2.0.0","134003","5f9b96ecd60b7a3d0c62e917","2","35","737","","","","","","","","","<img src= rock_img/I_Pumice_02.jpg style=""width:8cm; height:7.3999999999999995cm;""><p style='font-size: 30px; color: red;'><strong>Incorrect!</strong></p><p style='font-size: 30px;'><strong>This rock is pumice</strong></p>","0","corr_feedback","1","train","16","","","","","","","",""
"","","","","","","","","","","","html-button-response","137","2.0.0","135085","5f9b96ecd60b7a3d0c62e917","2","35","1081","","","","","","","","","<img src= ""rock_img/I_Diorite_06.jpg"" style=""width:8cm; height:6.03cm;""><p>What type of rock is this?</p>","0","class_response","1","train","17","Andesite","Diorite","06","false","1","3","",""
"","","","","","","","","","","","html-button-response","138","2.0.0","135807","5f9b96ecd60b7a3d0c62e917","2","35","721","","","","","","","","","<img src= rock_img/I_Diorite_06.jpg style=""width:8cm; height:6.03cm;""><p style='font-size: 30px; color: red;'><strong>Incorrect!</strong></p><p style='font-size: 30px;'><strong>This rock is diorite</strong></p>","0","corr_feedback","1","train","17","","","","","","","",""
"","","","","","","","","","","","html-button-response","139","2.0.0","136849","5f9b96ecd60b7a3d0c62e917","2","35","1041","","","","","","","","","<img src= ""rock_img/I_Pegmatite_10.jpg"" style=""width:8cm; height:4.16cm;""><p>What type of rock is this?</p>","3","class_response","1","train","18","Gabbro","Pegmatite","10","false","4","6","",""
"","","","","","","","","","","","html-button-response","140","2.0.0","137695","5f9b96ecd60b7a3d0c62e917","2","35","845","","","","","","","","","<img src= rock_img/I_Pegmatite_10.jpg style=""width:8cm; height:4.16cm;""><p style='font-size: 30px; color: red;'><strong>Incorrect!</strong></p><p style='font-size: 30px;'><strong>This rock is pegmatite</strong></p>","0","corr_feedback","1","train","18","","","","","","","",""
"","","","","","","","","","","","html-button-response","141","2.0.0","138739","5f9b96ecd60b7a3d0c62e917","2","35","1042","","","","","","","","","<img src= ""rock_img/I_Pumice_10.jpg"" style=""width:8cm; height:7.609999999999999cm;""><p>What type of rock is this?</p>","7","class_response","1","train","19","Pumice","Pumice","10","true","8","8","",""
"","","","","","","","","","","","html-button-response","142","2.0.0","139625","5f9b96ecd60b7a3d0c62e917","2","35","885","","","","","","","","","<img src= rock_img/I_Pumice_10.jpg style=""width:8cm; height:7.609999999999999cm;""><p style='font-size: 30px; color: green;'><strong>Correct!</strong></p><p style='font-size: 30px;'><strong>This rock is pumice</strong></p>","0","corr_feedback","1","train","19","","","","","","","",""
"","","","","","","","","","","","html-button-response","143","2.0.0","140487","5f9b96ecd60b7a3d0c62e917","2","35","861","","","","","","","","","<img src= ""rock_img/I_Basalt_10.jpg"" style=""width:8cm; height:5.85cm;""><p>What type of rock is this?</p>","4","class_response","1","train","20","Obsidian","Basalt","10","false","5","2","",""
"","","","","","","","","","","","html-button-response","144","2.0.0","141185","5f9b96ecd60b7a3d0c62e917","2","35","697","","","","","","","","","<img src= rock_img/I_Basalt_10.jpg style=""width:8cm; height:5.85cm;""><p style='font-size: 30px; color: red;'><strong>Incorrect!</strong></p><p style='font-size: 30px;'><strong>This rock is basalt</strong></p>","0","corr_feedback","1","train","20","","","","","","","",""
"","","","","","","","","","","","html-button-response","145","2.0.0","142031","5f9b96ecd60b7a3d0c62e917","2","35","845","","","","","","","","","<img src= ""rock_img/I_Basalt_14.jpg"" style=""width:8cm; height:5.82cm;""><p>What type of rock is this?</p>","5","class_response","1","train","21","Pegmatite","Basalt","14","false","6","2","",""
"","","","","","","","","","","","html-button-response","146","2.0.0","142753","5f9b96ecd60b7a3d0c62e917","2","35","721","","","","","","","","","<img src= rock_img/I_Basalt_14.jpg style=""width:8cm; height:5.82cm;""><p style='font-size: 30px; color: red;'><strong>Incorrect!</strong></p><p style='font-size: 30px;'><strong>This rock is basalt</strong></p>","0","corr_feedback","1","train","21","","","","","","","",""
"","","","","","","","","","","","html-button-response","147","2.0.0","143695","5f9b96ecd60b7a3d0c62e917","2","35","941","","","","","","","","","<img src= ""rock_img/I_Diorite_13.jpg"" style=""width:8cm; height:6.29cm;""><p>What type of rock is this?</p>","2","class_response","1","train","22","Diorite","Diorite","13","true","3","3","",""
"","","","","","","","","","","","html-button-response","148","2.0.0","144431","5f9b96ecd60b7a3d0c62e917","2","35","735","","","","","","","","","<img src= rock_img/I_Diorite_13.jpg style=""width:8cm; height:6.29cm;""><p style='font-size: 30px; color: green;'><strong>Correct!</strong></p><p style='font-size: 30px;'><strong>This rock is diorite</strong></p>","0","corr_feedback","1","train","22","","","","","","","",""
"","","","","","","","","","","","html-button-response","149","2.0.0","145725","5f9b96ecd60b7a3d0c62e917","2","35","1293","","","","","","","","","<img src= ""rock_img/I_Pumice_03.jpg"" style=""width:8cm; height:6.64cm;""><p>What type of rock is this?</p>","3","class_response","1","train","23","Gabbro","Pumice","03","false","4","8","",""
"","","","","","","","","","","","html-button-response","150","2.0.0","146391","5f9b96ecd60b7a3d0c62e917","2","35","665","","","","","","","","","<img src= rock_img/I_Pumice_03.jpg style=""width:8cm; height:6.64cm;""><p style='font-size: 30px; color: red;'><strong>Incorrect!</strong></p><p style='font-size: 30px;'><strong>This rock is pumice</strong></p>","0","corr_feedback","1","train","23","","","","","","","",""
"","","","","","","","","","","","html-button-response","151","2.0.0","147349","5f9b96ecd60b7a3d0c62e917","2","35","957","","","","","","","","","<img src= ""rock_img/I_Andesite_01.jpg"" style=""width:8cm; height:5.87cm;""><p>What type of rock is this?</p>","4","class_response","1","train","24","Obsidian","Andesite","01","false","5","1","",""
"","","","","","","","","","","","html-button-response","152","2.0.0","148007","5f9b96ecd60b7a3d0c62e917","2","35","657","","","","","","","","","<img src= rock_img/I_Andesite_01.jpg style=""width:8cm; height:5.87cm;""><p style='font-size: 30px; color: red;'><strong>Incorrect!</strong></p><p style='font-size: 30px;'><strong>This rock is andesite</strong></p>","0","corr_feedback","1","train","24","","","","","","","",""
"","","","","","","","","","","","html-button-response","153","2.0.0","148728","5f9b96ecd60b7a3d0c62e917","2","35","720","","","","","","","","","<img src= ""rock_img/I_Pegmatite_15.jpg"" style=""width:8cm; height:6cm;""><p>What type of rock is this?</p>","1","class_response","1","train","25","Basalt","Pegmatite","15","false","2","6","",""
"","","","","","","","","","","","html-button-response","154","2.0.0","149403","5f9b96ecd60b7a3d0c62e917","2","35","673","","","","","","","","","<img src= rock_img/I_Pegmatite_15.jpg style=""width:8cm; height:6cm;""><p style='font-size: 30px; color: red;'><strong>Incorrect!</strong></p><p style='font-size: 30px;'><strong>This rock is pegmatite</strong></p>","0","corr_feedback","1","train","25","","","","","","","",""
"","","","","","","","","","","","html-button-response","155","2.0.0","150109","5f9b96ecd60b7a3d0c62e917","2","35","705","","","","","","","","","<img src= ""rock_img/I_Basalt_11.jpg"" style=""width:8cm; height:5.359999999999999cm;""><p>What type of rock is this?</p>","6","class_response","1","train","26","Peridotite","Basalt","11","false","7","2","",""
"","","","","","","","","","","","html-button-response","156","2.0.0","150681","5f9b96ecd60b7a3d0c62e917","2","35","571","","","","","","","","","<img src= rock_img/I_Basalt_11.jpg style=""width:8cm; height:5.359999999999999cm;""><p style='font-size: 30px; color: red;'><strong>Incorrect!</strong></p><p style='font-size: 30px;'><strong>This rock is basalt</strong></p>","0","corr_feedback","1","train","26","","","","","","","",""
"","","","","","","","","","","","html-button-response","157","2.0.0","151317","5f9b96ecd60b7a3d0c62e917","2","35","634","","","","","","","","","<img src= ""rock_img/I_Andesite_07.jpg"" style=""width:8cm; height:5.93cm;""><p>What type of rock is this?</p>","5","class_response","1","train","27","Pegmatite","Andesite","07","false","6","1","",""
"","","","","","","","","","","","html-button-response","158","2.0.0","151905","5f9b96ecd60b7a3d0c62e917","2","35","587","","","","","","","","","<img src= rock_img/I_Andesite_07.jpg style=""width:8cm; height:5.93cm;""><p style='font-size: 30px; color: red;'><strong>Incorrect!</strong></p><p style='font-size: 30px;'><strong>This rock is andesite</strong></p>","0","corr_feedback","1","train","27","","","","","","","",""
"","","","","","","","","","","","html-button-response","159","2.0.0","152735","5f9b96ecd60b7a3d0c62e917","2","35","829","","","","","","","","","<img src= ""rock_img/I_Andesite_05.jpg"" style=""width:8cm; height:4.12cm;""><p>What type of rock is this?</p>","2","class_response","1","train","28","Diorite","Andesite","05","false","3","1","",""
"","","","","","","","","","","","html-button-response","160","2.0.0","153331","5f9b96ecd60b7a3d0c62e917","2","35","595","","","","","","","","","<img src= rock_img/I_Andesite_05.jpg style=""width:8cm; height:4.12cm;""><p style='font-size: 30px; color: red;'><strong>Incorrect!</strong></p><p style='font-size: 30px;'><strong>This rock is andesite</strong></p>","0","corr_feedback","1","train","28","","","","","","","",""
"","","","","","","","","","","","html-button-response","161","2.0.0","153968","5f9b96ecd60b7a3d0c62e917","2","35","635","","","","","","","","","<img src= ""rock_img/I_Andesite_09.jpg"" style=""width:8cm; height:6cm;""><p>What type of rock is this?</p>","1","class_response","1","train","29","Basalt","Andesite","09","false","2","1","",""
"","","","","","","","","","","","html-button-response","162","2.0.0","154601","5f9b96ecd60b7a3d0c62e917","2","35","632","","","","","","","","","<img src= rock_img/I_Andesite_09.jpg style=""width:8cm; height:6cm;""><p style='font-size: 30px; color: red;'><strong>Incorrect!</strong></p><p style='font-size: 30px;'><strong>This rock is andesite</strong></p>","0","corr_feedback","1","train","29","","","","","","","",""
"","","","","","","","","","","","html-button-response","163","2.0.0","155463","5f9b96ecd60b7a3d0c62e917","2","35","861","","","","","","","","","<img src= ""rock_img/I_Pumice_08.jpg"" style=""width:8cm; height:6.67cm;""><p>What type of rock is this?</p>","7","class_response","1","train","30","Pumice","Pumice","08","true","8","8","",""
"","","","","","","","","","","","html-button-response","164","2.0.0","156201","5f9b96ecd60b7a3d0c62e917","2","35","736","","","","","","","","","<img src= rock_img/I_Pumice_08.jpg style=""width:8cm; height:6.67cm;""><p style='font-size: 30px; color: green;'><strong>Correct!</strong></p><p style='font-size: 30px;'><strong>This rock is pumice</strong></p>","0","corr_feedback","1","train","30","","","","","","","",""
"","","","","","","","","","","","html-button-response","165","2.0.0","157471","5f9b96ecd60b7a3d0c62e917","2","35","1269","","","","","","","","","<img src= ""rock_img/I_Obsidian_12.jpg"" style=""width:8cm; height:6.53cm;""><p>What type of rock is this?</p>","4","class_response","1","train","31","Obsidian","Obsidian","12","true","5","5","",""
"","","","","","","","","","","","html-button-response","166","2.0.0","158075","5f9b96ecd60b7a3d0c62e917","2","35","603","","","","","","","","","<img src= rock_img/I_Obsidian_12.jpg style=""width:8cm; height:6.53cm;""><p style='font-size: 30px; color: green;'><strong>Correct!</strong></p><p style='font-size: 30px;'><strong>This rock is obsidian</strong></p>","0","corr_feedback","1","train","31","","","","","","","",""
"","","","","","","","","","","","html-button-response","167","2.0.0","159667","5f9b96ecd60b7a3d0c62e917","2","35","1591","","","","","","","","","<img src= ""rock_img/I_Andesite_10.jpg"" style=""width:8cm; height:4.16cm;""><p>What type of rock is this?</p>","5","class_response","1","train","32","Pegmatite","Andesite","10","false","6","1","",""
"","","","","","","","","","","","html-button-response","168","2.0.0","160176","5f9b96ecd60b7a3d0c62e917","2","35","509","","","","","","","","","<img src= rock_img/I_Andesite_10.jpg style=""width:8cm; height:4.16cm;""><p style='font-size: 30px; color: red;'><strong>Incorrect!</strong></p><p style='font-size: 30px;'><strong>This rock is andesite</strong></p>","0","corr_feedback","1","train","32","","","","","","","",""
"","","","","","","","","","","","html-button-response","169","2.0.0","161047","5f9b96ecd60b7a3d0c62e917","2","35","869","","","","","","","","","<img src= ""rock_img/I_Gabbro_12.jpg"" style=""width:8cm; height:7.800000000000001cm;""><p>What type of rock is this?</p>","2","class_response","1","train","33","Diorite","Gabbro","12","false","3","4","",""
"","","","","","","","","","","","html-button-response","170","2.0.0","161673","5f9b96ecd60b7a3d0c62e917","2","35","625","","","","","","","","","<img src= rock_img/I_Gabbro_12.jpg style=""width:8cm; height:7.800000000000001cm;""><p style='font-size: 30px; color: red;'><strong>Incorrect!</strong></p><p style='font-size: 30px;'><strong>This rock is gabbro</strong></p>","0","corr_feedback","1","train","33","","","","","","","",""
"","","","","","","","","","","","html-button-response","171","2.0.0","162771","5f9b96ecd60b7a3d0c62e917","2","35","1096","","","","","","","","","<img src= ""rock_img/I_Basalt_06.jpg"" style=""width:8cm; height:7.06cm;""><p>What type of rock is this?</p>","4","class_response","1","train","34","Obsidian","Basalt","06","false","5","2","",""
"","","","","","","","","","","","html-button-response","172","2.0.0","163375","5f9b96ecd60b7a3d0c62e917","2","35","602","","","","","","","","","<img src= rock_img/I_Basalt_06.jpg style=""width:8cm; height:7.06cm;""><p style='font-size: 30px; color: red;'><strong>Incorrect!</strong></p><p style='font-size: 30px;'><strong>This rock is basalt</strong></p>","0","corr_feedback","1","train","34","","","","","","","",""
"","","","","","","","","","","","html-button-response","173","2.0.0","164403","5f9b96ecd60b7a3d0c62e917","2","35","1027","","","","","","","","","<img src= ""rock_img/I_Pegmatite_08.jpg"" style=""width:8cm; height:7.68cm;""><p>What type of rock is this?</p>","5","class_response","1","train","35","Pegmatite","Pegmatite","08","true","6","6","",""
"","","","","","","","","","","","html-button-response","174","2.0.0","165045","5f9b96ecd60b7a3d0c62e917","2","35","640","","","","","","","","","<img src= rock_img/I_Pegmatite_08.jpg style=""width:8cm; height:7.68cm;""><p style='font-size: 30px; color: green;'><strong>Correct!</strong></p><p style='font-size: 30px;'><strong>This rock is pegmatite</strong></p>","0","corr_feedback","1","train","35","","","","","","","",""
"","","","","","","","","","","","html-button-response","175","2.0.0","166061","5f9b96ecd60b7a3d0c62e917","2","35","1011","","","","","","","","","<img src= ""rock_img/I_Pumice_06.jpg"" style=""width:8cm; height:6.9399999999999995cm;""><p>What type of rock is this?</p>","3","class_response","1","train","36","Gabbro","Pumice","06","false","4","8","",""
"","","","","","","","","","","","html-button-response","176","2.0.0","166641","5f9b96ecd60b7a3d0c62e917","2","35","579","","","","","","","","","<img src= rock_img/I_Pumice_06.jpg style=""width:8cm; height:6.9399999999999995cm;""><p style='font-size: 30px; color: red;'><strong>Incorrect!</strong></p><p style='font-size: 30px;'><strong>This rock is pumice</strong></p>","0","corr_feedback","1","train","36","","","","","","","",""
"","","","","","","","","","","","html-button-response","177","2.0.0","167457","5f9b96ecd60b7a3d0c62e917","2","35","815","","","","","","","","","<img src= ""rock_img/I_Diorite_07.jpg"" style=""width:8cm; height:5.239999999999999cm;""><p>What type of rock is this?</p>","2","class_response","1","train","37","Diorite","Diorite","07","true","3","3","",""
"","","","","","","","","","","","html-button-response","178","2.0.0","168107","5f9b96ecd60b7a3d0c62e917","2","35","649","","","","","","","","","<img src= rock_img/I_Diorite_07.jpg style=""width:8cm; height:5.239999999999999cm;""><p style='font-size: 30px; color: green;'><strong>Correct!</strong></p><p style='font-size: 30px;'><strong>This rock is diorite</strong></p>","0","corr_feedback","1","train","37","","","","","","","",""
"","","","","","","","","","","","html-button-response","179","2.0.0","168971","5f9b96ecd60b7a3d0c62e917","2","35","863","","","","","","","","","<img src= ""rock_img/I_Pumice_16.jpg"" style=""width:8cm; height:6.79cm;""><p>What type of rock is this?</p>","6","class_response","1","train","38","Peridotite","Pumice","16","false","7","8","",""
"","","","","","","","","","","","html-button-response","180","2.0.0","169519","5f9b96ecd60b7a3d0c62e917","2","35","547","","","","","","","","","<img src= rock_img/I_Pumice_16.jpg style=""width:8cm; height:6.79cm;""><p style='font-size: 30px; color: red;'><strong>Incorrect!</strong></p><p style='font-size: 30px;'><strong>This rock is pumice</strong></p>","0","corr_feedback","1","train","38","","","","","","","",""
"","","","","","","","","","","","html-button-response","181","2.0.0","170303","5f9b96ecd60b7a3d0c62e917","2","35","783","","","","","","","","","<img src= ""rock_img/I_Diorite_10.jpg"" style=""width:8cm; height:5.949999999999999cm;""><p>What type of rock is this?</p>","1","class_response","1","train","39","Basalt","Diorite","10","false","2","3","",""
"","","","","","","","","","","","html-button-response","182","2.0.0","171049","5f9b96ecd60b7a3d0c62e917","2","35","745","","","","","","","","","<img src= rock_img/I_Diorite_10.jpg style=""width:8cm; height:5.949999999999999cm;""><p style='font-size: 30px; color: red;'><strong>Incorrect!</strong></p><p style='font-size: 30px;'><strong>This rock is diorite</strong></p>","0","corr_feedback","1","train","39","","","","","","","",""
"","","","","","","","","","","","html-button-response","183","2.0.0","172162","5f9b96ecd60b7a3d0c62e917","2","35","1112","","","","","","","","","<img src= ""rock_img/I_Andesite_06.jpg"" style=""width:8cm; height:6.840000000000001cm;""><p>What type of rock is this?</p>","7","class_response","1","train","40","Pumice","Andesite","06","false","8","1","",""
"","","","","","","","","","","","html-button-response","184","2.0.0","172735","5f9b96ecd60b7a3d0c62e917","2","35","571","","","","","","","","","<img src= rock_img/I_Andesite_06.jpg style=""width:8cm; height:6.840000000000001cm;""><p style='font-size: 30px; color: red;'><strong>Incorrect!</strong></p><p style='font-size: 30px;'><strong>This rock is andesite</strong></p>","0","corr_feedback","1","train","40","","","","","","","",""
"","","","","","","","","","","","html-button-response","185","2.0.0","173785","5f9b96ecd60b7a3d0c62e917","2","35","1049","","","","","","","","","<img src= ""rock_img/I_Obsidian_05.jpg"" style=""width:8cm; height:6.33cm;""><p>What type of rock is this?</p>","4","class_response","1","train","41","Obsidian","Obsidian","05","true","5","5","",""
"","","","","","","","","","","","html-button-response","186","2.0.0","174453","5f9b96ecd60b7a3d0c62e917","2","35","667","","","","","","","","","<img src= rock_img/I_Obsidian_05.jpg style=""width:8cm; height:6.33cm;""><p style='font-size: 30px; color: green;'><strong>Correct!</strong></p><p style='font-size: 30px;'><strong>This rock is obsidian</strong></p>","0","corr_feedback","1","train","41","","","","","","","",""
"","","","","","","","","","","","html-button-response","187","2.0.0","175119","5f9b96ecd60b7a3d0c62e917","2","35","664","","","","","","","","","<img src= ""rock_img/I_Gabbro_13.jpg"" style=""width:8cm; height:5.08cm;""><p>What type of rock is this?</p>","1","class_response","1","train","42","Basalt","Gabbro","13","false","2","4","",""
"","","","","","","","","","","","html-button-response","188","2.0.0","175747","5f9b96ecd60b7a3d0c62e917","2","35","626","","","","","","","","","<img src= rock_img/I_Gabbro_13.jpg style=""width:8cm; height:5.08cm;""><p style='font-size: 30px; color: red;'><strong>Incorrect!</strong></p><p style='font-size: 30px;'><strong>This rock is gabbro</strong></p>","0","corr_feedback","1","train","42","","","","","","","",""
"","","","","","","","","","","","html-button-response","189","2.0.0","176703","5f9b96ecd60b7a3d0c62e917","2","35","954","","","","","","","","","<img src= ""rock_img/I_Basalt_06.jpg"" style=""width:8cm; height:7.06cm;""><p>What type of rock is this?</p>","2","class_response","1","train","43","Diorite","Basalt","06","false","3","2","",""
"","","","","","","","","","","","html-button-response","190","2.0.0","177243","5f9b96ecd60b7a3d0c62e917","2","35","539","","","","","","","","","<img src= rock_img/I_Basalt_06.jpg style=""width:8cm; height:7.06cm;""><p style='font-size: 30px; color: red;'><strong>Incorrect!</strong></p><p style='font-size: 30px;'><strong>This rock is basalt</strong></p>","0","corr_feedback","1","train","43","","","","","","","",""
"","","","","","","","","","","","html-button-response","191","2.0.0","178327","5f9b96ecd60b7a3d0c62e917","2","35","1083","","","","","","","","","<img src= ""rock_img/I_Gabbro_05.jpg"" style=""width:8cm; height:6cm;""><p>What type of rock is this?</p>","5","class_response","1","train","44","Pegmatite","Gabbro","05","false","6","4","",""
"","","","","","","","","","","","html-button-response","192","2.0.0","178875","5f9b96ecd60b7a3d0c62e917","2","35","546","","","","","","","","","<img src= rock_img/I_Gabbro_05.jpg style=""width:8cm; height:6cm;""><p style='font-size: 30px; color: red;'><strong>Incorrect!</strong></p><p style='font-size: 30px;'><strong>This rock is gabbro</strong></p>","0","corr_feedback","1","train","44","","","","","","","",""
"","","","","","","","","","","","html-button-response","193","2.0.0","180043","5f9b96ecd60b7a3d0c62e917","2","35","1167","","","","","","","","","<img src= ""rock_img/I_Gabbro_14.jpg"" style=""width:8cm; height:8.48cm;""><p>What type of rock is this?</p>","6","class_response","1","train","45","Peridotite","Gabbro","14","false","7","4","",""
"","","","","","","","","","","","html-button-response","194","2.0.0","180593","5f9b96ecd60b7a3d0c62e917","2","35","549","","","","","","","","","<img src= rock_img/I_Gabbro_14.jpg style=""width:8cm; height:8.48cm;""><p style='font-size: 30px; color: red;'><strong>Incorrect!</strong></p><p style='font-size: 30px;'><strong>This rock is gabbro</strong></p>","0","corr_feedback","1","train","45","","","","","","","",""
"","","","","","","","","","","","html-button-response","195","2.0.0","181377","5f9b96ecd60b7a3d0c62e917","2","35","783","","","","","","","","","<img src= ""rock_img/I_Peridotite_15.jpg"" style=""width:8cm; height:6cm;""><p>What type of rock is this?</p>","2","class_response","1","train","46","Diorite","Peridotite","15","false","3","7","",""
"","","","","","","","","","","","html-button-response","196","2.0.0","181981","5f9b96ecd60b7a3d0c62e917","2","35","602","","","","","","","","","<img src= rock_img/I_Peridotite_15.jpg style=""width:8cm; height:6cm;""><p style='font-size: 30px; color: red;'><strong>Incorrect!</strong></p><p style='font-size: 30px;'><strong>This rock is peridotite</strong></p>","0","corr_feedback","1","train","46","","","","","","","",""
"","","","","","","","","","","","html-button-response","197","2.0.0","182765","5f9b96ecd60b7a3d0c62e917","2","35","782","","","","","","","","","<img src= ""rock_img/I_Basalt_05.jpg"" style=""width:8cm; height:8.18cm;""><p>What type of rock is this?</p>","6","class_response","1","train","47","Peridotite","Basalt","05","false","7","2","",""
"","","","","","","","","","","","html-button-response","198","2.0.0","183399","5f9b96ecd60b7a3d0c62e917","2","35","633","","","","","","","","","<img src= rock_img/I_Basalt_05.jpg style=""width:8cm; height:8.18cm;""><p style='font-size: 30px; color: red;'><strong>Incorrect!</strong></p><p style='font-size: 30px;'><strong>This rock is basalt</strong></p>","0","corr_feedback","1","train","47","","","","","","","",""
"","","","","","","","","","","","html-button-response","199","2.0.0","184669","5f9b96ecd60b7a3d0c62e917","2","35","1269","","","","","","","","","<img src= ""rock_img/I_Peridotite_10.jpg"" style=""width:8cm; height:5.390000000000001cm;""><p>What type of rock is this?</p>","2","class_response","1","train","48","Diorite","Peridotite","10","false","3","7","",""
"","","","","","","","","","","","html-button-response","200","2.0.0","185219","5f9b96ecd60b7a3d0c62e917","2","35","549","","","","","","","","","<img src= rock_img/I_Peridotite_10.jpg style=""width:8cm; height:5.390000000000001cm;""><p style='font-size: 30px; color: red;'><strong>Incorrect!</strong></p><p style='font-size: 30px;'><strong>This rock is peridotite</strong></p>","0","corr_feedback","1","train","48","","","","","","","",""
"","","","","","","","","","","","instructions","203","2.0.0","196275","5f9b96ecd60b7a3d0c62e917","2","35","11055","","","","","","","","[{""page_index"":0,""viewing_time"":4021},{""page_index"":1,""viewing_time"":7034}]","","","","","","","","","","","","","",""
"","","","","","","","","","","","html-button-response","204","2.0.0","197499","5f9b96ecd60b7a3d0c62e917","2","35","1223","","","","","","","","","","0","start_test","","","","","","","","","","",""
"","","","","","","","","","","","html-button-response","205","2.0.0","199145","5f9b96ecd60b7a3d0c62e917","2","35","1645","","","","","","","","","<img src= ""rock_img/I_Pumice_14.jpg"" style=""width:8cm; height:6.39cm;""><p>What type of rock is this?</p>","5","class_response","1","test","1","Pegmatite","Pumice","14","false","6","8","",""
"","","","","","","","","","","","html-keyboard-response","206","2.0.0","199650","5f9b96ecd60b7a3d0c62e917","2","35","null","","","","","","","","","<p style='font-size: 30px;'><strong>Okay</strong></p>","null","neutral_feedback","1","test","1","","","","","","","",""
"","","","","","","","","","","","html-button-response","207","2.0.0","200431","5f9b96ecd60b7a3d0c62e917","2","35","779","","","","","","","","","<img src= ""rock_img/I_Peridotite_16.jpg"" style=""width:8cm; height:6.989999999999999cm;""><p>What type of rock is this?</p>","2","class_response","1","test","2","Diorite","Peridotite","16","false","3","7","",""
"","","","","","","","","","","","html-keyboard-response","208","2.0.0","200945","5f9b96ecd60b7a3d0c62e917","2","35","null","","","","","","","","","<p style='font-size: 30px;'><strong>Okay</strong></p>","null","neutral_feedback","1","test","2","","","","","","","",""
"","","","","","","","","","","","html-button-response","209","2.0.0","201733","5f9b96ecd60b7a3d0c62e917","2","35","786","","","","","","","","","<img src= ""rock_img/I_Peridotite_13.jpg"" style=""width:8cm; height:7.58cm;""><p>What type of rock is this?</p>","1","class_response","1","test","3","Basalt","Peridotite","13","false","2","7","",""
"","","","","","","","","","","","html-keyboard-response","210","2.0.0","202240","5f9b96ecd60b7a3d0c62e917","2","35","null","","","","","","","","","<p style='font-size: 30px;'><strong>Okay</strong></p>","null","neutral_feedback","1","test","3","","","","","","","",""
"","","","","","","","","","","","html-button-response","211","2.0.0","204147","5f9b96ecd60b7a3d0c62e917","2","35","1905","","","","","","","","","<img src= ""rock_img/I_Basalt_01.jpg"" style=""width:8cm; height:7.880000000000001cm;""><p>What type of rock is this?</p>","3","class_response","1","test","4","Gabbro","Basalt","01","false","4","2","",""
"","","","","","","","","","","","html-keyboard-response","212","2.0.0","204661","5f9b96ecd60b7a3d0c62e917","2","35","null","","","","","","","","","<p style='font-size: 30px;'><strong>Okay</strong></p>","null","neutral_feedback","1","test","4","","","","","","","",""
"","","","","","","","","","","","html-button-response","213","2.0.0","205717","5f9b96ecd60b7a3d0c62e917","2","35","1054","","","","","","","","","<img src= ""rock_img/I_Gabbro_01.jpg"" style=""width:8cm; height:5.21cm;""><p>What type of rock is this?</p>","6","class_response","1","test","5","Peridotite","Gabbro","01","false","7","4","",""
"","","","","","","","","","","","html-keyboard-response","214","2.0.0","206232","5f9b96ecd60b7a3d0c62e917","2","35","null","","","","","","","","","<p style='font-size: 30px;'><strong>Okay</strong></p>","null","neutral_feedback","1","test","5","","","","","","","",""
"","","","","","","","","","","","html-button-response","215","2.0.0","206813","5f9b96ecd60b7a3d0c62e917","2","35","579","","","","","","","","","<img src= ""rock_img/I_Diorite_12.jpg"" style=""width:8cm; height:4.88cm;""><p>What type of rock is this?</p>","2","class_response","1","test","6","Diorite","Diorite","12","true","3","3","",""
"","","","","","","","","","","","html-keyboard-response","216","2.0.0","207327","5f9b96ecd60b7a3d0c62e917","2","35","null","","","","","","","","","<p style='font-size: 30px;'><strong>Okay</strong></p>","null","neutral_feedback","1","test","6","","","","","","","",""
"","","","","","","","","","","","html-button-response","217","2.0.0","208319","5f9b96ecd60b7a3d0c62e917","2","35","991","","","","","","","","","<img src= ""rock_img/I_Pegmatite_11.jpg"" style=""width:8cm; height:8.14cm;""><p>What type of rock is this?</p>","3","class_response","1","test","7","Gabbro","Pegmatite","11","false","4","6","",""
"","","","","","","","","","","","html-keyboard-response","218","2.0.0","208834","5f9b96ecd60b7a3d0c62e917","2","35","null","","","","","","","","","<p style='font-size: 30px;'><strong>Okay</strong></p>","null","neutral_feedback","1","test","7","","","","","","","",""
"","","","","","","","","","","","html-button-response","219","2.0.0","209699","5f9b96ecd60b7a3d0c62e917","2","35","863","","","","","","","","","<img src= ""rock_img/I_Pumice_05.jpg"" style=""width:8cm; height:7.25cm;""><p>What type of rock is this?</p>","1","class_response","1","test","8","Basalt","Pumice","05","false","2","8","",""
"","","","","","","","","","","","html-keyboard-response","220","2.0.0","210208","5f9b96ecd60b7a3d0c62e917","2","35","null","","","","","","","","","<p style='font-size: 30px;'><strong>Okay</strong></p>","null","neutral_feedback","1","test","8","","","","","","","",""
"","","","","","","","","","","","html-button-response","221","2.0.0","211267","5f9b96ecd60b7a3d0c62e917","2","35","1058","","","","","","","","","<img src= ""rock_img/I_Gabbro_10.jpg"" style=""width:8cm; height:5.680000000000001cm;""><p>What type of rock is this?</p>","4","class_response","1","test","9","Obsidian","Gabbro","10","false","5","4","",""
"","","","","","","","","","","","html-keyboard-response","222","2.0.0","211769","5f9b96ecd60b7a3d0c62e917","2","35","null","","","","","","","","","<p style='font-size: 30px;'><strong>Okay</strong></p>","null","neutral_feedback","1","test","9","","","","","","","",""
"","","","","","","","","","","","html-button-response","223","2.0.0","212553","5f9b96ecd60b7a3d0c62e917","2","35","782","","","","","","","","","<img src= ""rock_img/I_Obsidian_14.jpg"" style=""width:8cm; height:7.64cm;""><p>What type of rock is this?</p>","4","class_response","1","test","10","Obsidian","Obsidian","14","true","5","5","",""
"","","","","","","","","","","","html-keyboard-response","224","2.0.0","213057","5f9b96ecd60b7a3d0c62e917","2","35","null","","","","","","","","","<p style='font-size: 30px;'><strong>Okay</strong></p>","null","neutral_feedback","1","test","10","","","","","","","",""
"","","","","","","","","","","","html-button-response","225","2.0.0","213941","5f9b96ecd60b7a3d0c62e917","2","35","882","","","","","","","","","<img src= ""rock_img/I_Pegmatite_07.jpg"" style=""width:8cm; height:6.7cm;""><p>What type of rock is this?</p>","5","class_response","1","test","11","Pegmatite","Pegmatite","07","true","6","6","",""
"","","","","","","","","","","","html-keyboard-response","226","2.0.0","214445","5f9b96ecd60b7a3d0c62e917","2","35","null","","","","","","","","","<p style='font-size: 30px;'><strong>Okay</strong></p>","null","neutral_feedback","1","test","11","","","","","","","",""
"","","","","","","","","","","","html-button-response","227","2.0.0","215243","5f9b96ecd60b7a3d0c62e917","2","35","796","","","","","","","","","<img src= ""rock_img/I_Obsidian_09.jpg"" style=""width:8cm; height:5cm;""><p>What type of rock is this?</p>","4","class_response","1","test","12","Obsidian","Obsidian","09","true","5","5","",""
"","","","","","","","","","","","html-keyboard-response","228","2.0.0","215751","5f9b96ecd60b7a3d0c62e917","2","35","null","","","","","","","","","<p style='font-size: 30px;'><strong>Okay</strong></p>","null","neutral_feedback","1","test","12","","","","","","","",""
"","","","","","","","","","","","html-button-response","229","2.0.0","216426","5f9b96ecd60b7a3d0c62e917","2","35","674","","","","","","","","","<img src= ""rock_img/I_Andesite_11.jpg"" style=""width:8cm; height:4.92cm;""><p>What type of rock is this?</p>","0","class_response","1","test","13","Andesite","Andesite","11","true","1","1","",""
"","","","","","","","","","","","html-keyboard-response","230","2.0.0","216929","5f9b96ecd60b7a3d0c62e917","2","35","null","","","","","","","","","<p style='font-size: 30px;'><strong>Okay</strong></p>","null","neutral_feedback","1","test","13","","","","","","","",""
"","","","","","","","","","","","html-button-response","231","2.0.0","217838","5f9b96ecd60b7a3d0c62e917","2","35","909","","","","","","","","","<img src= ""rock_img/I_Peridotite_12.jpg"" style=""width:8cm; height:4.54cm;""><p>What type of rock is this?</p>","7","class_response","1","test","14","Pumice","Peridotite","12","false","8","7","",""
"","","","","","","","","","","","html-keyboard-response","232","2.0.0","218339","5f9b96ecd60b7a3d0c62e917","2","35","null","","","","","","","","","<p style='font-size: 30px;'><strong>Okay</strong></p>","null","neutral_feedback","1","test","14","","","","","","","",""
"","","","","","","","","","","","html-button-response","233","2.0.0","219109","5f9b96ecd60b7a3d0c62e917","2","35","769","","","","","","","","","<img src= ""rock_img/I_Diorite_14.jpg"" style=""width:8cm; height:5.71cm;""><p>What type of rock is this?</p>","2","class_response","1","test","15","Diorite","Diorite","14","true","3","3","",""
"","","","","","","","","","","","html-keyboard-response","234","2.0.0","219616","5f9b96ecd60b7a3d0c62e917","2","35","null","","","","","","","","","<p style='font-size: 30px;'><strong>Okay</strong></p>","null","neutral_feedback","1","test","15","","","","","","","",""
"","","","","","","","","","","","html-button-response","235","2.0.0","220135","5f9b96ecd60b7a3d0c62e917","2","35","518","","","","","","","","","<img src= ""rock_img/I_Basalt_12.jpg"" style=""width:8cm; height:6.010000000000001cm;""><p>What type of rock is this?</p>","6","class_response","1","test","16","Peridotite","Basalt","12","false","7","2","",""
"","","","","","","","","","","","html-keyboard-response","236","2.0.0","220637","5f9b96ecd60b7a3d0c62e917","2","35","null","","","","","","","","","<p style='font-size: 30px;'><strong>Okay</strong></p>","null","neutral_feedback","1","test","16","","","","","","","",""
"","","","","","","","","","","","html-button-response","237","2.0.0","221131","5f9b96ecd60b7a3d0c62e917","2","35","493","","","","","","","","","<img src= ""rock_img/I_Pumice_09.jpg"" style=""width:8cm; height:6.44cm;""><p>What type of rock is this?</p>","3","class_response","1","test","17","Gabbro","Pumice","09","false","4","8","",""
"","","","","","","","","","","","html-keyboard-response","238","2.0.0","221634","5f9b96ecd60b7a3d0c62e917","2","35","null","","","","","","","","","<p style='font-size: 30px;'><strong>Okay</strong></p>","null","neutral_feedback","1","test","17","","","","","","","",""
"","","","","","","","","","","","html-button-response","239","2.0.0","222315","5f9b96ecd60b7a3d0c62e917","2","35","679","","","","","","","","","<img src= ""rock_img/I_Gabbro_03.jpg"" style=""width:8cm; height:8.52cm;""><p>What type of rock is this?</p>","1","class_response","1","test","18","Basalt","Gabbro","03","false","2","4","",""
"","","","","","","","","","","","html-keyboard-response","240","2.0.0","222817","5f9b96ecd60b7a3d0c62e917","2","35","null","","","","","","","","","<p style='font-size: 30px;'><strong>Okay</strong></p>","null","neutral_feedback","1","test","18","","","","","","","",""
"","","","","","","","","","","","html-button-response","241","2.0.0","223633","5f9b96ecd60b7a3d0c62e917","2","35","815","","","","","","","","","<img src= ""rock_img/I_Diorite_16.jpg"" style=""width:8cm; height:6.74cm;""><p>What type of rock is this?</p>","2","class_response","1","test","19","Diorite","Diorite","16","true","3","3","",""
"","","","","","","","","","","","html-keyboard-response","242","2.0.0","224137","5f9b96ecd60b7a3d0c62e917","2","35","null","","","","","","","","","<p style='font-size: 30px;'><strong>Okay</strong></p>","null","neutral_feedback","1","test","19","","","","","","","",""
"","","","","","","","","","","","html-button-response","243","2.0.0","225295","5f9b96ecd60b7a3d0c62e917","2","35","1156","","","","","","","","","<img src= ""rock_img/I_Andesite_02.jpg"" style=""width:8cm; height:8.5cm;""><p>What type of rock is this?</p>","1","class_response","1","test","20","Basalt","Andesite","02","false","2","1","",""
"","","","","","","","","","","","html-keyboard-response","244","2.0.0","225797","5f9b96ecd60b7a3d0c62e917","2","35","null","","","","","","","","","<p style='font-size: 30px;'><strong>Okay</strong></p>","null","neutral_feedback","1","test","20","","","","","","","",""
"","","","","","","","","","","","html-button-response","245","2.0.0","226318","5f9b96ecd60b7a3d0c62e917","2","35","515","","","","","","","","","<img src= ""rock_img/I_Basalt_02.jpg"" style=""width:8cm; height:6.45cm;""><p>What type of rock is this?</p>","6","class_response","1","test","21","Peridotite","Basalt","02","false","7","2","",""
"","","","","","","","","","","","html-keyboard-response","246","2.0.0","226827","5f9b96ecd60b7a3d0c62e917","2","35","null","","","","","","","","","<p style='font-size: 30px;'><strong>Okay</strong></p>","null","neutral_feedback","1","test","21","","","","","","","",""
"","","","","","","","","","","","html-button-response","247","2.0.0","227362","5f9b96ecd60b7a3d0c62e917","2","35","534","","","","","","","","","<img src= ""rock_img/I_Diorite_02.jpg"" style=""width:8cm; height:6.27cm;""><p>What type of rock is this?</p>","6","class_response","1","test","22","Peridotite","Diorite","02","false","7","3","",""
"","","","","","","","","","","","html-keyboard-response","248","2.0.0","227865","5f9b96ecd60b7a3d0c62e917","2","35","null","","","","","","","","","<p style='font-size: 30px;'><strong>Okay</strong></p>","null","neutral_feedback","1","test","22","","","","","","","",""
"","","","","","","","","","","","html-button-response","249","2.0.0","228852","5f9b96ecd60b7a3d0c62e917","2","35","986","","","","","","","","","<img src= ""rock_img/I_Gabbro_16.jpg"" style=""width:8cm; height:6.44cm;""><p>What type of rock is this?</p>","2","class_response","1","test","23","Diorite","Gabbro","16","false","3","4","",""
"","","","","","","","","","","","html-keyboard-response","250","2.0.0","229362","5f9b96ecd60b7a3d0c62e917","2","35","null","","","","","","","","","<p style='font-size: 30px;'><strong>Okay</strong></p>","null","neutral_feedback","1","test","23","","","","","","","",""
"","","","","","","","","","","","html-button-response","251","2.0.0","229950","5f9b96ecd60b7a3d0c62e917","2","35","587","","","","","","","","","<img src= ""rock_img/I_Andesite_03.jpg"" style=""width:8cm; height:5.73cm;""><p>What type of rock is this?</p>","5","class_response","1","test","24","Pegmatite","Andesite","03","false","6","1","",""
"","","","","","","","","","","","html-keyboard-response","252","2.0.0","230465","5f9b96ecd60b7a3d0c62e917","2","35","null","","","","","","","","","<p style='font-size: 30px;'><strong>Okay</strong></p>","null","neutral_feedback","1","test","24","","","","","","","",""
"","","","","","","","","","","","html-button-response","253","2.0.0","231220","5f9b96ecd60b7a3d0c62e917","2","35","754","","","","","","","","","<img src= ""rock_img/I_Obsidian_10.jpg"" style=""width:8cm; height:6.260000000000001cm;""><p>What type of rock is this?</p>","4","class_response","1","test","25","Obsidian","Obsidian","10","true","5","5","",""
"","","","","","","","","","","","html-keyboard-response","254","2.0.0","231722","5f9b96ecd60b7a3d0c62e917","2","35","null","","","","","","","","","<p style='font-size: 30px;'><strong>Okay</strong></p>","null","neutral_feedback","1","test","25","","","","","","","",""
"","","","","","","","","","","","html-button-response","255","2.0.0","232482","5f9b96ecd60b7a3d0c62e917","2","35","759","","","","","","","","","<img src= ""rock_img/I_Obsidian_16.jpg"" style=""width:8cm; height:9.3cm;""><p>What type of rock is this?</p>","4","class_response","1","test","26","Obsidian","Obsidian","16","true","5","5","",""
"","","","","","","","","","","","html-keyboard-response","256","2.0.0","232984","5f9b96ecd60b7a3d0c62e917","2","35","null","","","","","","","","","<p style='font-size: 30px;'><strong>Okay</strong></p>","null","neutral_feedback","1","test","26","","","","","","","",""
"","","","","","","","","","","","html-button-response","257","2.0.0","233696","5f9b96ecd60b7a3d0c62e917","2","35","710","","","","","","","","","<img src= ""rock_img/I_Diorite_15.jpg"" style=""width:8cm; height:5.54cm;""><p>What type of rock is this?</p>","1","class_response","1","test","27","Basalt","Diorite","15","false","2","3","",""
"","","","","","","","","","","","html-keyboard-response","258","2.0.0","234203","5f9b96ecd60b7a3d0c62e917","2","35","null","","","","","","","","","<p style='font-size: 30px;'><strong>Okay</strong></p>","null","neutral_feedback","1","test","27","","","","","","","",""
"","","","","","","","","","","","html-button-response","259","2.0.0","235132","5f9b96ecd60b7a3d0c62e917","2","35","928","","","","","","","","","<img src= ""rock_img/I_Basalt_04.jpg"" style=""width:8cm; height:7.53cm;""><p>What type of rock is this?</p>","2","class_response","1","test","28","Diorite","Basalt","04","false","3","2","",""
"","","","","","","","","","","","html-keyboard-response","260","2.0.0","235633","5f9b96ecd60b7a3d0c62e917","2","35","null","","","","","","","","","<p style='font-size: 30px;'><strong>Okay</strong></p>","null","neutral_feedback","1","test","28","","","","","","","",""
"","","","","","","","","","","","html-button-response","261","2.0.0","236174","5f9b96ecd60b7a3d0c62e917","2","35","539","","","","","","","","","<img src= ""rock_img/I_Basalt_16.jpg"" style=""width:8cm; height:7.659999999999999cm;""><p>What type of rock is this?</p>","3","class_response","1","test","29","Gabbro","Basalt","16","false","4","2","",""
"","","","","","","","","","","","html-keyboard-response","262","2.0.0","236678","5f9b96ecd60b7a3d0c62e917","2","35","null","","","","","","","","","<p style='font-size: 30px;'><strong>Okay</strong></p>","null","neutral_feedback","1","test","29","","","","","","","",""
"","","","","","","","","","","","html-button-response","263","2.0.0","237194","5f9b96ecd60b7a3d0c62e917","2","35","514","","","","","","","","","<img src= ""rock_img/I_Pumice_04.jpg"" style=""width:8cm; height:6.819999999999999cm;""><p>What type of rock is this?</p>","1","class_response","1","test","30","Basalt","Pumice","04","false","2","8","",""
"","","","","","","","","","","","html-keyboard-response","264","2.0.0","237695","5f9b96ecd60b7a3d0c62e917","2","35","null","","","","","","","","","<p style='font-size: 30px;'><strong>Okay</strong></p>","null","neutral_feedback","1","test","30","","","","","","","",""
"","","","","","","","","","","","html-button-response","265","2.0.0","238566","5f9b96ecd60b7a3d0c62e917","2","35","870","","","","","","","","","<img src= ""rock_img/I_Pegmatite_06.jpg"" style=""width:8cm; height:5.17cm;""><p>What type of rock is this?</p>","6","class_response","1","test","31","Peridotite","Pegmatite","06","false","7","6","",""
"","","","","","","","","","","","html-keyboard-response","266","2.0.0","239068","5f9b96ecd60b7a3d0c62e917","2","35","null","","","","","","","","","<p style='font-size: 30px;'><strong>Okay</strong></p>","null","neutral_feedback","1","test","31","","","","","","","",""
"","","","","","","","","","","","html-button-response","267","2.0.0","239712","5f9b96ecd60b7a3d0c62e917","2","35","643","","","","","","","","","<img src= ""rock_img/I_Gabbro_11.jpg"" style=""width:8cm; height:6.2cm;""><p>What type of rock is this?</p>","0","class_response","1","test","32","Andesite","Gabbro","11","false","1","4","",""
"","","","","","","","","","","","html-keyboard-response","268","2.0.0","240213","5f9b96ecd60b7a3d0c62e917","2","35","null","","","","","","","","","<p style='font-size: 30px;'><strong>Okay</strong></p>","null","neutral_feedback","1","test","32","","","","","","","",""
"","","","","","","","","","","","html-button-response","269","2.0.0","240894","5f9b96ecd60b7a3d0c62e917","2","35","680","","","","","","","","","<img src= ""rock_img/I_Pegmatite_09.jpg"" style=""width:8cm; height:4.03cm;""><p>What type of rock is this?</p>","7","class_response","1","test","33","Pumice","Pegmatite","09","false","8","6","",""
"","","","","","","","","","","","html-keyboard-response","270","2.0.0","241397","5f9b96ecd60b7a3d0c62e917","2","35","null","","","","","","","","","<p style='font-size: 30px;'><strong>Okay</strong></p>","null","neutral_feedback","1","test","33","","","","","","","",""
"","","","","","","","","","","","html-button-response","271","2.0.0","242494","5f9b96ecd60b7a3d0c62e917","2","35","1095","","","","","","","","","<img src= ""rock_img/I_Pegmatite_13.jpg"" style=""width:8cm; height:4.95cm;""><p>What type of rock is this?</p>","1","class_response","1","test","34","Basalt","Pegmatite","13","false","2","6","",""
"","","","","","","","","","","","html-keyboard-response","272","2.0.0","242996","5f9b96ecd60b7a3d0c62e917","2","35","null","","","","","","","","","<p style='font-size: 30px;'><strong>Okay</strong></p>","null","neutral_feedback","1","test","34","","","","","","","",""
"","","","","","","","","","","","html-button-response","273","2.0.0","244016","5f9b96ecd60b7a3d0c62e917","2","35","1019","","","","","","","","","<img src= ""rock_img/I_Obsidian_04.jpg"" style=""width:8cm; height:6.930000000000001cm;""><p>What type of rock is this?</p>","4","class_response","1","test","35","Obsidian","Obsidian","04","true","5","5","",""
"","","","","","","","","","","","html-keyboard-response","274","2.0.0","244518","5f9b96ecd60b7a3d0c62e917","2","35","null","","","","","","","","","<p style='font-size: 30px;'><strong>Okay</strong></p>","null","neutral_feedback","1","test","35","","","","","","","",""
"","","","","","","","","","","","html-button-response","275","2.0.0","245002","5f9b96ecd60b7a3d0c62e917","2","35","483","","","","","","","","","<img src= ""rock_img/I_Peridotite_02.jpg"" style=""width:8cm; height:5.859999999999999cm;""><p>What type of rock is this?</p>","2","class_response","1","test","36","Diorite","Peridotite","02","false","3","7","",""
"","","","","","","","","","","","html-keyboard-response","276","2.0.0","245504","5f9b96ecd60b7a3d0c62e917","2","35","null","","","","","","","","","<p style='font-size: 30px;'><strong>Okay</strong></p>","null","neutral_feedback","1","test","36","","","","","","","",""
"","","","","","","","","","","","html-button-response","277","2.0.0","245968","5f9b96ecd60b7a3d0c62e917","2","35","463","","","","","","","","","<img src= ""rock_img/I_Andesite_16.jpg"" style=""width:8cm; height:6.010000000000001cm;""><p>What type of rock is this?</p>","1","class_response","1","test","37","Basalt","Andesite","16","false","2","1","",""
"","","","","","","","","","","","html-keyboard-response","278","2.0.0","246469","5f9b96ecd60b7a3d0c62e917","2","35","null","","","","","","","","","<p style='font-size: 30px;'><strong>Okay</strong></p>","null","neutral_feedback","1","test","37","","","","","","","",""
"","","","","","","","","","","","html-button-response","279","2.0.0","247246","5f9b96ecd60b7a3d0c62e917","2","35","775","","","","","","","","","<img src= ""rock_img/I_Basalt_09.jpg"" style=""width:8cm; height:6.2cm;""><p>What type of rock is this?</p>","3","class_response","1","test","38","Gabbro","Basalt","09","false","4","2","",""
"","","","","","","","","","","","html-keyboard-response","280","2.0.0","247760","5f9b96ecd60b7a3d0c62e917","2","35","null","","","","","","","","","<p style='font-size: 30px;'><strong>Okay</strong></p>","null","neutral_feedback","1","test","38","","","","","","","",""
"","","","","","","","","","","","html-button-response","281","2.0.0","248296","5f9b96ecd60b7a3d0c62e917","2","35","534","","","","","","","","","<img src= ""rock_img/I_Andesite_14.jpg"" style=""width:8cm; height:5.449999999999999cm;""><p>What type of rock is this?</p>","6","class_response","1","test","39","Peridotite","Andesite","14","false","7","1","",""
"","","","","","","","","","","","html-keyboard-response","282","2.0.0","248797","5f9b96ecd60b7a3d0c62e917","2","35","null","","","","","","","","","<p style='font-size: 30px;'><strong>Okay</strong></p>","null","neutral_feedback","1","test","39","","","","","","","",""
"","","","","","","","","","","","html-button-response","283","2.0.0","249590","5f9b96ecd60b7a3d0c62e917","2","35","791","","","","","","","","","<img src= ""rock_img/I_Gabbro_15.jpg"" style=""width:8cm; height:6.29cm;""><p>What type of rock is this?</p>","2","class_response","1","test","40","Diorite","Gabbro","15","false","3","4","",""
"","","","","","","","","","","","html-keyboard-response","284","2.0.0","250092","5f9b96ecd60b7a3d0c62e917","2","35","null","","","","","","","","","<p style='font-size: 30px;'><strong>Okay</strong></p>","null","neutral_feedback","1","test","40","","","","","","","",""
"","","","","","","","","","","","html-button-response","285","2.0.0","250922","5f9b96ecd60b7a3d0c62e917","2","35","829","","","","","","","","","<img src= ""rock_img/I_Pumice_13.jpg"" style=""width:8cm; height:8.200000000000001cm;""><p>What type of rock is this?</p>","1","class_response","1","test","41","Basalt","Pumice","13","false","2","8","",""
"","","","","","","","","","","","html-keyboard-response","286","2.0.0","251431","5f9b96ecd60b7a3d0c62e917","2","35","null","","","","","","","","","<p style='font-size: 30px;'><strong>Okay</strong></p>","null","neutral_feedback","1","test","41","","","","","","","",""
"","","","","","","","","","","","html-button-response","287","2.0.0","251974","5f9b96ecd60b7a3d0c62e917","2","35","542","","","","","","","","","<img src= ""rock_img/I_Andesite_04.jpg"" style=""width:8cm; height:5.96cm;""><p>What type of rock is this?</p>","6","class_response","1","test","42","Peridotite","Andesite","04","false","7","1","",""
"","","","","","","","","","","","html-keyboard-response","288","2.0.0","252487","5f9b96ecd60b7a3d0c62e917","2","35","null","","","","","","","","","<p style='font-size: 30px;'><strong>Okay</strong></p>","null","neutral_feedback","1","test","42","","","","","","","",""
"","","","","","","","","","","","html-button-response","289","2.0.0","253660","5f9b96ecd60b7a3d0c62e917","2","35","1171","","","","","","","","","<img src= ""rock_img/I_Pegmatite_16.jpg"" style=""width:8cm; height:5.8cm;""><p>What type of rock is this?</p>","0","class_response","1","test","43","Andesite","Pegmatite","16","false","1","6","",""
"","","","","","","","","","","","html-keyboard-response","290","2.0.0","254162","5f9b96ecd60b7a3d0c62e917","2","35","null","","","","","","","","","<p style='font-size: 30px;'><strong>Okay</strong></p>","null","neutral_feedback","1","test","43","","","","","","","",""
"","","","","","","","","","","","html-button-response","291","2.0.0","254812","5f9b96ecd60b7a3d0c62e917","2","35","649","","","","","","","","","<img src= ""rock_img/I_Peridotite_04.jpg"" style=""width:8cm; height:6.680000000000001cm;""><p>What type of rock is this?</p>","5","class_response","1","test","44","Pegmatite","Peridotite","04","false","6","7","",""
"","","","","","","","","","","","html-keyboard-response","292","2.0.0","255326","5f9b96ecd60b7a3d0c62e917","2","35","null","","","","","","","","","<p style='font-size: 30px;'><strong>Okay</strong></p>","null","neutral_feedback","1","test","44","","","","","","","",""
"","","","","","","","","","","","html-button-response","293","2.0.0","256176","5f9b96ecd60b7a3d0c62e917","2","35","849","","","","","","","","","<img src= ""rock_img/I_Pumice_15.jpg"" style=""width:8cm; height:7.86cm;""><p>What type of rock is this?</p>","7","class_response","1","test","45","Pumice","Pumice","15","true","8","8","",""
"","","","","","","","","","","","html-keyboard-response","294","2.0.0","256681","5f9b96ecd60b7a3d0c62e917","2","35","null","","","","","","","","","<p style='font-size: 30px;'><strong>Okay</strong></p>","null","neutral_feedback","1","test","45","","","","","","","",""
"","","","","","","","","","","","html-button-response","295","2.0.0","257572","5f9b96ecd60b7a3d0c62e917","2","35","889","","","","","","","","","<img src= ""rock_img/I_Obsidian_02.jpg"" style=""width:8cm; height:7.51cm;""><p>What type of rock is this?</p>","4","class_response","1","test","46","Obsidian","Obsidian","02","true","5","5","",""
"","","","","","","","","","","","html-keyboard-response","296","2.0.0","258085","5f9b96ecd60b7a3d0c62e917","2","35","null","","","","","","","","","<p style='font-size: 30px;'><strong>Okay</strong></p>","null","neutral_feedback","1","test","46","","","","","","","",""
"","","","","","","","","","","","html-button-response","297","2.0.0","259070","5f9b96ecd60b7a3d0c62e917","2","35","984","","","","","","","","","<img src= ""rock_img/I_Diorite_09.jpg"" style=""width:8cm; height:5.27cm;""><p>What type of rock is this?</p>","1","class_response","1","test","47","Basalt","Diorite","09","false","2","3","",""
"","","","","","","","","","","","html-keyboard-response","298","2.0.0","259571","5f9b96ecd60b7a3d0c62e917","2","35","null","","","","","","","","","<p style='font-size: 30px;'><strong>Okay</strong></p>","null","neutral_feedback","1","test","47","","","","","","","",""
"","","","","","","","","","","","html-button-response","299","2.0.0","260197","5f9b96ecd60b7a3d0c62e917","2","35","625","","","","","","","","","<img src= ""rock_img/I_Peridotite_06.jpg"" style=""width:8cm; height:7.53cm;""><p>What type of rock is this?</p>","2","class_response","1","test","48","Diorite","Peridotite","06","false","3","7","",""
"","","","","","","","","","","","html-keyboard-response","300","2.0.0","260705","5f9b96ecd60b7a3d0c62e917","2","35","null","","","","","","","","","<p style='font-size: 30px;'><strong>Okay</strong></p>","null","neutral_feedback","1","test","48","","","","","","","",""
"","","","","","","","","","","","html-button-response","301","2.0.0","281402","5f9b96ecd60b7a3d0c62e917","2","35","","","","","","","","","","","","cycle_feedback","","","","","","","","","","11769.20000000298","8923.79999999702"
"","","","","","","","","","","","html-button-response","303","2.0.0","283746","5f9b96ecd60b7a3d0c62e917","2","35","2343","","","","","","","","","","0","start_train","","","","","","","","","","",""
"","","","","","","","","","","","html-button-response","304","2.0.0","284775","5f9b96ecd60b7a3d0c62e917","2","35","1028","","","","","","","","","<img src= ""rock_img/I_Andesite_05.jpg"" style=""width:8cm; height:4.12cm;""><p>What type of rock is this?</p>","1","class_response","2","train","1","Basalt","Andesite","05","false","2","1","",""
