"width","height","webaudio","browser","browser_version","mobile","os","fullscreen","vsync_rate","webcam","microphone","trial_type","trial_index","plugin_version","time_elapsed","subjID","condition","stimID","rt","url","success","value","timeout","failed_images","failed_audio","failed_video","view_history","stimulus","response","trialType","cycle","phase","trial","resp","cat","token","corr","resp_num","cat_num","time_fb1","time_fb2"
"1536","695","true","chrome","130.0.0","false","Windows 10","true","60.33","true","true","browser-check","0","2.0.0","1010","665e49f8cb0ef6119208507d","2","36","","","","","","","","","","","","","","","","","","","","","","",""
"","","","","","","","","","","","external-html","1","2.0.0","542770","665e49f8cb0ef6119208507d","2","36","541000","consent_form.html","","","","","","","","","","","","","","","","","","","","",""
"","","","","","","","","","","","fullscreen","2","2.0.0","546311","665e49f8cb0ef6119208507d","2","36","2526","","true","","","","","","","","","","","","","","","","","","","",""
"","","","","","","","","","","","call-function","3","2.0.0","546315","665e49f8cb0ef6119208507d","2","36","","","","{}","","","","","","","","","","","","","","","","","","",""
"","","","","","","","","","","","preload","4","2.0.0","569779","665e49f8cb0ef6119208507d","2","36","","","true","","false","[]","[]","[]","","","","","","","","","","","","","","",""
"","","","","","","","","","","","instructions","5","2.0.0","686736","665e49f8cb0ef6119208507d","2","36","116955","","","","","","","","[{""page_index"":0,""viewing_time"":7311},{""page_index"":1,""viewing_time"":44594},{""page_index"":2,""viewing_time"":7393},{""page_index"":1,""viewing_time"":52873},{""page_index"":2,""viewing_time"":4784}]","","","","","","","","","","","","","",""
"","","","","","","","","","","","html-button-response","6","2.0.0","688108","665e49f8cb0ef6119208507d","2","36","1367","","","","","","","","","","0","start_test","","","","","","","","","","",""
"","","","","","","","","","","","html-button-response","7","2.0.0","690261","665e49f8cb0ef6119208507d","2","36","2147","","","","","","","","","<img src= ""rock_img/I_Obsidian_16.jpg"" style=""width:8cm; height:9.3cm;""><p>What type of rock is this?</p>","2","class_response","0","test","1","Diorite","Obsidian","16","false","3","5","",""
"","","","","","","","","","","","html-keyboard-response","8","2.0.0","690770","665e49f8cb0ef6119208507d","2","36","null","","","","","","","","","<p style='font-size: 30px;'><strong>Okay</strong></p>","null","neutral_feedback","0","test","1","","","","","","","",""
"","","","","","","","","","","","html-button-response","9","2.0.0","692584","665e49f8cb0ef6119208507d","2","36","1810","","","","","","","","","<img src= ""rock_img/I_Andesite_14.jpg"" style=""width:8cm; height:5.449999999999999cm;""><p>What type of rock is this?</p>","1","class_response","0","test","2","Basalt","Andesite","14","false","2","1","",""
"","","","","","","","","","","","html-keyboard-response","10","2.0.0","693088","665e49f8cb0ef6119208507d","2","36","null","","","","","","","","","<p style='font-size: 30px;'><strong>Okay</strong></p>","null","neutral_feedback","0","test","2","","","","","","","",""
"","","","","","","","","","","","html-button-response","11","2.0.0","695810","665e49f8cb0ef6119208507d","2","36","2718","","","","","","","","","<img src= ""rock_img/I_Obsidian_12.jpg"" style=""width:8cm; height:6.53cm;""><p>What type of rock is this?</p>","4","class_response","0","test","3","Obsidian","Obsidian","12","true","5","5","",""
"","","","","","","","","","","","html-keyboard-response","12","2.0.0","696317","665e49f8cb0ef6119208507d","2","36","null","","","","","","","","","<p style='font-size: 30px;'><strong>Okay</strong></p>","null","neutral_feedback","0","test","3","","","","","","","",""
"","","","","","","","","","","","html-button-response","13","2.0.0","698440","665e49f8cb0ef6119208507d","2","36","2120","","","","","","","","","<img src= ""rock_img/I_Basalt_02.jpg"" style=""width:8cm; height:6.45cm;""><p>What type of rock is this?</p>","7","class_response","0","test","4","Pumice","Basalt","02","false","8","2","",""
"","","","","","","","","","","","html-keyboard-response","14","2.0.0","698954","665e49f8cb0ef6119208507d","2","36","null","","","","","","","","","<p style='font-size: 30px;'><strong>Okay</strong></p>","null","neutral_feedback","0","test","4","","","","","","","",""
"","","","","","","","","","","","html-button-response","15","2.0.0","700422","665e49f8cb0ef6119208507d","2","36","1464","","","","","","","","","<img src= ""rock_img/I_Basalt_16.jpg"" style=""width:8cm; height:7.659999999999999cm;""><p>What type of rock is this?</p>","3","class_response","0","test","5","Gabbro","Basalt","16","false","4","2","",""
"","","","","","","","","","","","html-keyboard-response","16","2.0.0","700924","665e49f8cb0ef6119208507d","2","36","null","","","","","","","","","<p style='font-size: 30px;'><strong>Okay</strong></p>","null","neutral_feedback","0","test","5","","","","","","","",""
"","","","","","","","","","","","html-button-response","17","2.0.0","703067","665e49f8cb0ef6119208507d","2","36","2140","","","","","","","","","<img src= ""rock_img/I_Andesite_10.jpg"" style=""width:8cm; height:4.16cm;""><p>What type of rock is this?</p>","2","class_response","0","test","6","Diorite","Andesite","10","false","3","1","",""
"","","","","","","","","","","","html-keyboard-response","18","2.0.0","703582","665e49f8cb0ef6119208507d","2","36","null","","","","","","","","","<p style='font-size: 30px;'><strong>Okay</strong></p>","null","neutral_feedback","0","test","6","","","","","","","",""
"","","","","","","","","","","","html-button-response","19","2.0.0","705051","665e49f8cb0ef6119208507d","2","36","1466","","","","","","","","","<img src= ""rock_img/I_Obsidian_07.jpg"" style=""width:8cm; height:4.76cm;""><p>What type of rock is this?</p>","1","class_response","0","test","7","Basalt","Obsidian","07","false","2","5","",""
"","","","","","","","","","","","html-keyboard-response","20","2.0.0","705554","665e49f8cb0ef6119208507d","2","36","null","","","","","","","","","<p style='font-size: 30px;'><strong>Okay</strong></p>","null","neutral_feedback","0","test","7","","","","","","","",""
"","","","","","","","","","","","html-button-response","21","2.0.0","706586","665e49f8cb0ef6119208507d","2","36","1030","","","","","","","","","<img src= ""rock_img/I_Obsidian_09.jpg"" style=""width:8cm; height:5cm;""><p>What type of rock is this?</p>","2","class_response","0","test","8","Diorite","Obsidian","09","false","3","5","",""
"","","","","","","","","","","","html-keyboard-response","22","2.0.0","707092","665e49f8cb0ef6119208507d","2","36","null","","","","","","","","","<p style='font-size: 30px;'><strong>Okay</strong></p>","null","neutral_feedback","0","test","8","","","","","","","",""
"","","","","","","","","","","","html-button-response","23","2.0.0","708495","665e49f8cb0ef6119208507d","2","36","1399","","","","","","","","","<img src= ""rock_img/I_Gabbro_15.jpg"" style=""width:8cm; height:6.29cm;""><p>What type of rock is this?</p>","6","class_response","0","test","9","Peridotite","Gabbro","15","false","7","4","",""
"","","","","","","","","","","","html-keyboard-response","24","2.0.0","709006","665e49f8cb0ef6119208507d","2","36","null","","","","","","","","","<p style='font-size: 30px;'><strong>Okay</strong></p>","null","neutral_feedback","0","test","9","","","","","","","",""
"","","","","","","","","","","","html-button-response","25","2.0.0","711258","665e49f8cb0ef6119208507d","2","36","2249","","","","","","","","","<img src= ""rock_img/I_Andesite_09.jpg"" style=""width:8cm; height:6cm;""><p>What type of rock is this?</p>","0","class_response","0","test","10","Andesite","Andesite","09","true","1","1","",""
"","","","","","","","","","","","html-keyboard-response","26","2.0.0","711760","665e49f8cb0ef6119208507d","2","36","null","","","","","","","","","<p style='font-size: 30px;'><strong>Okay</strong></p>","null","neutral_feedback","0","test","10","","","","","","","",""
"","","","","","","","","","","","html-button-response","27","2.0.0","713735","665e49f8cb0ef6119208507d","2","36","1972","","","","","","","","","<img src= ""rock_img/I_Gabbro_11.jpg"" style=""width:8cm; height:6.2cm;""><p>What type of rock is this?</p>","5","class_response","0","test","11","Pegmatite","Gabbro","11","false","6","4","",""
"","","","","","","","","","","","html-keyboard-response","28","2.0.0","714248","665e49f8cb0ef6119208507d","2","36","null","","","","","","","","","<p style='font-size: 30px;'><strong>Okay</strong></p>","null","neutral_feedback","0","test","11","","","","","","","",""
"","","","","","","","","","","","html-button-response","29","2.0.0","716307","665e49f8cb0ef6119208507d","2","36","2057","","","","","","","","","<img src= ""rock_img/I_Diorite_11.jpg"" style=""width:8cm; height:7.11cm;""><p>What type of rock is this?</p>","1","class_response","0","test","12","Basalt","Diorite","11","false","2","3","",""
"","","","","","","","","","","","html-keyboard-response","30","2.0.0","716817","665e49f8cb0ef6119208507d","2","36","null","","","","","","","","","<p style='font-size: 30px;'><strong>Okay</strong></p>","null","neutral_feedback","0","test","12","","","","","","","",""
"","","","","","","","","","","","html-button-response","31","2.0.0","719880","665e49f8cb0ef6119208507d","2","36","3060","","","","","","","","","<img src= ""rock_img/I_Pegmatite_12.jpg"" style=""width:8cm; height:5.7cm;""><p>What type of rock is this?</p>","7","class_response","0","test","13","Pumice","Pegmatite","12","false","8","6","",""
"","","","","","","","","","","","html-keyboard-response","32","2.0.0","720386","665e49f8cb0ef6119208507d","2","36","null","","","","","","","","","<p style='font-size: 30px;'><strong>Okay</strong></p>","null","neutral_feedback","0","test","13","","","","","","","",""
"","","","","","","","","","","","html-button-response","33","2.0.0","724935","665e49f8cb0ef6119208507d","2","36","4546","","","","","","","","","<img src= ""rock_img/I_Diorite_07.jpg"" style=""width:8cm; height:5.239999999999999cm;""><p>What type of rock is this?</p>","1","class_response","0","test","14","Basalt","Diorite","07","false","2","3","",""
"","","","","","","","","","","","html-keyboard-response","34","2.0.0","725443","665e49f8cb0ef6119208507d","2","36","null","","","","","","","","","<p style='font-size: 30px;'><strong>Okay</strong></p>","null","neutral_feedback","0","test","14","","","","","","","",""
"","","","","","","","","","","","html-button-response","35","2.0.0","726888","665e49f8cb0ef6119208507d","2","36","1441","","","","","","","","","<img src= ""rock_img/I_Peridotite_10.jpg"" style=""width:8cm; height:5.390000000000001cm;""><p>What type of rock is this?</p>","5","class_response","0","test","15","Pegmatite","Peridotite","10","false","6","7","",""
"","","","","","","","","","","","html-keyboard-response","36","2.0.0","727400","665e49f8cb0ef6119208507d","2","36","null","","","","","","","","","<p style='font-size: 30px;'><strong>Okay</strong></p>","null","neutral_feedback","0","test","15","","","","","","","",""
"","","","","","","","","","","","html-button-response","37","2.0.0","728884","665e49f8cb0ef6119208507d","2","36","1481","","","","","","","","","<img src= ""rock_img/I_Peridotite_14.jpg"" style=""width:8cm; height:5.3cm;""><p>What type of rock is this?</p>","0","class_response","0","test","16","Andesite","Peridotite","14","false","1","7","",""
"","","","","","","","","","","","html-keyboard-response","38","2.0.0","729399","665e49f8cb0ef6119208507d","2","36","null","","","","","","","","","<p style='font-size: 30px;'><strong>Okay</strong></p>","null","neutral_feedback","0","test","16","","","","","","","",""
"","","","","","","","","","","","html-button-response","39","2.0.0","732092","665e49f8cb0ef6119208507d","2","36","2691","","","","","","","","","<img src= ""rock_img/I_Pumice_05.jpg"" style=""width:8cm; height:7.25cm;""><p>What type of rock is this?</p>","3","class_response","0","test","17","Gabbro","Pumice","05","false","4","8","",""
"","","","","","","","","","","","html-keyboard-response","40","2.0.0","732597","665e49f8cb0ef6119208507d","2","36","null","","","","","","","","","<p style='font-size: 30px;'><strong>Okay</strong></p>","null","neutral_feedback","0","test","17","","","","","","","",""
"","","","","","","","","","","","html-button-response","41","2.0.0","733920","665e49f8cb0ef6119208507d","2","36","1320","","","","","","","","","<img src= ""rock_img/I_Pegmatite_11.jpg"" style=""width:8cm; height:8.14cm;""><p>What type of rock is this?</p>","2","class_response","0","test","18","Diorite","Pegmatite","11","false","3","6","",""
"","","","","","","","","","","","html-keyboard-response","42","2.0.0","734430","665e49f8cb0ef6119208507d","2","36","null","","","","","","","","","<p style='font-size: 30px;'><strong>Okay</strong></p>","null","neutral_feedback","0","test","18","","","","","","","",""
"","","","","","","","","","","","html-button-response","43","2.0.0","735624","665e49f8cb0ef6119208507d","2","36","1191","","","","","","","","","<img src= ""rock_img/I_Gabbro_01.jpg"" style=""width:8cm; height:5.21cm;""><p>What type of rock is this?</p>","1","class_response","0","test","19","Basalt","Gabbro","01","false","2","4","",""
"","","","","","","","","","","","html-keyboard-response","44","2.0.0","736129","665e49f8cb0ef6119208507d","2","36","null","","","","","","","","","<p style='font-size: 30px;'><strong>Okay</strong></p>","null","neutral_feedback","0","test","19","","","","","","","",""
"","","","","","","","","","","","html-button-response","45","2.0.0","737966","665e49f8cb0ef6119208507d","2","36","1833","","","","","","","","","<img src= ""rock_img/I_Basalt_06.jpg"" style=""width:8cm; height:7.06cm;""><p>What type of rock is this?</p>","0","class_response","0","test","20","Andesite","Basalt","06","false","1","2","",""
"","","","","","","","","","","","html-keyboard-response","46","2.0.0","738475","665e49f8cb0ef6119208507d","2","36","null","","","","","","","","","<p style='font-size: 30px;'><strong>Okay</strong></p>","null","neutral_feedback","0","test","20","","","","","","","",""
"","","","","","","","","","","","html-button-response","47","2.0.0","740783","665e49f8cb0ef6119208507d","2","36","2306","","","","","","","","","<img src= ""rock_img/I_Pegmatite_15.jpg"" style=""width:8cm; height:6cm;""><p>What type of rock is this?</p>","3","class_response","0","test","21","Gabbro","Pegmatite","15","false","4","6","",""
"","","","","","","","","","","","html-keyboard-response","48","2.0.0","741287","665e49f8cb0ef6119208507d","2","36","null","","","","","","","","","<p style='font-size: 30px;'><strong>Okay</strong></p>","null","neutral_feedback","0","test","21","","","","","","","",""
"","","","","","","","","","","","html-button-response","49","2.0.0","742956","665e49f8cb0ef6119208507d","2","36","1666","","","","","","","","","<img src= ""rock_img/I_Peridotite_02.jpg"" style=""width:8cm; height:5.859999999999999cm;""><p>What type of rock is this?</p>","6","class_response","0","test","22","Peridotite","Peridotite","02","true","7","7","",""
"","","","","","","","","","","","html-keyboard-response","50","2.0.0","743468","665e49f8cb0ef6119208507d","2","36","null","","","","","","","","","<p style='font-size: 30px;'><strong>Okay</strong></p>","null","neutral_feedback","0","test","22","","","","","","","",""
"","","","","","","","","","","","html-button-response","51","2.0.0","747332","665e49f8cb0ef6119208507d","2","36","3860","","","","","","","","","<img src= ""rock_img/I_Pegmatite_09.jpg"" style=""width:8cm; height:4.03cm;""><p>What type of rock is this?</p>","4","class_response","0","test","23","Obsidian","Pegmatite","09","false","5","6","",""
"","","","","","","","","","","","html-keyboard-response","52","2.0.0","747833","665e49f8cb0ef6119208507d","2","36","null","","","","","","","","","<p style='font-size: 30px;'><strong>Okay</strong></p>","null","neutral_feedback","0","test","23","","","","","","","",""
"","","","","","","","","","","","html-button-response","53","2.0.0","752211","665e49f8cb0ef6119208507d","2","36","4374","","","","","","","","","<img src= ""rock_img/I_Andesite_01.jpg"" style=""width:8cm; height:5.87cm;""><p>What type of rock is this?</p>","1","class_response","0","test","24","Basalt","Andesite","01","false","2","1","",""
"","","","","","","","","","","","html-keyboard-response","54","2.0.0","752716","665e49f8cb0ef6119208507d","2","36","null","","","","","","","","","<p style='font-size: 30px;'><strong>Okay</strong></p>","null","neutral_feedback","0","test","24","","","","","","","",""
"","","","","","","","","","","","html-button-response","55","2.0.0","754173","665e49f8cb0ef6119208507d","2","36","1453","","","","","","","","","<img src= ""rock_img/I_Obsidian_14.jpg"" style=""width:8cm; height:7.64cm;""><p>What type of rock is this?</p>","2","class_response","0","test","25","Diorite","Obsidian","14","false","3","5","",""
"","","","","","","","","","","","html-keyboard-response","56","2.0.0","754690","665e49f8cb0ef6119208507d","2","36","null","","","","","","","","","<p style='font-size: 30px;'><strong>Okay</strong></p>","null","neutral_feedback","0","test","25","","","","","","","",""
"","","","","","","","","","","","html-button-response","57","2.0.0","756151","665e49f8cb0ef6119208507d","2","36","1458","","","","","","","","","<img src= ""rock_img/I_Peridotite_07.jpg"" style=""width:8cm; height:4.83cm;""><p>What type of rock is this?</p>","0","class_response","0","test","26","Andesite","Peridotite","07","false","1","7","",""
"","","","","","","","","","","","html-keyboard-response","58","2.0.0","756664","665e49f8cb0ef6119208507d","2","36","null","","","","","","","","","<p style='font-size: 30px;'><strong>Okay</strong></p>","null","neutral_feedback","0","test","26","","","","","","","",""
"","","","","","","","","","","","html-button-response","59","2.0.0","812111","665e49f8cb0ef6119208507d","2","36","55445","","","","","","","","","<img src= ""rock_img/I_Pegmatite_08.jpg"" style=""width:8cm; height:7.68cm;""><p>What type of rock is this?</p>","1","class_response","0","test","27","Basalt","Pegmatite","08","false","2","6","",""
"","","","","","","","","","","","html-keyboard-response","60","2.0.0","812615","665e49f8cb0ef6119208507d","2","36","null","","","","","","","","","<p style='font-size: 30px;'><strong>Okay</strong></p>","null","neutral_feedback","0","test","27","","","","","","","",""
"","","","","","","","","","","","html-button-response","61","2.0.0","813883","665e49f8cb0ef6119208507d","2","36","1265","","","","","","","","","<img src= ""rock_img/I_Pumice_06.jpg"" style=""width:8cm; height:6.9399999999999995cm;""><p>What type of rock is this?</p>","0","class_response","0","test","28","Andesite","Pumice","06","false","1","8","",""
"","","","","","","","","","","","html-keyboard-response","62","2.0.0","814387","665e49f8cb0ef6119208507d","2","36","null","","","","","","","","","<p style='font-size: 30px;'><strong>Okay</strong></p>","null","neutral_feedback","0","test","28","","","","","","","",""
"","","","","","","","","","","","html-button-response","63","2.0.0","816723","665e49f8cb0ef6119208507d","2","36","2334","","","","","","","","","<img src= ""rock_img/I_Gabbro_08.jpg"" style=""width:8cm; height:5.15cm;""><p>What type of rock is this?</p>","7","class_response","0","test","29","Pumice","Gabbro","08","false","8","4","",""
"","","","","","","","","","","","html-keyboard-response","64","2.0.0","817227","665e49f8cb0ef6119208507d","2","36","null","","","","","","","","","<p style='font-size: 30px;'><strong>Okay</strong></p>","null","neutral_feedback","0","test","29","","","","","","","",""
"","","","","","","","","","","","html-button-response","65","2.0.0","818385","665e49f8cb0ef6119208507d","2","36","1155","","","","","","","","","<img src= ""rock_img/I_Basalt_01.jpg"" style=""width:8cm; height:7.880000000000001cm;""><p>What type of rock is this?</p>","2","class_response","0","test","30","Diorite","Basalt","01","false","3","2","",""
"","","","","","","","","","","","html-keyboard-response","66","2.0.0","818902","665e49f8cb0ef6119208507d","2","36","null","","","","","","","","","<p style='font-size: 30px;'><strong>Okay</strong></p>","null","neutral_feedback","0","test","30","","","","","","","",""
"","","","","","","","","","","","html-button-response","67","2.0.0","820834","665e49f8cb0ef6119208507d","2","36","1929","","","","","","","","","<img src= ""rock_img/I_Pegmatite_16.jpg"" style=""width:8cm; height:5.8cm;""><p>What type of rock is this?</p>","4","class_response","0","test","31","Obsidian","Pegmatite","16","false","5","6","",""
"","","","","","","","","","","","html-keyboard-response","68","2.0.0","821351","665e49f8cb0ef6119208507d","2","36","null","","","","","","","","","<p style='font-size: 30px;'><strong>Okay</strong></p>","null","neutral_feedback","0","test","31","","","","","","","",""
"","","","","","","","","","","","html-button-response","69","2.0.0","822578","665e49f8cb0ef6119208507d","2","36","1224","","","","","","","","","<img src= ""rock_img/I_Andesite_07.jpg"" style=""width:8cm; height:5.93cm;""><p>What type of rock is this?</p>","0","class_response","0","test","32","Andesite","Andesite","07","true","1","1","",""
"","","","","","","","","","","","html-keyboard-response","70","2.0.0","823094","665e49f8cb0ef6119208507d","2","36","null","","","","","","","","","<p style='font-size: 30px;'><strong>Okay</strong></p>","null","neutral_feedback","0","test","32","","","","","","","",""
"","","","","","","","","","","","html-button-response","71","2.0.0","825406","665e49f8cb0ef6119208507d","2","36","2308","","","","","","","","","<img src= ""rock_img/I_Gabbro_03.jpg"" style=""width:8cm; height:8.52cm;""><p>What type of rock is this?</p>","3","class_response","0","test","33","Gabbro","Gabbro","03","true","4","4","",""
"","","","","","","","","","","","html-keyboard-response","72","2.0.0","825911","665e49f8cb0ef6119208507d","2","36","null","","","","","","","","","<p style='font-size: 30px;'><strong>Okay</strong></p>","null","neutral_feedback","0","test","33","","","","","","","",""
"","","","","","","","","","","","html-button-response","73","2.0.0","828954","665e49f8cb0ef6119208507d","2","36","3040","","","","","","","","","<img src= ""rock_img/I_Diorite_14.jpg"" style=""width:8cm; height:5.71cm;""><p>What type of rock is this?</p>","6","class_response","0","test","34","Peridotite","Diorite","14","false","7","3","",""
"","","","","","","","","","","","html-keyboard-response","74","2.0.0","829463","665e49f8cb0ef6119208507d","2","36","null","","","","","","","","","<p style='font-size: 30px;'><strong>Okay</strong></p>","null","neutral_feedback","0","test","34","","","","","","","",""
"","","","","","","","","","","","html-button-response","75","2.0.0","831096","665e49f8cb0ef6119208507d","2","36","1630","","","","","","","","","<img src= ""rock_img/I_Pumice_13.jpg"" style=""width:8cm; height:8.200000000000001cm;""><p>What type of rock is this?</p>","5","class_response","0","test","35","Pegmatite","Pumice","13","false","6","8","",""
"","","","","","","","","","","","html-keyboard-response","76","2.0.0","831607","665e49f8cb0ef6119208507d","2","36","null","","","","","","","","","<p style='font-size: 30px;'><strong>Okay</strong></p>","null","neutral_feedback","0","test","35","","","","","","","",""
"","","","","","","","","","","","html-button-response","77","2.0.0","833024","665e49f8cb0ef6119208507d","2","36","1412","","","","","","","","","<img src= ""rock_img/I_Pumice_08.jpg"" style=""width:8cm; height:6.67cm;""><p>What type of rock is this?</p>","1","class_response","0","test","36","Basalt","Pumice","08","false","2","8","",""
"","","","","","","","","","","","html-keyboard-response","78","2.0.0","833526","665e49f8cb0ef6119208507d","2","36","null","","","","","","","","","<p style='font-size: 30px;'><strong>Okay</strong></p>","null","neutral_feedback","0","test","36","","","","","","","",""
"","","","","","","","","","","","html-button-response","79","2.0.0","835032","665e49f8cb0ef6119208507d","2","36","1502","","","","","","","","","<img src= ""rock_img/I_Basalt_09.jpg"" style=""width:8cm; height:6.2cm;""><p>What type of rock is this?</p>","1","class_response","0","test","37","Basalt","Basalt","09","true","2","2","",""
"","","","","","","","","","","","html-keyboard-response","80","2.0.0","835549","665e49f8cb0ef6119208507d","2","36","null","","","","","","","","","<p style='font-size: 30px;'><strong>Okay</strong></p>","null","neutral_feedback","0","test","37","","","","","","","",""
"","","","","","","","","","","","html-button-response","81","2.0.0","838383","665e49f8cb0ef6119208507d","2","36","2831","","","","","","","","","<img src= ""rock_img/I_Obsidian_11.jpg"" style=""width:8cm; height:6.05cm;""><p>What type of rock is this?</p>","1","class_response","0","test","38","Basalt","Obsidian","11","false","2","5","",""
"","","","","","","","","","","","html-keyboard-response","82","2.0.0","838889","665e49f8cb0ef6119208507d","2","36","null","","","","","","","","","<p style='font-size: 30px;'><strong>Okay</strong></p>","null","neutral_feedback","0","test","38","","","","","","","",""
"","","","","","","","","","","","html-button-response","83","2.0.0","842837","665e49f8cb0ef6119208507d","2","36","3945","","","","","","","","","<img src= ""rock_img/I_Gabbro_05.jpg"" style=""width:8cm; height:6cm;""><p>What type of rock is this?</p>","5","class_response","0","test","39","Pegmatite","Gabbro","05","false","6","4","",""
"","","","","","","","","","","","html-keyboard-response","84","2.0.0","843343","665e49f8cb0ef6119208507d","2","36","null","","","","","","","","","<p style='font-size: 30px;'><strong>Okay</strong></p>","null","neutral_feedback","0","test","39","","","","","","","",""
"","","","","","","","","","","","html-button-response","85","2.0.0","844846","665e49f8cb0ef6119208507d","2","36","1500","","","","","","","","","<img src= ""rock_img/I_Peridotite_12.jpg"" style=""width:8cm; height:4.54cm;""><p>What type of rock is this?</p>","3","class_response","0","test","40","Gabbro","Peridotite","12","false","4","7","",""
"","","","","","","","","","","","html-keyboard-response","86","2.0.0","845348","665e49f8cb0ef6119208507d","2","36","null","","","","","","","","","<p style='font-size: 30px;'><strong>Okay</strong></p>","null","neutral_feedback","0","test","40","","","","","","","",""
"","","","","","","","","","","","html-button-response","87","2.0.0","846954","665e49f8cb0ef6119208507d","2","36","1603","","","","","","","","","<img src= ""rock_img/I_Diorite_06.jpg"" style=""width:8cm; height:6.03cm;""><p>What type of rock is this?</p>","0","class_response","0","test","41","Andesite","Diorite","06","false","1","3","",""
"","","","","","","","","","","","html-keyboard-response","88","2.0.0","847471","665e49f8cb0ef6119208507d","2","36","null","","","","","","","","","<p style='font-size: 30px;'><strong>Okay</strong></p>","null","neutral_feedback","0","test","41","","","","","","","",""
"","","","","","","","","","","","html-button-response","89","2.0.0","849855","665e49f8cb0ef6119208507d","2","36","2381","","","","","","","","","<img src= ""rock_img/I_Diorite_16.jpg"" style=""width:8cm; height:6.74cm;""><p>What type of rock is this?</p>","2","class_response","0","test","42","Diorite","Diorite","16","true","3","3","",""
"","","","","","","","","","","","html-keyboard-response","90","2.0.0","850366","665e49f8cb0ef6119208507d","2","36","null","","","","","","","","","<p style='font-size: 30px;'><strong>Okay</strong></p>","null","neutral_feedback","0","test","42","","","","","","","",""
"","","","","","","","","","","","html-button-response","91","2.0.0","851699","665e49f8cb0ef6119208507d","2","36","1330","","","","","","","","","<img src= ""rock_img/I_Peridotite_15.jpg"" style=""width:8cm; height:6cm;""><p>What type of rock is this?</p>","1","class_response","0","test","43","Basalt","Peridotite","15","false","2","7","",""
"","","","","","","","","","","","html-keyboard-response","92","2.0.0","852202","665e49f8cb0ef6119208507d","2","36","null","","","","","","","","","<p style='font-size: 30px;'><strong>Okay</strong></p>","null","neutral_feedback","0","test","43","","","","","","","",""
"","","","","","","","","","","","html-button-response","93","2.0.0","854024","665e49f8cb0ef6119208507d","2","36","1818","","","","","","","","","<img src= ""rock_img/I_Pumice_02.jpg"" style=""width:8cm; height:7.3999999999999995cm;""><p>What type of rock is this?</p>","5","class_response","0","test","44","Pegmatite","Pumice","02","false","6","8","",""
"","","","","","","","","","","","html-keyboard-response","94","2.0.0","854531","665e49f8cb0ef6119208507d","2","36","null","","","","","","","","","<p style='font-size: 30px;'><strong>Okay</strong></p>","null","neutral_feedback","0","test","44","","","","","","","",""
"","","","","","","","","","","","html-button-response","95","2.0.0","856731","665e49f8cb0ef6119208507d","2","36","2197","","","","","","","","","<img src= ""rock_img/I_Diorite_08.jpg"" style=""width:8cm; height:6.37cm;""><p>What type of rock is this?</p>","3","class_response","0","test","45","Gabbro","Diorite","08","false","4","3","",""
"","","","","","","","","","","","html-keyboard-response","96","2.0.0","857248","665e49f8cb0ef6119208507d","2","36","null","","","","","","","","","<p style='font-size: 30px;'><strong>Okay</strong></p>","null","neutral_feedback","0","test","45","","","","","","","",""
"","","","","","","","","","","","html-button-response","97","2.0.0","858383","665e49f8cb0ef6119208507d","2","36","1132","","","","","","","","","<img src= ""rock_img/I_Pumice_16.jpg"" style=""width:8cm; height:6.79cm;""><p>What type of rock is this?</p>","3","class_response","0","test","46","Gabbro","Pumice","16","false","4","8","",""
"","","","","","","","","","","","html-keyboard-response","98","2.0.0","858889","665e49f8cb0ef6119208507d","2","36","null","","","","","","","","","<p style='font-size: 30px;'><strong>Okay</strong></p>","null","neutral_feedback","0","test","46","","","","","","","",""
"","","","","","","","","","","","html-button-response","99","2.0.0","860346","665e49f8cb0ef6119208507d","2","36","1454","","","","","","","","","<img src= ""rock_img/I_Andesite_02.jpg"" style=""width:8cm; height:8.5cm;""><p>What type of rock is this?</p>","0","class_response","0","test","47","Andesite","Andesite","02","true","1","1","",""
"","","","","","","","","","","","html-keyboard-response","100","2.0.0","860849","665e49f8cb0ef6119208507d","2","36","null","","","","","","","","","<p style='font-size: 30px;'><strong>Okay</strong></p>","null","neutral_feedback","0","test","47","","","","","","","",""
"","","","","","","","","","","","html-button-response","101","2.0.0","862482","665e49f8cb0ef6119208507d","2","36","1630","","","","","","","","","<img src= ""rock_img/I_Basalt_08.jpg"" style=""width:8cm; height:10.44cm;""><p>What type of rock is this?</p>","2","class_response","0","test","48","Diorite","Basalt","08","false","3","2","",""
"","","","","","","","","","","","html-keyboard-response","102","2.0.0","862987","665e49f8cb0ef6119208507d","2","36","null","","","","","","","","","<p style='font-size: 30px;'><strong>Okay</strong></p>","null","neutral_feedback","0","test","48","","","","","","","",""
"","","","","","","","","","","","instructions","103","2.0.0","886767","665e49f8cb0ef6119208507d","2","36","23757","","","","","","","","[{""page_index"":0,""viewing_time"":12533},{""page_index"":1,""viewing_time"":8925},{""page_index"":2,""viewing_time"":2300}]","","","","","","","","","","","","","",""
"","","","","","","","","","","","html-button-response","104","2.0.0","888748","665e49f8cb0ef6119208507d","2","36","1978","","","","","","","","","","0","start_train","","","","","","","","","","",""
"","","","","","","","","","","","html-button-response","105","2.0.0","890851","665e49f8cb0ef6119208507d","2","36","2100","","","","","","","","","<img src= ""rock_img/I_Obsidian_02.jpg"" style=""width:8cm; height:7.51cm;""><p>What type of rock is this?</p>","1","class_response","1","train","1","Basalt","Obsidian","02","false","2","5","",""
"","","","","","","","","","","","html-button-response","106","2.0.0","892295","665e49f8cb0ef6119208507d","2","36","1440","","","","","","","","","<img src= rock_img/I_Obsidian_02.jpg style=""width:8cm; height:7.51cm;""><p style='font-size: 30px; color: red;'><strong>Incorrect!</strong></p><p style='font-size: 30px;'><strong>This rock is obsidian</strong></p>","0","corr_feedback","1","train","1","","","","","","","",""
"","","","","","","","","","","","html-button-response","107","2.0.0","893827","665e49f8cb0ef6119208507d","2","36","1529","","","","","","","","","<img src= ""rock_img/I_Basalt_04.jpg"" style=""width:8cm; height:7.53cm;""><p>What type of rock is this?</p>","2","class_response","1","train","2","Diorite","Basalt","04","false","3","2","",""
"","","","","","","","","","","","html-button-response","108","2.0.0","895035","665e49f8cb0ef6119208507d","2","36","1205","","","","","","","","","<img src= rock_img/I_Basalt_04.jpg style=""width:8cm; height:7.53cm;""><p style='font-size: 30px; color: red;'><strong>Incorrect!</strong></p><p style='font-size: 30px;'><strong>This rock is basalt</strong></p>","0","corr_feedback","1","train","2","","","","","","","",""
"","","","","","","","","","","","html-button-response","109","2.0.0","898212","665e49f8cb0ef6119208507d","2","36","3173","","","","","","","","","<img src= ""rock_img/I_Pumice_10.jpg"" style=""width:8cm; height:7.609999999999999cm;""><p>What type of rock is this?</p>","0","class_response","1","train","3","Andesite","Pumice","10","false","1","8","",""
"","","","","","","","","","","","html-button-response","110","2.0.0","899471","665e49f8cb0ef6119208507d","2","36","1257","","","","","","","","","<img src= rock_img/I_Pumice_10.jpg style=""width:8cm; height:7.609999999999999cm;""><p style='font-size: 30px; color: red;'><strong>Incorrect!</strong></p><p style='font-size: 30px;'><strong>This rock is pumice</strong></p>","0","corr_feedback","1","train","3","","","","","","","",""
"","","","","","","","","","","","html-button-response","111","2.0.0","901304","665e49f8cb0ef6119208507d","2","36","1829","","","","","","","","","<img src= ""rock_img/I_Pumice_15.jpg"" style=""width:8cm; height:7.86cm;""><p>What type of rock is this?</p>","7","class_response","1","train","4","Pumice","Pumice","15","true","8","8","",""
"","","","","","","","","","","","html-button-response","112","2.0.0","902275","665e49f8cb0ef6119208507d","2","36","969","","","","","","","","","<img src= rock_img/I_Pumice_15.jpg style=""width:8cm; height:7.86cm;""><p style='font-size: 30px; color: green;'><strong>Correct!</strong></p><p style='font-size: 30px;'><strong>This rock is pumice</strong></p>","0","corr_feedback","1","train","4","","","","","","","",""
"","","","","","","","","","","","html-button-response","113","2.0.0","903920","665e49f8cb0ef6119208507d","2","36","1641","","","","","","","","","<img src= ""rock_img/I_Gabbro_13.jpg"" style=""width:8cm; height:5.08cm;""><p>What type of rock is this?</p>","2","class_response","1","train","5","Diorite","Gabbro","13","false","3","4","",""
"","","","","","","","","","","","html-button-response","114","2.0.0","904830","665e49f8cb0ef6119208507d","2","36","907","","","","","","","","","<img src= rock_img/I_Gabbro_13.jpg style=""width:8cm; height:5.08cm;""><p style='font-size: 30px; color: red;'><strong>Incorrect!</strong></p><p style='font-size: 30px;'><strong>This rock is gabbro</strong></p>","0","corr_feedback","1","train","5","","","","","","","",""
"","","","","","","","","","","","html-button-response","115","2.0.0","908378","665e49f8cb0ef6119208507d","2","36","3546","","","","","","","","","<img src= ""rock_img/I_Andesite_03.jpg"" style=""width:8cm; height:5.73cm;""><p>What type of rock is this?</p>","0","class_response","1","train","6","Andesite","Andesite","03","true","1","1","",""
"","","","","","","","","","","","html-button-response","116","2.0.0","909599","665e49f8cb0ef6119208507d","2","36","1218","","","","","","","","","<img src= rock_img/I_Andesite_03.jpg style=""width:8cm; height:5.73cm;""><p style='font-size: 30px; color: green;'><strong>Correct!</strong></p><p style='font-size: 30px;'><strong>This rock is andesite</strong></p>","0","corr_feedback","1","train","6","","","","","","","",""
"","","","","","","","","","","","html-button-response","117","2.0.0","912898","665e49f8cb0ef6119208507d","2","36","3295","","","","","","","","","<img src= ""rock_img/I_Peridotite_05.jpg"" style=""width:8cm; height:7.1499999999999995cm;""><p>What type of rock is this?</p>","0","class_response","1","train","7","Andesite","Peridotite","05","false","1","7","",""
"","","","","","","","","","","","html-button-response","118","2.0.0","913846","665e49f8cb0ef6119208507d","2","36","945","","","","","","","","","<img src= rock_img/I_Peridotite_05.jpg style=""width:8cm; height:7.1499999999999995cm;""><p style='font-size: 30px; color: red;'><strong>Incorrect!</strong></p><p style='font-size: 30px;'><strong>This rock is peridotite</strong></p>","0","corr_feedback","1","train","7","","","","","","","",""
"","","","","","","","","","","","html-button-response","119","2.0.0","918130","665e49f8cb0ef6119208507d","2","36","4282","","","","","","","","","<img src= ""rock_img/I_Pumice_10.jpg"" style=""width:8cm; height:7.609999999999999cm;""><p>What type of rock is this?</p>","2","class_response","1","train","8","Diorite","Pumice","10","false","3","8","",""
"","","","","","","","","","","","html-button-response","120","2.0.0","919202","665e49f8cb0ef6119208507d","2","36","1070","","","","","","","","","<img src= rock_img/I_Pumice_10.jpg style=""width:8cm; height:7.609999999999999cm;""><p style='font-size: 30px; color: red;'><strong>Incorrect!</strong></p><p style='font-size: 30px;'><strong>This rock is pumice</strong></p>","0","corr_feedback","1","train","8","","","","","","","",""
"","","","","","","","","","","","html-button-response","121","2.0.0","920978","665e49f8cb0ef6119208507d","2","36","1774","","","","","","","","","<img src= ""rock_img/I_Diorite_13.jpg"" style=""width:8cm; height:6.29cm;""><p>What type of rock is this?</p>","7","class_response","1","train","9","Pumice","Diorite","13","false","8","3","",""
"","","","","","","","","","","","html-button-response","122","2.0.0","921716","665e49f8cb0ef6119208507d","2","36","735","","","","","","","","","<img src= rock_img/I_Diorite_13.jpg style=""width:8cm; height:6.29cm;""><p style='font-size: 30px; color: red;'><strong>Incorrect!</strong></p><p style='font-size: 30px;'><strong>This rock is diorite</strong></p>","0","corr_feedback","1","train","9","","","","","","","",""
"","","","","","","","","","","","html-button-response","123","2.0.0","925026","665e49f8cb0ef6119208507d","2","36","3308","","","","","","","","","<img src= ""rock_img/I_Gabbro_10.jpg"" style=""width:8cm; height:5.680000000000001cm;""><p>What type of rock is this?</p>","3","class_response","1","train","10","Gabbro","Gabbro","10","true","4","4","",""
"","","","","","","","","","","","html-button-response","124","2.0.0","926635","665e49f8cb0ef6119208507d","2","36","1606","","","","","","","","","<img src= rock_img/I_Gabbro_10.jpg style=""width:8cm; height:5.680000000000001cm;""><p style='font-size: 30px; color: green;'><strong>Correct!</strong></p><p style='font-size: 30px;'><strong>This rock is gabbro</strong></p>","0","corr_feedback","1","train","10","","","","","","","",""
"","","","","","","","","","","","html-button-response","125","2.0.0","929100","665e49f8cb0ef6119208507d","2","36","2462","","","","","","","","","<img src= ""rock_img/I_Basalt_11.jpg"" style=""width:8cm; height:5.359999999999999cm;""><p>What type of rock is this?</p>","3","class_response","1","train","11","Gabbro","Basalt","11","false","4","2","",""
"","","","","","","","","","","","html-button-response","126","2.0.0","930579","665e49f8cb0ef6119208507d","2","36","1476","","","","","","","","","<img src= rock_img/I_Basalt_11.jpg style=""width:8cm; height:5.359999999999999cm;""><p style='font-size: 30px; color: red;'><strong>Incorrect!</strong></p><p style='font-size: 30px;'><strong>This rock is basalt</strong></p>","0","corr_feedback","1","train","11","","","","","","","",""
"","","","","","","","","","","","html-button-response","127","2.0.0","933654","665e49f8cb0ef6119208507d","2","36","3072","","","","","","","","","<img src= ""rock_img/I_Pegmatite_03.jpg"" style=""width:8cm; height:5.239999999999999cm;""><p>What type of rock is this?</p>","1","class_response","1","train","12","Basalt","Pegmatite","03","false","2","6","",""
"","","","","","","","","","","","html-button-response","128","2.0.0","934542","665e49f8cb0ef6119208507d","2","36","886","","","","","","","","","<img src= rock_img/I_Pegmatite_03.jpg style=""width:8cm; height:5.239999999999999cm;""><p style='font-size: 30px; color: red;'><strong>Incorrect!</strong></p><p style='font-size: 30px;'><strong>This rock is pegmatite</strong></p>","0","corr_feedback","1","train","12","","","","","","","",""
"","","","","","","","","","","","html-button-response","129","2.0.0","936448","665e49f8cb0ef6119208507d","2","36","1900","","","","","","","","","<img src= ""rock_img/I_Pumice_09.jpg"" style=""width:8cm; height:6.44cm;""><p>What type of rock is this?</p>","7","class_response","1","train","13","Pumice","Pumice","09","true","8","8","",""
"","","","","","","","","","","","html-button-response","130","2.0.0","937394","665e49f8cb0ef6119208507d","2","36","944","","","","","","","","","<img src= rock_img/I_Pumice_09.jpg style=""width:8cm; height:6.44cm;""><p style='font-size: 30px; color: green;'><strong>Correct!</strong></p><p style='font-size: 30px;'><strong>This rock is pumice</strong></p>","0","corr_feedback","1","train","13","","","","","","","",""
"","","","","","","","","","","","html-button-response","131","2.0.0","943731","665e49f8cb0ef6119208507d","2","36","6333","","","","","","","","","<img src= ""rock_img/I_Pumice_04.jpg"" style=""width:8cm; height:6.819999999999999cm;""><p>What type of rock is this?</p>","7","class_response","1","train","14","Pumice","Pumice","04","true","8","8","",""
"","","","","","","","","","","","html-button-response","132","2.0.0","944817","665e49f8cb0ef6119208507d","2","36","1085","","","","","","","","","<img src= rock_img/I_Pumice_04.jpg style=""width:8cm; height:6.819999999999999cm;""><p style='font-size: 30px; color: green;'><strong>Correct!</strong></p><p style='font-size: 30px;'><strong>This rock is pumice</strong></p>","0","corr_feedback","1","train","14","","","","","","","",""
"","","","","","","","","","","","html-button-response","133","2.0.0","946831","665e49f8cb0ef6119208507d","2","36","2011","","","","","","","","","<img src= ""rock_img/I_Diorite_15.jpg"" style=""width:8cm; height:5.54cm;""><p>What type of rock is this?</p>","7","class_response","1","train","15","Pumice","Diorite","15","false","8","3","",""
"","","","","","","","","","","","html-button-response","134","2.0.0","947646","665e49f8cb0ef6119208507d","2","36","811","","","","","","","","","<img src= rock_img/I_Diorite_15.jpg style=""width:8cm; height:5.54cm;""><p style='font-size: 30px; color: red;'><strong>Incorrect!</strong></p><p style='font-size: 30px;'><strong>This rock is diorite</strong></p>","0","corr_feedback","1","train","15","","","","","","","",""
"","","","","","","","","","","","html-button-response","135","2.0.0","956382","665e49f8cb0ef6119208507d","2","36","8734","","","","","","","","","<img src= ""rock_img/I_Basalt_10.jpg"" style=""width:8cm; height:5.85cm;""><p>What type of rock is this?</p>","0","class_response","1","train","16","Andesite","Basalt","10","false","1","2","",""
"","","","","","","","","","","","html-button-response","136","2.0.0","957282","665e49f8cb0ef6119208507d","2","36","898","","","","","","","","","<img src= rock_img/I_Basalt_10.jpg style=""width:8cm; height:5.85cm;""><p style='font-size: 30px; color: red;'><strong>Incorrect!</strong></p><p style='font-size: 30px;'><strong>This rock is basalt</strong></p>","0","corr_feedback","1","train","16","","","","","","","",""
"","","","","","","","","","","","html-button-response","137","2.0.0","959366","665e49f8cb0ef6119208507d","2","36","2081","","","","","","","","","<img src= ""rock_img/I_Diorite_12.jpg"" style=""width:8cm; height:4.88cm;""><p>What type of rock is this?</p>","2","class_response","1","train","17","Diorite","Diorite","12","true","3","3","",""
"","","","","","","","","","","","html-button-response","138","2.0.0","960635","665e49f8cb0ef6119208507d","2","36","1266","","","","","","","","","<img src= rock_img/I_Diorite_12.jpg style=""width:8cm; height:4.88cm;""><p style='font-size: 30px; color: green;'><strong>Correct!</strong></p><p style='font-size: 30px;'><strong>This rock is diorite</strong></p>","0","corr_feedback","1","train","17","","","","","","","",""
"","","","","","","","","","","","html-button-response","139","2.0.0","962262","665e49f8cb0ef6119208507d","2","36","1625","","","","","","","","","<img src= ""rock_img/I_Andesite_06.jpg"" style=""width:8cm; height:6.840000000000001cm;""><p>What type of rock is this?</p>","1","class_response","1","train","18","Basalt","Andesite","06","false","2","1","",""
"","","","","","","","","","","","html-button-response","140","2.0.0","963398","665e49f8cb0ef6119208507d","2","36","1134","","","","","","","","","<img src= rock_img/I_Andesite_06.jpg style=""width:8cm; height:6.840000000000001cm;""><p style='font-size: 30px; color: red;'><strong>Incorrect!</strong></p><p style='font-size: 30px;'><strong>This rock is andesite</strong></p>","0","corr_feedback","1","train","18","","","","","","","",""
"","","","","","","","","","","","html-button-response","141","2.0.0","964771","665e49f8cb0ef6119208507d","2","36","1369","","","","","","","","","<img src= ""rock_img/I_Pumice_03.jpg"" style=""width:8cm; height:6.64cm;""><p>What type of rock is this?</p>","5","class_response","1","train","19","Pegmatite","Pumice","03","false","6","8","",""
"","","","","","","","","","","","html-button-response","142","2.0.0","965742","665e49f8cb0ef6119208507d","2","36","968","","","","","","","","","<img src= rock_img/I_Pumice_03.jpg style=""width:8cm; height:6.64cm;""><p style='font-size: 30px; color: red;'><strong>Incorrect!</strong></p><p style='font-size: 30px;'><strong>This rock is pumice</strong></p>","0","corr_feedback","1","train","19","","","","","","","",""
"","","","","","","","","","","","html-button-response","143","2.0.0","969687","665e49f8cb0ef6119208507d","2","36","3942","","","","","","","","","<img src= ""rock_img/I_Obsidian_05.jpg"" style=""width:8cm; height:6.33cm;""><p>What type of rock is this?</p>","6","class_response","1","train","20","Peridotite","Obsidian","05","false","7","5","",""
"","","","","","","","","","","","html-button-response","144","2.0.0","970867","665e49f8cb0ef6119208507d","2","36","1177","","","","","","","","","<img src= rock_img/I_Obsidian_05.jpg style=""width:8cm; height:6.33cm;""><p style='font-size: 30px; color: red;'><strong>Incorrect!</strong></p><p style='font-size: 30px;'><strong>This rock is obsidian</strong></p>","0","corr_feedback","1","train","20","","","","","","","",""
"","","","","","","","","","","","html-button-response","145","2.0.0","972731","665e49f8cb0ef6119208507d","2","36","1860","","","","","","","","","<img src= ""rock_img/I_Diorite_09.jpg"" style=""width:8cm; height:5.27cm;""><p>What type of rock is this?</p>","4","class_response","1","train","21","Obsidian","Diorite","09","false","5","3","",""
"","","","","","","","","","","","html-button-response","146","2.0.0","973878","665e49f8cb0ef6119208507d","2","36","1145","","","","","","","","","<img src= rock_img/I_Diorite_09.jpg style=""width:8cm; height:5.27cm;""><p style='font-size: 30px; color: red;'><strong>Incorrect!</strong></p><p style='font-size: 30px;'><strong>This rock is diorite</strong></p>","0","corr_feedback","1","train","21","","","","","","","",""
"","","","","","","","","","","","html-button-response","147","2.0.0","975514","665e49f8cb0ef6119208507d","2","36","1633","","","","","","","","","<img src= ""rock_img/I_Gabbro_16.jpg"" style=""width:8cm; height:6.44cm;""><p>What type of rock is this?</p>","3","class_response","1","train","22","Gabbro","Gabbro","16","true","4","4","",""
"","","","","","","","","","","","html-button-response","148","2.0.0","976464","665e49f8cb0ef6119208507d","2","36","949","","","","","","","","","<img src= rock_img/I_Gabbro_16.jpg style=""width:8cm; height:6.44cm;""><p style='font-size: 30px; color: green;'><strong>Correct!</strong></p><p style='font-size: 30px;'><strong>This rock is gabbro</strong></p>","0","corr_feedback","1","train","22","","","","","","","",""
"","","","","","","","","","","","html-button-response","149","2.0.0","978871","665e49f8cb0ef6119208507d","2","36","2405","","","","","","","","","<img src= ""rock_img/I_Pegmatite_07.jpg"" style=""width:8cm; height:6.7cm;""><p>What type of rock is this?</p>","1","class_response","1","train","23","Basalt","Pegmatite","07","false","2","6","",""
"","","","","","","","","","","","html-button-response","150","2.0.0","979970","665e49f8cb0ef6119208507d","2","36","1096","","","","","","","","","<img src= rock_img/I_Pegmatite_07.jpg style=""width:8cm; height:6.7cm;""><p style='font-size: 30px; color: red;'><strong>Incorrect!</strong></p><p style='font-size: 30px;'><strong>This rock is pegmatite</strong></p>","0","corr_feedback","1","train","23","","","","","","","",""
"","","","","","","","","","","","html-button-response","151","2.0.0","982482","665e49f8cb0ef6119208507d","2","36","2510","","","","","","","","","<img src= ""rock_img/I_Obsidian_08.jpg"" style=""width:8cm; height:7.39cm;""><p>What type of rock is this?</p>","4","class_response","1","train","24","Obsidian","Obsidian","08","true","5","5","",""
"","","","","","","","","","","","html-button-response","152","2.0.0","983554","665e49f8cb0ef6119208507d","2","36","1070","","","","","","","","","<img src= rock_img/I_Obsidian_08.jpg style=""width:8cm; height:7.39cm;""><p style='font-size: 30px; color: green;'><strong>Correct!</strong></p><p style='font-size: 30px;'><strong>This rock is obsidian</strong></p>","0","corr_feedback","1","train","24","","","","","","","",""
"","","","","","","","","","","","html-button-response","153","2.0.0","989959","665e49f8cb0ef6119208507d","2","36","6403","","","","","","","","","<img src= ""rock_img/I_Pumice_14.jpg"" style=""width:8cm; height:6.39cm;""><p>What type of rock is this?</p>","1","class_response","1","train","25","Basalt","Pumice","14","false","2","8","",""
"","","","","","","","","","","","html-button-response","154","2.0.0","990779","665e49f8cb0ef6119208507d","2","36","816","","","","","","","","","<img src= rock_img/I_Pumice_14.jpg style=""width:8cm; height:6.39cm;""><p style='font-size: 30px; color: red;'><strong>Incorrect!</strong></p><p style='font-size: 30px;'><strong>This rock is pumice</strong></p>","0","corr_feedback","1","train","25","","","","","","","",""
"","","","","","","","","","","","html-button-response","155","2.0.0","993663","665e49f8cb0ef6119208507d","2","36","2881","","","","","","","","","<img src= ""rock_img/I_Peridotite_04.jpg"" style=""width:8cm; height:6.680000000000001cm;""><p>What type of rock is this?</p>","2","class_response","1","train","26","Diorite","Peridotite","04","false","3","7","",""
"","","","","","","","","","","","html-button-response","156","2.0.0","994599","665e49f8cb0ef6119208507d","2","36","932","","","","","","","","","<img src= rock_img/I_Peridotite_04.jpg style=""width:8cm; height:6.680000000000001cm;""><p style='font-size: 30px; color: red;'><strong>Incorrect!</strong></p><p style='font-size: 30px;'><strong>This rock is peridotite</strong></p>","0","corr_feedback","1","train","26","","","","","","","",""
"","","","","","","","","","","","html-button-response","157","2.0.0","996871","665e49f8cb0ef6119208507d","2","36","2269","","","","","","","","","<img src= ""rock_img/I_Andesite_16.jpg"" style=""width:8cm; height:6.010000000000001cm;""><p>What type of rock is this?</p>","1","class_response","1","train","27","Basalt","Andesite","16","false","2","1","",""
"","","","","","","","","","","","html-button-response","158","2.0.0","997734","665e49f8cb0ef6119208507d","2","36","860","","","","","","","","","<img src= rock_img/I_Andesite_16.jpg style=""width:8cm; height:6.010000000000001cm;""><p style='font-size: 30px; color: red;'><strong>Incorrect!</strong></p><p style='font-size: 30px;'><strong>This rock is andesite</strong></p>","0","corr_feedback","1","train","27","","","","","","","",""
"","","","","","","","","","","","html-button-response","159","2.0.0","999478","665e49f8cb0ef6119208507d","2","36","1741","","","","","","","","","<img src= ""rock_img/I_Basalt_14.jpg"" style=""width:8cm; height:5.82cm;""><p>What type of rock is this?</p>","3","class_response","1","train","28","Gabbro","Basalt","14","false","4","2","",""
"","","","","","","","","","","","html-button-response","160","2.0.0","1000931","665e49f8cb0ef6119208507d","2","36","1451","","","","","","","","","<img src= rock_img/I_Basalt_14.jpg style=""width:8cm; height:5.82cm;""><p style='font-size: 30px; color: red;'><strong>Incorrect!</strong></p><p style='font-size: 30px;'><strong>This rock is basalt</strong></p>","0","corr_feedback","1","train","28","","","","","","","",""
"","","","","","","","","","","","html-button-response","161","2.0.0","1003030","665e49f8cb0ef6119208507d","2","36","2097","","","","","","","","","<img src= ""rock_img/I_Obsidian_04.jpg"" style=""width:8cm; height:6.930000000000001cm;""><p>What type of rock is this?</p>","4","class_response","1","train","29","Obsidian","Obsidian","04","true","5","5","",""
"","","","","","","","","","","","html-button-response","162","2.0.0","1003991","665e49f8cb0ef6119208507d","2","36","958","","","","","","","","","<img src= rock_img/I_Obsidian_04.jpg style=""width:8cm; height:6.930000000000001cm;""><p style='font-size: 30px; color: green;'><strong>Correct!</strong></p><p style='font-size: 30px;'><strong>This rock is obsidian</strong></p>","0","corr_feedback","1","train","29","","","","","","","",""
"","","","","","","","","","","","html-button-response","163","2.0.0","1006236","665e49f8cb0ef6119208507d","2","36","2242","","","","","","","","","<img src= ""rock_img/I_Diorite_02.jpg"" style=""width:8cm; height:6.27cm;""><p>What type of rock is this?</p>","4","class_response","1","train","30","Obsidian","Diorite","02","false","5","3","",""
"","","","","","","","","","","","html-button-response","164","2.0.0","1007154","665e49f8cb0ef6119208507d","2","36","916","","","","","","","","","<img src= rock_img/I_Diorite_02.jpg style=""width:8cm; height:6.27cm;""><p style='font-size: 30px; color: red;'><strong>Incorrect!</strong></p><p style='font-size: 30px;'><strong>This rock is diorite</strong></p>","0","corr_feedback","1","train","30","","","","","","","",""
"","","","","","","","","","","","html-button-response","165","2.0.0","1009461","665e49f8cb0ef6119208507d","2","36","2302","","","","","","","","","<img src= ""rock_img/I_Gabbro_12.jpg"" style=""width:8cm; height:7.800000000000001cm;""><p>What type of rock is this?</p>","2","class_response","1","train","31","Diorite","Gabbro","12","false","3","4","",""
"","","","","","","","","","","","html-button-response","166","2.0.0","1010626","665e49f8cb0ef6119208507d","2","36","1163","","","","","","","","","<img src= rock_img/I_Gabbro_12.jpg style=""width:8cm; height:7.800000000000001cm;""><p style='font-size: 30px; color: red;'><strong>Incorrect!</strong></p><p style='font-size: 30px;'><strong>This rock is gabbro</strong></p>","0","corr_feedback","1","train","31","","","","","","","",""
"","","","","","","","","","","","html-button-response","167","2.0.0","1014111","665e49f8cb0ef6119208507d","2","36","3482","","","","","","","","","<img src= ""rock_img/I_Peridotite_08.jpg"" style=""width:8cm; height:6.7cm;""><p>What type of rock is this?</p>","6","class_response","1","train","32","Peridotite","Peridotite","08","true","7","7","",""
"","","","","","","","","","","","html-button-response","168","2.0.0","1014787","665e49f8cb0ef6119208507d","2","36","674","","","","","","","","","<img src= rock_img/I_Peridotite_08.jpg style=""width:8cm; height:6.7cm;""><p style='font-size: 30px; color: green;'><strong>Correct!</strong></p><p style='font-size: 30px;'><strong>This rock is peridotite</strong></p>","0","corr_feedback","1","train","32","","","","","","","",""
"","","","","","","","","","","","html-button-response","169","2.0.0","1017494","665e49f8cb0ef6119208507d","2","36","2704","","","","","","","","","<img src= ""rock_img/I_Peridotite_16.jpg"" style=""width:8cm; height:6.989999999999999cm;""><p>What type of rock is this?</p>","6","class_response","1","train","33","Peridotite","Peridotite","16","true","7","7","",""
"","","","","","","","","","","","html-button-response","170","2.0.0","1018547","665e49f8cb0ef6119208507d","2","36","1051","","","","","","","","","<img src= rock_img/I_Peridotite_16.jpg style=""width:8cm; height:6.989999999999999cm;""><p style='font-size: 30px; color: green;'><strong>Correct!</strong></p><p style='font-size: 30px;'><strong>This rock is peridotite</strong></p>","0","corr_feedback","1","train","33","","","","","","","",""
"","","","","","","","","","","","html-button-response","171","2.0.0","1022848","665e49f8cb0ef6119208507d","2","36","4297","","","","","","","","","<img src= ""rock_img/I_Basalt_12.jpg"" style=""width:8cm; height:6.010000000000001cm;""><p>What type of rock is this?</p>","3","class_response","1","train","34","Gabbro","Basalt","12","false","4","2","",""
"","","","","","","","","","","","html-button-response","172","2.0.0","1024175","665e49f8cb0ef6119208507d","2","36","1324","","","","","","","","","<img src= rock_img/I_Basalt_12.jpg style=""width:8cm; height:6.010000000000001cm;""><p style='font-size: 30px; color: red;'><strong>Incorrect!</strong></p><p style='font-size: 30px;'><strong>This rock is basalt</strong></p>","0","corr_feedback","1","train","34","","","","","","","",""
"","","","","","","","","","","","html-button-response","173","2.0.0","1026019","665e49f8cb0ef6119208507d","2","36","1840","","","","","","","","","<img src= ""rock_img/I_Peridotite_06.jpg"" style=""width:8cm; height:7.53cm;""><p>What type of rock is this?</p>","6","class_response","1","train","35","Peridotite","Peridotite","06","true","7","7","",""
"","","","","","","","","","","","html-button-response","174","2.0.0","1027122","665e49f8cb0ef6119208507d","2","36","1100","","","","","","","","","<img src= rock_img/I_Peridotite_06.jpg style=""width:8cm; height:7.53cm;""><p style='font-size: 30px; color: green;'><strong>Correct!</strong></p><p style='font-size: 30px;'><strong>This rock is peridotite</strong></p>","0","corr_feedback","1","train","35","","","","","","","",""
"","","","","","","","","","","","html-button-response","175","2.0.0","1029204","665e49f8cb0ef6119208507d","2","36","2078","","","","","","","","","<img src= ""rock_img/I_Pegmatite_13.jpg"" style=""width:8cm; height:4.95cm;""><p>What type of rock is this?</p>","6","class_response","1","train","36","Peridotite","Pegmatite","13","false","7","6","",""
"","","","","","","","","","","","html-button-response","176","2.0.0","1030107","665e49f8cb0ef6119208507d","2","36","901","","","","","","","","","<img src= rock_img/I_Pegmatite_13.jpg style=""width:8cm; height:4.95cm;""><p style='font-size: 30px; color: red;'><strong>Incorrect!</strong></p><p style='font-size: 30px;'><strong>This rock is pegmatite</strong></p>","0","corr_feedback","1","train","36","","","","","","","",""
"","","","","","","","","","","","html-button-response","177","2.0.0","1033170","665e49f8cb0ef6119208507d","2","36","3060","","","","","","","","","<img src= ""rock_img/I_Gabbro_14.jpg"" style=""width:8cm; height:8.48cm;""><p>What type of rock is this?</p>","1","class_response","1","train","37","Basalt","Gabbro","14","false","2","4","",""
"","","","","","","","","","","","html-button-response","178","2.0.0","1034054","665e49f8cb0ef6119208507d","2","36","881","","","","","","","","","<img src= rock_img/I_Gabbro_14.jpg style=""width:8cm; height:8.48cm;""><p style='font-size: 30px; color: red;'><strong>Incorrect!</strong></p><p style='font-size: 30px;'><strong>This rock is gabbro</strong></p>","0","corr_feedback","1","train","37","","","","","","","",""
"","","","","","","","","","","","html-button-response","179","2.0.0","1036328","665e49f8cb0ef6119208507d","2","36","2271","","","","","","","","","<img src= ""rock_img/I_Basalt_05.jpg"" style=""width:8cm; height:8.18cm;""><p>What type of rock is this?</p>","1","class_response","1","train","38","Basalt","Basalt","05","true","2","2","",""
"","","","","","","","","","","","html-button-response","180","2.0.0","1037327","665e49f8cb0ef6119208507d","2","36","997","","","","","","","","","<img src= rock_img/I_Basalt_05.jpg style=""width:8cm; height:8.18cm;""><p style='font-size: 30px; color: green;'><strong>Correct!</strong></p><p style='font-size: 30px;'><strong>This rock is basalt</strong></p>","0","corr_feedback","1","train","38","","","","","","","",""
"","","","","","","","","","","","html-button-response","181","2.0.0","1040816","665e49f8cb0ef6119208507d","2","36","3487","","","","","","","","","<img src= ""rock_img/I_Pegmatite_06.jpg"" style=""width:8cm; height:5.17cm;""><p>What type of rock is this?</p>","0","class_response","1","train","39","Andesite","Pegmatite","06","false","1","6","",""
"","","","","","","","","","","","html-button-response","182","2.0.0","1042796","665e49f8cb0ef6119208507d","2","36","1976","","","","","","","","","<img src= rock_img/I_Pegmatite_06.jpg style=""width:8cm; height:5.17cm;""><p style='font-size: 30px; color: red;'><strong>Incorrect!</strong></p><p style='font-size: 30px;'><strong>This rock is pegmatite</strong></p>","0","corr_feedback","1","train","39","","","","","","","",""
"","","","","","","","","","","","html-button-response","183","2.0.0","1046457","665e49f8cb0ef6119208507d","2","36","3658","","","","","","","","","<img src= ""rock_img/I_Pegmatite_05.jpg"" style=""width:8cm; height:7.300000000000001cm;""><p>What type of rock is this?</p>","4","class_response","1","train","40","Obsidian","Pegmatite","05","false","5","6","",""
"","","","","","","","","","","","html-button-response","184","2.0.0","1047231","665e49f8cb0ef6119208507d","2","36","772","","","","","","","","","<img src= rock_img/I_Pegmatite_05.jpg style=""width:8cm; height:7.300000000000001cm;""><p style='font-size: 30px; color: red;'><strong>Incorrect!</strong></p><p style='font-size: 30px;'><strong>This rock is pegmatite</strong></p>","0","corr_feedback","1","train","40","","","","","","","",""
"","","","","","","","","","","","html-button-response","185","2.0.0","1049890","665e49f8cb0ef6119208507d","2","36","2656","","","","","","","","","<img src= ""rock_img/I_Gabbro_09.jpg"" style=""width:8cm; height:7.279999999999999cm;""><p>What type of rock is this?</p>","3","class_response","1","train","41","Gabbro","Gabbro","09","true","4","4","",""
"","","","","","","","","","","","html-button-response","186","2.0.0","1050956","665e49f8cb0ef6119208507d","2","36","1064","","","","","","","","","<img src= rock_img/I_Gabbro_09.jpg style=""width:8cm; height:7.279999999999999cm;""><p style='font-size: 30px; color: green;'><strong>Correct!</strong></p><p style='font-size: 30px;'><strong>This rock is gabbro</strong></p>","0","corr_feedback","1","train","41","","","","","","","",""
"","","","","","","","","","","","html-button-response","187","2.0.0","1053951","665e49f8cb0ef6119208507d","2","36","2992","","","","","","","","","<img src= ""rock_img/I_Pegmatite_10.jpg"" style=""width:8cm; height:4.16cm;""><p>What type of rock is this?</p>","2","class_response","1","train","42","Diorite","Pegmatite","10","false","3","6","",""
"","","","","","","","","","","","html-button-response","188","2.0.0","1054822","665e49f8cb0ef6119208507d","2","36","869","","","","","","","","","<img src= rock_img/I_Pegmatite_10.jpg style=""width:8cm; height:4.16cm;""><p style='font-size: 30px; color: red;'><strong>Incorrect!</strong></p><p style='font-size: 30px;'><strong>This rock is pegmatite</strong></p>","0","corr_feedback","1","train","42","","","","","","","",""
"","","","","","","","","","","","html-button-response","189","2.0.0","1059971","665e49f8cb0ef6119208507d","2","36","5147","","","","","","","","","<img src= ""rock_img/I_Pegmatite_13.jpg"" style=""width:8cm; height:4.95cm;""><p>What type of rock is this?</p>","6","class_response","1","train","43","Peridotite","Pegmatite","13","false","7","6","",""
"","","","","","","","","","","","html-button-response","190","2.0.0","1060766","665e49f8cb0ef6119208507d","2","36","793","","","","","","","","","<img src= rock_img/I_Pegmatite_13.jpg style=""width:8cm; height:4.95cm;""><p style='font-size: 30px; color: red;'><strong>Incorrect!</strong></p><p style='font-size: 30px;'><strong>This rock is pegmatite</strong></p>","0","corr_feedback","1","train","43","","","","","","","",""
"","","","","","","","","","","","html-button-response","191","2.0.0","1063474","665e49f8cb0ef6119208507d","2","36","2705","","","","","","","","","<img src= ""rock_img/I_Obsidian_10.jpg"" style=""width:8cm; height:6.260000000000001cm;""><p>What type of rock is this?</p>","4","class_response","1","train","44","Obsidian","Obsidian","10","true","5","5","",""
"","","","","","","","","","","","html-button-response","192","2.0.0","1064255","665e49f8cb0ef6119208507d","2","36","779","","","","","","","","","<img src= rock_img/I_Obsidian_10.jpg style=""width:8cm; height:6.260000000000001cm;""><p style='font-size: 30px; color: green;'><strong>Correct!</strong></p><p style='font-size: 30px;'><strong>This rock is obsidian</strong></p>","0","corr_feedback","1","train","44","","","","","","","",""
"","","","","","","","","","","","html-button-response","193","2.0.0","1066166","665e49f8cb0ef6119208507d","2","36","1909","","","","","","","","","<img src= ""rock_img/I_Obsidian_06.jpg"" style=""width:8cm; height:6.8cm;""><p>What type of rock is this?</p>","4","class_response","1","train","45","Obsidian","Obsidian","06","true","5","5","",""
"","","","","","","","","","","","html-button-response","194","2.0.0","1067067","665e49f8cb0ef6119208507d","2","36","899","","","","","","","","","<img src= rock_img/I_Obsidian_06.jpg style=""width:8cm; height:6.8cm;""><p style='font-size: 30px; color: green;'><strong>Correct!</strong></p><p style='font-size: 30px;'><strong>This rock is obsidian</strong></p>","0","corr_feedback","1","train","45","","","","","","","",""
"","","","","","","","","","","","html-button-response","195","2.0.0","1069628","665e49f8cb0ef6119208507d","2","36","2558","","","","","","","","","<img src= ""rock_img/I_Andesite_11.jpg"" style=""width:8cm; height:4.92cm;""><p>What type of rock is this?</p>","1","class_response","1","train","46","Basalt","Andesite","11","false","2","1","",""
"","","","","","","","","","","","html-button-response","196","2.0.0","1071207","665e49f8cb0ef6119208507d","2","36","1576","","","","","","","","","<img src= rock_img/I_Andesite_11.jpg style=""width:8cm; height:4.92cm;""><p style='font-size: 30px; color: red;'><strong>Incorrect!</strong></p><p style='font-size: 30px;'><strong>This rock is andesite</strong></p>","0","corr_feedback","1","train","46","","","","","","","",""
"","","","","","","","","","","","html-button-response","197","2.0.0","1082468","665e49f8cb0ef6119208507d","2","36","11257","","","","","","","","","<img src= ""rock_img/I_Basalt_10.jpg"" style=""width:8cm; height:5.85cm;""><p>What type of rock is this?</p>","2","class_response","1","train","47","Diorite","Basalt","10","false","3","2","",""
"","","","","","","","","","","","html-button-response","198","2.0.0","1083287","665e49f8cb0ef6119208507d","2","36","816","","","","","","","","","<img src= rock_img/I_Basalt_10.jpg style=""width:8cm; height:5.85cm;""><p style='font-size: 30px; color: red;'><strong>Incorrect!</strong></p><p style='font-size: 30px;'><strong>This rock is basalt</strong></p>","0","corr_feedback","1","train","47","","","","","","","",""
"","","","","","","","","","","","html-button-response","199","2.0.0","1090620","665e49f8cb0ef6119208507d","2","36","7330","","","","","","","","","<img src= ""rock_img/I_Diorite_10.jpg"" style=""width:8cm; height:5.949999999999999cm;""><p>What type of rock is this?</p>","3","class_response","1","train","48","Gabbro","Diorite","10","false","4","3","",""
"","","","","","","","","","","","html-button-response","200","2.0.0","1091835","665e49f8cb0ef6119208507d","2","36","1212","","","","","","","","","<img src= rock_img/I_Diorite_10.jpg style=""width:8cm; height:5.949999999999999cm;""><p style='font-size: 30px; color: red;'><strong>Incorrect!</strong></p><p style='font-size: 30px;'><strong>This rock is diorite</strong></p>","0","corr_feedback","1","train","48","","","","","","","",""
"","","","","","","","","","","","instructions","203","2.0.0","1445276","665e49f8cb0ef6119208507d","2","36","353452","","","","","","","","[{""page_index"":0,""viewing_time"":6548},{""page_index"":1,""viewing_time"":346903}]","","","","","","","","","","","","","",""
"","","","","","","","","","","","html-button-response","204","2.0.0","1446320","665e49f8cb0ef6119208507d","2","36","1042","","","","","","","","","","0","start_test","","","","","","","","","","",""
"","","","","","","","","","","","html-button-response","205","2.0.0","1448782","665e49f8cb0ef6119208507d","2","36","2459","","","","","","","","","<img src= ""rock_img/I_Peridotite_15.jpg"" style=""width:8cm; height:6cm;""><p>What type of rock is this?</p>","2","class_response","1","test","1","Diorite","Peridotite","15","false","3","7","",""
"","","","","","","","","","","","html-keyboard-response","206","2.0.0","1449290","665e49f8cb0ef6119208507d","2","36","null","","","","","","","","","<p style='font-size: 30px;'><strong>Okay</strong></p>","null","neutral_feedback","1","test","1","","","","","","","",""
"","","","","","","","","","","","html-button-response","207","2.0.0","1451232","665e49f8cb0ef6119208507d","2","36","1938","","","","","","","","","<img src= ""rock_img/I_Peridotite_14.jpg"" style=""width:8cm; height:5.3cm;""><p>What type of rock is this?</p>","5","class_response","1","test","2","Pegmatite","Peridotite","14","false","6","7","",""
"","","","","","","","","","","","html-keyboard-response","208","2.0.0","1451741","665e49f8cb0ef6119208507d","2","36","null","","","","","","","","","<p style='font-size: 30px;'><strong>Okay</strong></p>","null","neutral_feedback","1","test","2","","","","","","","",""
"","","","","","","","","","","","html-button-response","209","2.0.0","1455660","665e49f8cb0ef6119208507d","2","36","3915","","","","","","","","","<img src= ""rock_img/I_Peridotite_12.jpg"" style=""width:8cm; height:4.54cm;""><p>What type of rock is this?</p>","6","class_response","1","test","3","Peridotite","Peridotite","12","true","7","7","",""
"","","","","","","","","","","","html-keyboard-response","210","2.0.0","1456162","665e49f8cb0ef6119208507d","2","36","null","","","","","","","","","<p style='font-size: 30px;'><strong>Okay</strong></p>","null","neutral_feedback","1","test","3","","","","","","","",""
"","","","","","","","","","","","html-button-response","211","2.0.0","1460589","665e49f8cb0ef6119208507d","2","36","4425","","","","","","","","","<img src= ""rock_img/I_Peridotite_07.jpg"" style=""width:8cm; height:4.83cm;""><p>What type of rock is this?</p>","0","class_response","1","test","4","Andesite","Peridotite","07","false","1","7","",""
"","","","","","","","","","","","html-keyboard-response","212","2.0.0","1461097","665e49f8cb0ef6119208507d","2","36","null","","","","","","","","","<p style='font-size: 30px;'><strong>Okay</strong></p>","null","neutral_feedback","1","test","4","","","","","","","",""
"","","","","","","","","","","","html-button-response","213","2.0.0","1463148","665e49f8cb0ef6119208507d","2","36","2048","","","","","","","","","<img src= ""rock_img/I_Pumice_02.jpg"" style=""width:8cm; height:7.3999999999999995cm;""><p>What type of rock is this?</p>","2","class_response","1","test","5","Diorite","Pumice","02","false","3","8","",""
"","","","","","","","","","","","html-keyboard-response","214","2.0.0","1463651","665e49f8cb0ef6119208507d","2","36","null","","","","","","","","","<p style='font-size: 30px;'><strong>Okay</strong></p>","null","neutral_feedback","1","test","5","","","","","","","",""
"","","","","","","","","","","","html-button-response","215","2.0.0","1468332","665e49f8cb0ef6119208507d","2","36","4677","","","","","","","","","<img src= ""rock_img/I_Andesite_14.jpg"" style=""width:8cm; height:5.449999999999999cm;""><p>What type of rock is this?</p>","0","class_response","1","test","6","Andesite","Andesite","14","true","1","1","",""
"","","","","","","","","","","","html-keyboard-response","216","2.0.0","1468835","665e49f8cb0ef6119208507d","2","36","null","","","","","","","","","<p style='font-size: 30px;'><strong>Okay</strong></p>","null","neutral_feedback","1","test","6","","","","","","","",""
"","","","","","","","","","","","html-button-response","217","2.0.0","1471985","665e49f8cb0ef6119208507d","2","36","3147","","","","","","","","","<img src= ""rock_img/I_Diorite_06.jpg"" style=""width:8cm; height:6.03cm;""><p>What type of rock is this?</p>","3","class_response","1","test","7","Gabbro","Diorite","06","false","4","3","",""
"","","","","","","","","","","","html-keyboard-response","218","2.0.0","1472493","665e49f8cb0ef6119208507d","2","36","null","","","","","","","","","<p style='font-size: 30px;'><strong>Okay</strong></p>","null","neutral_feedback","1","test","7","","","","","","","",""
"","","","","","","","","","","","html-button-response","219","2.0.0","1475951","665e49f8cb0ef6119208507d","2","36","3455","","","","","","","","","<img src= ""rock_img/I_Andesite_09.jpg"" style=""width:8cm; height:6cm;""><p>What type of rock is this?</p>","2","class_response","1","test","8","Diorite","Andesite","09","false","3","1","",""
"","","","","","","","","","","","html-keyboard-response","220","2.0.0","1476457","665e49f8cb0ef6119208507d","2","36","null","","","","","","","","","<p style='font-size: 30px;'><strong>Okay</strong></p>","null","neutral_feedback","1","test","8","","","","","","","",""
"","","","","","","","","","","","html-button-response","221","2.0.0","1479321","665e49f8cb0ef6119208507d","2","36","2862","","","","","","","","","<img src= ""rock_img/I_Andesite_02.jpg"" style=""width:8cm; height:8.5cm;""><p>What type of rock is this?</p>","3","class_response","1","test","9","Gabbro","Andesite","02","false","4","1","",""
"","","","","","","","","","","","html-keyboard-response","222","2.0.0","1479830","665e49f8cb0ef6119208507d","2","36","null","","","","","","","","","<p style='font-size: 30px;'><strong>Okay</strong></p>","null","neutral_feedback","1","test","9","","","","","","","",""
"","","","","","","","","","","","html-button-response","223","2.0.0","1482757","665e49f8cb0ef6119208507d","2","36","2924","","","","","","","","","<img src= ""rock_img/I_Pegmatite_09.jpg"" style=""width:8cm; height:4.03cm;""><p>What type of rock is this?</p>","2","class_response","1","test","10","Diorite","Pegmatite","09","false","3","6","",""
"","","","","","","","","","","","html-keyboard-response","224","2.0.0","1483260","665e49f8cb0ef6119208507d","2","36","null","","","","","","","","","<p style='font-size: 30px;'><strong>Okay</strong></p>","null","neutral_feedback","1","test","10","","","","","","","",""
"","","","","","","","","","","","html-button-response","225","2.0.0","1486157","665e49f8cb0ef6119208507d","2","36","2894","","","","","","","","","<img src= ""rock_img/I_Diorite_16.jpg"" style=""width:8cm; height:6.74cm;""><p>What type of rock is this?</p>","5","class_response","1","test","11","Pegmatite","Diorite","16","false","6","3","",""
"","","","","","","","","","","","html-keyboard-response","226","2.0.0","1486676","665e49f8cb0ef6119208507d","2","36","null","","","","","","","","","<p style='font-size: 30px;'><strong>Okay</strong></p>","null","neutral_feedback","1","test","11","","","","","","","",""
"","","","","","","","","","","","html-button-response","227","2.0.0","1490441","665e49f8cb0ef6119208507d","2","36","3762","","","","","","","","","<img src= ""rock_img/I_Diorite_14.jpg"" style=""width:8cm; height:5.71cm;""><p>What type of rock is this?</p>","5","class_response","1","test","12","Pegmatite","Diorite","14","false","6","3","",""
"","","","","","","","","","","","html-keyboard-response","228","2.0.0","1490959","665e49f8cb0ef6119208507d","2","36","null","","","","","","","","","<p style='font-size: 30px;'><strong>Okay</strong></p>","null","neutral_feedback","1","test","12","","","","","","","",""
"","","","","","","","","","","","html-button-response","229","2.0.0","1493878","665e49f8cb0ef6119208507d","2","36","2916","","","","","","","","","<img src= ""rock_img/I_Pegmatite_08.jpg"" style=""width:8cm; height:7.68cm;""><p>What type of rock is this?</p>","4","class_response","1","test","13","Obsidian","Pegmatite","08","false","5","6","",""
"","","","","","","","","","","","html-keyboard-response","230","2.0.0","1494384","665e49f8cb0ef6119208507d","2","36","null","","","","","","","","","<p style='font-size: 30px;'><strong>Okay</strong></p>","null","neutral_feedback","1","test","13","","","","","","","",""
"","","","","","","","","","","","html-button-response","231","2.0.0","1498532","665e49f8cb0ef6119208507d","2","36","4144","","","","","","","","","<img src= ""rock_img/I_Gabbro_11.jpg"" style=""width:8cm; height:6.2cm;""><p>What type of rock is this?</p>","6","class_response","1","test","14","Peridotite","Gabbro","11","false","7","4","",""
"","","","","","","","","","","","html-keyboard-response","232","2.0.0","1499038","665e49f8cb0ef6119208507d","2","36","null","","","","","","","","","<p style='font-size: 30px;'><strong>Okay</strong></p>","null","neutral_feedback","1","test","14","","","","","","","",""
"","","","","","","","","","","","html-button-response","233","2.0.0","1506396","665e49f8cb0ef6119208507d","2","36","7354","","","","","","","","","<img src= ""rock_img/I_Pegmatite_11.jpg"" style=""width:8cm; height:8.14cm;""><p>What type of rock is this?</p>","5","class_response","1","test","15","Pegmatite","Pegmatite","11","true","6","6","",""
"","","","","","","","","","","","html-keyboard-response","234","2.0.0","1506900","665e49f8cb0ef6119208507d","2","36","null","","","","","","","","","<p style='font-size: 30px;'><strong>Okay</strong></p>","null","neutral_feedback","1","test","15","","","","","","","",""
"","","","","","","","","","","","html-button-response","235","2.0.0","1509624","665e49f8cb0ef6119208507d","2","36","2720","","","","","","","","","<img src= ""rock_img/I_Andesite_10.jpg"" style=""width:8cm; height:4.16cm;""><p>What type of rock is this?</p>","0","class_response","1","test","16","Andesite","Andesite","10","true","1","1","",""
"","","","","","","","","","","","html-keyboard-response","236","2.0.0","1510134","665e49f8cb0ef6119208507d","2","36","null","","","","","","","","","<p style='font-size: 30px;'><strong>Okay</strong></p>","null","neutral_feedback","1","test","16","","","","","","","",""
"","","","","","","","","","","","html-button-response","237","2.0.0","1513734","665e49f8cb0ef6119208507d","2","36","3596","","","","","","","","","<img src= ""rock_img/I_Gabbro_01.jpg"" style=""width:8cm; height:5.21cm;""><p>What type of rock is this?</p>","2","class_response","1","test","17","Diorite","Gabbro","01","false","3","4","",""
"","","","","","","","","","","","html-keyboard-response","238","2.0.0","1514243","665e49f8cb0ef6119208507d","2","36","null","","","","","","","","","<p style='font-size: 30px;'><strong>Okay</strong></p>","null","neutral_feedback","1","test","17","","","","","","","",""
"","","","","","","","","","","","html-button-response","239","2.0.0","1517753","665e49f8cb0ef6119208507d","2","36","3507","","","","","","","","","<img src= ""rock_img/I_Basalt_08.jpg"" style=""width:8cm; height:10.44cm;""><p>What type of rock is this?</p>","3","class_response","1","test","18","Gabbro","Basalt","08","false","4","2","",""
"","","","","","","","","","","","html-keyboard-response","240","2.0.0","1518256","665e49f8cb0ef6119208507d","2","36","null","","","","","","","","","<p style='font-size: 30px;'><strong>Okay</strong></p>","null","neutral_feedback","1","test","18","","","","","","","",""
"","","","","","","","","","","","html-button-response","241","2.0.0","1521103","665e49f8cb0ef6119208507d","2","36","2844","","","","","","","","","<img src= ""rock_img/I_Basalt_01.jpg"" style=""width:8cm; height:7.880000000000001cm;""><p>What type of rock is this?</p>","1","class_response","1","test","19","Basalt","Basalt","01","true","2","2","",""
"","","","","","","","","","","","html-keyboard-response","242","2.0.0","1521613","665e49f8cb0ef6119208507d","2","36","null","","","","","","","","","<p style='font-size: 30px;'><strong>Okay</strong></p>","null","neutral_feedback","1","test","19","","","","","","","",""
"","","","","","","","","","","","html-button-response","243","2.0.0","1524564","665e49f8cb0ef6119208507d","2","36","2947","","","","","","","","","<img src= ""rock_img/I_Peridotite_02.jpg"" style=""width:8cm; height:5.859999999999999cm;""><p>What type of rock is this?</p>","5","class_response","1","test","20","Pegmatite","Peridotite","02","false","6","7","",""
"","","","","","","","","","","","html-keyboard-response","244","2.0.0","1525073","665e49f8cb0ef6119208507d","2","36","null","","","","","","","","","<p style='font-size: 30px;'><strong>Okay</strong></p>","null","neutral_feedback","1","test","20","","","","","","","",""
"","","","","","","","","","","","html-button-response","245","2.0.0","1526578","665e49f8cb0ef6119208507d","2","36","1503","","","","","","","","","<img src= ""rock_img/I_Basalt_09.jpg"" style=""width:8cm; height:6.2cm;""><p>What type of rock is this?</p>","1","class_response","1","test","21","Basalt","Basalt","09","true","2","2","",""
"","","","","","","","","","","","html-keyboard-response","246","2.0.0","1527088","665e49f8cb0ef6119208507d","2","36","null","","","","","","","","","<p style='font-size: 30px;'><strong>Okay</strong></p>","null","neutral_feedback","1","test","21","","","","","","","",""
"","","","","","","","","","","","html-button-response","247","2.0.0","1529691","665e49f8cb0ef6119208507d","2","36","2599","","","","","","","","","<img src= ""rock_img/I_Obsidian_12.jpg"" style=""width:8cm; height:6.53cm;""><p>What type of rock is this?</p>","4","class_response","1","test","22","Obsidian","Obsidian","12","true","5","5","",""
"","","","","","","","","","","","html-keyboard-response","248","2.0.0","1530208","665e49f8cb0ef6119208507d","2","36","null","","","","","","","","","<p style='font-size: 30px;'><strong>Okay</strong></p>","null","neutral_feedback","1","test","22","","","","","","","",""
"","","","","","","","","","","","html-button-response","249","2.0.0","1532427","665e49f8cb0ef6119208507d","2","36","2216","","","","","","","","","<img src= ""rock_img/I_Pumice_16.jpg"" style=""width:8cm; height:6.79cm;""><p>What type of rock is this?</p>","2","class_response","1","test","23","Diorite","Pumice","16","false","3","8","",""
"","","","","","","","","","","","html-keyboard-response","250","2.0.0","1532942","665e49f8cb0ef6119208507d","2","36","null","","","","","","","","","<p style='font-size: 30px;'><strong>Okay</strong></p>","null","neutral_feedback","1","test","23","","","","","","","",""
"","","","","","","","","","","","html-button-response","251","2.0.0","1536608","665e49f8cb0ef6119208507d","2","36","3662","","","","","","","","","<img src= ""rock_img/I_Pegmatite_16.jpg"" style=""width:8cm; height:5.8cm;""><p>What type of rock is this?</p>","2","class_response","1","test","24","Diorite","Pegmatite","16","false","3","6","",""
"","","","","","","","","","","","html-keyboard-response","252","2.0.0","1537124","665e49f8cb0ef6119208507d","2","36","null","","","","","","","","","<p style='font-size: 30px;'><strong>Okay</strong></p>","null","neutral_feedback","1","test","24","","","","","","","",""
"","","","","","","","","","","","html-button-response","253","2.0.0","1539500","665e49f8cb0ef6119208507d","2","36","2372","","","","","","","","","<img src= ""rock_img/I_Diorite_07.jpg"" style=""width:8cm; height:5.239999999999999cm;""><p>What type of rock is this?</p>","6","class_response","1","test","25","Peridotite","Diorite","07","false","7","3","",""
"","","","","","","","","","","","html-keyboard-response","254","2.0.0","1540007","665e49f8cb0ef6119208507d","2","36","null","","","","","","","","","<p style='font-size: 30px;'><strong>Okay</strong></p>","null","neutral_feedback","1","test","25","","","","","","","",""
"","","","","","","","","","","","html-button-response","255","2.0.0","1542675","665e49f8cb0ef6119208507d","2","36","2665","","","","","","","","","<img src= ""rock_img/I_Pumice_06.jpg"" style=""width:8cm; height:6.9399999999999995cm;""><p>What type of rock is this?</p>","7","class_response","1","test","26","Pumice","Pumice","06","true","8","8","",""
"","","","","","","","","","","","html-keyboard-response","256","2.0.0","1543180","665e49f8cb0ef6119208507d","2","36","null","","","","","","","","","<p style='font-size: 30px;'><strong>Okay</strong></p>","null","neutral_feedback","1","test","26","","","","","","","",""
"","","","","","","","","","","","html-button-response","257","2.0.0","1546751","665e49f8cb0ef6119208507d","2","36","3567","","","","","","","","","<img src= ""rock_img/I_Obsidian_14.jpg"" style=""width:8cm; height:7.64cm;""><p>What type of rock is this?</p>","1","class_response","1","test","27","Basalt","Obsidian","14","false","2","5","",""
"","","","","","","","","","","","html-keyboard-response","258","2.0.0","1547261","665e49f8cb0ef6119208507d","2","36","null","","","","","","","","","<p style='font-size: 30px;'><strong>Okay</strong></p>","null","neutral_feedback","1","test","27","","","","","","","",""
"","","","","","","","","","","","html-button-response","259","2.0.0","1548782","665e49f8cb0ef6119208507d","2","36","1518","","","","","","","","","<img src= ""rock_img/I_Obsidian_07.jpg"" style=""width:8cm; height:4.76cm;""><p>What type of rock is this?</p>","4","class_response","1","test","28","Obsidian","Obsidian","07","true","5","5","",""
"","","","","","","","","","","","html-keyboard-response","260","2.0.0","1549284","665e49f8cb0ef6119208507d","2","36","null","","","","","","","","","<p style='font-size: 30px;'><strong>Okay</strong></p>","null","neutral_feedback","1","test","28","","","","","","","",""
"","","","","","","","","","","","html-button-response","261","2.0.0","1552276","665e49f8cb0ef6119208507d","2","36","2988","","","","","","","","","<img src= ""rock_img/I_Basalt_16.jpg"" style=""width:8cm; height:7.659999999999999cm;""><p>What type of rock is this?</p>","2","class_response","1","test","29","Diorite","Basalt","16","false","3","2","",""
"","","","","","","","","","","","html-keyboard-response","262","2.0.0","1552783","665e49f8cb0ef6119208507d","2","36","null","","","","","","","","","<p style='font-size: 30px;'><strong>Okay</strong></p>","null","neutral_feedback","1","test","29","","","","","","","",""
"","","","","","","","","","","","html-button-response","263","2.0.0","1560234","665e49f8cb0ef6119208507d","2","36","7447","","","","","","","","","<img src= ""rock_img/I_Gabbro_03.jpg"" style=""width:8cm; height:8.52cm;""><p>What type of rock is this?</p>","1","class_response","1","test","30","Basalt","Gabbro","03","false","2","4","",""
"","","","","","","","","","","","html-keyboard-response","264","2.0.0","1560748","665e49f8cb0ef6119208507d","2","36","null","","","","","","","","","<p style='font-size: 30px;'><strong>Okay</strong></p>","null","neutral_feedback","1","test","30","","","","","","","",""
"","","","","","","","","","","","html-button-response","265","2.0.0","1562914","665e49f8cb0ef6119208507d","2","36","2164","","","","","","","","","<img src= ""rock_img/I_Pumice_13.jpg"" style=""width:8cm; height:8.200000000000001cm;""><p>What type of rock is this?</p>","6","class_response","1","test","31","Peridotite","Pumice","13","false","7","8","",""
"","","","","","","","","","","","html-keyboard-response","266","2.0.0","1563425","665e49f8cb0ef6119208507d","2","36","null","","","","","","","","","<p style='font-size: 30px;'><strong>Okay</strong></p>","null","neutral_feedback","1","test","31","","","","","","","",""
"","","","","","","","","","","","html-button-response","267","2.0.0","1564811","665e49f8cb0ef6119208507d","2","36","1383","","","","","","","","","<img src= ""rock_img/I_Obsidian_09.jpg"" style=""width:8cm; height:5cm;""><p>What type of rock is this?</p>","4","class_response","1","test","32","Obsidian","Obsidian","09","true","5","5","",""
"","","","","","","","","","","","html-keyboard-response","268","2.0.0","1565329","665e49f8cb0ef6119208507d","2","36","null","","","","","","","","","<p style='font-size: 30px;'><strong>Okay</strong></p>","null","neutral_feedback","1","test","32","","","","","","","",""
"","","","","","","","","","","","html-button-response","269","2.0.0","1568520","665e49f8cb0ef6119208507d","2","36","3186","","","","","","","","","<img src= ""rock_img/I_Gabbro_15.jpg"" style=""width:8cm; height:6.29cm;""><p>What type of rock is this?</p>","3","class_response","1","test","33","Gabbro","Gabbro","15","true","4","4","",""
"","","","","","","","","","","","html-keyboard-response","270","2.0.0","1569023","665e49f8cb0ef6119208507d","2","36","null","","","","","","","","","<p style='font-size: 30px;'><strong>Okay</strong></p>","null","neutral_feedback","1","test","33","","","","","","","",""
"","","","","","","","","","","","html-button-response","271","2.0.0","1573179","665e49f8cb0ef6119208507d","2","36","4152","","","","","","","","","<img src= ""rock_img/I_Obsidian_16.jpg"" style=""width:8cm; height:9.3cm;""><p>What type of rock is this?</p>","4","class_response","1","test","34","Obsidian","Obsidian","16","true","5","5","",""
"","","","","","","","","","","","html-keyboard-response","272","2.0.0","1573686","665e49f8cb0ef6119208507d","2","36","null","","","","","","","","","<p style='font-size: 30px;'><strong>Okay</strong></p>","null","neutral_feedback","1","test","34","","","","","","","",""
"","","","","","","","","","","","html-button-response","273","2.0.0","1578522","665e49f8cb0ef6119208507d","2","36","4834","","","","","","","","","<img src= ""rock_img/I_Andesite_01.jpg"" style=""width:8cm; height:5.87cm;""><p>What type of rock is this?</p>","2","class_response","1","test","35","Diorite","Andesite","01","false","3","1","",""
"","","","","","","","","","","","html-keyboard-response","274","2.0.0","1579027","665e49f8cb0ef6119208507d","2","36","null","","","","","","","","","<p style='font-size: 30px;'><strong>Okay</strong></p>","null","neutral_feedback","1","test","35","","","","","","","",""
"","","","","","","","","","","","html-button-response","275","2.0.0","1584239","665e49f8cb0ef6119208507d","2","36","5209","","","","","","","","","<img src= ""rock_img/I_Diorite_11.jpg"" style=""width:8cm; height:7.11cm;""><p>What type of rock is this?</p>","1","class_response","1","test","36","Basalt","Diorite","11","false","2","3","",""
"","","","","","","","","","","","html-keyboard-response","276","2.0.0","1584751","665e49f8cb0ef6119208507d","2","36","null","","","","","","","","","<p style='font-size: 30px;'><strong>Okay</strong></p>","null","neutral_feedback","1","test","36","","","","","","","",""
"","","","","","","","","","","","html-button-response","277","2.0.0","1586371","665e49f8cb0ef6119208507d","2","36","1617","","","","","","","","","<img src= ""rock_img/I_Andesite_07.jpg"" style=""width:8cm; height:5.93cm;""><p>What type of rock is this?</p>","1","class_response","1","test","37","Basalt","Andesite","07","false","2","1","",""
"","","","","","","","","","","","html-keyboard-response","278","2.0.0","1586879","665e49f8cb0ef6119208507d","2","36","null","","","","","","","","","<p style='font-size: 30px;'><strong>Okay</strong></p>","null","neutral_feedback","1","test","37","","","","","","","",""
"","","","","","","","","","","","html-button-response","279","2.0.0","1588511","665e49f8cb0ef6119208507d","2","36","1628","","","","","","","","","<img src= ""rock_img/I_Pumice_08.jpg"" style=""width:8cm; height:6.67cm;""><p>What type of rock is this?</p>","5","class_response","1","test","38","Pegmatite","Pumice","08","false","6","8","",""
"","","","","","","","","","","","html-keyboard-response","280","2.0.0","1589027","665e49f8cb0ef6119208507d","2","36","null","","","","","","","","","<p style='font-size: 30px;'><strong>Okay</strong></p>","null","neutral_feedback","1","test","38","","","","","","","",""
"","","","","","","","","","","","html-button-response","281","2.0.0","1591328","665e49f8cb0ef6119208507d","2","36","2296","","","","","","","","","<img src= ""rock_img/I_Basalt_06.jpg"" style=""width:8cm; height:7.06cm;""><p>What type of rock is this?</p>","3","class_response","1","test","39","Gabbro","Basalt","06","false","4","2","",""
"","","","","","","","","","","","html-keyboard-response","282","2.0.0","1591832","665e49f8cb0ef6119208507d","2","36","null","","","","","","","","","<p style='font-size: 30px;'><strong>Okay</strong></p>","null","neutral_feedback","1","test","39","","","","","","","",""
"","","","","","","","","","","","html-button-response","283","2.0.0","1593502","665e49f8cb0ef6119208507d","2","36","1668","","","","","","","","","<img src= ""rock_img/I_Obsidian_11.jpg"" style=""width:8cm; height:6.05cm;""><p>What type of rock is this?</p>","4","class_response","1","test","40","Obsidian","Obsidian","11","true","5","5","",""
"","","","","","","","","","","","html-keyboard-response","284","2.0.0","1594015","665e49f8cb0ef6119208507d","2","36","null","","","","","","","","","<p style='font-size: 30px;'><strong>Okay</strong></p>","null","neutral_feedback","1","test","40","","","","","","","",""
"","","","","","","","","","","","html-button-response","285","2.0.0","1595631","665e49f8cb0ef6119208507d","2","36","1614","","","","","","","","","<img src= ""rock_img/I_Pumice_05.jpg"" style=""width:8cm; height:7.25cm;""><p>What type of rock is this?</p>","0","class_response","1","test","41","Andesite","Pumice","05","false","1","8","",""
"","","","","","","","","","","","html-keyboard-response","286","2.0.0","1596135","665e49f8cb0ef6119208507d","2","36","null","","","","","","","","","<p style='font-size: 30px;'><strong>Okay</strong></p>","null","neutral_feedback","1","test","41","","","","","","","",""
"","","","","","","","","","","","html-button-response","287","2.0.0","1597987","665e49f8cb0ef6119208507d","2","36","1850","","","","","","","","","<img src= ""rock_img/I_Gabbro_05.jpg"" style=""width:8cm; height:6cm;""><p>What type of rock is this?</p>","1","class_response","1","test","42","Basalt","Gabbro","05","false","2","4","",""
"","","","","","","","","","","","html-keyboard-response","288","2.0.0","1598504","665e49f8cb0ef6119208507d","2","36","null","","","","","","","","","<p style='font-size: 30px;'><strong>Okay</strong></p>","null","neutral_feedback","1","test","42","","","","","","","",""
"","","","","","","","","","","","html-button-response","289","2.0.0","1601440","665e49f8cb0ef6119208507d","2","36","2933","","","","","","","","","<img src= ""rock_img/I_Peridotite_10.jpg"" style=""width:8cm; height:5.390000000000001cm;""><p>What type of rock is this?</p>","6","class_response","1","test","43","Peridotite","Peridotite","10","true","7","7","",""
"","","","","","","","","","","","html-keyboard-response","290","2.0.0","1601954","665e49f8cb0ef6119208507d","2","36","null","","","","","","","","","<p style='font-size: 30px;'><strong>Okay</strong></p>","null","neutral_feedback","1","test","43","","","","","","","",""
"","","","","","","","","","","","html-button-response","291","2.0.0","1603862","665e49f8cb0ef6119208507d","2","36","1905","","","","","","","","","<img src= ""rock_img/I_Gabbro_08.jpg"" style=""width:8cm; height:5.15cm;""><p>What type of rock is this?</p>","1","class_response","1","test","44","Basalt","Gabbro","08","false","2","4","",""
"","","","","","","","","","","","html-keyboard-response","292","2.0.0","1604367","665e49f8cb0ef6119208507d","2","36","null","","","","","","","","","<p style='font-size: 30px;'><strong>Okay</strong></p>","null","neutral_feedback","1","test","44","","","","","","","",""
"","","","","","","","","","","","html-button-response","293","2.0.0","1606702","665e49f8cb0ef6119208507d","2","36","2333","","","","","","","","","<img src= ""rock_img/I_Pegmatite_15.jpg"" style=""width:8cm; height:6cm;""><p>What type of rock is this?</p>","4","class_response","1","test","45","Obsidian","Pegmatite","15","false","5","6","",""
"","","","","","","","","","","","html-keyboard-response","294","2.0.0","1607212","665e49f8cb0ef6119208507d","2","36","null","","","","","","","","","<p style='font-size: 30px;'><strong>Okay</strong></p>","null","neutral_feedback","1","test","45","","","","","","","",""
"","","","","","","","","","","","html-button-response","295","2.0.0","1610007","665e49f8cb0ef6119208507d","2","36","2792","","","","","","","","","<img src= ""rock_img/I_Diorite_08.jpg"" style=""width:8cm; height:6.37cm;""><p>What type of rock is this?</p>","5","class_response","1","test","46","Pegmatite","Diorite","08","false","6","3","",""
"","","","","","","","","","","","html-keyboard-response","296","2.0.0","1610521","665e49f8cb0ef6119208507d","2","36","null","","","","","","","","","<p style='font-size: 30px;'><strong>Okay</strong></p>","null","neutral_feedback","1","test","46","","","","","","","",""
"","","","","","","","","","","","html-button-response","297","2.0.0","1613727","665e49f8cb0ef6119208507d","2","36","3203","","","","","","","","","<img src= ""rock_img/I_Basalt_02.jpg"" style=""width:8cm; height:6.45cm;""><p>What type of rock is this?</p>","1","class_response","1","test","47","Basalt","Basalt","02","true","2","2","",""
"","","","","","","","","","","","html-keyboard-response","298","2.0.0","1614230","665e49f8cb0ef6119208507d","2","36","null","","","","","","","","","<p style='font-size: 30px;'><strong>Okay</strong></p>","null","neutral_feedback","1","test","47","","","","","","","",""
"","","","","","","","","","","","html-button-response","299","2.0.0","1615944","665e49f8cb0ef6119208507d","2","36","1710","","","","","","","","","<img src= ""rock_img/I_Pegmatite_12.jpg"" style=""width:8cm; height:5.7cm;""><p>What type of rock is this?</p>","4","class_response","1","test","48","Obsidian","Pegmatite","12","false","5","6","",""
"","","","","","","","","","","","html-keyboard-response","300","2.0.0","1616448","665e49f8cb0ef6119208507d","2","36","null","","","","","","","","","<p style='font-size: 30px;'><strong>Okay</strong></p>","null","neutral_feedback","1","test","48","","","","","","","",""
"","","","","","","","","","","","html-button-response","301","2.0.0","1637368","665e49f8cb0ef6119208507d","2","36","","","","","","","","","","","","cycle_feedback","","","","","","","","","","17937","2976.699999988079"
"","","","","","","","","","","","html-button-response","303","2.0.0","1639175","665e49f8cb0ef6119208507d","2","36","1803","","","","","","","","","","0","start_train","","","","","","","","","","",""
