"width","height","webaudio","browser","browser_version","mobile","os","fullscreen","vsync_rate","webcam","microphone","trial_type","trial_index","plugin_version","time_elapsed","subjID","condition","stimID","rt","url","success","value","timeout","failed_images","failed_audio","failed_video","view_history","stimulus","response","trialType","cycle","phase","trial","resp","cat","token","corr","resp_num","cat_num","time_fb1","time_fb2"
"1366","901","true","crios","131.0.6778","true","iOS","true","57.14","true","true","browser-check","0","2.0.0","1055","5a0bf53d728b1b0001ad95ad","2","41","","","","","","","","","","","","","","","","","","","","","","",""
"","","","","","","","","","","","external-html","1","2.0.0","4478","5a0bf53d728b1b0001ad95ad","2","41","3307","consent_form.html","","","","","","","","","","","","","","","","","","","","",""
"","","","","","","","","","","","fullscreen","2","2.0.0","6948","5a0bf53d728b1b0001ad95ad","2","41","1460","","true","","","","","","","","","","","","","","","","","","","",""
"","","","","","","","","","","","call-function","3","2.0.0","6953","5a0bf53d728b1b0001ad95ad","2","41","","","","{}","","","","","","","","","","","","","","","","","","",""
"","","","","","","","","","","","preload","4","2.0.0","9942","5a0bf53d728b1b0001ad95ad","2","41","","","true","","false","[]","[]","[]","","","","","","","","","","","","","","",""
"","","","","","","","","","","","instructions","5","2.0.0","26697","5a0bf53d728b1b0001ad95ad","2","41","16754","","","","","","","","[{""page_index"":0,""viewing_time"":3832},{""page_index"":1,""viewing_time"":6979},{""page_index"":2,""viewing_time"":5943}]","","","","","","","","","","","","","",""
"","","","","","","","","","","","html-button-response","6","2.0.0","28241","5a0bf53d728b1b0001ad95ad","2","41","1541","","","","","","","","","","0","start_test","","","","","","","","","","",""
"","","","","","","","","","","","html-button-response","7","2.0.0","31346","5a0bf53d728b1b0001ad95ad","2","41","3101","","","","","","","","","<img src= ""rock_img/I_Gabbro_13.jpg"" style=""width:8cm; height:5.08cm;""><p>What type of rock is this?</p>","2","class_response","0","test","1","Diorite","Gabbro","13","false","3","4","",""
"","","","","","","","","","","","html-keyboard-response","8","2.0.0","31851","5a0bf53d728b1b0001ad95ad","2","41","null","","","","","","","","","<p style='font-size: 30px;'><strong>Okay</strong></p>","null","neutral_feedback","0","test","1","","","","","","","",""
"","","","","","","","","","","","html-button-response","9","2.0.0","33585","5a0bf53d728b1b0001ad95ad","2","41","1730","","","","","","","","","<img src= ""rock_img/I_Obsidian_08.jpg"" style=""width:8cm; height:7.39cm;""><p>What type of rock is this?</p>","4","class_response","0","test","2","Obsidian","Obsidian","08","true","5","5","",""
"","","","","","","","","","","","html-keyboard-response","10","2.0.0","34088","5a0bf53d728b1b0001ad95ad","2","41","null","","","","","","","","","<p style='font-size: 30px;'><strong>Okay</strong></p>","null","neutral_feedback","0","test","2","","","","","","","",""
"","","","","","","","","","","","html-button-response","11","2.0.0","35252","5a0bf53d728b1b0001ad95ad","2","41","1160","","","","","","","","","<img src= ""rock_img/I_Obsidian_02.jpg"" style=""width:8cm; height:7.51cm;""><p>What type of rock is this?</p>","4","class_response","0","test","3","Obsidian","Obsidian","02","true","5","5","",""
"","","","","","","","","","","","html-keyboard-response","12","2.0.0","35755","5a0bf53d728b1b0001ad95ad","2","41","null","","","","","","","","","<p style='font-size: 30px;'><strong>Okay</strong></p>","null","neutral_feedback","0","test","3","","","","","","","",""
"","","","","","","","","","","","html-button-response","13","2.0.0","40179","5a0bf53d728b1b0001ad95ad","2","41","4420","","","","","","","","","<img src= ""rock_img/I_Pumice_03.jpg"" style=""width:8cm; height:6.64cm;""><p>What type of rock is this?</p>","7","class_response","0","test","4","Pumice","Pumice","03","true","8","8","",""
"","","","","","","","","","","","html-keyboard-response","14","2.0.0","40683","5a0bf53d728b1b0001ad95ad","2","41","null","","","","","","","","","<p style='font-size: 30px;'><strong>Okay</strong></p>","null","neutral_feedback","0","test","4","","","","","","","",""
"","","","","","","","","","","","html-button-response","15","2.0.0","49142","5a0bf53d728b1b0001ad95ad","2","41","8456","","","","","","","","","<img src= ""rock_img/I_Pegmatite_10.jpg"" style=""width:8cm; height:4.16cm;""><p>What type of rock is this?</p>","3","class_response","0","test","5","Gabbro","Pegmatite","10","false","4","6","",""
"","","","","","","","","","","","html-keyboard-response","16","2.0.0","49646","5a0bf53d728b1b0001ad95ad","2","41","null","","","","","","","","","<p style='font-size: 30px;'><strong>Okay</strong></p>","null","neutral_feedback","0","test","5","","","","","","","",""
"","","","","","","","","","","","html-button-response","17","2.0.0","51677","5a0bf53d728b1b0001ad95ad","2","41","2029","","","","","","","","","<img src= ""rock_img/I_Pumice_08.jpg"" style=""width:8cm; height:6.67cm;""><p>What type of rock is this?</p>","7","class_response","0","test","6","Pumice","Pumice","08","true","8","8","",""
"","","","","","","","","","","","html-keyboard-response","18","2.0.0","52180","5a0bf53d728b1b0001ad95ad","2","41","null","","","","","","","","","<p style='font-size: 30px;'><strong>Okay</strong></p>","null","neutral_feedback","0","test","6","","","","","","","",""
"","","","","","","","","","","","html-button-response","19","2.0.0","54963","5a0bf53d728b1b0001ad95ad","2","41","2780","","","","","","","","","<img src= ""rock_img/I_Basalt_05.jpg"" style=""width:8cm; height:8.18cm;""><p>What type of rock is this?</p>","1","class_response","0","test","7","Basalt","Basalt","05","true","2","2","",""
"","","","","","","","","","","","html-keyboard-response","20","2.0.0","55467","5a0bf53d728b1b0001ad95ad","2","41","null","","","","","","","","","<p style='font-size: 30px;'><strong>Okay</strong></p>","null","neutral_feedback","0","test","7","","","","","","","",""
"","","","","","","","","","","","html-button-response","21","2.0.0","61967","5a0bf53d728b1b0001ad95ad","2","41","6497","","","","","","","","","<img src= ""rock_img/I_Diorite_12.jpg"" style=""width:8cm; height:4.88cm;""><p>What type of rock is this?</p>","6","class_response","0","test","8","Peridotite","Diorite","12","false","7","3","",""
"","","","","","","","","","","","html-keyboard-response","22","2.0.0","62470","5a0bf53d728b1b0001ad95ad","2","41","null","","","","","","","","","<p style='font-size: 30px;'><strong>Okay</strong></p>","null","neutral_feedback","0","test","8","","","","","","","",""
"","","","","","","","","","","","html-button-response","23","2.0.0","65036","5a0bf53d728b1b0001ad95ad","2","41","2562","","","","","","","","","<img src= ""rock_img/I_Basalt_11.jpg"" style=""width:8cm; height:5.359999999999999cm;""><p>What type of rock is this?</p>","0","class_response","0","test","9","Andesite","Basalt","11","false","1","2","",""
"","","","","","","","","","","","html-keyboard-response","24","2.0.0","65539","5a0bf53d728b1b0001ad95ad","2","41","null","","","","","","","","","<p style='font-size: 30px;'><strong>Okay</strong></p>","null","neutral_feedback","0","test","9","","","","","","","",""
"","","","","","","","","","","","html-button-response","25","2.0.0","71372","5a0bf53d728b1b0001ad95ad","2","41","5829","","","","","","","","","<img src= ""rock_img/I_Andesite_04.jpg"" style=""width:8cm; height:5.96cm;""><p>What type of rock is this?</p>","1","class_response","0","test","10","Basalt","Andesite","04","false","2","1","",""
"","","","","","","","","","","","html-keyboard-response","26","2.0.0","71875","5a0bf53d728b1b0001ad95ad","2","41","null","","","","","","","","","<p style='font-size: 30px;'><strong>Okay</strong></p>","null","neutral_feedback","0","test","10","","","","","","","",""
"","","","","","","","","","","","html-button-response","27","2.0.0","75179","5a0bf53d728b1b0001ad95ad","2","41","3301","","","","","","","","","<img src= ""rock_img/I_Diorite_08.jpg"" style=""width:8cm; height:6.37cm;""><p>What type of rock is this?</p>","6","class_response","0","test","11","Peridotite","Diorite","08","false","7","3","",""
"","","","","","","","","","","","html-keyboard-response","28","2.0.0","75682","5a0bf53d728b1b0001ad95ad","2","41","null","","","","","","","","","<p style='font-size: 30px;'><strong>Okay</strong></p>","null","neutral_feedback","0","test","11","","","","","","","",""
"","","","","","","","","","","","html-button-response","29","2.0.0","77900","5a0bf53d728b1b0001ad95ad","2","41","2214","","","","","","","","","<img src= ""rock_img/I_Gabbro_11.jpg"" style=""width:8cm; height:6.2cm;""><p>What type of rock is this?</p>","0","class_response","0","test","12","Andesite","Gabbro","11","false","1","4","",""
"","","","","","","","","","","","html-keyboard-response","30","2.0.0","78403","5a0bf53d728b1b0001ad95ad","2","41","null","","","","","","","","","<p style='font-size: 30px;'><strong>Okay</strong></p>","null","neutral_feedback","0","test","12","","","","","","","",""
"","","","","","","","","","","","html-button-response","31","2.0.0","83603","5a0bf53d728b1b0001ad95ad","2","41","5197","","","","","","","","","<img src= ""rock_img/I_Andesite_05.jpg"" style=""width:8cm; height:4.12cm;""><p>What type of rock is this?</p>","2","class_response","0","test","13","Diorite","Andesite","05","false","3","1","",""
"","","","","","","","","","","","html-keyboard-response","32","2.0.0","84106","5a0bf53d728b1b0001ad95ad","2","41","null","","","","","","","","","<p style='font-size: 30px;'><strong>Okay</strong></p>","null","neutral_feedback","0","test","13","","","","","","","",""
"","","","","","","","","","","","html-button-response","33","2.0.0","85573","5a0bf53d728b1b0001ad95ad","2","41","1462","","","","","","","","","<img src= ""rock_img/I_Obsidian_09.jpg"" style=""width:8cm; height:5cm;""><p>What type of rock is this?</p>","4","class_response","0","test","14","Obsidian","Obsidian","09","true","5","5","",""
"","","","","","","","","","","","html-keyboard-response","34","2.0.0","86076","5a0bf53d728b1b0001ad95ad","2","41","null","","","","","","","","","<p style='font-size: 30px;'><strong>Okay</strong></p>","null","neutral_feedback","0","test","14","","","","","","","",""
"","","","","","","","","","","","html-button-response","35","2.0.0","89925","5a0bf53d728b1b0001ad95ad","2","41","3846","","","","","","","","","<img src= ""rock_img/I_Gabbro_10.jpg"" style=""width:8cm; height:5.680000000000001cm;""><p>What type of rock is this?</p>","0","class_response","0","test","15","Andesite","Gabbro","10","false","1","4","",""
"","","","","","","","","","","","html-keyboard-response","36","2.0.0","90428","5a0bf53d728b1b0001ad95ad","2","41","null","","","","","","","","","<p style='font-size: 30px;'><strong>Okay</strong></p>","null","neutral_feedback","0","test","15","","","","","","","",""
"","","","","","","","","","","","html-button-response","37","2.0.0","92350","5a0bf53d728b1b0001ad95ad","2","41","1908","","","","","","","","","<img src= ""rock_img/I_Andesite_07.jpg"" style=""width:8cm; height:5.93cm;""><p>What type of rock is this?</p>","2","class_response","0","test","16","Diorite","Andesite","07","false","3","1","",""
"","","","","","","","","","","","html-keyboard-response","38","2.0.0","92854","5a0bf53d728b1b0001ad95ad","2","41","null","","","","","","","","","<p style='font-size: 30px;'><strong>Okay</strong></p>","null","neutral_feedback","0","test","16","","","","","","","",""
"","","","","","","","","","","","html-button-response","39","2.0.0","93985","5a0bf53d728b1b0001ad95ad","2","41","1127","","","","","","","","","<img src= ""rock_img/I_Obsidian_06.jpg"" style=""width:8cm; height:6.8cm;""><p>What type of rock is this?</p>","4","class_response","0","test","17","Obsidian","Obsidian","06","true","5","5","",""
"","","","","","","","","","","","html-keyboard-response","40","2.0.0","94488","5a0bf53d728b1b0001ad95ad","2","41","null","","","","","","","","","<p style='font-size: 30px;'><strong>Okay</strong></p>","null","neutral_feedback","0","test","17","","","","","","","",""
"","","","","","","","","","","","html-button-response","41","2.0.0","95444","5a0bf53d728b1b0001ad95ad","2","41","953","","","","","","","","","<img src= ""rock_img/I_Pumice_06.jpg"" style=""width:8cm; height:6.9399999999999995cm;""><p>What type of rock is this?</p>","7","class_response","0","test","18","Pumice","Pumice","06","true","8","8","",""
"","","","","","","","","","","","html-keyboard-response","42","2.0.0","95947","5a0bf53d728b1b0001ad95ad","2","41","null","","","","","","","","","<p style='font-size: 30px;'><strong>Okay</strong></p>","null","neutral_feedback","0","test","18","","","","","","","",""
"","","","","","","","","","","","html-button-response","43","2.0.0","97345","5a0bf53d728b1b0001ad95ad","2","41","1395","","","","","","","","","<img src= ""rock_img/I_Gabbro_15.jpg"" style=""width:8cm; height:6.29cm;""><p>What type of rock is this?</p>","1","class_response","0","test","19","Basalt","Gabbro","15","false","2","4","",""
"","","","","","","","","","","","html-keyboard-response","44","2.0.0","97848","5a0bf53d728b1b0001ad95ad","2","41","null","","","","","","","","","<p style='font-size: 30px;'><strong>Okay</strong></p>","null","neutral_feedback","0","test","19","","","","","","","",""
"","","","","","","","","","","","html-button-response","45","2.0.0","99570","5a0bf53d728b1b0001ad95ad","2","41","1719","","","","","","","","","<img src= ""rock_img/I_Pumice_13.jpg"" style=""width:8cm; height:8.200000000000001cm;""><p>What type of rock is this?</p>","7","class_response","0","test","20","Pumice","Pumice","13","true","8","8","",""
"","","","","","","","","","","","html-keyboard-response","46","2.0.0","100073","5a0bf53d728b1b0001ad95ad","2","41","null","","","","","","","","","<p style='font-size: 30px;'><strong>Okay</strong></p>","null","neutral_feedback","0","test","20","","","","","","","",""
"","","","","","","","","","","","html-button-response","47","2.0.0","100938","5a0bf53d728b1b0001ad95ad","2","41","862","","","","","","","","","<img src= ""rock_img/I_Obsidian_11.jpg"" style=""width:8cm; height:6.05cm;""><p>What type of rock is this?</p>","4","class_response","0","test","21","Obsidian","Obsidian","11","true","5","5","",""
"","","","","","","","","","","","html-keyboard-response","48","2.0.0","101441","5a0bf53d728b1b0001ad95ad","2","41","null","","","","","","","","","<p style='font-size: 30px;'><strong>Okay</strong></p>","null","neutral_feedback","0","test","21","","","","","","","",""
"","","","","","","","","","","","html-button-response","49","2.0.0","102688","5a0bf53d728b1b0001ad95ad","2","41","1244","","","","","","","","","<img src= ""rock_img/I_Peridotite_07.jpg"" style=""width:8cm; height:4.83cm;""><p>What type of rock is this?</p>","2","class_response","0","test","22","Diorite","Peridotite","07","false","3","7","",""
"","","","","","","","","","","","html-keyboard-response","50","2.0.0","103191","5a0bf53d728b1b0001ad95ad","2","41","null","","","","","","","","","<p style='font-size: 30px;'><strong>Okay</strong></p>","null","neutral_feedback","0","test","22","","","","","","","",""
"","","","","","","","","","","","html-button-response","51","2.0.0","105799","5a0bf53d728b1b0001ad95ad","2","41","2604","","","","","","","","","<img src= ""rock_img/I_Peridotite_14.jpg"" style=""width:8cm; height:5.3cm;""><p>What type of rock is this?</p>","5","class_response","0","test","23","Pegmatite","Peridotite","14","false","6","7","",""
"","","","","","","","","","","","html-keyboard-response","52","2.0.0","106301","5a0bf53d728b1b0001ad95ad","2","41","null","","","","","","","","","<p style='font-size: 30px;'><strong>Okay</strong></p>","null","neutral_feedback","0","test","23","","","","","","","",""
"","","","","","","","","","","","html-button-response","53","2.0.0","108719","5a0bf53d728b1b0001ad95ad","2","41","2414","","","","","","","","","<img src= ""rock_img/I_Diorite_16.jpg"" style=""width:8cm; height:6.74cm;""><p>What type of rock is this?</p>","6","class_response","0","test","24","Peridotite","Diorite","16","false","7","3","",""
"","","","","","","","","","","","html-keyboard-response","54","2.0.0","109221","5a0bf53d728b1b0001ad95ad","2","41","null","","","","","","","","","<p style='font-size: 30px;'><strong>Okay</strong></p>","null","neutral_feedback","0","test","24","","","","","","","",""
"","","","","","","","","","","","html-button-response","55","2.0.0","111420","5a0bf53d728b1b0001ad95ad","2","41","2195","","","","","","","","","<img src= ""rock_img/I_Basalt_14.jpg"" style=""width:8cm; height:5.82cm;""><p>What type of rock is this?</p>","0","class_response","0","test","25","Andesite","Basalt","14","false","1","2","",""
"","","","","","","","","","","","html-keyboard-response","56","2.0.0","111923","5a0bf53d728b1b0001ad95ad","2","41","null","","","","","","","","","<p style='font-size: 30px;'><strong>Okay</strong></p>","null","neutral_feedback","0","test","25","","","","","","","",""
"","","","","","","","","","","","html-button-response","57","2.0.0","113704","5a0bf53d728b1b0001ad95ad","2","41","1778","","","","","","","","","<img src= ""rock_img/I_Gabbro_09.jpg"" style=""width:8cm; height:7.279999999999999cm;""><p>What type of rock is this?</p>","1","class_response","0","test","26","Basalt","Gabbro","09","false","2","4","",""
"","","","","","","","","","","","html-keyboard-response","58","2.0.0","114207","5a0bf53d728b1b0001ad95ad","2","41","null","","","","","","","","","<p style='font-size: 30px;'><strong>Okay</strong></p>","null","neutral_feedback","0","test","26","","","","","","","",""
"","","","","","","","","","","","html-button-response","59","2.0.0","115180","5a0bf53d728b1b0001ad95ad","2","41","970","","","","","","","","","<img src= ""rock_img/I_Pumice_05.jpg"" style=""width:8cm; height:7.25cm;""><p>What type of rock is this?</p>","7","class_response","0","test","27","Pumice","Pumice","05","true","8","8","",""
"","","","","","","","","","","","html-keyboard-response","60","2.0.0","115683","5a0bf53d728b1b0001ad95ad","2","41","null","","","","","","","","","<p style='font-size: 30px;'><strong>Okay</strong></p>","null","neutral_feedback","0","test","27","","","","","","","",""
"","","","","","","","","","","","html-button-response","61","2.0.0","116755","5a0bf53d728b1b0001ad95ad","2","41","1070","","","","","","","","","<img src= ""rock_img/I_Pegmatite_03.jpg"" style=""width:8cm; height:5.239999999999999cm;""><p>What type of rock is this?</p>","2","class_response","0","test","28","Diorite","Pegmatite","03","false","3","6","",""
"","","","","","","","","","","","html-keyboard-response","62","2.0.0","117258","5a0bf53d728b1b0001ad95ad","2","41","null","","","","","","","","","<p style='font-size: 30px;'><strong>Okay</strong></p>","null","neutral_feedback","0","test","28","","","","","","","",""
"","","","","","","","","","","","html-button-response","63","2.0.0","118165","5a0bf53d728b1b0001ad95ad","2","41","904","","","","","","","","","<img src= ""rock_img/I_Pegmatite_12.jpg"" style=""width:8cm; height:5.7cm;""><p>What type of rock is this?</p>","2","class_response","0","test","29","Diorite","Pegmatite","12","false","3","6","",""
"","","","","","","","","","","","html-keyboard-response","64","2.0.0","118667","5a0bf53d728b1b0001ad95ad","2","41","null","","","","","","","","","<p style='font-size: 30px;'><strong>Okay</strong></p>","null","neutral_feedback","0","test","29","","","","","","","",""
"","","","","","","","","","","","html-button-response","65","2.0.0","120225","5a0bf53d728b1b0001ad95ad","2","41","1554","","","","","","","","","<img src= ""rock_img/I_Andesite_06.jpg"" style=""width:8cm; height:6.840000000000001cm;""><p>What type of rock is this?</p>","1","class_response","0","test","30","Basalt","Andesite","06","false","2","1","",""
"","","","","","","","","","","","html-keyboard-response","66","2.0.0","120728","5a0bf53d728b1b0001ad95ad","2","41","null","","","","","","","","","<p style='font-size: 30px;'><strong>Okay</strong></p>","null","neutral_feedback","0","test","30","","","","","","","",""
"","","","","","","","","","","","html-button-response","67","2.0.0","121743","5a0bf53d728b1b0001ad95ad","2","41","1012","","","","","","","","","<img src= ""rock_img/I_Pegmatite_11.jpg"" style=""width:8cm; height:8.14cm;""><p>What type of rock is this?</p>","4","class_response","0","test","31","Obsidian","Pegmatite","11","false","5","6","",""
"","","","","","","","","","","","html-keyboard-response","68","2.0.0","122245","5a0bf53d728b1b0001ad95ad","2","41","null","","","","","","","","","<p style='font-size: 30px;'><strong>Okay</strong></p>","null","neutral_feedback","0","test","31","","","","","","","",""
"","","","","","","","","","","","html-button-response","69","2.0.0","123260","5a0bf53d728b1b0001ad95ad","2","41","1011","","","","","","","","","<img src= ""rock_img/I_Obsidian_16.jpg"" style=""width:8cm; height:9.3cm;""><p>What type of rock is this?</p>","4","class_response","0","test","32","Obsidian","Obsidian","16","true","5","5","",""
"","","","","","","","","","","","html-keyboard-response","70","2.0.0","123763","5a0bf53d728b1b0001ad95ad","2","41","null","","","","","","","","","<p style='font-size: 30px;'><strong>Okay</strong></p>","null","neutral_feedback","0","test","32","","","","","","","",""
"","","","","","","","","","","","html-button-response","71","2.0.0","127853","5a0bf53d728b1b0001ad95ad","2","41","4086","","","","","","","","","<img src= ""rock_img/I_Diorite_15.jpg"" style=""width:8cm; height:5.54cm;""><p>What type of rock is this?</p>","2","class_response","0","test","33","Diorite","Diorite","15","true","3","3","",""
"","","","","","","","","","","","html-keyboard-response","72","2.0.0","128356","5a0bf53d728b1b0001ad95ad","2","41","null","","","","","","","","","<p style='font-size: 30px;'><strong>Okay</strong></p>","null","neutral_feedback","0","test","33","","","","","","","",""
"","","","","","","","","","","","html-button-response","73","2.0.0","134915","5a0bf53d728b1b0001ad95ad","2","41","6556","","","","","","","","","<img src= ""rock_img/I_Basalt_12.jpg"" style=""width:8cm; height:6.010000000000001cm;""><p>What type of rock is this?</p>","1","class_response","0","test","34","Basalt","Basalt","12","true","2","2","",""
"","","","","","","","","","","","html-keyboard-response","74","2.0.0","135418","5a0bf53d728b1b0001ad95ad","2","41","null","","","","","","","","","<p style='font-size: 30px;'><strong>Okay</strong></p>","null","neutral_feedback","0","test","34","","","","","","","",""
"","","","","","","","","","","","html-button-response","75","2.0.0","137658","5a0bf53d728b1b0001ad95ad","2","41","2237","","","","","","","","","<img src= ""rock_img/I_Andesite_10.jpg"" style=""width:8cm; height:4.16cm;""><p>What type of rock is this?</p>","1","class_response","0","test","35","Basalt","Andesite","10","false","2","1","",""
"","","","","","","","","","","","html-keyboard-response","76","2.0.0","138161","5a0bf53d728b1b0001ad95ad","2","41","null","","","","","","","","","<p style='font-size: 30px;'><strong>Okay</strong></p>","null","neutral_feedback","0","test","35","","","","","","","",""
"","","","","","","","","","","","html-button-response","77","2.0.0","139209","5a0bf53d728b1b0001ad95ad","2","41","1045","","","","","","","","","<img src= ""rock_img/I_Gabbro_03.jpg"" style=""width:8cm; height:8.52cm;""><p>What type of rock is this?</p>","2","class_response","0","test","36","Diorite","Gabbro","03","false","3","4","",""
"","","","","","","","","","","","html-keyboard-response","78","2.0.0","139712","5a0bf53d728b1b0001ad95ad","2","41","null","","","","","","","","","<p style='font-size: 30px;'><strong>Okay</strong></p>","null","neutral_feedback","0","test","36","","","","","","","",""
"","","","","","","","","","","","html-button-response","79","2.0.0","140586","5a0bf53d728b1b0001ad95ad","2","41","870","","","","","","","","","<img src= ""rock_img/I_Peridotite_16.jpg"" style=""width:8cm; height:6.989999999999999cm;""><p>What type of rock is this?</p>","3","class_response","0","test","37","Gabbro","Peridotite","16","false","4","7","",""
"","","","","","","","","","","","html-keyboard-response","80","2.0.0","141089","5a0bf53d728b1b0001ad95ad","2","41","null","","","","","","","","","<p style='font-size: 30px;'><strong>Okay</strong></p>","null","neutral_feedback","0","test","37","","","","","","","",""
"","","","","","","","","","","","html-button-response","81","2.0.0","142644","5a0bf53d728b1b0001ad95ad","2","41","1553","","","","","","","","","<img src= ""rock_img/I_Peridotite_04.jpg"" style=""width:8cm; height:6.680000000000001cm;""><p>What type of rock is this?</p>","3","class_response","0","test","38","Gabbro","Peridotite","04","false","4","7","",""
"","","","","","","","","","","","html-keyboard-response","82","2.0.0","143147","5a0bf53d728b1b0001ad95ad","2","41","null","","","","","","","","","<p style='font-size: 30px;'><strong>Okay</strong></p>","null","neutral_feedback","0","test","38","","","","","","","",""
"","","","","","","","","","","","html-button-response","83","2.0.0","144295","5a0bf53d728b1b0001ad95ad","2","41","1145","","","","","","","","","<img src= ""rock_img/I_Basalt_01.jpg"" style=""width:8cm; height:7.880000000000001cm;""><p>What type of rock is this?</p>","1","class_response","0","test","39","Basalt","Basalt","01","true","2","2","",""
"","","","","","","","","","","","html-keyboard-response","84","2.0.0","144798","5a0bf53d728b1b0001ad95ad","2","41","null","","","","","","","","","<p style='font-size: 30px;'><strong>Okay</strong></p>","null","neutral_feedback","0","test","39","","","","","","","",""
"","","","","","","","","","","","html-button-response","85","2.0.0","145888","5a0bf53d728b1b0001ad95ad","2","41","1087","","","","","","","","","<img src= ""rock_img/I_Peridotite_13.jpg"" style=""width:8cm; height:7.58cm;""><p>What type of rock is this?</p>","3","class_response","0","test","40","Gabbro","Peridotite","13","false","4","7","",""
"","","","","","","","","","","","html-keyboard-response","86","2.0.0","146391","5a0bf53d728b1b0001ad95ad","2","41","null","","","","","","","","","<p style='font-size: 30px;'><strong>Okay</strong></p>","null","neutral_feedback","0","test","40","","","","","","","",""
"","","","","","","","","","","","html-button-response","87","2.0.0","148264","5a0bf53d728b1b0001ad95ad","2","41","1870","","","","","","","","","<img src= ""rock_img/I_Andesite_02.jpg"" style=""width:8cm; height:8.5cm;""><p>What type of rock is this?</p>","6","class_response","0","test","41","Peridotite","Andesite","02","false","7","1","",""
"","","","","","","","","","","","html-keyboard-response","88","2.0.0","148767","5a0bf53d728b1b0001ad95ad","2","41","null","","","","","","","","","<p style='font-size: 30px;'><strong>Okay</strong></p>","null","neutral_feedback","0","test","41","","","","","","","",""
"","","","","","","","","","","","html-button-response","89","2.0.0","150828","5a0bf53d728b1b0001ad95ad","2","41","2054","","","","","","","","","<img src= ""rock_img/I_Diorite_07.jpg"" style=""width:8cm; height:5.239999999999999cm;""><p>What type of rock is this?</p>","2","class_response","0","test","42","Diorite","Diorite","07","true","3","3","",""
"","","","","","","","","","","","html-keyboard-response","90","2.0.0","151332","5a0bf53d728b1b0001ad95ad","2","41","null","","","","","","","","","<p style='font-size: 30px;'><strong>Okay</strong></p>","null","neutral_feedback","0","test","42","","","","","","","",""
"","","","","","","","","","","","html-button-response","91","2.0.0","152359","5a0bf53d728b1b0001ad95ad","2","41","1023","","","","","","","","","<img src= ""rock_img/I_Diorite_13.jpg"" style=""width:8cm; height:6.29cm;""><p>What type of rock is this?</p>","2","class_response","0","test","43","Diorite","Diorite","13","true","3","3","",""
"","","","","","","","","","","","html-keyboard-response","92","2.0.0","152863","5a0bf53d728b1b0001ad95ad","2","41","null","","","","","","","","","<p style='font-size: 30px;'><strong>Okay</strong></p>","null","neutral_feedback","0","test","43","","","","","","","",""
"","","","","","","","","","","","html-button-response","93","2.0.0","158846","5a0bf53d728b1b0001ad95ad","2","41","5981","","","","","","","","","<img src= ""rock_img/I_Pegmatite_08.jpg"" style=""width:8cm; height:7.68cm;""><p>What type of rock is this?</p>","4","class_response","0","test","44","Obsidian","Pegmatite","08","false","5","6","",""
"","","","","","","","","","","","html-keyboard-response","94","2.0.0","159349","5a0bf53d728b1b0001ad95ad","2","41","null","","","","","","","","","<p style='font-size: 30px;'><strong>Okay</strong></p>","null","neutral_feedback","0","test","44","","","","","","","",""
"","","","","","","","","","","","html-button-response","95","2.0.0","160358","5a0bf53d728b1b0001ad95ad","2","41","1005","","","","","","","","","<img src= ""rock_img/I_Pumice_14.jpg"" style=""width:8cm; height:6.39cm;""><p>What type of rock is this?</p>","7","class_response","0","test","45","Pumice","Pumice","14","true","8","8","",""
"","","","","","","","","","","","html-keyboard-response","96","2.0.0","160860","5a0bf53d728b1b0001ad95ad","2","41","null","","","","","","","","","<p style='font-size: 30px;'><strong>Okay</strong></p>","null","neutral_feedback","0","test","45","","","","","","","",""
"","","","","","","","","","","","html-button-response","97","2.0.0","162423","5a0bf53d728b1b0001ad95ad","2","41","1561","","","","","","","","","<img src= ""rock_img/I_Peridotite_06.jpg"" style=""width:8cm; height:7.53cm;""><p>What type of rock is this?</p>","6","class_response","0","test","46","Peridotite","Peridotite","06","true","7","7","",""
"","","","","","","","","","","","html-keyboard-response","98","2.0.0","162926","5a0bf53d728b1b0001ad95ad","2","41","null","","","","","","","","","<p style='font-size: 30px;'><strong>Okay</strong></p>","null","neutral_feedback","0","test","46","","","","","","","",""
"","","","","","","","","","","","html-button-response","99","2.0.0","164141","5a0bf53d728b1b0001ad95ad","2","41","1211","","","","","","","","","<img src= ""rock_img/I_Pegmatite_06.jpg"" style=""width:8cm; height:5.17cm;""><p>What type of rock is this?</p>","6","class_response","0","test","47","Peridotite","Pegmatite","06","false","7","6","",""
"","","","","","","","","","","","html-keyboard-response","100","2.0.0","164643","5a0bf53d728b1b0001ad95ad","2","41","null","","","","","","","","","<p style='font-size: 30px;'><strong>Okay</strong></p>","null","neutral_feedback","0","test","47","","","","","","","",""
"","","","","","","","","","","","html-button-response","101","2.0.0","165499","5a0bf53d728b1b0001ad95ad","2","41","853","","","","","","","","","<img src= ""rock_img/I_Basalt_04.jpg"" style=""width:8cm; height:7.53cm;""><p>What type of rock is this?</p>","1","class_response","0","test","48","Basalt","Basalt","04","true","2","2","",""
"","","","","","","","","","","","html-keyboard-response","102","2.0.0","166002","5a0bf53d728b1b0001ad95ad","2","41","null","","","","","","","","","<p style='font-size: 30px;'><strong>Okay</strong></p>","null","neutral_feedback","0","test","48","","","","","","","",""
"","","","","","","","","","","","instructions","103","2.0.0","185721","5a0bf53d728b1b0001ad95ad","2","41","19691","","","","","","","","[{""page_index"":0,""viewing_time"":12780},{""page_index"":1,""viewing_time"":2550},{""page_index"":2,""viewing_time"":4361}]","","","","","","","","","","","","","",""
"","","","","","","","","","","","html-button-response","104","2.0.0","187262","5a0bf53d728b1b0001ad95ad","2","41","1538","","","","","","","","","","0","start_train","","","","","","","","","","",""
"","","","","","","","","","","","html-button-response","105","2.0.0","192210","5a0bf53d728b1b0001ad95ad","2","41","4944","","","","","","","","","<img src= ""rock_img/I_Pegmatite_05.jpg"" style=""width:8cm; height:7.300000000000001cm;""><p>What type of rock is this?</p>","5","class_response","1","train","1","Pegmatite","Pegmatite","05","true","6","6","",""
"","","","","","","","","","","","html-button-response","106","2.0.0","194358","5a0bf53d728b1b0001ad95ad","2","41","2146","","","","","","","","","<img src= rock_img/I_Pegmatite_05.jpg style=""width:8cm; height:7.300000000000001cm;""><p style='font-size: 30px; color: green;'><strong>Correct!</strong></p><p style='font-size: 30px;'><strong>This rock is pegmatite</strong></p>","0","corr_feedback","1","train","1","","","","","","","",""
"","","","","","","","","","","","html-button-response","107","2.0.0","197100","5a0bf53d728b1b0001ad95ad","2","41","2740","","","","","","","","","<img src= ""rock_img/I_Pegmatite_16.jpg"" style=""width:8cm; height:5.8cm;""><p>What type of rock is this?</p>","6","class_response","1","train","2","Peridotite","Pegmatite","16","false","7","6","",""
"","","","","","","","","","","","html-button-response","108","2.0.0","198378","5a0bf53d728b1b0001ad95ad","2","41","1275","","","","","","","","","<img src= rock_img/I_Pegmatite_16.jpg style=""width:8cm; height:5.8cm;""><p style='font-size: 30px; color: red;'><strong>Incorrect!</strong></p><p style='font-size: 30px;'><strong>This rock is pegmatite</strong></p>","0","corr_feedback","1","train","2","","","","","","","",""
"","","","","","","","","","","","html-button-response","109","2.0.0","199443","5a0bf53d728b1b0001ad95ad","2","41","1063","","","","","","","","","<img src= ""rock_img/I_Andesite_03.jpg"" style=""width:8cm; height:5.73cm;""><p>What type of rock is this?</p>","1","class_response","1","train","3","Basalt","Andesite","03","false","2","1","",""
"","","","","","","","","","","","html-button-response","110","2.0.0","200352","5a0bf53d728b1b0001ad95ad","2","41","908","","","","","","","","","<img src= rock_img/I_Andesite_03.jpg style=""width:8cm; height:5.73cm;""><p style='font-size: 30px; color: red;'><strong>Incorrect!</strong></p><p style='font-size: 30px;'><strong>This rock is andesite</strong></p>","0","corr_feedback","1","train","3","","","","","","","",""
"","","","","","","","","","","","html-button-response","111","2.0.0","201477","5a0bf53d728b1b0001ad95ad","2","41","1123","","","","","","","","","<img src= ""rock_img/I_Gabbro_01.jpg"" style=""width:8cm; height:5.21cm;""><p>What type of rock is this?</p>","1","class_response","1","train","4","Basalt","Gabbro","01","false","2","4","",""
"","","","","","","","","","","","html-button-response","112","2.0.0","202196","5a0bf53d728b1b0001ad95ad","2","41","717","","","","","","","","","<img src= rock_img/I_Gabbro_01.jpg style=""width:8cm; height:5.21cm;""><p style='font-size: 30px; color: red;'><strong>Incorrect!</strong></p><p style='font-size: 30px;'><strong>This rock is gabbro</strong></p>","0","corr_feedback","1","train","4","","","","","","","",""
"","","","","","","","","","","","html-button-response","113","2.0.0","203328","5a0bf53d728b1b0001ad95ad","2","41","1130","","","","","","","","","<img src= ""rock_img/I_Diorite_06.jpg"" style=""width:8cm; height:6.03cm;""><p>What type of rock is this?</p>","2","class_response","1","train","5","Diorite","Diorite","06","true","3","3","",""
"","","","","","","","","","","","html-button-response","114","2.0.0","203904","5a0bf53d728b1b0001ad95ad","2","41","574","","","","","","","","","<img src= rock_img/I_Diorite_06.jpg style=""width:8cm; height:6.03cm;""><p style='font-size: 30px; color: green;'><strong>Correct!</strong></p><p style='font-size: 30px;'><strong>This rock is diorite</strong></p>","0","corr_feedback","1","train","5","","","","","","","",""
"","","","","","","","","","","","html-button-response","115","2.0.0","205239","5a0bf53d728b1b0001ad95ad","2","41","1332","","","","","","","","","<img src= ""rock_img/I_Andesite_16.jpg"" style=""width:8cm; height:6.010000000000001cm;""><p>What type of rock is this?</p>","2","class_response","1","train","6","Diorite","Andesite","16","false","3","1","",""
"","","","","","","","","","","","html-button-response","116","2.0.0","206080","5a0bf53d728b1b0001ad95ad","2","41","840","","","","","","","","","<img src= rock_img/I_Andesite_16.jpg style=""width:8cm; height:6.010000000000001cm;""><p style='font-size: 30px; color: red;'><strong>Incorrect!</strong></p><p style='font-size: 30px;'><strong>This rock is andesite</strong></p>","0","corr_feedback","1","train","6","","","","","","","",""
"","","","","","","","","","","","html-button-response","117","2.0.0","206965","5a0bf53d728b1b0001ad95ad","2","41","882","","","","","","","","","<img src= ""rock_img/I_Obsidian_14.jpg"" style=""width:8cm; height:7.64cm;""><p>What type of rock is this?</p>","4","class_response","1","train","7","Obsidian","Obsidian","14","true","5","5","",""
"","","","","","","","","","","","html-button-response","118","2.0.0","207489","5a0bf53d728b1b0001ad95ad","2","41","523","","","","","","","","","<img src= rock_img/I_Obsidian_14.jpg style=""width:8cm; height:7.64cm;""><p style='font-size: 30px; color: green;'><strong>Correct!</strong></p><p style='font-size: 30px;'><strong>This rock is obsidian</strong></p>","0","corr_feedback","1","train","7","","","","","","","",""
"","","","","","","","","","","","html-button-response","119","2.0.0","209315","5a0bf53d728b1b0001ad95ad","2","41","1824","","","","","","","","","<img src= ""rock_img/I_Peridotite_05.jpg"" style=""width:8cm; height:7.1499999999999995cm;""><p>What type of rock is this?</p>","3","class_response","1","train","8","Gabbro","Peridotite","05","false","4","7","",""
"","","","","","","","","","","","html-button-response","120","2.0.0","210991","5a0bf53d728b1b0001ad95ad","2","41","1674","","","","","","","","","<img src= rock_img/I_Peridotite_05.jpg style=""width:8cm; height:7.1499999999999995cm;""><p style='font-size: 30px; color: red;'><strong>Incorrect!</strong></p><p style='font-size: 30px;'><strong>This rock is peridotite</strong></p>","0","corr_feedback","1","train","8","","","","","","","",""
"","","","","","","","","","","","html-button-response","121","2.0.0","212409","5a0bf53d728b1b0001ad95ad","2","41","1416","","","","","","","","","<img src= ""rock_img/I_Andesite_14.jpg"" style=""width:8cm; height:5.449999999999999cm;""><p>What type of rock is this?</p>","1","class_response","1","train","9","Basalt","Andesite","14","false","2","1","",""
"","","","","","","","","","","","html-button-response","122","2.0.0","212852","5a0bf53d728b1b0001ad95ad","2","41","441","","","","","","","","","<img src= rock_img/I_Andesite_14.jpg style=""width:8cm; height:5.449999999999999cm;""><p style='font-size: 30px; color: red;'><strong>Incorrect!</strong></p><p style='font-size: 30px;'><strong>This rock is andesite</strong></p>","0","corr_feedback","1","train","9","","","","","","","",""
"","","","","","","","","","","","html-button-response","123","2.0.0","216402","5a0bf53d728b1b0001ad95ad","2","41","3548","","","","","","","","","<img src= ""rock_img/I_Peridotite_12.jpg"" style=""width:8cm; height:4.54cm;""><p>What type of rock is this?</p>","5","class_response","1","train","10","Pegmatite","Peridotite","12","false","6","7","",""
"","","","","","","","","","","","html-button-response","124","2.0.0","216878","5a0bf53d728b1b0001ad95ad","2","41","474","","","","","","","","","<img src= rock_img/I_Peridotite_12.jpg style=""width:8cm; height:4.54cm;""><p style='font-size: 30px; color: red;'><strong>Incorrect!</strong></p><p style='font-size: 30px;'><strong>This rock is peridotite</strong></p>","0","corr_feedback","1","train","10","","","","","","","",""
"","","","","","","","","","","","html-button-response","125","2.0.0","219054","5a0bf53d728b1b0001ad95ad","2","41","2174","","","","","","","","","<img src= ""rock_img/I_Pegmatite_07.jpg"" style=""width:8cm; height:6.7cm;""><p>What type of rock is this?</p>","0","class_response","1","train","11","Andesite","Pegmatite","07","false","1","6","",""
"","","","","","","","","","","","html-button-response","126","2.0.0","219471","5a0bf53d728b1b0001ad95ad","2","41","416","","","","","","","","","<img src= rock_img/I_Pegmatite_07.jpg style=""width:8cm; height:6.7cm;""><p style='font-size: 30px; color: red;'><strong>Incorrect!</strong></p><p style='font-size: 30px;'><strong>This rock is pegmatite</strong></p>","0","corr_feedback","1","train","11","","","","","","","",""
"","","","","","","","","","","","html-button-response","127","2.0.0","221263","5a0bf53d728b1b0001ad95ad","2","41","1790","","","","","","","","","<img src= ""rock_img/I_Peridotite_10.jpg"" style=""width:8cm; height:5.390000000000001cm;""><p>What type of rock is this?</p>","1","class_response","1","train","12","Basalt","Peridotite","10","false","2","7","",""
"","","","","","","","","","","","html-button-response","128","2.0.0","221748","5a0bf53d728b1b0001ad95ad","2","41","483","","","","","","","","","<img src= rock_img/I_Peridotite_10.jpg style=""width:8cm; height:5.390000000000001cm;""><p style='font-size: 30px; color: red;'><strong>Incorrect!</strong></p><p style='font-size: 30px;'><strong>This rock is peridotite</strong></p>","0","corr_feedback","1","train","12","","","","","","","",""
"","","","","","","","","","","","html-button-response","129","2.0.0","223165","5a0bf53d728b1b0001ad95ad","2","41","1414","","","","","","","","","<img src= ""rock_img/I_Basalt_16.jpg"" style=""width:8cm; height:7.659999999999999cm;""><p>What type of rock is this?</p>","1","class_response","1","train","13","Basalt","Basalt","16","true","2","2","",""
"","","","","","","","","","","","html-button-response","130","2.0.0","223815","5a0bf53d728b1b0001ad95ad","2","41","648","","","","","","","","","<img src= rock_img/I_Basalt_16.jpg style=""width:8cm; height:7.659999999999999cm;""><p style='font-size: 30px; color: green;'><strong>Correct!</strong></p><p style='font-size: 30px;'><strong>This rock is basalt</strong></p>","0","corr_feedback","1","train","13","","","","","","","",""
"","","","","","","","","","","","html-button-response","131","2.0.0","226033","5a0bf53d728b1b0001ad95ad","2","41","2216","","","","","","","","","<img src= ""rock_img/I_Gabbro_05.jpg"" style=""width:8cm; height:6cm;""><p>What type of rock is this?</p>","5","class_response","1","train","14","Pegmatite","Gabbro","05","false","6","4","",""
"","","","","","","","","","","","html-button-response","132","2.0.0","226450","5a0bf53d728b1b0001ad95ad","2","41","414","","","","","","","","","<img src= rock_img/I_Gabbro_05.jpg style=""width:8cm; height:6cm;""><p style='font-size: 30px; color: red;'><strong>Incorrect!</strong></p><p style='font-size: 30px;'><strong>This rock is gabbro</strong></p>","0","corr_feedback","1","train","14","","","","","","","",""
"","","","","","","","","","","","html-button-response","133","2.0.0","249930","5a0bf53d728b1b0001ad95ad","2","41","23479","","","","","","","","","<img src= ""rock_img/I_Andesite_03.jpg"" style=""width:8cm; height:5.73cm;""><p>What type of rock is this?</p>","1","class_response","1","train","15","Basalt","Andesite","03","false","2","1","",""
"","","","","","","","","","","","html-button-response","134","2.0.0","250580","5a0bf53d728b1b0001ad95ad","2","41","648","","","","","","","","","<img src= rock_img/I_Andesite_03.jpg style=""width:8cm; height:5.73cm;""><p style='font-size: 30px; color: red;'><strong>Incorrect!</strong></p><p style='font-size: 30px;'><strong>This rock is andesite</strong></p>","0","corr_feedback","1","train","15","","","","","","","",""
"","","","","","","","","","","","html-button-response","135","2.0.0","251985","5a0bf53d728b1b0001ad95ad","2","41","1400","","","","","","","","","<img src= ""rock_img/I_Gabbro_05.jpg"" style=""width:8cm; height:6cm;""><p>What type of rock is this?</p>","2","class_response","1","train","16","Diorite","Gabbro","05","false","3","4","",""
"","","","","","","","","","","","html-button-response","136","2.0.0","252466","5a0bf53d728b1b0001ad95ad","2","41","478","","","","","","","","","<img src= rock_img/I_Gabbro_05.jpg style=""width:8cm; height:6cm;""><p style='font-size: 30px; color: red;'><strong>Incorrect!</strong></p><p style='font-size: 30px;'><strong>This rock is gabbro</strong></p>","0","corr_feedback","1","train","16","","","","","","","",""
"","","","","","","","","","","","html-button-response","137","2.0.0","253667","5a0bf53d728b1b0001ad95ad","2","41","1198","","","","","","","","","<img src= ""rock_img/I_Pumice_16.jpg"" style=""width:8cm; height:6.79cm;""><p>What type of rock is this?</p>","7","class_response","1","train","17","Pumice","Pumice","16","true","8","8","",""
"","","","","","","","","","","","html-button-response","138","2.0.0","254173","5a0bf53d728b1b0001ad95ad","2","41","503","","","","","","","","","<img src= rock_img/I_Pumice_16.jpg style=""width:8cm; height:6.79cm;""><p style='font-size: 30px; color: green;'><strong>Correct!</strong></p><p style='font-size: 30px;'><strong>This rock is pumice</strong></p>","0","corr_feedback","1","train","17","","","","","","","",""
"","","","","","","","","","","","html-button-response","139","2.0.0","255291","5a0bf53d728b1b0001ad95ad","2","41","1115","","","","","","","","","<img src= ""rock_img/I_Diorite_02.jpg"" style=""width:8cm; height:6.27cm;""><p>What type of rock is this?</p>","2","class_response","1","train","18","Diorite","Diorite","02","true","3","3","",""
"","","","","","","","","","","","html-button-response","140","2.0.0","255775","5a0bf53d728b1b0001ad95ad","2","41","483","","","","","","","","","<img src= rock_img/I_Diorite_02.jpg style=""width:8cm; height:6.27cm;""><p style='font-size: 30px; color: green;'><strong>Correct!</strong></p><p style='font-size: 30px;'><strong>This rock is diorite</strong></p>","0","corr_feedback","1","train","18","","","","","","","",""
"","","","","","","","","","","","html-button-response","141","2.0.0","256958","5a0bf53d728b1b0001ad95ad","2","41","1181","","","","","","","","","<img src= ""rock_img/I_Gabbro_12.jpg"" style=""width:8cm; height:7.800000000000001cm;""><p>What type of rock is this?</p>","1","class_response","1","train","19","Basalt","Gabbro","12","false","2","4","",""
"","","","","","","","","","","","html-button-response","142","2.0.0","257385","5a0bf53d728b1b0001ad95ad","2","41","424","","","","","","","","","<img src= rock_img/I_Gabbro_12.jpg style=""width:8cm; height:7.800000000000001cm;""><p style='font-size: 30px; color: red;'><strong>Incorrect!</strong></p><p style='font-size: 30px;'><strong>This rock is gabbro</strong></p>","0","corr_feedback","1","train","19","","","","","","","",""
"","","","","","","","","","","","html-button-response","143","2.0.0","258527","5a0bf53d728b1b0001ad95ad","2","41","1141","","","","","","","","","<img src= ""rock_img/I_Pegmatite_13.jpg"" style=""width:8cm; height:4.95cm;""><p>What type of rock is this?</p>","6","class_response","1","train","20","Peridotite","Pegmatite","13","false","7","6","",""
"","","","","","","","","","","","html-button-response","144","2.0.0","258977","5a0bf53d728b1b0001ad95ad","2","41","447","","","","","","","","","<img src= rock_img/I_Pegmatite_13.jpg style=""width:8cm; height:4.95cm;""><p style='font-size: 30px; color: red;'><strong>Incorrect!</strong></p><p style='font-size: 30px;'><strong>This rock is pegmatite</strong></p>","0","corr_feedback","1","train","20","","","","","","","",""
"","","","","","","","","","","","html-button-response","145","2.0.0","260069","5a0bf53d728b1b0001ad95ad","2","41","1090","","","","","","","","","<img src= ""rock_img/I_Gabbro_08.jpg"" style=""width:8cm; height:5.15cm;""><p>What type of rock is this?</p>","1","class_response","1","train","21","Basalt","Gabbro","08","false","2","4","",""
"","","","","","","","","","","","html-button-response","146","2.0.0","260486","5a0bf53d728b1b0001ad95ad","2","41","414","","","","","","","","","<img src= rock_img/I_Gabbro_08.jpg style=""width:8cm; height:5.15cm;""><p style='font-size: 30px; color: red;'><strong>Incorrect!</strong></p><p style='font-size: 30px;'><strong>This rock is gabbro</strong></p>","0","corr_feedback","1","train","21","","","","","","","",""
"","","","","","","","","","","","html-button-response","147","2.0.0","261603","5a0bf53d728b1b0001ad95ad","2","41","1116","","","","","","","","","<img src= ""rock_img/I_Basalt_09.jpg"" style=""width:8cm; height:6.2cm;""><p>What type of rock is this?</p>","1","class_response","1","train","22","Basalt","Basalt","09","true","2","2","",""
"","","","","","","","","","","","html-button-response","148","2.0.0","262045","5a0bf53d728b1b0001ad95ad","2","41","440","","","","","","","","","<img src= rock_img/I_Basalt_09.jpg style=""width:8cm; height:6.2cm;""><p style='font-size: 30px; color: green;'><strong>Correct!</strong></p><p style='font-size: 30px;'><strong>This rock is basalt</strong></p>","0","corr_feedback","1","train","22","","","","","","","",""
"","","","","","","","","","","","html-button-response","149","2.0.0","264597","5a0bf53d728b1b0001ad95ad","2","41","2549","","","","","","","","","<img src= ""rock_img/I_Pegmatite_15.jpg"" style=""width:8cm; height:6cm;""><p>What type of rock is this?</p>","6","class_response","1","train","23","Peridotite","Pegmatite","15","false","7","6","",""
"","","","","","","","","","","","html-button-response","150","2.0.0","265039","5a0bf53d728b1b0001ad95ad","2","41","439","","","","","","","","","<img src= rock_img/I_Pegmatite_15.jpg style=""width:8cm; height:6cm;""><p style='font-size: 30px; color: red;'><strong>Incorrect!</strong></p><p style='font-size: 30px;'><strong>This rock is pegmatite</strong></p>","0","corr_feedback","1","train","23","","","","","","","",""
"","","","","","","","","","","","html-button-response","151","2.0.0","266372","5a0bf53d728b1b0001ad95ad","2","41","1332","","","","","","","","","<img src= ""rock_img/I_Peridotite_15.jpg"" style=""width:8cm; height:6cm;""><p>What type of rock is this?</p>","3","class_response","1","train","24","Gabbro","Peridotite","15","false","4","7","",""
"","","","","","","","","","","","html-button-response","152","2.0.0","266831","5a0bf53d728b1b0001ad95ad","2","41","457","","","","","","","","","<img src= rock_img/I_Peridotite_15.jpg style=""width:8cm; height:6cm;""><p style='font-size: 30px; color: red;'><strong>Incorrect!</strong></p><p style='font-size: 30px;'><strong>This rock is peridotite</strong></p>","0","corr_feedback","1","train","24","","","","","","","",""
"","","","","","","","","","","","html-button-response","153","2.0.0","267856","5a0bf53d728b1b0001ad95ad","2","41","1023","","","","","","","","","<img src= ""rock_img/I_Gabbro_14.jpg"" style=""width:8cm; height:8.48cm;""><p>What type of rock is this?</p>","1","class_response","1","train","25","Basalt","Gabbro","14","false","2","4","",""
"","","","","","","","","","","","html-button-response","154","2.0.0","268216","5a0bf53d728b1b0001ad95ad","2","41","357","","","","","","","","","<img src= rock_img/I_Gabbro_14.jpg style=""width:8cm; height:8.48cm;""><p style='font-size: 30px; color: red;'><strong>Incorrect!</strong></p><p style='font-size: 30px;'><strong>This rock is gabbro</strong></p>","0","corr_feedback","1","train","25","","","","","","","",""
"","","","","","","","","","","","html-button-response","155","2.0.0","269100","5a0bf53d728b1b0001ad95ad","2","41","883","","","","","","","","","<img src= ""rock_img/I_Pegmatite_15.jpg"" style=""width:8cm; height:6cm;""><p>What type of rock is this?</p>","2","class_response","1","train","26","Diorite","Pegmatite","15","false","3","6","",""
"","","","","","","","","","","","html-button-response","156","2.0.0","269516","5a0bf53d728b1b0001ad95ad","2","41","414","","","","","","","","","<img src= rock_img/I_Pegmatite_15.jpg style=""width:8cm; height:6cm;""><p style='font-size: 30px; color: red;'><strong>Incorrect!</strong></p><p style='font-size: 30px;'><strong>This rock is pegmatite</strong></p>","0","corr_feedback","1","train","26","","","","","","","",""
"","","","","","","","","","","","html-button-response","157","2.0.0","270567","5a0bf53d728b1b0001ad95ad","2","41","1049","","","","","","","","","<img src= ""rock_img/I_Pegmatite_16.jpg"" style=""width:8cm; height:5.8cm;""><p>What type of rock is this?</p>","2","class_response","1","train","27","Diorite","Pegmatite","16","false","3","6","",""
"","","","","","","","","","","","html-button-response","158","2.0.0","270984","5a0bf53d728b1b0001ad95ad","2","41","415","","","","","","","","","<img src= rock_img/I_Pegmatite_16.jpg style=""width:8cm; height:5.8cm;""><p style='font-size: 30px; color: red;'><strong>Incorrect!</strong></p><p style='font-size: 30px;'><strong>This rock is pegmatite</strong></p>","0","corr_feedback","1","train","27","","","","","","","",""
"","","","","","","","","","","","html-button-response","159","2.0.0","272692","5a0bf53d728b1b0001ad95ad","2","41","1706","","","","","","","","","<img src= ""rock_img/I_Andesite_01.jpg"" style=""width:8cm; height:5.87cm;""><p>What type of rock is this?</p>","1","class_response","1","train","28","Basalt","Andesite","01","false","2","1","",""
"","","","","","","","","","","","html-button-response","160","2.0.0","273694","5a0bf53d728b1b0001ad95ad","2","41","1000","","","","","","","","","<img src= rock_img/I_Andesite_01.jpg style=""width:8cm; height:5.87cm;""><p style='font-size: 30px; color: red;'><strong>Incorrect!</strong></p><p style='font-size: 30px;'><strong>This rock is andesite</strong></p>","0","corr_feedback","1","train","28","","","","","","","",""
"","","","","","","","","","","","html-button-response","161","2.0.0","274110","5a0bf53d728b1b0001ad95ad","2","41","414","","","","","","","","","<img src= ""rock_img/I_Basalt_02.jpg"" style=""width:8cm; height:6.45cm;""><p>What type of rock is this?</p>","6","class_response","1","train","29","Peridotite","Basalt","02","false","7","2","",""
"","","","","","","","","","","","html-button-response","162","2.0.0","274662","5a0bf53d728b1b0001ad95ad","2","41","550","","","","","","","","","<img src= rock_img/I_Basalt_02.jpg style=""width:8cm; height:6.45cm;""><p style='font-size: 30px; color: red;'><strong>Incorrect!</strong></p><p style='font-size: 30px;'><strong>This rock is basalt</strong></p>","0","corr_feedback","1","train","29","","","","","","","",""
"","","","","","","","","","","","html-button-response","163","2.0.0","275427","5a0bf53d728b1b0001ad95ad","2","41","764","","","","","","","","","<img src= ""rock_img/I_Diorite_14.jpg"" style=""width:8cm; height:5.71cm;""><p>What type of rock is this?</p>","3","class_response","1","train","30","Gabbro","Diorite","14","false","4","3","",""
"","","","","","","","","","","","html-button-response","164","2.0.0","276079","5a0bf53d728b1b0001ad95ad","2","41","649","","","","","","","","","<img src= rock_img/I_Diorite_14.jpg style=""width:8cm; height:5.71cm;""><p style='font-size: 30px; color: red;'><strong>Incorrect!</strong></p><p style='font-size: 30px;'><strong>This rock is diorite</strong></p>","0","corr_feedback","1","train","30","","","","","","","",""
"","","","","","","","","","","","html-button-response","165","2.0.0","277320","5a0bf53d728b1b0001ad95ad","2","41","1239","","","","","","","","","<img src= ""rock_img/I_Pegmatite_13.jpg"" style=""width:8cm; height:4.95cm;""><p>What type of rock is this?</p>","5","class_response","1","train","31","Pegmatite","Pegmatite","13","true","6","6","",""
"","","","","","","","","","","","html-button-response","166","2.0.0","277721","5a0bf53d728b1b0001ad95ad","2","41","399","","","","","","","","","<img src= rock_img/I_Pegmatite_13.jpg style=""width:8cm; height:4.95cm;""><p style='font-size: 30px; color: green;'><strong>Correct!</strong></p><p style='font-size: 30px;'><strong>This rock is pegmatite</strong></p>","0","corr_feedback","1","train","31","","","","","","","",""
"","","","","","","","","","","","html-button-response","167","2.0.0","279274","5a0bf53d728b1b0001ad95ad","2","41","1548","","","","","","","","","<img src= ""rock_img/I_Diorite_09.jpg"" style=""width:8cm; height:5.27cm;""><p>What type of rock is this?</p>","2","class_response","1","train","32","Diorite","Diorite","09","true","3","3","",""
"","","","","","","","","","","","html-button-response","168","2.0.0","279654","5a0bf53d728b1b0001ad95ad","2","41","378","","","","","","","","","<img src= rock_img/I_Diorite_09.jpg style=""width:8cm; height:5.27cm;""><p style='font-size: 30px; color: green;'><strong>Correct!</strong></p><p style='font-size: 30px;'><strong>This rock is diorite</strong></p>","0","corr_feedback","1","train","32","","","","","","","",""
"","","","","","","","","","","","html-button-response","169","2.0.0","281107","5a0bf53d728b1b0001ad95ad","2","41","1450","","","","","","","","","<img src= ""rock_img/I_Peridotite_10.jpg"" style=""width:8cm; height:5.390000000000001cm;""><p>What type of rock is this?</p>","6","class_response","1","train","33","Peridotite","Peridotite","10","true","7","7","",""
"","","","","","","","","","","","html-button-response","170","2.0.0","281631","5a0bf53d728b1b0001ad95ad","2","41","521","","","","","","","","","<img src= rock_img/I_Peridotite_10.jpg style=""width:8cm; height:5.390000000000001cm;""><p style='font-size: 30px; color: green;'><strong>Correct!</strong></p><p style='font-size: 30px;'><strong>This rock is peridotite</strong></p>","0","corr_feedback","1","train","33","","","","","","","",""
"","","","","","","","","","","","html-button-response","171","2.0.0","282597","5a0bf53d728b1b0001ad95ad","2","41","965","","","","","","","","","<img src= ""rock_img/I_Peridotite_08.jpg"" style=""width:8cm; height:6.7cm;""><p>What type of rock is this?</p>","5","class_response","1","train","34","Pegmatite","Peridotite","08","false","6","7","",""
"","","","","","","","","","","","html-button-response","172","2.0.0","283066","5a0bf53d728b1b0001ad95ad","2","41","466","","","","","","","","","<img src= rock_img/I_Peridotite_08.jpg style=""width:8cm; height:6.7cm;""><p style='font-size: 30px; color: red;'><strong>Incorrect!</strong></p><p style='font-size: 30px;'><strong>This rock is peridotite</strong></p>","0","corr_feedback","1","train","34","","","","","","","",""
"","","","","","","","","","","","html-button-response","173","2.0.0","284708","5a0bf53d728b1b0001ad95ad","2","41","1640","","","","","","","","","<img src= ""rock_img/I_Gabbro_01.jpg"" style=""width:8cm; height:5.21cm;""><p>What type of rock is this?</p>","1","class_response","1","train","35","Basalt","Gabbro","01","false","2","4","",""
"","","","","","","","","","","","html-button-response","174","2.0.0","285174","5a0bf53d728b1b0001ad95ad","2","41","464","","","","","","","","","<img src= rock_img/I_Gabbro_01.jpg style=""width:8cm; height:5.21cm;""><p style='font-size: 30px; color: red;'><strong>Incorrect!</strong></p><p style='font-size: 30px;'><strong>This rock is gabbro</strong></p>","0","corr_feedback","1","train","35","","","","","","","",""
"","","","","","","","","","","","html-button-response","175","2.0.0","286568","5a0bf53d728b1b0001ad95ad","2","41","1392","","","","","","","","","<img src= ""rock_img/I_Basalt_08.jpg"" style=""width:8cm; height:10.44cm;""><p>What type of rock is this?</p>","0","class_response","1","train","36","Andesite","Basalt","08","false","1","2","",""
"","","","","","","","","","","","html-button-response","176","2.0.0","287000","5a0bf53d728b1b0001ad95ad","2","41","431","","","","","","","","","<img src= rock_img/I_Basalt_08.jpg style=""width:8cm; height:10.44cm;""><p style='font-size: 30px; color: red;'><strong>Incorrect!</strong></p><p style='font-size: 30px;'><strong>This rock is basalt</strong></p>","0","corr_feedback","1","train","36","","","","","","","",""
"","","","","","","","","","","","html-button-response","177","2.0.0","288435","5a0bf53d728b1b0001ad95ad","2","41","1432","","","","","","","","","<img src= ""rock_img/I_Peridotite_02.jpg"" style=""width:8cm; height:5.859999999999999cm;""><p>What type of rock is this?</p>","6","class_response","1","train","37","Peridotite","Peridotite","02","true","7","7","",""
"","","","","","","","","","","","html-button-response","178","2.0.0","288811","5a0bf53d728b1b0001ad95ad","2","41","375","","","","","","","","","<img src= rock_img/I_Peridotite_02.jpg style=""width:8cm; height:5.859999999999999cm;""><p style='font-size: 30px; color: green;'><strong>Correct!</strong></p><p style='font-size: 30px;'><strong>This rock is peridotite</strong></p>","0","corr_feedback","1","train","37","","","","","","","",""
"","","","","","","","","","","","html-button-response","179","2.0.0","290427","5a0bf53d728b1b0001ad95ad","2","41","1613","","","","","","","","","<img src= ""rock_img/I_Diorite_11.jpg"" style=""width:8cm; height:7.11cm;""><p>What type of rock is this?</p>","5","class_response","1","train","38","Pegmatite","Diorite","11","false","6","3","",""
"","","","","","","","","","","","html-button-response","180","2.0.0","290869","5a0bf53d728b1b0001ad95ad","2","41","441","","","","","","","","","<img src= rock_img/I_Diorite_11.jpg style=""width:8cm; height:7.11cm;""><p style='font-size: 30px; color: red;'><strong>Incorrect!</strong></p><p style='font-size: 30px;'><strong>This rock is diorite</strong></p>","0","corr_feedback","1","train","38","","","","","","","",""
"","","","","","","","","","","","html-button-response","181","2.0.0","292495","5a0bf53d728b1b0001ad95ad","2","41","1624","","","","","","","","","<img src= ""rock_img/I_Andesite_01.jpg"" style=""width:8cm; height:5.87cm;""><p>What type of rock is this?</p>","1","class_response","1","train","39","Basalt","Andesite","01","false","2","1","",""
"","","","","","","","","","","","html-button-response","182","2.0.0","293413","5a0bf53d728b1b0001ad95ad","2","41","916","","","","","","","","","<img src= rock_img/I_Andesite_01.jpg style=""width:8cm; height:5.87cm;""><p style='font-size: 30px; color: red;'><strong>Incorrect!</strong></p><p style='font-size: 30px;'><strong>This rock is andesite</strong></p>","0","corr_feedback","1","train","39","","","","","","","",""
"","","","","","","","","","","","html-button-response","183","2.0.0","295789","5a0bf53d728b1b0001ad95ad","2","41","2373","","","","","","","","","<img src= ""rock_img/I_Gabbro_16.jpg"" style=""width:8cm; height:6.44cm;""><p>What type of rock is this?</p>","2","class_response","1","train","40","Diorite","Gabbro","16","false","3","4","",""
"","","","","","","","","","","","html-button-response","184","2.0.0","296182","5a0bf53d728b1b0001ad95ad","2","41","392","","","","","","","","","<img src= rock_img/I_Gabbro_16.jpg style=""width:8cm; height:6.44cm;""><p style='font-size: 30px; color: red;'><strong>Incorrect!</strong></p><p style='font-size: 30px;'><strong>This rock is gabbro</strong></p>","0","corr_feedback","1","train","40","","","","","","","",""
"","","","","","","","","","","","html-button-response","185","2.0.0","296790","5a0bf53d728b1b0001ad95ad","2","41","606","","","","","","","","","<img src= ""rock_img/I_Andesite_11.jpg"" style=""width:8cm; height:4.92cm;""><p>What type of rock is this?</p>","2","class_response","1","train","41","Diorite","Andesite","11","false","3","1","",""
"","","","","","","","","","","","html-button-response","186","2.0.0","297239","5a0bf53d728b1b0001ad95ad","2","41","448","","","","","","","","","<img src= rock_img/I_Andesite_11.jpg style=""width:8cm; height:4.92cm;""><p style='font-size: 30px; color: red;'><strong>Incorrect!</strong></p><p style='font-size: 30px;'><strong>This rock is andesite</strong></p>","0","corr_feedback","1","train","41","","","","","","","",""
"","","","","","","","","","","","html-button-response","187","2.0.0","298599","5a0bf53d728b1b0001ad95ad","2","41","1358","","","","","","","","","<img src= ""rock_img/I_Basalt_10.jpg"" style=""width:8cm; height:5.85cm;""><p>What type of rock is this?</p>","3","class_response","1","train","42","Gabbro","Basalt","10","false","4","2","",""
"","","","","","","","","","","","html-button-response","188","2.0.0","299033","5a0bf53d728b1b0001ad95ad","2","41","432","","","","","","","","","<img src= rock_img/I_Basalt_10.jpg style=""width:8cm; height:5.85cm;""><p style='font-size: 30px; color: red;'><strong>Incorrect!</strong></p><p style='font-size: 30px;'><strong>This rock is basalt</strong></p>","0","corr_feedback","1","train","42","","","","","","","",""
"","","","","","","","","","","","html-button-response","189","2.0.0","300791","5a0bf53d728b1b0001ad95ad","2","41","1756","","","","","","","","","<img src= ""rock_img/I_Gabbro_12.jpg"" style=""width:8cm; height:7.800000000000001cm;""><p>What type of rock is this?</p>","0","class_response","1","train","43","Andesite","Gabbro","12","false","1","4","",""
"","","","","","","","","","","","html-button-response","190","2.0.0","301234","5a0bf53d728b1b0001ad95ad","2","41","441","","","","","","","","","<img src= rock_img/I_Gabbro_12.jpg style=""width:8cm; height:7.800000000000001cm;""><p style='font-size: 30px; color: red;'><strong>Incorrect!</strong></p><p style='font-size: 30px;'><strong>This rock is gabbro</strong></p>","0","corr_feedback","1","train","43","","","","","","","",""
"","","","","","","","","","","","html-button-response","191","2.0.0","302801","5a0bf53d728b1b0001ad95ad","2","41","1565","","","","","","","","","<img src= ""rock_img/I_Peridotite_02.jpg"" style=""width:8cm; height:5.859999999999999cm;""><p>What type of rock is this?</p>","5","class_response","1","train","44","Pegmatite","Peridotite","02","false","6","7","",""
"","","","","","","","","","","","html-button-response","192","2.0.0","303185","5a0bf53d728b1b0001ad95ad","2","41","382","","","","","","","","","<img src= rock_img/I_Peridotite_02.jpg style=""width:8cm; height:5.859999999999999cm;""><p style='font-size: 30px; color: red;'><strong>Incorrect!</strong></p><p style='font-size: 30px;'><strong>This rock is peridotite</strong></p>","0","corr_feedback","1","train","44","","","","","","","",""
"","","","","","","","","","","","html-button-response","193","2.0.0","304110","5a0bf53d728b1b0001ad95ad","2","41","924","","","","","","","","","<img src= ""rock_img/I_Andesite_16.jpg"" style=""width:8cm; height:6.010000000000001cm;""><p>What type of rock is this?</p>","2","class_response","1","train","45","Diorite","Andesite","16","false","3","1","",""
"","","","","","","","","","","","html-button-response","194","2.0.0","304552","5a0bf53d728b1b0001ad95ad","2","41","440","","","","","","","","","<img src= rock_img/I_Andesite_16.jpg style=""width:8cm; height:6.010000000000001cm;""><p style='font-size: 30px; color: red;'><strong>Incorrect!</strong></p><p style='font-size: 30px;'><strong>This rock is andesite</strong></p>","0","corr_feedback","1","train","45","","","","","","","",""
"","","","","","","","","","","","html-button-response","195","2.0.0","305410","5a0bf53d728b1b0001ad95ad","2","41","857","","","","","","","","","<img src= ""rock_img/I_Diorite_10.jpg"" style=""width:8cm; height:5.949999999999999cm;""><p>What type of rock is this?</p>","1","class_response","1","train","46","Basalt","Diorite","10","false","2","3","",""
"","","","","","","","","","","","html-button-response","196","2.0.0","305778","5a0bf53d728b1b0001ad95ad","2","41","366","","","","","","","","","<img src= rock_img/I_Diorite_10.jpg style=""width:8cm; height:5.949999999999999cm;""><p style='font-size: 30px; color: red;'><strong>Incorrect!</strong></p><p style='font-size: 30px;'><strong>This rock is diorite</strong></p>","0","corr_feedback","1","train","46","","","","","","","",""
"","","","","","","","","","","","html-button-response","197","2.0.0","306824","5a0bf53d728b1b0001ad95ad","2","41","1040","","","","","","","","","<img src= ""rock_img/I_Andesite_09.jpg"" style=""width:8cm; height:6cm;""><p>What type of rock is this?</p>","3","class_response","1","train","47","Gabbro","Andesite","09","false","4","1","",""
"","","","","","","","","","","","html-button-response","198","2.0.0","307303","5a0bf53d728b1b0001ad95ad","2","41","477","","","","","","","","","<img src= rock_img/I_Andesite_09.jpg style=""width:8cm; height:6cm;""><p style='font-size: 30px; color: red;'><strong>Incorrect!</strong></p><p style='font-size: 30px;'><strong>This rock is andesite</strong></p>","0","corr_feedback","1","train","47","","","","","","","",""
"","","","","","","","","","","","html-button-response","199","2.0.0","308289","5a0bf53d728b1b0001ad95ad","2","41","983","","","","","","","","","<img src= ""rock_img/I_Pegmatite_09.jpg"" style=""width:8cm; height:4.03cm;""><p>What type of rock is this?</p>","6","class_response","1","train","48","Peridotite","Pegmatite","09","false","7","6","",""
"","","","","","","","","","","","html-button-response","200","2.0.0","308739","5a0bf53d728b1b0001ad95ad","2","41","447","","","","","","","","","<img src= rock_img/I_Pegmatite_09.jpg style=""width:8cm; height:4.03cm;""><p style='font-size: 30px; color: red;'><strong>Incorrect!</strong></p><p style='font-size: 30px;'><strong>This rock is pegmatite</strong></p>","0","corr_feedback","1","train","48","","","","","","","",""
"","","","","","","","","","","","instructions","203","2.0.0","319278","5a0bf53d728b1b0001ad95ad","2","41","10537","","","","","","","","[{""page_index"":0,""viewing_time"":3400},{""page_index"":1,""viewing_time"":7136}]","","","","","","","","","","","","","",""
"","","","","","","","","","","","html-button-response","204","2.0.0","320502","5a0bf53d728b1b0001ad95ad","2","41","1222","","","","","","","","","","0","start_test","","","","","","","","","","",""
"","","","","","","","","","","","html-button-response","205","2.0.0","323896","5a0bf53d728b1b0001ad95ad","2","41","3392","","","","","","","","","<img src= ""rock_img/I_Diorite_16.jpg"" style=""width:8cm; height:6.74cm;""><p>What type of rock is this?</p>","2","class_response","1","test","1","Diorite","Diorite","16","true","3","3","",""
"","","","","","","","","","","","html-keyboard-response","206","2.0.0","324399","5a0bf53d728b1b0001ad95ad","2","41","null","","","","","","","","","<p style='font-size: 30px;'><strong>Okay</strong></p>","null","neutral_feedback","1","test","1","","","","","","","",""
"","","","","","","","","","","","html-button-response","207","2.0.0","325363","5a0bf53d728b1b0001ad95ad","2","41","961","","","","","","","","","<img src= ""rock_img/I_Obsidian_09.jpg"" style=""width:8cm; height:5cm;""><p>What type of rock is this?</p>","4","class_response","1","test","2","Obsidian","Obsidian","09","true","5","5","",""
"","","","","","","","","","","","html-keyboard-response","208","2.0.0","325866","5a0bf53d728b1b0001ad95ad","2","41","null","","","","","","","","","<p style='font-size: 30px;'><strong>Okay</strong></p>","null","neutral_feedback","1","test","2","","","","","","","",""
"","","","","","","","","","","","html-button-response","209","2.0.0","327998","5a0bf53d728b1b0001ad95ad","2","41","2129","","","","","","","","","<img src= ""rock_img/I_Peridotite_16.jpg"" style=""width:8cm; height:6.989999999999999cm;""><p>What type of rock is this?</p>","3","class_response","1","test","3","Gabbro","Peridotite","16","false","4","7","",""
"","","","","","","","","","","","html-keyboard-response","210","2.0.0","328505","5a0bf53d728b1b0001ad95ad","2","41","null","","","","","","","","","<p style='font-size: 30px;'><strong>Okay</strong></p>","null","neutral_feedback","1","test","3","","","","","","","",""
"","","","","","","","","","","","html-button-response","211","2.0.0","329425","5a0bf53d728b1b0001ad95ad","2","41","916","","","","","","","","","<img src= ""rock_img/I_Pumice_03.jpg"" style=""width:8cm; height:6.64cm;""><p>What type of rock is this?</p>","7","class_response","1","test","4","Pumice","Pumice","03","true","8","8","",""
"","","","","","","","","","","","html-keyboard-response","212","2.0.0","329928","5a0bf53d728b1b0001ad95ad","2","41","null","","","","","","","","","<p style='font-size: 30px;'><strong>Okay</strong></p>","null","neutral_feedback","1","test","4","","","","","","","",""
"","","","","","","","","","","","html-button-response","213","2.0.0","332010","5a0bf53d728b1b0001ad95ad","2","41","2078","","","","","","","","","<img src= ""rock_img/I_Diorite_15.jpg"" style=""width:8cm; height:5.54cm;""><p>What type of rock is this?</p>","2","class_response","1","test","5","Diorite","Diorite","15","true","3","3","",""
"","","","","","","","","","","","html-keyboard-response","214","2.0.0","332513","5a0bf53d728b1b0001ad95ad","2","41","null","","","","","","","","","<p style='font-size: 30px;'><strong>Okay</strong></p>","null","neutral_feedback","1","test","5","","","","","","","",""
"","","","","","","","","","","","html-button-response","215","2.0.0","334560","5a0bf53d728b1b0001ad95ad","2","41","2044","","","","","","","","","<img src= ""rock_img/I_Pegmatite_12.jpg"" style=""width:8cm; height:5.7cm;""><p>What type of rock is this?</p>","6","class_response","1","test","6","Peridotite","Pegmatite","12","false","7","6","",""
"","","","","","","","","","","","html-keyboard-response","216","2.0.0","335063","5a0bf53d728b1b0001ad95ad","2","41","null","","","","","","","","","<p style='font-size: 30px;'><strong>Okay</strong></p>","null","neutral_feedback","1","test","6","","","","","","","",""
"","","","","","","","","","","","html-button-response","217","2.0.0","337745","5a0bf53d728b1b0001ad95ad","2","41","2679","","","","","","","","","<img src= ""rock_img/I_Basalt_11.jpg"" style=""width:8cm; height:5.359999999999999cm;""><p>What type of rock is this?</p>","0","class_response","1","test","7","Andesite","Basalt","11","false","1","2","",""
"","","","","","","","","","","","html-keyboard-response","218","2.0.0","338248","5a0bf53d728b1b0001ad95ad","2","41","null","","","","","","","","","<p style='font-size: 30px;'><strong>Okay</strong></p>","null","neutral_feedback","1","test","7","","","","","","","",""
"","","","","","","","","","","","html-button-response","219","2.0.0","341797","5a0bf53d728b1b0001ad95ad","2","41","3546","","","","","","","","","<img src= ""rock_img/I_Andesite_07.jpg"" style=""width:8cm; height:5.93cm;""><p>What type of rock is this?</p>","5","class_response","1","test","8","Pegmatite","Andesite","07","false","6","1","",""
"","","","","","","","","","","","html-keyboard-response","220","2.0.0","342300","5a0bf53d728b1b0001ad95ad","2","41","null","","","","","","","","","<p style='font-size: 30px;'><strong>Okay</strong></p>","null","neutral_feedback","1","test","8","","","","","","","",""
"","","","","","","","","","","","html-button-response","221","2.0.0","343868","5a0bf53d728b1b0001ad95ad","2","41","1561","","","","","","","","","<img src= ""rock_img/I_Gabbro_11.jpg"" style=""width:8cm; height:6.2cm;""><p>What type of rock is this?</p>","1","class_response","1","test","9","Basalt","Gabbro","11","false","2","4","",""
"","","","","","","","","","","","html-keyboard-response","222","2.0.0","344372","5a0bf53d728b1b0001ad95ad","2","41","null","","","","","","","","","<p style='font-size: 30px;'><strong>Okay</strong></p>","null","neutral_feedback","1","test","9","","","","","","","",""
"","","","","","","","","","","","html-button-response","223","2.0.0","345291","5a0bf53d728b1b0001ad95ad","2","41","915","","","","","","","","","<img src= ""rock_img/I_Pumice_05.jpg"" style=""width:8cm; height:7.25cm;""><p>What type of rock is this?</p>","7","class_response","1","test","10","Pumice","Pumice","05","true","8","8","",""
"","","","","","","","","","","","html-keyboard-response","224","2.0.0","345794","5a0bf53d728b1b0001ad95ad","2","41","null","","","","","","","","","<p style='font-size: 30px;'><strong>Okay</strong></p>","null","neutral_feedback","1","test","10","","","","","","","",""
"","","","","","","","","","","","html-button-response","225","2.0.0","346892","5a0bf53d728b1b0001ad95ad","2","41","1094","","","","","","","","","<img src= ""rock_img/I_Peridotite_13.jpg"" style=""width:8cm; height:7.58cm;""><p>What type of rock is this?</p>","3","class_response","1","test","11","Gabbro","Peridotite","13","false","4","7","",""
"","","","","","","","","","","","html-keyboard-response","226","2.0.0","347394","5a0bf53d728b1b0001ad95ad","2","41","null","","","","","","","","","<p style='font-size: 30px;'><strong>Okay</strong></p>","null","neutral_feedback","1","test","11","","","","","","","",""
"","","","","","","","","","","","html-button-response","227","2.0.0","349477","5a0bf53d728b1b0001ad95ad","2","41","2081","","","","","","","","","<img src= ""rock_img/I_Diorite_12.jpg"" style=""width:8cm; height:4.88cm;""><p>What type of rock is this?</p>","2","class_response","1","test","12","Diorite","Diorite","12","true","3","3","",""
"","","","","","","","","","","","html-keyboard-response","228","2.0.0","349980","5a0bf53d728b1b0001ad95ad","2","41","null","","","","","","","","","<p style='font-size: 30px;'><strong>Okay</strong></p>","null","neutral_feedback","1","test","12","","","","","","","",""
"","","","","","","","","","","","html-button-response","229","2.0.0","353054","5a0bf53d728b1b0001ad95ad","2","41","3070","","","","","","","","","<img src= ""rock_img/I_Andesite_06.jpg"" style=""width:8cm; height:6.840000000000001cm;""><p>What type of rock is this?</p>","1","class_response","1","test","13","Basalt","Andesite","06","false","2","1","",""
"","","","","","","","","","","","html-keyboard-response","230","2.0.0","353557","5a0bf53d728b1b0001ad95ad","2","41","null","","","","","","","","","<p style='font-size: 30px;'><strong>Okay</strong></p>","null","neutral_feedback","1","test","13","","","","","","","",""
"","","","","","","","","","","","html-button-response","231","2.0.0","356106","5a0bf53d728b1b0001ad95ad","2","41","2545","","","","","","","","","<img src= ""rock_img/I_Andesite_05.jpg"" style=""width:8cm; height:4.12cm;""><p>What type of rock is this?</p>","1","class_response","1","test","14","Basalt","Andesite","05","false","2","1","",""
"","","","","","","","","","","","html-keyboard-response","232","2.0.0","356608","5a0bf53d728b1b0001ad95ad","2","41","null","","","","","","","","","<p style='font-size: 30px;'><strong>Okay</strong></p>","null","neutral_feedback","1","test","14","","","","","","","",""
"","","","","","","","","","","","html-button-response","233","2.0.0","358441","5a0bf53d728b1b0001ad95ad","2","41","1830","","","","","","","","","<img src= ""rock_img/I_Peridotite_06.jpg"" style=""width:8cm; height:7.53cm;""><p>What type of rock is this?</p>","6","class_response","1","test","15","Peridotite","Peridotite","06","true","7","7","",""
"","","","","","","","","","","","html-keyboard-response","234","2.0.0","358944","5a0bf53d728b1b0001ad95ad","2","41","null","","","","","","","","","<p style='font-size: 30px;'><strong>Okay</strong></p>","null","neutral_feedback","1","test","15","","","","","","","",""
"","","","","","","","","","","","html-button-response","235","2.0.0","362937","5a0bf53d728b1b0001ad95ad","2","41","3988","","","","","","","","","<img src= ""rock_img/I_Pegmatite_10.jpg"" style=""width:8cm; height:4.16cm;""><p>What type of rock is this?</p>","6","class_response","1","test","16","Peridotite","Pegmatite","10","false","7","6","",""
"","","","","","","","","","","","html-keyboard-response","236","2.0.0","363440","5a0bf53d728b1b0001ad95ad","2","41","null","","","","","","","","","<p style='font-size: 30px;'><strong>Okay</strong></p>","null","neutral_feedback","1","test","16","","","","","","","",""
"","","","","","","","","","","","html-button-response","237","2.0.0","364319","5a0bf53d728b1b0001ad95ad","2","41","874","","","","","","","","","<img src= ""rock_img/I_Pumice_08.jpg"" style=""width:8cm; height:6.67cm;""><p>What type of rock is this?</p>","7","class_response","1","test","17","Pumice","Pumice","08","true","8","8","",""
"","","","","","","","","","","","html-keyboard-response","238","2.0.0","364820","5a0bf53d728b1b0001ad95ad","2","41","null","","","","","","","","","<p style='font-size: 30px;'><strong>Okay</strong></p>","null","neutral_feedback","1","test","17","","","","","","","",""
"","","","","","","","","","","","html-button-response","239","2.0.0","366195","5a0bf53d728b1b0001ad95ad","2","41","1371","","","","","","","","","<img src= ""rock_img/I_Gabbro_03.jpg"" style=""width:8cm; height:8.52cm;""><p>What type of rock is this?</p>","2","class_response","1","test","18","Diorite","Gabbro","03","false","3","4","",""
"","","","","","","","","","","","html-keyboard-response","240","2.0.0","366698","5a0bf53d728b1b0001ad95ad","2","41","null","","","","","","","","","<p style='font-size: 30px;'><strong>Okay</strong></p>","null","neutral_feedback","1","test","18","","","","","","","",""
"","","","","","","","","","","","html-button-response","241","2.0.0","368571","5a0bf53d728b1b0001ad95ad","2","41","1871","","","","","","","","","<img src= ""rock_img/I_Pegmatite_03.jpg"" style=""width:8cm; height:5.239999999999999cm;""><p>What type of rock is this?</p>","5","class_response","1","test","19","Pegmatite","Pegmatite","03","true","6","6","",""
"","","","","","","","","","","","html-keyboard-response","242","2.0.0","369074","5a0bf53d728b1b0001ad95ad","2","41","null","","","","","","","","","<p style='font-size: 30px;'><strong>Okay</strong></p>","null","neutral_feedback","1","test","19","","","","","","","",""
"","","","","","","","","","","","html-button-response","243","2.0.0","369822","5a0bf53d728b1b0001ad95ad","2","41","744","","","","","","","","","<img src= ""rock_img/I_Pumice_14.jpg"" style=""width:8cm; height:6.39cm;""><p>What type of rock is this?</p>","7","class_response","1","test","20","Pumice","Pumice","14","true","8","8","",""
"","","","","","","","","","","","html-keyboard-response","244","2.0.0","370324","5a0bf53d728b1b0001ad95ad","2","41","null","","","","","","","","","<p style='font-size: 30px;'><strong>Okay</strong></p>","null","neutral_feedback","1","test","20","","","","","","","",""
"","","","","","","","","","","","html-button-response","245","2.0.0","371138","5a0bf53d728b1b0001ad95ad","2","41","812","","","","","","","","","<img src= ""rock_img/I_Andesite_10.jpg"" style=""width:8cm; height:4.16cm;""><p>What type of rock is this?</p>","1","class_response","1","test","21","Basalt","Andesite","10","false","2","1","",""
"","","","","","","","","","","","html-keyboard-response","246","2.0.0","371641","5a0bf53d728b1b0001ad95ad","2","41","null","","","","","","","","","<p style='font-size: 30px;'><strong>Okay</strong></p>","null","neutral_feedback","1","test","21","","","","","","","",""
"","","","","","","","","","","","html-button-response","247","2.0.0","373173","5a0bf53d728b1b0001ad95ad","2","41","1530","","","","","","","","","<img src= ""rock_img/I_Basalt_12.jpg"" style=""width:8cm; height:6.010000000000001cm;""><p>What type of rock is this?</p>","1","class_response","1","test","22","Basalt","Basalt","12","true","2","2","",""
"","","","","","","","","","","","html-keyboard-response","248","2.0.0","373676","5a0bf53d728b1b0001ad95ad","2","41","null","","","","","","","","","<p style='font-size: 30px;'><strong>Okay</strong></p>","null","neutral_feedback","1","test","22","","","","","","","",""
"","","","","","","","","","","","html-button-response","249","2.0.0","374476","5a0bf53d728b1b0001ad95ad","2","41","794","","","","","","","","","<img src= ""rock_img/I_Obsidian_11.jpg"" style=""width:8cm; height:6.05cm;""><p>What type of rock is this?</p>","4","class_response","1","test","23","Obsidian","Obsidian","11","true","5","5","",""
"","","","","","","","","","","","html-keyboard-response","250","2.0.0","374979","5a0bf53d728b1b0001ad95ad","2","41","null","","","","","","","","","<p style='font-size: 30px;'><strong>Okay</strong></p>","null","neutral_feedback","1","test","23","","","","","","","",""
"","","","","","","","","","","","html-button-response","251","2.0.0","375710","5a0bf53d728b1b0001ad95ad","2","41","727","","","","","","","","","<img src= ""rock_img/I_Gabbro_15.jpg"" style=""width:8cm; height:6.29cm;""><p>What type of rock is this?</p>","1","class_response","1","test","24","Basalt","Gabbro","15","false","2","4","",""
"","","","","","","","","","","","html-keyboard-response","252","2.0.0","376213","5a0bf53d728b1b0001ad95ad","2","41","null","","","","","","","","","<p style='font-size: 30px;'><strong>Okay</strong></p>","null","neutral_feedback","1","test","24","","","","","","","",""
"","","","","","","","","","","","html-button-response","253","2.0.0","377535","5a0bf53d728b1b0001ad95ad","2","41","1319","","","","","","","","","<img src= ""rock_img/I_Peridotite_14.jpg"" style=""width:8cm; height:5.3cm;""><p>What type of rock is this?</p>","6","class_response","1","test","25","Peridotite","Peridotite","14","true","7","7","",""
"","","","","","","","","","","","html-keyboard-response","254","2.0.0","378038","5a0bf53d728b1b0001ad95ad","2","41","null","","","","","","","","","<p style='font-size: 30px;'><strong>Okay</strong></p>","null","neutral_feedback","1","test","25","","","","","","","",""
"","","","","","","","","","","","html-button-response","255","2.0.0","378860","5a0bf53d728b1b0001ad95ad","2","41","819","","","","","","","","","<img src= ""rock_img/I_Obsidian_16.jpg"" style=""width:8cm; height:9.3cm;""><p>What type of rock is this?</p>","4","class_response","1","test","26","Obsidian","Obsidian","16","true","5","5","",""
"","","","","","","","","","","","html-keyboard-response","256","2.0.0","379363","5a0bf53d728b1b0001ad95ad","2","41","null","","","","","","","","","<p style='font-size: 30px;'><strong>Okay</strong></p>","null","neutral_feedback","1","test","26","","","","","","","",""
"","","","","","","","","","","","html-button-response","257","2.0.0","380244","5a0bf53d728b1b0001ad95ad","2","41","878","","","","","","","","","<img src= ""rock_img/I_Obsidian_02.jpg"" style=""width:8cm; height:7.51cm;""><p>What type of rock is this?</p>","4","class_response","1","test","27","Obsidian","Obsidian","02","true","5","5","",""
"","","","","","","","","","","","html-keyboard-response","258","2.0.0","380747","5a0bf53d728b1b0001ad95ad","2","41","null","","","","","","","","","<p style='font-size: 30px;'><strong>Okay</strong></p>","null","neutral_feedback","1","test","27","","","","","","","",""
"","","","","","","","","","","","html-button-response","259","2.0.0","381495","5a0bf53d728b1b0001ad95ad","2","41","745","","","","","","","","","<img src= ""rock_img/I_Diorite_08.jpg"" style=""width:8cm; height:6.37cm;""><p>What type of rock is this?</p>","2","class_response","1","test","28","Diorite","Diorite","08","true","3","3","",""
"","","","","","","","","","","","html-keyboard-response","260","2.0.0","381998","5a0bf53d728b1b0001ad95ad","2","41","null","","","","","","","","","<p style='font-size: 30px;'><strong>Okay</strong></p>","null","neutral_feedback","1","test","28","","","","","","","",""
"","","","","","","","","","","","html-button-response","261","2.0.0","382888","5a0bf53d728b1b0001ad95ad","2","41","887","","","","","","","","","<img src= ""rock_img/I_Andesite_04.jpg"" style=""width:8cm; height:5.96cm;""><p>What type of rock is this?</p>","5","class_response","1","test","29","Pegmatite","Andesite","04","false","6","1","",""
"","","","","","","","","","","","html-keyboard-response","262","2.0.0","383391","5a0bf53d728b1b0001ad95ad","2","41","null","","","","","","","","","<p style='font-size: 30px;'><strong>Okay</strong></p>","null","neutral_feedback","1","test","29","","","","","","","",""
"","","","","","","","","","","","html-button-response","263","2.0.0","384089","5a0bf53d728b1b0001ad95ad","2","41","694","","","","","","","","","<img src= ""rock_img/I_Basalt_01.jpg"" style=""width:8cm; height:7.880000000000001cm;""><p>What type of rock is this?</p>","1","class_response","1","test","30","Basalt","Basalt","01","true","2","2","",""
"","","","","","","","","","","","html-keyboard-response","264","2.0.0","384592","5a0bf53d728b1b0001ad95ad","2","41","null","","","","","","","","","<p style='font-size: 30px;'><strong>Okay</strong></p>","null","neutral_feedback","1","test","30","","","","","","","",""
"","","","","","","","","","","","html-button-response","265","2.0.0","385522","5a0bf53d728b1b0001ad95ad","2","41","928","","","","","","","","","<img src= ""rock_img/I_Diorite_07.jpg"" style=""width:8cm; height:5.239999999999999cm;""><p>What type of rock is this?</p>","2","class_response","1","test","31","Diorite","Diorite","07","true","3","3","",""
"","","","","","","","","","","","html-keyboard-response","266","2.0.0","386025","5a0bf53d728b1b0001ad95ad","2","41","null","","","","","","","","","<p style='font-size: 30px;'><strong>Okay</strong></p>","null","neutral_feedback","1","test","31","","","","","","","",""
"","","","","","","","","","","","html-button-response","267","2.0.0","386948","5a0bf53d728b1b0001ad95ad","2","41","921","","","","","","","","","<img src= ""rock_img/I_Peridotite_04.jpg"" style=""width:8cm; height:6.680000000000001cm;""><p>What type of rock is this?</p>","6","class_response","1","test","32","Peridotite","Peridotite","04","true","7","7","",""
"","","","","","","","","","","","html-keyboard-response","268","2.0.0","387451","5a0bf53d728b1b0001ad95ad","2","41","null","","","","","","","","","<p style='font-size: 30px;'><strong>Okay</strong></p>","null","neutral_feedback","1","test","32","","","","","","","",""
"","","","","","","","","","","","html-button-response","269","2.0.0","388207","5a0bf53d728b1b0001ad95ad","2","41","753","","","","","","","","","<img src= ""rock_img/I_Obsidian_06.jpg"" style=""width:8cm; height:6.8cm;""><p>What type of rock is this?</p>","4","class_response","1","test","33","Obsidian","Obsidian","06","true","5","5","",""
"","","","","","","","","","","","html-keyboard-response","270","2.0.0","388715","5a0bf53d728b1b0001ad95ad","2","41","null","","","","","","","","","<p style='font-size: 30px;'><strong>Okay</strong></p>","null","neutral_feedback","1","test","33","","","","","","","",""
"","","","","","","","","","","","html-button-response","271","2.0.0","389541","5a0bf53d728b1b0001ad95ad","2","41","824","","","","","","","","","<img src= ""rock_img/I_Basalt_14.jpg"" style=""width:8cm; height:5.82cm;""><p>What type of rock is this?</p>","1","class_response","1","test","34","Basalt","Basalt","14","true","2","2","",""
"","","","","","","","","","","","html-keyboard-response","272","2.0.0","390044","5a0bf53d728b1b0001ad95ad","2","41","null","","","","","","","","","<p style='font-size: 30px;'><strong>Okay</strong></p>","null","neutral_feedback","1","test","34","","","","","","","",""
"","","","","","","","","","","","html-button-response","273","2.0.0","390925","5a0bf53d728b1b0001ad95ad","2","41","878","","","","","","","","","<img src= ""rock_img/I_Pegmatite_11.jpg"" style=""width:8cm; height:8.14cm;""><p>What type of rock is this?</p>","5","class_response","1","test","35","Pegmatite","Pegmatite","11","true","6","6","",""
"","","","","","","","","","","","html-keyboard-response","274","2.0.0","391428","5a0bf53d728b1b0001ad95ad","2","41","null","","","","","","","","","<p style='font-size: 30px;'><strong>Okay</strong></p>","null","neutral_feedback","1","test","35","","","","","","","",""
"","","","","","","","","","","","html-button-response","275","2.0.0","392243","5a0bf53d728b1b0001ad95ad","2","41","813","","","","","","","","","<img src= ""rock_img/I_Pumice_13.jpg"" style=""width:8cm; height:8.200000000000001cm;""><p>What type of rock is this?</p>","7","class_response","1","test","36","Pumice","Pumice","13","true","8","8","",""
"","","","","","","","","","","","html-keyboard-response","276","2.0.0","392746","5a0bf53d728b1b0001ad95ad","2","41","null","","","","","","","","","<p style='font-size: 30px;'><strong>Okay</strong></p>","null","neutral_feedback","1","test","36","","","","","","","",""
"","","","","","","","","","","","html-button-response","277","2.0.0","393535","5a0bf53d728b1b0001ad95ad","2","41","786","","","","","","","","","<img src= ""rock_img/I_Gabbro_10.jpg"" style=""width:8cm; height:5.680000000000001cm;""><p>What type of rock is this?</p>","1","class_response","1","test","37","Basalt","Gabbro","10","false","2","4","",""
"","","","","","","","","","","","html-keyboard-response","278","2.0.0","394038","5a0bf53d728b1b0001ad95ad","2","41","null","","","","","","","","","<p style='font-size: 30px;'><strong>Okay</strong></p>","null","neutral_feedback","1","test","37","","","","","","","",""
"","","","","","","","","","","","html-button-response","279","2.0.0","394861","5a0bf53d728b1b0001ad95ad","2","41","820","","","","","","","","","<img src= ""rock_img/I_Pegmatite_06.jpg"" style=""width:8cm; height:5.17cm;""><p>What type of rock is this?</p>","6","class_response","1","test","38","Peridotite","Pegmatite","06","false","7","6","",""
"","","","","","","","","","","","html-keyboard-response","280","2.0.0","395363","5a0bf53d728b1b0001ad95ad","2","41","null","","","","","","","","","<p style='font-size: 30px;'><strong>Okay</strong></p>","null","neutral_feedback","1","test","38","","","","","","","",""
"","","","","","","","","","","","html-button-response","281","2.0.0","396254","5a0bf53d728b1b0001ad95ad","2","41","888","","","","","","","","","<img src= ""rock_img/I_Diorite_13.jpg"" style=""width:8cm; height:6.29cm;""><p>What type of rock is this?</p>","2","class_response","1","test","39","Diorite","Diorite","13","true","3","3","",""
"","","","","","","","","","","","html-keyboard-response","282","2.0.0","396756","5a0bf53d728b1b0001ad95ad","2","41","null","","","","","","","","","<p style='font-size: 30px;'><strong>Okay</strong></p>","null","neutral_feedback","1","test","39","","","","","","","",""
"","","","","","","","","","","","html-button-response","283","2.0.0","397646","5a0bf53d728b1b0001ad95ad","2","41","886","","","","","","","","","<img src= ""rock_img/I_Gabbro_09.jpg"" style=""width:8cm; height:7.279999999999999cm;""><p>What type of rock is this?</p>","1","class_response","1","test","40","Basalt","Gabbro","09","false","2","4","",""
"","","","","","","","","","","","html-keyboard-response","284","2.0.0","398148","5a0bf53d728b1b0001ad95ad","2","41","null","","","","","","","","","<p style='font-size: 30px;'><strong>Okay</strong></p>","null","neutral_feedback","1","test","40","","","","","","","",""
"","","","","","","","","","","","html-button-response","285","2.0.0","399197","5a0bf53d728b1b0001ad95ad","2","41","1045","","","","","","","","","<img src= ""rock_img/I_Gabbro_13.jpg"" style=""width:8cm; height:5.08cm;""><p>What type of rock is this?</p>","1","class_response","1","test","41","Basalt","Gabbro","13","false","2","4","",""
"","","","","","","","","","","","html-keyboard-response","286","2.0.0","399699","5a0bf53d728b1b0001ad95ad","2","41","null","","","","","","","","","<p style='font-size: 30px;'><strong>Okay</strong></p>","null","neutral_feedback","1","test","41","","","","","","","",""
"","","","","","","","","","","","html-button-response","287","2.0.0","400497","5a0bf53d728b1b0001ad95ad","2","41","795","","","","","","","","","<img src= ""rock_img/I_Basalt_05.jpg"" style=""width:8cm; height:8.18cm;""><p>What type of rock is this?</p>","1","class_response","1","test","42","Basalt","Basalt","05","true","2","2","",""
"","","","","","","","","","","","html-keyboard-response","288","2.0.0","401000","5a0bf53d728b1b0001ad95ad","2","41","null","","","","","","","","","<p style='font-size: 30px;'><strong>Okay</strong></p>","null","neutral_feedback","1","test","42","","","","","","","",""
"","","","","","","","","","","","html-button-response","289","2.0.0","402823","5a0bf53d728b1b0001ad95ad","2","41","1820","","","","","","","","","<img src= ""rock_img/I_Andesite_02.jpg"" style=""width:8cm; height:8.5cm;""><p>What type of rock is this?</p>","5","class_response","1","test","43","Pegmatite","Andesite","02","false","6","1","",""
"","","","","","","","","","","","html-keyboard-response","290","2.0.0","403325","5a0bf53d728b1b0001ad95ad","2","41","null","","","","","","","","","<p style='font-size: 30px;'><strong>Okay</strong></p>","null","neutral_feedback","1","test","43","","","","","","","",""
"","","","","","","","","","","","html-button-response","291","2.0.0","404408","5a0bf53d728b1b0001ad95ad","2","41","1080","","","","","","","","","<img src= ""rock_img/I_Peridotite_07.jpg"" style=""width:8cm; height:4.83cm;""><p>What type of rock is this?</p>","6","class_response","1","test","44","Peridotite","Peridotite","07","true","7","7","",""
"","","","","","","","","","","","html-keyboard-response","292","2.0.0","404910","5a0bf53d728b1b0001ad95ad","2","41","null","","","","","","","","","<p style='font-size: 30px;'><strong>Okay</strong></p>","null","neutral_feedback","1","test","44","","","","","","","",""
"","","","","","","","","","","","html-button-response","293","2.0.0","405675","5a0bf53d728b1b0001ad95ad","2","41","763","","","","","","","","","<img src= ""rock_img/I_Obsidian_08.jpg"" style=""width:8cm; height:7.39cm;""><p>What type of rock is this?</p>","4","class_response","1","test","45","Obsidian","Obsidian","08","true","5","5","",""
"","","","","","","","","","","","html-keyboard-response","294","2.0.0","406178","5a0bf53d728b1b0001ad95ad","2","41","null","","","","","","","","","<p style='font-size: 30px;'><strong>Okay</strong></p>","null","neutral_feedback","1","test","45","","","","","","","",""
"","","","","","","","","","","","html-button-response","295","2.0.0","406917","5a0bf53d728b1b0001ad95ad","2","41","735","","","","","","","","","<img src= ""rock_img/I_Pumice_06.jpg"" style=""width:8cm; height:6.9399999999999995cm;""><p>What type of rock is this?</p>","7","class_response","1","test","46","Pumice","Pumice","06","true","8","8","",""
"","","","","","","","","","","","html-keyboard-response","296","2.0.0","407420","5a0bf53d728b1b0001ad95ad","2","41","null","","","","","","","","","<p style='font-size: 30px;'><strong>Okay</strong></p>","null","neutral_feedback","1","test","46","","","","","","","",""
"","","","","","","","","","","","html-button-response","297","2.0.0","408343","5a0bf53d728b1b0001ad95ad","2","41","920","","","","","","","","","<img src= ""rock_img/I_Pegmatite_08.jpg"" style=""width:8cm; height:7.68cm;""><p>What type of rock is this?</p>","5","class_response","1","test","47","Pegmatite","Pegmatite","08","true","6","6","",""
"","","","","","","","","","","","html-keyboard-response","298","2.0.0","408846","5a0bf53d728b1b0001ad95ad","2","41","null","","","","","","","","","<p style='font-size: 30px;'><strong>Okay</strong></p>","null","neutral_feedback","1","test","47","","","","","","","",""
"","","","","","","","","","","","html-button-response","299","2.0.0","409636","5a0bf53d728b1b0001ad95ad","2","41","787","","","","","","","","","<img src= ""rock_img/I_Basalt_04.jpg"" style=""width:8cm; height:7.53cm;""><p>What type of rock is this?</p>","1","class_response","1","test","48","Basalt","Basalt","04","true","2","2","",""
"","","","","","","","","","","","html-keyboard-response","300","2.0.0","410139","5a0bf53d728b1b0001ad95ad","2","41","null","","","","","","","","","<p style='font-size: 30px;'><strong>Okay</strong></p>","null","neutral_feedback","1","test","48","","","","","","","",""
"","","","","","","","","","","","html-button-response","301","2.0.0","430656","5a0bf53d728b1b0001ad95ad","2","41","","","","","","","","","","","","cycle_feedback","","","","","","","","","","9448","11057"
"","","","","","","","","","","","html-button-response","303","2.0.0","431631","5a0bf53d728b1b0001ad95ad","2","41","971","","","","","","","","","","0","start_train","","","","","","","","","","",""
"","","","","","","","","","","","html-button-response","304","2.0.0","435927","5a0bf53d728b1b0001ad95ad","2","41","4288","","","","","","","","","<img src= ""rock_img/I_Gabbro_16.jpg"" style=""width:8cm; height:6.44cm;""><p>What type of rock is this?</p>","3","class_response","2","train","1","Gabbro","Gabbro","16","true","4","4","",""
