"width","height","webaudio","browser","browser_version","mobile","os","fullscreen","vsync_rate","webcam","microphone","trial_type","trial_index","plugin_version","time_elapsed","subjID","condition","stimID","rt","url","success","value","timeout","failed_images","failed_audio","failed_video","view_history","stimulus","response","trialType","cycle","phase","trial","resp","cat","token","corr","resp_num","cat_num","time_fb1","time_fb2"
"1352","617","true","chrome","131.0.0","false","Windows 10","true","146.56","false","true","browser-check","0","2.0.0","419","66ef212cf79668f34be612d8","2","22","","","","","","","","","","","","","","","","","","","","","","",""
"","","","","","","","","","","","external-html","1","2.0.0","6420","66ef212cf79668f34be612d8","2","22","5936","consent_form.html","","","","","","","","","","","","","","","","","","","","",""
"","","","","","","","","","","","fullscreen","2","2.0.0","8722","66ef212cf79668f34be612d8","2","22","1286","","true","","","","","","","","","","","","","","","","","","","",""
"","","","","","","","","","","","call-function","3","2.0.0","8723","66ef212cf79668f34be612d8","2","22","","","","{}","","","","","","","","","","","","","","","","","","",""
"","","","","","","","","","","","preload","4","2.0.0","9931","66ef212cf79668f34be612d8","2","22","","","true","","false","[]","[]","[]","","","","","","","","","","","","","","",""
"","","","","","","","","","","","instructions","5","2.0.0","37587","66ef212cf79668f34be612d8","2","22","27655","","","","","","","","[{""page_index"":0,""viewing_time"":5495},{""page_index"":1,""viewing_time"":12781},{""page_index"":2,""viewing_time"":9379}]","","","","","","","","","","","","","",""
"","","","","","","","","","","","html-button-response","6","2.0.0","39058","66ef212cf79668f34be612d8","2","22","1470","","","","","","","","","","0","start_test","","","","","","","","","","",""
"","","","","","","","","","","","html-button-response","7","2.0.0","46315","66ef212cf79668f34be612d8","2","22","7255","","","","","","","","","<img src= ""rock_img/I_Peridotite_08.jpg"" style=""width:8cm; height:6.7cm;""><p>What type of rock is this?</p>","1","class_response","0","test","1","Basalt","Peridotite","08","false","2","7","",""
"","","","","","","","","","","","html-keyboard-response","8","2.0.0","46828","66ef212cf79668f34be612d8","2","22","null","","","","","","","","","<p style='font-size: 30px;'><strong>Okay</strong></p>","null","neutral_feedback","0","test","1","","","","","","","",""
"","","","","","","","","","","","html-button-response","9","2.0.0","53831","66ef212cf79668f34be612d8","2","22","7001","","","","","","","","","<img src= ""rock_img/I_Basalt_04.jpg"" style=""width:8cm; height:7.53cm;""><p>What type of rock is this?</p>","7","class_response","0","test","2","Pumice","Basalt","04","false","8","2","",""
"","","","","","","","","","","","html-keyboard-response","10","2.0.0","54345","66ef212cf79668f34be612d8","2","22","null","","","","","","","","","<p style='font-size: 30px;'><strong>Okay</strong></p>","null","neutral_feedback","0","test","2","","","","","","","",""
"","","","","","","","","","","","html-button-response","11","2.0.0","63264","66ef212cf79668f34be612d8","2","22","8917","","","","","","","","","<img src= ""rock_img/I_Andesite_06.jpg"" style=""width:8cm; height:6.840000000000001cm;""><p>What type of rock is this?</p>","2","class_response","0","test","3","Diorite","Andesite","06","false","3","1","",""
"","","","","","","","","","","","html-keyboard-response","12","2.0.0","63774","66ef212cf79668f34be612d8","2","22","null","","","","","","","","","<p style='font-size: 30px;'><strong>Okay</strong></p>","null","neutral_feedback","0","test","3","","","","","","","",""
"","","","","","","","","","","","html-button-response","13","2.0.0","72096","66ef212cf79668f34be612d8","2","22","8321","","","","","","","","","<img src= ""rock_img/I_Diorite_11.jpg"" style=""width:8cm; height:7.11cm;""><p>What type of rock is this?</p>","0","class_response","0","test","4","Andesite","Diorite","11","false","1","3","",""
"","","","","","","","","","","","html-keyboard-response","14","2.0.0","72600","66ef212cf79668f34be612d8","2","22","null","","","","","","","","","<p style='font-size: 30px;'><strong>Okay</strong></p>","null","neutral_feedback","0","test","4","","","","","","","",""
"","","","","","","","","","","","html-button-response","15","2.0.0","78782","66ef212cf79668f34be612d8","2","22","6182","","","","","","","","","<img src= ""rock_img/I_Pegmatite_16.jpg"" style=""width:8cm; height:5.8cm;""><p>What type of rock is this?</p>","6","class_response","0","test","5","Peridotite","Pegmatite","16","false","7","6","",""
"","","","","","","","","","","","html-keyboard-response","16","2.0.0","79285","66ef212cf79668f34be612d8","2","22","null","","","","","","","","","<p style='font-size: 30px;'><strong>Okay</strong></p>","null","neutral_feedback","0","test","5","","","","","","","",""
"","","","","","","","","","","","html-button-response","17","2.0.0","81788","66ef212cf79668f34be612d8","2","22","2502","","","","","","","","","<img src= ""rock_img/I_Obsidian_07.jpg"" style=""width:8cm; height:4.76cm;""><p>What type of rock is this?</p>","4","class_response","0","test","6","Obsidian","Obsidian","07","true","5","5","",""
"","","","","","","","","","","","html-keyboard-response","18","2.0.0","82300","66ef212cf79668f34be612d8","2","22","null","","","","","","","","","<p style='font-size: 30px;'><strong>Okay</strong></p>","null","neutral_feedback","0","test","6","","","","","","","",""
"","","","","","","","","","","","html-button-response","19","2.0.0","88293","66ef212cf79668f34be612d8","2","22","5992","","","","","","","","","<img src= ""rock_img/I_Pegmatite_06.jpg"" style=""width:8cm; height:5.17cm;""><p>What type of rock is this?</p>","6","class_response","0","test","7","Peridotite","Pegmatite","06","false","7","6","",""
"","","","","","","","","","","","html-keyboard-response","20","2.0.0","88807","66ef212cf79668f34be612d8","2","22","null","","","","","","","","","<p style='font-size: 30px;'><strong>Okay</strong></p>","null","neutral_feedback","0","test","7","","","","","","","",""
"","","","","","","","","","","","html-button-response","21","2.0.0","91441","66ef212cf79668f34be612d8","2","22","2632","","","","","","","","","<img src= ""rock_img/I_Gabbro_16.jpg"" style=""width:8cm; height:6.44cm;""><p>What type of rock is this?</p>","2","class_response","0","test","8","Diorite","Gabbro","16","false","3","4","",""
"","","","","","","","","","","","html-keyboard-response","22","2.0.0","91955","66ef212cf79668f34be612d8","2","22","null","","","","","","","","","<p style='font-size: 30px;'><strong>Okay</strong></p>","null","neutral_feedback","0","test","8","","","","","","","",""
"","","","","","","","","","","","html-button-response","23","2.0.0","94546","66ef212cf79668f34be612d8","2","22","2590","","","","","","","","","<img src= ""rock_img/I_Basalt_05.jpg"" style=""width:8cm; height:8.18cm;""><p>What type of rock is this?</p>","7","class_response","0","test","9","Pumice","Basalt","05","false","8","2","",""
"","","","","","","","","","","","html-keyboard-response","24","2.0.0","95053","66ef212cf79668f34be612d8","2","22","null","","","","","","","","","<p style='font-size: 30px;'><strong>Okay</strong></p>","null","neutral_feedback","0","test","9","","","","","","","",""
"","","","","","","","","","","","html-button-response","25","2.0.0","96398","66ef212cf79668f34be612d8","2","22","1342","","","","","","","","","<img src= ""rock_img/I_Pegmatite_13.jpg"" style=""width:8cm; height:4.95cm;""><p>What type of rock is this?</p>","5","class_response","0","test","10","Pegmatite","Pegmatite","13","true","6","6","",""
"","","","","","","","","","","","html-keyboard-response","26","2.0.0","96906","66ef212cf79668f34be612d8","2","22","null","","","","","","","","","<p style='font-size: 30px;'><strong>Okay</strong></p>","null","neutral_feedback","0","test","10","","","","","","","",""
"","","","","","","","","","","","html-button-response","27","2.0.0","99538","66ef212cf79668f34be612d8","2","22","2631","","","","","","","","","<img src= ""rock_img/I_Diorite_15.jpg"" style=""width:8cm; height:5.54cm;""><p>What type of rock is this?</p>","1","class_response","0","test","11","Basalt","Diorite","15","false","2","3","",""
"","","","","","","","","","","","html-keyboard-response","28","2.0.0","100042","66ef212cf79668f34be612d8","2","22","null","","","","","","","","","<p style='font-size: 30px;'><strong>Okay</strong></p>","null","neutral_feedback","0","test","11","","","","","","","",""
"","","","","","","","","","","","html-button-response","29","2.0.0","102038","66ef212cf79668f34be612d8","2","22","1995","","","","","","","","","<img src= ""rock_img/I_Pegmatite_10.jpg"" style=""width:8cm; height:4.16cm;""><p>What type of rock is this?</p>","2","class_response","0","test","12","Diorite","Pegmatite","10","false","3","6","",""
"","","","","","","","","","","","html-keyboard-response","30","2.0.0","102553","66ef212cf79668f34be612d8","2","22","null","","","","","","","","","<p style='font-size: 30px;'><strong>Okay</strong></p>","null","neutral_feedback","0","test","12","","","","","","","",""
"","","","","","","","","","","","html-button-response","31","2.0.0","104406","66ef212cf79668f34be612d8","2","22","1851","","","","","","","","","<img src= ""rock_img/I_Diorite_12.jpg"" style=""width:8cm; height:4.88cm;""><p>What type of rock is this?</p>","1","class_response","0","test","13","Basalt","Diorite","12","false","2","3","",""
"","","","","","","","","","","","html-keyboard-response","32","2.0.0","104909","66ef212cf79668f34be612d8","2","22","null","","","","","","","","","<p style='font-size: 30px;'><strong>Okay</strong></p>","null","neutral_feedback","0","test","13","","","","","","","",""
"","","","","","","","","","","","html-button-response","33","2.0.0","107640","66ef212cf79668f34be612d8","2","22","2730","","","","","","","","","<img src= ""rock_img/I_Pegmatite_11.jpg"" style=""width:8cm; height:8.14cm;""><p>What type of rock is this?</p>","4","class_response","0","test","14","Obsidian","Pegmatite","11","false","5","6","",""
"","","","","","","","","","","","html-keyboard-response","34","2.0.0","108150","66ef212cf79668f34be612d8","2","22","null","","","","","","","","","<p style='font-size: 30px;'><strong>Okay</strong></p>","null","neutral_feedback","0","test","14","","","","","","","",""
"","","","","","","","","","","","html-button-response","35","2.0.0","109633","66ef212cf79668f34be612d8","2","22","1481","","","","","","","","","<img src= ""rock_img/I_Basalt_06.jpg"" style=""width:8cm; height:7.06cm;""><p>What type of rock is this?</p>","7","class_response","0","test","15","Pumice","Basalt","06","false","8","2","",""
"","","","","","","","","","","","html-keyboard-response","36","2.0.0","110135","66ef212cf79668f34be612d8","2","22","null","","","","","","","","","<p style='font-size: 30px;'><strong>Okay</strong></p>","null","neutral_feedback","0","test","15","","","","","","","",""
"","","","","","","","","","","","html-button-response","37","2.0.0","111573","66ef212cf79668f34be612d8","2","22","1437","","","","","","","","","<img src= ""rock_img/I_Pegmatite_03.jpg"" style=""width:8cm; height:5.239999999999999cm;""><p>What type of rock is this?</p>","6","class_response","0","test","16","Peridotite","Pegmatite","03","false","7","6","",""
"","","","","","","","","","","","html-keyboard-response","38","2.0.0","112075","66ef212cf79668f34be612d8","2","22","null","","","","","","","","","<p style='font-size: 30px;'><strong>Okay</strong></p>","null","neutral_feedback","0","test","16","","","","","","","",""
"","","","","","","","","","","","html-button-response","39","2.0.0","115391","66ef212cf79668f34be612d8","2","22","3316","","","","","","","","","<img src= ""rock_img/I_Peridotite_02.jpg"" style=""width:8cm; height:5.859999999999999cm;""><p>What type of rock is this?</p>","0","class_response","0","test","17","Andesite","Peridotite","02","false","1","7","",""
"","","","","","","","","","","","html-keyboard-response","40","2.0.0","115895","66ef212cf79668f34be612d8","2","22","null","","","","","","","","","<p style='font-size: 30px;'><strong>Okay</strong></p>","null","neutral_feedback","0","test","17","","","","","","","",""
"","","","","","","","","","","","html-button-response","41","2.0.0","117734","66ef212cf79668f34be612d8","2","22","1839","","","","","","","","","<img src= ""rock_img/I_Obsidian_10.jpg"" style=""width:8cm; height:6.260000000000001cm;""><p>What type of rock is this?</p>","4","class_response","0","test","18","Obsidian","Obsidian","10","true","5","5","",""
"","","","","","","","","","","","html-keyboard-response","42","2.0.0","118246","66ef212cf79668f34be612d8","2","22","null","","","","","","","","","<p style='font-size: 30px;'><strong>Okay</strong></p>","null","neutral_feedback","0","test","18","","","","","","","",""
"","","","","","","","","","","","html-button-response","43","2.0.0","120668","66ef212cf79668f34be612d8","2","22","2420","","","","","","","","","<img src= ""rock_img/I_Gabbro_05.jpg"" style=""width:8cm; height:6cm;""><p>What type of rock is this?</p>","3","class_response","0","test","19","Gabbro","Gabbro","05","true","4","4","",""
"","","","","","","","","","","","html-keyboard-response","44","2.0.0","121175","66ef212cf79668f34be612d8","2","22","null","","","","","","","","","<p style='font-size: 30px;'><strong>Okay</strong></p>","null","neutral_feedback","0","test","19","","","","","","","",""
"","","","","","","","","","","","html-button-response","45","2.0.0","123587","66ef212cf79668f34be612d8","2","22","2412","","","","","","","","","<img src= ""rock_img/I_Peridotite_12.jpg"" style=""width:8cm; height:4.54cm;""><p>What type of rock is this?</p>","0","class_response","0","test","20","Andesite","Peridotite","12","false","1","7","",""
"","","","","","","","","","","","html-keyboard-response","46","2.0.0","124098","66ef212cf79668f34be612d8","2","22","null","","","","","","","","","<p style='font-size: 30px;'><strong>Okay</strong></p>","null","neutral_feedback","0","test","20","","","","","","","",""
"","","","","","","","","","","","html-button-response","47","2.0.0","125807","66ef212cf79668f34be612d8","2","22","1709","","","","","","","","","<img src= ""rock_img/I_Pumice_02.jpg"" style=""width:8cm; height:7.3999999999999995cm;""><p>What type of rock is this?</p>","7","class_response","0","test","21","Pumice","Pumice","02","true","8","8","",""
"","","","","","","","","","","","html-keyboard-response","48","2.0.0","126316","66ef212cf79668f34be612d8","2","22","null","","","","","","","","","<p style='font-size: 30px;'><strong>Okay</strong></p>","null","neutral_feedback","0","test","21","","","","","","","",""
"","","","","","","","","","","","html-button-response","49","2.0.0","127450","66ef212cf79668f34be612d8","2","22","1134","","","","","","","","","<img src= ""rock_img/I_Peridotite_07.jpg"" style=""width:8cm; height:4.83cm;""><p>What type of rock is this?</p>","0","class_response","0","test","22","Andesite","Peridotite","07","false","1","7","",""
"","","","","","","","","","","","html-keyboard-response","50","2.0.0","127953","66ef212cf79668f34be612d8","2","22","null","","","","","","","","","<p style='font-size: 30px;'><strong>Okay</strong></p>","null","neutral_feedback","0","test","22","","","","","","","",""
"","","","","","","","","","","","html-button-response","51","2.0.0","129561","66ef212cf79668f34be612d8","2","22","1606","","","","","","","","","<img src= ""rock_img/I_Peridotite_16.jpg"" style=""width:8cm; height:6.989999999999999cm;""><p>What type of rock is this?</p>","2","class_response","0","test","23","Diorite","Peridotite","16","false","3","7","",""
"","","","","","","","","","","","html-keyboard-response","52","2.0.0","130071","66ef212cf79668f34be612d8","2","22","null","","","","","","","","","<p style='font-size: 30px;'><strong>Okay</strong></p>","null","neutral_feedback","0","test","23","","","","","","","",""
"","","","","","","","","","","","html-button-response","53","2.0.0","131684","66ef212cf79668f34be612d8","2","22","1613","","","","","","","","","<img src= ""rock_img/I_Diorite_16.jpg"" style=""width:8cm; height:6.74cm;""><p>What type of rock is this?</p>","1","class_response","0","test","24","Basalt","Diorite","16","false","2","3","",""
"","","","","","","","","","","","html-keyboard-response","54","2.0.0","132188","66ef212cf79668f34be612d8","2","22","null","","","","","","","","","<p style='font-size: 30px;'><strong>Okay</strong></p>","null","neutral_feedback","0","test","24","","","","","","","",""
"","","","","","","","","","","","html-button-response","55","2.0.0","133022","66ef212cf79668f34be612d8","2","22","834","","","","","","","","","<img src= ""rock_img/I_Diorite_08.jpg"" style=""width:8cm; height:6.37cm;""><p>What type of rock is this?</p>","1","class_response","0","test","25","Basalt","Diorite","08","false","2","3","",""
"","","","","","","","","","","","html-keyboard-response","56","2.0.0","133531","66ef212cf79668f34be612d8","2","22","null","","","","","","","","","<p style='font-size: 30px;'><strong>Okay</strong></p>","null","neutral_feedback","0","test","25","","","","","","","",""
"","","","","","","","","","","","html-button-response","57","2.0.0","134610","66ef212cf79668f34be612d8","2","22","1078","","","","","","","","","<img src= ""rock_img/I_Pumice_15.jpg"" style=""width:8cm; height:7.86cm;""><p>What type of rock is this?</p>","7","class_response","0","test","26","Pumice","Pumice","15","true","8","8","",""
"","","","","","","","","","","","html-keyboard-response","58","2.0.0","135122","66ef212cf79668f34be612d8","2","22","null","","","","","","","","","<p style='font-size: 30px;'><strong>Okay</strong></p>","null","neutral_feedback","0","test","26","","","","","","","",""
"","","","","","","","","","","","html-button-response","59","2.0.0","136175","66ef212cf79668f34be612d8","2","22","1053","","","","","","","","","<img src= ""rock_img/I_Obsidian_14.jpg"" style=""width:8cm; height:7.64cm;""><p>What type of rock is this?</p>","4","class_response","0","test","27","Obsidian","Obsidian","14","true","5","5","",""
"","","","","","","","","","","","html-keyboard-response","60","2.0.0","136687","66ef212cf79668f34be612d8","2","22","null","","","","","","","","","<p style='font-size: 30px;'><strong>Okay</strong></p>","null","neutral_feedback","0","test","27","","","","","","","",""
"","","","","","","","","","","","html-button-response","61","2.0.0","138818","66ef212cf79668f34be612d8","2","22","2128","","","","","","","","","<img src= ""rock_img/I_Basalt_16.jpg"" style=""width:8cm; height:7.659999999999999cm;""><p>What type of rock is this?</p>","6","class_response","0","test","28","Peridotite","Basalt","16","false","7","2","",""
"","","","","","","","","","","","html-keyboard-response","62","2.0.0","139326","66ef212cf79668f34be612d8","2","22","null","","","","","","","","","<p style='font-size: 30px;'><strong>Okay</strong></p>","null","neutral_feedback","0","test","28","","","","","","","",""
"","","","","","","","","","","","html-button-response","63","2.0.0","140744","66ef212cf79668f34be612d8","2","22","1417","","","","","","","","","<img src= ""rock_img/I_Gabbro_11.jpg"" style=""width:8cm; height:6.2cm;""><p>What type of rock is this?</p>","5","class_response","0","test","29","Pegmatite","Gabbro","11","false","6","4","",""
"","","","","","","","","","","","html-keyboard-response","64","2.0.0","141247","66ef212cf79668f34be612d8","2","22","null","","","","","","","","","<p style='font-size: 30px;'><strong>Okay</strong></p>","null","neutral_feedback","0","test","29","","","","","","","",""
"","","","","","","","","","","","html-button-response","65","2.0.0","143821","66ef212cf79668f34be612d8","2","22","2573","","","","","","","","","<img src= ""rock_img/I_Gabbro_03.jpg"" style=""width:8cm; height:8.52cm;""><p>What type of rock is this?</p>","3","class_response","0","test","30","Gabbro","Gabbro","03","true","4","4","",""
"","","","","","","","","","","","html-keyboard-response","66","2.0.0","144329","66ef212cf79668f34be612d8","2","22","null","","","","","","","","","<p style='font-size: 30px;'><strong>Okay</strong></p>","null","neutral_feedback","0","test","30","","","","","","","",""
"","","","","","","","","","","","html-button-response","67","2.0.0","146026","66ef212cf79668f34be612d8","2","22","1696","","","","","","","","","<img src= ""rock_img/I_Pumice_05.jpg"" style=""width:8cm; height:7.25cm;""><p>What type of rock is this?</p>","7","class_response","0","test","31","Pumice","Pumice","05","true","8","8","",""
"","","","","","","","","","","","html-keyboard-response","68","2.0.0","146531","66ef212cf79668f34be612d8","2","22","null","","","","","","","","","<p style='font-size: 30px;'><strong>Okay</strong></p>","null","neutral_feedback","0","test","31","","","","","","","",""
"","","","","","","","","","","","html-button-response","69","2.0.0","148919","66ef212cf79668f34be612d8","2","22","2388","","","","","","","","","<img src= ""rock_img/I_Andesite_14.jpg"" style=""width:8cm; height:5.449999999999999cm;""><p>What type of rock is this?</p>","4","class_response","0","test","32","Obsidian","Andesite","14","false","5","1","",""
"","","","","","","","","","","","html-keyboard-response","70","2.0.0","149421","66ef212cf79668f34be612d8","2","22","null","","","","","","","","","<p style='font-size: 30px;'><strong>Okay</strong></p>","null","neutral_feedback","0","test","32","","","","","","","",""
"","","","","","","","","","","","html-button-response","71","2.0.0","151095","66ef212cf79668f34be612d8","2","22","1673","","","","","","","","","<img src= ""rock_img/I_Gabbro_15.jpg"" style=""width:8cm; height:6.29cm;""><p>What type of rock is this?</p>","4","class_response","0","test","33","Obsidian","Gabbro","15","false","5","4","",""
"","","","","","","","","","","","html-keyboard-response","72","2.0.0","151598","66ef212cf79668f34be612d8","2","22","null","","","","","","","","","<p style='font-size: 30px;'><strong>Okay</strong></p>","null","neutral_feedback","0","test","33","","","","","","","",""
"","","","","","","","","","","","html-button-response","73","2.0.0","152474","66ef212cf79668f34be612d8","2","22","875","","","","","","","","","<img src= ""rock_img/I_Obsidian_02.jpg"" style=""width:8cm; height:7.51cm;""><p>What type of rock is this?</p>","4","class_response","0","test","34","Obsidian","Obsidian","02","true","5","5","",""
"","","","","","","","","","","","html-keyboard-response","74","2.0.0","152984","66ef212cf79668f34be612d8","2","22","null","","","","","","","","","<p style='font-size: 30px;'><strong>Okay</strong></p>","null","neutral_feedback","0","test","34","","","","","","","",""
"","","","","","","","","","","","html-button-response","75","2.0.0","154363","66ef212cf79668f34be612d8","2","22","1378","","","","","","","","","<img src= ""rock_img/I_Basalt_08.jpg"" style=""width:8cm; height:10.44cm;""><p>What type of rock is this?</p>","6","class_response","0","test","35","Peridotite","Basalt","08","false","7","2","",""
"","","","","","","","","","","","html-keyboard-response","76","2.0.0","154864","66ef212cf79668f34be612d8","2","22","null","","","","","","","","","<p style='font-size: 30px;'><strong>Okay</strong></p>","null","neutral_feedback","0","test","35","","","","","","","",""
"","","","","","","","","","","","html-button-response","77","2.0.0","156098","66ef212cf79668f34be612d8","2","22","1233","","","","","","","","","<img src= ""rock_img/I_Andesite_16.jpg"" style=""width:8cm; height:6.010000000000001cm;""><p>What type of rock is this?</p>","1","class_response","0","test","36","Basalt","Andesite","16","false","2","1","",""
"","","","","","","","","","","","html-keyboard-response","78","2.0.0","156608","66ef212cf79668f34be612d8","2","22","null","","","","","","","","","<p style='font-size: 30px;'><strong>Okay</strong></p>","null","neutral_feedback","0","test","36","","","","","","","",""
"","","","","","","","","","","","html-button-response","79","2.0.0","157548","66ef212cf79668f34be612d8","2","22","939","","","","","","","","","<img src= ""rock_img/I_Obsidian_11.jpg"" style=""width:8cm; height:6.05cm;""><p>What type of rock is this?</p>","4","class_response","0","test","37","Obsidian","Obsidian","11","true","5","5","",""
"","","","","","","","","","","","html-keyboard-response","80","2.0.0","158057","66ef212cf79668f34be612d8","2","22","null","","","","","","","","","<p style='font-size: 30px;'><strong>Okay</strong></p>","null","neutral_feedback","0","test","37","","","","","","","",""
"","","","","","","","","","","","html-button-response","81","2.0.0","159369","66ef212cf79668f34be612d8","2","22","1311","","","","","","","","","<img src= ""rock_img/I_Andesite_04.jpg"" style=""width:8cm; height:5.96cm;""><p>What type of rock is this?</p>","0","class_response","0","test","38","Andesite","Andesite","04","true","1","1","",""
"","","","","","","","","","","","html-keyboard-response","82","2.0.0","159878","66ef212cf79668f34be612d8","2","22","null","","","","","","","","","<p style='font-size: 30px;'><strong>Okay</strong></p>","null","neutral_feedback","0","test","38","","","","","","","",""
"","","","","","","","","","","","html-button-response","83","2.0.0","161336","66ef212cf79668f34be612d8","2","22","1457","","","","","","","","","<img src= ""rock_img/I_Peridotite_13.jpg"" style=""width:8cm; height:7.58cm;""><p>What type of rock is this?</p>","5","class_response","0","test","39","Pegmatite","Peridotite","13","false","6","7","",""
"","","","","","","","","","","","html-keyboard-response","84","2.0.0","161847","66ef212cf79668f34be612d8","2","22","null","","","","","","","","","<p style='font-size: 30px;'><strong>Okay</strong></p>","null","neutral_feedback","0","test","39","","","","","","","",""
"","","","","","","","","","","","html-button-response","85","2.0.0","163568","66ef212cf79668f34be612d8","2","22","1719","","","","","","","","","<img src= ""rock_img/I_Gabbro_09.jpg"" style=""width:8cm; height:7.279999999999999cm;""><p>What type of rock is this?</p>","3","class_response","0","test","40","Gabbro","Gabbro","09","true","4","4","",""
"","","","","","","","","","","","html-keyboard-response","86","2.0.0","164076","66ef212cf79668f34be612d8","2","22","null","","","","","","","","","<p style='font-size: 30px;'><strong>Okay</strong></p>","null","neutral_feedback","0","test","40","","","","","","","",""
"","","","","","","","","","","","html-button-response","87","2.0.0","164892","66ef212cf79668f34be612d8","2","22","815","","","","","","","","","<img src= ""rock_img/I_Pumice_04.jpg"" style=""width:8cm; height:6.819999999999999cm;""><p>What type of rock is this?</p>","7","class_response","0","test","41","Pumice","Pumice","04","true","8","8","",""
"","","","","","","","","","","","html-keyboard-response","88","2.0.0","165399","66ef212cf79668f34be612d8","2","22","null","","","","","","","","","<p style='font-size: 30px;'><strong>Okay</strong></p>","null","neutral_feedback","0","test","41","","","","","","","",""
"","","","","","","","","","","","html-button-response","89","2.0.0","166909","66ef212cf79668f34be612d8","2","22","1509","","","","","","","","","<img src= ""rock_img/I_Basalt_10.jpg"" style=""width:8cm; height:5.85cm;""><p>What type of rock is this?</p>","6","class_response","0","test","42","Peridotite","Basalt","10","false","7","2","",""
"","","","","","","","","","","","html-keyboard-response","90","2.0.0","167412","66ef212cf79668f34be612d8","2","22","null","","","","","","","","","<p style='font-size: 30px;'><strong>Okay</strong></p>","null","neutral_feedback","0","test","42","","","","","","","",""
"","","","","","","","","","","","html-button-response","91","2.0.0","168479","66ef212cf79668f34be612d8","2","22","1065","","","","","","","","","<img src= ""rock_img/I_Pumice_08.jpg"" style=""width:8cm; height:6.67cm;""><p>What type of rock is this?</p>","7","class_response","0","test","43","Pumice","Pumice","08","true","8","8","",""
"","","","","","","","","","","","html-keyboard-response","92","2.0.0","168990","66ef212cf79668f34be612d8","2","22","null","","","","","","","","","<p style='font-size: 30px;'><strong>Okay</strong></p>","null","neutral_feedback","0","test","43","","","","","","","",""
"","","","","","","","","","","","html-button-response","93","2.0.0","170196","66ef212cf79668f34be612d8","2","22","1205","","","","","","","","","<img src= ""rock_img/I_Andesite_02.jpg"" style=""width:8cm; height:8.5cm;""><p>What type of rock is this?</p>","1","class_response","0","test","44","Basalt","Andesite","02","false","2","1","",""
"","","","","","","","","","","","html-keyboard-response","94","2.0.0","170708","66ef212cf79668f34be612d8","2","22","null","","","","","","","","","<p style='font-size: 30px;'><strong>Okay</strong></p>","null","neutral_feedback","0","test","44","","","","","","","",""
"","","","","","","","","","","","html-button-response","95","2.0.0","171482","66ef212cf79668f34be612d8","2","22","772","","","","","","","","","<img src= ""rock_img/I_Andesite_03.jpg"" style=""width:8cm; height:5.73cm;""><p>What type of rock is this?</p>","5","class_response","0","test","45","Pegmatite","Andesite","03","false","6","1","",""
"","","","","","","","","","","","html-keyboard-response","96","2.0.0","171987","66ef212cf79668f34be612d8","2","22","null","","","","","","","","","<p style='font-size: 30px;'><strong>Okay</strong></p>","null","neutral_feedback","0","test","45","","","","","","","",""
"","","","","","","","","","","","html-button-response","97","2.0.0","173108","66ef212cf79668f34be612d8","2","22","1120","","","","","","","","","<img src= ""rock_img/I_Diorite_14.jpg"" style=""width:8cm; height:5.71cm;""><p>What type of rock is this?</p>","2","class_response","0","test","46","Diorite","Diorite","14","true","3","3","",""
"","","","","","","","","","","","html-keyboard-response","98","2.0.0","173617","66ef212cf79668f34be612d8","2","22","null","","","","","","","","","<p style='font-size: 30px;'><strong>Okay</strong></p>","null","neutral_feedback","0","test","46","","","","","","","",""
"","","","","","","","","","","","html-button-response","99","2.0.0","174714","66ef212cf79668f34be612d8","2","22","1096","","","","","","","","","<img src= ""rock_img/I_Obsidian_12.jpg"" style=""width:8cm; height:6.53cm;""><p>What type of rock is this?</p>","4","class_response","0","test","47","Obsidian","Obsidian","12","true","5","5","",""
"","","","","","","","","","","","html-keyboard-response","100","2.0.0","175221","66ef212cf79668f34be612d8","2","22","null","","","","","","","","","<p style='font-size: 30px;'><strong>Okay</strong></p>","null","neutral_feedback","0","test","47","","","","","","","",""
"","","","","","","","","","","","html-button-response","101","2.0.0","176380","66ef212cf79668f34be612d8","2","22","1158","","","","","","","","","<img src= ""rock_img/I_Pumice_09.jpg"" style=""width:8cm; height:6.44cm;""><p>What type of rock is this?</p>","7","class_response","0","test","48","Pumice","Pumice","09","true","8","8","",""
"","","","","","","","","","","","html-keyboard-response","102","2.0.0","176887","66ef212cf79668f34be612d8","2","22","null","","","","","","","","","<p style='font-size: 30px;'><strong>Okay</strong></p>","null","neutral_feedback","0","test","48","","","","","","","",""
"","","","","","","","","","","","instructions","103","2.0.0","192782","66ef212cf79668f34be612d8","2","22","15879","","","","","","","","[{""page_index"":0,""viewing_time"":10687},{""page_index"":1,""viewing_time"":3193},{""page_index"":2,""viewing_time"":2000}]","","","","","","","","","","","","","",""
"","","","","","","","","","","","html-button-response","104","2.0.0","197116","66ef212cf79668f34be612d8","2","22","4333","","","","","","","","","","0","start_train","","","","","","","","","","",""
"","","","","","","","","","","","html-button-response","105","2.0.0","200098","66ef212cf79668f34be612d8","2","22","2981","","","","","","","","","<img src= ""rock_img/I_Andesite_11.jpg"" style=""width:8cm; height:4.92cm;""><p>What type of rock is this?</p>","3","class_response","1","train","1","Gabbro","Andesite","11","false","4","1","",""
"","","","","","","","","","","","html-button-response","106","2.0.0","202750","66ef212cf79668f34be612d8","2","22","2651","","","","","","","","","<img src= rock_img/I_Andesite_11.jpg style=""width:8cm; height:4.92cm;""><p style='font-size: 30px; color: red;'><strong>Incorrect!</strong></p><p style='font-size: 30px;'><strong>This rock is andesite</strong></p>","0","corr_feedback","1","train","1","","","","","","","",""
"","","","","","","","","","","","html-button-response","107","2.0.0","204933","66ef212cf79668f34be612d8","2","22","2182","","","","","","","","","<img src= ""rock_img/I_Andesite_07.jpg"" style=""width:8cm; height:5.93cm;""><p>What type of rock is this?</p>","2","class_response","1","train","2","Diorite","Andesite","07","false","3","1","",""
"","","","","","","","","","","","html-button-response","108","2.0.0","207050","66ef212cf79668f34be612d8","2","22","2116","","","","","","","","","<img src= rock_img/I_Andesite_07.jpg style=""width:8cm; height:5.93cm;""><p style='font-size: 30px; color: red;'><strong>Incorrect!</strong></p><p style='font-size: 30px;'><strong>This rock is andesite</strong></p>","0","corr_feedback","1","train","2","","","","","","","",""
"","","","","","","","","","","","html-button-response","109","2.0.0","209790","66ef212cf79668f34be612d8","2","22","2739","","","","","","","","","<img src= ""rock_img/I_Diorite_06.jpg"" style=""width:8cm; height:6.03cm;""><p>What type of rock is this?</p>","2","class_response","1","train","3","Diorite","Diorite","06","true","3","3","",""
"","","","","","","","","","","","html-button-response","110","2.0.0","211396","66ef212cf79668f34be612d8","2","22","1605","","","","","","","","","<img src= rock_img/I_Diorite_06.jpg style=""width:8cm; height:6.03cm;""><p style='font-size: 30px; color: green;'><strong>Correct!</strong></p><p style='font-size: 30px;'><strong>This rock is diorite</strong></p>","0","corr_feedback","1","train","3","","","","","","","",""
"","","","","","","","","","","","html-button-response","111","2.0.0","212916","66ef212cf79668f34be612d8","2","22","1519","","","","","","","","","<img src= ""rock_img/I_Peridotite_10.jpg"" style=""width:8cm; height:5.390000000000001cm;""><p>What type of rock is this?</p>","1","class_response","1","train","4","Basalt","Peridotite","10","false","2","7","",""
"","","","","","","","","","","","html-button-response","112","2.0.0","214482","66ef212cf79668f34be612d8","2","22","1565","","","","","","","","","<img src= rock_img/I_Peridotite_10.jpg style=""width:8cm; height:5.390000000000001cm;""><p style='font-size: 30px; color: red;'><strong>Incorrect!</strong></p><p style='font-size: 30px;'><strong>This rock is peridotite</strong></p>","0","corr_feedback","1","train","4","","","","","","","",""
"","","","","","","","","","","","html-button-response","113","2.0.0","216025","66ef212cf79668f34be612d8","2","22","1542","","","","","","","","","<img src= ""rock_img/I_Pegmatite_09.jpg"" style=""width:8cm; height:4.03cm;""><p>What type of rock is this?</p>","5","class_response","1","train","5","Pegmatite","Pegmatite","09","true","6","6","",""
"","","","","","","","","","","","html-button-response","114","2.0.0","217086","66ef212cf79668f34be612d8","2","22","1060","","","","","","","","","<img src= rock_img/I_Pegmatite_09.jpg style=""width:8cm; height:4.03cm;""><p style='font-size: 30px; color: green;'><strong>Correct!</strong></p><p style='font-size: 30px;'><strong>This rock is pegmatite</strong></p>","0","corr_feedback","1","train","5","","","","","","","",""
"","","","","","","","","","","","html-button-response","115","2.0.0","219102","66ef212cf79668f34be612d8","2","22","2015","","","","","","","","","<img src= ""rock_img/I_Gabbro_12.jpg"" style=""width:8cm; height:7.800000000000001cm;""><p>What type of rock is this?</p>","6","class_response","1","train","6","Peridotite","Gabbro","12","false","7","4","",""
"","","","","","","","","","","","html-button-response","116","2.0.0","220166","66ef212cf79668f34be612d8","2","22","1063","","","","","","","","","<img src= rock_img/I_Gabbro_12.jpg style=""width:8cm; height:7.800000000000001cm;""><p style='font-size: 30px; color: red;'><strong>Incorrect!</strong></p><p style='font-size: 30px;'><strong>This rock is gabbro</strong></p>","0","corr_feedback","1","train","6","","","","","","","",""
"","","","","","","","","","","","html-button-response","117","2.0.0","221365","66ef212cf79668f34be612d8","2","22","1198","","","","","","","","","<img src= ""rock_img/I_Gabbro_01.jpg"" style=""width:8cm; height:5.21cm;""><p>What type of rock is this?</p>","3","class_response","1","train","7","Gabbro","Gabbro","01","true","4","4","",""
"","","","","","","","","","","","html-button-response","118","2.0.0","222221","66ef212cf79668f34be612d8","2","22","855","","","","","","","","","<img src= rock_img/I_Gabbro_01.jpg style=""width:8cm; height:5.21cm;""><p style='font-size: 30px; color: green;'><strong>Correct!</strong></p><p style='font-size: 30px;'><strong>This rock is gabbro</strong></p>","0","corr_feedback","1","train","7","","","","","","","",""
"","","","","","","","","","","","html-button-response","119","2.0.0","223853","66ef212cf79668f34be612d8","2","22","1631","","","","","","","","","<img src= ""rock_img/I_Andesite_09.jpg"" style=""width:8cm; height:6cm;""><p>What type of rock is this?</p>","3","class_response","1","train","8","Gabbro","Andesite","09","false","4","1","",""
"","","","","","","","","","","","html-button-response","120","2.0.0","224868","66ef212cf79668f34be612d8","2","22","1014","","","","","","","","","<img src= rock_img/I_Andesite_09.jpg style=""width:8cm; height:6cm;""><p style='font-size: 30px; color: red;'><strong>Incorrect!</strong></p><p style='font-size: 30px;'><strong>This rock is andesite</strong></p>","0","corr_feedback","1","train","8","","","","","","","",""
"","","","","","","","","","","","html-button-response","121","2.0.0","226588","66ef212cf79668f34be612d8","2","22","1719","","","","","","","","","<img src= ""rock_img/I_Peridotite_04.jpg"" style=""width:8cm; height:6.680000000000001cm;""><p>What type of rock is this?</p>","0","class_response","1","train","9","Andesite","Peridotite","04","false","1","7","",""
"","","","","","","","","","","","html-button-response","122","2.0.0","227590","66ef212cf79668f34be612d8","2","22","1001","","","","","","","","","<img src= rock_img/I_Peridotite_04.jpg style=""width:8cm; height:6.680000000000001cm;""><p style='font-size: 30px; color: red;'><strong>Incorrect!</strong></p><p style='font-size: 30px;'><strong>This rock is peridotite</strong></p>","0","corr_feedback","1","train","9","","","","","","","",""
"","","","","","","","","","","","html-button-response","123","2.0.0","229447","66ef212cf79668f34be612d8","2","22","1856","","","","","","","","","<img src= ""rock_img/I_Peridotite_06.jpg"" style=""width:8cm; height:7.53cm;""><p>What type of rock is this?</p>","5","class_response","1","train","10","Pegmatite","Peridotite","06","false","6","7","",""
"","","","","","","","","","","","html-button-response","124","2.0.0","230050","66ef212cf79668f34be612d8","2","22","602","","","","","","","","","<img src= rock_img/I_Peridotite_06.jpg style=""width:8cm; height:7.53cm;""><p style='font-size: 30px; color: red;'><strong>Incorrect!</strong></p><p style='font-size: 30px;'><strong>This rock is peridotite</strong></p>","0","corr_feedback","1","train","10","","","","","","","",""
"","","","","","","","","","","","html-button-response","125","2.0.0","232855","66ef212cf79668f34be612d8","2","22","2804","","","","","","","","","<img src= ""rock_img/I_Gabbro_10.jpg"" style=""width:8cm; height:5.680000000000001cm;""><p>What type of rock is this?</p>","7","class_response","1","train","11","Pumice","Gabbro","10","false","8","4","",""
"","","","","","","","","","","","html-button-response","126","2.0.0","233780","66ef212cf79668f34be612d8","2","22","925","","","","","","","","","<img src= rock_img/I_Gabbro_10.jpg style=""width:8cm; height:5.680000000000001cm;""><p style='font-size: 30px; color: red;'><strong>Incorrect!</strong></p><p style='font-size: 30px;'><strong>This rock is gabbro</strong></p>","0","corr_feedback","1","train","11","","","","","","","",""
"","","","","","","","","","","","html-button-response","127","2.0.0","235021","66ef212cf79668f34be612d8","2","22","1240","","","","","","","","","<img src= ""rock_img/I_Diorite_07.jpg"" style=""width:8cm; height:5.239999999999999cm;""><p>What type of rock is this?</p>","2","class_response","1","train","12","Diorite","Diorite","07","true","3","3","",""
"","","","","","","","","","","","html-button-response","128","2.0.0","235992","66ef212cf79668f34be612d8","2","22","970","","","","","","","","","<img src= rock_img/I_Diorite_07.jpg style=""width:8cm; height:5.239999999999999cm;""><p style='font-size: 30px; color: green;'><strong>Correct!</strong></p><p style='font-size: 30px;'><strong>This rock is diorite</strong></p>","0","corr_feedback","1","train","12","","","","","","","",""
"","","","","","","","","","","","html-button-response","129","2.0.0","237771","66ef212cf79668f34be612d8","2","22","1779","","","","","","","","","<img src= ""rock_img/I_Basalt_14.jpg"" style=""width:8cm; height:5.82cm;""><p>What type of rock is this?</p>","7","class_response","1","train","13","Pumice","Basalt","14","false","8","2","",""
"","","","","","","","","","","","html-button-response","130","2.0.0","238632","66ef212cf79668f34be612d8","2","22","860","","","","","","","","","<img src= rock_img/I_Basalt_14.jpg style=""width:8cm; height:5.82cm;""><p style='font-size: 30px; color: red;'><strong>Incorrect!</strong></p><p style='font-size: 30px;'><strong>This rock is basalt</strong></p>","0","corr_feedback","1","train","13","","","","","","","",""
"","","","","","","","","","","","html-button-response","131","2.0.0","240048","66ef212cf79668f34be612d8","2","22","1416","","","","","","","","","<img src= ""rock_img/I_Andesite_10.jpg"" style=""width:8cm; height:4.16cm;""><p>What type of rock is this?</p>","7","class_response","1","train","14","Pumice","Andesite","10","false","8","1","",""
"","","","","","","","","","","","html-button-response","132","2.0.0","240725","66ef212cf79668f34be612d8","2","22","676","","","","","","","","","<img src= rock_img/I_Andesite_10.jpg style=""width:8cm; height:4.16cm;""><p style='font-size: 30px; color: red;'><strong>Incorrect!</strong></p><p style='font-size: 30px;'><strong>This rock is andesite</strong></p>","0","corr_feedback","1","train","14","","","","","","","",""
"","","","","","","","","","","","html-button-response","133","2.0.0","243763","66ef212cf79668f34be612d8","2","22","3037","","","","","","","","","<img src= ""rock_img/I_Andesite_05.jpg"" style=""width:8cm; height:4.12cm;""><p>What type of rock is this?</p>","3","class_response","1","train","15","Gabbro","Andesite","05","false","4","1","",""
"","","","","","","","","","","","html-button-response","134","2.0.0","244552","66ef212cf79668f34be612d8","2","22","788","","","","","","","","","<img src= rock_img/I_Andesite_05.jpg style=""width:8cm; height:4.12cm;""><p style='font-size: 30px; color: red;'><strong>Incorrect!</strong></p><p style='font-size: 30px;'><strong>This rock is andesite</strong></p>","0","corr_feedback","1","train","15","","","","","","","",""
"","","","","","","","","","","","html-button-response","135","2.0.0","245986","66ef212cf79668f34be612d8","2","22","1433","","","","","","","","","<img src= ""rock_img/I_Basalt_12.jpg"" style=""width:8cm; height:6.010000000000001cm;""><p>What type of rock is this?</p>","7","class_response","1","train","16","Pumice","Basalt","12","false","8","2","",""
"","","","","","","","","","","","html-button-response","136","2.0.0","246749","66ef212cf79668f34be612d8","2","22","763","","","","","","","","","<img src= rock_img/I_Basalt_12.jpg style=""width:8cm; height:6.010000000000001cm;""><p style='font-size: 30px; color: red;'><strong>Incorrect!</strong></p><p style='font-size: 30px;'><strong>This rock is basalt</strong></p>","0","corr_feedback","1","train","16","","","","","","","",""
"","","","","","","","","","","","html-button-response","137","2.0.0","249014","66ef212cf79668f34be612d8","2","22","2263","","","","","","","","","<img src= ""rock_img/I_Gabbro_14.jpg"" style=""width:8cm; height:8.48cm;""><p>What type of rock is this?</p>","0","class_response","1","train","17","Andesite","Gabbro","14","false","1","4","",""
"","","","","","","","","","","","html-button-response","138","2.0.0","249869","66ef212cf79668f34be612d8","2","22","855","","","","","","","","","<img src= rock_img/I_Gabbro_14.jpg style=""width:8cm; height:8.48cm;""><p style='font-size: 30px; color: red;'><strong>Incorrect!</strong></p><p style='font-size: 30px;'><strong>This rock is gabbro</strong></p>","0","corr_feedback","1","train","17","","","","","","","",""
"","","","","","","","","","","","html-button-response","139","2.0.0","251226","66ef212cf79668f34be612d8","2","22","1356","","","","","","","","","<img src= ""rock_img/I_Pegmatite_07.jpg"" style=""width:8cm; height:6.7cm;""><p>What type of rock is this?</p>","6","class_response","1","train","18","Peridotite","Pegmatite","07","false","7","6","",""
"","","","","","","","","","","","html-button-response","140","2.0.0","252209","66ef212cf79668f34be612d8","2","22","982","","","","","","","","","<img src= rock_img/I_Pegmatite_07.jpg style=""width:8cm; height:6.7cm;""><p style='font-size: 30px; color: red;'><strong>Incorrect!</strong></p><p style='font-size: 30px;'><strong>This rock is pegmatite</strong></p>","0","corr_feedback","1","train","18","","","","","","","",""
"","","","","","","","","","","","html-button-response","141","2.0.0","255825","66ef212cf79668f34be612d8","2","22","3614","","","","","","","","","<img src= ""rock_img/I_Basalt_01.jpg"" style=""width:8cm; height:7.880000000000001cm;""><p>What type of rock is this?</p>","5","class_response","1","train","19","Pegmatite","Basalt","01","false","6","2","",""
"","","","","","","","","","","","html-button-response","142","2.0.0","256622","66ef212cf79668f34be612d8","2","22","796","","","","","","","","","<img src= rock_img/I_Basalt_01.jpg style=""width:8cm; height:7.880000000000001cm;""><p style='font-size: 30px; color: red;'><strong>Incorrect!</strong></p><p style='font-size: 30px;'><strong>This rock is basalt</strong></p>","0","corr_feedback","1","train","19","","","","","","","",""
"","","","","","","","","","","","html-button-response","143","2.0.0","258749","66ef212cf79668f34be612d8","2","22","2126","","","","","","","","","<img src= ""rock_img/I_Pegmatite_15.jpg"" style=""width:8cm; height:6cm;""><p>What type of rock is this?</p>","0","class_response","1","train","20","Andesite","Pegmatite","15","false","1","6","",""
"","","","","","","","","","","","html-button-response","144","2.0.0","259787","66ef212cf79668f34be612d8","2","22","1037","","","","","","","","","<img src= rock_img/I_Pegmatite_15.jpg style=""width:8cm; height:6cm;""><p style='font-size: 30px; color: red;'><strong>Incorrect!</strong></p><p style='font-size: 30px;'><strong>This rock is pegmatite</strong></p>","0","corr_feedback","1","train","20","","","","","","","",""
"","","","","","","","","","","","html-button-response","145","2.0.0","261699","66ef212cf79668f34be612d8","2","22","1912","","","","","","","","","<img src= ""rock_img/I_Peridotite_05.jpg"" style=""width:8cm; height:7.1499999999999995cm;""><p>What type of rock is this?</p>","6","class_response","1","train","21","Peridotite","Peridotite","05","true","7","7","",""
"","","","","","","","","","","","html-button-response","146","2.0.0","262473","66ef212cf79668f34be612d8","2","22","773","","","","","","","","","<img src= rock_img/I_Peridotite_05.jpg style=""width:8cm; height:7.1499999999999995cm;""><p style='font-size: 30px; color: green;'><strong>Correct!</strong></p><p style='font-size: 30px;'><strong>This rock is peridotite</strong></p>","0","corr_feedback","1","train","21","","","","","","","",""
"","","","","","","","","","","","html-button-response","147","2.0.0","264027","66ef212cf79668f34be612d8","2","22","1553","","","","","","","","","<img src= ""rock_img/I_Peridotite_15.jpg"" style=""width:8cm; height:6cm;""><p>What type of rock is this?</p>","5","class_response","1","train","22","Pegmatite","Peridotite","15","false","6","7","",""
"","","","","","","","","","","","html-button-response","148","2.0.0","265058","66ef212cf79668f34be612d8","2","22","1030","","","","","","","","","<img src= rock_img/I_Peridotite_15.jpg style=""width:8cm; height:6cm;""><p style='font-size: 30px; color: red;'><strong>Incorrect!</strong></p><p style='font-size: 30px;'><strong>This rock is peridotite</strong></p>","0","corr_feedback","1","train","22","","","","","","","",""
"","","","","","","","","","","","html-button-response","149","2.0.0","268250","66ef212cf79668f34be612d8","2","22","3191","","","","","","","","","<img src= ""rock_img/I_Basalt_12.jpg"" style=""width:8cm; height:6.010000000000001cm;""><p>What type of rock is this?</p>","7","class_response","1","train","23","Pumice","Basalt","12","false","8","2","",""
"","","","","","","","","","","","html-button-response","150","2.0.0","269038","66ef212cf79668f34be612d8","2","22","787","","","","","","","","","<img src= rock_img/I_Basalt_12.jpg style=""width:8cm; height:6.010000000000001cm;""><p style='font-size: 30px; color: red;'><strong>Incorrect!</strong></p><p style='font-size: 30px;'><strong>This rock is basalt</strong></p>","0","corr_feedback","1","train","23","","","","","","","",""
"","","","","","","","","","","","html-button-response","151","2.0.0","271493","66ef212cf79668f34be612d8","2","22","2454","","","","","","","","","<img src= ""rock_img/I_Peridotite_14.jpg"" style=""width:8cm; height:5.3cm;""><p>What type of rock is this?</p>","1","class_response","1","train","24","Basalt","Peridotite","14","false","2","7","",""
"","","","","","","","","","","","html-button-response","152","2.0.0","272245","66ef212cf79668f34be612d8","2","22","752","","","","","","","","","<img src= rock_img/I_Peridotite_14.jpg style=""width:8cm; height:5.3cm;""><p style='font-size: 30px; color: red;'><strong>Incorrect!</strong></p><p style='font-size: 30px;'><strong>This rock is peridotite</strong></p>","0","corr_feedback","1","train","24","","","","","","","",""
"","","","","","","","","","","","html-button-response","153","2.0.0","274553","66ef212cf79668f34be612d8","2","22","2307","","","","","","","","","<img src= ""rock_img/I_Andesite_09.jpg"" style=""width:8cm; height:6cm;""><p>What type of rock is this?</p>","1","class_response","1","train","25","Basalt","Andesite","09","false","2","1","",""
"","","","","","","","","","","","html-button-response","154","2.0.0","275300","66ef212cf79668f34be612d8","2","22","746","","","","","","","","","<img src= rock_img/I_Andesite_09.jpg style=""width:8cm; height:6cm;""><p style='font-size: 30px; color: red;'><strong>Incorrect!</strong></p><p style='font-size: 30px;'><strong>This rock is andesite</strong></p>","0","corr_feedback","1","train","25","","","","","","","",""
"","","","","","","","","","","","html-button-response","155","2.0.0","276851","66ef212cf79668f34be612d8","2","22","1550","","","","","","","","","<img src= ""rock_img/I_Andesite_01.jpg"" style=""width:8cm; height:5.87cm;""><p>What type of rock is this?</p>","2","class_response","1","train","26","Diorite","Andesite","01","false","3","1","",""
"","","","","","","","","","","","html-button-response","156","2.0.0","277842","66ef212cf79668f34be612d8","2","22","990","","","","","","","","","<img src= rock_img/I_Andesite_01.jpg style=""width:8cm; height:5.87cm;""><p style='font-size: 30px; color: red;'><strong>Incorrect!</strong></p><p style='font-size: 30px;'><strong>This rock is andesite</strong></p>","0","corr_feedback","1","train","26","","","","","","","",""
"","","","","","","","","","","","html-button-response","157","2.0.0","279043","66ef212cf79668f34be612d8","2","22","1200","","","","","","","","","<img src= ""rock_img/I_Diorite_13.jpg"" style=""width:8cm; height:6.29cm;""><p>What type of rock is this?</p>","2","class_response","1","train","27","Diorite","Diorite","13","true","3","3","",""
"","","","","","","","","","","","html-button-response","158","2.0.0","279782","66ef212cf79668f34be612d8","2","22","738","","","","","","","","","<img src= rock_img/I_Diorite_13.jpg style=""width:8cm; height:6.29cm;""><p style='font-size: 30px; color: green;'><strong>Correct!</strong></p><p style='font-size: 30px;'><strong>This rock is diorite</strong></p>","0","corr_feedback","1","train","27","","","","","","","",""
"","","","","","","","","","","","html-button-response","159","2.0.0","281312","66ef212cf79668f34be612d8","2","22","1529","","","","","","","","","<img src= ""rock_img/I_Peridotite_10.jpg"" style=""width:8cm; height:5.390000000000001cm;""><p>What type of rock is this?</p>","6","class_response","1","train","28","Peridotite","Peridotite","10","true","7","7","",""
"","","","","","","","","","","","html-button-response","160","2.0.0","281889","66ef212cf79668f34be612d8","2","22","576","","","","","","","","","<img src= rock_img/I_Peridotite_10.jpg style=""width:8cm; height:5.390000000000001cm;""><p style='font-size: 30px; color: green;'><strong>Correct!</strong></p><p style='font-size: 30px;'><strong>This rock is peridotite</strong></p>","0","corr_feedback","1","train","28","","","","","","","",""
"","","","","","","","","","","","html-button-response","161","2.0.0","282930","66ef212cf79668f34be612d8","2","22","1040","","","","","","","","","<img src= ""rock_img/I_Peridotite_04.jpg"" style=""width:8cm; height:6.680000000000001cm;""><p>What type of rock is this?</p>","6","class_response","1","train","29","Peridotite","Peridotite","04","true","7","7","",""
"","","","","","","","","","","","html-button-response","162","2.0.0","283489","66ef212cf79668f34be612d8","2","22","558","","","","","","","","","<img src= rock_img/I_Peridotite_04.jpg style=""width:8cm; height:6.680000000000001cm;""><p style='font-size: 30px; color: green;'><strong>Correct!</strong></p><p style='font-size: 30px;'><strong>This rock is peridotite</strong></p>","0","corr_feedback","1","train","29","","","","","","","",""
"","","","","","","","","","","","html-button-response","163","2.0.0","285143","66ef212cf79668f34be612d8","2","22","1654","","","","","","","","","<img src= ""rock_img/I_Andesite_01.jpg"" style=""width:8cm; height:5.87cm;""><p>What type of rock is this?</p>","3","class_response","1","train","30","Gabbro","Andesite","01","false","4","1","",""
"","","","","","","","","","","","html-button-response","164","2.0.0","285991","66ef212cf79668f34be612d8","2","22","848","","","","","","","","","<img src= rock_img/I_Andesite_01.jpg style=""width:8cm; height:5.87cm;""><p style='font-size: 30px; color: red;'><strong>Incorrect!</strong></p><p style='font-size: 30px;'><strong>This rock is andesite</strong></p>","0","corr_feedback","1","train","30","","","","","","","",""
"","","","","","","","","","","","html-button-response","165","2.0.0","287130","66ef212cf79668f34be612d8","2","22","1138","","","","","","","","","<img src= ""rock_img/I_Diorite_09.jpg"" style=""width:8cm; height:5.27cm;""><p>What type of rock is this?</p>","3","class_response","1","train","31","Gabbro","Diorite","09","false","4","3","",""
"","","","","","","","","","","","html-button-response","166","2.0.0","287826","66ef212cf79668f34be612d8","2","22","695","","","","","","","","","<img src= rock_img/I_Diorite_09.jpg style=""width:8cm; height:5.27cm;""><p style='font-size: 30px; color: red;'><strong>Incorrect!</strong></p><p style='font-size: 30px;'><strong>This rock is diorite</strong></p>","0","corr_feedback","1","train","31","","","","","","","",""
"","","","","","","","","","","","html-button-response","167","2.0.0","289227","66ef212cf79668f34be612d8","2","22","1400","","","","","","","","","<img src= ""rock_img/I_Peridotite_05.jpg"" style=""width:8cm; height:7.1499999999999995cm;""><p>What type of rock is this?</p>","5","class_response","1","train","32","Pegmatite","Peridotite","05","false","6","7","",""
"","","","","","","","","","","","html-button-response","168","2.0.0","289855","66ef212cf79668f34be612d8","2","22","627","","","","","","","","","<img src= rock_img/I_Peridotite_05.jpg style=""width:8cm; height:7.1499999999999995cm;""><p style='font-size: 30px; color: red;'><strong>Incorrect!</strong></p><p style='font-size: 30px;'><strong>This rock is peridotite</strong></p>","0","corr_feedback","1","train","32","","","","","","","",""
"","","","","","","","","","","","html-button-response","169","2.0.0","291356","66ef212cf79668f34be612d8","2","22","1500","","","","","","","","","<img src= ""rock_img/I_Diorite_06.jpg"" style=""width:8cm; height:6.03cm;""><p>What type of rock is this?</p>","2","class_response","1","train","33","Diorite","Diorite","06","true","3","3","",""
"","","","","","","","","","","","html-button-response","170","2.0.0","291975","66ef212cf79668f34be612d8","2","22","618","","","","","","","","","<img src= rock_img/I_Diorite_06.jpg style=""width:8cm; height:6.03cm;""><p style='font-size: 30px; color: green;'><strong>Correct!</strong></p><p style='font-size: 30px;'><strong>This rock is diorite</strong></p>","0","corr_feedback","1","train","33","","","","","","","",""
"","","","","","","","","","","","html-button-response","171","2.0.0","293044","66ef212cf79668f34be612d8","2","22","1068","","","","","","","","","<img src= ""rock_img/I_Pegmatite_12.jpg"" style=""width:8cm; height:5.7cm;""><p>What type of rock is this?</p>","2","class_response","1","train","34","Diorite","Pegmatite","12","false","3","6","",""
"","","","","","","","","","","","html-button-response","172","2.0.0","293964","66ef212cf79668f34be612d8","2","22","920","","","","","","","","","<img src= rock_img/I_Pegmatite_12.jpg style=""width:8cm; height:5.7cm;""><p style='font-size: 30px; color: red;'><strong>Incorrect!</strong></p><p style='font-size: 30px;'><strong>This rock is pegmatite</strong></p>","0","corr_feedback","1","train","34","","","","","","","",""
"","","","","","","","","","","","html-button-response","173","2.0.0","295640","66ef212cf79668f34be612d8","2","22","1675","","","","","","","","","<img src= ""rock_img/I_Pegmatite_09.jpg"" style=""width:8cm; height:4.03cm;""><p>What type of rock is this?</p>","6","class_response","1","train","35","Peridotite","Pegmatite","09","false","7","6","",""
"","","","","","","","","","","","html-button-response","174","2.0.0","296173","66ef212cf79668f34be612d8","2","22","532","","","","","","","","","<img src= rock_img/I_Pegmatite_09.jpg style=""width:8cm; height:4.03cm;""><p style='font-size: 30px; color: red;'><strong>Incorrect!</strong></p><p style='font-size: 30px;'><strong>This rock is pegmatite</strong></p>","0","corr_feedback","1","train","35","","","","","","","",""
"","","","","","","","","","","","html-button-response","175","2.0.0","299106","66ef212cf79668f34be612d8","2","22","2932","","","","","","","","","<img src= ""rock_img/I_Pegmatite_08.jpg"" style=""width:8cm; height:7.68cm;""><p>What type of rock is this?</p>","5","class_response","1","train","36","Pegmatite","Pegmatite","08","true","6","6","",""
"","","","","","","","","","","","html-button-response","176","2.0.0","299699","66ef212cf79668f34be612d8","2","22","592","","","","","","","","","<img src= rock_img/I_Pegmatite_08.jpg style=""width:8cm; height:7.68cm;""><p style='font-size: 30px; color: green;'><strong>Correct!</strong></p><p style='font-size: 30px;'><strong>This rock is pegmatite</strong></p>","0","corr_feedback","1","train","36","","","","","","","",""
"","","","","","","","","","","","html-button-response","177","2.0.0","301383","66ef212cf79668f34be612d8","2","22","1683","","","","","","","","","<img src= ""rock_img/I_Diorite_02.jpg"" style=""width:8cm; height:6.27cm;""><p>What type of rock is this?</p>","2","class_response","1","train","37","Diorite","Diorite","02","true","3","3","",""
"","","","","","","","","","","","html-button-response","178","2.0.0","302117","66ef212cf79668f34be612d8","2","22","734","","","","","","","","","<img src= rock_img/I_Diorite_02.jpg style=""width:8cm; height:6.27cm;""><p style='font-size: 30px; color: green;'><strong>Correct!</strong></p><p style='font-size: 30px;'><strong>This rock is diorite</strong></p>","0","corr_feedback","1","train","37","","","","","","","",""
"","","","","","","","","","","","html-button-response","179","2.0.0","303340","66ef212cf79668f34be612d8","2","22","1222","","","","","","","","","<img src= ""rock_img/I_Pumice_10.jpg"" style=""width:8cm; height:7.609999999999999cm;""><p>What type of rock is this?</p>","7","class_response","1","train","38","Pumice","Pumice","10","true","8","8","",""
"","","","","","","","","","","","html-button-response","180","2.0.0","304147","66ef212cf79668f34be612d8","2","22","806","","","","","","","","","<img src= rock_img/I_Pumice_10.jpg style=""width:8cm; height:7.609999999999999cm;""><p style='font-size: 30px; color: green;'><strong>Correct!</strong></p><p style='font-size: 30px;'><strong>This rock is pumice</strong></p>","0","corr_feedback","1","train","38","","","","","","","",""
"","","","","","","","","","","","html-button-response","181","2.0.0","305510","66ef212cf79668f34be612d8","2","22","1362","","","","","","","","","<img src= ""rock_img/I_Diorite_07.jpg"" style=""width:8cm; height:5.239999999999999cm;""><p>What type of rock is this?</p>","2","class_response","1","train","39","Diorite","Diorite","07","true","3","3","",""
"","","","","","","","","","","","html-button-response","182","2.0.0","306248","66ef212cf79668f34be612d8","2","22","737","","","","","","","","","<img src= rock_img/I_Diorite_07.jpg style=""width:8cm; height:5.239999999999999cm;""><p style='font-size: 30px; color: green;'><strong>Correct!</strong></p><p style='font-size: 30px;'><strong>This rock is diorite</strong></p>","0","corr_feedback","1","train","39","","","","","","","",""
"","","","","","","","","","","","html-button-response","183","2.0.0","307422","66ef212cf79668f34be612d8","2","22","1173","","","","","","","","","<img src= ""rock_img/I_Basalt_11.jpg"" style=""width:8cm; height:5.359999999999999cm;""><p>What type of rock is this?</p>","7","class_response","1","train","40","Pumice","Basalt","11","false","8","2","",""
"","","","","","","","","","","","html-button-response","184","2.0.0","308300","66ef212cf79668f34be612d8","2","22","878","","","","","","","","","<img src= rock_img/I_Basalt_11.jpg style=""width:8cm; height:5.359999999999999cm;""><p style='font-size: 30px; color: red;'><strong>Incorrect!</strong></p><p style='font-size: 30px;'><strong>This rock is basalt</strong></p>","0","corr_feedback","1","train","40","","","","","","","",""
"","","","","","","","","","","","html-button-response","185","2.0.0","310464","66ef212cf79668f34be612d8","2","22","2162","","","","","","","","","<img src= ""rock_img/I_Basalt_09.jpg"" style=""width:8cm; height:6.2cm;""><p>What type of rock is this?</p>","1","class_response","1","train","41","Basalt","Basalt","09","true","2","2","",""
"","","","","","","","","","","","html-button-response","186","2.0.0","311118","66ef212cf79668f34be612d8","2","22","654","","","","","","","","","<img src= rock_img/I_Basalt_09.jpg style=""width:8cm; height:6.2cm;""><p style='font-size: 30px; color: green;'><strong>Correct!</strong></p><p style='font-size: 30px;'><strong>This rock is basalt</strong></p>","0","corr_feedback","1","train","41","","","","","","","",""
"","","","","","","","","","","","html-button-response","187","2.0.0","311850","66ef212cf79668f34be612d8","2","22","731","","","","","","","","","<img src= ""rock_img/I_Gabbro_08.jpg"" style=""width:8cm; height:5.15cm;""><p>What type of rock is this?</p>","1","class_response","1","train","42","Basalt","Gabbro","08","false","2","4","",""
"","","","","","","","","","","","html-button-response","188","2.0.0","312680","66ef212cf79668f34be612d8","2","22","829","","","","","","","","","<img src= rock_img/I_Gabbro_08.jpg style=""width:8cm; height:5.15cm;""><p style='font-size: 30px; color: red;'><strong>Incorrect!</strong></p><p style='font-size: 30px;'><strong>This rock is gabbro</strong></p>","0","corr_feedback","1","train","42","","","","","","","",""
"","","","","","","","","","","","html-button-response","189","2.0.0","315390","66ef212cf79668f34be612d8","2","22","2709","","","","","","","","","<img src= ""rock_img/I_Diorite_10.jpg"" style=""width:8cm; height:5.949999999999999cm;""><p>What type of rock is this?</p>","6","class_response","1","train","43","Peridotite","Diorite","10","false","7","3","",""
"","","","","","","","","","","","html-button-response","190","2.0.0","316032","66ef212cf79668f34be612d8","2","22","642","","","","","","","","","<img src= rock_img/I_Diorite_10.jpg style=""width:8cm; height:5.949999999999999cm;""><p style='font-size: 30px; color: red;'><strong>Incorrect!</strong></p><p style='font-size: 30px;'><strong>This rock is diorite</strong></p>","0","corr_feedback","1","train","43","","","","","","","",""
"","","","","","","","","","","","html-button-response","191","2.0.0","318565","66ef212cf79668f34be612d8","2","22","2531","","","","","","","","","<img src= ""rock_img/I_Pegmatite_05.jpg"" style=""width:8cm; height:7.300000000000001cm;""><p>What type of rock is this?</p>","3","class_response","1","train","44","Gabbro","Pegmatite","05","false","4","6","",""
"","","","","","","","","","","","html-button-response","192","2.0.0","319346","66ef212cf79668f34be612d8","2","22","781","","","","","","","","","<img src= rock_img/I_Pegmatite_05.jpg style=""width:8cm; height:7.300000000000001cm;""><p style='font-size: 30px; color: red;'><strong>Incorrect!</strong></p><p style='font-size: 30px;'><strong>This rock is pegmatite</strong></p>","0","corr_feedback","1","train","44","","","","","","","",""
"","","","","","","","","","","","html-button-response","193","2.0.0","320662","66ef212cf79668f34be612d8","2","22","1315","","","","","","","","","<img src= ""rock_img/I_Basalt_02.jpg"" style=""width:8cm; height:6.45cm;""><p>What type of rock is this?</p>","1","class_response","1","train","45","Basalt","Basalt","02","true","2","2","",""
"","","","","","","","","","","","html-button-response","194","2.0.0","321294","66ef212cf79668f34be612d8","2","22","632","","","","","","","","","<img src= rock_img/I_Basalt_02.jpg style=""width:8cm; height:6.45cm;""><p style='font-size: 30px; color: green;'><strong>Correct!</strong></p><p style='font-size: 30px;'><strong>This rock is basalt</strong></p>","0","corr_feedback","1","train","45","","","","","","","",""
"","","","","","","","","","","","html-button-response","195","2.0.0","322133","66ef212cf79668f34be612d8","2","22","838","","","","","","","","","<img src= ""rock_img/I_Basalt_09.jpg"" style=""width:8cm; height:6.2cm;""><p>What type of rock is this?</p>","1","class_response","1","train","46","Basalt","Basalt","09","true","2","2","",""
"","","","","","","","","","","","html-button-response","196","2.0.0","322718","66ef212cf79668f34be612d8","2","22","584","","","","","","","","","<img src= rock_img/I_Basalt_09.jpg style=""width:8cm; height:6.2cm;""><p style='font-size: 30px; color: green;'><strong>Correct!</strong></p><p style='font-size: 30px;'><strong>This rock is basalt</strong></p>","0","corr_feedback","1","train","46","","","","","","","",""
"","","","","","","","","","","","html-button-response","197","2.0.0","325445","66ef212cf79668f34be612d8","2","22","2726","","","","","","","","","<img src= ""rock_img/I_Basalt_14.jpg"" style=""width:8cm; height:5.82cm;""><p>What type of rock is this?</p>","0","class_response","1","train","47","Andesite","Basalt","14","false","1","2","",""
"","","","","","","","","","","","html-button-response","198","2.0.0","326208","66ef212cf79668f34be612d8","2","22","762","","","","","","","","","<img src= rock_img/I_Basalt_14.jpg style=""width:8cm; height:5.82cm;""><p style='font-size: 30px; color: red;'><strong>Incorrect!</strong></p><p style='font-size: 30px;'><strong>This rock is basalt</strong></p>","0","corr_feedback","1","train","47","","","","","","","",""
"","","","","","","","","","","","html-button-response","199","2.0.0","327709","66ef212cf79668f34be612d8","2","22","1500","","","","","","","","","<img src= ""rock_img/I_Obsidian_06.jpg"" style=""width:8cm; height:6.8cm;""><p>What type of rock is this?</p>","4","class_response","1","train","48","Obsidian","Obsidian","06","true","5","5","",""
"","","","","","","","","","","","html-button-response","200","2.0.0","328480","66ef212cf79668f34be612d8","2","22","770","","","","","","","","","<img src= rock_img/I_Obsidian_06.jpg style=""width:8cm; height:6.8cm;""><p style='font-size: 30px; color: green;'><strong>Correct!</strong></p><p style='font-size: 30px;'><strong>This rock is obsidian</strong></p>","0","corr_feedback","1","train","48","","","","","","","",""
"","","","","","","","","","","","instructions","203","2.0.0","338512","66ef212cf79668f34be612d8","2","22","10031","","","","","","","","[{""page_index"":0,""viewing_time"":4591},{""page_index"":1,""viewing_time"":5440}]","","","","","","","","","","","","","",""
"","","","","","","","","","","","html-button-response","204","2.0.0","339628","66ef212cf79668f34be612d8","2","22","1115","","","","","","","","","","0","start_test","","","","","","","","","","",""
"","","","","","","","","","","","html-button-response","205","2.0.0","341122","66ef212cf79668f34be612d8","2","22","1493","","","","","","","","","<img src= ""rock_img/I_Pumice_02.jpg"" style=""width:8cm; height:7.3999999999999995cm;""><p>What type of rock is this?</p>","7","class_response","1","test","1","Pumice","Pumice","02","true","8","8","",""
"","","","","","","","","","","","html-keyboard-response","206","2.0.0","341626","66ef212cf79668f34be612d8","2","22","null","","","","","","","","","<p style='font-size: 30px;'><strong>Okay</strong></p>","null","neutral_feedback","1","test","1","","","","","","","",""
"","","","","","","","","","","","html-button-response","207","2.0.0","344317","66ef212cf79668f34be612d8","2","22","2689","","","","","","","","","<img src= ""rock_img/I_Peridotite_13.jpg"" style=""width:8cm; height:7.58cm;""><p>What type of rock is this?</p>","6","class_response","1","test","2","Peridotite","Peridotite","13","true","7","7","",""
"","","","","","","","","","","","html-keyboard-response","208","2.0.0","344829","66ef212cf79668f34be612d8","2","22","null","","","","","","","","","<p style='font-size: 30px;'><strong>Okay</strong></p>","null","neutral_feedback","1","test","2","","","","","","","",""
"","","","","","","","","","","","html-button-response","209","2.0.0","346193","66ef212cf79668f34be612d8","2","22","1363","","","","","","","","","<img src= ""rock_img/I_Andesite_06.jpg"" style=""width:8cm; height:6.840000000000001cm;""><p>What type of rock is this?</p>","2","class_response","1","test","3","Diorite","Andesite","06","false","3","1","",""
"","","","","","","","","","","","html-keyboard-response","210","2.0.0","346705","66ef212cf79668f34be612d8","2","22","null","","","","","","","","","<p style='font-size: 30px;'><strong>Okay</strong></p>","null","neutral_feedback","1","test","3","","","","","","","",""
"","","","","","","","","","","","html-button-response","211","2.0.0","347318","66ef212cf79668f34be612d8","2","22","612","","","","","","","","","<img src= ""rock_img/I_Diorite_16.jpg"" style=""width:8cm; height:6.74cm;""><p>What type of rock is this?</p>","2","class_response","1","test","4","Diorite","Diorite","16","true","3","3","",""
"","","","","","","","","","","","html-keyboard-response","212","2.0.0","347829","66ef212cf79668f34be612d8","2","22","null","","","","","","","","","<p style='font-size: 30px;'><strong>Okay</strong></p>","null","neutral_feedback","1","test","4","","","","","","","",""
"","","","","","","","","","","","html-button-response","213","2.0.0","348906","66ef212cf79668f34be612d8","2","22","1076","","","","","","","","","<img src= ""rock_img/I_Pegmatite_13.jpg"" style=""width:8cm; height:4.95cm;""><p>What type of rock is this?</p>","2","class_response","1","test","5","Diorite","Pegmatite","13","false","3","6","",""
"","","","","","","","","","","","html-keyboard-response","214","2.0.0","349414","66ef212cf79668f34be612d8","2","22","null","","","","","","","","","<p style='font-size: 30px;'><strong>Okay</strong></p>","null","neutral_feedback","1","test","5","","","","","","","",""
"","","","","","","","","","","","html-button-response","215","2.0.0","351884","66ef212cf79668f34be612d8","2","22","2468","","","","","","","","","<img src= ""rock_img/I_Gabbro_15.jpg"" style=""width:8cm; height:6.29cm;""><p>What type of rock is this?</p>","1","class_response","1","test","6","Basalt","Gabbro","15","false","2","4","",""
"","","","","","","","","","","","html-keyboard-response","216","2.0.0","352398","66ef212cf79668f34be612d8","2","22","null","","","","","","","","","<p style='font-size: 30px;'><strong>Okay</strong></p>","null","neutral_feedback","1","test","6","","","","","","","",""
"","","","","","","","","","","","html-button-response","217","2.0.0","353916","66ef212cf79668f34be612d8","2","22","1517","","","","","","","","","<img src= ""rock_img/I_Pumice_04.jpg"" style=""width:8cm; height:6.819999999999999cm;""><p>What type of rock is this?</p>","7","class_response","1","test","7","Pumice","Pumice","04","true","8","8","",""
"","","","","","","","","","","","html-keyboard-response","218","2.0.0","354422","66ef212cf79668f34be612d8","2","22","null","","","","","","","","","<p style='font-size: 30px;'><strong>Okay</strong></p>","null","neutral_feedback","1","test","7","","","","","","","",""
"","","","","","","","","","","","html-button-response","219","2.0.0","355231","66ef212cf79668f34be612d8","2","22","808","","","","","","","","","<img src= ""rock_img/I_Pumice_08.jpg"" style=""width:8cm; height:6.67cm;""><p>What type of rock is this?</p>","7","class_response","1","test","8","Pumice","Pumice","08","true","8","8","",""
"","","","","","","","","","","","html-keyboard-response","220","2.0.0","355735","66ef212cf79668f34be612d8","2","22","null","","","","","","","","","<p style='font-size: 30px;'><strong>Okay</strong></p>","null","neutral_feedback","1","test","8","","","","","","","",""
"","","","","","","","","","","","html-button-response","221","2.0.0","358295","66ef212cf79668f34be612d8","2","22","2559","","","","","","","","","<img src= ""rock_img/I_Peridotite_08.jpg"" style=""width:8cm; height:6.7cm;""><p>What type of rock is this?</p>","6","class_response","1","test","9","Peridotite","Peridotite","08","true","7","7","",""
"","","","","","","","","","","","html-keyboard-response","222","2.0.0","358810","66ef212cf79668f34be612d8","2","22","null","","","","","","","","","<p style='font-size: 30px;'><strong>Okay</strong></p>","null","neutral_feedback","1","test","9","","","","","","","",""
"","","","","","","","","","","","html-button-response","223","2.0.0","359887","66ef212cf79668f34be612d8","2","22","1076","","","","","","","","","<img src= ""rock_img/I_Peridotite_02.jpg"" style=""width:8cm; height:5.859999999999999cm;""><p>What type of rock is this?</p>","6","class_response","1","test","10","Peridotite","Peridotite","02","true","7","7","",""
"","","","","","","","","","","","html-keyboard-response","224","2.0.0","360398","66ef212cf79668f34be612d8","2","22","null","","","","","","","","","<p style='font-size: 30px;'><strong>Okay</strong></p>","null","neutral_feedback","1","test","10","","","","","","","",""
"","","","","","","","","","","","html-button-response","225","2.0.0","361894","66ef212cf79668f34be612d8","2","22","1495","","","","","","","","","<img src= ""rock_img/I_Basalt_10.jpg"" style=""width:8cm; height:5.85cm;""><p>What type of rock is this?</p>","4","class_response","1","test","11","Obsidian","Basalt","10","false","5","2","",""
"","","","","","","","","","","","html-keyboard-response","226","2.0.0","362395","66ef212cf79668f34be612d8","2","22","null","","","","","","","","","<p style='font-size: 30px;'><strong>Okay</strong></p>","null","neutral_feedback","1","test","11","","","","","","","",""
"","","","","","","","","","","","html-button-response","227","2.0.0","364788","66ef212cf79668f34be612d8","2","22","2392","","","","","","","","","<img src= ""rock_img/I_Gabbro_05.jpg"" style=""width:8cm; height:6cm;""><p>What type of rock is this?</p>","0","class_response","1","test","12","Andesite","Gabbro","05","false","1","4","",""
"","","","","","","","","","","","html-keyboard-response","228","2.0.0","365297","66ef212cf79668f34be612d8","2","22","null","","","","","","","","","<p style='font-size: 30px;'><strong>Okay</strong></p>","null","neutral_feedback","1","test","12","","","","","","","",""
"","","","","","","","","","","","html-button-response","229","2.0.0","489969","66ef212cf79668f34be612d8","2","22","124671","","","","","","","","","<img src= ""rock_img/I_Obsidian_02.jpg"" style=""width:8cm; height:7.51cm;""><p>What type of rock is this?</p>","4","class_response","1","test","13","Obsidian","Obsidian","02","true","5","5","",""
"","","","","","","","","","","","html-keyboard-response","230","2.0.0","490474","66ef212cf79668f34be612d8","2","22","null","","","","","","","","","<p style='font-size: 30px;'><strong>Okay</strong></p>","null","neutral_feedback","1","test","13","","","","","","","",""
"","","","","","","","","","","","html-button-response","231","2.0.0","494748","66ef212cf79668f34be612d8","2","22","4273","","","","","","","","","<img src= ""rock_img/I_Basalt_04.jpg"" style=""width:8cm; height:7.53cm;""><p>What type of rock is this?</p>","1","class_response","1","test","14","Basalt","Basalt","04","true","2","2","",""
"","","","","","","","","","","","html-keyboard-response","232","2.0.0","495255","66ef212cf79668f34be612d8","2","22","null","","","","","","","","","<p style='font-size: 30px;'><strong>Okay</strong></p>","null","neutral_feedback","1","test","14","","","","","","","",""
"","","","","","","","","","","","html-button-response","233","2.0.0","496431","66ef212cf79668f34be612d8","2","22","1174","","","","","","","","","<img src= ""rock_img/I_Diorite_15.jpg"" style=""width:8cm; height:5.54cm;""><p>What type of rock is this?</p>","2","class_response","1","test","15","Diorite","Diorite","15","true","3","3","",""
"","","","","","","","","","","","html-keyboard-response","234","2.0.0","496944","66ef212cf79668f34be612d8","2","22","null","","","","","","","","","<p style='font-size: 30px;'><strong>Okay</strong></p>","null","neutral_feedback","1","test","15","","","","","","","",""
"","","","","","","","","","","","html-button-response","235","2.0.0","498510","66ef212cf79668f34be612d8","2","22","1565","","","","","","","","","<img src= ""rock_img/I_Gabbro_09.jpg"" style=""width:8cm; height:7.279999999999999cm;""><p>What type of rock is this?</p>","1","class_response","1","test","16","Basalt","Gabbro","09","false","2","4","",""
"","","","","","","","","","","","html-keyboard-response","236","2.0.0","499012","66ef212cf79668f34be612d8","2","22","null","","","","","","","","","<p style='font-size: 30px;'><strong>Okay</strong></p>","null","neutral_feedback","1","test","16","","","","","","","",""
"","","","","","","","","","","","html-button-response","237","2.0.0","500026","66ef212cf79668f34be612d8","2","22","1013","","","","","","","","","<img src= ""rock_img/I_Pumice_09.jpg"" style=""width:8cm; height:6.44cm;""><p>What type of rock is this?</p>","7","class_response","1","test","17","Pumice","Pumice","09","true","8","8","",""
"","","","","","","","","","","","html-keyboard-response","238","2.0.0","500534","66ef212cf79668f34be612d8","2","22","null","","","","","","","","","<p style='font-size: 30px;'><strong>Okay</strong></p>","null","neutral_feedback","1","test","17","","","","","","","",""
"","","","","","","","","","","","html-button-response","239","2.0.0","501667","66ef212cf79668f34be612d8","2","22","1132","","","","","","","","","<img src= ""rock_img/I_Diorite_12.jpg"" style=""width:8cm; height:4.88cm;""><p>What type of rock is this?</p>","2","class_response","1","test","18","Diorite","Diorite","12","true","3","3","",""
"","","","","","","","","","","","html-keyboard-response","240","2.0.0","502168","66ef212cf79668f34be612d8","2","22","null","","","","","","","","","<p style='font-size: 30px;'><strong>Okay</strong></p>","null","neutral_feedback","1","test","18","","","","","","","",""
"","","","","","","","","","","","html-button-response","241","2.0.0","505039","66ef212cf79668f34be612d8","2","22","2871","","","","","","","","","<img src= ""rock_img/I_Pumice_05.jpg"" style=""width:8cm; height:7.25cm;""><p>What type of rock is this?</p>","3","class_response","1","test","19","Gabbro","Pumice","05","false","4","8","",""
"","","","","","","","","","","","html-keyboard-response","242","2.0.0","505545","66ef212cf79668f34be612d8","2","22","null","","","","","","","","","<p style='font-size: 30px;'><strong>Okay</strong></p>","null","neutral_feedback","1","test","19","","","","","","","",""
"","","","","","","","","","","","html-button-response","243","2.0.0","509936","66ef212cf79668f34be612d8","2","22","4390","","","","","","","","","<img src= ""rock_img/I_Pegmatite_11.jpg"" style=""width:8cm; height:8.14cm;""><p>What type of rock is this?</p>","0","class_response","1","test","20","Andesite","Pegmatite","11","false","1","6","",""
"","","","","","","","","","","","html-keyboard-response","244","2.0.0","510450","66ef212cf79668f34be612d8","2","22","null","","","","","","","","","<p style='font-size: 30px;'><strong>Okay</strong></p>","null","neutral_feedback","1","test","20","","","","","","","",""
"","","","","","","","","","","","html-button-response","245","2.0.0","512103","66ef212cf79668f34be612d8","2","22","1650","","","","","","","","","<img src= ""rock_img/I_Peridotite_07.jpg"" style=""width:8cm; height:4.83cm;""><p>What type of rock is this?</p>","2","class_response","1","test","21","Diorite","Peridotite","07","false","3","7","",""
"","","","","","","","","","","","html-keyboard-response","246","2.0.0","512608","66ef212cf79668f34be612d8","2","22","null","","","","","","","","","<p style='font-size: 30px;'><strong>Okay</strong></p>","null","neutral_feedback","1","test","21","","","","","","","",""
"","","","","","","","","","","","html-button-response","247","2.0.0","514416","66ef212cf79668f34be612d8","2","22","1808","","","","","","","","","<img src= ""rock_img/I_Andesite_03.jpg"" style=""width:8cm; height:5.73cm;""><p>What type of rock is this?</p>","1","class_response","1","test","22","Basalt","Andesite","03","false","2","1","",""
"","","","","","","","","","","","html-keyboard-response","248","2.0.0","514928","66ef212cf79668f34be612d8","2","22","null","","","","","","","","","<p style='font-size: 30px;'><strong>Okay</strong></p>","null","neutral_feedback","1","test","22","","","","","","","",""
"","","","","","","","","","","","html-button-response","249","2.0.0","515971","66ef212cf79668f34be612d8","2","22","1042","","","","","","","","","<img src= ""rock_img/I_Andesite_04.jpg"" style=""width:8cm; height:5.96cm;""><p>What type of rock is this?</p>","2","class_response","1","test","23","Diorite","Andesite","04","false","3","1","",""
"","","","","","","","","","","","html-keyboard-response","250","2.0.0","516485","66ef212cf79668f34be612d8","2","22","null","","","","","","","","","<p style='font-size: 30px;'><strong>Okay</strong></p>","null","neutral_feedback","1","test","23","","","","","","","",""
"","","","","","","","","","","","html-button-response","251","2.0.0","517593","66ef212cf79668f34be612d8","2","22","1106","","","","","","","","","<img src= ""rock_img/I_Obsidian_11.jpg"" style=""width:8cm; height:6.05cm;""><p>What type of rock is this?</p>","4","class_response","1","test","24","Obsidian","Obsidian","11","true","5","5","",""
"","","","","","","","","","","","html-keyboard-response","252","2.0.0","518094","66ef212cf79668f34be612d8","2","22","null","","","","","","","","","<p style='font-size: 30px;'><strong>Okay</strong></p>","null","neutral_feedback","1","test","24","","","","","","","",""
"","","","","","","","","","","","html-button-response","253","2.0.0","519486","66ef212cf79668f34be612d8","2","22","1392","","","","","","","","","<img src= ""rock_img/I_Obsidian_14.jpg"" style=""width:8cm; height:7.64cm;""><p>What type of rock is this?</p>","4","class_response","1","test","25","Obsidian","Obsidian","14","true","5","5","",""
"","","","","","","","","","","","html-keyboard-response","254","2.0.0","519996","66ef212cf79668f34be612d8","2","22","null","","","","","","","","","<p style='font-size: 30px;'><strong>Okay</strong></p>","null","neutral_feedback","1","test","25","","","","","","","",""
"","","","","","","","","","","","html-button-response","255","2.0.0","521494","66ef212cf79668f34be612d8","2","22","1497","","","","","","","","","<img src= ""rock_img/I_Diorite_08.jpg"" style=""width:8cm; height:6.37cm;""><p>What type of rock is this?</p>","2","class_response","1","test","26","Diorite","Diorite","08","true","3","3","",""
"","","","","","","","","","","","html-keyboard-response","256","2.0.0","522004","66ef212cf79668f34be612d8","2","22","null","","","","","","","","","<p style='font-size: 30px;'><strong>Okay</strong></p>","null","neutral_feedback","1","test","26","","","","","","","",""
"","","","","","","","","","","","html-button-response","257","2.0.0","523233","66ef212cf79668f34be612d8","2","22","1229","","","","","","","","","<img src= ""rock_img/I_Obsidian_10.jpg"" style=""width:8cm; height:6.260000000000001cm;""><p>What type of rock is this?</p>","4","class_response","1","test","27","Obsidian","Obsidian","10","true","5","5","",""
"","","","","","","","","","","","html-keyboard-response","258","2.0.0","523738","66ef212cf79668f34be612d8","2","22","null","","","","","","","","","<p style='font-size: 30px;'><strong>Okay</strong></p>","null","neutral_feedback","1","test","27","","","","","","","",""
"","","","","","","","","","","","html-button-response","259","2.0.0","524747","66ef212cf79668f34be612d8","2","22","1009","","","","","","","","","<img src= ""rock_img/I_Peridotite_12.jpg"" style=""width:8cm; height:4.54cm;""><p>What type of rock is this?</p>","2","class_response","1","test","28","Diorite","Peridotite","12","false","3","7","",""
"","","","","","","","","","","","html-keyboard-response","260","2.0.0","525253","66ef212cf79668f34be612d8","2","22","null","","","","","","","","","<p style='font-size: 30px;'><strong>Okay</strong></p>","null","neutral_feedback","1","test","28","","","","","","","",""
"","","","","","","","","","","","html-button-response","261","2.0.0","528480","66ef212cf79668f34be612d8","2","22","3226","","","","","","","","","<img src= ""rock_img/I_Andesite_02.jpg"" style=""width:8cm; height:8.5cm;""><p>What type of rock is this?</p>","3","class_response","1","test","29","Gabbro","Andesite","02","false","4","1","",""
"","","","","","","","","","","","html-keyboard-response","262","2.0.0","528984","66ef212cf79668f34be612d8","2","22","null","","","","","","","","","<p style='font-size: 30px;'><strong>Okay</strong></p>","null","neutral_feedback","1","test","29","","","","","","","",""
"","","","","","","","","","","","html-button-response","263","2.0.0","531082","66ef212cf79668f34be612d8","2","22","2097","","","","","","","","","<img src= ""rock_img/I_Pegmatite_03.jpg"" style=""width:8cm; height:5.239999999999999cm;""><p>What type of rock is this?</p>","6","class_response","1","test","30","Peridotite","Pegmatite","03","false","7","6","",""
"","","","","","","","","","","","html-keyboard-response","264","2.0.0","531594","66ef212cf79668f34be612d8","2","22","null","","","","","","","","","<p style='font-size: 30px;'><strong>Okay</strong></p>","null","neutral_feedback","1","test","30","","","","","","","",""
"","","","","","","","","","","","html-button-response","265","2.0.0","532183","66ef212cf79668f34be612d8","2","22","588","","","","","","","","","<img src= ""rock_img/I_Pegmatite_06.jpg"" style=""width:8cm; height:5.17cm;""><p>What type of rock is this?</p>","6","class_response","1","test","31","Peridotite","Pegmatite","06","false","7","6","",""
"","","","","","","","","","","","html-keyboard-response","266","2.0.0","532688","66ef212cf79668f34be612d8","2","22","null","","","","","","","","","<p style='font-size: 30px;'><strong>Okay</strong></p>","null","neutral_feedback","1","test","31","","","","","","","",""
"","","","","","","","","","","","html-button-response","267","2.0.0","534806","66ef212cf79668f34be612d8","2","22","2117","","","","","","","","","<img src= ""rock_img/I_Obsidian_07.jpg"" style=""width:8cm; height:4.76cm;""><p>What type of rock is this?</p>","4","class_response","1","test","32","Obsidian","Obsidian","07","true","5","5","",""
"","","","","","","","","","","","html-keyboard-response","268","2.0.0","535315","66ef212cf79668f34be612d8","2","22","null","","","","","","","","","<p style='font-size: 30px;'><strong>Okay</strong></p>","null","neutral_feedback","1","test","32","","","","","","","",""
"","","","","","","","","","","","html-button-response","269","2.0.0","537065","66ef212cf79668f34be612d8","2","22","1748","","","","","","","","","<img src= ""rock_img/I_Andesite_14.jpg"" style=""width:8cm; height:5.449999999999999cm;""><p>What type of rock is this?</p>","0","class_response","1","test","33","Andesite","Andesite","14","true","1","1","",""
"","","","","","","","","","","","html-keyboard-response","270","2.0.0","537574","66ef212cf79668f34be612d8","2","22","null","","","","","","","","","<p style='font-size: 30px;'><strong>Okay</strong></p>","null","neutral_feedback","1","test","33","","","","","","","",""
"","","","","","","","","","","","html-button-response","271","2.0.0","540637","66ef212cf79668f34be612d8","2","22","3062","","","","","","","","","<img src= ""rock_img/I_Peridotite_16.jpg"" style=""width:8cm; height:6.989999999999999cm;""><p>What type of rock is this?</p>","3","class_response","1","test","34","Gabbro","Peridotite","16","false","4","7","",""
"","","","","","","","","","","","html-keyboard-response","272","2.0.0","541145","66ef212cf79668f34be612d8","2","22","null","","","","","","","","","<p style='font-size: 30px;'><strong>Okay</strong></p>","null","neutral_feedback","1","test","34","","","","","","","",""
"","","","","","","","","","","","html-button-response","273","2.0.0","542579","66ef212cf79668f34be612d8","2","22","1433","","","","","","","","","<img src= ""rock_img/I_Basalt_05.jpg"" style=""width:8cm; height:8.18cm;""><p>What type of rock is this?</p>","1","class_response","1","test","35","Basalt","Basalt","05","true","2","2","",""
"","","","","","","","","","","","html-keyboard-response","274","2.0.0","543086","66ef212cf79668f34be612d8","2","22","null","","","","","","","","","<p style='font-size: 30px;'><strong>Okay</strong></p>","null","neutral_feedback","1","test","35","","","","","","","",""
"","","","","","","","","","","","html-button-response","275","2.0.0","544367","66ef212cf79668f34be612d8","2","22","1280","","","","","","","","","<img src= ""rock_img/I_Obsidian_12.jpg"" style=""width:8cm; height:6.53cm;""><p>What type of rock is this?</p>","4","class_response","1","test","36","Obsidian","Obsidian","12","true","5","5","",""
"","","","","","","","","","","","html-keyboard-response","276","2.0.0","544869","66ef212cf79668f34be612d8","2","22","null","","","","","","","","","<p style='font-size: 30px;'><strong>Okay</strong></p>","null","neutral_feedback","1","test","36","","","","","","","",""
"","","","","","","","","","","","html-button-response","277","2.0.0","550092","66ef212cf79668f34be612d8","2","22","5222","","","","","","","","","<img src= ""rock_img/I_Basalt_16.jpg"" style=""width:8cm; height:7.659999999999999cm;""><p>What type of rock is this?</p>","5","class_response","1","test","37","Pegmatite","Basalt","16","false","6","2","",""
"","","","","","","","","","","","html-keyboard-response","278","2.0.0","550598","66ef212cf79668f34be612d8","2","22","null","","","","","","","","","<p style='font-size: 30px;'><strong>Okay</strong></p>","null","neutral_feedback","1","test","37","","","","","","","",""
"","","","","","","","","","","","html-button-response","279","2.0.0","552278","66ef212cf79668f34be612d8","2","22","1680","","","","","","","","","<img src= ""rock_img/I_Pumice_15.jpg"" style=""width:8cm; height:7.86cm;""><p>What type of rock is this?</p>","7","class_response","1","test","38","Pumice","Pumice","15","true","8","8","",""
"","","","","","","","","","","","html-keyboard-response","280","2.0.0","552779","66ef212cf79668f34be612d8","2","22","null","","","","","","","","","<p style='font-size: 30px;'><strong>Okay</strong></p>","null","neutral_feedback","1","test","38","","","","","","","",""
"","","","","","","","","","","","html-button-response","281","2.0.0","553781","66ef212cf79668f34be612d8","2","22","1001","","","","","","","","","<img src= ""rock_img/I_Andesite_16.jpg"" style=""width:8cm; height:6.010000000000001cm;""><p>What type of rock is this?</p>","2","class_response","1","test","39","Diorite","Andesite","16","false","3","1","",""
"","","","","","","","","","","","html-keyboard-response","282","2.0.0","554282","66ef212cf79668f34be612d8","2","22","null","","","","","","","","","<p style='font-size: 30px;'><strong>Okay</strong></p>","null","neutral_feedback","1","test","39","","","","","","","",""
"","","","","","","","","","","","html-button-response","283","2.0.0","556044","66ef212cf79668f34be612d8","2","22","1761","","","","","","","","","<img src= ""rock_img/I_Pegmatite_10.jpg"" style=""width:8cm; height:4.16cm;""><p>What type of rock is this?</p>","6","class_response","1","test","40","Peridotite","Pegmatite","10","false","7","6","",""
"","","","","","","","","","","","html-keyboard-response","284","2.0.0","556550","66ef212cf79668f34be612d8","2","22","null","","","","","","","","","<p style='font-size: 30px;'><strong>Okay</strong></p>","null","neutral_feedback","1","test","40","","","","","","","",""
"","","","","","","","","","","","html-button-response","285","2.0.0","557776","66ef212cf79668f34be612d8","2","22","1225","","","","","","","","","<img src= ""rock_img/I_Gabbro_16.jpg"" style=""width:8cm; height:6.44cm;""><p>What type of rock is this?</p>","1","class_response","1","test","41","Basalt","Gabbro","16","false","2","4","",""
"","","","","","","","","","","","html-keyboard-response","286","2.0.0","558277","66ef212cf79668f34be612d8","2","22","null","","","","","","","","","<p style='font-size: 30px;'><strong>Okay</strong></p>","null","neutral_feedback","1","test","41","","","","","","","",""
"","","","","","","","","","","","html-button-response","287","2.0.0","559152","66ef212cf79668f34be612d8","2","22","874","","","","","","","","","<img src= ""rock_img/I_Diorite_11.jpg"" style=""width:8cm; height:7.11cm;""><p>What type of rock is this?</p>","2","class_response","1","test","42","Diorite","Diorite","11","true","3","3","",""
"","","","","","","","","","","","html-keyboard-response","288","2.0.0","559667","66ef212cf79668f34be612d8","2","22","null","","","","","","","","","<p style='font-size: 30px;'><strong>Okay</strong></p>","null","neutral_feedback","1","test","42","","","","","","","",""
"","","","","","","","","","","","html-button-response","289","2.0.0","560686","66ef212cf79668f34be612d8","2","22","1018","","","","","","","","","<img src= ""rock_img/I_Gabbro_11.jpg"" style=""width:8cm; height:6.2cm;""><p>What type of rock is this?</p>","1","class_response","1","test","43","Basalt","Gabbro","11","false","2","4","",""
"","","","","","","","","","","","html-keyboard-response","290","2.0.0","561202","66ef212cf79668f34be612d8","2","22","null","","","","","","","","","<p style='font-size: 30px;'><strong>Okay</strong></p>","null","neutral_feedback","1","test","43","","","","","","","",""
"","","","","","","","","","","","html-button-response","291","2.0.0","562054","66ef212cf79668f34be612d8","2","22","851","","","","","","","","","<img src= ""rock_img/I_Diorite_14.jpg"" style=""width:8cm; height:5.71cm;""><p>What type of rock is this?</p>","2","class_response","1","test","44","Diorite","Diorite","14","true","3","3","",""
"","","","","","","","","","","","html-keyboard-response","292","2.0.0","562559","66ef212cf79668f34be612d8","2","22","null","","","","","","","","","<p style='font-size: 30px;'><strong>Okay</strong></p>","null","neutral_feedback","1","test","44","","","","","","","",""
"","","","","","","","","","","","html-button-response","293","2.0.0","564697","66ef212cf79668f34be612d8","2","22","2137","","","","","","","","","<img src= ""rock_img/I_Pegmatite_16.jpg"" style=""width:8cm; height:5.8cm;""><p>What type of rock is this?</p>","3","class_response","1","test","45","Gabbro","Pegmatite","16","false","4","6","",""
"","","","","","","","","","","","html-keyboard-response","294","2.0.0","565204","66ef212cf79668f34be612d8","2","22","null","","","","","","","","","<p style='font-size: 30px;'><strong>Okay</strong></p>","null","neutral_feedback","1","test","45","","","","","","","",""
"","","","","","","","","","","","html-button-response","295","2.0.0","566122","66ef212cf79668f34be612d8","2","22","917","","","","","","","","","<img src= ""rock_img/I_Basalt_06.jpg"" style=""width:8cm; height:7.06cm;""><p>What type of rock is this?</p>","1","class_response","1","test","46","Basalt","Basalt","06","true","2","2","",""
"","","","","","","","","","","","html-keyboard-response","296","2.0.0","566624","66ef212cf79668f34be612d8","2","22","null","","","","","","","","","<p style='font-size: 30px;'><strong>Okay</strong></p>","null","neutral_feedback","1","test","46","","","","","","","",""
"","","","","","","","","","","","html-button-response","297","2.0.0","567841","66ef212cf79668f34be612d8","2","22","1217","","","","","","","","","<img src= ""rock_img/I_Basalt_08.jpg"" style=""width:8cm; height:10.44cm;""><p>What type of rock is this?</p>","1","class_response","1","test","47","Basalt","Basalt","08","true","2","2","",""
"","","","","","","","","","","","html-keyboard-response","298","2.0.0","568354","66ef212cf79668f34be612d8","2","22","null","","","","","","","","","<p style='font-size: 30px;'><strong>Okay</strong></p>","null","neutral_feedback","1","test","47","","","","","","","",""
"","","","","","","","","","","","html-button-response","299","2.0.0","569418","66ef212cf79668f34be612d8","2","22","1062","","","","","","","","","<img src= ""rock_img/I_Gabbro_03.jpg"" style=""width:8cm; height:8.52cm;""><p>What type of rock is this?</p>","6","class_response","1","test","48","Peridotite","Gabbro","03","false","7","4","",""
"","","","","","","","","","","","html-keyboard-response","300","2.0.0","569934","66ef212cf79668f34be612d8","2","22","null","","","","","","","","","<p style='font-size: 30px;'><strong>Okay</strong></p>","null","neutral_feedback","1","test","48","","","","","","","",""
"","","","","","","","","","","","html-button-response","301","2.0.0","583605","66ef212cf79668f34be612d8","2","22","","","","","","","","","","","","cycle_feedback","","","","","","","","","","6551.800000011921","7114.9000000059605"
"","","","","","","","","","","","html-button-response","303","2.0.0","585162","66ef212cf79668f34be612d8","2","22","1557","","","","","","","","","","0","start_train","","","","","","","","","","",""
"","","","","","","","","","","","html-button-response","304","2.0.0","587086","66ef212cf79668f34be612d8","2","22","1923","","","","","","","","","<img src= ""rock_img/I_Gabbro_10.jpg"" style=""width:8cm; height:5.680000000000001cm;""><p>What type of rock is this?</p>","1","class_response","2","train","1","Basalt","Gabbro","10","false","2","4","",""
