"width","height","webaudio","browser","browser_version","mobile","os","fullscreen","vsync_rate","webcam","microphone","trial_type","trial_index","plugin_version","time_elapsed","subjID","condition","stimID","rt","url","success","value","timeout","failed_images","failed_audio","failed_video","view_history","stimulus","response","trialType","cycle","phase","trial","resp","cat","token","corr","resp_num","cat_num","time_fb1","time_fb2"
"1428","802","true","edge-chromium","131.0.0","false","Windows 10","true","51.54","true","true","browser-check","0","2.0.0","1258","6566391df297b5d5a039e4e5","2","25","","","","","","","","","","","","","","","","","","","","","","",""
"","","","","","","","","","","","external-html","1","2.0.0","107986","6566391df297b5d5a039e4e5","2","25","106617","consent_form.html","","","","","","","","","","","","","","","","","","","","",""
"","","","","","","","","","","","fullscreen","2","2.0.0","112705","6566391df297b5d5a039e4e5","2","25","3707","","true","","","","","","","","","","","","","","","","","","","",""
"","","","","","","","","","","","call-function","3","2.0.0","112711","6566391df297b5d5a039e4e5","2","25","","","","{}","","","","","","","","","","","","","","","","","","",""
"","","","","","","","","","","","preload","4","2.0.0","116051","6566391df297b5d5a039e4e5","2","25","","","true","","false","[]","[]","[]","","","","","","","","","","","","","","",""
"","","","","","","","","","","","instructions","5","2.0.0","258031","6566391df297b5d5a039e4e5","2","25","141977","","","","","","","","[{""page_index"":0,""viewing_time"":29197},{""page_index"":1,""viewing_time"":85351},{""page_index"":2,""viewing_time"":27429}]","","","","","","","","","","","","","",""
"","","","","","","","","","","","html-button-response","6","2.0.0","263302","6566391df297b5d5a039e4e5","2","25","5266","","","","","","","","","","0","start_test","","","","","","","","","","",""
"","","","","","","","","","","","html-button-response","7","2.0.0","271941","6566391df297b5d5a039e4e5","2","25","8633","","","","","","","","","<img src= ""rock_img/I_Gabbro_10.jpg"" style=""width:8cm; height:5.680000000000001cm;""><p>What type of rock is this?</p>","6","class_response","0","test","1","Peridotite","Gabbro","10","false","7","4","",""
"","","","","","","","","","","","html-keyboard-response","8","2.0.0","272457","6566391df297b5d5a039e4e5","2","25","null","","","","","","","","","<p style='font-size: 30px;'><strong>Okay</strong></p>","null","neutral_feedback","0","test","1","","","","","","","",""
"","","","","","","","","","","","html-button-response","9","2.0.0","282208","6566391df297b5d5a039e4e5","2","25","9747","","","","","","","","","<img src= ""rock_img/I_Gabbro_03.jpg"" style=""width:8cm; height:8.52cm;""><p>What type of rock is this?</p>","7","class_response","0","test","2","Pumice","Gabbro","03","false","8","4","",""
"","","","","","","","","","","","html-keyboard-response","10","2.0.0","282725","6566391df297b5d5a039e4e5","2","25","null","","","","","","","","","<p style='font-size: 30px;'><strong>Okay</strong></p>","null","neutral_feedback","0","test","2","","","","","","","",""
"","","","","","","","","","","","html-button-response","11","2.0.0","287695","6566391df297b5d5a039e4e5","2","25","4965","","","","","","","","","<img src= ""rock_img/I_Pegmatite_09.jpg"" style=""width:8cm; height:4.03cm;""><p>What type of rock is this?</p>","1","class_response","0","test","3","Basalt","Pegmatite","09","false","2","6","",""
"","","","","","","","","","","","html-keyboard-response","12","2.0.0","288212","6566391df297b5d5a039e4e5","2","25","null","","","","","","","","","<p style='font-size: 30px;'><strong>Okay</strong></p>","null","neutral_feedback","0","test","3","","","","","","","",""
"","","","","","","","","","","","html-button-response","13","2.0.0","293937","6566391df297b5d5a039e4e5","2","25","5720","","","","","","","","","<img src= ""rock_img/I_Obsidian_06.jpg"" style=""width:8cm; height:6.8cm;""><p>What type of rock is this?</p>","4","class_response","0","test","4","Obsidian","Obsidian","06","true","5","5","",""
"","","","","","","","","","","","html-keyboard-response","14","2.0.0","294448","6566391df297b5d5a039e4e5","2","25","null","","","","","","","","","<p style='font-size: 30px;'><strong>Okay</strong></p>","null","neutral_feedback","0","test","4","","","","","","","",""
"","","","","","","","","","","","html-button-response","15","2.0.0","300334","6566391df297b5d5a039e4e5","2","25","5883","","","","","","","","","<img src= ""rock_img/I_Pumice_04.jpg"" style=""width:8cm; height:6.819999999999999cm;""><p>What type of rock is this?</p>","7","class_response","0","test","5","Pumice","Pumice","04","true","8","8","",""
"","","","","","","","","","","","html-keyboard-response","16","2.0.0","300850","6566391df297b5d5a039e4e5","2","25","null","","","","","","","","","<p style='font-size: 30px;'><strong>Okay</strong></p>","null","neutral_feedback","0","test","5","","","","","","","",""
"","","","","","","","","","","","html-button-response","17","2.0.0","305844","6566391df297b5d5a039e4e5","2","25","4990","","","","","","","","","<img src= ""rock_img/I_Pumice_13.jpg"" style=""width:8cm; height:8.200000000000001cm;""><p>What type of rock is this?</p>","0","class_response","0","test","6","Andesite","Pumice","13","false","1","8","",""
"","","","","","","","","","","","html-keyboard-response","18","2.0.0","306362","6566391df297b5d5a039e4e5","2","25","null","","","","","","","","","<p style='font-size: 30px;'><strong>Okay</strong></p>","null","neutral_feedback","0","test","6","","","","","","","",""
"","","","","","","","","","","","html-button-response","19","2.0.0","310217","6566391df297b5d5a039e4e5","2","25","3851","","","","","","","","","<img src= ""rock_img/I_Andesite_03.jpg"" style=""width:8cm; height:5.73cm;""><p>What type of rock is this?</p>","3","class_response","0","test","7","Gabbro","Andesite","03","false","4","1","",""
"","","","","","","","","","","","html-keyboard-response","20","2.0.0","310734","6566391df297b5d5a039e4e5","2","25","null","","","","","","","","","<p style='font-size: 30px;'><strong>Okay</strong></p>","null","neutral_feedback","0","test","7","","","","","","","",""
"","","","","","","","","","","","html-button-response","21","2.0.0","314048","6566391df297b5d5a039e4e5","2","25","3311","","","","","","","","","<img src= ""rock_img/I_Basalt_04.jpg"" style=""width:8cm; height:7.53cm;""><p>What type of rock is this?</p>","1","class_response","0","test","8","Basalt","Basalt","04","true","2","2","",""
"","","","","","","","","","","","html-keyboard-response","22","2.0.0","314564","6566391df297b5d5a039e4e5","2","25","null","","","","","","","","","<p style='font-size: 30px;'><strong>Okay</strong></p>","null","neutral_feedback","0","test","8","","","","","","","",""
"","","","","","","","","","","","html-button-response","23","2.0.0","317176","6566391df297b5d5a039e4e5","2","25","2608","","","","","","","","","<img src= ""rock_img/I_Andesite_04.jpg"" style=""width:8cm; height:5.96cm;""><p>What type of rock is this?</p>","5","class_response","0","test","9","Pegmatite","Andesite","04","false","6","1","",""
"","","","","","","","","","","","html-keyboard-response","24","2.0.0","317678","6566391df297b5d5a039e4e5","2","25","null","","","","","","","","","<p style='font-size: 30px;'><strong>Okay</strong></p>","null","neutral_feedback","0","test","9","","","","","","","",""
"","","","","","","","","","","","html-button-response","25","2.0.0","321856","6566391df297b5d5a039e4e5","2","25","4174","","","","","","","","","<img src= ""rock_img/I_Obsidian_10.jpg"" style=""width:8cm; height:6.260000000000001cm;""><p>What type of rock is this?</p>","2","class_response","0","test","10","Diorite","Obsidian","10","false","3","5","",""
"","","","","","","","","","","","html-keyboard-response","26","2.0.0","322371","6566391df297b5d5a039e4e5","2","25","null","","","","","","","","","<p style='font-size: 30px;'><strong>Okay</strong></p>","null","neutral_feedback","0","test","10","","","","","","","",""
"","","","","","","","","","","","html-button-response","27","2.0.0","328532","6566391df297b5d5a039e4e5","2","25","6157","","","","","","","","","<img src= ""rock_img/I_Diorite_08.jpg"" style=""width:8cm; height:6.37cm;""><p>What type of rock is this?</p>","7","class_response","0","test","11","Pumice","Diorite","08","false","8","3","",""
"","","","","","","","","","","","html-keyboard-response","28","2.0.0","329048","6566391df297b5d5a039e4e5","2","25","null","","","","","","","","","<p style='font-size: 30px;'><strong>Okay</strong></p>","null","neutral_feedback","0","test","11","","","","","","","",""
"","","","","","","","","","","","html-button-response","29","2.0.0","335547","6566391df297b5d5a039e4e5","2","25","6497","","","","","","","","","<img src= ""rock_img/I_Diorite_02.jpg"" style=""width:8cm; height:6.27cm;""><p>What type of rock is this?</p>","0","class_response","0","test","12","Andesite","Diorite","02","false","1","3","",""
"","","","","","","","","","","","html-keyboard-response","30","2.0.0","336064","6566391df297b5d5a039e4e5","2","25","null","","","","","","","","","<p style='font-size: 30px;'><strong>Okay</strong></p>","null","neutral_feedback","0","test","12","","","","","","","",""
"","","","","","","","","","","","html-button-response","31","2.0.0","361824","6566391df297b5d5a039e4e5","2","25","25755","","","","","","","","","<img src= ""rock_img/I_Peridotite_04.jpg"" style=""width:8cm; height:6.680000000000001cm;""><p>What type of rock is this?</p>","5","class_response","0","test","13","Pegmatite","Peridotite","04","false","6","7","",""
"","","","","","","","","","","","html-keyboard-response","32","2.0.0","362338","6566391df297b5d5a039e4e5","2","25","null","","","","","","","","","<p style='font-size: 30px;'><strong>Okay</strong></p>","null","neutral_feedback","0","test","13","","","","","","","",""
"","","","","","","","","","","","html-button-response","33","2.0.0","381604","6566391df297b5d5a039e4e5","2","25","19261","","","","","","","","","<img src= ""rock_img/I_Gabbro_15.jpg"" style=""width:8cm; height:6.29cm;""><p>What type of rock is this?</p>","4","class_response","0","test","14","Obsidian","Gabbro","15","false","5","4","",""
"","","","","","","","","","","","html-keyboard-response","34","2.0.0","382121","6566391df297b5d5a039e4e5","2","25","null","","","","","","","","","<p style='font-size: 30px;'><strong>Okay</strong></p>","null","neutral_feedback","0","test","14","","","","","","","",""
"","","","","","","","","","","","html-button-response","35","2.0.0","385434","6566391df297b5d5a039e4e5","2","25","3310","","","","","","","","","<img src= ""rock_img/I_Diorite_15.jpg"" style=""width:8cm; height:5.54cm;""><p>What type of rock is this?</p>","1","class_response","0","test","15","Basalt","Diorite","15","false","2","3","",""
"","","","","","","","","","","","html-keyboard-response","36","2.0.0","385951","6566391df297b5d5a039e4e5","2","25","null","","","","","","","","","<p style='font-size: 30px;'><strong>Okay</strong></p>","null","neutral_feedback","0","test","15","","","","","","","",""
"","","","","","","","","","","","html-button-response","37","2.0.0","412797","6566391df297b5d5a039e4e5","2","25","26843","","","","","","","","","<img src= ""rock_img/I_Obsidian_09.jpg"" style=""width:8cm; height:5cm;""><p>What type of rock is this?</p>","4","class_response","0","test","16","Obsidian","Obsidian","09","true","5","5","",""
"","","","","","","","","","","","html-keyboard-response","38","2.0.0","413313","6566391df297b5d5a039e4e5","2","25","null","","","","","","","","","<p style='font-size: 30px;'><strong>Okay</strong></p>","null","neutral_feedback","0","test","16","","","","","","","",""
"","","","","","","","","","","","html-button-response","39","2.0.0","435002","6566391df297b5d5a039e4e5","2","25","21686","","","","","","","","","<img src= ""rock_img/I_Pegmatite_07.jpg"" style=""width:8cm; height:6.7cm;""><p>What type of rock is this?</p>","3","class_response","0","test","17","Gabbro","Pegmatite","07","false","4","6","",""
"","","","","","","","","","","","html-keyboard-response","40","2.0.0","435508","6566391df297b5d5a039e4e5","2","25","null","","","","","","","","","<p style='font-size: 30px;'><strong>Okay</strong></p>","null","neutral_feedback","0","test","17","","","","","","","",""
"","","","","","","","","","","","html-button-response","41","2.0.0","467000","6566391df297b5d5a039e4e5","2","25","31488","","","","","","","","","<img src= ""rock_img/I_Basalt_08.jpg"" style=""width:8cm; height:10.44cm;""><p>What type of rock is this?</p>","3","class_response","0","test","18","Gabbro","Basalt","08","false","4","2","",""
"","","","","","","","","","","","html-keyboard-response","42","2.0.0","467503","6566391df297b5d5a039e4e5","2","25","null","","","","","","","","","<p style='font-size: 30px;'><strong>Okay</strong></p>","null","neutral_feedback","0","test","18","","","","","","","",""
"","","","","","","","","","","","html-button-response","43","2.0.0","494753","6566391df297b5d5a039e4e5","2","25","27247","","","","","","","","","<img src= ""rock_img/I_Basalt_11.jpg"" style=""width:8cm; height:5.359999999999999cm;""><p>What type of rock is this?</p>","1","class_response","0","test","19","Basalt","Basalt","11","true","2","2","",""
"","","","","","","","","","","","html-keyboard-response","44","2.0.0","495270","6566391df297b5d5a039e4e5","2","25","null","","","","","","","","","<p style='font-size: 30px;'><strong>Okay</strong></p>","null","neutral_feedback","0","test","19","","","","","","","",""
"","","","","","","","","","","","html-button-response","45","2.0.0","517117","6566391df297b5d5a039e4e5","2","25","21843","","","","","","","","","<img src= ""rock_img/I_Peridotite_14.jpg"" style=""width:8cm; height:5.3cm;""><p>What type of rock is this?</p>","2","class_response","0","test","20","Diorite","Peridotite","14","false","3","7","",""
"","","","","","","","","","","","html-keyboard-response","46","2.0.0","517633","6566391df297b5d5a039e4e5","2","25","null","","","","","","","","","<p style='font-size: 30px;'><strong>Okay</strong></p>","null","neutral_feedback","0","test","20","","","","","","","",""
"","","","","","","","","","","","html-button-response","47","2.0.0","520655","6566391df297b5d5a039e4e5","2","25","3017","","","","","","","","","<img src= ""rock_img/I_Pumice_02.jpg"" style=""width:8cm; height:7.3999999999999995cm;""><p>What type of rock is this?</p>","7","class_response","0","test","21","Pumice","Pumice","02","true","8","8","",""
"","","","","","","","","","","","html-keyboard-response","48","2.0.0","521173","6566391df297b5d5a039e4e5","2","25","null","","","","","","","","","<p style='font-size: 30px;'><strong>Okay</strong></p>","null","neutral_feedback","0","test","21","","","","","","","",""
"","","","","","","","","","","","html-button-response","49","2.0.0","545164","6566391df297b5d5a039e4e5","2","25","23987","","","","","","","","","<img src= ""rock_img/I_Peridotite_16.jpg"" style=""width:8cm; height:6.989999999999999cm;""><p>What type of rock is this?</p>","6","class_response","0","test","22","Peridotite","Peridotite","16","true","7","7","",""
"","","","","","","","","","","","html-keyboard-response","50","2.0.0","545680","6566391df297b5d5a039e4e5","2","25","null","","","","","","","","","<p style='font-size: 30px;'><strong>Okay</strong></p>","null","neutral_feedback","0","test","22","","","","","","","",""
"","","","","","","","","","","","html-button-response","51","2.0.0","563269","6566391df297b5d5a039e4e5","2","25","17585","","","","","","","","","<img src= ""rock_img/I_Pegmatite_13.jpg"" style=""width:8cm; height:4.95cm;""><p>What type of rock is this?</p>","2","class_response","0","test","23","Diorite","Pegmatite","13","false","3","6","",""
"","","","","","","","","","","","html-keyboard-response","52","2.0.0","563784","6566391df297b5d5a039e4e5","2","25","null","","","","","","","","","<p style='font-size: 30px;'><strong>Okay</strong></p>","null","neutral_feedback","0","test","23","","","","","","","",""
"","","","","","","","","","","","html-button-response","53","2.0.0","584964","6566391df297b5d5a039e4e5","2","25","21176","","","","","","","","","<img src= ""rock_img/I_Pegmatite_12.jpg"" style=""width:8cm; height:5.7cm;""><p>What type of rock is this?</p>","3","class_response","0","test","24","Gabbro","Pegmatite","12","false","4","6","",""
"","","","","","","","","","","","html-keyboard-response","54","2.0.0","585467","6566391df297b5d5a039e4e5","2","25","null","","","","","","","","","<p style='font-size: 30px;'><strong>Okay</strong></p>","null","neutral_feedback","0","test","24","","","","","","","",""
"","","","","","","","","","","","html-button-response","55","2.0.0","596656","6566391df297b5d5a039e4e5","2","25","11185","","","","","","","","","<img src= ""rock_img/I_Gabbro_08.jpg"" style=""width:8cm; height:5.15cm;""><p>What type of rock is this?</p>","1","class_response","0","test","25","Basalt","Gabbro","08","false","2","4","",""
"","","","","","","","","","","","html-keyboard-response","56","2.0.0","597173","6566391df297b5d5a039e4e5","2","25","null","","","","","","","","","<p style='font-size: 30px;'><strong>Okay</strong></p>","null","neutral_feedback","0","test","25","","","","","","","",""
"","","","","","","","","","","","html-button-response","57","2.0.0","602754","6566391df297b5d5a039e4e5","2","25","5577","","","","","","","","","<img src= ""rock_img/I_Diorite_13.jpg"" style=""width:8cm; height:6.29cm;""><p>What type of rock is this?</p>","2","class_response","0","test","26","Diorite","Diorite","13","true","3","3","",""
"","","","","","","","","","","","html-keyboard-response","58","2.0.0","603257","6566391df297b5d5a039e4e5","2","25","null","","","","","","","","","<p style='font-size: 30px;'><strong>Okay</strong></p>","null","neutral_feedback","0","test","26","","","","","","","",""
"","","","","","","","","","","","html-button-response","59","2.0.0","609589","6566391df297b5d5a039e4e5","2","25","6328","","","","","","","","","<img src= ""rock_img/I_Obsidian_08.jpg"" style=""width:8cm; height:7.39cm;""><p>What type of rock is this?</p>","6","class_response","0","test","27","Peridotite","Obsidian","08","false","7","5","",""
"","","","","","","","","","","","html-keyboard-response","60","2.0.0","610105","6566391df297b5d5a039e4e5","2","25","null","","","","","","","","","<p style='font-size: 30px;'><strong>Okay</strong></p>","null","neutral_feedback","0","test","27","","","","","","","",""
"","","","","","","","","","","","html-button-response","61","2.0.0","624023","6566391df297b5d5a039e4e5","2","25","13914","","","","","","","","","<img src= ""rock_img/I_Andesite_16.jpg"" style=""width:8cm; height:6.010000000000001cm;""><p>What type of rock is this?</p>","1","class_response","0","test","28","Basalt","Andesite","16","false","2","1","",""
"","","","","","","","","","","","html-keyboard-response","62","2.0.0","624527","6566391df297b5d5a039e4e5","2","25","null","","","","","","","","","<p style='font-size: 30px;'><strong>Okay</strong></p>","null","neutral_feedback","0","test","28","","","","","","","",""
"","","","","","","","","","","","html-button-response","63","2.0.0","652191","6566391df297b5d5a039e4e5","2","25","27662","","","","","","","","","<img src= ""rock_img/I_Peridotite_05.jpg"" style=""width:8cm; height:7.1499999999999995cm;""><p>What type of rock is this?</p>","1","class_response","0","test","29","Basalt","Peridotite","05","false","2","7","",""
"","","","","","","","","","","","html-keyboard-response","64","2.0.0","652709","6566391df297b5d5a039e4e5","2","25","null","","","","","","","","","<p style='font-size: 30px;'><strong>Okay</strong></p>","null","neutral_feedback","0","test","29","","","","","","","",""
"","","","","","","","","","","","html-button-response","65","2.0.0","677001","6566391df297b5d5a039e4e5","2","25","24288","","","","","","","","","<img src= ""rock_img/I_Pumice_16.jpg"" style=""width:8cm; height:6.79cm;""><p>What type of rock is this?</p>","2","class_response","0","test","30","Diorite","Pumice","16","false","3","8","",""
"","","","","","","","","","","","html-keyboard-response","66","2.0.0","677506","6566391df297b5d5a039e4e5","2","25","null","","","","","","","","","<p style='font-size: 30px;'><strong>Okay</strong></p>","null","neutral_feedback","0","test","30","","","","","","","",""
"","","","","","","","","","","","html-button-response","67","2.0.0","700065","6566391df297b5d5a039e4e5","2","25","22555","","","","","","","","","<img src= ""rock_img/I_Obsidian_02.jpg"" style=""width:8cm; height:7.51cm;""><p>What type of rock is this?</p>","4","class_response","0","test","31","Obsidian","Obsidian","02","true","5","5","",""
"","","","","","","","","","","","html-keyboard-response","68","2.0.0","700582","6566391df297b5d5a039e4e5","2","25","null","","","","","","","","","<p style='font-size: 30px;'><strong>Okay</strong></p>","null","neutral_feedback","0","test","31","","","","","","","",""
"","","","","","","","","","","","html-button-response","69","2.0.0","704255","6566391df297b5d5a039e4e5","2","25","3668","","","","","","","","","<img src= ""rock_img/I_Gabbro_11.jpg"" style=""width:8cm; height:6.2cm;""><p>What type of rock is this?</p>","7","class_response","0","test","32","Pumice","Gabbro","11","false","8","4","",""
"","","","","","","","","","","","html-keyboard-response","70","2.0.0","704771","6566391df297b5d5a039e4e5","2","25","null","","","","","","","","","<p style='font-size: 30px;'><strong>Okay</strong></p>","null","neutral_feedback","0","test","32","","","","","","","",""
"","","","","","","","","","","","html-button-response","71","2.0.0","717080","6566391df297b5d5a039e4e5","2","25","12305","","","","","","","","","<img src= ""rock_img/I_Peridotite_02.jpg"" style=""width:8cm; height:5.859999999999999cm;""><p>What type of rock is this?</p>","2","class_response","0","test","33","Diorite","Peridotite","02","false","3","7","",""
"","","","","","","","","","","","html-keyboard-response","72","2.0.0","717594","6566391df297b5d5a039e4e5","2","25","null","","","","","","","","","<p style='font-size: 30px;'><strong>Okay</strong></p>","null","neutral_feedback","0","test","33","","","","","","","",""
"","","","","","","","","","","","html-button-response","73","2.0.0","723279","6566391df297b5d5a039e4e5","2","25","5680","","","","","","","","","<img src= ""rock_img/I_Pumice_03.jpg"" style=""width:8cm; height:6.64cm;""><p>What type of rock is this?</p>","1","class_response","0","test","34","Basalt","Pumice","03","false","2","8","",""
"","","","","","","","","","","","html-keyboard-response","74","2.0.0","723793","6566391df297b5d5a039e4e5","2","25","null","","","","","","","","","<p style='font-size: 30px;'><strong>Okay</strong></p>","null","neutral_feedback","0","test","34","","","","","","","",""
"","","","","","","","","","","","html-button-response","75","2.0.0","726910","6566391df297b5d5a039e4e5","2","25","3114","","","","","","","","","<img src= ""rock_img/I_Pegmatite_03.jpg"" style=""width:8cm; height:5.239999999999999cm;""><p>What type of rock is this?</p>","4","class_response","0","test","35","Obsidian","Pegmatite","03","false","5","6","",""
"","","","","","","","","","","","html-keyboard-response","76","2.0.0","727426","6566391df297b5d5a039e4e5","2","25","null","","","","","","","","","<p style='font-size: 30px;'><strong>Okay</strong></p>","null","neutral_feedback","0","test","35","","","","","","","",""
"","","","","","","","","","","","html-button-response","77","2.0.0","732790","6566391df297b5d5a039e4e5","2","25","5361","","","","","","","","","<img src= ""rock_img/I_Basalt_14.jpg"" style=""width:8cm; height:5.82cm;""><p>What type of rock is this?</p>","3","class_response","0","test","36","Gabbro","Basalt","14","false","4","2","",""
"","","","","","","","","","","","html-keyboard-response","78","2.0.0","733306","6566391df297b5d5a039e4e5","2","25","null","","","","","","","","","<p style='font-size: 30px;'><strong>Okay</strong></p>","null","neutral_feedback","0","test","36","","","","","","","",""
"","","","","","","","","","","","html-button-response","79","2.0.0","738964","6566391df297b5d5a039e4e5","2","25","5654","","","","","","","","","<img src= ""rock_img/I_Basalt_12.jpg"" style=""width:8cm; height:6.010000000000001cm;""><p>What type of rock is this?</p>","0","class_response","0","test","37","Andesite","Basalt","12","false","1","2","",""
"","","","","","","","","","","","html-keyboard-response","80","2.0.0","739481","6566391df297b5d5a039e4e5","2","25","null","","","","","","","","","<p style='font-size: 30px;'><strong>Okay</strong></p>","null","neutral_feedback","0","test","37","","","","","","","",""
"","","","","","","","","","","","html-button-response","81","2.0.0","742876","6566391df297b5d5a039e4e5","2","25","3391","","","","","","","","","<img src= ""rock_img/I_Pumice_15.jpg"" style=""width:8cm; height:7.86cm;""><p>What type of rock is this?</p>","5","class_response","0","test","38","Pegmatite","Pumice","15","false","6","8","",""
"","","","","","","","","","","","html-keyboard-response","82","2.0.0","743378","6566391df297b5d5a039e4e5","2","25","null","","","","","","","","","<p style='font-size: 30px;'><strong>Okay</strong></p>","null","neutral_feedback","0","test","38","","","","","","","",""
"","","","","","","","","","","","html-button-response","83","2.0.0","746059","6566391df297b5d5a039e4e5","2","25","2678","","","","","","","","","<img src= ""rock_img/I_Diorite_10.jpg"" style=""width:8cm; height:5.949999999999999cm;""><p>What type of rock is this?</p>","6","class_response","0","test","39","Peridotite","Diorite","10","false","7","3","",""
"","","","","","","","","","","","html-keyboard-response","84","2.0.0","746577","6566391df297b5d5a039e4e5","2","25","null","","","","","","","","","<p style='font-size: 30px;'><strong>Okay</strong></p>","null","neutral_feedback","0","test","39","","","","","","","",""
"","","","","","","","","","","","html-button-response","85","2.0.0","760412","6566391df297b5d5a039e4e5","2","25","13831","","","","","","","","","<img src= ""rock_img/I_Peridotite_15.jpg"" style=""width:8cm; height:6cm;""><p>What type of rock is this?</p>","3","class_response","0","test","40","Gabbro","Peridotite","15","false","4","7","",""
"","","","","","","","","","","","html-keyboard-response","86","2.0.0","760929","6566391df297b5d5a039e4e5","2","25","null","","","","","","","","","<p style='font-size: 30px;'><strong>Okay</strong></p>","null","neutral_feedback","0","test","40","","","","","","","",""
"","","","","","","","","","","","html-button-response","87","2.0.0","796007","6566391df297b5d5a039e4e5","2","25","35075","","","","","","","","","<img src= ""rock_img/I_Pegmatite_16.jpg"" style=""width:8cm; height:5.8cm;""><p>What type of rock is this?</p>","5","class_response","0","test","41","Pegmatite","Pegmatite","16","true","6","6","",""
"","","","","","","","","","","","html-keyboard-response","88","2.0.0","796524","6566391df297b5d5a039e4e5","2","25","null","","","","","","","","","<p style='font-size: 30px;'><strong>Okay</strong></p>","null","neutral_feedback","0","test","41","","","","","","","",""
"","","","","","","","","","","","html-button-response","89","2.0.0","821413","6566391df297b5d5a039e4e5","2","25","24886","","","","","","","","","<img src= ""rock_img/I_Andesite_14.jpg"" style=""width:8cm; height:5.449999999999999cm;""><p>What type of rock is this?</p>","2","class_response","0","test","42","Diorite","Andesite","14","false","3","1","",""
"","","","","","","","","","","","html-keyboard-response","90","2.0.0","821930","6566391df297b5d5a039e4e5","2","25","null","","","","","","","","","<p style='font-size: 30px;'><strong>Okay</strong></p>","null","neutral_feedback","0","test","42","","","","","","","",""
"","","","","","","","","","","","html-button-response","91","2.0.0","828427","6566391df297b5d5a039e4e5","2","25","6493","","","","","","","","","<img src= ""rock_img/I_Andesite_06.jpg"" style=""width:8cm; height:6.840000000000001cm;""><p>What type of rock is this?</p>","2","class_response","0","test","43","Diorite","Andesite","06","false","3","1","",""
"","","","","","","","","","","","html-keyboard-response","92","2.0.0","828944","6566391df297b5d5a039e4e5","2","25","null","","","","","","","","","<p style='font-size: 30px;'><strong>Okay</strong></p>","null","neutral_feedback","0","test","43","","","","","","","",""
"","","","","","","","","","","","html-button-response","93","2.0.0","832735","6566391df297b5d5a039e4e5","2","25","3787","","","","","","","","","<img src= ""rock_img/I_Diorite_06.jpg"" style=""width:8cm; height:6.03cm;""><p>What type of rock is this?</p>","7","class_response","0","test","44","Pumice","Diorite","06","false","8","3","",""
"","","","","","","","","","","","html-keyboard-response","94","2.0.0","833250","6566391df297b5d5a039e4e5","2","25","null","","","","","","","","","<p style='font-size: 30px;'><strong>Okay</strong></p>","null","neutral_feedback","0","test","44","","","","","","","",""
"","","","","","","","","","","","html-button-response","95","2.0.0","861454","6566391df297b5d5a039e4e5","2","25","28200","","","","","","","","","<img src= ""rock_img/I_Basalt_02.jpg"" style=""width:8cm; height:6.45cm;""><p>What type of rock is this?</p>","1","class_response","0","test","45","Basalt","Basalt","02","true","2","2","",""
"","","","","","","","","","","","html-keyboard-response","96","2.0.0","861971","6566391df297b5d5a039e4e5","2","25","null","","","","","","","","","<p style='font-size: 30px;'><strong>Okay</strong></p>","null","neutral_feedback","0","test","45","","","","","","","",""
"","","","","","","","","","","","html-button-response","97","2.0.0","883282","6566391df297b5d5a039e4e5","2","25","21307","","","","","","","","","<img src= ""rock_img/I_Obsidian_16.jpg"" style=""width:8cm; height:9.3cm;""><p>What type of rock is this?</p>","4","class_response","0","test","46","Obsidian","Obsidian","16","true","5","5","",""
"","","","","","","","","","","","html-keyboard-response","98","2.0.0","883799","6566391df297b5d5a039e4e5","2","25","null","","","","","","","","","<p style='font-size: 30px;'><strong>Okay</strong></p>","null","neutral_feedback","0","test","46","","","","","","","",""
"","","","","","","","","","","","html-button-response","99","2.0.0","892977","6566391df297b5d5a039e4e5","2","25","9173","","","","","","","","","<img src= ""rock_img/I_Andesite_05.jpg"" style=""width:8cm; height:4.12cm;""><p>What type of rock is this?</p>","2","class_response","0","test","47","Diorite","Andesite","05","false","3","1","",""
"","","","","","","","","","","","html-keyboard-response","100","2.0.0","893491","6566391df297b5d5a039e4e5","2","25","null","","","","","","","","","<p style='font-size: 30px;'><strong>Okay</strong></p>","null","neutral_feedback","0","test","47","","","","","","","",""
"","","","","","","","","","","","html-button-response","101","2.0.0","915766","6566391df297b5d5a039e4e5","2","25","22272","","","","","","","","","<img src= ""rock_img/I_Gabbro_16.jpg"" style=""width:8cm; height:6.44cm;""><p>What type of rock is this?</p>","0","class_response","0","test","48","Andesite","Gabbro","16","false","1","4","",""
"","","","","","","","","","","","html-keyboard-response","102","2.0.0","916284","6566391df297b5d5a039e4e5","2","25","null","","","","","","","","","<p style='font-size: 30px;'><strong>Okay</strong></p>","null","neutral_feedback","0","test","48","","","","","","","",""
"","","","","","","","","","","","instructions","103","2.0.0","972769","6566391df297b5d5a039e4e5","2","25","56426","","","","","","","","[{""page_index"":0,""viewing_time"":19506},{""page_index"":1,""viewing_time"":27576},{""page_index"":2,""viewing_time"":9344}]","","","","","","","","","","","","","",""
"","","","","","","","","","","","html-button-response","104","2.0.0","975754","6566391df297b5d5a039e4e5","2","25","2982","","","","","","","","","","0","start_train","","","","","","","","","","",""
"","","","","","","","","","","","html-button-response","105","2.0.0","995721","6566391df297b5d5a039e4e5","2","25","19962","","","","","","","","","<img src= ""rock_img/I_Peridotite_10.jpg"" style=""width:8cm; height:5.390000000000001cm;""><p>What type of rock is this?</p>","3","class_response","1","train","1","Gabbro","Peridotite","10","false","4","7","",""
"","","","","","","","","","","","html-button-response","106","2.0.0","1004483","6566391df297b5d5a039e4e5","2","25","8759","","","","","","","","","<img src= rock_img/I_Peridotite_10.jpg style=""width:8cm; height:5.390000000000001cm;""><p style='font-size: 30px; color: red;'><strong>Incorrect!</strong></p><p style='font-size: 30px;'><strong>This rock is peridotite</strong></p>","0","corr_feedback","1","train","1","","","","","","","",""
"","","","","","","","","","","","html-button-response","107","2.0.0","1019500","6566391df297b5d5a039e4e5","2","25","15012","","","","","","","","","<img src= ""rock_img/I_Gabbro_05.jpg"" style=""width:8cm; height:6cm;""><p>What type of rock is this?</p>","3","class_response","1","train","2","Gabbro","Gabbro","05","true","4","4","",""
"","","","","","","","","","","","html-button-response","108","2.0.0","1022938","6566391df297b5d5a039e4e5","2","25","3435","","","","","","","","","<img src= rock_img/I_Gabbro_05.jpg style=""width:8cm; height:6cm;""><p style='font-size: 30px; color: green;'><strong>Correct!</strong></p><p style='font-size: 30px;'><strong>This rock is gabbro</strong></p>","0","corr_feedback","1","train","2","","","","","","","",""
"","","","","","","","","","","","html-button-response","109","2.0.0","1033175","6566391df297b5d5a039e4e5","2","25","10233","","","","","","","","","<img src= ""rock_img/I_Pegmatite_11.jpg"" style=""width:8cm; height:8.14cm;""><p>What type of rock is this?</p>","5","class_response","1","train","3","Pegmatite","Pegmatite","11","true","6","6","",""
"","","","","","","","","","","","html-button-response","110","2.0.0","1035424","6566391df297b5d5a039e4e5","2","25","2245","","","","","","","","","<img src= rock_img/I_Pegmatite_11.jpg style=""width:8cm; height:8.14cm;""><p style='font-size: 30px; color: green;'><strong>Correct!</strong></p><p style='font-size: 30px;'><strong>This rock is pegmatite</strong></p>","0","corr_feedback","1","train","3","","","","","","","",""
"","","","","","","","","","","","html-button-response","111","2.0.0","1053478","6566391df297b5d5a039e4e5","2","25","18051","","","","","","","","","<img src= ""rock_img/I_Pegmatite_10.jpg"" style=""width:8cm; height:4.16cm;""><p>What type of rock is this?</p>","6","class_response","1","train","4","Peridotite","Pegmatite","10","false","7","6","",""
"","","","","","","","","","","","html-button-response","112","2.0.0","1055434","6566391df297b5d5a039e4e5","2","25","1953","","","","","","","","","<img src= rock_img/I_Pegmatite_10.jpg style=""width:8cm; height:4.16cm;""><p style='font-size: 30px; color: red;'><strong>Incorrect!</strong></p><p style='font-size: 30px;'><strong>This rock is pegmatite</strong></p>","0","corr_feedback","1","train","4","","","","","","","",""
"","","","","","","","","","","","html-button-response","113","2.0.0","1073497","6566391df297b5d5a039e4e5","2","25","18060","","","","","","","","","<img src= ""rock_img/I_Andesite_07.jpg"" style=""width:8cm; height:5.93cm;""><p>What type of rock is this?</p>","2","class_response","1","train","5","Diorite","Andesite","07","false","3","1","",""
"","","","","","","","","","","","html-button-response","114","2.0.0","1076474","6566391df297b5d5a039e4e5","2","25","2974","","","","","","","","","<img src= rock_img/I_Andesite_07.jpg style=""width:8cm; height:5.93cm;""><p style='font-size: 30px; color: red;'><strong>Incorrect!</strong></p><p style='font-size: 30px;'><strong>This rock is andesite</strong></p>","0","corr_feedback","1","train","5","","","","","","","",""
"","","","","","","","","","","","html-button-response","115","2.0.0","1093922","6566391df297b5d5a039e4e5","2","25","17444","","","","","","","","","<img src= ""rock_img/I_Pumice_14.jpg"" style=""width:8cm; height:6.39cm;""><p>What type of rock is this?</p>","7","class_response","1","train","6","Pumice","Pumice","14","true","8","8","",""
"","","","","","","","","","","","html-button-response","116","2.0.0","1096038","6566391df297b5d5a039e4e5","2","25","2111","","","","","","","","","<img src= rock_img/I_Pumice_14.jpg style=""width:8cm; height:6.39cm;""><p style='font-size: 30px; color: green;'><strong>Correct!</strong></p><p style='font-size: 30px;'><strong>This rock is pumice</strong></p>","0","corr_feedback","1","train","6","","","","","","","",""
"","","","","","","","","","","","html-button-response","117","2.0.0","1100276","6566391df297b5d5a039e4e5","2","25","4234","","","","","","","","","<img src= ""rock_img/I_Pumice_05.jpg"" style=""width:8cm; height:7.25cm;""><p>What type of rock is this?</p>","7","class_response","1","train","7","Pumice","Pumice","05","true","8","8","",""
"","","","","","","","","","","","html-button-response","118","2.0.0","1102282","6566391df297b5d5a039e4e5","2","25","2003","","","","","","","","","<img src= rock_img/I_Pumice_05.jpg style=""width:8cm; height:7.25cm;""><p style='font-size: 30px; color: green;'><strong>Correct!</strong></p><p style='font-size: 30px;'><strong>This rock is pumice</strong></p>","0","corr_feedback","1","train","7","","","","","","","",""
"","","","","","","","","","","","html-button-response","119","2.0.0","1110064","6566391df297b5d5a039e4e5","2","25","7778","","","","","","","","","<img src= ""rock_img/I_Peridotite_12.jpg"" style=""width:8cm; height:4.54cm;""><p>What type of rock is this?</p>","2","class_response","1","train","8","Diorite","Peridotite","12","false","3","7","",""
"","","","","","","","","","","","html-button-response","120","2.0.0","1111535","6566391df297b5d5a039e4e5","2","25","1467","","","","","","","","","<img src= rock_img/I_Peridotite_12.jpg style=""width:8cm; height:4.54cm;""><p style='font-size: 30px; color: red;'><strong>Incorrect!</strong></p><p style='font-size: 30px;'><strong>This rock is peridotite</strong></p>","0","corr_feedback","1","train","8","","","","","","","",""
"","","","","","","","","","","","html-button-response","121","2.0.0","1117222","6566391df297b5d5a039e4e5","2","25","5683","","","","","","","","","<img src= ""rock_img/I_Diorite_16.jpg"" style=""width:8cm; height:6.74cm;""><p>What type of rock is this?</p>","2","class_response","1","train","9","Diorite","Diorite","16","true","3","3","",""
"","","","","","","","","","","","html-button-response","122","2.0.0","1121010","6566391df297b5d5a039e4e5","2","25","3786","","","","","","","","","<img src= rock_img/I_Diorite_16.jpg style=""width:8cm; height:6.74cm;""><p style='font-size: 30px; color: green;'><strong>Correct!</strong></p><p style='font-size: 30px;'><strong>This rock is diorite</strong></p>","0","corr_feedback","1","train","9","","","","","","","",""
"","","","","","","","","","","","html-button-response","123","2.0.0","1127900","6566391df297b5d5a039e4e5","2","25","6885","","","","","","","","","<img src= ""rock_img/I_Diorite_07.jpg"" style=""width:8cm; height:5.239999999999999cm;""><p>What type of rock is this?</p>","5","class_response","1","train","10","Pegmatite","Diorite","07","false","6","3","",""
"","","","","","","","","","","","html-button-response","124","2.0.0","1129649","6566391df297b5d5a039e4e5","2","25","1746","","","","","","","","","<img src= rock_img/I_Diorite_07.jpg style=""width:8cm; height:5.239999999999999cm;""><p style='font-size: 30px; color: red;'><strong>Incorrect!</strong></p><p style='font-size: 30px;'><strong>This rock is diorite</strong></p>","0","corr_feedback","1","train","10","","","","","","","",""
"","","","","","","","","","","","html-button-response","125","2.0.0","1137671","6566391df297b5d5a039e4e5","2","25","8019","","","","","","","","","<img src= ""rock_img/I_Obsidian_12.jpg"" style=""width:8cm; height:6.53cm;""><p>What type of rock is this?</p>","4","class_response","1","train","11","Obsidian","Obsidian","12","true","5","5","",""
"","","","","","","","","","","","html-button-response","126","2.0.0","1139407","6566391df297b5d5a039e4e5","2","25","1732","","","","","","","","","<img src= rock_img/I_Obsidian_12.jpg style=""width:8cm; height:6.53cm;""><p style='font-size: 30px; color: green;'><strong>Correct!</strong></p><p style='font-size: 30px;'><strong>This rock is obsidian</strong></p>","0","corr_feedback","1","train","11","","","","","","","",""
"","","","","","","","","","","","html-button-response","127","2.0.0","1149301","6566391df297b5d5a039e4e5","2","25","9890","","","","","","","","","<img src= ""rock_img/I_Pegmatite_06.jpg"" style=""width:8cm; height:5.17cm;""><p>What type of rock is this?</p>","2","class_response","1","train","12","Diorite","Pegmatite","06","false","3","6","",""
"","","","","","","","","","","","html-button-response","128","2.0.0","1150598","6566391df297b5d5a039e4e5","2","25","1294","","","","","","","","","<img src= rock_img/I_Pegmatite_06.jpg style=""width:8cm; height:5.17cm;""><p style='font-size: 30px; color: red;'><strong>Incorrect!</strong></p><p style='font-size: 30px;'><strong>This rock is pegmatite</strong></p>","0","corr_feedback","1","train","12","","","","","","","",""
"","","","","","","","","","","","html-button-response","129","2.0.0","1153543","6566391df297b5d5a039e4e5","2","25","2941","","","","","","","","","<img src= ""rock_img/I_Peridotite_13.jpg"" style=""width:8cm; height:7.58cm;""><p>What type of rock is this?</p>","3","class_response","1","train","13","Gabbro","Peridotite","13","false","4","7","",""
"","","","","","","","","","","","html-button-response","130","2.0.0","1155001","6566391df297b5d5a039e4e5","2","25","1455","","","","","","","","","<img src= rock_img/I_Peridotite_13.jpg style=""width:8cm; height:7.58cm;""><p style='font-size: 30px; color: red;'><strong>Incorrect!</strong></p><p style='font-size: 30px;'><strong>This rock is peridotite</strong></p>","0","corr_feedback","1","train","13","","","","","","","",""
"","","","","","","","","","","","html-button-response","131","2.0.0","1159539","6566391df297b5d5a039e4e5","2","25","4535","","","","","","","","","<img src= ""rock_img/I_Andesite_02.jpg"" style=""width:8cm; height:8.5cm;""><p>What type of rock is this?</p>","1","class_response","1","train","14","Basalt","Andesite","02","false","2","1","",""
"","","","","","","","","","","","html-button-response","132","2.0.0","1160935","6566391df297b5d5a039e4e5","2","25","1393","","","","","","","","","<img src= rock_img/I_Andesite_02.jpg style=""width:8cm; height:8.5cm;""><p style='font-size: 30px; color: red;'><strong>Incorrect!</strong></p><p style='font-size: 30px;'><strong>This rock is andesite</strong></p>","0","corr_feedback","1","train","14","","","","","","","",""
"","","","","","","","","","","","html-button-response","133","2.0.0","1163277","6566391df297b5d5a039e4e5","2","25","2339","","","","","","","","","<img src= ""rock_img/I_Diorite_09.jpg"" style=""width:8cm; height:5.27cm;""><p>What type of rock is this?</p>","2","class_response","1","train","15","Diorite","Diorite","09","true","3","3","",""
"","","","","","","","","","","","html-button-response","134","2.0.0","1164636","6566391df297b5d5a039e4e5","2","25","1356","","","","","","","","","<img src= rock_img/I_Diorite_09.jpg style=""width:8cm; height:5.27cm;""><p style='font-size: 30px; color: green;'><strong>Correct!</strong></p><p style='font-size: 30px;'><strong>This rock is diorite</strong></p>","0","corr_feedback","1","train","15","","","","","","","",""
"","","","","","","","","","","","html-button-response","135","2.0.0","1170961","6566391df297b5d5a039e4e5","2","25","6320","","","","","","","","","<img src= ""rock_img/I_Pumice_09.jpg"" style=""width:8cm; height:6.44cm;""><p>What type of rock is this?</p>","1","class_response","1","train","16","Basalt","Pumice","09","false","2","8","",""
"","","","","","","","","","","","html-button-response","136","2.0.0","1172507","6566391df297b5d5a039e4e5","2","25","1544","","","","","","","","","<img src= rock_img/I_Pumice_09.jpg style=""width:8cm; height:6.44cm;""><p style='font-size: 30px; color: red;'><strong>Incorrect!</strong></p><p style='font-size: 30px;'><strong>This rock is pumice</strong></p>","0","corr_feedback","1","train","16","","","","","","","",""
"","","","","","","","","","","","html-button-response","137","2.0.0","1174198","6566391df297b5d5a039e4e5","2","25","1686","","","","","","","","","<img src= ""rock_img/I_Diorite_11.jpg"" style=""width:8cm; height:7.11cm;""><p>What type of rock is this?</p>","2","class_response","1","train","17","Diorite","Diorite","11","true","3","3","",""
"","","","","","","","","","","","html-button-response","138","2.0.0","1175543","6566391df297b5d5a039e4e5","2","25","1342","","","","","","","","","<img src= rock_img/I_Diorite_11.jpg style=""width:8cm; height:7.11cm;""><p style='font-size: 30px; color: green;'><strong>Correct!</strong></p><p style='font-size: 30px;'><strong>This rock is diorite</strong></p>","0","corr_feedback","1","train","17","","","","","","","",""
"","","","","","","","","","","","html-button-response","139","2.0.0","1178557","6566391df297b5d5a039e4e5","2","25","3010","","","","","","","","","<img src= ""rock_img/I_Andesite_10.jpg"" style=""width:8cm; height:4.16cm;""><p>What type of rock is this?</p>","6","class_response","1","train","18","Peridotite","Andesite","10","false","7","1","",""
"","","","","","","","","","","","html-button-response","140","2.0.0","1179739","6566391df297b5d5a039e4e5","2","25","1178","","","","","","","","","<img src= rock_img/I_Andesite_10.jpg style=""width:8cm; height:4.16cm;""><p style='font-size: 30px; color: red;'><strong>Incorrect!</strong></p><p style='font-size: 30px;'><strong>This rock is andesite</strong></p>","0","corr_feedback","1","train","18","","","","","","","",""
"","","","","","","","","","","","html-button-response","141","2.0.0","1182938","6566391df297b5d5a039e4e5","2","25","3195","","","","","","","","","<img src= ""rock_img/I_Andesite_10.jpg"" style=""width:8cm; height:4.16cm;""><p>What type of rock is this?</p>","5","class_response","1","train","19","Pegmatite","Andesite","10","false","6","1","",""
"","","","","","","","","","","","html-button-response","142","2.0.0","1184154","6566391df297b5d5a039e4e5","2","25","1213","","","","","","","","","<img src= rock_img/I_Andesite_10.jpg style=""width:8cm; height:4.16cm;""><p style='font-size: 30px; color: red;'><strong>Incorrect!</strong></p><p style='font-size: 30px;'><strong>This rock is andesite</strong></p>","0","corr_feedback","1","train","19","","","","","","","",""
"","","","","","","","","","","","html-button-response","143","2.0.0","1186157","6566391df297b5d5a039e4e5","2","25","1999","","","","","","","","","<img src= ""rock_img/I_Pumice_08.jpg"" style=""width:8cm; height:6.67cm;""><p>What type of rock is this?</p>","7","class_response","1","train","20","Pumice","Pumice","08","true","8","8","",""
"","","","","","","","","","","","html-button-response","144","2.0.0","1187484","6566391df297b5d5a039e4e5","2","25","1324","","","","","","","","","<img src= rock_img/I_Pumice_08.jpg style=""width:8cm; height:6.67cm;""><p style='font-size: 30px; color: green;'><strong>Correct!</strong></p><p style='font-size: 30px;'><strong>This rock is pumice</strong></p>","0","corr_feedback","1","train","20","","","","","","","",""
"","","","","","","","","","","","html-button-response","145","2.0.0","1190072","6566391df297b5d5a039e4e5","2","25","2584","","","","","","","","","<img src= ""rock_img/I_Pegmatite_05.jpg"" style=""width:8cm; height:7.300000000000001cm;""><p>What type of rock is this?</p>","3","class_response","1","train","21","Gabbro","Pegmatite","05","false","4","6","",""
"","","","","","","","","","","","html-button-response","146","2.0.0","1191399","6566391df297b5d5a039e4e5","2","25","1323","","","","","","","","","<img src= rock_img/I_Pegmatite_05.jpg style=""width:8cm; height:7.300000000000001cm;""><p style='font-size: 30px; color: red;'><strong>Incorrect!</strong></p><p style='font-size: 30px;'><strong>This rock is pegmatite</strong></p>","0","corr_feedback","1","train","21","","","","","","","",""
"","","","","","","","","","","","html-button-response","147","2.0.0","1193356","6566391df297b5d5a039e4e5","2","25","1953","","","","","","","","","<img src= ""rock_img/I_Diorite_14.jpg"" style=""width:8cm; height:5.71cm;""><p>What type of rock is this?</p>","2","class_response","1","train","22","Diorite","Diorite","14","true","3","3","",""
"","","","","","","","","","","","html-button-response","148","2.0.0","1194747","6566391df297b5d5a039e4e5","2","25","1386","","","","","","","","","<img src= rock_img/I_Diorite_14.jpg style=""width:8cm; height:5.71cm;""><p style='font-size: 30px; color: green;'><strong>Correct!</strong></p><p style='font-size: 30px;'><strong>This rock is diorite</strong></p>","0","corr_feedback","1","train","22","","","","","","","",""
"","","","","","","","","","","","html-button-response","149","2.0.0","1197208","6566391df297b5d5a039e4e5","2","25","2457","","","","","","","","","<img src= ""rock_img/I_Peridotite_07.jpg"" style=""width:8cm; height:4.83cm;""><p>What type of rock is this?</p>","0","class_response","1","train","23","Andesite","Peridotite","07","false","1","7","",""
"","","","","","","","","","","","html-button-response","150","2.0.0","1198441","6566391df297b5d5a039e4e5","2","25","1230","","","","","","","","","<img src= rock_img/I_Peridotite_07.jpg style=""width:8cm; height:4.83cm;""><p style='font-size: 30px; color: red;'><strong>Incorrect!</strong></p><p style='font-size: 30px;'><strong>This rock is peridotite</strong></p>","0","corr_feedback","1","train","23","","","","","","","",""
"","","","","","","","","","","","html-button-response","151","2.0.0","1203306","6566391df297b5d5a039e4e5","2","25","4860","","","","","","","","","<img src= ""rock_img/I_Andesite_07.jpg"" style=""width:8cm; height:5.93cm;""><p>What type of rock is this?</p>","5","class_response","1","train","24","Pegmatite","Andesite","07","false","6","1","",""
"","","","","","","","","","","","html-button-response","152","2.0.0","1204419","6566391df297b5d5a039e4e5","2","25","1110","","","","","","","","","<img src= rock_img/I_Andesite_07.jpg style=""width:8cm; height:5.93cm;""><p style='font-size: 30px; color: red;'><strong>Incorrect!</strong></p><p style='font-size: 30px;'><strong>This rock is andesite</strong></p>","0","corr_feedback","1","train","24","","","","","","","",""
"","","","","","","","","","","","html-button-response","153","2.0.0","1207506","6566391df297b5d5a039e4e5","2","25","3083","","","","","","","","","<img src= ""rock_img/I_Gabbro_01.jpg"" style=""width:8cm; height:5.21cm;""><p>What type of rock is this?</p>","5","class_response","1","train","25","Pegmatite","Gabbro","01","false","6","4","",""
"","","","","","","","","","","","html-button-response","154","2.0.0","1208593","6566391df297b5d5a039e4e5","2","25","1084","","","","","","","","","<img src= rock_img/I_Gabbro_01.jpg style=""width:8cm; height:5.21cm;""><p style='font-size: 30px; color: red;'><strong>Incorrect!</strong></p><p style='font-size: 30px;'><strong>This rock is gabbro</strong></p>","0","corr_feedback","1","train","25","","","","","","","",""
"","","","","","","","","","","","html-button-response","155","2.0.0","1211648","6566391df297b5d5a039e4e5","2","25","3050","","","","","","","","","<img src= ""rock_img/I_Gabbro_13.jpg"" style=""width:8cm; height:5.08cm;""><p>What type of rock is this?</p>","1","class_response","1","train","26","Basalt","Gabbro","13","false","2","4","",""
"","","","","","","","","","","","html-button-response","156","2.0.0","1212738","6566391df297b5d5a039e4e5","2","25","1086","","","","","","","","","<img src= rock_img/I_Gabbro_13.jpg style=""width:8cm; height:5.08cm;""><p style='font-size: 30px; color: red;'><strong>Incorrect!</strong></p><p style='font-size: 30px;'><strong>This rock is gabbro</strong></p>","0","corr_feedback","1","train","26","","","","","","","",""
"","","","","","","","","","","","html-button-response","157","2.0.0","1218122","6566391df297b5d5a039e4e5","2","25","5380","","","","","","","","","<img src= ""rock_img/I_Pegmatite_15.jpg"" style=""width:8cm; height:6cm;""><p>What type of rock is this?</p>","6","class_response","1","train","27","Peridotite","Pegmatite","15","false","7","6","",""
"","","","","","","","","","","","html-button-response","158","2.0.0","1219272","6566391df297b5d5a039e4e5","2","25","1147","","","","","","","","","<img src= rock_img/I_Pegmatite_15.jpg style=""width:8cm; height:6cm;""><p style='font-size: 30px; color: red;'><strong>Incorrect!</strong></p><p style='font-size: 30px;'><strong>This rock is pegmatite</strong></p>","0","corr_feedback","1","train","27","","","","","","","",""
"","","","","","","","","","","","html-button-response","159","2.0.0","1243994","6566391df297b5d5a039e4e5","2","25","24719","","","","","","","","","<img src= ""rock_img/I_Gabbro_09.jpg"" style=""width:8cm; height:7.279999999999999cm;""><p>What type of rock is this?</p>","1","class_response","1","train","28","Basalt","Gabbro","09","false","2","4","",""
"","","","","","","","","","","","html-button-response","160","2.0.0","1245176","6566391df297b5d5a039e4e5","2","25","1178","","","","","","","","","<img src= rock_img/I_Gabbro_09.jpg style=""width:8cm; height:7.279999999999999cm;""><p style='font-size: 30px; color: red;'><strong>Incorrect!</strong></p><p style='font-size: 30px;'><strong>This rock is gabbro</strong></p>","0","corr_feedback","1","train","28","","","","","","","",""
"","","","","","","","","","","","html-button-response","161","2.0.0","1248195","6566391df297b5d5a039e4e5","2","25","3015","","","","","","","","","<img src= ""rock_img/I_Gabbro_14.jpg"" style=""width:8cm; height:8.48cm;""><p>What type of rock is this?</p>","0","class_response","1","train","29","Andesite","Gabbro","14","false","1","4","",""
"","","","","","","","","","","","html-button-response","162","2.0.0","1250547","6566391df297b5d5a039e4e5","2","25","2349","","","","","","","","","<img src= rock_img/I_Gabbro_14.jpg style=""width:8cm; height:8.48cm;""><p style='font-size: 30px; color: red;'><strong>Incorrect!</strong></p><p style='font-size: 30px;'><strong>This rock is gabbro</strong></p>","0","corr_feedback","1","train","29","","","","","","","",""
"","","","","","","","","","","","html-button-response","163","2.0.0","1252664","6566391df297b5d5a039e4e5","2","25","2113","","","","","","","","","<img src= ""rock_img/I_Pumice_10.jpg"" style=""width:8cm; height:7.609999999999999cm;""><p>What type of rock is this?</p>","7","class_response","1","train","30","Pumice","Pumice","10","true","8","8","",""
"","","","","","","","","","","","html-button-response","164","2.0.0","1254257","6566391df297b5d5a039e4e5","2","25","1590","","","","","","","","","<img src= rock_img/I_Pumice_10.jpg style=""width:8cm; height:7.609999999999999cm;""><p style='font-size: 30px; color: green;'><strong>Correct!</strong></p><p style='font-size: 30px;'><strong>This rock is pumice</strong></p>","0","corr_feedback","1","train","30","","","","","","","",""
"","","","","","","","","","","","html-button-response","165","2.0.0","1257047","6566391df297b5d5a039e4e5","2","25","2786","","","","","","","","","<img src= ""rock_img/I_Peridotite_08.jpg"" style=""width:8cm; height:6.7cm;""><p>What type of rock is this?</p>","7","class_response","1","train","31","Pumice","Peridotite","08","false","8","7","",""
"","","","","","","","","","","","html-button-response","166","2.0.0","1258278","6566391df297b5d5a039e4e5","2","25","1227","","","","","","","","","<img src= rock_img/I_Peridotite_08.jpg style=""width:8cm; height:6.7cm;""><p style='font-size: 30px; color: red;'><strong>Incorrect!</strong></p><p style='font-size: 30px;'><strong>This rock is peridotite</strong></p>","0","corr_feedback","1","train","31","","","","","","","",""
"","","","","","","","","","","","html-button-response","167","2.0.0","1266387","6566391df297b5d5a039e4e5","2","25","8106","","","","","","","","","<img src= ""rock_img/I_Basalt_10.jpg"" style=""width:8cm; height:5.85cm;""><p>What type of rock is this?</p>","4","class_response","1","train","32","Obsidian","Basalt","10","false","5","2","",""
"","","","","","","","","","","","html-button-response","168","2.0.0","1267618","6566391df297b5d5a039e4e5","2","25","1227","","","","","","","","","<img src= rock_img/I_Basalt_10.jpg style=""width:8cm; height:5.85cm;""><p style='font-size: 30px; color: red;'><strong>Incorrect!</strong></p><p style='font-size: 30px;'><strong>This rock is basalt</strong></p>","0","corr_feedback","1","train","32","","","","","","","",""
"","","","","","","","","","","","html-button-response","169","2.0.0","1270904","6566391df297b5d5a039e4e5","2","25","3282","","","","","","","","","<img src= ""rock_img/I_Basalt_16.jpg"" style=""width:8cm; height:7.659999999999999cm;""><p>What type of rock is this?</p>","6","class_response","1","train","33","Peridotite","Basalt","16","false","7","2","",""
"","","","","","","","","","","","html-button-response","170","2.0.0","1271913","6566391df297b5d5a039e4e5","2","25","1005","","","","","","","","","<img src= rock_img/I_Basalt_16.jpg style=""width:8cm; height:7.659999999999999cm;""><p style='font-size: 30px; color: red;'><strong>Incorrect!</strong></p><p style='font-size: 30px;'><strong>This rock is basalt</strong></p>","0","corr_feedback","1","train","33","","","","","","","",""
"","","","","","","","","","","","html-button-response","171","2.0.0","1274960","6566391df297b5d5a039e4e5","2","25","3043","","","","","","","","","<img src= ""rock_img/I_Basalt_01.jpg"" style=""width:8cm; height:7.880000000000001cm;""><p>What type of rock is this?</p>","4","class_response","1","train","34","Obsidian","Basalt","01","false","5","2","",""
"","","","","","","","","","","","html-button-response","172","2.0.0","1276289","6566391df297b5d5a039e4e5","2","25","1326","","","","","","","","","<img src= rock_img/I_Basalt_01.jpg style=""width:8cm; height:7.880000000000001cm;""><p style='font-size: 30px; color: red;'><strong>Incorrect!</strong></p><p style='font-size: 30px;'><strong>This rock is basalt</strong></p>","0","corr_feedback","1","train","34","","","","","","","",""
"","","","","","","","","","","","html-button-response","173","2.0.0","1278768","6566391df297b5d5a039e4e5","2","25","2475","","","","","","","","","<img src= ""rock_img/I_Peridotite_06.jpg"" style=""width:8cm; height:7.53cm;""><p>What type of rock is this?</p>","2","class_response","1","train","35","Diorite","Peridotite","06","false","3","7","",""
"","","","","","","","","","","","html-button-response","174","2.0.0","1279841","6566391df297b5d5a039e4e5","2","25","1070","","","","","","","","","<img src= rock_img/I_Peridotite_06.jpg style=""width:8cm; height:7.53cm;""><p style='font-size: 30px; color: red;'><strong>Incorrect!</strong></p><p style='font-size: 30px;'><strong>This rock is peridotite</strong></p>","0","corr_feedback","1","train","35","","","","","","","",""
"","","","","","","","","","","","html-button-response","175","2.0.0","1282386","6566391df297b5d5a039e4e5","2","25","2541","","","","","","","","","<img src= ""rock_img/I_Diorite_12.jpg"" style=""width:8cm; height:4.88cm;""><p>What type of rock is this?</p>","1","class_response","1","train","36","Basalt","Diorite","12","false","2","3","",""
"","","","","","","","","","","","html-button-response","176","2.0.0","1283287","6566391df297b5d5a039e4e5","2","25","898","","","","","","","","","<img src= rock_img/I_Diorite_12.jpg style=""width:8cm; height:4.88cm;""><p style='font-size: 30px; color: red;'><strong>Incorrect!</strong></p><p style='font-size: 30px;'><strong>This rock is diorite</strong></p>","0","corr_feedback","1","train","36","","","","","","","",""
"","","","","","","","","","","","html-button-response","177","2.0.0","1285492","6566391df297b5d5a039e4e5","2","25","2201","","","","","","","","","<img src= ""rock_img/I_Gabbro_14.jpg"" style=""width:8cm; height:8.48cm;""><p>What type of rock is this?</p>","2","class_response","1","train","37","Diorite","Gabbro","14","false","3","4","",""
"","","","","","","","","","","","html-button-response","178","2.0.0","1286520","6566391df297b5d5a039e4e5","2","25","1024","","","","","","","","","<img src= rock_img/I_Gabbro_14.jpg style=""width:8cm; height:8.48cm;""><p style='font-size: 30px; color: red;'><strong>Incorrect!</strong></p><p style='font-size: 30px;'><strong>This rock is gabbro</strong></p>","0","corr_feedback","1","train","37","","","","","","","",""
"","","","","","","","","","","","html-button-response","179","2.0.0","1289690","6566391df297b5d5a039e4e5","2","25","3167","","","","","","","","","<img src= ""rock_img/I_Obsidian_05.jpg"" style=""width:8cm; height:6.33cm;""><p>What type of rock is this?</p>","6","class_response","1","train","38","Peridotite","Obsidian","05","false","7","5","",""
"","","","","","","","","","","","html-button-response","180","2.0.0","1290762","6566391df297b5d5a039e4e5","2","25","1069","","","","","","","","","<img src= rock_img/I_Obsidian_05.jpg style=""width:8cm; height:6.33cm;""><p style='font-size: 30px; color: red;'><strong>Incorrect!</strong></p><p style='font-size: 30px;'><strong>This rock is obsidian</strong></p>","0","corr_feedback","1","train","38","","","","","","","",""
"","","","","","","","","","","","html-button-response","181","2.0.0","1292737","6566391df297b5d5a039e4e5","2","25","1969","","","","","","","","","<img src= ""rock_img/I_Diorite_12.jpg"" style=""width:8cm; height:4.88cm;""><p>What type of rock is this?</p>","7","class_response","1","train","39","Pumice","Diorite","12","false","8","3","",""
"","","","","","","","","","","","html-button-response","182","2.0.0","1293781","6566391df297b5d5a039e4e5","2","25","1041","","","","","","","","","<img src= rock_img/I_Diorite_12.jpg style=""width:8cm; height:4.88cm;""><p style='font-size: 30px; color: red;'><strong>Incorrect!</strong></p><p style='font-size: 30px;'><strong>This rock is diorite</strong></p>","0","corr_feedback","1","train","39","","","","","","","",""
"","","","","","","","","","","","html-button-response","183","2.0.0","1296155","6566391df297b5d5a039e4e5","2","25","2371","","","","","","","","","<img src= ""rock_img/I_Andesite_01.jpg"" style=""width:8cm; height:5.87cm;""><p>What type of rock is this?</p>","0","class_response","1","train","40","Andesite","Andesite","01","true","1","1","",""
"","","","","","","","","","","","html-button-response","184","2.0.0","1297642","6566391df297b5d5a039e4e5","2","25","1484","","","","","","","","","<img src= rock_img/I_Andesite_01.jpg style=""width:8cm; height:5.87cm;""><p style='font-size: 30px; color: green;'><strong>Correct!</strong></p><p style='font-size: 30px;'><strong>This rock is andesite</strong></p>","0","corr_feedback","1","train","40","","","","","","","",""
"","","","","","","","","","","","html-button-response","185","2.0.0","1303076","6566391df297b5d5a039e4e5","2","25","5430","","","","","","","","","<img src= ""rock_img/I_Andesite_11.jpg"" style=""width:8cm; height:4.92cm;""><p>What type of rock is this?</p>","2","class_response","1","train","41","Diorite","Andesite","11","false","3","1","",""
"","","","","","","","","","","","html-button-response","186","2.0.0","1303959","6566391df297b5d5a039e4e5","2","25","880","","","","","","","","","<img src= rock_img/I_Andesite_11.jpg style=""width:8cm; height:4.92cm;""><p style='font-size: 30px; color: red;'><strong>Incorrect!</strong></p><p style='font-size: 30px;'><strong>This rock is andesite</strong></p>","0","corr_feedback","1","train","41","","","","","","","",""
"","","","","","","","","","","","html-button-response","187","2.0.0","1305763","6566391df297b5d5a039e4e5","2","25","1801","","","","","","","","","<img src= ""rock_img/I_Gabbro_12.jpg"" style=""width:8cm; height:7.800000000000001cm;""><p>What type of rock is this?</p>","7","class_response","1","train","42","Pumice","Gabbro","12","false","8","4","",""
"","","","","","","","","","","","html-button-response","188","2.0.0","1306963","6566391df297b5d5a039e4e5","2","25","1197","","","","","","","","","<img src= rock_img/I_Gabbro_12.jpg style=""width:8cm; height:7.800000000000001cm;""><p style='font-size: 30px; color: red;'><strong>Incorrect!</strong></p><p style='font-size: 30px;'><strong>This rock is gabbro</strong></p>","0","corr_feedback","1","train","42","","","","","","","",""
"","","","","","","","","","","","html-button-response","189","2.0.0","1319473","6566391df297b5d5a039e4e5","2","25","12507","","","","","","","","","<img src= ""rock_img/I_Obsidian_07.jpg"" style=""width:8cm; height:4.76cm;""><p>What type of rock is this?</p>","0","class_response","1","train","43","Andesite","Obsidian","07","false","1","5","",""
"","","","","","","","","","","","html-button-response","190","2.0.0","1321195","6566391df297b5d5a039e4e5","2","25","1719","","","","","","","","","<img src= rock_img/I_Obsidian_07.jpg style=""width:8cm; height:4.76cm;""><p style='font-size: 30px; color: red;'><strong>Incorrect!</strong></p><p style='font-size: 30px;'><strong>This rock is obsidian</strong></p>","0","corr_feedback","1","train","43","","","","","","","",""
"","","","","","","","","","","","html-button-response","191","2.0.0","1323211","6566391df297b5d5a039e4e5","2","25","2013","","","","","","","","","<img src= ""rock_img/I_Andesite_09.jpg"" style=""width:8cm; height:6cm;""><p>What type of rock is this?</p>","7","class_response","1","train","44","Pumice","Andesite","09","false","8","1","",""
"","","","","","","","","","","","html-button-response","192","2.0.0","1324412","6566391df297b5d5a039e4e5","2","25","1198","","","","","","","","","<img src= rock_img/I_Andesite_09.jpg style=""width:8cm; height:6cm;""><p style='font-size: 30px; color: red;'><strong>Incorrect!</strong></p><p style='font-size: 30px;'><strong>This rock is andesite</strong></p>","0","corr_feedback","1","train","44","","","","","","","",""
"","","","","","","","","","","","html-button-response","193","2.0.0","1327222","6566391df297b5d5a039e4e5","2","25","2806","","","","","","","","","<img src= ""rock_img/I_Basalt_06.jpg"" style=""width:8cm; height:7.06cm;""><p>What type of rock is this?</p>","5","class_response","1","train","45","Pegmatite","Basalt","06","false","6","2","",""
"","","","","","","","","","","","html-button-response","194","2.0.0","1328311","6566391df297b5d5a039e4e5","2","25","1085","","","","","","","","","<img src= rock_img/I_Basalt_06.jpg style=""width:8cm; height:7.06cm;""><p style='font-size: 30px; color: red;'><strong>Incorrect!</strong></p><p style='font-size: 30px;'><strong>This rock is basalt</strong></p>","0","corr_feedback","1","train","45","","","","","","","",""
"","","","","","","","","","","","html-button-response","195","2.0.0","1336373","6566391df297b5d5a039e4e5","2","25","8059","","","","","","","","","<img src= ""rock_img/I_Pegmatite_08.jpg"" style=""width:8cm; height:7.68cm;""><p>What type of rock is this?</p>","5","class_response","1","train","46","Pegmatite","Pegmatite","08","true","6","6","",""
"","","","","","","","","","","","html-button-response","196","2.0.0","1338500","6566391df297b5d5a039e4e5","2","25","2125","","","","","","","","","<img src= rock_img/I_Pegmatite_08.jpg style=""width:8cm; height:7.68cm;""><p style='font-size: 30px; color: green;'><strong>Correct!</strong></p><p style='font-size: 30px;'><strong>This rock is pegmatite</strong></p>","0","corr_feedback","1","train","46","","","","","","","",""
"","","","","","","","","","","","html-button-response","197","2.0.0","1343955","6566391df297b5d5a039e4e5","2","25","5451","","","","","","","","","<img src= ""rock_img/I_Gabbro_13.jpg"" style=""width:8cm; height:5.08cm;""><p>What type of rock is this?</p>","7","class_response","1","train","47","Pumice","Gabbro","13","false","8","4","",""
"","","","","","","","","","","","html-button-response","198","2.0.0","1345139","6566391df297b5d5a039e4e5","2","25","1180","","","","","","","","","<img src= rock_img/I_Gabbro_13.jpg style=""width:8cm; height:5.08cm;""><p style='font-size: 30px; color: red;'><strong>Incorrect!</strong></p><p style='font-size: 30px;'><strong>This rock is gabbro</strong></p>","0","corr_feedback","1","train","47","","","","","","","",""
"","","","","","","","","","","","html-button-response","199","2.0.0","1349916","6566391df297b5d5a039e4e5","2","25","4774","","","","","","","","","<img src= ""rock_img/I_Basalt_09.jpg"" style=""width:8cm; height:6.2cm;""><p>What type of rock is this?</p>","1","class_response","1","train","48","Basalt","Basalt","09","true","2","2","",""
"","","","","","","","","","","","html-button-response","200","2.0.0","1351114","6566391df297b5d5a039e4e5","2","25","1195","","","","","","","","","<img src= rock_img/I_Basalt_09.jpg style=""width:8cm; height:6.2cm;""><p style='font-size: 30px; color: green;'><strong>Correct!</strong></p><p style='font-size: 30px;'><strong>This rock is basalt</strong></p>","0","corr_feedback","1","train","48","","","","","","","",""
"","","","","","","","","","","","instructions","203","2.0.0","1372497","6566391df297b5d5a039e4e5","2","25","21379","","","","","","","","[{""page_index"":0,""viewing_time"":8639},{""page_index"":1,""viewing_time"":12740}]","","","","","","","","","","","","","",""
"","","","","","","","","","","","html-button-response","204","2.0.0","1374315","6566391df297b5d5a039e4e5","2","25","1813","","","","","","","","","","0","start_test","","","","","","","","","","",""
"","","","","","","","","","","","html-button-response","205","2.0.0","1426382","6566391df297b5d5a039e4e5","2","25","52063","","","","","","","","","<img src= ""rock_img/I_Pegmatite_09.jpg"" style=""width:8cm; height:4.03cm;""><p>What type of rock is this?</p>","3","class_response","1","test","1","Gabbro","Pegmatite","09","false","4","6","",""
"","","","","","","","","","","","html-keyboard-response","206","2.0.0","1426897","6566391df297b5d5a039e4e5","2","25","null","","","","","","","","","<p style='font-size: 30px;'><strong>Okay</strong></p>","null","neutral_feedback","1","test","1","","","","","","","",""
"","","","","","","","","","","","html-button-response","207","2.0.0","1438661","6566391df297b5d5a039e4e5","2","25","11759","","","","","","","","","<img src= ""rock_img/I_Basalt_04.jpg"" style=""width:8cm; height:7.53cm;""><p>What type of rock is this?</p>","4","class_response","1","test","2","Obsidian","Basalt","04","false","5","2","",""
"","","","","","","","","","","","html-keyboard-response","208","2.0.0","1439170","6566391df297b5d5a039e4e5","2","25","null","","","","","","","","","<p style='font-size: 30px;'><strong>Okay</strong></p>","null","neutral_feedback","1","test","2","","","","","","","",""
"","","","","","","","","","","","html-button-response","209","2.0.0","1444631","6566391df297b5d5a039e4e5","2","25","5458","","","","","","","","","<img src= ""rock_img/I_Gabbro_15.jpg"" style=""width:8cm; height:6.29cm;""><p>What type of rock is this?</p>","0","class_response","1","test","3","Andesite","Gabbro","15","false","1","4","",""
"","","","","","","","","","","","html-keyboard-response","210","2.0.0","1445149","6566391df297b5d5a039e4e5","2","25","null","","","","","","","","","<p style='font-size: 30px;'><strong>Okay</strong></p>","null","neutral_feedback","1","test","3","","","","","","","",""
"","","","","","","","","","","","html-button-response","211","2.0.0","1447621","6566391df297b5d5a039e4e5","2","25","2468","","","","","","","","","<img src= ""rock_img/I_Diorite_10.jpg"" style=""width:8cm; height:5.949999999999999cm;""><p>What type of rock is this?</p>","7","class_response","1","test","4","Pumice","Diorite","10","false","8","3","",""
"","","","","","","","","","","","html-keyboard-response","212","2.0.0","1448137","6566391df297b5d5a039e4e5","2","25","null","","","","","","","","","<p style='font-size: 30px;'><strong>Okay</strong></p>","null","neutral_feedback","1","test","4","","","","","","","",""
"","","","","","","","","","","","html-button-response","213","2.0.0","1449867","6566391df297b5d5a039e4e5","2","25","1727","","","","","","","","","<img src= ""rock_img/I_Pumice_15.jpg"" style=""width:8cm; height:7.86cm;""><p>What type of rock is this?</p>","7","class_response","1","test","5","Pumice","Pumice","15","true","8","8","",""
"","","","","","","","","","","","html-keyboard-response","214","2.0.0","1450384","6566391df297b5d5a039e4e5","2","25","null","","","","","","","","","<p style='font-size: 30px;'><strong>Okay</strong></p>","null","neutral_feedback","1","test","5","","","","","","","",""
"","","","","","","","","","","","html-button-response","215","2.0.0","1455617","6566391df297b5d5a039e4e5","2","25","5230","","","","","","","","","<img src= ""rock_img/I_Obsidian_02.jpg"" style=""width:8cm; height:7.51cm;""><p>What type of rock is this?</p>","4","class_response","1","test","6","Obsidian","Obsidian","02","true","5","5","",""
"","","","","","","","","","","","html-keyboard-response","216","2.0.0","1456134","6566391df297b5d5a039e4e5","2","25","null","","","","","","","","","<p style='font-size: 30px;'><strong>Okay</strong></p>","null","neutral_feedback","1","test","6","","","","","","","",""
"","","","","","","","","","","","html-button-response","217","2.0.0","1458145","6566391df297b5d5a039e4e5","2","25","2005","","","","","","","","","<img src= ""rock_img/I_Andesite_04.jpg"" style=""width:8cm; height:5.96cm;""><p>What type of rock is this?</p>","6","class_response","1","test","7","Peridotite","Andesite","04","false","7","1","",""
"","","","","","","","","","","","html-keyboard-response","218","2.0.0","1458661","6566391df297b5d5a039e4e5","2","25","null","","","","","","","","","<p style='font-size: 30px;'><strong>Okay</strong></p>","null","neutral_feedback","1","test","7","","","","","","","",""
"","","","","","","","","","","","html-button-response","219","2.0.0","1461918","6566391df297b5d5a039e4e5","2","25","3254","","","","","","","","","<img src= ""rock_img/I_Obsidian_10.jpg"" style=""width:8cm; height:6.260000000000001cm;""><p>What type of rock is this?</p>","5","class_response","1","test","8","Pegmatite","Obsidian","10","false","6","5","",""
"","","","","","","","","","","","html-keyboard-response","220","2.0.0","1462435","6566391df297b5d5a039e4e5","2","25","null","","","","","","","","","<p style='font-size: 30px;'><strong>Okay</strong></p>","null","neutral_feedback","1","test","8","","","","","","","",""
"","","","","","","","","","","","html-button-response","221","2.0.0","1468379","6566391df297b5d5a039e4e5","2","25","5940","","","","","","","","","<img src= ""rock_img/I_Pegmatite_07.jpg"" style=""width:8cm; height:6.7cm;""><p>What type of rock is this?</p>","5","class_response","1","test","9","Pegmatite","Pegmatite","07","true","6","6","",""
"","","","","","","","","","","","html-keyboard-response","222","2.0.0","1468895","6566391df297b5d5a039e4e5","2","25","null","","","","","","","","","<p style='font-size: 30px;'><strong>Okay</strong></p>","null","neutral_feedback","1","test","9","","","","","","","",""
"","","","","","","","","","","","html-button-response","223","2.0.0","1472693","6566391df297b5d5a039e4e5","2","25","3794","","","","","","","","","<img src= ""rock_img/I_Diorite_06.jpg"" style=""width:8cm; height:6.03cm;""><p>What type of rock is this?</p>","6","class_response","1","test","10","Peridotite","Diorite","06","false","7","3","",""
"","","","","","","","","","","","html-keyboard-response","224","2.0.0","1473210","6566391df297b5d5a039e4e5","2","25","null","","","","","","","","","<p style='font-size: 30px;'><strong>Okay</strong></p>","null","neutral_feedback","1","test","10","","","","","","","",""
"","","","","","","","","","","","html-button-response","225","2.0.0","1477385","6566391df297b5d5a039e4e5","2","25","4171","","","","","","","","","<img src= ""rock_img/I_Obsidian_08.jpg"" style=""width:8cm; height:7.39cm;""><p>What type of rock is this?</p>","4","class_response","1","test","11","Obsidian","Obsidian","08","true","5","5","",""
"","","","","","","","","","","","html-keyboard-response","226","2.0.0","1477895","6566391df297b5d5a039e4e5","2","25","null","","","","","","","","","<p style='font-size: 30px;'><strong>Okay</strong></p>","null","neutral_feedback","1","test","11","","","","","","","",""
"","","","","","","","","","","","html-button-response","227","2.0.0","1479576","6566391df297b5d5a039e4e5","2","25","1677","","","","","","","","","<img src= ""rock_img/I_Basalt_12.jpg"" style=""width:8cm; height:6.010000000000001cm;""><p>What type of rock is this?</p>","7","class_response","1","test","12","Pumice","Basalt","12","false","8","2","",""
"","","","","","","","","","","","html-keyboard-response","228","2.0.0","1480092","6566391df297b5d5a039e4e5","2","25","null","","","","","","","","","<p style='font-size: 30px;'><strong>Okay</strong></p>","null","neutral_feedback","1","test","12","","","","","","","",""
"","","","","","","","","","","","html-button-response","229","2.0.0","1484044","6566391df297b5d5a039e4e5","2","25","3947","","","","","","","","","<img src= ""rock_img/I_Peridotite_05.jpg"" style=""width:8cm; height:7.1499999999999995cm;""><p>What type of rock is this?</p>","0","class_response","1","test","13","Andesite","Peridotite","05","false","1","7","",""
"","","","","","","","","","","","html-keyboard-response","230","2.0.0","1484553","6566391df297b5d5a039e4e5","2","25","null","","","","","","","","","<p style='font-size: 30px;'><strong>Okay</strong></p>","null","neutral_feedback","1","test","13","","","","","","","",""
"","","","","","","","","","","","html-button-response","231","2.0.0","1486901","6566391df297b5d5a039e4e5","2","25","2346","","","","","","","","","<img src= ""rock_img/I_Pumice_16.jpg"" style=""width:8cm; height:6.79cm;""><p>What type of rock is this?</p>","1","class_response","1","test","14","Basalt","Pumice","16","false","2","8","",""
"","","","","","","","","","","","html-keyboard-response","232","2.0.0","1487418","6566391df297b5d5a039e4e5","2","25","null","","","","","","","","","<p style='font-size: 30px;'><strong>Okay</strong></p>","null","neutral_feedback","1","test","14","","","","","","","",""
"","","","","","","","","","","","html-button-response","233","2.0.0","1489062","6566391df297b5d5a039e4e5","2","25","1641","","","","","","","","","<img src= ""rock_img/I_Diorite_08.jpg"" style=""width:8cm; height:6.37cm;""><p>What type of rock is this?</p>","2","class_response","1","test","15","Diorite","Diorite","08","true","3","3","",""
"","","","","","","","","","","","html-keyboard-response","234","2.0.0","1489577","6566391df297b5d5a039e4e5","2","25","null","","","","","","","","","<p style='font-size: 30px;'><strong>Okay</strong></p>","null","neutral_feedback","1","test","15","","","","","","","",""
"","","","","","","","","","","","html-button-response","235","2.0.0","1491789","6566391df297b5d5a039e4e5","2","25","2208","","","","","","","","","<img src= ""rock_img/I_Gabbro_10.jpg"" style=""width:8cm; height:5.680000000000001cm;""><p>What type of rock is this?</p>","1","class_response","1","test","16","Basalt","Gabbro","10","false","2","4","",""
"","","","","","","","","","","","html-keyboard-response","236","2.0.0","1492292","6566391df297b5d5a039e4e5","2","25","null","","","","","","","","","<p style='font-size: 30px;'><strong>Okay</strong></p>","null","neutral_feedback","1","test","16","","","","","","","",""
"","","","","","","","","","","","html-button-response","237","2.0.0","1495746","6566391df297b5d5a039e4e5","2","25","3450","","","","","","","","","<img src= ""rock_img/I_Peridotite_16.jpg"" style=""width:8cm; height:6.989999999999999cm;""><p>What type of rock is this?</p>","5","class_response","1","test","17","Pegmatite","Peridotite","16","false","6","7","",""
"","","","","","","","","","","","html-keyboard-response","238","2.0.0","1496264","6566391df297b5d5a039e4e5","2","25","null","","","","","","","","","<p style='font-size: 30px;'><strong>Okay</strong></p>","null","neutral_feedback","1","test","17","","","","","","","",""
"","","","","","","","","","","","html-button-response","239","2.0.0","1498734","6566391df297b5d5a039e4e5","2","25","2466","","","","","","","","","<img src= ""rock_img/I_Diorite_15.jpg"" style=""width:8cm; height:5.54cm;""><p>What type of rock is this?</p>","6","class_response","1","test","18","Peridotite","Diorite","15","false","7","3","",""
"","","","","","","","","","","","html-keyboard-response","240","2.0.0","1499251","6566391df297b5d5a039e4e5","2","25","null","","","","","","","","","<p style='font-size: 30px;'><strong>Okay</strong></p>","null","neutral_feedback","1","test","18","","","","","","","",""
"","","","","","","","","","","","html-button-response","241","2.0.0","1516829","6566391df297b5d5a039e4e5","2","25","17574","","","","","","","","","<img src= ""rock_img/I_Peridotite_04.jpg"" style=""width:8cm; height:6.680000000000001cm;""><p>What type of rock is this?</p>","2","class_response","1","test","19","Diorite","Peridotite","04","false","3","7","",""
"","","","","","","","","","","","html-keyboard-response","242","2.0.0","1517344","6566391df297b5d5a039e4e5","2","25","null","","","","","","","","","<p style='font-size: 30px;'><strong>Okay</strong></p>","null","neutral_feedback","1","test","19","","","","","","","",""
"","","","","","","","","","","","html-button-response","243","2.0.0","1519853","6566391df297b5d5a039e4e5","2","25","2505","","","","","","","","","<img src= ""rock_img/I_Andesite_03.jpg"" style=""width:8cm; height:5.73cm;""><p>What type of rock is this?</p>","1","class_response","1","test","20","Basalt","Andesite","03","false","2","1","",""
"","","","","","","","","","","","html-keyboard-response","244","2.0.0","1520370","6566391df297b5d5a039e4e5","2","25","null","","","","","","","","","<p style='font-size: 30px;'><strong>Okay</strong></p>","null","neutral_feedback","1","test","20","","","","","","","",""
"","","","","","","","","","","","html-button-response","245","2.0.0","1522048","6566391df297b5d5a039e4e5","2","25","1674","","","","","","","","","<img src= ""rock_img/I_Diorite_02.jpg"" style=""width:8cm; height:6.27cm;""><p>What type of rock is this?</p>","2","class_response","1","test","21","Diorite","Diorite","02","true","3","3","",""
"","","","","","","","","","","","html-keyboard-response","246","2.0.0","1522564","6566391df297b5d5a039e4e5","2","25","null","","","","","","","","","<p style='font-size: 30px;'><strong>Okay</strong></p>","null","neutral_feedback","1","test","21","","","","","","","",""
"","","","","","","","","","","","html-button-response","247","2.0.0","1524647","6566391df297b5d5a039e4e5","2","25","2079","","","","","","","","","<img src= ""rock_img/I_Andesite_16.jpg"" style=""width:8cm; height:6.010000000000001cm;""><p>What type of rock is this?</p>","6","class_response","1","test","22","Peridotite","Andesite","16","false","7","1","",""
"","","","","","","","","","","","html-keyboard-response","248","2.0.0","1525162","6566391df297b5d5a039e4e5","2","25","null","","","","","","","","","<p style='font-size: 30px;'><strong>Okay</strong></p>","null","neutral_feedback","1","test","22","","","","","","","",""
"","","","","","","","","","","","html-button-response","249","2.0.0","1528260","6566391df297b5d5a039e4e5","2","25","3094","","","","","","","","","<img src= ""rock_img/I_Basalt_08.jpg"" style=""width:8cm; height:10.44cm;""><p>What type of rock is this?</p>","4","class_response","1","test","23","Obsidian","Basalt","08","false","5","2","",""
"","","","","","","","","","","","html-keyboard-response","250","2.0.0","1528762","6566391df297b5d5a039e4e5","2","25","null","","","","","","","","","<p style='font-size: 30px;'><strong>Okay</strong></p>","null","neutral_feedback","1","test","23","","","","","","","",""
"","","","","","","","","","","","html-button-response","251","2.0.0","1530581","6566391df297b5d5a039e4e5","2","25","1815","","","","","","","","","<img src= ""rock_img/I_Peridotite_15.jpg"" style=""width:8cm; height:6cm;""><p>What type of rock is this?</p>","2","class_response","1","test","24","Diorite","Peridotite","15","false","3","7","",""
"","","","","","","","","","","","html-keyboard-response","252","2.0.0","1531097","6566391df297b5d5a039e4e5","2","25","null","","","","","","","","","<p style='font-size: 30px;'><strong>Okay</strong></p>","null","neutral_feedback","1","test","24","","","","","","","",""
"","","","","","","","","","","","html-button-response","253","2.0.0","1532733","6566391df297b5d5a039e4e5","2","25","1633","","","","","","","","","<img src= ""rock_img/I_Obsidian_09.jpg"" style=""width:8cm; height:5cm;""><p>What type of rock is this?</p>","4","class_response","1","test","25","Obsidian","Obsidian","09","true","5","5","",""
"","","","","","","","","","","","html-keyboard-response","254","2.0.0","1533252","6566391df297b5d5a039e4e5","2","25","null","","","","","","","","","<p style='font-size: 30px;'><strong>Okay</strong></p>","null","neutral_feedback","1","test","25","","","","","","","",""
"","","","","","","","","","","","html-button-response","255","2.0.0","1535842","6566391df297b5d5a039e4e5","2","25","2586","","","","","","","","","<img src= ""rock_img/I_Pegmatite_12.jpg"" style=""width:8cm; height:5.7cm;""><p>What type of rock is this?</p>","5","class_response","1","test","26","Pegmatite","Pegmatite","12","true","6","6","",""
"","","","","","","","","","","","html-keyboard-response","256","2.0.0","1536360","6566391df297b5d5a039e4e5","2","25","null","","","","","","","","","<p style='font-size: 30px;'><strong>Okay</strong></p>","null","neutral_feedback","1","test","26","","","","","","","",""
"","","","","","","","","","","","html-button-response","257","2.0.0","1538377","6566391df297b5d5a039e4e5","2","25","2013","","","","","","","","","<img src= ""rock_img/I_Gabbro_16.jpg"" style=""width:8cm; height:6.44cm;""><p>What type of rock is this?</p>","0","class_response","1","test","27","Andesite","Gabbro","16","false","1","4","",""
"","","","","","","","","","","","html-keyboard-response","258","2.0.0","1538895","6566391df297b5d5a039e4e5","2","25","null","","","","","","","","","<p style='font-size: 30px;'><strong>Okay</strong></p>","null","neutral_feedback","1","test","27","","","","","","","",""
"","","","","","","","","","","","html-button-response","259","2.0.0","1540971","6566391df297b5d5a039e4e5","2","25","2072","","","","","","","","","<img src= ""rock_img/I_Pegmatite_03.jpg"" style=""width:8cm; height:5.239999999999999cm;""><p>What type of rock is this?</p>","6","class_response","1","test","28","Peridotite","Pegmatite","03","false","7","6","",""
"","","","","","","","","","","","html-keyboard-response","260","2.0.0","1541488","6566391df297b5d5a039e4e5","2","25","null","","","","","","","","","<p style='font-size: 30px;'><strong>Okay</strong></p>","null","neutral_feedback","1","test","28","","","","","","","",""
"","","","","","","","","","","","html-button-response","261","2.0.0","1543325","6566391df297b5d5a039e4e5","2","25","1833","","","","","","","","","<img src= ""rock_img/I_Andesite_14.jpg"" style=""width:8cm; height:5.449999999999999cm;""><p>What type of rock is this?</p>","2","class_response","1","test","29","Diorite","Andesite","14","false","3","1","",""
"","","","","","","","","","","","html-keyboard-response","262","2.0.0","1543841","6566391df297b5d5a039e4e5","2","25","null","","","","","","","","","<p style='font-size: 30px;'><strong>Okay</strong></p>","null","neutral_feedback","1","test","29","","","","","","","",""
"","","","","","","","","","","","html-button-response","263","2.0.0","1545389","6566391df297b5d5a039e4e5","2","25","1544","","","","","","","","","<img src= ""rock_img/I_Andesite_06.jpg"" style=""width:8cm; height:6.840000000000001cm;""><p>What type of rock is this?</p>","1","class_response","1","test","30","Basalt","Andesite","06","false","2","1","",""
"","","","","","","","","","","","html-keyboard-response","264","2.0.0","1545906","6566391df297b5d5a039e4e5","2","25","null","","","","","","","","","<p style='font-size: 30px;'><strong>Okay</strong></p>","null","neutral_feedback","1","test","30","","","","","","","",""
"","","","","","","","","","","","html-button-response","265","2.0.0","1547429","6566391df297b5d5a039e4e5","2","25","1518","","","","","","","","","<img src= ""rock_img/I_Gabbro_11.jpg"" style=""width:8cm; height:6.2cm;""><p>What type of rock is this?</p>","4","class_response","1","test","31","Obsidian","Gabbro","11","false","5","4","",""
"","","","","","","","","","","","html-keyboard-response","266","2.0.0","1547946","6566391df297b5d5a039e4e5","2","25","null","","","","","","","","","<p style='font-size: 30px;'><strong>Okay</strong></p>","null","neutral_feedback","1","test","31","","","","","","","",""
"","","","","","","","","","","","html-button-response","267","2.0.0","1549698","6566391df297b5d5a039e4e5","2","25","1748","","","","","","","","","<img src= ""rock_img/I_Pegmatite_16.jpg"" style=""width:8cm; height:5.8cm;""><p>What type of rock is this?</p>","0","class_response","1","test","32","Andesite","Pegmatite","16","false","1","6","",""
"","","","","","","","","","","","html-keyboard-response","268","2.0.0","1550215","6566391df297b5d5a039e4e5","2","25","null","","","","","","","","","<p style='font-size: 30px;'><strong>Okay</strong></p>","null","neutral_feedback","1","test","32","","","","","","","",""
"","","","","","","","","","","","html-button-response","269","2.0.0","1552201","6566391df297b5d5a039e4e5","2","25","1982","","","","","","","","","<img src= ""rock_img/I_Basalt_14.jpg"" style=""width:8cm; height:5.82cm;""><p>What type of rock is this?</p>","6","class_response","1","test","33","Peridotite","Basalt","14","false","7","2","",""
"","","","","","","","","","","","html-keyboard-response","270","2.0.0","1552716","6566391df297b5d5a039e4e5","2","25","null","","","","","","","","","<p style='font-size: 30px;'><strong>Okay</strong></p>","null","neutral_feedback","1","test","33","","","","","","","",""
"","","","","","","","","","","","html-button-response","271","2.0.0","1554517","6566391df297b5d5a039e4e5","2","25","1797","","","","","","","","","<img src= ""rock_img/I_Pumice_13.jpg"" style=""width:8cm; height:8.200000000000001cm;""><p>What type of rock is this?</p>","3","class_response","1","test","34","Gabbro","Pumice","13","false","4","8","",""
"","","","","","","","","","","","html-keyboard-response","272","2.0.0","1555035","6566391df297b5d5a039e4e5","2","25","null","","","","","","","","","<p style='font-size: 30px;'><strong>Okay</strong></p>","null","neutral_feedback","1","test","34","","","","","","","",""
"","","","","","","","","","","","html-button-response","273","2.0.0","1557348","6566391df297b5d5a039e4e5","2","25","2310","","","","","","","","","<img src= ""rock_img/I_Peridotite_02.jpg"" style=""width:8cm; height:5.859999999999999cm;""><p>What type of rock is this?</p>","5","class_response","1","test","35","Pegmatite","Peridotite","02","false","6","7","",""
"","","","","","","","","","","","html-keyboard-response","274","2.0.0","1557863","6566391df297b5d5a039e4e5","2","25","null","","","","","","","","","<p style='font-size: 30px;'><strong>Okay</strong></p>","null","neutral_feedback","1","test","35","","","","","","","",""
"","","","","","","","","","","","html-button-response","275","2.0.0","1559715","6566391df297b5d5a039e4e5","2","25","1848","","","","","","","","","<img src= ""rock_img/I_Pumice_02.jpg"" style=""width:8cm; height:7.3999999999999995cm;""><p>What type of rock is this?</p>","7","class_response","1","test","36","Pumice","Pumice","02","true","8","8","",""
"","","","","","","","","","","","html-keyboard-response","276","2.0.0","1560231","6566391df297b5d5a039e4e5","2","25","null","","","","","","","","","<p style='font-size: 30px;'><strong>Okay</strong></p>","null","neutral_feedback","1","test","36","","","","","","","",""
"","","","","","","","","","","","html-button-response","277","2.0.0","1562467","6566391df297b5d5a039e4e5","2","25","2232","","","","","","","","","<img src= ""rock_img/I_Pegmatite_13.jpg"" style=""width:8cm; height:4.95cm;""><p>What type of rock is this?</p>","1","class_response","1","test","37","Basalt","Pegmatite","13","false","2","6","",""
"","","","","","","","","","","","html-keyboard-response","278","2.0.0","1562983","6566391df297b5d5a039e4e5","2","25","null","","","","","","","","","<p style='font-size: 30px;'><strong>Okay</strong></p>","null","neutral_feedback","1","test","37","","","","","","","",""
"","","","","","","","","","","","html-button-response","279","2.0.0","1564740","6566391df297b5d5a039e4e5","2","25","1754","","","","","","","","","<img src= ""rock_img/I_Gabbro_03.jpg"" style=""width:8cm; height:8.52cm;""><p>What type of rock is this?</p>","7","class_response","1","test","38","Pumice","Gabbro","03","false","8","4","",""
"","","","","","","","","","","","html-keyboard-response","280","2.0.0","1565255","6566391df297b5d5a039e4e5","2","25","null","","","","","","","","","<p style='font-size: 30px;'><strong>Okay</strong></p>","null","neutral_feedback","1","test","38","","","","","","","",""
"","","","","","","","","","","","html-button-response","281","2.0.0","1567016","6566391df297b5d5a039e4e5","2","25","1756","","","","","","","","","<img src= ""rock_img/I_Pumice_03.jpg"" style=""width:8cm; height:6.64cm;""><p>What type of rock is this?</p>","7","class_response","1","test","39","Pumice","Pumice","03","true","8","8","",""
"","","","","","","","","","","","html-keyboard-response","282","2.0.0","1567533","6566391df297b5d5a039e4e5","2","25","null","","","","","","","","","<p style='font-size: 30px;'><strong>Okay</strong></p>","null","neutral_feedback","1","test","39","","","","","","","",""
"","","","","","","","","","","","html-button-response","283","2.0.0","1570288","6566391df297b5d5a039e4e5","2","25","2752","","","","","","","","","<img src= ""rock_img/I_Andesite_05.jpg"" style=""width:8cm; height:4.12cm;""><p>What type of rock is this?</p>","6","class_response","1","test","40","Peridotite","Andesite","05","false","7","1","",""
"","","","","","","","","","","","html-keyboard-response","284","2.0.0","1570806","6566391df297b5d5a039e4e5","2","25","null","","","","","","","","","<p style='font-size: 30px;'><strong>Okay</strong></p>","null","neutral_feedback","1","test","40","","","","","","","",""
"","","","","","","","","","","","html-button-response","285","2.0.0","1573378","6566391df297b5d5a039e4e5","2","25","2568","","","","","","","","","<img src= ""rock_img/I_Peridotite_14.jpg"" style=""width:8cm; height:5.3cm;""><p>What type of rock is this?</p>","0","class_response","1","test","41","Andesite","Peridotite","14","false","1","7","",""
"","","","","","","","","","","","html-keyboard-response","286","2.0.0","1573880","6566391df297b5d5a039e4e5","2","25","null","","","","","","","","","<p style='font-size: 30px;'><strong>Okay</strong></p>","null","neutral_feedback","1","test","41","","","","","","","",""
"","","","","","","","","","","","html-button-response","287","2.0.0","1576041","6566391df297b5d5a039e4e5","2","25","2156","","","","","","","","","<img src= ""rock_img/I_Gabbro_08.jpg"" style=""width:8cm; height:5.15cm;""><p>What type of rock is this?</p>","6","class_response","1","test","42","Peridotite","Gabbro","08","false","7","4","",""
"","","","","","","","","","","","html-keyboard-response","288","2.0.0","1576557","6566391df297b5d5a039e4e5","2","25","null","","","","","","","","","<p style='font-size: 30px;'><strong>Okay</strong></p>","null","neutral_feedback","1","test","42","","","","","","","",""
"","","","","","","","","","","","html-button-response","289","2.0.0","1579204","6566391df297b5d5a039e4e5","2","25","2644","","","","","","","","","<img src= ""rock_img/I_Basalt_11.jpg"" style=""width:8cm; height:5.359999999999999cm;""><p>What type of rock is this?</p>","5","class_response","1","test","43","Pegmatite","Basalt","11","false","6","2","",""
"","","","","","","","","","","","html-keyboard-response","290","2.0.0","1579721","6566391df297b5d5a039e4e5","2","25","null","","","","","","","","","<p style='font-size: 30px;'><strong>Okay</strong></p>","null","neutral_feedback","1","test","43","","","","","","","",""
"","","","","","","","","","","","html-button-response","291","2.0.0","1582296","6566391df297b5d5a039e4e5","2","25","2572","","","","","","","","","<img src= ""rock_img/I_Obsidian_16.jpg"" style=""width:8cm; height:9.3cm;""><p>What type of rock is this?</p>","4","class_response","1","test","44","Obsidian","Obsidian","16","true","5","5","",""
"","","","","","","","","","","","html-keyboard-response","292","2.0.0","1582810","6566391df297b5d5a039e4e5","2","25","null","","","","","","","","","<p style='font-size: 30px;'><strong>Okay</strong></p>","null","neutral_feedback","1","test","44","","","","","","","",""
"","","","","","","","","","","","html-button-response","293","2.0.0","1585010","6566391df297b5d5a039e4e5","2","25","2196","","","","","","","","","<img src= ""rock_img/I_Diorite_13.jpg"" style=""width:8cm; height:6.29cm;""><p>What type of rock is this?</p>","7","class_response","1","test","45","Pumice","Diorite","13","false","8","3","",""
"","","","","","","","","","","","html-keyboard-response","294","2.0.0","1585526","6566391df297b5d5a039e4e5","2","25","null","","","","","","","","","<p style='font-size: 30px;'><strong>Okay</strong></p>","null","neutral_feedback","1","test","45","","","","","","","",""
"","","","","","","","","","","","html-button-response","295","2.0.0","1587651","6566391df297b5d5a039e4e5","2","25","2122","","","","","","","","","<img src= ""rock_img/I_Obsidian_06.jpg"" style=""width:8cm; height:6.8cm;""><p>What type of rock is this?</p>","4","class_response","1","test","46","Obsidian","Obsidian","06","true","5","5","",""
"","","","","","","","","","","","html-keyboard-response","296","2.0.0","1588166","6566391df297b5d5a039e4e5","2","25","null","","","","","","","","","<p style='font-size: 30px;'><strong>Okay</strong></p>","null","neutral_feedback","1","test","46","","","","","","","",""
"","","","","","","","","","","","html-button-response","297","2.0.0","1589969","6566391df297b5d5a039e4e5","2","25","1799","","","","","","","","","<img src= ""rock_img/I_Basalt_02.jpg"" style=""width:8cm; height:6.45cm;""><p>What type of rock is this?</p>","0","class_response","1","test","47","Andesite","Basalt","02","false","1","2","",""
"","","","","","","","","","","","html-keyboard-response","298","2.0.0","1590485","6566391df297b5d5a039e4e5","2","25","null","","","","","","","","","<p style='font-size: 30px;'><strong>Okay</strong></p>","null","neutral_feedback","1","test","47","","","","","","","",""
"","","","","","","","","","","","html-button-response","299","2.0.0","1593078","6566391df297b5d5a039e4e5","2","25","2590","","","","","","","","","<img src= ""rock_img/I_Pumice_04.jpg"" style=""width:8cm; height:6.819999999999999cm;""><p>What type of rock is this?</p>","7","class_response","1","test","48","Pumice","Pumice","04","true","8","8","",""
"","","","","","","","","","","","html-keyboard-response","300","2.0.0","1593595","6566391df297b5d5a039e4e5","2","25","null","","","","","","","","","<p style='font-size: 30px;'><strong>Okay</strong></p>","null","neutral_feedback","1","test","48","","","","","","","",""
"","","","","","","","","","","","html-button-response","301","2.0.0","1624166","6566391df297b5d5a039e4e5","2","25","","","","","","","","","","","","cycle_feedback","","","","","","","","","","13267.30000000447","17292.19999999553"
"","","","","","","","","","","","html-button-response","303","2.0.0","1627668","6566391df297b5d5a039e4e5","2","25","3497","","","","","","","","","","0","start_train","","","","","","","","","","",""
