"width","height","webaudio","browser","browser_version","mobile","os","fullscreen","vsync_rate","webcam","microphone","trial_type","trial_index","plugin_version","time_elapsed","subjID","condition","stimID","rt","url","success","value","timeout","failed_images","failed_audio","failed_video","view_history","stimulus","response","trialType","cycle","phase","trial","resp","cat","token","corr","resp_num","cat_num","time_fb1","time_fb2"
"2560","1271","true","chrome","131.0.0","false","Windows 10","true","155.4","true","true","browser-check","0","2.0.0","397","65c25cf77dca9d7ca7d9ebdb","2","48","","","","","","","","","","","","","","","","","","","","","","",""
"","","","","","","","","","","","external-html","1","2.0.0","3281","65c25cf77dca9d7ca7d9ebdb","2","48","2768","consent_form.html","","","","","","","","","","","","","","","","","","","","",""
"","","","","","","","","","","","fullscreen","2","2.0.0","5364","65c25cf77dca9d7ca7d9ebdb","2","48","1076","","true","","","","","","","","","","","","","","","","","","","",""
"","","","","","","","","","","","call-function","3","2.0.0","5365","65c25cf77dca9d7ca7d9ebdb","2","48","","","","{}","","","","","","","","","","","","","","","","","","",""
"","","","","","","","","","","","preload","4","2.0.0","11372","65c25cf77dca9d7ca7d9ebdb","2","48","","","true","","false","[]","[]","[]","","","","","","","","","","","","","","",""
"","","","","","","","","","","","instructions","5","2.0.0","90311","65c25cf77dca9d7ca7d9ebdb","2","48","78938","","","","","","","","[{""page_index"":0,""viewing_time"":6049},{""page_index"":1,""viewing_time"":10868},{""page_index"":2,""viewing_time"":62021}]","","","","","","","","","","","","","",""
"","","","","","","","","","","","html-button-response","6","2.0.0","92187","65c25cf77dca9d7ca7d9ebdb","2","48","1875","","","","","","","","","","0","start_test","","","","","","","","","","",""
"","","","","","","","","","","","html-button-response","7","2.0.0","96853","65c25cf77dca9d7ca7d9ebdb","2","48","4664","","","","","","","","","<img src= ""rock_img/I_Peridotite_12.jpg"" style=""width:8cm; height:4.54cm;""><p>What type of rock is this?</p>","0","class_response","0","test","1","Andesite","Peridotite","12","false","1","7","",""
"","","","","","","","","","","","html-keyboard-response","8","2.0.0","97366","65c25cf77dca9d7ca7d9ebdb","2","48","null","","","","","","","","","<p style='font-size: 30px;'><strong>Okay</strong></p>","null","neutral_feedback","0","test","1","","","","","","","",""
"","","","","","","","","","","","html-button-response","9","2.0.0","101170","65c25cf77dca9d7ca7d9ebdb","2","48","3804","","","","","","","","","<img src= ""rock_img/I_Basalt_04.jpg"" style=""width:8cm; height:7.53cm;""><p>What type of rock is this?</p>","1","class_response","0","test","2","Basalt","Basalt","04","true","2","2","",""
"","","","","","","","","","","","html-keyboard-response","10","2.0.0","101682","65c25cf77dca9d7ca7d9ebdb","2","48","null","","","","","","","","","<p style='font-size: 30px;'><strong>Okay</strong></p>","null","neutral_feedback","0","test","2","","","","","","","",""
"","","","","","","","","","","","html-button-response","11","2.0.0","106254","65c25cf77dca9d7ca7d9ebdb","2","48","4570","","","","","","","","","<img src= ""rock_img/I_Diorite_09.jpg"" style=""width:8cm; height:5.27cm;""><p>What type of rock is this?</p>","2","class_response","0","test","3","Diorite","Diorite","09","true","3","3","",""
"","","","","","","","","","","","html-keyboard-response","12","2.0.0","106762","65c25cf77dca9d7ca7d9ebdb","2","48","null","","","","","","","","","<p style='font-size: 30px;'><strong>Okay</strong></p>","null","neutral_feedback","0","test","3","","","","","","","",""
"","","","","","","","","","","","html-button-response","13","2.0.0","109976","65c25cf77dca9d7ca7d9ebdb","2","48","3213","","","","","","","","","<img src= ""rock_img/I_Gabbro_14.jpg"" style=""width:8cm; height:8.48cm;""><p>What type of rock is this?</p>","6","class_response","0","test","4","Peridotite","Gabbro","14","false","7","4","",""
"","","","","","","","","","","","html-keyboard-response","14","2.0.0","110478","65c25cf77dca9d7ca7d9ebdb","2","48","null","","","","","","","","","<p style='font-size: 30px;'><strong>Okay</strong></p>","null","neutral_feedback","0","test","4","","","","","","","",""
"","","","","","","","","","","","html-button-response","15","2.0.0","115181","65c25cf77dca9d7ca7d9ebdb","2","48","4703","","","","","","","","","<img src= ""rock_img/I_Gabbro_08.jpg"" style=""width:8cm; height:5.15cm;""><p>What type of rock is this?</p>","3","class_response","0","test","5","Gabbro","Gabbro","08","true","4","4","",""
"","","","","","","","","","","","html-keyboard-response","16","2.0.0","115683","65c25cf77dca9d7ca7d9ebdb","2","48","null","","","","","","","","","<p style='font-size: 30px;'><strong>Okay</strong></p>","null","neutral_feedback","0","test","5","","","","","","","",""
"","","","","","","","","","","","html-button-response","17","2.0.0","120921","65c25cf77dca9d7ca7d9ebdb","2","48","5237","","","","","","","","","<img src= ""rock_img/I_Gabbro_03.jpg"" style=""width:8cm; height:8.52cm;""><p>What type of rock is this?</p>","2","class_response","0","test","6","Diorite","Gabbro","03","false","3","4","",""
"","","","","","","","","","","","html-keyboard-response","18","2.0.0","121436","65c25cf77dca9d7ca7d9ebdb","2","48","null","","","","","","","","","<p style='font-size: 30px;'><strong>Okay</strong></p>","null","neutral_feedback","0","test","6","","","","","","","",""
"","","","","","","","","","","","html-button-response","19","2.0.0","125970","65c25cf77dca9d7ca7d9ebdb","2","48","4533","","","","","","","","","<img src= ""rock_img/I_Diorite_15.jpg"" style=""width:8cm; height:5.54cm;""><p>What type of rock is this?</p>","7","class_response","0","test","7","Pumice","Diorite","15","false","8","3","",""
"","","","","","","","","","","","html-keyboard-response","20","2.0.0","126473","65c25cf77dca9d7ca7d9ebdb","2","48","null","","","","","","","","","<p style='font-size: 30px;'><strong>Okay</strong></p>","null","neutral_feedback","0","test","7","","","","","","","",""
"","","","","","","","","","","","html-button-response","21","2.0.0","129993","65c25cf77dca9d7ca7d9ebdb","2","48","3519","","","","","","","","","<img src= ""rock_img/I_Peridotite_05.jpg"" style=""width:8cm; height:7.1499999999999995cm;""><p>What type of rock is this?</p>","5","class_response","0","test","8","Pegmatite","Peridotite","05","false","6","7","",""
"","","","","","","","","","","","html-keyboard-response","22","2.0.0","130494","65c25cf77dca9d7ca7d9ebdb","2","48","null","","","","","","","","","<p style='font-size: 30px;'><strong>Okay</strong></p>","null","neutral_feedback","0","test","8","","","","","","","",""
"","","","","","","","","","","","html-button-response","23","2.0.0","135168","65c25cf77dca9d7ca7d9ebdb","2","48","4672","","","","","","","","","<img src= ""rock_img/I_Pegmatite_08.jpg"" style=""width:8cm; height:7.68cm;""><p>What type of rock is this?</p>","4","class_response","0","test","9","Obsidian","Pegmatite","08","false","5","6","",""
"","","","","","","","","","","","html-keyboard-response","24","2.0.0","135669","65c25cf77dca9d7ca7d9ebdb","2","48","null","","","","","","","","","<p style='font-size: 30px;'><strong>Okay</strong></p>","null","neutral_feedback","0","test","9","","","","","","","",""
"","","","","","","","","","","","html-button-response","25","2.0.0","138588","65c25cf77dca9d7ca7d9ebdb","2","48","2918","","","","","","","","","<img src= ""rock_img/I_Basalt_14.jpg"" style=""width:8cm; height:5.82cm;""><p>What type of rock is this?</p>","0","class_response","0","test","10","Andesite","Basalt","14","false","1","2","",""
"","","","","","","","","","","","html-keyboard-response","26","2.0.0","139088","65c25cf77dca9d7ca7d9ebdb","2","48","null","","","","","","","","","<p style='font-size: 30px;'><strong>Okay</strong></p>","null","neutral_feedback","0","test","10","","","","","","","",""
"","","","","","","","","","","","html-button-response","27","2.0.0","143667","65c25cf77dca9d7ca7d9ebdb","2","48","4579","","","","","","","","","<img src= ""rock_img/I_Basalt_12.jpg"" style=""width:8cm; height:6.010000000000001cm;""><p>What type of rock is this?</p>","5","class_response","0","test","11","Pegmatite","Basalt","12","false","6","2","",""
"","","","","","","","","","","","html-keyboard-response","28","2.0.0","144181","65c25cf77dca9d7ca7d9ebdb","2","48","null","","","","","","","","","<p style='font-size: 30px;'><strong>Okay</strong></p>","null","neutral_feedback","0","test","11","","","","","","","",""
"","","","","","","","","","","","html-button-response","29","2.0.0","147508","65c25cf77dca9d7ca7d9ebdb","2","48","3326","","","","","","","","","<img src= ""rock_img/I_Andesite_02.jpg"" style=""width:8cm; height:8.5cm;""><p>What type of rock is this?</p>","6","class_response","0","test","12","Peridotite","Andesite","02","false","7","1","",""
"","","","","","","","","","","","html-keyboard-response","30","2.0.0","148024","65c25cf77dca9d7ca7d9ebdb","2","48","null","","","","","","","","","<p style='font-size: 30px;'><strong>Okay</strong></p>","null","neutral_feedback","0","test","12","","","","","","","",""
"","","","","","","","","","","","html-button-response","31","2.0.0","150090","65c25cf77dca9d7ca7d9ebdb","2","48","2066","","","","","","","","","<img src= ""rock_img/I_Andesite_04.jpg"" style=""width:8cm; height:5.96cm;""><p>What type of rock is this?</p>","3","class_response","0","test","13","Gabbro","Andesite","04","false","4","1","",""
"","","","","","","","","","","","html-keyboard-response","32","2.0.0","150592","65c25cf77dca9d7ca7d9ebdb","2","48","null","","","","","","","","","<p style='font-size: 30px;'><strong>Okay</strong></p>","null","neutral_feedback","0","test","13","","","","","","","",""
"","","","","","","","","","","","html-button-response","33","2.0.0","152838","65c25cf77dca9d7ca7d9ebdb","2","48","2246","","","","","","","","","<img src= ""rock_img/I_Gabbro_16.jpg"" style=""width:8cm; height:6.44cm;""><p>What type of rock is this?</p>","7","class_response","0","test","14","Pumice","Gabbro","16","false","8","4","",""
"","","","","","","","","","","","html-keyboard-response","34","2.0.0","153342","65c25cf77dca9d7ca7d9ebdb","2","48","null","","","","","","","","","<p style='font-size: 30px;'><strong>Okay</strong></p>","null","neutral_feedback","0","test","14","","","","","","","",""
"","","","","","","","","","","","html-button-response","35","2.0.0","154399","65c25cf77dca9d7ca7d9ebdb","2","48","1056","","","","","","","","","<img src= ""rock_img/I_Obsidian_12.jpg"" style=""width:8cm; height:6.53cm;""><p>What type of rock is this?</p>","4","class_response","0","test","15","Obsidian","Obsidian","12","true","5","5","",""
"","","","","","","","","","","","html-keyboard-response","36","2.0.0","154903","65c25cf77dca9d7ca7d9ebdb","2","48","null","","","","","","","","","<p style='font-size: 30px;'><strong>Okay</strong></p>","null","neutral_feedback","0","test","15","","","","","","","",""
"","","","","","","","","","","","html-button-response","37","2.0.0","158896","65c25cf77dca9d7ca7d9ebdb","2","48","3993","","","","","","","","","<img src= ""rock_img/I_Pegmatite_06.jpg"" style=""width:8cm; height:5.17cm;""><p>What type of rock is this?</p>","5","class_response","0","test","16","Pegmatite","Pegmatite","06","true","6","6","",""
"","","","","","","","","","","","html-keyboard-response","38","2.0.0","159409","65c25cf77dca9d7ca7d9ebdb","2","48","null","","","","","","","","","<p style='font-size: 30px;'><strong>Okay</strong></p>","null","neutral_feedback","0","test","16","","","","","","","",""
"","","","","","","","","","","","html-button-response","39","2.0.0","161447","65c25cf77dca9d7ca7d9ebdb","2","48","2037","","","","","","","","","<img src= ""rock_img/I_Basalt_01.jpg"" style=""width:8cm; height:7.880000000000001cm;""><p>What type of rock is this?</p>","1","class_response","0","test","17","Basalt","Basalt","01","true","2","2","",""
"","","","","","","","","","","","html-keyboard-response","40","2.0.0","161959","65c25cf77dca9d7ca7d9ebdb","2","48","null","","","","","","","","","<p style='font-size: 30px;'><strong>Okay</strong></p>","null","neutral_feedback","0","test","17","","","","","","","",""
"","","","","","","","","","","","html-button-response","41","2.0.0","164236","65c25cf77dca9d7ca7d9ebdb","2","48","2276","","","","","","","","","<img src= ""rock_img/I_Peridotite_15.jpg"" style=""width:8cm; height:6cm;""><p>What type of rock is this?</p>","3","class_response","0","test","18","Gabbro","Peridotite","15","false","4","7","",""
"","","","","","","","","","","","html-keyboard-response","42","2.0.0","164745","65c25cf77dca9d7ca7d9ebdb","2","48","null","","","","","","","","","<p style='font-size: 30px;'><strong>Okay</strong></p>","null","neutral_feedback","0","test","18","","","","","","","",""
"","","","","","","","","","","","html-button-response","43","2.0.0","166391","65c25cf77dca9d7ca7d9ebdb","2","48","1645","","","","","","","","","<img src= ""rock_img/I_Andesite_05.jpg"" style=""width:8cm; height:4.12cm;""><p>What type of rock is this?</p>","0","class_response","0","test","19","Andesite","Andesite","05","true","1","1","",""
"","","","","","","","","","","","html-keyboard-response","44","2.0.0","166895","65c25cf77dca9d7ca7d9ebdb","2","48","null","","","","","","","","","<p style='font-size: 30px;'><strong>Okay</strong></p>","null","neutral_feedback","0","test","19","","","","","","","",""
"","","","","","","","","","","","html-button-response","45","2.0.0","169286","65c25cf77dca9d7ca7d9ebdb","2","48","2390","","","","","","","","","<img src= ""rock_img/I_Basalt_06.jpg"" style=""width:8cm; height:7.06cm;""><p>What type of rock is this?</p>","1","class_response","0","test","20","Basalt","Basalt","06","true","2","2","",""
"","","","","","","","","","","","html-keyboard-response","46","2.0.0","169800","65c25cf77dca9d7ca7d9ebdb","2","48","null","","","","","","","","","<p style='font-size: 30px;'><strong>Okay</strong></p>","null","neutral_feedback","0","test","20","","","","","","","",""
"","","","","","","","","","","","html-button-response","47","2.0.0","171801","65c25cf77dca9d7ca7d9ebdb","2","48","2000","","","","","","","","","<img src= ""rock_img/I_Diorite_02.jpg"" style=""width:8cm; height:6.27cm;""><p>What type of rock is this?</p>","2","class_response","0","test","21","Diorite","Diorite","02","true","3","3","",""
"","","","","","","","","","","","html-keyboard-response","48","2.0.0","172315","65c25cf77dca9d7ca7d9ebdb","2","48","null","","","","","","","","","<p style='font-size: 30px;'><strong>Okay</strong></p>","null","neutral_feedback","0","test","21","","","","","","","",""
"","","","","","","","","","","","html-button-response","49","2.0.0","174246","65c25cf77dca9d7ca7d9ebdb","2","48","1930","","","","","","","","","<img src= ""rock_img/I_Peridotite_14.jpg"" style=""width:8cm; height:5.3cm;""><p>What type of rock is this?</p>","5","class_response","0","test","22","Pegmatite","Peridotite","14","false","6","7","",""
"","","","","","","","","","","","html-keyboard-response","50","2.0.0","174753","65c25cf77dca9d7ca7d9ebdb","2","48","null","","","","","","","","","<p style='font-size: 30px;'><strong>Okay</strong></p>","null","neutral_feedback","0","test","22","","","","","","","",""
"","","","","","","","","","","","html-button-response","51","2.0.0","176847","65c25cf77dca9d7ca7d9ebdb","2","48","2093","","","","","","","","","<img src= ""rock_img/I_Pumice_09.jpg"" style=""width:8cm; height:6.44cm;""><p>What type of rock is this?</p>","6","class_response","0","test","23","Peridotite","Pumice","09","false","7","8","",""
"","","","","","","","","","","","html-keyboard-response","52","2.0.0","177357","65c25cf77dca9d7ca7d9ebdb","2","48","null","","","","","","","","","<p style='font-size: 30px;'><strong>Okay</strong></p>","null","neutral_feedback","0","test","23","","","","","","","",""
"","","","","","","","","","","","html-button-response","53","2.0.0","178888","65c25cf77dca9d7ca7d9ebdb","2","48","1531","","","","","","","","","<img src= ""rock_img/I_Basalt_11.jpg"" style=""width:8cm; height:5.359999999999999cm;""><p>What type of rock is this?</p>","1","class_response","0","test","24","Basalt","Basalt","11","true","2","2","",""
"","","","","","","","","","","","html-keyboard-response","54","2.0.0","179400","65c25cf77dca9d7ca7d9ebdb","2","48","null","","","","","","","","","<p style='font-size: 30px;'><strong>Okay</strong></p>","null","neutral_feedback","0","test","24","","","","","","","",""
"","","","","","","","","","","","html-button-response","55","2.0.0","182631","65c25cf77dca9d7ca7d9ebdb","2","48","3230","","","","","","","","","<img src= ""rock_img/I_Pumice_05.jpg"" style=""width:8cm; height:7.25cm;""><p>What type of rock is this?</p>","3","class_response","0","test","25","Gabbro","Pumice","05","false","4","8","",""
"","","","","","","","","","","","html-keyboard-response","56","2.0.0","183133","65c25cf77dca9d7ca7d9ebdb","2","48","null","","","","","","","","","<p style='font-size: 30px;'><strong>Okay</strong></p>","null","neutral_feedback","0","test","25","","","","","","","",""
"","","","","","","","","","","","html-button-response","57","2.0.0","184154","65c25cf77dca9d7ca7d9ebdb","2","48","1020","","","","","","","","","<img src= ""rock_img/I_Obsidian_02.jpg"" style=""width:8cm; height:7.51cm;""><p>What type of rock is this?</p>","4","class_response","0","test","26","Obsidian","Obsidian","02","true","5","5","",""
"","","","","","","","","","","","html-keyboard-response","58","2.0.0","184667","65c25cf77dca9d7ca7d9ebdb","2","48","null","","","","","","","","","<p style='font-size: 30px;'><strong>Okay</strong></p>","null","neutral_feedback","0","test","26","","","","","","","",""
"","","","","","","","","","","","html-button-response","59","2.0.0","187393","65c25cf77dca9d7ca7d9ebdb","2","48","2725","","","","","","","","","<img src= ""rock_img/I_Andesite_03.jpg"" style=""width:8cm; height:5.73cm;""><p>What type of rock is this?</p>","1","class_response","0","test","27","Basalt","Andesite","03","false","2","1","",""
"","","","","","","","","","","","html-keyboard-response","60","2.0.0","187894","65c25cf77dca9d7ca7d9ebdb","2","48","null","","","","","","","","","<p style='font-size: 30px;'><strong>Okay</strong></p>","null","neutral_feedback","0","test","27","","","","","","","",""
"","","","","","","","","","","","html-button-response","61","2.0.0","190603","65c25cf77dca9d7ca7d9ebdb","2","48","2708","","","","","","","","","<img src= ""rock_img/I_Diorite_10.jpg"" style=""width:8cm; height:5.949999999999999cm;""><p>What type of rock is this?</p>","6","class_response","0","test","28","Peridotite","Diorite","10","false","7","3","",""
"","","","","","","","","","","","html-keyboard-response","62","2.0.0","191107","65c25cf77dca9d7ca7d9ebdb","2","48","null","","","","","","","","","<p style='font-size: 30px;'><strong>Okay</strong></p>","null","neutral_feedback","0","test","28","","","","","","","",""
"","","","","","","","","","","","html-button-response","63","2.0.0","194418","65c25cf77dca9d7ca7d9ebdb","2","48","3310","","","","","","","","","<img src= ""rock_img/I_Diorite_13.jpg"" style=""width:8cm; height:6.29cm;""><p>What type of rock is this?</p>","5","class_response","0","test","29","Pegmatite","Diorite","13","false","6","3","",""
"","","","","","","","","","","","html-keyboard-response","64","2.0.0","194920","65c25cf77dca9d7ca7d9ebdb","2","48","null","","","","","","","","","<p style='font-size: 30px;'><strong>Okay</strong></p>","null","neutral_feedback","0","test","29","","","","","","","",""
"","","","","","","","","","","","html-button-response","65","2.0.0","197487","65c25cf77dca9d7ca7d9ebdb","2","48","2566","","","","","","","","","<img src= ""rock_img/I_Pegmatite_15.jpg"" style=""width:8cm; height:6cm;""><p>What type of rock is this?</p>","2","class_response","0","test","30","Diorite","Pegmatite","15","false","3","6","",""
"","","","","","","","","","","","html-keyboard-response","66","2.0.0","197989","65c25cf77dca9d7ca7d9ebdb","2","48","null","","","","","","","","","<p style='font-size: 30px;'><strong>Okay</strong></p>","null","neutral_feedback","0","test","30","","","","","","","",""
"","","","","","","","","","","","html-button-response","67","2.0.0","201061","65c25cf77dca9d7ca7d9ebdb","2","48","3071","","","","","","","","","<img src= ""rock_img/I_Gabbro_11.jpg"" style=""width:8cm; height:6.2cm;""><p>What type of rock is this?</p>","7","class_response","0","test","31","Pumice","Gabbro","11","false","8","4","",""
"","","","","","","","","","","","html-keyboard-response","68","2.0.0","201571","65c25cf77dca9d7ca7d9ebdb","2","48","null","","","","","","","","","<p style='font-size: 30px;'><strong>Okay</strong></p>","null","neutral_feedback","0","test","31","","","","","","","",""
"","","","","","","","","","","","html-button-response","69","2.0.0","202961","65c25cf77dca9d7ca7d9ebdb","2","48","1389","","","","","","","","","<img src= ""rock_img/I_Andesite_09.jpg"" style=""width:8cm; height:6cm;""><p>What type of rock is this?</p>","1","class_response","0","test","32","Basalt","Andesite","09","false","2","1","",""
"","","","","","","","","","","","html-keyboard-response","70","2.0.0","203469","65c25cf77dca9d7ca7d9ebdb","2","48","null","","","","","","","","","<p style='font-size: 30px;'><strong>Okay</strong></p>","null","neutral_feedback","0","test","32","","","","","","","",""
"","","","","","","","","","","","html-button-response","71","2.0.0","206958","65c25cf77dca9d7ca7d9ebdb","2","48","3489","","","","","","","","","<img src= ""rock_img/I_Gabbro_05.jpg"" style=""width:8cm; height:6cm;""><p>What type of rock is this?</p>","3","class_response","0","test","33","Gabbro","Gabbro","05","true","4","4","",""
"","","","","","","","","","","","html-keyboard-response","72","2.0.0","207466","65c25cf77dca9d7ca7d9ebdb","2","48","null","","","","","","","","","<p style='font-size: 30px;'><strong>Okay</strong></p>","null","neutral_feedback","0","test","33","","","","","","","",""
"","","","","","","","","","","","html-button-response","73","2.0.0","209474","65c25cf77dca9d7ca7d9ebdb","2","48","2008","","","","","","","","","<img src= ""rock_img/I_Obsidian_07.jpg"" style=""width:8cm; height:4.76cm;""><p>What type of rock is this?</p>","4","class_response","0","test","34","Obsidian","Obsidian","07","true","5","5","",""
"","","","","","","","","","","","html-keyboard-response","74","2.0.0","209985","65c25cf77dca9d7ca7d9ebdb","2","48","null","","","","","","","","","<p style='font-size: 30px;'><strong>Okay</strong></p>","null","neutral_feedback","0","test","34","","","","","","","",""
"","","","","","","","","","","","html-button-response","75","2.0.0","214990","65c25cf77dca9d7ca7d9ebdb","2","48","5005","","","","","","","","","<img src= ""rock_img/I_Pumice_13.jpg"" style=""width:8cm; height:8.200000000000001cm;""><p>What type of rock is this?</p>","5","class_response","0","test","35","Pegmatite","Pumice","13","false","6","8","",""
"","","","","","","","","","","","html-keyboard-response","76","2.0.0","215497","65c25cf77dca9d7ca7d9ebdb","2","48","null","","","","","","","","","<p style='font-size: 30px;'><strong>Okay</strong></p>","null","neutral_feedback","0","test","35","","","","","","","",""
"","","","","","","","","","","","html-button-response","77","2.0.0","216439","65c25cf77dca9d7ca7d9ebdb","2","48","942","","","","","","","","","<img src= ""rock_img/I_Obsidian_08.jpg"" style=""width:8cm; height:7.39cm;""><p>What type of rock is this?</p>","4","class_response","0","test","36","Obsidian","Obsidian","08","true","5","5","",""
"","","","","","","","","","","","html-keyboard-response","78","2.0.0","216947","65c25cf77dca9d7ca7d9ebdb","2","48","null","","","","","","","","","<p style='font-size: 30px;'><strong>Okay</strong></p>","null","neutral_feedback","0","test","36","","","","","","","",""
"","","","","","","","","","","","html-button-response","79","2.0.0","218399","65c25cf77dca9d7ca7d9ebdb","2","48","1451","","","","","","","","","<img src= ""rock_img/I_Diorite_12.jpg"" style=""width:8cm; height:4.88cm;""><p>What type of rock is this?</p>","2","class_response","0","test","37","Diorite","Diorite","12","true","3","3","",""
"","","","","","","","","","","","html-keyboard-response","80","2.0.0","218906","65c25cf77dca9d7ca7d9ebdb","2","48","null","","","","","","","","","<p style='font-size: 30px;'><strong>Okay</strong></p>","null","neutral_feedback","0","test","37","","","","","","","",""
"","","","","","","","","","","","html-button-response","81","2.0.0","219963","65c25cf77dca9d7ca7d9ebdb","2","48","1056","","","","","","","","","<img src= ""rock_img/I_Obsidian_06.jpg"" style=""width:8cm; height:6.8cm;""><p>What type of rock is this?</p>","4","class_response","0","test","38","Obsidian","Obsidian","06","true","5","5","",""
"","","","","","","","","","","","html-keyboard-response","82","2.0.0","220475","65c25cf77dca9d7ca7d9ebdb","2","48","null","","","","","","","","","<p style='font-size: 30px;'><strong>Okay</strong></p>","null","neutral_feedback","0","test","38","","","","","","","",""
"","","","","","","","","","","","html-button-response","83","2.0.0","221354","65c25cf77dca9d7ca7d9ebdb","2","48","878","","","","","","","","","<img src= ""rock_img/I_Obsidian_11.jpg"" style=""width:8cm; height:6.05cm;""><p>What type of rock is this?</p>","4","class_response","0","test","39","Obsidian","Obsidian","11","true","5","5","",""
"","","","","","","","","","","","html-keyboard-response","84","2.0.0","221856","65c25cf77dca9d7ca7d9ebdb","2","48","null","","","","","","","","","<p style='font-size: 30px;'><strong>Okay</strong></p>","null","neutral_feedback","0","test","39","","","","","","","",""
"","","","","","","","","","","","html-button-response","85","2.0.0","224628","65c25cf77dca9d7ca7d9ebdb","2","48","2772","","","","","","","","","<img src= ""rock_img/I_Andesite_10.jpg"" style=""width:8cm; height:4.16cm;""><p>What type of rock is this?</p>","1","class_response","0","test","40","Basalt","Andesite","10","false","2","1","",""
"","","","","","","","","","","","html-keyboard-response","86","2.0.0","225142","65c25cf77dca9d7ca7d9ebdb","2","48","null","","","","","","","","","<p style='font-size: 30px;'><strong>Okay</strong></p>","null","neutral_feedback","0","test","40","","","","","","","",""
"","","","","","","","","","","","html-button-response","87","2.0.0","229817","65c25cf77dca9d7ca7d9ebdb","2","48","4674","","","","","","","","","<img src= ""rock_img/I_Pumice_02.jpg"" style=""width:8cm; height:7.3999999999999995cm;""><p>What type of rock is this?</p>","2","class_response","0","test","41","Diorite","Pumice","02","false","3","8","",""
"","","","","","","","","","","","html-keyboard-response","88","2.0.0","230328","65c25cf77dca9d7ca7d9ebdb","2","48","null","","","","","","","","","<p style='font-size: 30px;'><strong>Okay</strong></p>","null","neutral_feedback","0","test","41","","","","","","","",""
"","","","","","","","","","","","html-button-response","89","2.0.0","232647","65c25cf77dca9d7ca7d9ebdb","2","48","2319","","","","","","","","","<img src= ""rock_img/I_Pegmatite_09.jpg"" style=""width:8cm; height:4.03cm;""><p>What type of rock is this?</p>","6","class_response","0","test","42","Peridotite","Pegmatite","09","false","7","6","",""
"","","","","","","","","","","","html-keyboard-response","90","2.0.0","233152","65c25cf77dca9d7ca7d9ebdb","2","48","null","","","","","","","","","<p style='font-size: 30px;'><strong>Okay</strong></p>","null","neutral_feedback","0","test","42","","","","","","","",""
"","","","","","","","","","","","html-button-response","91","2.0.0","236547","65c25cf77dca9d7ca7d9ebdb","2","48","3394","","","","","","","","","<img src= ""rock_img/I_Pegmatite_13.jpg"" style=""width:8cm; height:4.95cm;""><p>What type of rock is this?</p>","5","class_response","0","test","43","Pegmatite","Pegmatite","13","true","6","6","",""
"","","","","","","","","","","","html-keyboard-response","92","2.0.0","237060","65c25cf77dca9d7ca7d9ebdb","2","48","null","","","","","","","","","<p style='font-size: 30px;'><strong>Okay</strong></p>","null","neutral_feedback","0","test","43","","","","","","","",""
"","","","","","","","","","","","html-button-response","93","2.0.0","238468","65c25cf77dca9d7ca7d9ebdb","2","48","1407","","","","","","","","","<img src= ""rock_img/I_Pegmatite_05.jpg"" style=""width:8cm; height:7.300000000000001cm;""><p>What type of rock is this?</p>","2","class_response","0","test","44","Diorite","Pegmatite","05","false","3","6","",""
"","","","","","","","","","","","html-keyboard-response","94","2.0.0","238982","65c25cf77dca9d7ca7d9ebdb","2","48","null","","","","","","","","","<p style='font-size: 30px;'><strong>Okay</strong></p>","null","neutral_feedback","0","test","44","","","","","","","",""
"","","","","","","","","","","","html-button-response","95","2.0.0","240034","65c25cf77dca9d7ca7d9ebdb","2","48","1051","","","","","","","","","<img src= ""rock_img/I_Pumice_15.jpg"" style=""width:8cm; height:7.86cm;""><p>What type of rock is this?</p>","5","class_response","0","test","45","Pegmatite","Pumice","15","false","6","8","",""
"","","","","","","","","","","","html-keyboard-response","96","2.0.0","240548","65c25cf77dca9d7ca7d9ebdb","2","48","null","","","","","","","","","<p style='font-size: 30px;'><strong>Okay</strong></p>","null","neutral_feedback","0","test","45","","","","","","","",""
"","","","","","","","","","","","html-button-response","97","2.0.0","241914","65c25cf77dca9d7ca7d9ebdb","2","48","1366","","","","","","","","","<img src= ""rock_img/I_Peridotite_06.jpg"" style=""width:8cm; height:7.53cm;""><p>What type of rock is this?</p>","3","class_response","0","test","46","Gabbro","Peridotite","06","false","4","7","",""
"","","","","","","","","","","","html-keyboard-response","98","2.0.0","242416","65c25cf77dca9d7ca7d9ebdb","2","48","null","","","","","","","","","<p style='font-size: 30px;'><strong>Okay</strong></p>","null","neutral_feedback","0","test","46","","","","","","","",""
"","","","","","","","","","","","html-button-response","99","2.0.0","243705","65c25cf77dca9d7ca7d9ebdb","2","48","1288","","","","","","","","","<img src= ""rock_img/I_Pumice_06.jpg"" style=""width:8cm; height:6.9399999999999995cm;""><p>What type of rock is this?</p>","5","class_response","0","test","47","Pegmatite","Pumice","06","false","6","8","",""
"","","","","","","","","","","","html-keyboard-response","100","2.0.0","244213","65c25cf77dca9d7ca7d9ebdb","2","48","null","","","","","","","","","<p style='font-size: 30px;'><strong>Okay</strong></p>","null","neutral_feedback","0","test","47","","","","","","","",""
"","","","","","","","","","","","html-button-response","101","2.0.0","249056","65c25cf77dca9d7ca7d9ebdb","2","48","4842","","","","","","","","","<img src= ""rock_img/I_Peridotite_16.jpg"" style=""width:8cm; height:6.989999999999999cm;""><p>What type of rock is this?</p>","3","class_response","0","test","48","Gabbro","Peridotite","16","false","4","7","",""
"","","","","","","","","","","","html-keyboard-response","102","2.0.0","249559","65c25cf77dca9d7ca7d9ebdb","2","48","null","","","","","","","","","<p style='font-size: 30px;'><strong>Okay</strong></p>","null","neutral_feedback","0","test","48","","","","","","","",""
"","","","","","","","","","","","instructions","103","2.0.0","294775","65c25cf77dca9d7ca7d9ebdb","2","48","45203","","","","","","","","[{""page_index"":0,""viewing_time"":40174},{""page_index"":1,""viewing_time"":2669},{""page_index"":2,""viewing_time"":2359}]","","","","","","","","","","","","","",""
"","","","","","","","","","","","html-button-response","104","2.0.0","296104","65c25cf77dca9d7ca7d9ebdb","2","48","1328","","","","","","","","","","0","start_train","","","","","","","","","","",""
"","","","","","","","","","","","html-button-response","105","2.0.0","301543","65c25cf77dca9d7ca7d9ebdb","2","48","5439","","","","","","","","","<img src= ""rock_img/I_Gabbro_09.jpg"" style=""width:8cm; height:7.279999999999999cm;""><p>What type of rock is this?</p>","1","class_response","1","train","1","Basalt","Gabbro","09","false","2","4","",""
"","","","","","","","","","","","html-button-response","106","2.0.0","304533","65c25cf77dca9d7ca7d9ebdb","2","48","2988","","","","","","","","","<img src= rock_img/I_Gabbro_09.jpg style=""width:8cm; height:7.279999999999999cm;""><p style='font-size: 30px; color: red;'><strong>Incorrect!</strong></p><p style='font-size: 30px;'><strong>This rock is gabbro</strong></p>","0","corr_feedback","1","train","1","","","","","","","",""
"","","","","","","","","","","","html-button-response","107","2.0.0","306552","65c25cf77dca9d7ca7d9ebdb","2","48","2018","","","","","","","","","<img src= ""rock_img/I_Pegmatite_10.jpg"" style=""width:8cm; height:4.16cm;""><p>What type of rock is this?</p>","0","class_response","1","train","2","Andesite","Pegmatite","10","false","1","6","",""
"","","","","","","","","","","","html-button-response","108","2.0.0","309049","65c25cf77dca9d7ca7d9ebdb","2","48","2497","","","","","","","","","<img src= rock_img/I_Pegmatite_10.jpg style=""width:8cm; height:4.16cm;""><p style='font-size: 30px; color: red;'><strong>Incorrect!</strong></p><p style='font-size: 30px;'><strong>This rock is pegmatite</strong></p>","0","corr_feedback","1","train","2","","","","","","","",""
"","","","","","","","","","","","html-button-response","109","2.0.0","310628","65c25cf77dca9d7ca7d9ebdb","2","48","1578","","","","","","","","","<img src= ""rock_img/I_Andesite_16.jpg"" style=""width:8cm; height:6.010000000000001cm;""><p>What type of rock is this?</p>","0","class_response","1","train","3","Andesite","Andesite","16","true","1","1","",""
"","","","","","","","","","","","html-button-response","110","2.0.0","312479","65c25cf77dca9d7ca7d9ebdb","2","48","1850","","","","","","","","","<img src= rock_img/I_Andesite_16.jpg style=""width:8cm; height:6.010000000000001cm;""><p style='font-size: 30px; color: green;'><strong>Correct!</strong></p><p style='font-size: 30px;'><strong>This rock is andesite</strong></p>","0","corr_feedback","1","train","3","","","","","","","",""
"","","","","","","","","","","","html-button-response","111","2.0.0","313645","65c25cf77dca9d7ca7d9ebdb","2","48","1165","","","","","","","","","<img src= ""rock_img/I_Peridotite_10.jpg"" style=""width:8cm; height:5.390000000000001cm;""><p>What type of rock is this?</p>","0","class_response","1","train","4","Andesite","Peridotite","10","false","1","7","",""
"","","","","","","","","","","","html-button-response","112","2.0.0","315848","65c25cf77dca9d7ca7d9ebdb","2","48","2202","","","","","","","","","<img src= rock_img/I_Peridotite_10.jpg style=""width:8cm; height:5.390000000000001cm;""><p style='font-size: 30px; color: red;'><strong>Incorrect!</strong></p><p style='font-size: 30px;'><strong>This rock is peridotite</strong></p>","0","corr_feedback","1","train","4","","","","","","","",""
"","","","","","","","","","","","html-button-response","113","2.0.0","318024","65c25cf77dca9d7ca7d9ebdb","2","48","2176","","","","","","","","","<img src= ""rock_img/I_Pumice_03.jpg"" style=""width:8cm; height:6.64cm;""><p>What type of rock is this?</p>","7","class_response","1","train","5","Pumice","Pumice","03","true","8","8","",""
"","","","","","","","","","","","html-button-response","114","2.0.0","319076","65c25cf77dca9d7ca7d9ebdb","2","48","1051","","","","","","","","","<img src= rock_img/I_Pumice_03.jpg style=""width:8cm; height:6.64cm;""><p style='font-size: 30px; color: green;'><strong>Correct!</strong></p><p style='font-size: 30px;'><strong>This rock is pumice</strong></p>","0","corr_feedback","1","train","5","","","","","","","",""
"","","","","","","","","","","","html-button-response","115","2.0.0","320403","65c25cf77dca9d7ca7d9ebdb","2","48","1326","","","","","","","","","<img src= ""rock_img/I_Diorite_16.jpg"" style=""width:8cm; height:6.74cm;""><p>What type of rock is this?</p>","2","class_response","1","train","6","Diorite","Diorite","16","true","3","3","",""
"","","","","","","","","","","","html-button-response","116","2.0.0","321102","65c25cf77dca9d7ca7d9ebdb","2","48","697","","","","","","","","","<img src= rock_img/I_Diorite_16.jpg style=""width:8cm; height:6.74cm;""><p style='font-size: 30px; color: green;'><strong>Correct!</strong></p><p style='font-size: 30px;'><strong>This rock is diorite</strong></p>","0","corr_feedback","1","train","6","","","","","","","",""
"","","","","","","","","","","","html-button-response","117","2.0.0","324426","65c25cf77dca9d7ca7d9ebdb","2","48","3323","","","","","","","","","<img src= ""rock_img/I_Peridotite_10.jpg"" style=""width:8cm; height:5.390000000000001cm;""><p>What type of rock is this?</p>","6","class_response","1","train","7","Peridotite","Peridotite","10","true","7","7","",""
"","","","","","","","","","","","html-button-response","118","2.0.0","325123","65c25cf77dca9d7ca7d9ebdb","2","48","697","","","","","","","","","<img src= rock_img/I_Peridotite_10.jpg style=""width:8cm; height:5.390000000000001cm;""><p style='font-size: 30px; color: green;'><strong>Correct!</strong></p><p style='font-size: 30px;'><strong>This rock is peridotite</strong></p>","0","corr_feedback","1","train","7","","","","","","","",""
"","","","","","","","","","","","html-button-response","119","2.0.0","329109","65c25cf77dca9d7ca7d9ebdb","2","48","3985","","","","","","","","","<img src= ""rock_img/I_Andesite_11.jpg"" style=""width:8cm; height:4.92cm;""><p>What type of rock is this?</p>","0","class_response","1","train","8","Andesite","Andesite","11","true","1","1","",""
"","","","","","","","","","","","html-button-response","120","2.0.0","330660","65c25cf77dca9d7ca7d9ebdb","2","48","1550","","","","","","","","","<img src= rock_img/I_Andesite_11.jpg style=""width:8cm; height:4.92cm;""><p style='font-size: 30px; color: green;'><strong>Correct!</strong></p><p style='font-size: 30px;'><strong>This rock is andesite</strong></p>","0","corr_feedback","1","train","8","","","","","","","",""
"","","","","","","","","","","","html-button-response","121","2.0.0","334909","65c25cf77dca9d7ca7d9ebdb","2","48","4248","","","","","","","","","<img src= ""rock_img/I_Peridotite_07.jpg"" style=""width:8cm; height:4.83cm;""><p>What type of rock is this?</p>","3","class_response","1","train","9","Gabbro","Peridotite","07","false","4","7","",""
"","","","","","","","","","","","html-button-response","122","2.0.0","335966","65c25cf77dca9d7ca7d9ebdb","2","48","1056","","","","","","","","","<img src= rock_img/I_Peridotite_07.jpg style=""width:8cm; height:4.83cm;""><p style='font-size: 30px; color: red;'><strong>Incorrect!</strong></p><p style='font-size: 30px;'><strong>This rock is peridotite</strong></p>","0","corr_feedback","1","train","9","","","","","","","",""
"","","","","","","","","","","","html-button-response","123","2.0.0","337306","65c25cf77dca9d7ca7d9ebdb","2","48","1339","","","","","","","","","<img src= ""rock_img/I_Diorite_11.jpg"" style=""width:8cm; height:7.11cm;""><p>What type of rock is this?</p>","2","class_response","1","train","10","Diorite","Diorite","11","true","3","3","",""
"","","","","","","","","","","","html-button-response","124","2.0.0","337898","65c25cf77dca9d7ca7d9ebdb","2","48","591","","","","","","","","","<img src= rock_img/I_Diorite_11.jpg style=""width:8cm; height:7.11cm;""><p style='font-size: 30px; color: green;'><strong>Correct!</strong></p><p style='font-size: 30px;'><strong>This rock is diorite</strong></p>","0","corr_feedback","1","train","10","","","","","","","",""
"","","","","","","","","","","","html-button-response","125","2.0.0","340924","65c25cf77dca9d7ca7d9ebdb","2","48","3024","","","","","","","","","<img src= ""rock_img/I_Peridotite_13.jpg"" style=""width:8cm; height:7.58cm;""><p>What type of rock is this?</p>","3","class_response","1","train","11","Gabbro","Peridotite","13","false","4","7","",""
"","","","","","","","","","","","html-button-response","126","2.0.0","342007","65c25cf77dca9d7ca7d9ebdb","2","48","1082","","","","","","","","","<img src= rock_img/I_Peridotite_13.jpg style=""width:8cm; height:7.58cm;""><p style='font-size: 30px; color: red;'><strong>Incorrect!</strong></p><p style='font-size: 30px;'><strong>This rock is peridotite</strong></p>","0","corr_feedback","1","train","11","","","","","","","",""
"","","","","","","","","","","","html-button-response","127","2.0.0","344622","65c25cf77dca9d7ca7d9ebdb","2","48","2615","","","","","","","","","<img src= ""rock_img/I_Pegmatite_03.jpg"" style=""width:8cm; height:5.239999999999999cm;""><p>What type of rock is this?</p>","6","class_response","1","train","12","Peridotite","Pegmatite","03","false","7","6","",""
"","","","","","","","","","","","html-button-response","128","2.0.0","345701","65c25cf77dca9d7ca7d9ebdb","2","48","1078","","","","","","","","","<img src= rock_img/I_Pegmatite_03.jpg style=""width:8cm; height:5.239999999999999cm;""><p style='font-size: 30px; color: red;'><strong>Incorrect!</strong></p><p style='font-size: 30px;'><strong>This rock is pegmatite</strong></p>","0","corr_feedback","1","train","12","","","","","","","",""
"","","","","","","","","","","","html-button-response","129","2.0.0","349130","65c25cf77dca9d7ca7d9ebdb","2","48","3429","","","","","","","","","<img src= ""rock_img/I_Pumice_04.jpg"" style=""width:8cm; height:6.819999999999999cm;""><p>What type of rock is this?</p>","1","class_response","1","train","13","Basalt","Pumice","04","false","2","8","",""
"","","","","","","","","","","","html-button-response","130","2.0.0","349986","65c25cf77dca9d7ca7d9ebdb","2","48","855","","","","","","","","","<img src= rock_img/I_Pumice_04.jpg style=""width:8cm; height:6.819999999999999cm;""><p style='font-size: 30px; color: red;'><strong>Incorrect!</strong></p><p style='font-size: 30px;'><strong>This rock is pumice</strong></p>","0","corr_feedback","1","train","13","","","","","","","",""
"","","","","","","","","","","","html-button-response","131","2.0.0","356783","65c25cf77dca9d7ca7d9ebdb","2","48","6797","","","","","","","","","<img src= ""rock_img/I_Peridotite_04.jpg"" style=""width:8cm; height:6.680000000000001cm;""><p>What type of rock is this?</p>","5","class_response","1","train","14","Pegmatite","Peridotite","04","false","6","7","",""
"","","","","","","","","","","","html-button-response","132","2.0.0","358348","65c25cf77dca9d7ca7d9ebdb","2","48","1565","","","","","","","","","<img src= rock_img/I_Peridotite_04.jpg style=""width:8cm; height:6.680000000000001cm;""><p style='font-size: 30px; color: red;'><strong>Incorrect!</strong></p><p style='font-size: 30px;'><strong>This rock is peridotite</strong></p>","0","corr_feedback","1","train","14","","","","","","","",""
"","","","","","","","","","","","html-button-response","133","2.0.0","364361","65c25cf77dca9d7ca7d9ebdb","2","48","6012","","","","","","","","","<img src= ""rock_img/I_Gabbro_15.jpg"" style=""width:8cm; height:6.29cm;""><p>What type of rock is this?</p>","7","class_response","1","train","15","Pumice","Gabbro","15","false","8","4","",""
"","","","","","","","","","","","html-button-response","134","2.0.0","365199","65c25cf77dca9d7ca7d9ebdb","2","48","837","","","","","","","","","<img src= rock_img/I_Gabbro_15.jpg style=""width:8cm; height:6.29cm;""><p style='font-size: 30px; color: red;'><strong>Incorrect!</strong></p><p style='font-size: 30px;'><strong>This rock is gabbro</strong></p>","0","corr_feedback","1","train","15","","","","","","","",""
"","","","","","","","","","","","html-button-response","135","2.0.0","366933","65c25cf77dca9d7ca7d9ebdb","2","48","1733","","","","","","","","","<img src= ""rock_img/I_Pumice_14.jpg"" style=""width:8cm; height:6.39cm;""><p>What type of rock is this?</p>","7","class_response","1","train","16","Pumice","Pumice","14","true","8","8","",""
"","","","","","","","","","","","html-button-response","136","2.0.0","367666","65c25cf77dca9d7ca7d9ebdb","2","48","732","","","","","","","","","<img src= rock_img/I_Pumice_14.jpg style=""width:8cm; height:6.39cm;""><p style='font-size: 30px; color: green;'><strong>Correct!</strong></p><p style='font-size: 30px;'><strong>This rock is pumice</strong></p>","0","corr_feedback","1","train","16","","","","","","","",""
"","","","","","","","","","","","html-button-response","137","2.0.0","369150","65c25cf77dca9d7ca7d9ebdb","2","48","1484","","","","","","","","","<img src= ""rock_img/I_Gabbro_13.jpg"" style=""width:8cm; height:5.08cm;""><p>What type of rock is this?</p>","3","class_response","1","train","17","Gabbro","Gabbro","13","true","4","4","",""
"","","","","","","","","","","","html-button-response","138","2.0.0","369803","65c25cf77dca9d7ca7d9ebdb","2","48","652","","","","","","","","","<img src= rock_img/I_Gabbro_13.jpg style=""width:8cm; height:5.08cm;""><p style='font-size: 30px; color: green;'><strong>Correct!</strong></p><p style='font-size: 30px;'><strong>This rock is gabbro</strong></p>","0","corr_feedback","1","train","17","","","","","","","",""
"","","","","","","","","","","","html-button-response","139","2.0.0","374968","65c25cf77dca9d7ca7d9ebdb","2","48","5165","","","","","","","","","<img src= ""rock_img/I_Pegmatite_10.jpg"" style=""width:8cm; height:4.16cm;""><p>What type of rock is this?</p>","3","class_response","1","train","18","Gabbro","Pegmatite","10","false","4","6","",""
"","","","","","","","","","","","html-button-response","140","2.0.0","375971","65c25cf77dca9d7ca7d9ebdb","2","48","1003","","","","","","","","","<img src= rock_img/I_Pegmatite_10.jpg style=""width:8cm; height:4.16cm;""><p style='font-size: 30px; color: red;'><strong>Incorrect!</strong></p><p style='font-size: 30px;'><strong>This rock is pegmatite</strong></p>","0","corr_feedback","1","train","18","","","","","","","",""
"","","","","","","","","","","","html-button-response","141","2.0.0","380137","65c25cf77dca9d7ca7d9ebdb","2","48","4165","","","","","","","","","<img src= ""rock_img/I_Pumice_16.jpg"" style=""width:8cm; height:6.79cm;""><p>What type of rock is this?</p>","7","class_response","1","train","19","Pumice","Pumice","16","true","8","8","",""
"","","","","","","","","","","","html-button-response","142","2.0.0","380792","65c25cf77dca9d7ca7d9ebdb","2","48","654","","","","","","","","","<img src= rock_img/I_Pumice_16.jpg style=""width:8cm; height:6.79cm;""><p style='font-size: 30px; color: green;'><strong>Correct!</strong></p><p style='font-size: 30px;'><strong>This rock is pumice</strong></p>","0","corr_feedback","1","train","19","","","","","","","",""
"","","","","","","","","","","","html-button-response","143","2.0.0","382518","65c25cf77dca9d7ca7d9ebdb","2","48","1726","","","","","","","","","<img src= ""rock_img/I_Pumice_08.jpg"" style=""width:8cm; height:6.67cm;""><p>What type of rock is this?</p>","1","class_response","1","train","20","Basalt","Pumice","08","false","2","8","",""
"","","","","","","","","","","","html-button-response","144","2.0.0","383694","65c25cf77dca9d7ca7d9ebdb","2","48","1175","","","","","","","","","<img src= rock_img/I_Pumice_08.jpg style=""width:8cm; height:6.67cm;""><p style='font-size: 30px; color: red;'><strong>Incorrect!</strong></p><p style='font-size: 30px;'><strong>This rock is pumice</strong></p>","0","corr_feedback","1","train","20","","","","","","","",""
"","","","","","","","","","","","html-button-response","145","2.0.0","385097","65c25cf77dca9d7ca7d9ebdb","2","48","1402","","","","","","","","","<img src= ""rock_img/I_Obsidian_05.jpg"" style=""width:8cm; height:6.33cm;""><p>What type of rock is this?</p>","4","class_response","1","train","21","Obsidian","Obsidian","05","true","5","5","",""
"","","","","","","","","","","","html-button-response","146","2.0.0","385643","65c25cf77dca9d7ca7d9ebdb","2","48","546","","","","","","","","","<img src= rock_img/I_Obsidian_05.jpg style=""width:8cm; height:6.33cm;""><p style='font-size: 30px; color: green;'><strong>Correct!</strong></p><p style='font-size: 30px;'><strong>This rock is obsidian</strong></p>","0","corr_feedback","1","train","21","","","","","","","",""
"","","","","","","","","","","","html-button-response","147","2.0.0","386929","65c25cf77dca9d7ca7d9ebdb","2","48","1285","","","","","","","","","<img src= ""rock_img/I_Basalt_08.jpg"" style=""width:8cm; height:10.44cm;""><p>What type of rock is this?</p>","1","class_response","1","train","22","Basalt","Basalt","08","true","2","2","",""
"","","","","","","","","","","","html-button-response","148","2.0.0","387532","65c25cf77dca9d7ca7d9ebdb","2","48","602","","","","","","","","","<img src= rock_img/I_Basalt_08.jpg style=""width:8cm; height:10.44cm;""><p style='font-size: 30px; color: green;'><strong>Correct!</strong></p><p style='font-size: 30px;'><strong>This rock is basalt</strong></p>","0","corr_feedback","1","train","22","","","","","","","",""
"","","","","","","","","","","","html-button-response","149","2.0.0","390975","65c25cf77dca9d7ca7d9ebdb","2","48","3442","","","","","","","","","<img src= ""rock_img/I_Peridotite_02.jpg"" style=""width:8cm; height:5.859999999999999cm;""><p>What type of rock is this?</p>","6","class_response","1","train","23","Peridotite","Peridotite","02","true","7","7","",""
"","","","","","","","","","","","html-button-response","150","2.0.0","391573","65c25cf77dca9d7ca7d9ebdb","2","48","598","","","","","","","","","<img src= rock_img/I_Peridotite_02.jpg style=""width:8cm; height:5.859999999999999cm;""><p style='font-size: 30px; color: green;'><strong>Correct!</strong></p><p style='font-size: 30px;'><strong>This rock is peridotite</strong></p>","0","corr_feedback","1","train","23","","","","","","","",""
"","","","","","","","","","","","html-button-response","151","2.0.0","393730","65c25cf77dca9d7ca7d9ebdb","2","48","2156","","","","","","","","","<img src= ""rock_img/I_Pegmatite_11.jpg"" style=""width:8cm; height:8.14cm;""><p>What type of rock is this?</p>","4","class_response","1","train","24","Obsidian","Pegmatite","11","false","5","6","",""
"","","","","","","","","","","","html-button-response","152","2.0.0","394656","65c25cf77dca9d7ca7d9ebdb","2","48","926","","","","","","","","","<img src= rock_img/I_Pegmatite_11.jpg style=""width:8cm; height:8.14cm;""><p style='font-size: 30px; color: red;'><strong>Incorrect!</strong></p><p style='font-size: 30px;'><strong>This rock is pegmatite</strong></p>","0","corr_feedback","1","train","24","","","","","","","",""
"","","","","","","","","","","","html-button-response","153","2.0.0","396371","65c25cf77dca9d7ca7d9ebdb","2","48","1714","","","","","","","","","<img src= ""rock_img/I_Peridotite_08.jpg"" style=""width:8cm; height:6.7cm;""><p>What type of rock is this?</p>","6","class_response","1","train","25","Peridotite","Peridotite","08","true","7","7","",""
"","","","","","","","","","","","html-button-response","154","2.0.0","396929","65c25cf77dca9d7ca7d9ebdb","2","48","556","","","","","","","","","<img src= rock_img/I_Peridotite_08.jpg style=""width:8cm; height:6.7cm;""><p style='font-size: 30px; color: green;'><strong>Correct!</strong></p><p style='font-size: 30px;'><strong>This rock is peridotite</strong></p>","0","corr_feedback","1","train","25","","","","","","","",""
"","","","","","","","","","","","html-button-response","155","2.0.0","399591","65c25cf77dca9d7ca7d9ebdb","2","48","2661","","","","","","","","","<img src= ""rock_img/I_Andesite_16.jpg"" style=""width:8cm; height:6.010000000000001cm;""><p>What type of rock is this?</p>","0","class_response","1","train","26","Andesite","Andesite","16","true","1","1","",""
"","","","","","","","","","","","html-button-response","156","2.0.0","400146","65c25cf77dca9d7ca7d9ebdb","2","48","555","","","","","","","","","<img src= rock_img/I_Andesite_16.jpg style=""width:8cm; height:6.010000000000001cm;""><p style='font-size: 30px; color: green;'><strong>Correct!</strong></p><p style='font-size: 30px;'><strong>This rock is andesite</strong></p>","0","corr_feedback","1","train","26","","","","","","","",""
"","","","","","","","","","","","html-button-response","157","2.0.0","404213","65c25cf77dca9d7ca7d9ebdb","2","48","4066","","","","","","","","","<img src= ""rock_img/I_Pumice_10.jpg"" style=""width:8cm; height:7.609999999999999cm;""><p>What type of rock is this?</p>","5","class_response","1","train","27","Pegmatite","Pumice","10","false","6","8","",""
"","","","","","","","","","","","html-button-response","158","2.0.0","405021","65c25cf77dca9d7ca7d9ebdb","2","48","807","","","","","","","","","<img src= rock_img/I_Pumice_10.jpg style=""width:8cm; height:7.609999999999999cm;""><p style='font-size: 30px; color: red;'><strong>Incorrect!</strong></p><p style='font-size: 30px;'><strong>This rock is pumice</strong></p>","0","corr_feedback","1","train","27","","","","","","","",""
"","","","","","","","","","","","html-button-response","159","2.0.0","406416","65c25cf77dca9d7ca7d9ebdb","2","48","1395","","","","","","","","","<img src= ""rock_img/I_Peridotite_02.jpg"" style=""width:8cm; height:5.859999999999999cm;""><p>What type of rock is this?</p>","6","class_response","1","train","28","Peridotite","Peridotite","02","true","7","7","",""
"","","","","","","","","","","","html-button-response","160","2.0.0","406968","65c25cf77dca9d7ca7d9ebdb","2","48","551","","","","","","","","","<img src= rock_img/I_Peridotite_02.jpg style=""width:8cm; height:5.859999999999999cm;""><p style='font-size: 30px; color: green;'><strong>Correct!</strong></p><p style='font-size: 30px;'><strong>This rock is peridotite</strong></p>","0","corr_feedback","1","train","28","","","","","","","",""
"","","","","","","","","","","","html-button-response","161","2.0.0","412579","65c25cf77dca9d7ca7d9ebdb","2","48","5611","","","","","","","","","<img src= ""rock_img/I_Andesite_01.jpg"" style=""width:8cm; height:5.87cm;""><p>What type of rock is this?</p>","4","class_response","1","train","29","Obsidian","Andesite","01","false","5","1","",""
"","","","","","","","","","","","html-button-response","162","2.0.0","413580","65c25cf77dca9d7ca7d9ebdb","2","48","1001","","","","","","","","","<img src= rock_img/I_Andesite_01.jpg style=""width:8cm; height:5.87cm;""><p style='font-size: 30px; color: red;'><strong>Incorrect!</strong></p><p style='font-size: 30px;'><strong>This rock is andesite</strong></p>","0","corr_feedback","1","train","29","","","","","","","",""
"","","","","","","","","","","","html-button-response","163","2.0.0","414783","65c25cf77dca9d7ca7d9ebdb","2","48","1202","","","","","","","","","<img src= ""rock_img/I_Andesite_06.jpg"" style=""width:8cm; height:6.840000000000001cm;""><p>What type of rock is this?</p>","0","class_response","1","train","30","Andesite","Andesite","06","true","1","1","",""
"","","","","","","","","","","","html-button-response","164","2.0.0","415271","65c25cf77dca9d7ca7d9ebdb","2","48","487","","","","","","","","","<img src= rock_img/I_Andesite_06.jpg style=""width:8cm; height:6.840000000000001cm;""><p style='font-size: 30px; color: green;'><strong>Correct!</strong></p><p style='font-size: 30px;'><strong>This rock is andesite</strong></p>","0","corr_feedback","1","train","30","","","","","","","",""
"","","","","","","","","","","","html-button-response","165","2.0.0","416487","65c25cf77dca9d7ca7d9ebdb","2","48","1215","","","","","","","","","<img src= ""rock_img/I_Pumice_16.jpg"" style=""width:8cm; height:6.79cm;""><p>What type of rock is this?</p>","7","class_response","1","train","31","Pumice","Pumice","16","true","8","8","",""
"","","","","","","","","","","","html-button-response","166","2.0.0","416949","65c25cf77dca9d7ca7d9ebdb","2","48","461","","","","","","","","","<img src= rock_img/I_Pumice_16.jpg style=""width:8cm; height:6.79cm;""><p style='font-size: 30px; color: green;'><strong>Correct!</strong></p><p style='font-size: 30px;'><strong>This rock is pumice</strong></p>","0","corr_feedback","1","train","31","","","","","","","",""
"","","","","","","","","","","","html-button-response","167","2.0.0","422209","65c25cf77dca9d7ca7d9ebdb","2","48","5260","","","","","","","","","<img src= ""rock_img/I_Basalt_10.jpg"" style=""width:8cm; height:5.85cm;""><p>What type of rock is this?</p>","6","class_response","1","train","32","Peridotite","Basalt","10","false","7","2","",""
"","","","","","","","","","","","html-button-response","168","2.0.0","423696","65c25cf77dca9d7ca7d9ebdb","2","48","1486","","","","","","","","","<img src= rock_img/I_Basalt_10.jpg style=""width:8cm; height:5.85cm;""><p style='font-size: 30px; color: red;'><strong>Incorrect!</strong></p><p style='font-size: 30px;'><strong>This rock is basalt</strong></p>","0","corr_feedback","1","train","32","","","","","","","",""
"","","","","","","","","","","","html-button-response","169","2.0.0","425736","65c25cf77dca9d7ca7d9ebdb","2","48","2040","","","","","","","","","<img src= ""rock_img/I_Gabbro_12.jpg"" style=""width:8cm; height:7.800000000000001cm;""><p>What type of rock is this?</p>","0","class_response","1","train","33","Andesite","Gabbro","12","false","1","4","",""
"","","","","","","","","","","","html-button-response","170","2.0.0","426625","65c25cf77dca9d7ca7d9ebdb","2","48","888","","","","","","","","","<img src= rock_img/I_Gabbro_12.jpg style=""width:8cm; height:7.800000000000001cm;""><p style='font-size: 30px; color: red;'><strong>Incorrect!</strong></p><p style='font-size: 30px;'><strong>This rock is gabbro</strong></p>","0","corr_feedback","1","train","33","","","","","","","",""
"","","","","","","","","","","","html-button-response","171","2.0.0","429027","65c25cf77dca9d7ca7d9ebdb","2","48","2401","","","","","","","","","<img src= ""rock_img/I_Pegmatite_07.jpg"" style=""width:8cm; height:6.7cm;""><p>What type of rock is this?</p>","4","class_response","1","train","34","Obsidian","Pegmatite","07","false","5","6","",""
"","","","","","","","","","","","html-button-response","172","2.0.0","429829","65c25cf77dca9d7ca7d9ebdb","2","48","802","","","","","","","","","<img src= rock_img/I_Pegmatite_07.jpg style=""width:8cm; height:6.7cm;""><p style='font-size: 30px; color: red;'><strong>Incorrect!</strong></p><p style='font-size: 30px;'><strong>This rock is pegmatite</strong></p>","0","corr_feedback","1","train","34","","","","","","","",""
"","","","","","","","","","","","html-button-response","173","2.0.0","431675","65c25cf77dca9d7ca7d9ebdb","2","48","1845","","","","","","","","","<img src= ""rock_img/I_Andesite_14.jpg"" style=""width:8cm; height:5.449999999999999cm;""><p>What type of rock is this?</p>","0","class_response","1","train","35","Andesite","Andesite","14","true","1","1","",""
"","","","","","","","","","","","html-button-response","174","2.0.0","432211","65c25cf77dca9d7ca7d9ebdb","2","48","536","","","","","","","","","<img src= rock_img/I_Andesite_14.jpg style=""width:8cm; height:5.449999999999999cm;""><p style='font-size: 30px; color: green;'><strong>Correct!</strong></p><p style='font-size: 30px;'><strong>This rock is andesite</strong></p>","0","corr_feedback","1","train","35","","","","","","","",""
"","","","","","","","","","","","html-button-response","175","2.0.0","434916","65c25cf77dca9d7ca7d9ebdb","2","48","2704","","","","","","","","","<img src= ""rock_img/I_Gabbro_01.jpg"" style=""width:8cm; height:5.21cm;""><p>What type of rock is this?</p>","5","class_response","1","train","36","Pegmatite","Gabbro","01","false","6","4","",""
"","","","","","","","","","","","html-button-response","176","2.0.0","435926","65c25cf77dca9d7ca7d9ebdb","2","48","1009","","","","","","","","","<img src= rock_img/I_Gabbro_01.jpg style=""width:8cm; height:5.21cm;""><p style='font-size: 30px; color: red;'><strong>Incorrect!</strong></p><p style='font-size: 30px;'><strong>This rock is gabbro</strong></p>","0","corr_feedback","1","train","36","","","","","","","",""
"","","","","","","","","","","","html-button-response","177","2.0.0","436983","65c25cf77dca9d7ca7d9ebdb","2","48","1056","","","","","","","","","<img src= ""rock_img/I_Pumice_04.jpg"" style=""width:8cm; height:6.819999999999999cm;""><p>What type of rock is this?</p>","7","class_response","1","train","37","Pumice","Pumice","04","true","8","8","",""
"","","","","","","","","","","","html-button-response","178","2.0.0","437462","65c25cf77dca9d7ca7d9ebdb","2","48","478","","","","","","","","","<img src= rock_img/I_Pumice_04.jpg style=""width:8cm; height:6.819999999999999cm;""><p style='font-size: 30px; color: green;'><strong>Correct!</strong></p><p style='font-size: 30px;'><strong>This rock is pumice</strong></p>","0","corr_feedback","1","train","37","","","","","","","",""
"","","","","","","","","","","","html-button-response","179","2.0.0","438620","65c25cf77dca9d7ca7d9ebdb","2","48","1157","","","","","","","","","<img src= ""rock_img/I_Diorite_14.jpg"" style=""width:8cm; height:5.71cm;""><p>What type of rock is this?</p>","2","class_response","1","train","38","Diorite","Diorite","14","true","3","3","",""
"","","","","","","","","","","","html-button-response","180","2.0.0","439341","65c25cf77dca9d7ca7d9ebdb","2","48","721","","","","","","","","","<img src= rock_img/I_Diorite_14.jpg style=""width:8cm; height:5.71cm;""><p style='font-size: 30px; color: green;'><strong>Correct!</strong></p><p style='font-size: 30px;'><strong>This rock is diorite</strong></p>","0","corr_feedback","1","train","38","","","","","","","",""
"","","","","","","","","","","","html-button-response","181","2.0.0","441932","65c25cf77dca9d7ca7d9ebdb","2","48","2590","","","","","","","","","<img src= ""rock_img/I_Basalt_02.jpg"" style=""width:8cm; height:6.45cm;""><p>What type of rock is this?</p>","0","class_response","1","train","39","Andesite","Basalt","02","false","1","2","",""
"","","","","","","","","","","","html-button-response","182","2.0.0","443579","65c25cf77dca9d7ca7d9ebdb","2","48","1646","","","","","","","","","<img src= rock_img/I_Basalt_02.jpg style=""width:8cm; height:6.45cm;""><p style='font-size: 30px; color: red;'><strong>Incorrect!</strong></p><p style='font-size: 30px;'><strong>This rock is basalt</strong></p>","0","corr_feedback","1","train","39","","","","","","","",""
"","","","","","","","","","","","html-button-response","183","2.0.0","444565","65c25cf77dca9d7ca7d9ebdb","2","48","985","","","","","","","","","<img src= ""rock_img/I_Andesite_07.jpg"" style=""width:8cm; height:5.93cm;""><p>What type of rock is this?</p>","2","class_response","1","train","40","Diorite","Andesite","07","false","3","1","",""
"","","","","","","","","","","","html-button-response","184","2.0.0","445811","65c25cf77dca9d7ca7d9ebdb","2","48","1246","","","","","","","","","<img src= rock_img/I_Andesite_07.jpg style=""width:8cm; height:5.93cm;""><p style='font-size: 30px; color: red;'><strong>Incorrect!</strong></p><p style='font-size: 30px;'><strong>This rock is andesite</strong></p>","0","corr_feedback","1","train","40","","","","","","","",""
"","","","","","","","","","","","html-button-response","185","2.0.0","449090","65c25cf77dca9d7ca7d9ebdb","2","48","3278","","","","","","","","","<img src= ""rock_img/I_Pumice_10.jpg"" style=""width:8cm; height:7.609999999999999cm;""><p>What type of rock is this?</p>","3","class_response","1","train","41","Gabbro","Pumice","10","false","4","8","",""
"","","","","","","","","","","","html-button-response","186","2.0.0","450108","65c25cf77dca9d7ca7d9ebdb","2","48","1017","","","","","","","","","<img src= rock_img/I_Pumice_10.jpg style=""width:8cm; height:7.609999999999999cm;""><p style='font-size: 30px; color: red;'><strong>Incorrect!</strong></p><p style='font-size: 30px;'><strong>This rock is pumice</strong></p>","0","corr_feedback","1","train","41","","","","","","","",""
"","","","","","","","","","","","html-button-response","187","2.0.0","452360","65c25cf77dca9d7ca7d9ebdb","2","48","2252","","","","","","","","","<img src= ""rock_img/I_Pegmatite_16.jpg"" style=""width:8cm; height:5.8cm;""><p>What type of rock is this?</p>","2","class_response","1","train","42","Diorite","Pegmatite","16","false","3","6","",""
"","","","","","","","","","","","html-button-response","188","2.0.0","453244","65c25cf77dca9d7ca7d9ebdb","2","48","883","","","","","","","","","<img src= rock_img/I_Pegmatite_16.jpg style=""width:8cm; height:5.8cm;""><p style='font-size: 30px; color: red;'><strong>Incorrect!</strong></p><p style='font-size: 30px;'><strong>This rock is pegmatite</strong></p>","0","corr_feedback","1","train","42","","","","","","","",""
"","","","","","","","","","","","html-button-response","189","2.0.0","458164","65c25cf77dca9d7ca7d9ebdb","2","48","4919","","","","","","","","","<img src= ""rock_img/I_Basalt_16.jpg"" style=""width:8cm; height:7.659999999999999cm;""><p>What type of rock is this?</p>","7","class_response","1","train","43","Pumice","Basalt","16","false","8","2","",""
"","","","","","","","","","","","html-button-response","190","2.0.0","459330","65c25cf77dca9d7ca7d9ebdb","2","48","1165","","","","","","","","","<img src= rock_img/I_Basalt_16.jpg style=""width:8cm; height:7.659999999999999cm;""><p style='font-size: 30px; color: red;'><strong>Incorrect!</strong></p><p style='font-size: 30px;'><strong>This rock is basalt</strong></p>","0","corr_feedback","1","train","43","","","","","","","",""
"","","","","","","","","","","","html-button-response","191","2.0.0","460762","65c25cf77dca9d7ca7d9ebdb","2","48","1431","","","","","","","","","<img src= ""rock_img/I_Diorite_06.jpg"" style=""width:8cm; height:6.03cm;""><p>What type of rock is this?</p>","2","class_response","1","train","44","Diorite","Diorite","06","true","3","3","",""
"","","","","","","","","","","","html-button-response","192","2.0.0","461252","65c25cf77dca9d7ca7d9ebdb","2","48","489","","","","","","","","","<img src= rock_img/I_Diorite_06.jpg style=""width:8cm; height:6.03cm;""><p style='font-size: 30px; color: green;'><strong>Correct!</strong></p><p style='font-size: 30px;'><strong>This rock is diorite</strong></p>","0","corr_feedback","1","train","44","","","","","","","",""
"","","","","","","","","","","","html-button-response","193","2.0.0","463431","65c25cf77dca9d7ca7d9ebdb","2","48","2179","","","","","","","","","<img src= ""rock_img/I_Gabbro_10.jpg"" style=""width:8cm; height:5.680000000000001cm;""><p>What type of rock is this?</p>","0","class_response","1","train","45","Andesite","Gabbro","10","false","1","4","",""
"","","","","","","","","","","","html-button-response","194","2.0.0","464309","65c25cf77dca9d7ca7d9ebdb","2","48","877","","","","","","","","","<img src= rock_img/I_Gabbro_10.jpg style=""width:8cm; height:5.680000000000001cm;""><p style='font-size: 30px; color: red;'><strong>Incorrect!</strong></p><p style='font-size: 30px;'><strong>This rock is gabbro</strong></p>","0","corr_feedback","1","train","45","","","","","","","",""
"","","","","","","","","","","","html-button-response","195","2.0.0","465963","65c25cf77dca9d7ca7d9ebdb","2","48","1653","","","","","","","","","<img src= ""rock_img/I_Peridotite_13.jpg"" style=""width:8cm; height:7.58cm;""><p>What type of rock is this?</p>","6","class_response","1","train","46","Peridotite","Peridotite","13","true","7","7","",""
"","","","","","","","","","","","html-button-response","196","2.0.0","466605","65c25cf77dca9d7ca7d9ebdb","2","48","642","","","","","","","","","<img src= rock_img/I_Peridotite_13.jpg style=""width:8cm; height:7.58cm;""><p style='font-size: 30px; color: green;'><strong>Correct!</strong></p><p style='font-size: 30px;'><strong>This rock is peridotite</strong></p>","0","corr_feedback","1","train","46","","","","","","","",""
"","","","","","","","","","","","html-button-response","197","2.0.0","467953","65c25cf77dca9d7ca7d9ebdb","2","48","1347","","","","","","","","","<img src= ""rock_img/I_Pegmatite_12.jpg"" style=""width:8cm; height:5.7cm;""><p>What type of rock is this?</p>","2","class_response","1","train","47","Diorite","Pegmatite","12","false","3","6","",""
"","","","","","","","","","","","html-button-response","198","2.0.0","468778","65c25cf77dca9d7ca7d9ebdb","2","48","825","","","","","","","","","<img src= rock_img/I_Pegmatite_12.jpg style=""width:8cm; height:5.7cm;""><p style='font-size: 30px; color: red;'><strong>Incorrect!</strong></p><p style='font-size: 30px;'><strong>This rock is pegmatite</strong></p>","0","corr_feedback","1","train","47","","","","","","","",""
"","","","","","","","","","","","html-button-response","199","2.0.0","470096","65c25cf77dca9d7ca7d9ebdb","2","48","1317","","","","","","","","","<img src= ""rock_img/I_Diorite_07.jpg"" style=""width:8cm; height:5.239999999999999cm;""><p>What type of rock is this?</p>","5","class_response","1","train","48","Pegmatite","Diorite","07","false","6","3","",""
"","","","","","","","","","","","html-button-response","200","2.0.0","471190","65c25cf77dca9d7ca7d9ebdb","2","48","1093","","","","","","","","","<img src= rock_img/I_Diorite_07.jpg style=""width:8cm; height:5.239999999999999cm;""><p style='font-size: 30px; color: red;'><strong>Incorrect!</strong></p><p style='font-size: 30px;'><strong>This rock is diorite</strong></p>","0","corr_feedback","1","train","48","","","","","","","",""
"","","","","","","","","","","","instructions","203","2.0.0","485175","65c25cf77dca9d7ca7d9ebdb","2","48","13984","","","","","","","","[{""page_index"":0,""viewing_time"":5023},{""page_index"":1,""viewing_time"":8961}]","","","","","","","","","","","","","",""
"","","","","","","","","","","","html-button-response","204","2.0.0","486040","65c25cf77dca9d7ca7d9ebdb","2","48","865","","","","","","","","","","0","start_test","","","","","","","","","","",""
"","","","","","","","","","","","html-button-response","205","2.0.0","487768","65c25cf77dca9d7ca7d9ebdb","2","48","1727","","","","","","","","","<img src= ""rock_img/I_Basalt_06.jpg"" style=""width:8cm; height:7.06cm;""><p>What type of rock is this?</p>","1","class_response","1","test","1","Basalt","Basalt","06","true","2","2","",""
"","","","","","","","","","","","html-keyboard-response","206","2.0.0","488271","65c25cf77dca9d7ca7d9ebdb","2","48","null","","","","","","","","","<p style='font-size: 30px;'><strong>Okay</strong></p>","null","neutral_feedback","1","test","1","","","","","","","",""
"","","","","","","","","","","","html-button-response","207","2.0.0","491345","65c25cf77dca9d7ca7d9ebdb","2","48","3073","","","","","","","","","<img src= ""rock_img/I_Basalt_01.jpg"" style=""width:8cm; height:7.880000000000001cm;""><p>What type of rock is this?</p>","1","class_response","1","test","2","Basalt","Basalt","01","true","2","2","",""
"","","","","","","","","","","","html-keyboard-response","208","2.0.0","491855","65c25cf77dca9d7ca7d9ebdb","2","48","null","","","","","","","","","<p style='font-size: 30px;'><strong>Okay</strong></p>","null","neutral_feedback","1","test","2","","","","","","","",""
"","","","","","","","","","","","html-button-response","209","2.0.0","492776","65c25cf77dca9d7ca7d9ebdb","2","48","920","","","","","","","","","<img src= ""rock_img/I_Obsidian_11.jpg"" style=""width:8cm; height:6.05cm;""><p>What type of rock is this?</p>","4","class_response","1","test","3","Obsidian","Obsidian","11","true","5","5","",""
"","","","","","","","","","","","html-keyboard-response","210","2.0.0","493278","65c25cf77dca9d7ca7d9ebdb","2","48","null","","","","","","","","","<p style='font-size: 30px;'><strong>Okay</strong></p>","null","neutral_feedback","1","test","3","","","","","","","",""
"","","","","","","","","","","","html-button-response","211","2.0.0","494106","65c25cf77dca9d7ca7d9ebdb","2","48","827","","","","","","","","","<img src= ""rock_img/I_Obsidian_08.jpg"" style=""width:8cm; height:7.39cm;""><p>What type of rock is this?</p>","4","class_response","1","test","4","Obsidian","Obsidian","08","true","5","5","",""
"","","","","","","","","","","","html-keyboard-response","212","2.0.0","494609","65c25cf77dca9d7ca7d9ebdb","2","48","null","","","","","","","","","<p style='font-size: 30px;'><strong>Okay</strong></p>","null","neutral_feedback","1","test","4","","","","","","","",""
"","","","","","","","","","","","html-button-response","213","2.0.0","498310","65c25cf77dca9d7ca7d9ebdb","2","48","3700","","","","","","","","","<img src= ""rock_img/I_Peridotite_06.jpg"" style=""width:8cm; height:7.53cm;""><p>What type of rock is this?</p>","6","class_response","1","test","5","Peridotite","Peridotite","06","true","7","7","",""
"","","","","","","","","","","","html-keyboard-response","214","2.0.0","498825","65c25cf77dca9d7ca7d9ebdb","2","48","null","","","","","","","","","<p style='font-size: 30px;'><strong>Okay</strong></p>","null","neutral_feedback","1","test","5","","","","","","","",""
"","","","","","","","","","","","html-button-response","215","2.0.0","503149","65c25cf77dca9d7ca7d9ebdb","2","48","4323","","","","","","","","","<img src= ""rock_img/I_Diorite_09.jpg"" style=""width:8cm; height:5.27cm;""><p>What type of rock is this?</p>","5","class_response","1","test","6","Pegmatite","Diorite","09","false","6","3","",""
"","","","","","","","","","","","html-keyboard-response","216","2.0.0","503655","65c25cf77dca9d7ca7d9ebdb","2","48","null","","","","","","","","","<p style='font-size: 30px;'><strong>Okay</strong></p>","null","neutral_feedback","1","test","6","","","","","","","",""
"","","","","","","","","","","","html-button-response","217","2.0.0","505158","65c25cf77dca9d7ca7d9ebdb","2","48","1502","","","","","","","","","<img src= ""rock_img/I_Gabbro_11.jpg"" style=""width:8cm; height:6.2cm;""><p>What type of rock is this?</p>","0","class_response","1","test","7","Andesite","Gabbro","11","false","1","4","",""
"","","","","","","","","","","","html-keyboard-response","218","2.0.0","505667","65c25cf77dca9d7ca7d9ebdb","2","48","null","","","","","","","","","<p style='font-size: 30px;'><strong>Okay</strong></p>","null","neutral_feedback","1","test","7","","","","","","","",""
"","","","","","","","","","","","html-button-response","219","2.0.0","506981","65c25cf77dca9d7ca7d9ebdb","2","48","1313","","","","","","","","","<img src= ""rock_img/I_Basalt_04.jpg"" style=""width:8cm; height:7.53cm;""><p>What type of rock is this?</p>","1","class_response","1","test","8","Basalt","Basalt","04","true","2","2","",""
"","","","","","","","","","","","html-keyboard-response","220","2.0.0","507485","65c25cf77dca9d7ca7d9ebdb","2","48","null","","","","","","","","","<p style='font-size: 30px;'><strong>Okay</strong></p>","null","neutral_feedback","1","test","8","","","","","","","",""
"","","","","","","","","","","","html-button-response","221","2.0.0","508511","65c25cf77dca9d7ca7d9ebdb","2","48","1025","","","","","","","","","<img src= ""rock_img/I_Obsidian_02.jpg"" style=""width:8cm; height:7.51cm;""><p>What type of rock is this?</p>","4","class_response","1","test","9","Obsidian","Obsidian","02","true","5","5","",""
"","","","","","","","","","","","html-keyboard-response","222","2.0.0","509027","65c25cf77dca9d7ca7d9ebdb","2","48","null","","","","","","","","","<p style='font-size: 30px;'><strong>Okay</strong></p>","null","neutral_feedback","1","test","9","","","","","","","",""
"","","","","","","","","","","","html-button-response","223","2.0.0","511595","65c25cf77dca9d7ca7d9ebdb","2","48","2568","","","","","","","","","<img src= ""rock_img/I_Pegmatite_05.jpg"" style=""width:8cm; height:7.300000000000001cm;""><p>What type of rock is this?</p>","2","class_response","1","test","10","Diorite","Pegmatite","05","false","3","6","",""
"","","","","","","","","","","","html-keyboard-response","224","2.0.0","512098","65c25cf77dca9d7ca7d9ebdb","2","48","null","","","","","","","","","<p style='font-size: 30px;'><strong>Okay</strong></p>","null","neutral_feedback","1","test","10","","","","","","","",""
"","","","","","","","","","","","html-button-response","225","2.0.0","513355","65c25cf77dca9d7ca7d9ebdb","2","48","1256","","","","","","","","","<img src= ""rock_img/I_Peridotite_14.jpg"" style=""width:8cm; height:5.3cm;""><p>What type of rock is this?</p>","3","class_response","1","test","11","Gabbro","Peridotite","14","false","4","7","",""
"","","","","","","","","","","","html-keyboard-response","226","2.0.0","513864","65c25cf77dca9d7ca7d9ebdb","2","48","null","","","","","","","","","<p style='font-size: 30px;'><strong>Okay</strong></p>","null","neutral_feedback","1","test","11","","","","","","","",""
"","","","","","","","","","","","html-button-response","227","2.0.0","515123","65c25cf77dca9d7ca7d9ebdb","2","48","1258","","","","","","","","","<img src= ""rock_img/I_Diorite_10.jpg"" style=""width:8cm; height:5.949999999999999cm;""><p>What type of rock is this?</p>","3","class_response","1","test","12","Gabbro","Diorite","10","false","4","3","",""
"","","","","","","","","","","","html-keyboard-response","228","2.0.0","515624","65c25cf77dca9d7ca7d9ebdb","2","48","null","","","","","","","","","<p style='font-size: 30px;'><strong>Okay</strong></p>","null","neutral_feedback","1","test","12","","","","","","","",""
"","","","","","","","","","","","html-button-response","229","2.0.0","520105","65c25cf77dca9d7ca7d9ebdb","2","48","4481","","","","","","","","","<img src= ""rock_img/I_Basalt_14.jpg"" style=""width:8cm; height:5.82cm;""><p>What type of rock is this?</p>","5","class_response","1","test","13","Pegmatite","Basalt","14","false","6","2","",""
"","","","","","","","","","","","html-keyboard-response","230","2.0.0","520609","65c25cf77dca9d7ca7d9ebdb","2","48","null","","","","","","","","","<p style='font-size: 30px;'><strong>Okay</strong></p>","null","neutral_feedback","1","test","13","","","","","","","",""
"","","","","","","","","","","","html-button-response","231","2.0.0","525487","65c25cf77dca9d7ca7d9ebdb","2","48","4877","","","","","","","","","<img src= ""rock_img/I_Andesite_05.jpg"" style=""width:8cm; height:4.12cm;""><p>What type of rock is this?</p>","6","class_response","1","test","14","Peridotite","Andesite","05","false","7","1","",""
"","","","","","","","","","","","html-keyboard-response","232","2.0.0","525994","65c25cf77dca9d7ca7d9ebdb","2","48","null","","","","","","","","","<p style='font-size: 30px;'><strong>Okay</strong></p>","null","neutral_feedback","1","test","14","","","","","","","",""
"","","","","","","","","","","","html-button-response","233","2.0.0","527128","65c25cf77dca9d7ca7d9ebdb","2","48","1134","","","","","","","","","<img src= ""rock_img/I_Gabbro_05.jpg"" style=""width:8cm; height:6cm;""><p>What type of rock is this?</p>","3","class_response","1","test","15","Gabbro","Gabbro","05","true","4","4","",""
"","","","","","","","","","","","html-keyboard-response","234","2.0.0","527641","65c25cf77dca9d7ca7d9ebdb","2","48","null","","","","","","","","","<p style='font-size: 30px;'><strong>Okay</strong></p>","null","neutral_feedback","1","test","15","","","","","","","",""
"","","","","","","","","","","","html-button-response","235","2.0.0","529923","65c25cf77dca9d7ca7d9ebdb","2","48","2281","","","","","","","","","<img src= ""rock_img/I_Gabbro_16.jpg"" style=""width:8cm; height:6.44cm;""><p>What type of rock is this?</p>","5","class_response","1","test","16","Pegmatite","Gabbro","16","false","6","4","",""
"","","","","","","","","","","","html-keyboard-response","236","2.0.0","530437","65c25cf77dca9d7ca7d9ebdb","2","48","null","","","","","","","","","<p style='font-size: 30px;'><strong>Okay</strong></p>","null","neutral_feedback","1","test","16","","","","","","","",""
"","","","","","","","","","","","html-button-response","237","2.0.0","533420","65c25cf77dca9d7ca7d9ebdb","2","48","2982","","","","","","","","","<img src= ""rock_img/I_Diorite_13.jpg"" style=""width:8cm; height:6.29cm;""><p>What type of rock is this?</p>","6","class_response","1","test","17","Peridotite","Diorite","13","false","7","3","",""
"","","","","","","","","","","","html-keyboard-response","238","2.0.0","533924","65c25cf77dca9d7ca7d9ebdb","2","48","null","","","","","","","","","<p style='font-size: 30px;'><strong>Okay</strong></p>","null","neutral_feedback","1","test","17","","","","","","","",""
"","","","","","","","","","","","html-button-response","239","2.0.0","535315","65c25cf77dca9d7ca7d9ebdb","2","48","1390","","","","","","","","","<img src= ""rock_img/I_Diorite_15.jpg"" style=""width:8cm; height:5.54cm;""><p>What type of rock is this?</p>","6","class_response","1","test","18","Peridotite","Diorite","15","false","7","3","",""
"","","","","","","","","","","","html-keyboard-response","240","2.0.0","535823","65c25cf77dca9d7ca7d9ebdb","2","48","null","","","","","","","","","<p style='font-size: 30px;'><strong>Okay</strong></p>","null","neutral_feedback","1","test","18","","","","","","","",""
"","","","","","","","","","","","html-button-response","241","2.0.0","536919","65c25cf77dca9d7ca7d9ebdb","2","48","1096","","","","","","","","","<img src= ""rock_img/I_Pumice_02.jpg"" style=""width:8cm; height:7.3999999999999995cm;""><p>What type of rock is this?</p>","7","class_response","1","test","19","Pumice","Pumice","02","true","8","8","",""
"","","","","","","","","","","","html-keyboard-response","242","2.0.0","537422","65c25cf77dca9d7ca7d9ebdb","2","48","null","","","","","","","","","<p style='font-size: 30px;'><strong>Okay</strong></p>","null","neutral_feedback","1","test","19","","","","","","","",""
"","","","","","","","","","","","html-button-response","243","2.0.0","539121","65c25cf77dca9d7ca7d9ebdb","2","48","1699","","","","","","","","","<img src= ""rock_img/I_Andesite_03.jpg"" style=""width:8cm; height:5.73cm;""><p>What type of rock is this?</p>","0","class_response","1","test","20","Andesite","Andesite","03","true","1","1","",""
"","","","","","","","","","","","html-keyboard-response","244","2.0.0","539625","65c25cf77dca9d7ca7d9ebdb","2","48","null","","","","","","","","","<p style='font-size: 30px;'><strong>Okay</strong></p>","null","neutral_feedback","1","test","20","","","","","","","",""
"","","","","","","","","","","","html-button-response","245","2.0.0","540865","65c25cf77dca9d7ca7d9ebdb","2","48","1239","","","","","","","","","<img src= ""rock_img/I_Obsidian_07.jpg"" style=""width:8cm; height:4.76cm;""><p>What type of rock is this?</p>","4","class_response","1","test","21","Obsidian","Obsidian","07","true","5","5","",""
"","","","","","","","","","","","html-keyboard-response","246","2.0.0","541381","65c25cf77dca9d7ca7d9ebdb","2","48","null","","","","","","","","","<p style='font-size: 30px;'><strong>Okay</strong></p>","null","neutral_feedback","1","test","21","","","","","","","",""
"","","","","","","","","","","","html-button-response","247","2.0.0","543204","65c25cf77dca9d7ca7d9ebdb","2","48","1823","","","","","","","","","<img src= ""rock_img/I_Pegmatite_06.jpg"" style=""width:8cm; height:5.17cm;""><p>What type of rock is this?</p>","5","class_response","1","test","22","Pegmatite","Pegmatite","06","true","6","6","",""
"","","","","","","","","","","","html-keyboard-response","248","2.0.0","543711","65c25cf77dca9d7ca7d9ebdb","2","48","null","","","","","","","","","<p style='font-size: 30px;'><strong>Okay</strong></p>","null","neutral_feedback","1","test","22","","","","","","","",""
"","","","","","","","","","","","html-button-response","249","2.0.0","544878","65c25cf77dca9d7ca7d9ebdb","2","48","1167","","","","","","","","","<img src= ""rock_img/I_Peridotite_16.jpg"" style=""width:8cm; height:6.989999999999999cm;""><p>What type of rock is this?</p>","3","class_response","1","test","23","Gabbro","Peridotite","16","false","4","7","",""
"","","","","","","","","","","","html-keyboard-response","250","2.0.0","545383","65c25cf77dca9d7ca7d9ebdb","2","48","null","","","","","","","","","<p style='font-size: 30px;'><strong>Okay</strong></p>","null","neutral_feedback","1","test","23","","","","","","","",""
"","","","","","","","","","","","html-button-response","251","2.0.0","546731","65c25cf77dca9d7ca7d9ebdb","2","48","1348","","","","","","","","","<img src= ""rock_img/I_Diorite_12.jpg"" style=""width:8cm; height:4.88cm;""><p>What type of rock is this?</p>","6","class_response","1","test","24","Peridotite","Diorite","12","false","7","3","",""
"","","","","","","","","","","","html-keyboard-response","252","2.0.0","547244","65c25cf77dca9d7ca7d9ebdb","2","48","null","","","","","","","","","<p style='font-size: 30px;'><strong>Okay</strong></p>","null","neutral_feedback","1","test","24","","","","","","","",""
"","","","","","","","","","","","html-button-response","253","2.0.0","551183","65c25cf77dca9d7ca7d9ebdb","2","48","3939","","","","","","","","","<img src= ""rock_img/I_Pegmatite_08.jpg"" style=""width:8cm; height:7.68cm;""><p>What type of rock is this?</p>","5","class_response","1","test","25","Pegmatite","Pegmatite","08","true","6","6","",""
"","","","","","","","","","","","html-keyboard-response","254","2.0.0","551692","65c25cf77dca9d7ca7d9ebdb","2","48","null","","","","","","","","","<p style='font-size: 30px;'><strong>Okay</strong></p>","null","neutral_feedback","1","test","25","","","","","","","",""
"","","","","","","","","","","","html-button-response","255","2.0.0","555761","65c25cf77dca9d7ca7d9ebdb","2","48","4069","","","","","","","","","<img src= ""rock_img/I_Andesite_10.jpg"" style=""width:8cm; height:4.16cm;""><p>What type of rock is this?</p>","7","class_response","1","test","26","Pumice","Andesite","10","false","8","1","",""
"","","","","","","","","","","","html-keyboard-response","256","2.0.0","556269","65c25cf77dca9d7ca7d9ebdb","2","48","null","","","","","","","","","<p style='font-size: 30px;'><strong>Okay</strong></p>","null","neutral_feedback","1","test","26","","","","","","","",""
"","","","","","","","","","","","html-button-response","257","2.0.0","557299","65c25cf77dca9d7ca7d9ebdb","2","48","1029","","","","","","","","","<img src= ""rock_img/I_Diorite_02.jpg"" style=""width:8cm; height:6.27cm;""><p>What type of rock is this?</p>","2","class_response","1","test","27","Diorite","Diorite","02","true","3","3","",""
"","","","","","","","","","","","html-keyboard-response","258","2.0.0","557800","65c25cf77dca9d7ca7d9ebdb","2","48","null","","","","","","","","","<p style='font-size: 30px;'><strong>Okay</strong></p>","null","neutral_feedback","1","test","27","","","","","","","",""
"","","","","","","","","","","","html-button-response","259","2.0.0","558705","65c25cf77dca9d7ca7d9ebdb","2","48","903","","","","","","","","","<img src= ""rock_img/I_Pumice_15.jpg"" style=""width:8cm; height:7.86cm;""><p>What type of rock is this?</p>","7","class_response","1","test","28","Pumice","Pumice","15","true","8","8","",""
"","","","","","","","","","","","html-keyboard-response","260","2.0.0","559211","65c25cf77dca9d7ca7d9ebdb","2","48","null","","","","","","","","","<p style='font-size: 30px;'><strong>Okay</strong></p>","null","neutral_feedback","1","test","28","","","","","","","",""
"","","","","","","","","","","","html-button-response","261","2.0.0","560041","65c25cf77dca9d7ca7d9ebdb","2","48","828","","","","","","","","","<img src= ""rock_img/I_Pumice_05.jpg"" style=""width:8cm; height:7.25cm;""><p>What type of rock is this?</p>","7","class_response","1","test","29","Pumice","Pumice","05","true","8","8","",""
"","","","","","","","","","","","html-keyboard-response","262","2.0.0","560549","65c25cf77dca9d7ca7d9ebdb","2","48","null","","","","","","","","","<p style='font-size: 30px;'><strong>Okay</strong></p>","null","neutral_feedback","1","test","29","","","","","","","",""
"","","","","","","","","","","","html-button-response","263","2.0.0","562281","65c25cf77dca9d7ca7d9ebdb","2","48","1731","","","","","","","","","<img src= ""rock_img/I_Andesite_09.jpg"" style=""width:8cm; height:6cm;""><p>What type of rock is this?</p>","0","class_response","1","test","30","Andesite","Andesite","09","true","1","1","",""
"","","","","","","","","","","","html-keyboard-response","264","2.0.0","562791","65c25cf77dca9d7ca7d9ebdb","2","48","null","","","","","","","","","<p style='font-size: 30px;'><strong>Okay</strong></p>","null","neutral_feedback","1","test","30","","","","","","","",""
"","","","","","","","","","","","html-button-response","265","2.0.0","564511","65c25cf77dca9d7ca7d9ebdb","2","48","1719","","","","","","","","","<img src= ""rock_img/I_Peridotite_12.jpg"" style=""width:8cm; height:4.54cm;""><p>What type of rock is this?</p>","6","class_response","1","test","31","Peridotite","Peridotite","12","true","7","7","",""
"","","","","","","","","","","","html-keyboard-response","266","2.0.0","565013","65c25cf77dca9d7ca7d9ebdb","2","48","null","","","","","","","","","<p style='font-size: 30px;'><strong>Okay</strong></p>","null","neutral_feedback","1","test","31","","","","","","","",""
"","","","","","","","","","","","html-button-response","267","2.0.0","566838","65c25cf77dca9d7ca7d9ebdb","2","48","1824","","","","","","","","","<img src= ""rock_img/I_Gabbro_14.jpg"" style=""width:8cm; height:8.48cm;""><p>What type of rock is this?</p>","5","class_response","1","test","32","Pegmatite","Gabbro","14","false","6","4","",""
"","","","","","","","","","","","html-keyboard-response","268","2.0.0","567342","65c25cf77dca9d7ca7d9ebdb","2","48","null","","","","","","","","","<p style='font-size: 30px;'><strong>Okay</strong></p>","null","neutral_feedback","1","test","32","","","","","","","",""
"","","","","","","","","","","","html-button-response","269","2.0.0","568497","65c25cf77dca9d7ca7d9ebdb","2","48","1154","","","","","","","","","<img src= ""rock_img/I_Pumice_13.jpg"" style=""width:8cm; height:8.200000000000001cm;""><p>What type of rock is this?</p>","7","class_response","1","test","33","Pumice","Pumice","13","true","8","8","",""
"","","","","","","","","","","","html-keyboard-response","270","2.0.0","569003","65c25cf77dca9d7ca7d9ebdb","2","48","null","","","","","","","","","<p style='font-size: 30px;'><strong>Okay</strong></p>","null","neutral_feedback","1","test","33","","","","","","","",""
"","","","","","","","","","","","html-button-response","271","2.0.0","570556","65c25cf77dca9d7ca7d9ebdb","2","48","1552","","","","","","","","","<img src= ""rock_img/I_Basalt_11.jpg"" style=""width:8cm; height:5.359999999999999cm;""><p>What type of rock is this?</p>","0","class_response","1","test","34","Andesite","Basalt","11","false","1","2","",""
"","","","","","","","","","","","html-keyboard-response","272","2.0.0","571062","65c25cf77dca9d7ca7d9ebdb","2","48","null","","","","","","","","","<p style='font-size: 30px;'><strong>Okay</strong></p>","null","neutral_feedback","1","test","34","","","","","","","",""
"","","","","","","","","","","","html-button-response","273","2.0.0","572557","65c25cf77dca9d7ca7d9ebdb","2","48","1494","","","","","","","","","<img src= ""rock_img/I_Pegmatite_13.jpg"" style=""width:8cm; height:4.95cm;""><p>What type of rock is this?</p>","6","class_response","1","test","35","Peridotite","Pegmatite","13","false","7","6","",""
"","","","","","","","","","","","html-keyboard-response","274","2.0.0","573060","65c25cf77dca9d7ca7d9ebdb","2","48","null","","","","","","","","","<p style='font-size: 30px;'><strong>Okay</strong></p>","null","neutral_feedback","1","test","35","","","","","","","",""
"","","","","","","","","","","","html-button-response","275","2.0.0","574323","65c25cf77dca9d7ca7d9ebdb","2","48","1262","","","","","","","","","<img src= ""rock_img/I_Obsidian_12.jpg"" style=""width:8cm; height:6.53cm;""><p>What type of rock is this?</p>","4","class_response","1","test","36","Obsidian","Obsidian","12","true","5","5","",""
"","","","","","","","","","","","html-keyboard-response","276","2.0.0","574824","65c25cf77dca9d7ca7d9ebdb","2","48","null","","","","","","","","","<p style='font-size: 30px;'><strong>Okay</strong></p>","null","neutral_feedback","1","test","36","","","","","","","",""
"","","","","","","","","","","","html-button-response","277","2.0.0","578888","65c25cf77dca9d7ca7d9ebdb","2","48","4063","","","","","","","","","<img src= ""rock_img/I_Pegmatite_09.jpg"" style=""width:8cm; height:4.03cm;""><p>What type of rock is this?</p>","6","class_response","1","test","37","Peridotite","Pegmatite","09","false","7","6","",""
"","","","","","","","","","","","html-keyboard-response","278","2.0.0","579402","65c25cf77dca9d7ca7d9ebdb","2","48","null","","","","","","","","","<p style='font-size: 30px;'><strong>Okay</strong></p>","null","neutral_feedback","1","test","37","","","","","","","",""
"","","","","","","","","","","","html-button-response","279","2.0.0","580383","65c25cf77dca9d7ca7d9ebdb","2","48","980","","","","","","","","","<img src= ""rock_img/I_Obsidian_06.jpg"" style=""width:8cm; height:6.8cm;""><p>What type of rock is this?</p>","4","class_response","1","test","38","Obsidian","Obsidian","06","true","5","5","",""
"","","","","","","","","","","","html-keyboard-response","280","2.0.0","580890","65c25cf77dca9d7ca7d9ebdb","2","48","null","","","","","","","","","<p style='font-size: 30px;'><strong>Okay</strong></p>","null","neutral_feedback","1","test","38","","","","","","","",""
"","","","","","","","","","","","html-button-response","281","2.0.0","582478","65c25cf77dca9d7ca7d9ebdb","2","48","1587","","","","","","","","","<img src= ""rock_img/I_Basalt_12.jpg"" style=""width:8cm; height:6.010000000000001cm;""><p>What type of rock is this?</p>","0","class_response","1","test","39","Andesite","Basalt","12","false","1","2","",""
"","","","","","","","","","","","html-keyboard-response","282","2.0.0","582983","65c25cf77dca9d7ca7d9ebdb","2","48","null","","","","","","","","","<p style='font-size: 30px;'><strong>Okay</strong></p>","null","neutral_feedback","1","test","39","","","","","","","",""
"","","","","","","","","","","","html-button-response","283","2.0.0","586247","65c25cf77dca9d7ca7d9ebdb","2","48","3263","","","","","","","","","<img src= ""rock_img/I_Peridotite_05.jpg"" style=""width:8cm; height:7.1499999999999995cm;""><p>What type of rock is this?</p>","3","class_response","1","test","40","Gabbro","Peridotite","05","false","4","7","",""
"","","","","","","","","","","","html-keyboard-response","284","2.0.0","586748","65c25cf77dca9d7ca7d9ebdb","2","48","null","","","","","","","","","<p style='font-size: 30px;'><strong>Okay</strong></p>","null","neutral_feedback","1","test","40","","","","","","","",""
"","","","","","","","","","","","html-button-response","285","2.0.0","588693","65c25cf77dca9d7ca7d9ebdb","2","48","1944","","","","","","","","","<img src= ""rock_img/I_Gabbro_08.jpg"" style=""width:8cm; height:5.15cm;""><p>What type of rock is this?</p>","6","class_response","1","test","41","Peridotite","Gabbro","08","false","7","4","",""
"","","","","","","","","","","","html-keyboard-response","286","2.0.0","589198","65c25cf77dca9d7ca7d9ebdb","2","48","null","","","","","","","","","<p style='font-size: 30px;'><strong>Okay</strong></p>","null","neutral_feedback","1","test","41","","","","","","","",""
"","","","","","","","","","","","html-button-response","287","2.0.0","591202","65c25cf77dca9d7ca7d9ebdb","2","48","2003","","","","","","","","","<img src= ""rock_img/I_Pegmatite_15.jpg"" style=""width:8cm; height:6cm;""><p>What type of rock is this?</p>","5","class_response","1","test","42","Pegmatite","Pegmatite","15","true","6","6","",""
"","","","","","","","","","","","html-keyboard-response","288","2.0.0","591709","65c25cf77dca9d7ca7d9ebdb","2","48","null","","","","","","","","","<p style='font-size: 30px;'><strong>Okay</strong></p>","null","neutral_feedback","1","test","42","","","","","","","",""
"","","","","","","","","","","","html-button-response","289","2.0.0","593017","65c25cf77dca9d7ca7d9ebdb","2","48","1307","","","","","","","","","<img src= ""rock_img/I_Pumice_06.jpg"" style=""width:8cm; height:6.9399999999999995cm;""><p>What type of rock is this?</p>","7","class_response","1","test","43","Pumice","Pumice","06","true","8","8","",""
"","","","","","","","","","","","html-keyboard-response","290","2.0.0","593517","65c25cf77dca9d7ca7d9ebdb","2","48","null","","","","","","","","","<p style='font-size: 30px;'><strong>Okay</strong></p>","null","neutral_feedback","1","test","43","","","","","","","",""
"","","","","","","","","","","","html-button-response","291","2.0.0","594350","65c25cf77dca9d7ca7d9ebdb","2","48","831","","","","","","","","","<img src= ""rock_img/I_Pumice_09.jpg"" style=""width:8cm; height:6.44cm;""><p>What type of rock is this?</p>","7","class_response","1","test","44","Pumice","Pumice","09","true","8","8","",""
"","","","","","","","","","","","html-keyboard-response","292","2.0.0","594852","65c25cf77dca9d7ca7d9ebdb","2","48","null","","","","","","","","","<p style='font-size: 30px;'><strong>Okay</strong></p>","null","neutral_feedback","1","test","44","","","","","","","",""
"","","","","","","","","","","","html-button-response","293","2.0.0","599135","65c25cf77dca9d7ca7d9ebdb","2","48","4282","","","","","","","","","<img src= ""rock_img/I_Gabbro_03.jpg"" style=""width:8cm; height:8.52cm;""><p>What type of rock is this?</p>","5","class_response","1","test","45","Pegmatite","Gabbro","03","false","6","4","",""
"","","","","","","","","","","","html-keyboard-response","294","2.0.0","599636","65c25cf77dca9d7ca7d9ebdb","2","48","null","","","","","","","","","<p style='font-size: 30px;'><strong>Okay</strong></p>","null","neutral_feedback","1","test","45","","","","","","","",""
"","","","","","","","","","","","html-button-response","295","2.0.0","600821","65c25cf77dca9d7ca7d9ebdb","2","48","1184","","","","","","","","","<img src= ""rock_img/I_Peridotite_15.jpg"" style=""width:8cm; height:6cm;""><p>What type of rock is this?</p>","3","class_response","1","test","46","Gabbro","Peridotite","15","false","4","7","",""
"","","","","","","","","","","","html-keyboard-response","296","2.0.0","601328","65c25cf77dca9d7ca7d9ebdb","2","48","null","","","","","","","","","<p style='font-size: 30px;'><strong>Okay</strong></p>","null","neutral_feedback","1","test","46","","","","","","","",""
"","","","","","","","","","","","html-button-response","297","2.0.0","603293","65c25cf77dca9d7ca7d9ebdb","2","48","1964","","","","","","","","","<img src= ""rock_img/I_Andesite_04.jpg"" style=""width:8cm; height:5.96cm;""><p>What type of rock is this?</p>","5","class_response","1","test","47","Pegmatite","Andesite","04","false","6","1","",""
"","","","","","","","","","","","html-keyboard-response","298","2.0.0","603794","65c25cf77dca9d7ca7d9ebdb","2","48","null","","","","","","","","","<p style='font-size: 30px;'><strong>Okay</strong></p>","null","neutral_feedback","1","test","47","","","","","","","",""
"","","","","","","","","","","","html-button-response","299","2.0.0","604885","65c25cf77dca9d7ca7d9ebdb","2","48","1090","","","","","","","","","<img src= ""rock_img/I_Andesite_02.jpg"" style=""width:8cm; height:8.5cm;""><p>What type of rock is this?</p>","5","class_response","1","test","48","Pegmatite","Andesite","02","false","6","1","",""
"","","","","","","","","","","","html-keyboard-response","300","2.0.0","605386","65c25cf77dca9d7ca7d9ebdb","2","48","null","","","","","","","","","<p style='font-size: 30px;'><strong>Okay</strong></p>","null","neutral_feedback","1","test","48","","","","","","","",""
"","","","","","","","","","","","html-button-response","301","2.0.0","622834","65c25cf77dca9d7ca7d9ebdb","2","48","","","","","","","","","","","","cycle_feedback","","","","","","","","","","10305.099999999627","7140.699999999255"
"","","","","","","","","","","","html-button-response","303","2.0.0","624332","65c25cf77dca9d7ca7d9ebdb","2","48","1496","","","","","","","","","","0","start_train","","","","","","","","","","",""
"","","","","","","","","","","","html-button-response","304","2.0.0","627879","65c25cf77dca9d7ca7d9ebdb","2","48","3546","","","","","","","","","<img src= ""rock_img/I_Andesite_14.jpg"" style=""width:8cm; height:5.449999999999999cm;""><p>What type of rock is this?</p>","0","class_response","2","train","1","Andesite","Andesite","14","true","1","1","",""
