"width","height","webaudio","browser","browser_version","mobile","os","fullscreen","vsync_rate","webcam","microphone","trial_type","trial_index","plugin_version","time_elapsed","subjID","condition","stimID","rt","url","success","value","timeout","failed_images","failed_audio","failed_video","view_history","stimulus","response","trialType","cycle","phase","trial","resp","cat","token","corr","resp_num","cat_num","time_fb1","time_fb2"
"1366","599","true","chrome","128.0.0","false","Chrome OS","true","61.06","true","true","browser-check","0","2.0.0","1001","66461dfd1eb6453139b1db4c","2","50","","","","","","","","","","","","","","","","","","","","","","",""
"","","","","","","","","","","","external-html","1","2.0.0","8229","66461dfd1eb6453139b1db4c","2","50","7151","consent_form.html","","","","","","","","","","","","","","","","","","","","",""
"","","","","","","","","","","","fullscreen","2","2.0.0","13100","66461dfd1eb6453139b1db4c","2","50","3863","","true","","","","","","","","","","","","","","","","","","","",""
"","","","","","","","","","","","call-function","3","2.0.0","13106","66461dfd1eb6453139b1db4c","2","50","","","","{}","","","","","","","","","","","","","","","","","","",""
"","","","","","","","","","","","preload","4","2.0.0","15460","66461dfd1eb6453139b1db4c","2","50","","","true","","false","[]","[]","[]","","","","","","","","","","","","","","",""
"","","","","","","","","","","","instructions","5","2.0.0","41732","66461dfd1eb6453139b1db4c","2","50","26269","","","","","","","","[{""page_index"":0,""viewing_time"":5549},{""page_index"":1,""viewing_time"":11039},{""page_index"":2,""viewing_time"":9681}]","","","","","","","","","","","","","",""
"","","","","","","","","","","","html-button-response","6","2.0.0","44021","66461dfd1eb6453139b1db4c","2","50","2280","","","","","","","","","","0","start_test","","","","","","","","","","",""
"","","","","","","","","","","","html-button-response","7","2.0.0","48835","66461dfd1eb6453139b1db4c","2","50","4808","","","","","","","","","<img src= ""rock_img/I_Pegmatite_09.jpg"" style=""width:8cm; height:4.03cm;""><p>What type of rock is this?</p>","6","class_response","0","test","1","Peridotite","Pegmatite","09","false","7","6","",""
"","","","","","","","","","","","html-keyboard-response","8","2.0.0","49340","66461dfd1eb6453139b1db4c","2","50","null","","","","","","","","","<p style='font-size: 30px;'><strong>Okay</strong></p>","null","neutral_feedback","0","test","1","","","","","","","",""
"","","","","","","","","","","","html-button-response","9","2.0.0","53340","66461dfd1eb6453139b1db4c","2","50","3994","","","","","","","","","<img src= ""rock_img/I_Diorite_12.jpg"" style=""width:8cm; height:4.88cm;""><p>What type of rock is this?</p>","5","class_response","0","test","2","Pegmatite","Diorite","12","false","6","3","",""
"","","","","","","","","","","","html-keyboard-response","10","2.0.0","53843","66461dfd1eb6453139b1db4c","2","50","null","","","","","","","","","<p style='font-size: 30px;'><strong>Okay</strong></p>","null","neutral_feedback","0","test","2","","","","","","","",""
"","","","","","","","","","","","html-button-response","11","2.0.0","57140","66461dfd1eb6453139b1db4c","2","50","3290","","","","","","","","","<img src= ""rock_img/I_Gabbro_03.jpg"" style=""width:8cm; height:8.52cm;""><p>What type of rock is this?</p>","3","class_response","0","test","3","Gabbro","Gabbro","03","true","4","4","",""
"","","","","","","","","","","","html-keyboard-response","12","2.0.0","57644","66461dfd1eb6453139b1db4c","2","50","null","","","","","","","","","<p style='font-size: 30px;'><strong>Okay</strong></p>","null","neutral_feedback","0","test","3","","","","","","","",""
"","","","","","","","","","","","html-button-response","13","2.0.0","60460","66461dfd1eb6453139b1db4c","2","50","2810","","","","","","","","","<img src= ""rock_img/I_Basalt_08.jpg"" style=""width:8cm; height:10.44cm;""><p>What type of rock is this?</p>","0","class_response","0","test","4","Andesite","Basalt","08","false","1","2","",""
"","","","","","","","","","","","html-keyboard-response","14","2.0.0","60964","66461dfd1eb6453139b1db4c","2","50","null","","","","","","","","","<p style='font-size: 30px;'><strong>Okay</strong></p>","null","neutral_feedback","0","test","4","","","","","","","",""
"","","","","","","","","","","","html-button-response","15","2.0.0","62924","66461dfd1eb6453139b1db4c","2","50","1954","","","","","","","","","<img src= ""rock_img/I_Basalt_02.jpg"" style=""width:8cm; height:6.45cm;""><p>What type of rock is this?</p>","1","class_response","0","test","5","Basalt","Basalt","02","true","2","2","",""
"","","","","","","","","","","","html-keyboard-response","16","2.0.0","63430","66461dfd1eb6453139b1db4c","2","50","null","","","","","","","","","<p style='font-size: 30px;'><strong>Okay</strong></p>","null","neutral_feedback","0","test","5","","","","","","","",""
"","","","","","","","","","","","html-button-response","17","2.0.0","67253","66461dfd1eb6453139b1db4c","2","50","3816","","","","","","","","","<img src= ""rock_img/I_Obsidian_02.jpg"" style=""width:8cm; height:7.51cm;""><p>What type of rock is this?</p>","6","class_response","0","test","6","Peridotite","Obsidian","02","false","7","5","",""
"","","","","","","","","","","","html-keyboard-response","18","2.0.0","67756","66461dfd1eb6453139b1db4c","2","50","null","","","","","","","","","<p style='font-size: 30px;'><strong>Okay</strong></p>","null","neutral_feedback","0","test","6","","","","","","","",""
"","","","","","","","","","","","html-button-response","19","2.0.0","70333","66461dfd1eb6453139b1db4c","2","50","2569","","","","","","","","","<img src= ""rock_img/I_Gabbro_11.jpg"" style=""width:8cm; height:6.2cm;""><p>What type of rock is this?</p>","1","class_response","0","test","7","Basalt","Gabbro","11","false","2","4","",""
"","","","","","","","","","","","html-keyboard-response","20","2.0.0","70837","66461dfd1eb6453139b1db4c","2","50","null","","","","","","","","","<p style='font-size: 30px;'><strong>Okay</strong></p>","null","neutral_feedback","0","test","7","","","","","","","",""
"","","","","","","","","","","","html-button-response","21","2.0.0","72220","66461dfd1eb6453139b1db4c","2","50","1378","","","","","","","","","<img src= ""rock_img/I_Obsidian_05.jpg"" style=""width:8cm; height:6.33cm;""><p>What type of rock is this?</p>","3","class_response","0","test","8","Gabbro","Obsidian","05","false","4","5","",""
"","","","","","","","","","","","html-keyboard-response","22","2.0.0","72723","66461dfd1eb6453139b1db4c","2","50","null","","","","","","","","","<p style='font-size: 30px;'><strong>Okay</strong></p>","null","neutral_feedback","0","test","8","","","","","","","",""
"","","","","","","","","","","","html-button-response","23","2.0.0","73986","66461dfd1eb6453139b1db4c","2","50","1258","","","","","","","","","<img src= ""rock_img/I_Pumice_04.jpg"" style=""width:8cm; height:6.819999999999999cm;""><p>What type of rock is this?</p>","7","class_response","0","test","9","Pumice","Pumice","04","true","8","8","",""
"","","","","","","","","","","","html-keyboard-response","24","2.0.0","74488","66461dfd1eb6453139b1db4c","2","50","null","","","","","","","","","<p style='font-size: 30px;'><strong>Okay</strong></p>","null","neutral_feedback","0","test","9","","","","","","","",""
"","","","","","","","","","","","html-button-response","25","2.0.0","76389","66461dfd1eb6453139b1db4c","2","50","1894","","","","","","","","","<img src= ""rock_img/I_Obsidian_06.jpg"" style=""width:8cm; height:6.8cm;""><p>What type of rock is this?</p>","4","class_response","0","test","10","Obsidian","Obsidian","06","true","5","5","",""
"","","","","","","","","","","","html-keyboard-response","26","2.0.0","76892","66461dfd1eb6453139b1db4c","2","50","null","","","","","","","","","<p style='font-size: 30px;'><strong>Okay</strong></p>","null","neutral_feedback","0","test","10","","","","","","","",""
"","","","","","","","","","","","html-button-response","27","2.0.0","78404","66461dfd1eb6453139b1db4c","2","50","1506","","","","","","","","","<img src= ""rock_img/I_Gabbro_10.jpg"" style=""width:8cm; height:5.680000000000001cm;""><p>What type of rock is this?</p>","1","class_response","0","test","11","Basalt","Gabbro","10","false","2","4","",""
"","","","","","","","","","","","html-keyboard-response","28","2.0.0","78907","66461dfd1eb6453139b1db4c","2","50","null","","","","","","","","","<p style='font-size: 30px;'><strong>Okay</strong></p>","null","neutral_feedback","0","test","11","","","","","","","",""
"","","","","","","","","","","","html-button-response","29","2.0.0","80194","66461dfd1eb6453139b1db4c","2","50","1282","","","","","","","","","<img src= ""rock_img/I_Diorite_10.jpg"" style=""width:8cm; height:5.949999999999999cm;""><p>What type of rock is this?</p>","5","class_response","0","test","12","Pegmatite","Diorite","10","false","6","3","",""
"","","","","","","","","","","","html-keyboard-response","30","2.0.0","80696","66461dfd1eb6453139b1db4c","2","50","null","","","","","","","","","<p style='font-size: 30px;'><strong>Okay</strong></p>","null","neutral_feedback","0","test","12","","","","","","","",""
"","","","","","","","","","","","html-button-response","31","2.0.0","81884","66461dfd1eb6453139b1db4c","2","50","1182","","","","","","","","","<img src= ""rock_img/I_Basalt_01.jpg"" style=""width:8cm; height:7.880000000000001cm;""><p>What type of rock is this?</p>","2","class_response","0","test","13","Diorite","Basalt","01","false","3","2","",""
"","","","","","","","","","","","html-keyboard-response","32","2.0.0","82388","66461dfd1eb6453139b1db4c","2","50","null","","","","","","","","","<p style='font-size: 30px;'><strong>Okay</strong></p>","null","neutral_feedback","0","test","13","","","","","","","",""
"","","","","","","","","","","","html-button-response","33","2.0.0","83428","66461dfd1eb6453139b1db4c","2","50","1035","","","","","","","","","<img src= ""rock_img/I_Obsidian_10.jpg"" style=""width:8cm; height:6.260000000000001cm;""><p>What type of rock is this?</p>","6","class_response","0","test","14","Peridotite","Obsidian","10","false","7","5","",""
"","","","","","","","","","","","html-keyboard-response","34","2.0.0","83932","66461dfd1eb6453139b1db4c","2","50","null","","","","","","","","","<p style='font-size: 30px;'><strong>Okay</strong></p>","null","neutral_feedback","0","test","14","","","","","","","",""
"","","","","","","","","","","","html-button-response","35","2.0.0","85356","66461dfd1eb6453139b1db4c","2","50","1418","","","","","","","","","<img src= ""rock_img/I_Diorite_02.jpg"" style=""width:8cm; height:6.27cm;""><p>What type of rock is this?</p>","3","class_response","0","test","15","Gabbro","Diorite","02","false","4","3","",""
"","","","","","","","","","","","html-keyboard-response","36","2.0.0","85859","66461dfd1eb6453139b1db4c","2","50","null","","","","","","","","","<p style='font-size: 30px;'><strong>Okay</strong></p>","null","neutral_feedback","0","test","15","","","","","","","",""
"","","","","","","","","","","","html-button-response","37","2.0.0","87860","66461dfd1eb6453139b1db4c","2","50","1995","","","","","","","","","<img src= ""rock_img/I_Peridotite_02.jpg"" style=""width:8cm; height:5.859999999999999cm;""><p>What type of rock is this?</p>","0","class_response","0","test","16","Andesite","Peridotite","02","false","1","7","",""
"","","","","","","","","","","","html-keyboard-response","38","2.0.0","88363","66461dfd1eb6453139b1db4c","2","50","null","","","","","","","","","<p style='font-size: 30px;'><strong>Okay</strong></p>","null","neutral_feedback","0","test","16","","","","","","","",""
"","","","","","","","","","","","html-button-response","39","2.0.0","89404","66461dfd1eb6453139b1db4c","2","50","1035","","","","","","","","","<img src= ""rock_img/I_Pumice_16.jpg"" style=""width:8cm; height:6.79cm;""><p>What type of rock is this?</p>","2","class_response","0","test","17","Diorite","Pumice","16","false","3","8","",""
"","","","","","","","","","","","html-keyboard-response","40","2.0.0","89907","66461dfd1eb6453139b1db4c","2","50","null","","","","","","","","","<p style='font-size: 30px;'><strong>Okay</strong></p>","null","neutral_feedback","0","test","17","","","","","","","",""
"","","","","","","","","","","","html-button-response","41","2.0.0","91012","66461dfd1eb6453139b1db4c","2","50","1099","","","","","","","","","<img src= ""rock_img/I_Andesite_01.jpg"" style=""width:8cm; height:5.87cm;""><p>What type of rock is this?</p>","5","class_response","0","test","18","Pegmatite","Andesite","01","false","6","1","",""
"","","","","","","","","","","","html-keyboard-response","42","2.0.0","91516","66461dfd1eb6453139b1db4c","2","50","null","","","","","","","","","<p style='font-size: 30px;'><strong>Okay</strong></p>","null","neutral_feedback","0","test","18","","","","","","","",""
"","","","","","","","","","","","html-button-response","43","2.0.0","92700","66461dfd1eb6453139b1db4c","2","50","1179","","","","","","","","","<img src= ""rock_img/I_Pegmatite_16.jpg"" style=""width:8cm; height:5.8cm;""><p>What type of rock is this?</p>","1","class_response","0","test","19","Basalt","Pegmatite","16","false","2","6","",""
"","","","","","","","","","","","html-keyboard-response","44","2.0.0","93204","66461dfd1eb6453139b1db4c","2","50","null","","","","","","","","","<p style='font-size: 30px;'><strong>Okay</strong></p>","null","neutral_feedback","0","test","19","","","","","","","",""
"","","","","","","","","","","","html-button-response","45","2.0.0","94339","66461dfd1eb6453139b1db4c","2","50","1130","","","","","","","","","<img src= ""rock_img/I_Pegmatite_03.jpg"" style=""width:8cm; height:5.239999999999999cm;""><p>What type of rock is this?</p>","6","class_response","0","test","20","Peridotite","Pegmatite","03","false","7","6","",""
"","","","","","","","","","","","html-keyboard-response","46","2.0.0","94841","66461dfd1eb6453139b1db4c","2","50","null","","","","","","","","","<p style='font-size: 30px;'><strong>Okay</strong></p>","null","neutral_feedback","0","test","20","","","","","","","",""
"","","","","","","","","","","","html-button-response","47","2.0.0","96066","66461dfd1eb6453139b1db4c","2","50","1220","","","","","","","","","<img src= ""rock_img/I_Andesite_10.jpg"" style=""width:8cm; height:4.16cm;""><p>What type of rock is this?</p>","4","class_response","0","test","21","Obsidian","Andesite","10","false","5","1","",""
"","","","","","","","","","","","html-keyboard-response","48","2.0.0","96568","66461dfd1eb6453139b1db4c","2","50","null","","","","","","","","","<p style='font-size: 30px;'><strong>Okay</strong></p>","null","neutral_feedback","0","test","21","","","","","","","",""
"","","","","","","","","","","","html-button-response","49","2.0.0","97484","66461dfd1eb6453139b1db4c","2","50","912","","","","","","","","","<img src= ""rock_img/I_Diorite_09.jpg"" style=""width:8cm; height:5.27cm;""><p>What type of rock is this?</p>","5","class_response","0","test","22","Pegmatite","Diorite","09","false","6","3","",""
"","","","","","","","","","","","html-keyboard-response","50","2.0.0","97987","66461dfd1eb6453139b1db4c","2","50","null","","","","","","","","","<p style='font-size: 30px;'><strong>Okay</strong></p>","null","neutral_feedback","0","test","22","","","","","","","",""
"","","","","","","","","","","","html-button-response","51","2.0.0","99116","66461dfd1eb6453139b1db4c","2","50","1123","","","","","","","","","<img src= ""rock_img/I_Peridotite_15.jpg"" style=""width:8cm; height:6cm;""><p>What type of rock is this?</p>","2","class_response","0","test","23","Diorite","Peridotite","15","false","3","7","",""
"","","","","","","","","","","","html-keyboard-response","52","2.0.0","99619","66461dfd1eb6453139b1db4c","2","50","null","","","","","","","","","<p style='font-size: 30px;'><strong>Okay</strong></p>","null","neutral_feedback","0","test","23","","","","","","","",""
"","","","","","","","","","","","html-button-response","53","2.0.0","100885","66461dfd1eb6453139b1db4c","2","50","1261","","","","","","","","","<img src= ""rock_img/I_Peridotite_10.jpg"" style=""width:8cm; height:5.390000000000001cm;""><p>What type of rock is this?</p>","2","class_response","0","test","24","Diorite","Peridotite","10","false","3","7","",""
"","","","","","","","","","","","html-keyboard-response","54","2.0.0","101389","66461dfd1eb6453139b1db4c","2","50","null","","","","","","","","","<p style='font-size: 30px;'><strong>Okay</strong></p>","null","neutral_feedback","0","test","24","","","","","","","",""
"","","","","","","","","","","","html-button-response","55","2.0.0","102739","66461dfd1eb6453139b1db4c","2","50","1345","","","","","","","","","<img src= ""rock_img/I_Obsidian_11.jpg"" style=""width:8cm; height:6.05cm;""><p>What type of rock is this?</p>","0","class_response","0","test","25","Andesite","Obsidian","11","false","1","5","",""
"","","","","","","","","","","","html-keyboard-response","56","2.0.0","103243","66461dfd1eb6453139b1db4c","2","50","null","","","","","","","","","<p style='font-size: 30px;'><strong>Okay</strong></p>","null","neutral_feedback","0","test","25","","","","","","","",""
"","","","","","","","","","","","html-button-response","57","2.0.0","104818","66461dfd1eb6453139b1db4c","2","50","1571","","","","","","","","","<img src= ""rock_img/I_Pumice_14.jpg"" style=""width:8cm; height:6.39cm;""><p>What type of rock is this?</p>","7","class_response","0","test","26","Pumice","Pumice","14","true","8","8","",""
"","","","","","","","","","","","html-keyboard-response","58","2.0.0","105320","66461dfd1eb6453139b1db4c","2","50","null","","","","","","","","","<p style='font-size: 30px;'><strong>Okay</strong></p>","null","neutral_feedback","0","test","26","","","","","","","",""
"","","","","","","","","","","","html-button-response","59","2.0.0","107020","66461dfd1eb6453139b1db4c","2","50","1694","","","","","","","","","<img src= ""rock_img/I_Pumice_15.jpg"" style=""width:8cm; height:7.86cm;""><p>What type of rock is this?</p>","7","class_response","0","test","27","Pumice","Pumice","15","true","8","8","",""
"","","","","","","","","","","","html-keyboard-response","60","2.0.0","107523","66461dfd1eb6453139b1db4c","2","50","null","","","","","","","","","<p style='font-size: 30px;'><strong>Okay</strong></p>","null","neutral_feedback","0","test","27","","","","","","","",""
"","","","","","","","","","","","html-button-response","61","2.0.0","108562","66461dfd1eb6453139b1db4c","2","50","1034","","","","","","","","","<img src= ""rock_img/I_Gabbro_05.jpg"" style=""width:8cm; height:6cm;""><p>What type of rock is this?</p>","3","class_response","0","test","28","Gabbro","Gabbro","05","true","4","4","",""
"","","","","","","","","","","","html-keyboard-response","62","2.0.0","109064","66461dfd1eb6453139b1db4c","2","50","null","","","","","","","","","<p style='font-size: 30px;'><strong>Okay</strong></p>","null","neutral_feedback","0","test","28","","","","","","","",""
"","","","","","","","","","","","html-button-response","63","2.0.0","110372","66461dfd1eb6453139b1db4c","2","50","1302","","","","","","","","","<img src= ""rock_img/I_Gabbro_08.jpg"" style=""width:8cm; height:5.15cm;""><p>What type of rock is this?</p>","3","class_response","0","test","29","Gabbro","Gabbro","08","true","4","4","",""
"","","","","","","","","","","","html-keyboard-response","64","2.0.0","110874","66461dfd1eb6453139b1db4c","2","50","null","","","","","","","","","<p style='font-size: 30px;'><strong>Okay</strong></p>","null","neutral_feedback","0","test","29","","","","","","","",""
"","","","","","","","","","","","html-button-response","65","2.0.0","111914","66461dfd1eb6453139b1db4c","2","50","1037","","","","","","","","","<img src= ""rock_img/I_Diorite_07.jpg"" style=""width:8cm; height:5.239999999999999cm;""><p>What type of rock is this?</p>","2","class_response","0","test","30","Diorite","Diorite","07","true","3","3","",""
"","","","","","","","","","","","html-keyboard-response","66","2.0.0","112416","66461dfd1eb6453139b1db4c","2","50","null","","","","","","","","","<p style='font-size: 30px;'><strong>Okay</strong></p>","null","neutral_feedback","0","test","30","","","","","","","",""
"","","","","","","","","","","","html-button-response","67","2.0.0","113946","66461dfd1eb6453139b1db4c","2","50","1526","","","","","","","","","<img src= ""rock_img/I_Peridotite_13.jpg"" style=""width:8cm; height:7.58cm;""><p>What type of rock is this?</p>","6","class_response","0","test","31","Peridotite","Peridotite","13","true","7","7","",""
"","","","","","","","","","","","html-keyboard-response","68","2.0.0","114448","66461dfd1eb6453139b1db4c","2","50","null","","","","","","","","","<p style='font-size: 30px;'><strong>Okay</strong></p>","null","neutral_feedback","0","test","31","","","","","","","",""
"","","","","","","","","","","","html-button-response","69","2.0.0","116092","66461dfd1eb6453139b1db4c","2","50","1638","","","","","","","","","<img src= ""rock_img/I_Basalt_09.jpg"" style=""width:8cm; height:6.2cm;""><p>What type of rock is this?</p>","1","class_response","0","test","32","Basalt","Basalt","09","true","2","2","",""
"","","","","","","","","","","","html-keyboard-response","70","2.0.0","116595","66461dfd1eb6453139b1db4c","2","50","null","","","","","","","","","<p style='font-size: 30px;'><strong>Okay</strong></p>","null","neutral_feedback","0","test","32","","","","","","","",""
"","","","","","","","","","","","html-button-response","71","2.0.0","117772","66461dfd1eb6453139b1db4c","2","50","1171","","","","","","","","","<img src= ""rock_img/I_Obsidian_14.jpg"" style=""width:8cm; height:7.64cm;""><p>What type of rock is this?</p>","0","class_response","0","test","33","Andesite","Obsidian","14","false","1","5","",""
"","","","","","","","","","","","html-keyboard-response","72","2.0.0","118276","66461dfd1eb6453139b1db4c","2","50","null","","","","","","","","","<p style='font-size: 30px;'><strong>Okay</strong></p>","null","neutral_feedback","0","test","33","","","","","","","",""
"","","","","","","","","","","","html-button-response","73","2.0.0","119284","66461dfd1eb6453139b1db4c","2","50","1002","","","","","","","","","<img src= ""rock_img/I_Diorite_11.jpg"" style=""width:8cm; height:7.11cm;""><p>What type of rock is this?</p>","5","class_response","0","test","34","Pegmatite","Diorite","11","false","6","3","",""
"","","","","","","","","","","","html-keyboard-response","74","2.0.0","119787","66461dfd1eb6453139b1db4c","2","50","null","","","","","","","","","<p style='font-size: 30px;'><strong>Okay</strong></p>","null","neutral_feedback","0","test","34","","","","","","","",""
"","","","","","","","","","","","html-button-response","75","2.0.0","121164","66461dfd1eb6453139b1db4c","2","50","1371","","","","","","","","","<img src= ""rock_img/I_Andesite_06.jpg"" style=""width:8cm; height:6.840000000000001cm;""><p>What type of rock is this?</p>","1","class_response","0","test","35","Basalt","Andesite","06","false","2","1","",""
"","","","","","","","","","","","html-keyboard-response","76","2.0.0","121667","66461dfd1eb6453139b1db4c","2","50","null","","","","","","","","","<p style='font-size: 30px;'><strong>Okay</strong></p>","null","neutral_feedback","0","test","35","","","","","","","",""
"","","","","","","","","","","","html-button-response","77","2.0.0","122676","66461dfd1eb6453139b1db4c","2","50","1006","","","","","","","","","<img src= ""rock_img/I_Peridotite_14.jpg"" style=""width:8cm; height:5.3cm;""><p>What type of rock is this?</p>","2","class_response","0","test","36","Diorite","Peridotite","14","false","3","7","",""
"","","","","","","","","","","","html-keyboard-response","78","2.0.0","123179","66461dfd1eb6453139b1db4c","2","50","null","","","","","","","","","<p style='font-size: 30px;'><strong>Okay</strong></p>","null","neutral_feedback","0","test","36","","","","","","","",""
"","","","","","","","","","","","html-button-response","79","2.0.0","124114","66461dfd1eb6453139b1db4c","2","50","930","","","","","","","","","<img src= ""rock_img/I_Gabbro_15.jpg"" style=""width:8cm; height:6.29cm;""><p>What type of rock is this?</p>","6","class_response","0","test","37","Peridotite","Gabbro","15","false","7","4","",""
"","","","","","","","","","","","html-keyboard-response","80","2.0.0","124616","66461dfd1eb6453139b1db4c","2","50","null","","","","","","","","","<p style='font-size: 30px;'><strong>Okay</strong></p>","null","neutral_feedback","0","test","37","","","","","","","",""
"","","","","","","","","","","","html-button-response","81","2.0.0","125772","66461dfd1eb6453139b1db4c","2","50","1150","","","","","","","","","<img src= ""rock_img/I_Basalt_10.jpg"" style=""width:8cm; height:5.85cm;""><p>What type of rock is this?</p>","0","class_response","0","test","38","Andesite","Basalt","10","false","1","2","",""
"","","","","","","","","","","","html-keyboard-response","82","2.0.0","126275","66461dfd1eb6453139b1db4c","2","50","null","","","","","","","","","<p style='font-size: 30px;'><strong>Okay</strong></p>","null","neutral_feedback","0","test","38","","","","","","","",""
"","","","","","","","","","","","html-button-response","83","2.0.0","127060","66461dfd1eb6453139b1db4c","2","50","779","","","","","","","","","<img src= ""rock_img/I_Pegmatite_12.jpg"" style=""width:8cm; height:5.7cm;""><p>What type of rock is this?</p>","4","class_response","0","test","39","Obsidian","Pegmatite","12","false","5","6","",""
"","","","","","","","","","","","html-keyboard-response","84","2.0.0","127564","66461dfd1eb6453139b1db4c","2","50","null","","","","","","","","","<p style='font-size: 30px;'><strong>Okay</strong></p>","null","neutral_feedback","0","test","39","","","","","","","",""
"","","","","","","","","","","","html-button-response","85","2.0.0","128492","66461dfd1eb6453139b1db4c","2","50","923","","","","","","","","","<img src= ""rock_img/I_Basalt_16.jpg"" style=""width:8cm; height:7.659999999999999cm;""><p>What type of rock is this?</p>","1","class_response","0","test","40","Basalt","Basalt","16","true","2","2","",""
"","","","","","","","","","","","html-keyboard-response","86","2.0.0","128995","66461dfd1eb6453139b1db4c","2","50","null","","","","","","","","","<p style='font-size: 30px;'><strong>Okay</strong></p>","null","neutral_feedback","0","test","40","","","","","","","",""
"","","","","","","","","","","","html-button-response","87","2.0.0","130013","66461dfd1eb6453139b1db4c","2","50","1012","","","","","","","","","<img src= ""rock_img/I_Andesite_14.jpg"" style=""width:8cm; height:5.449999999999999cm;""><p>What type of rock is this?</p>","5","class_response","0","test","41","Pegmatite","Andesite","14","false","6","1","",""
"","","","","","","","","","","","html-keyboard-response","88","2.0.0","130516","66461dfd1eb6453139b1db4c","2","50","null","","","","","","","","","<p style='font-size: 30px;'><strong>Okay</strong></p>","null","neutral_feedback","0","test","41","","","","","","","",""
"","","","","","","","","","","","html-button-response","89","2.0.0","131260","66461dfd1eb6453139b1db4c","2","50","738","","","","","","","","","<img src= ""rock_img/I_Andesite_11.jpg"" style=""width:8cm; height:4.92cm;""><p>What type of rock is this?</p>","6","class_response","0","test","42","Peridotite","Andesite","11","false","7","1","",""
"","","","","","","","","","","","html-keyboard-response","90","2.0.0","131763","66461dfd1eb6453139b1db4c","2","50","null","","","","","","","","","<p style='font-size: 30px;'><strong>Okay</strong></p>","null","neutral_feedback","0","test","42","","","","","","","",""
"","","","","","","","","","","","html-button-response","91","2.0.0","132580","66461dfd1eb6453139b1db4c","2","50","811","","","","","","","","","<img src= ""rock_img/I_Pegmatite_07.jpg"" style=""width:8cm; height:6.7cm;""><p>What type of rock is this?</p>","2","class_response","0","test","43","Diorite","Pegmatite","07","false","3","6","",""
"","","","","","","","","","","","html-keyboard-response","92","2.0.0","133083","66461dfd1eb6453139b1db4c","2","50","null","","","","","","","","","<p style='font-size: 30px;'><strong>Okay</strong></p>","null","neutral_feedback","0","test","43","","","","","","","",""
"","","","","","","","","","","","html-button-response","93","2.0.0","133826","66461dfd1eb6453139b1db4c","2","50","739","","","","","","","","","<img src= ""rock_img/I_Andesite_09.jpg"" style=""width:8cm; height:6cm;""><p>What type of rock is this?</p>","1","class_response","0","test","44","Basalt","Andesite","09","false","2","1","",""
"","","","","","","","","","","","html-keyboard-response","94","2.0.0","134328","66461dfd1eb6453139b1db4c","2","50","null","","","","","","","","","<p style='font-size: 30px;'><strong>Okay</strong></p>","null","neutral_feedback","0","test","44","","","","","","","",""
"","","","","","","","","","","","html-button-response","95","2.0.0","135075","66461dfd1eb6453139b1db4c","2","50","742","","","","","","","","","<img src= ""rock_img/I_Pegmatite_05.jpg"" style=""width:8cm; height:7.300000000000001cm;""><p>What type of rock is this?</p>","1","class_response","0","test","45","Basalt","Pegmatite","05","false","2","6","",""
"","","","","","","","","","","","html-keyboard-response","96","2.0.0","135579","66461dfd1eb6453139b1db4c","2","50","null","","","","","","","","","<p style='font-size: 30px;'><strong>Okay</strong></p>","null","neutral_feedback","0","test","45","","","","","","","",""
"","","","","","","","","","","","html-button-response","97","2.0.0","136925","66461dfd1eb6453139b1db4c","2","50","1340","","","","","","","","","<img src= ""rock_img/I_Pumice_10.jpg"" style=""width:8cm; height:7.609999999999999cm;""><p>What type of rock is this?</p>","7","class_response","0","test","46","Pumice","Pumice","10","true","8","8","",""
"","","","","","","","","","","","html-keyboard-response","98","2.0.0","137428","66461dfd1eb6453139b1db4c","2","50","null","","","","","","","","","<p style='font-size: 30px;'><strong>Okay</strong></p>","null","neutral_feedback","0","test","46","","","","","","","",""
"","","","","","","","","","","","html-button-response","99","2.0.0","138747","66461dfd1eb6453139b1db4c","2","50","1315","","","","","","","","","<img src= ""rock_img/I_Peridotite_12.jpg"" style=""width:8cm; height:4.54cm;""><p>What type of rock is this?</p>","3","class_response","0","test","47","Gabbro","Peridotite","12","false","4","7","",""
"","","","","","","","","","","","html-keyboard-response","100","2.0.0","139249","66461dfd1eb6453139b1db4c","2","50","null","","","","","","","","","<p style='font-size: 30px;'><strong>Okay</strong></p>","null","neutral_feedback","0","test","47","","","","","","","",""
"","","","","","","","","","","","html-button-response","101","2.0.0","140565","66461dfd1eb6453139b1db4c","2","50","1311","","","","","","","","","<img src= ""rock_img/I_Pumice_05.jpg"" style=""width:8cm; height:7.25cm;""><p>What type of rock is this?</p>","7","class_response","0","test","48","Pumice","Pumice","05","true","8","8","",""
"","","","","","","","","","","","html-keyboard-response","102","2.0.0","141068","66461dfd1eb6453139b1db4c","2","50","null","","","","","","","","","<p style='font-size: 30px;'><strong>Okay</strong></p>","null","neutral_feedback","0","test","48","","","","","","","",""
"","","","","","","","","","","","instructions","103","2.0.0","159059","66461dfd1eb6453139b1db4c","2","50","17955","","","","","","","","[{""page_index"":0,""viewing_time"":9564},{""page_index"":1,""viewing_time"":6063},{""page_index"":2,""viewing_time"":2328}]","","","","","","","","","","","","","",""
"","","","","","","","","","","","html-button-response","104","2.0.0","162492","66461dfd1eb6453139b1db4c","2","50","3427","","","","","","","","","","0","start_train","","","","","","","","","","",""
"","","","","","","","","","","","html-button-response","105","2.0.0","165285","66461dfd1eb6453139b1db4c","2","50","2784","","","","","","","","","<img src= ""rock_img/I_Pegmatite_15.jpg"" style=""width:8cm; height:6cm;""><p>What type of rock is this?</p>","1","class_response","1","train","1","Basalt","Pegmatite","15","false","2","6","",""
"","","","","","","","","","","","html-button-response","106","2.0.0","170812","66461dfd1eb6453139b1db4c","2","50","5521","","","","","","","","","<img src= rock_img/I_Pegmatite_15.jpg style=""width:8cm; height:6cm;""><p style='font-size: 30px; color: red;'><strong>Incorrect!</strong></p><p style='font-size: 30px;'><strong>This rock is pegmatite</strong></p>","0","corr_feedback","1","train","1","","","","","","","",""
"","","","","","","","","","","","html-button-response","107","2.0.0","172316","66461dfd1eb6453139b1db4c","2","50","1498","","","","","","","","","<img src= ""rock_img/I_Gabbro_01.jpg"" style=""width:8cm; height:5.21cm;""><p>What type of rock is this?</p>","1","class_response","1","train","2","Basalt","Gabbro","01","false","2","4","",""
"","","","","","","","","","","","html-button-response","108","2.0.0","175651","66461dfd1eb6453139b1db4c","2","50","3329","","","","","","","","","<img src= rock_img/I_Gabbro_01.jpg style=""width:8cm; height:5.21cm;""><p style='font-size: 30px; color: red;'><strong>Incorrect!</strong></p><p style='font-size: 30px;'><strong>This rock is gabbro</strong></p>","0","corr_feedback","1","train","2","","","","","","","",""
"","","","","","","","","","","","html-button-response","109","2.0.0","177348","66461dfd1eb6453139b1db4c","2","50","1691","","","","","","","","","<img src= ""rock_img/I_Andesite_05.jpg"" style=""width:8cm; height:4.12cm;""><p>What type of rock is this?</p>","3","class_response","1","train","3","Gabbro","Andesite","05","false","4","1","",""
"","","","","","","","","","","","html-button-response","110","2.0.0","182163","66461dfd1eb6453139b1db4c","2","50","4811","","","","","","","","","<img src= rock_img/I_Andesite_05.jpg style=""width:8cm; height:4.12cm;""><p style='font-size: 30px; color: red;'><strong>Incorrect!</strong></p><p style='font-size: 30px;'><strong>This rock is andesite</strong></p>","0","corr_feedback","1","train","3","","","","","","","",""
"","","","","","","","","","","","html-button-response","111","2.0.0","183628","66461dfd1eb6453139b1db4c","2","50","1461","","","","","","","","","<img src= ""rock_img/I_Basalt_14.jpg"" style=""width:8cm; height:5.82cm;""><p>What type of rock is this?</p>","7","class_response","1","train","4","Pumice","Basalt","14","false","8","2","",""
"","","","","","","","","","","","html-button-response","112","2.0.0","187019","66461dfd1eb6453139b1db4c","2","50","3386","","","","","","","","","<img src= rock_img/I_Basalt_14.jpg style=""width:8cm; height:5.82cm;""><p style='font-size: 30px; color: red;'><strong>Incorrect!</strong></p><p style='font-size: 30px;'><strong>This rock is basalt</strong></p>","0","corr_feedback","1","train","4","","","","","","","",""
"","","","","","","","","","","","html-button-response","113","2.0.0","188853","66461dfd1eb6453139b1db4c","2","50","1828","","","","","","","","","<img src= ""rock_img/I_Basalt_05.jpg"" style=""width:8cm; height:8.18cm;""><p>What type of rock is this?</p>","5","class_response","1","train","5","Pegmatite","Basalt","05","false","6","2","",""
"","","","","","","","","","","","html-button-response","114","2.0.0","191986","66461dfd1eb6453139b1db4c","2","50","3129","","","","","","","","","<img src= rock_img/I_Basalt_05.jpg style=""width:8cm; height:8.18cm;""><p style='font-size: 30px; color: red;'><strong>Incorrect!</strong></p><p style='font-size: 30px;'><strong>This rock is basalt</strong></p>","0","corr_feedback","1","train","5","","","","","","","",""
"","","","","","","","","","","","html-button-response","115","2.0.0","193460","66461dfd1eb6453139b1db4c","2","50","1471","","","","","","","","","<img src= ""rock_img/I_Obsidian_12.jpg"" style=""width:8cm; height:6.53cm;""><p>What type of rock is this?</p>","4","class_response","1","train","6","Obsidian","Obsidian","12","true","5","5","",""
"","","","","","","","","","","","html-button-response","116","2.0.0","197026","66461dfd1eb6453139b1db4c","2","50","3562","","","","","","","","","<img src= rock_img/I_Obsidian_12.jpg style=""width:8cm; height:6.53cm;""><p style='font-size: 30px; color: green;'><strong>Correct!</strong></p><p style='font-size: 30px;'><strong>This rock is obsidian</strong></p>","0","corr_feedback","1","train","6","","","","","","","",""
"","","","","","","","","","","","html-button-response","117","2.0.0","199268","66461dfd1eb6453139b1db4c","2","50","2238","","","","","","","","","<img src= ""rock_img/I_Peridotite_07.jpg"" style=""width:8cm; height:4.83cm;""><p>What type of rock is this?</p>","1","class_response","1","train","7","Basalt","Peridotite","07","false","2","7","",""
"","","","","","","","","","","","html-button-response","118","2.0.0","202060","66461dfd1eb6453139b1db4c","2","50","2787","","","","","","","","","<img src= rock_img/I_Peridotite_07.jpg style=""width:8cm; height:4.83cm;""><p style='font-size: 30px; color: red;'><strong>Incorrect!</strong></p><p style='font-size: 30px;'><strong>This rock is peridotite</strong></p>","0","corr_feedback","1","train","7","","","","","","","",""
"","","","","","","","","","","","html-button-response","119","2.0.0","205164","66461dfd1eb6453139b1db4c","2","50","3099","","","","","","","","","<img src= ""rock_img/I_Andesite_07.jpg"" style=""width:8cm; height:5.93cm;""><p>What type of rock is this?</p>","5","class_response","1","train","8","Pegmatite","Andesite","07","false","6","1","",""
"","","","","","","","","","","","html-button-response","120","2.0.0","208363","66461dfd1eb6453139b1db4c","2","50","3194","","","","","","","","","<img src= rock_img/I_Andesite_07.jpg style=""width:8cm; height:5.93cm;""><p style='font-size: 30px; color: red;'><strong>Incorrect!</strong></p><p style='font-size: 30px;'><strong>This rock is andesite</strong></p>","0","corr_feedback","1","train","8","","","","","","","",""
"","","","","","","","","","","","html-button-response","121","2.0.0","210148","66461dfd1eb6453139b1db4c","2","50","1779","","","","","","","","","<img src= ""rock_img/I_Obsidian_09.jpg"" style=""width:8cm; height:5cm;""><p>What type of rock is this?</p>","4","class_response","1","train","9","Obsidian","Obsidian","09","true","5","5","",""
"","","","","","","","","","","","html-button-response","122","2.0.0","221339","66461dfd1eb6453139b1db4c","2","50","11187","","","","","","","","","<img src= rock_img/I_Obsidian_09.jpg style=""width:8cm; height:5cm;""><p style='font-size: 30px; color: green;'><strong>Correct!</strong></p><p style='font-size: 30px;'><strong>This rock is obsidian</strong></p>","0","corr_feedback","1","train","9","","","","","","","",""
"","","","","","","","","","","","html-button-response","123","2.0.0","222749","66461dfd1eb6453139b1db4c","2","50","1403","","","","","","","","","<img src= ""rock_img/I_Pegmatite_06.jpg"" style=""width:8cm; height:5.17cm;""><p>What type of rock is this?</p>","6","class_response","1","train","10","Peridotite","Pegmatite","06","false","7","6","",""
"","","","","","","","","","","","html-button-response","124","2.0.0","227275","66461dfd1eb6453139b1db4c","2","50","4522","","","","","","","","","<img src= rock_img/I_Pegmatite_06.jpg style=""width:8cm; height:5.17cm;""><p style='font-size: 30px; color: red;'><strong>Incorrect!</strong></p><p style='font-size: 30px;'><strong>This rock is pegmatite</strong></p>","0","corr_feedback","1","train","10","","","","","","","",""
"","","","","","","","","","","","html-button-response","125","2.0.0","229316","66461dfd1eb6453139b1db4c","2","50","2035","","","","","","","","","<img src= ""rock_img/I_Basalt_04.jpg"" style=""width:8cm; height:7.53cm;""><p>What type of rock is this?</p>","0","class_response","1","train","11","Andesite","Basalt","04","false","1","2","",""
"","","","","","","","","","","","html-button-response","126","2.0.0","242516","66461dfd1eb6453139b1db4c","2","50","13195","","","","","","","","","<img src= rock_img/I_Basalt_04.jpg style=""width:8cm; height:7.53cm;""><p style='font-size: 30px; color: red;'><strong>Incorrect!</strong></p><p style='font-size: 30px;'><strong>This rock is basalt</strong></p>","0","corr_feedback","1","train","11","","","","","","","",""
"","","","","","","","","","","","html-button-response","127","2.0.0","243766","66461dfd1eb6453139b1db4c","2","50","1244","","","","","","","","","<img src= ""rock_img/I_Pumice_09.jpg"" style=""width:8cm; height:6.44cm;""><p>What type of rock is this?</p>","7","class_response","1","train","12","Pumice","Pumice","09","true","8","8","",""
"","","","","","","","","","","","html-button-response","128","2.0.0","245946","66461dfd1eb6453139b1db4c","2","50","2176","","","","","","","","","<img src= rock_img/I_Pumice_09.jpg style=""width:8cm; height:6.44cm;""><p style='font-size: 30px; color: green;'><strong>Correct!</strong></p><p style='font-size: 30px;'><strong>This rock is pumice</strong></p>","0","corr_feedback","1","train","12","","","","","","","",""
"","","","","","","","","","","","html-button-response","129","2.0.0","247836","66461dfd1eb6453139b1db4c","2","50","1886","","","","","","","","","<img src= ""rock_img/I_Obsidian_16.jpg"" style=""width:8cm; height:9.3cm;""><p>What type of rock is this?</p>","4","class_response","1","train","13","Obsidian","Obsidian","16","true","5","5","",""
"","","","","","","","","","","","html-button-response","130","2.0.0","248843","66461dfd1eb6453139b1db4c","2","50","1002","","","","","","","","","<img src= rock_img/I_Obsidian_16.jpg style=""width:8cm; height:9.3cm;""><p style='font-size: 30px; color: green;'><strong>Correct!</strong></p><p style='font-size: 30px;'><strong>This rock is obsidian</strong></p>","0","corr_feedback","1","train","13","","","","","","","",""
"","","","","","","","","","","","html-button-response","131","2.0.0","250884","66461dfd1eb6453139b1db4c","2","50","2035","","","","","","","","","<img src= ""rock_img/I_Diorite_14.jpg"" style=""width:8cm; height:5.71cm;""><p>What type of rock is this?</p>","5","class_response","1","train","14","Pegmatite","Diorite","14","false","6","3","",""
"","","","","","","","","","","","html-button-response","132","2.0.0","262355","66461dfd1eb6453139b1db4c","2","50","11467","","","","","","","","","<img src= rock_img/I_Diorite_14.jpg style=""width:8cm; height:5.71cm;""><p style='font-size: 30px; color: red;'><strong>Incorrect!</strong></p><p style='font-size: 30px;'><strong>This rock is diorite</strong></p>","0","corr_feedback","1","train","14","","","","","","","",""
"","","","","","","","","","","","html-button-response","133","2.0.0","265596","66461dfd1eb6453139b1db4c","2","50","3235","","","","","","","","","<img src= ""rock_img/I_Pegmatite_10.jpg"" style=""width:8cm; height:4.16cm;""><p>What type of rock is this?</p>","5","class_response","1","train","15","Pegmatite","Pegmatite","10","true","6","6","",""
"","","","","","","","","","","","html-button-response","134","2.0.0","279860","66461dfd1eb6453139b1db4c","2","50","14259","","","","","","","","","<img src= rock_img/I_Pegmatite_10.jpg style=""width:8cm; height:4.16cm;""><p style='font-size: 30px; color: green;'><strong>Correct!</strong></p><p style='font-size: 30px;'><strong>This rock is pegmatite</strong></p>","0","corr_feedback","1","train","15","","","","","","","",""
"","","","","","","","","","","","html-button-response","135","2.0.0","281156","66461dfd1eb6453139b1db4c","2","50","1291","","","","","","","","","<img src= ""rock_img/I_Basalt_11.jpg"" style=""width:8cm; height:5.359999999999999cm;""><p>What type of rock is this?</p>","7","class_response","1","train","16","Pumice","Basalt","11","false","8","2","",""
"","","","","","","","","","","","html-button-response","136","2.0.0","288819","66461dfd1eb6453139b1db4c","2","50","7658","","","","","","","","","<img src= rock_img/I_Basalt_11.jpg style=""width:8cm; height:5.359999999999999cm;""><p style='font-size: 30px; color: red;'><strong>Incorrect!</strong></p><p style='font-size: 30px;'><strong>This rock is basalt</strong></p>","0","corr_feedback","1","train","16","","","","","","","",""
"","","","","","","","","","","","html-button-response","137","2.0.0","291796","66461dfd1eb6453139b1db4c","2","50","2970","","","","","","","","","<img src= ""rock_img/I_Peridotite_05.jpg"" style=""width:8cm; height:7.1499999999999995cm;""><p>What type of rock is this?</p>","0","class_response","1","train","17","Andesite","Peridotite","05","false","1","7","",""
"","","","","","","","","","","","html-button-response","138","2.0.0","305675","66461dfd1eb6453139b1db4c","2","50","13875","","","","","","","","","<img src= rock_img/I_Peridotite_05.jpg style=""width:8cm; height:7.1499999999999995cm;""><p style='font-size: 30px; color: red;'><strong>Incorrect!</strong></p><p style='font-size: 30px;'><strong>This rock is peridotite</strong></p>","0","corr_feedback","1","train","17","","","","","","","",""
"","","","","","","","","","","","html-button-response","139","2.0.0","307421","66461dfd1eb6453139b1db4c","2","50","1739","","","","","","","","","<img src= ""rock_img/I_Gabbro_14.jpg"" style=""width:8cm; height:8.48cm;""><p>What type of rock is this?</p>","2","class_response","1","train","18","Diorite","Gabbro","14","false","3","4","",""
"","","","","","","","","","","","html-button-response","140","2.0.0","320714","66461dfd1eb6453139b1db4c","2","50","13289","","","","","","","","","<img src= rock_img/I_Gabbro_14.jpg style=""width:8cm; height:8.48cm;""><p style='font-size: 30px; color: red;'><strong>Incorrect!</strong></p><p style='font-size: 30px;'><strong>This rock is gabbro</strong></p>","0","corr_feedback","1","train","18","","","","","","","",""
"","","","","","","","","","","","html-button-response","141","2.0.0","324179","66461dfd1eb6453139b1db4c","2","50","3462","","","","","","","","","<img src= ""rock_img/I_Diorite_15.jpg"" style=""width:8cm; height:5.54cm;""><p>What type of rock is this?</p>","2","class_response","1","train","19","Diorite","Diorite","15","true","3","3","",""
"","","","","","","","","","","","html-button-response","142","2.0.0","325571","66461dfd1eb6453139b1db4c","2","50","1387","","","","","","","","","<img src= rock_img/I_Diorite_15.jpg style=""width:8cm; height:5.54cm;""><p style='font-size: 30px; color: green;'><strong>Correct!</strong></p><p style='font-size: 30px;'><strong>This rock is diorite</strong></p>","0","corr_feedback","1","train","19","","","","","","","",""
"","","","","","","","","","","","html-button-response","143","2.0.0","331396","66461dfd1eb6453139b1db4c","2","50","5819","","","","","","","","","<img src= ""rock_img/I_Pegmatite_06.jpg"" style=""width:8cm; height:5.17cm;""><p>What type of rock is this?</p>","5","class_response","1","train","20","Pegmatite","Pegmatite","06","true","6","6","",""
"","","","","","","","","","","","html-button-response","144","2.0.0","332996","66461dfd1eb6453139b1db4c","2","50","1595","","","","","","","","","<img src= rock_img/I_Pegmatite_06.jpg style=""width:8cm; height:5.17cm;""><p style='font-size: 30px; color: green;'><strong>Correct!</strong></p><p style='font-size: 30px;'><strong>This rock is pegmatite</strong></p>","0","corr_feedback","1","train","20","","","","","","","",""
"","","","","","","","","","","","html-button-response","145","2.0.0","336548","66461dfd1eb6453139b1db4c","2","50","3546","","","","","","","","","<img src= ""rock_img/I_Pegmatite_13.jpg"" style=""width:8cm; height:4.95cm;""><p>What type of rock is this?</p>","1","class_response","1","train","21","Basalt","Pegmatite","13","false","2","6","",""
"","","","","","","","","","","","html-button-response","146","2.0.0","348092","66461dfd1eb6453139b1db4c","2","50","11538","","","","","","","","","<img src= rock_img/I_Pegmatite_13.jpg style=""width:8cm; height:4.95cm;""><p style='font-size: 30px; color: red;'><strong>Incorrect!</strong></p><p style='font-size: 30px;'><strong>This rock is pegmatite</strong></p>","0","corr_feedback","1","train","21","","","","","","","",""
"","","","","","","","","","","","html-button-response","147","2.0.0","351290","66461dfd1eb6453139b1db4c","2","50","3193","","","","","","","","","<img src= ""rock_img/I_Peridotite_08.jpg"" style=""width:8cm; height:6.7cm;""><p>What type of rock is this?</p>","5","class_response","1","train","22","Pegmatite","Peridotite","08","false","6","7","",""
"","","","","","","","","","","","html-button-response","148","2.0.0","358379","66461dfd1eb6453139b1db4c","2","50","7087","","","","","","","","","<img src= rock_img/I_Peridotite_08.jpg style=""width:8cm; height:6.7cm;""><p style='font-size: 30px; color: red;'><strong>Incorrect!</strong></p><p style='font-size: 30px;'><strong>This rock is peridotite</strong></p>","0","corr_feedback","1","train","22","","","","","","","",""
"","","","","","","","","","","","html-button-response","149","2.0.0","364452","66461dfd1eb6453139b1db4c","2","50","6067","","","","","","","","","<img src= ""rock_img/I_Peridotite_04.jpg"" style=""width:8cm; height:6.680000000000001cm;""><p>What type of rock is this?</p>","5","class_response","1","train","23","Pegmatite","Peridotite","04","false","6","7","",""
"","","","","","","","","","","","html-button-response","150","2.0.0","373203","66461dfd1eb6453139b1db4c","2","50","8746","","","","","","","","","<img src= rock_img/I_Peridotite_04.jpg style=""width:8cm; height:6.680000000000001cm;""><p style='font-size: 30px; color: red;'><strong>Incorrect!</strong></p><p style='font-size: 30px;'><strong>This rock is peridotite</strong></p>","0","corr_feedback","1","train","23","","","","","","","",""
"","","","","","","","","","","","html-button-response","151","2.0.0","375549","66461dfd1eb6453139b1db4c","2","50","2339","","","","","","","","","<img src= ""rock_img/I_Obsidian_04.jpg"" style=""width:8cm; height:6.930000000000001cm;""><p>What type of rock is this?</p>","4","class_response","1","train","24","Obsidian","Obsidian","04","true","5","5","",""
"","","","","","","","","","","","html-button-response","152","2.0.0","376468","66461dfd1eb6453139b1db4c","2","50","914","","","","","","","","","<img src= rock_img/I_Obsidian_04.jpg style=""width:8cm; height:6.930000000000001cm;""><p style='font-size: 30px; color: green;'><strong>Correct!</strong></p><p style='font-size: 30px;'><strong>This rock is obsidian</strong></p>","0","corr_feedback","1","train","24","","","","","","","",""
"","","","","","","","","","","","html-button-response","153","2.0.0","384698","66461dfd1eb6453139b1db4c","2","50","8225","","","","","","","","","<img src= ""rock_img/I_Gabbro_12.jpg"" style=""width:8cm; height:7.800000000000001cm;""><p>What type of rock is this?</p>","3","class_response","1","train","25","Gabbro","Gabbro","12","true","4","4","",""
"","","","","","","","","","","","html-button-response","154","2.0.0","386099","66461dfd1eb6453139b1db4c","2","50","1399","","","","","","","","","<img src= rock_img/I_Gabbro_12.jpg style=""width:8cm; height:7.800000000000001cm;""><p style='font-size: 30px; color: green;'><strong>Correct!</strong></p><p style='font-size: 30px;'><strong>This rock is gabbro</strong></p>","0","corr_feedback","1","train","25","","","","","","","",""
"","","","","","","","","","","","html-button-response","155","2.0.0","389572","66461dfd1eb6453139b1db4c","2","50","3467","","","","","","","","","<img src= ""rock_img/I_Pegmatite_15.jpg"" style=""width:8cm; height:6cm;""><p>What type of rock is this?</p>","5","class_response","1","train","26","Pegmatite","Pegmatite","15","true","6","6","",""
"","","","","","","","","","","","html-button-response","156","2.0.0","406700","66461dfd1eb6453139b1db4c","2","50","17123","","","","","","","","","<img src= rock_img/I_Pegmatite_15.jpg style=""width:8cm; height:6cm;""><p style='font-size: 30px; color: green;'><strong>Correct!</strong></p><p style='font-size: 30px;'><strong>This rock is pegmatite</strong></p>","0","corr_feedback","1","train","26","","","","","","","",""
"","","","","","","","","","","","html-button-response","157","2.0.0","409439","66461dfd1eb6453139b1db4c","2","50","2731","","","","","","","","","<img src= ""rock_img/I_Peridotite_04.jpg"" style=""width:8cm; height:6.680000000000001cm;""><p>What type of rock is this?</p>","5","class_response","1","train","27","Pegmatite","Peridotite","04","false","6","7","",""
"","","","","","","","","","","","html-button-response","158","2.0.0","420187","66461dfd1eb6453139b1db4c","2","50","10743","","","","","","","","","<img src= rock_img/I_Peridotite_04.jpg style=""width:8cm; height:6.680000000000001cm;""><p style='font-size: 30px; color: red;'><strong>Incorrect!</strong></p><p style='font-size: 30px;'><strong>This rock is peridotite</strong></p>","0","corr_feedback","1","train","27","","","","","","","",""
"","","","","","","","","","","","html-button-response","159","2.0.0","421564","66461dfd1eb6453139b1db4c","2","50","1371","","","","","","","","","<img src= ""rock_img/I_Obsidian_08.jpg"" style=""width:8cm; height:7.39cm;""><p>What type of rock is this?</p>","4","class_response","1","train","28","Obsidian","Obsidian","08","true","5","5","",""
"","","","","","","","","","","","html-button-response","160","2.0.0","422155","66461dfd1eb6453139b1db4c","2","50","586","","","","","","","","","<img src= rock_img/I_Obsidian_08.jpg style=""width:8cm; height:7.39cm;""><p style='font-size: 30px; color: green;'><strong>Correct!</strong></p><p style='font-size: 30px;'><strong>This rock is obsidian</strong></p>","0","corr_feedback","1","train","28","","","","","","","",""
"","","","","","","","","","","","html-button-response","161","2.0.0","423772","66461dfd1eb6453139b1db4c","2","50","1611","","","","","","","","","<img src= ""rock_img/I_Obsidian_07.jpg"" style=""width:8cm; height:4.76cm;""><p>What type of rock is this?</p>","4","class_response","1","train","29","Obsidian","Obsidian","07","true","5","5","",""
"","","","","","","","","","","","html-button-response","162","2.0.0","424604","66461dfd1eb6453139b1db4c","2","50","827","","","","","","","","","<img src= rock_img/I_Obsidian_07.jpg style=""width:8cm; height:4.76cm;""><p style='font-size: 30px; color: green;'><strong>Correct!</strong></p><p style='font-size: 30px;'><strong>This rock is obsidian</strong></p>","0","corr_feedback","1","train","29","","","","","","","",""
"","","","","","","","","","","","html-button-response","163","2.0.0","428756","66461dfd1eb6453139b1db4c","2","50","4147","","","","","","","","","<img src= ""rock_img/I_Diorite_06.jpg"" style=""width:8cm; height:6.03cm;""><p>What type of rock is this?</p>","2","class_response","1","train","30","Diorite","Diorite","06","true","3","3","",""
"","","","","","","","","","","","html-button-response","164","2.0.0","429610","66461dfd1eb6453139b1db4c","2","50","851","","","","","","","","","<img src= rock_img/I_Diorite_06.jpg style=""width:8cm; height:6.03cm;""><p style='font-size: 30px; color: green;'><strong>Correct!</strong></p><p style='font-size: 30px;'><strong>This rock is diorite</strong></p>","0","corr_feedback","1","train","30","","","","","","","",""
"","","","","","","","","","","","html-button-response","165","2.0.0","431596","66461dfd1eb6453139b1db4c","2","50","1980","","","","","","","","","<img src= ""rock_img/I_Andesite_07.jpg"" style=""width:8cm; height:5.93cm;""><p>What type of rock is this?</p>","2","class_response","1","train","31","Diorite","Andesite","07","false","3","1","",""
"","","","","","","","","","","","html-button-response","166","2.0.0","445531","66461dfd1eb6453139b1db4c","2","50","13931","","","","","","","","","<img src= rock_img/I_Andesite_07.jpg style=""width:8cm; height:5.93cm;""><p style='font-size: 30px; color: red;'><strong>Incorrect!</strong></p><p style='font-size: 30px;'><strong>This rock is andesite</strong></p>","0","corr_feedback","1","train","31","","","","","","","",""
"","","","","","","","","","","","html-button-response","167","2.0.0","455300","66461dfd1eb6453139b1db4c","2","50","9763","","","","","","","","","<img src= ""rock_img/I_Andesite_03.jpg"" style=""width:8cm; height:5.73cm;""><p>What type of rock is this?</p>","3","class_response","1","train","32","Gabbro","Andesite","03","false","4","1","",""
"","","","","","","","","","","","html-button-response","168","2.0.0","461068","66461dfd1eb6453139b1db4c","2","50","5763","","","","","","","","","<img src= rock_img/I_Andesite_03.jpg style=""width:8cm; height:5.73cm;""><p style='font-size: 30px; color: red;'><strong>Incorrect!</strong></p><p style='font-size: 30px;'><strong>This rock is andesite</strong></p>","0","corr_feedback","1","train","32","","","","","","","",""
"","","","","","","","","","","","html-button-response","169","2.0.0","465284","66461dfd1eb6453139b1db4c","2","50","4210","","","","","","","","","<img src= ""rock_img/I_Diorite_14.jpg"" style=""width:8cm; height:5.71cm;""><p>What type of rock is this?</p>","2","class_response","1","train","33","Diorite","Diorite","14","true","3","3","",""
"","","","","","","","","","","","html-button-response","170","2.0.0","466052","66461dfd1eb6453139b1db4c","2","50","762","","","","","","","","","<img src= rock_img/I_Diorite_14.jpg style=""width:8cm; height:5.71cm;""><p style='font-size: 30px; color: green;'><strong>Correct!</strong></p><p style='font-size: 30px;'><strong>This rock is diorite</strong></p>","0","corr_feedback","1","train","33","","","","","","","",""
"","","","","","","","","","","","html-button-response","171","2.0.0","469818","66461dfd1eb6453139b1db4c","2","50","3761","","","","","","","","","<img src= ""rock_img/I_Gabbro_16.jpg"" style=""width:8cm; height:6.44cm;""><p>What type of rock is this?</p>","3","class_response","1","train","34","Gabbro","Gabbro","16","true","4","4","",""
"","","","","","","","","","","","html-button-response","172","2.0.0","471314","66461dfd1eb6453139b1db4c","2","50","1494","","","","","","","","","<img src= rock_img/I_Gabbro_16.jpg style=""width:8cm; height:6.44cm;""><p style='font-size: 30px; color: green;'><strong>Correct!</strong></p><p style='font-size: 30px;'><strong>This rock is gabbro</strong></p>","0","corr_feedback","1","train","34","","","","","","","",""
"","","","","","","","","","","","html-button-response","173","2.0.0","475108","66461dfd1eb6453139b1db4c","2","50","3791","","","","","","","","","<img src= ""rock_img/I_Andesite_03.jpg"" style=""width:8cm; height:5.73cm;""><p>What type of rock is this?</p>","0","class_response","1","train","35","Andesite","Andesite","03","true","1","1","",""
"","","","","","","","","","","","html-button-response","174","2.0.0","476611","66461dfd1eb6453139b1db4c","2","50","1498","","","","","","","","","<img src= rock_img/I_Andesite_03.jpg style=""width:8cm; height:5.73cm;""><p style='font-size: 30px; color: green;'><strong>Correct!</strong></p><p style='font-size: 30px;'><strong>This rock is andesite</strong></p>","0","corr_feedback","1","train","35","","","","","","","",""
"","","","","","","","","","","","html-button-response","175","2.0.0","482778","66461dfd1eb6453139b1db4c","2","50","6162","","","","","","","","","<img src= ""rock_img/I_Andesite_16.jpg"" style=""width:8cm; height:6.010000000000001cm;""><p>What type of rock is this?</p>","5","class_response","1","train","36","Pegmatite","Andesite","16","false","6","1","",""
"","","","","","","","","","","","html-button-response","176","2.0.0","490003","66461dfd1eb6453139b1db4c","2","50","7221","","","","","","","","","<img src= rock_img/I_Andesite_16.jpg style=""width:8cm; height:6.010000000000001cm;""><p style='font-size: 30px; color: red;'><strong>Incorrect!</strong></p><p style='font-size: 30px;'><strong>This rock is andesite</strong></p>","0","corr_feedback","1","train","36","","","","","","","",""
"","","","","","","","","","","","html-button-response","177","2.0.0","498292","66461dfd1eb6453139b1db4c","2","50","8283","","","","","","","","","<img src= ""rock_img/I_Peridotite_16.jpg"" style=""width:8cm; height:6.989999999999999cm;""><p>What type of rock is this?</p>","5","class_response","1","train","37","Pegmatite","Peridotite","16","false","6","7","",""
"","","","","","","","","","","","html-button-response","178","2.0.0","500971","66461dfd1eb6453139b1db4c","2","50","2675","","","","","","","","","<img src= rock_img/I_Peridotite_16.jpg style=""width:8cm; height:6.989999999999999cm;""><p style='font-size: 30px; color: red;'><strong>Incorrect!</strong></p><p style='font-size: 30px;'><strong>This rock is peridotite</strong></p>","0","corr_feedback","1","train","37","","","","","","","",""
"","","","","","","","","","","","html-button-response","179","2.0.0","502772","66461dfd1eb6453139b1db4c","2","50","1795","","","","","","","","","<img src= ""rock_img/I_Gabbro_09.jpg"" style=""width:8cm; height:7.279999999999999cm;""><p>What type of rock is this?</p>","6","class_response","1","train","38","Peridotite","Gabbro","09","false","7","4","",""
"","","","","","","","","","","","html-button-response","180","2.0.0","504228","66461dfd1eb6453139b1db4c","2","50","1451","","","","","","","","","<img src= rock_img/I_Gabbro_09.jpg style=""width:8cm; height:7.279999999999999cm;""><p style='font-size: 30px; color: red;'><strong>Incorrect!</strong></p><p style='font-size: 30px;'><strong>This rock is gabbro</strong></p>","0","corr_feedback","1","train","38","","","","","","","",""
"","","","","","","","","","","","html-button-response","181","2.0.0","508195","66461dfd1eb6453139b1db4c","2","50","3962","","","","","","","","","<img src= ""rock_img/I_Diorite_13.jpg"" style=""width:8cm; height:6.29cm;""><p>What type of rock is this?</p>","2","class_response","1","train","39","Diorite","Diorite","13","true","3","3","",""
"","","","","","","","","","","","html-button-response","182","2.0.0","509259","66461dfd1eb6453139b1db4c","2","50","1059","","","","","","","","","<img src= rock_img/I_Diorite_13.jpg style=""width:8cm; height:6.29cm;""><p style='font-size: 30px; color: green;'><strong>Correct!</strong></p><p style='font-size: 30px;'><strong>This rock is diorite</strong></p>","0","corr_feedback","1","train","39","","","","","","","",""
"","","","","","","","","","","","html-button-response","183","2.0.0","515690","66461dfd1eb6453139b1db4c","2","50","6426","","","","","","","","","<img src= ""rock_img/I_Diorite_16.jpg"" style=""width:8cm; height:6.74cm;""><p>What type of rock is this?</p>","0","class_response","1","train","40","Andesite","Diorite","16","false","1","3","",""
"","","","","","","","","","","","html-button-response","184","2.0.0","516706","66461dfd1eb6453139b1db4c","2","50","1014","","","","","","","","","<img src= rock_img/I_Diorite_16.jpg style=""width:8cm; height:6.74cm;""><p style='font-size: 30px; color: red;'><strong>Incorrect!</strong></p><p style='font-size: 30px;'><strong>This rock is diorite</strong></p>","0","corr_feedback","1","train","40","","","","","","","",""
"","","","","","","","","","","","html-button-response","185","2.0.0","520628","66461dfd1eb6453139b1db4c","2","50","3918","","","","","","","","","<img src= ""rock_img/I_Peridotite_06.jpg"" style=""width:8cm; height:7.53cm;""><p>What type of rock is this?</p>","5","class_response","1","train","41","Pegmatite","Peridotite","06","false","6","7","",""
"","","","","","","","","","","","html-button-response","186","2.0.0","522419","66461dfd1eb6453139b1db4c","2","50","1787","","","","","","","","","<img src= rock_img/I_Peridotite_06.jpg style=""width:8cm; height:7.53cm;""><p style='font-size: 30px; color: red;'><strong>Incorrect!</strong></p><p style='font-size: 30px;'><strong>This rock is peridotite</strong></p>","0","corr_feedback","1","train","41","","","","","","","",""
"","","","","","","","","","","","html-button-response","187","2.0.0","524212","66461dfd1eb6453139b1db4c","2","50","1787","","","","","","","","","<img src= ""rock_img/I_Diorite_08.jpg"" style=""width:8cm; height:6.37cm;""><p>What type of rock is this?</p>","2","class_response","1","train","42","Diorite","Diorite","08","true","3","3","",""
"","","","","","","","","","","","html-button-response","188","2.0.0","525099","66461dfd1eb6453139b1db4c","2","50","883","","","","","","","","","<img src= rock_img/I_Diorite_08.jpg style=""width:8cm; height:6.37cm;""><p style='font-size: 30px; color: green;'><strong>Correct!</strong></p><p style='font-size: 30px;'><strong>This rock is diorite</strong></p>","0","corr_feedback","1","train","42","","","","","","","",""
"","","","","","","","","","","","html-button-response","189","2.0.0","531290","66461dfd1eb6453139b1db4c","2","50","6186","","","","","","","","","<img src= ""rock_img/I_Andesite_04.jpg"" style=""width:8cm; height:5.96cm;""><p>What type of rock is this?</p>","1","class_response","1","train","43","Basalt","Andesite","04","false","2","1","",""
"","","","","","","","","","","","html-button-response","190","2.0.0","532603","66461dfd1eb6453139b1db4c","2","50","1311","","","","","","","","","<img src= rock_img/I_Andesite_04.jpg style=""width:8cm; height:5.96cm;""><p style='font-size: 30px; color: red;'><strong>Incorrect!</strong></p><p style='font-size: 30px;'><strong>This rock is andesite</strong></p>","0","corr_feedback","1","train","43","","","","","","","",""
"","","","","","","","","","","","html-button-response","191","2.0.0","536516","66461dfd1eb6453139b1db4c","2","50","3907","","","","","","","","","<img src= ""rock_img/I_Pumice_13.jpg"" style=""width:8cm; height:8.200000000000001cm;""><p>What type of rock is this?</p>","7","class_response","1","train","44","Pumice","Pumice","13","true","8","8","",""
"","","","","","","","","","","","html-button-response","192","2.0.0","537467","66461dfd1eb6453139b1db4c","2","50","947","","","","","","","","","<img src= rock_img/I_Pumice_13.jpg style=""width:8cm; height:8.200000000000001cm;""><p style='font-size: 30px; color: green;'><strong>Correct!</strong></p><p style='font-size: 30px;'><strong>This rock is pumice</strong></p>","0","corr_feedback","1","train","44","","","","","","","",""
"","","","","","","","","","","","html-button-response","193","2.0.0","544836","66461dfd1eb6453139b1db4c","2","50","7363","","","","","","","","","<img src= ""rock_img/I_Pegmatite_11.jpg"" style=""width:8cm; height:8.14cm;""><p>What type of rock is this?</p>","5","class_response","1","train","45","Pegmatite","Pegmatite","11","true","6","6","",""
"","","","","","","","","","","","html-button-response","194","2.0.0","550019","66461dfd1eb6453139b1db4c","2","50","5179","","","","","","","","","<img src= rock_img/I_Pegmatite_11.jpg style=""width:8cm; height:8.14cm;""><p style='font-size: 30px; color: green;'><strong>Correct!</strong></p><p style='font-size: 30px;'><strong>This rock is pegmatite</strong></p>","0","corr_feedback","1","train","45","","","","","","","",""
"","","","","","","","","","","","html-button-response","195","2.0.0","551308","66461dfd1eb6453139b1db4c","2","50","1283","","","","","","","","","<img src= ""rock_img/I_Pegmatite_08.jpg"" style=""width:8cm; height:7.68cm;""><p>What type of rock is this?</p>","5","class_response","1","train","46","Pegmatite","Pegmatite","08","true","6","6","",""
"","","","","","","","","","","","html-button-response","196","2.0.0","552122","66461dfd1eb6453139b1db4c","2","50","809","","","","","","","","","<img src= rock_img/I_Pegmatite_08.jpg style=""width:8cm; height:7.68cm;""><p style='font-size: 30px; color: green;'><strong>Correct!</strong></p><p style='font-size: 30px;'><strong>This rock is pegmatite</strong></p>","0","corr_feedback","1","train","46","","","","","","","",""
"","","","","","","","","","","","html-button-response","197","2.0.0","557076","66461dfd1eb6453139b1db4c","2","50","4950","","","","","","","","","<img src= ""rock_img/I_Basalt_12.jpg"" style=""width:8cm; height:6.010000000000001cm;""><p>What type of rock is this?</p>","0","class_response","1","train","47","Andesite","Basalt","12","false","1","2","",""
"","","","","","","","","","","","html-button-response","198","2.0.0","563659","66461dfd1eb6453139b1db4c","2","50","6579","","","","","","","","","<img src= rock_img/I_Basalt_12.jpg style=""width:8cm; height:6.010000000000001cm;""><p style='font-size: 30px; color: red;'><strong>Incorrect!</strong></p><p style='font-size: 30px;'><strong>This rock is basalt</strong></p>","0","corr_feedback","1","train","47","","","","","","","",""
"","","","","","","","","","","","html-button-response","199","2.0.0","568931","66461dfd1eb6453139b1db4c","2","50","5267","","","","","","","","","<img src= ""rock_img/I_Andesite_02.jpg"" style=""width:8cm; height:8.5cm;""><p>What type of rock is this?</p>","1","class_response","1","train","48","Basalt","Andesite","02","false","2","1","",""
"","","","","","","","","","","","html-button-response","200","2.0.0","570331","66461dfd1eb6453139b1db4c","2","50","1395","","","","","","","","","<img src= rock_img/I_Andesite_02.jpg style=""width:8cm; height:8.5cm;""><p style='font-size: 30px; color: red;'><strong>Incorrect!</strong></p><p style='font-size: 30px;'><strong>This rock is andesite</strong></p>","0","corr_feedback","1","train","48","","","","","","","",""
"","","","","","","","","","","","instructions","203","2.0.0","583947","66461dfd1eb6453139b1db4c","2","50","13611","","","","","","","","[{""page_index"":0,""viewing_time"":6836},{""page_index"":1,""viewing_time"":6776}]","","","","","","","","","","","","","",""
"","","","","","","","","","","","html-button-response","204","2.0.0","585795","66461dfd1eb6453139b1db4c","2","50","1844","","","","","","","","","","0","start_test","","","","","","","","","","",""
"","","","","","","","","","","","html-button-response","205","2.0.0","587252","66461dfd1eb6453139b1db4c","2","50","1451","","","","","","","","","<img src= ""rock_img/I_Pumice_05.jpg"" style=""width:8cm; height:7.25cm;""><p>What type of rock is this?</p>","7","class_response","1","test","1","Pumice","Pumice","05","true","8","8","",""
"","","","","","","","","","","","html-keyboard-response","206","2.0.0","587755","66461dfd1eb6453139b1db4c","2","50","null","","","","","","","","","<p style='font-size: 30px;'><strong>Okay</strong></p>","null","neutral_feedback","1","test","1","","","","","","","",""
"","","","","","","","","","","","html-button-response","207","2.0.0","591444","66461dfd1eb6453139b1db4c","2","50","3683","","","","","","","","","<img src= ""rock_img/I_Pegmatite_03.jpg"" style=""width:8cm; height:5.239999999999999cm;""><p>What type of rock is this?</p>","5","class_response","1","test","2","Pegmatite","Pegmatite","03","true","6","6","",""
"","","","","","","","","","","","html-keyboard-response","208","2.0.0","591947","66461dfd1eb6453139b1db4c","2","50","null","","","","","","","","","<p style='font-size: 30px;'><strong>Okay</strong></p>","null","neutral_feedback","1","test","2","","","","","","","",""
"","","","","","","","","","","","html-button-response","209","2.0.0","600812","66461dfd1eb6453139b1db4c","2","50","8862","","","","","","","","","<img src= ""rock_img/I_Andesite_09.jpg"" style=""width:8cm; height:6cm;""><p>What type of rock is this?</p>","1","class_response","1","test","3","Basalt","Andesite","09","false","2","1","",""
"","","","","","","","","","","","html-keyboard-response","210","2.0.0","601316","66461dfd1eb6453139b1db4c","2","50","null","","","","","","","","","<p style='font-size: 30px;'><strong>Okay</strong></p>","null","neutral_feedback","1","test","3","","","","","","","",""
"","","","","","","","","","","","html-button-response","211","2.0.0","604916","66461dfd1eb6453139b1db4c","2","50","3595","","","","","","","","","<img src= ""rock_img/I_Diorite_02.jpg"" style=""width:8cm; height:6.27cm;""><p>What type of rock is this?</p>","2","class_response","1","test","4","Diorite","Diorite","02","true","3","3","",""
"","","","","","","","","","","","html-keyboard-response","212","2.0.0","605419","66461dfd1eb6453139b1db4c","2","50","null","","","","","","","","","<p style='font-size: 30px;'><strong>Okay</strong></p>","null","neutral_feedback","1","test","4","","","","","","","",""
"","","","","","","","","","","","html-button-response","213","2.0.0","610868","66461dfd1eb6453139b1db4c","2","50","5443","","","","","","","","","<img src= ""rock_img/I_Pegmatite_09.jpg"" style=""width:8cm; height:4.03cm;""><p>What type of rock is this?</p>","5","class_response","1","test","5","Pegmatite","Pegmatite","09","true","6","6","",""
"","","","","","","","","","","","html-keyboard-response","214","2.0.0","611372","66461dfd1eb6453139b1db4c","2","50","null","","","","","","","","","<p style='font-size: 30px;'><strong>Okay</strong></p>","null","neutral_feedback","1","test","5","","","","","","","",""
"","","","","","","","","","","","html-button-response","215","2.0.0","615084","66461dfd1eb6453139b1db4c","2","50","3704","","","","","","","","","<img src= ""rock_img/I_Pegmatite_05.jpg"" style=""width:8cm; height:7.300000000000001cm;""><p>What type of rock is this?</p>","5","class_response","1","test","6","Pegmatite","Pegmatite","05","true","6","6","",""
"","","","","","","","","","","","html-keyboard-response","216","2.0.0","615587","66461dfd1eb6453139b1db4c","2","50","null","","","","","","","","","<p style='font-size: 30px;'><strong>Okay</strong></p>","null","neutral_feedback","1","test","6","","","","","","","",""
"","","","","","","","","","","","html-button-response","217","2.0.0","617236","66461dfd1eb6453139b1db4c","2","50","1643","","","","","","","","","<img src= ""rock_img/I_Pegmatite_16.jpg"" style=""width:8cm; height:5.8cm;""><p>What type of rock is this?</p>","5","class_response","1","test","7","Pegmatite","Pegmatite","16","true","6","6","",""
"","","","","","","","","","","","html-keyboard-response","218","2.0.0","617739","66461dfd1eb6453139b1db4c","2","50","null","","","","","","","","","<p style='font-size: 30px;'><strong>Okay</strong></p>","null","neutral_feedback","1","test","7","","","","","","","",""
"","","","","","","","","","","","html-button-response","219","2.0.0","619380","66461dfd1eb6453139b1db4c","2","50","1635","","","","","","","","","<img src= ""rock_img/I_Obsidian_06.jpg"" style=""width:8cm; height:6.8cm;""><p>What type of rock is this?</p>","4","class_response","1","test","8","Obsidian","Obsidian","06","true","5","5","",""
"","","","","","","","","","","","html-keyboard-response","220","2.0.0","619883","66461dfd1eb6453139b1db4c","2","50","null","","","","","","","","","<p style='font-size: 30px;'><strong>Okay</strong></p>","null","neutral_feedback","1","test","8","","","","","","","",""
"","","","","","","","","","","","html-button-response","221","2.0.0","626444","66461dfd1eb6453139b1db4c","2","50","6556","","","","","","","","","<img src= ""rock_img/I_Andesite_11.jpg"" style=""width:8cm; height:4.92cm;""><p>What type of rock is this?</p>","6","class_response","1","test","9","Peridotite","Andesite","11","false","7","1","",""
"","","","","","","","","","","","html-keyboard-response","222","2.0.0","626947","66461dfd1eb6453139b1db4c","2","50","null","","","","","","","","","<p style='font-size: 30px;'><strong>Okay</strong></p>","null","neutral_feedback","1","test","9","","","","","","","",""
"","","","","","","","","","","","html-button-response","223","2.0.0","630164","66461dfd1eb6453139b1db4c","2","50","3211","","","","","","","","","<img src= ""rock_img/I_Peridotite_15.jpg"" style=""width:8cm; height:6cm;""><p>What type of rock is this?</p>","5","class_response","1","test","10","Pegmatite","Peridotite","15","false","6","7","",""
"","","","","","","","","","","","html-keyboard-response","224","2.0.0","630667","66461dfd1eb6453139b1db4c","2","50","null","","","","","","","","","<p style='font-size: 30px;'><strong>Okay</strong></p>","null","neutral_feedback","1","test","10","","","","","","","",""
"","","","","","","","","","","","html-button-response","225","2.0.0","647021","66461dfd1eb6453139b1db4c","2","50","16348","","","","","","","","","<img src= ""rock_img/I_Andesite_14.jpg"" style=""width:8cm; height:5.449999999999999cm;""><p>What type of rock is this?</p>","3","class_response","1","test","11","Gabbro","Andesite","14","false","4","1","",""
"","","","","","","","","","","","html-keyboard-response","226","2.0.0","647524","66461dfd1eb6453139b1db4c","2","50","null","","","","","","","","","<p style='font-size: 30px;'><strong>Okay</strong></p>","null","neutral_feedback","1","test","11","","","","","","","",""
"","","","","","","","","","","","html-button-response","227","2.0.0","648852","66461dfd1eb6453139b1db4c","2","50","1323","","","","","","","","","<img src= ""rock_img/I_Obsidian_14.jpg"" style=""width:8cm; height:7.64cm;""><p>What type of rock is this?</p>","4","class_response","1","test","12","Obsidian","Obsidian","14","true","5","5","",""
"","","","","","","","","","","","html-keyboard-response","228","2.0.0","649355","66461dfd1eb6453139b1db4c","2","50","null","","","","","","","","","<p style='font-size: 30px;'><strong>Okay</strong></p>","null","neutral_feedback","1","test","12","","","","","","","",""
"","","","","","","","","","","","html-button-response","229","2.0.0","653164","66461dfd1eb6453139b1db4c","2","50","3804","","","","","","","","","<img src= ""rock_img/I_Peridotite_14.jpg"" style=""width:8cm; height:5.3cm;""><p>What type of rock is this?</p>","5","class_response","1","test","13","Pegmatite","Peridotite","14","false","6","7","",""
"","","","","","","","","","","","html-keyboard-response","230","2.0.0","653668","66461dfd1eb6453139b1db4c","2","50","null","","","","","","","","","<p style='font-size: 30px;'><strong>Okay</strong></p>","null","neutral_feedback","1","test","13","","","","","","","",""
"","","","","","","","","","","","html-button-response","231","2.0.0","657420","66461dfd1eb6453139b1db4c","2","50","3749","","","","","","","","","<img src= ""rock_img/I_Diorite_07.jpg"" style=""width:8cm; height:5.239999999999999cm;""><p>What type of rock is this?</p>","2","class_response","1","test","14","Diorite","Diorite","07","true","3","3","",""
"","","","","","","","","","","","html-keyboard-response","232","2.0.0","657923","66461dfd1eb6453139b1db4c","2","50","null","","","","","","","","","<p style='font-size: 30px;'><strong>Okay</strong></p>","null","neutral_feedback","1","test","14","","","","","","","",""
"","","","","","","","","","","","html-button-response","233","2.0.0","660020","66461dfd1eb6453139b1db4c","2","50","2094","","","","","","","","","<img src= ""rock_img/I_Diorite_12.jpg"" style=""width:8cm; height:4.88cm;""><p>What type of rock is this?</p>","2","class_response","1","test","15","Diorite","Diorite","12","true","3","3","",""
"","","","","","","","","","","","html-keyboard-response","234","2.0.0","660523","66461dfd1eb6453139b1db4c","2","50","null","","","","","","","","","<p style='font-size: 30px;'><strong>Okay</strong></p>","null","neutral_feedback","1","test","15","","","","","","","",""
"","","","","","","","","","","","html-button-response","235","2.0.0","667068","66461dfd1eb6453139b1db4c","2","50","6540","","","","","","","","","<img src= ""rock_img/I_Andesite_01.jpg"" style=""width:8cm; height:5.87cm;""><p>What type of rock is this?</p>","6","class_response","1","test","16","Peridotite","Andesite","01","false","7","1","",""
"","","","","","","","","","","","html-keyboard-response","236","2.0.0","667571","66461dfd1eb6453139b1db4c","2","50","null","","","","","","","","","<p style='font-size: 30px;'><strong>Okay</strong></p>","null","neutral_feedback","1","test","16","","","","","","","",""
"","","","","","","","","","","","html-button-response","237","2.0.0","676420","66461dfd1eb6453139b1db4c","2","50","8843","","","","","","","","","<img src= ""rock_img/I_Basalt_10.jpg"" style=""width:8cm; height:5.85cm;""><p>What type of rock is this?</p>","0","class_response","1","test","17","Andesite","Basalt","10","false","1","2","",""
"","","","","","","","","","","","html-keyboard-response","238","2.0.0","676923","66461dfd1eb6453139b1db4c","2","50","null","","","","","","","","","<p style='font-size: 30px;'><strong>Okay</strong></p>","null","neutral_feedback","1","test","17","","","","","","","",""
"","","","","","","","","","","","html-button-response","239","2.0.0","679155","66461dfd1eb6453139b1db4c","2","50","2228","","","","","","","","","<img src= ""rock_img/I_Basalt_16.jpg"" style=""width:8cm; height:7.659999999999999cm;""><p>What type of rock is this?</p>","0","class_response","1","test","18","Andesite","Basalt","16","false","1","2","",""
"","","","","","","","","","","","html-keyboard-response","240","2.0.0","679659","66461dfd1eb6453139b1db4c","2","50","null","","","","","","","","","<p style='font-size: 30px;'><strong>Okay</strong></p>","null","neutral_feedback","1","test","18","","","","","","","",""
"","","","","","","","","","","","html-button-response","241","2.0.0","681964","66461dfd1eb6453139b1db4c","2","50","2300","","","","","","","","","<img src= ""rock_img/I_Gabbro_03.jpg"" style=""width:8cm; height:8.52cm;""><p>What type of rock is this?</p>","2","class_response","1","test","19","Diorite","Gabbro","03","false","3","4","",""
"","","","","","","","","","","","html-keyboard-response","242","2.0.0","682467","66461dfd1eb6453139b1db4c","2","50","null","","","","","","","","","<p style='font-size: 30px;'><strong>Okay</strong></p>","null","neutral_feedback","1","test","19","","","","","","","",""
"","","","","","","","","","","","html-button-response","243","2.0.0","684604","66461dfd1eb6453139b1db4c","2","50","2131","","","","","","","","","<img src= ""rock_img/I_Peridotite_13.jpg"" style=""width:8cm; height:7.58cm;""><p>What type of rock is this?</p>","5","class_response","1","test","20","Pegmatite","Peridotite","13","false","6","7","",""
"","","","","","","","","","","","html-keyboard-response","244","2.0.0","685107","66461dfd1eb6453139b1db4c","2","50","null","","","","","","","","","<p style='font-size: 30px;'><strong>Okay</strong></p>","null","neutral_feedback","1","test","20","","","","","","","",""
"","","","","","","","","","","","html-button-response","245","2.0.0","687051","66461dfd1eb6453139b1db4c","2","50","1939","","","","","","","","","<img src= ""rock_img/I_Basalt_08.jpg"" style=""width:8cm; height:10.44cm;""><p>What type of rock is this?</p>","0","class_response","1","test","21","Andesite","Basalt","08","false","1","2","",""
"","","","","","","","","","","","html-keyboard-response","246","2.0.0","687555","66461dfd1eb6453139b1db4c","2","50","null","","","","","","","","","<p style='font-size: 30px;'><strong>Okay</strong></p>","null","neutral_feedback","1","test","21","","","","","","","",""
"","","","","","","","","","","","html-button-response","247","2.0.0","692700","66461dfd1eb6453139b1db4c","2","50","5139","","","","","","","","","<img src= ""rock_img/I_Gabbro_15.jpg"" style=""width:8cm; height:6.29cm;""><p>What type of rock is this?</p>","3","class_response","1","test","22","Gabbro","Gabbro","15","true","4","4","",""
"","","","","","","","","","","","html-keyboard-response","248","2.0.0","693203","66461dfd1eb6453139b1db4c","2","50","null","","","","","","","","","<p style='font-size: 30px;'><strong>Okay</strong></p>","null","neutral_feedback","1","test","22","","","","","","","",""
"","","","","","","","","","","","html-button-response","249","2.0.0","694596","66461dfd1eb6453139b1db4c","2","50","1388","","","","","","","","","<img src= ""rock_img/I_Obsidian_11.jpg"" style=""width:8cm; height:6.05cm;""><p>What type of rock is this?</p>","4","class_response","1","test","23","Obsidian","Obsidian","11","true","5","5","",""
"","","","","","","","","","","","html-keyboard-response","250","2.0.0","695100","66461dfd1eb6453139b1db4c","2","50","null","","","","","","","","","<p style='font-size: 30px;'><strong>Okay</strong></p>","null","neutral_feedback","1","test","23","","","","","","","",""
"","","","","","","","","","","","html-button-response","251","2.0.0","704300","66461dfd1eb6453139b1db4c","2","50","9195","","","","","","","","","<img src= ""rock_img/I_Gabbro_11.jpg"" style=""width:8cm; height:6.2cm;""><p>What type of rock is this?</p>","1","class_response","1","test","24","Basalt","Gabbro","11","false","2","4","",""
"","","","","","","","","","","","html-keyboard-response","252","2.0.0","704803","66461dfd1eb6453139b1db4c","2","50","null","","","","","","","","","<p style='font-size: 30px;'><strong>Okay</strong></p>","null","neutral_feedback","1","test","24","","","","","","","",""
"","","","","","","","","","","","html-button-response","253","2.0.0","706524","66461dfd1eb6453139b1db4c","2","50","1716","","","","","","","","","<img src= ""rock_img/I_Peridotite_02.jpg"" style=""width:8cm; height:5.859999999999999cm;""><p>What type of rock is this?</p>","5","class_response","1","test","25","Pegmatite","Peridotite","02","false","6","7","",""
"","","","","","","","","","","","html-keyboard-response","254","2.0.0","707027","66461dfd1eb6453139b1db4c","2","50","null","","","","","","","","","<p style='font-size: 30px;'><strong>Okay</strong></p>","null","neutral_feedback","1","test","25","","","","","","","",""
"","","","","","","","","","","","html-button-response","255","2.0.0","708581","66461dfd1eb6453139b1db4c","2","50","1548","","","","","","","","","<img src= ""rock_img/I_Pumice_14.jpg"" style=""width:8cm; height:6.39cm;""><p>What type of rock is this?</p>","7","class_response","1","test","26","Pumice","Pumice","14","true","8","8","",""
"","","","","","","","","","","","html-keyboard-response","256","2.0.0","709084","66461dfd1eb6453139b1db4c","2","50","null","","","","","","","","","<p style='font-size: 30px;'><strong>Okay</strong></p>","null","neutral_feedback","1","test","26","","","","","","","",""
"","","","","","","","","","","","html-button-response","257","2.0.0","717212","66461dfd1eb6453139b1db4c","2","50","8122","","","","","","","","","<img src= ""rock_img/I_Gabbro_08.jpg"" style=""width:8cm; height:5.15cm;""><p>What type of rock is this?</p>","6","class_response","1","test","27","Peridotite","Gabbro","08","false","7","4","",""
"","","","","","","","","","","","html-keyboard-response","258","2.0.0","717716","66461dfd1eb6453139b1db4c","2","50","null","","","","","","","","","<p style='font-size: 30px;'><strong>Okay</strong></p>","null","neutral_feedback","1","test","27","","","","","","","",""
"","","","","","","","","","","","html-button-response","259","2.0.0","719412","66461dfd1eb6453139b1db4c","2","50","1691","","","","","","","","","<img src= ""rock_img/I_Diorite_09.jpg"" style=""width:8cm; height:5.27cm;""><p>What type of rock is this?</p>","2","class_response","1","test","28","Diorite","Diorite","09","true","3","3","",""
"","","","","","","","","","","","html-keyboard-response","260","2.0.0","719915","66461dfd1eb6453139b1db4c","2","50","null","","","","","","","","","<p style='font-size: 30px;'><strong>Okay</strong></p>","null","neutral_feedback","1","test","28","","","","","","","",""
"","","","","","","","","","","","html-button-response","261","2.0.0","722356","66461dfd1eb6453139b1db4c","2","50","2435","","","","","","","","","<img src= ""rock_img/I_Pegmatite_12.jpg"" style=""width:8cm; height:5.7cm;""><p>What type of rock is this?</p>","5","class_response","1","test","29","Pegmatite","Pegmatite","12","true","6","6","",""
"","","","","","","","","","","","html-keyboard-response","262","2.0.0","722859","66461dfd1eb6453139b1db4c","2","50","null","","","","","","","","","<p style='font-size: 30px;'><strong>Okay</strong></p>","null","neutral_feedback","1","test","29","","","","","","","",""
"","","","","","","","","","","","html-button-response","263","2.0.0","725092","66461dfd1eb6453139b1db4c","2","50","2227","","","","","","","","","<img src= ""rock_img/I_Obsidian_05.jpg"" style=""width:8cm; height:6.33cm;""><p>What type of rock is this?</p>","4","class_response","1","test","30","Obsidian","Obsidian","05","true","5","5","",""
"","","","","","","","","","","","html-keyboard-response","264","2.0.0","725595","66461dfd1eb6453139b1db4c","2","50","null","","","","","","","","","<p style='font-size: 30px;'><strong>Okay</strong></p>","null","neutral_feedback","1","test","30","","","","","","","",""
"","","","","","","","","","","","html-button-response","265","2.0.0","727356","66461dfd1eb6453139b1db4c","2","50","1755","","","","","","","","","<img src= ""rock_img/I_Pumice_15.jpg"" style=""width:8cm; height:7.86cm;""><p>What type of rock is this?</p>","7","class_response","1","test","31","Pumice","Pumice","15","true","8","8","",""
"","","","","","","","","","","","html-keyboard-response","266","2.0.0","727859","66461dfd1eb6453139b1db4c","2","50","null","","","","","","","","","<p style='font-size: 30px;'><strong>Okay</strong></p>","null","neutral_feedback","1","test","31","","","","","","","",""
"","","","","","","","","","","","html-button-response","267","2.0.0","733076","66461dfd1eb6453139b1db4c","2","50","5212","","","","","","","","","<img src= ""rock_img/I_Peridotite_10.jpg"" style=""width:8cm; height:5.390000000000001cm;""><p>What type of rock is this?</p>","1","class_response","1","test","32","Basalt","Peridotite","10","false","2","7","",""
"","","","","","","","","","","","html-keyboard-response","268","2.0.0","733579","66461dfd1eb6453139b1db4c","2","50","null","","","","","","","","","<p style='font-size: 30px;'><strong>Okay</strong></p>","null","neutral_feedback","1","test","32","","","","","","","",""
"","","","","","","","","","","","html-button-response","269","2.0.0","734972","66461dfd1eb6453139b1db4c","2","50","1387","","","","","","","","","<img src= ""rock_img/I_Obsidian_10.jpg"" style=""width:8cm; height:6.260000000000001cm;""><p>What type of rock is this?</p>","4","class_response","1","test","33","Obsidian","Obsidian","10","true","5","5","",""
"","","","","","","","","","","","html-keyboard-response","270","2.0.0","735475","66461dfd1eb6453139b1db4c","2","50","null","","","","","","","","","<p style='font-size: 30px;'><strong>Okay</strong></p>","null","neutral_feedback","1","test","33","","","","","","","",""
"","","","","","","","","","","","html-button-response","271","2.0.0","738196","66461dfd1eb6453139b1db4c","2","50","2716","","","","","","","","","<img src= ""rock_img/I_Gabbro_05.jpg"" style=""width:8cm; height:6cm;""><p>What type of rock is this?</p>","0","class_response","1","test","34","Andesite","Gabbro","05","false","1","4","",""
"","","","","","","","","","","","html-keyboard-response","272","2.0.0","738698","66461dfd1eb6453139b1db4c","2","50","null","","","","","","","","","<p style='font-size: 30px;'><strong>Okay</strong></p>","null","neutral_feedback","1","test","34","","","","","","","",""
"","","","","","","","","","","","html-button-response","273","2.0.0","740412","66461dfd1eb6453139b1db4c","2","50","1709","","","","","","","","","<img src= ""rock_img/I_Gabbro_10.jpg"" style=""width:8cm; height:5.680000000000001cm;""><p>What type of rock is this?</p>","0","class_response","1","test","35","Andesite","Gabbro","10","false","1","4","",""
"","","","","","","","","","","","html-keyboard-response","274","2.0.0","740915","66461dfd1eb6453139b1db4c","2","50","null","","","","","","","","","<p style='font-size: 30px;'><strong>Okay</strong></p>","null","neutral_feedback","1","test","35","","","","","","","",""
"","","","","","","","","","","","html-button-response","275","2.0.0","745588","66461dfd1eb6453139b1db4c","2","50","4668","","","","","","","","","<img src= ""rock_img/I_Andesite_06.jpg"" style=""width:8cm; height:6.840000000000001cm;""><p>What type of rock is this?</p>","0","class_response","1","test","36","Andesite","Andesite","06","true","1","1","",""
"","","","","","","","","","","","html-keyboard-response","276","2.0.0","746092","66461dfd1eb6453139b1db4c","2","50","null","","","","","","","","","<p style='font-size: 30px;'><strong>Okay</strong></p>","null","neutral_feedback","1","test","36","","","","","","","",""
"","","","","","","","","","","","html-button-response","277","2.0.0","748420","66461dfd1eb6453139b1db4c","2","50","2322","","","","","","","","","<img src= ""rock_img/I_Peridotite_12.jpg"" style=""width:8cm; height:4.54cm;""><p>What type of rock is this?</p>","2","class_response","1","test","37","Diorite","Peridotite","12","false","3","7","",""
"","","","","","","","","","","","html-keyboard-response","278","2.0.0","748923","66461dfd1eb6453139b1db4c","2","50","null","","","","","","","","","<p style='font-size: 30px;'><strong>Okay</strong></p>","null","neutral_feedback","1","test","37","","","","","","","",""
"","","","","","","","","","","","html-button-response","279","2.0.0","752052","66461dfd1eb6453139b1db4c","2","50","3123","","","","","","","","","<img src= ""rock_img/I_Pumice_16.jpg"" style=""width:8cm; height:6.79cm;""><p>What type of rock is this?</p>","7","class_response","1","test","38","Pumice","Pumice","16","true","8","8","",""
"","","","","","","","","","","","html-keyboard-response","280","2.0.0","752555","66461dfd1eb6453139b1db4c","2","50","null","","","","","","","","","<p style='font-size: 30px;'><strong>Okay</strong></p>","null","neutral_feedback","1","test","38","","","","","","","",""
"","","","","","","","","","","","html-button-response","281","2.0.0","753554","66461dfd1eb6453139b1db4c","2","50","995","","","","","","","","","<img src= ""rock_img/I_Pumice_04.jpg"" style=""width:8cm; height:6.819999999999999cm;""><p>What type of rock is this?</p>","7","class_response","1","test","39","Pumice","Pumice","04","true","8","8","",""
"","","","","","","","","","","","html-keyboard-response","282","2.0.0","754056","66461dfd1eb6453139b1db4c","2","50","null","","","","","","","","","<p style='font-size: 30px;'><strong>Okay</strong></p>","null","neutral_feedback","1","test","39","","","","","","","",""
"","","","","","","","","","","","html-button-response","283","2.0.0","755812","66461dfd1eb6453139b1db4c","2","50","1753","","","","","","","","","<img src= ""rock_img/I_Pegmatite_07.jpg"" style=""width:8cm; height:6.7cm;""><p>What type of rock is this?</p>","5","class_response","1","test","40","Pegmatite","Pegmatite","07","true","6","6","",""
"","","","","","","","","","","","html-keyboard-response","284","2.0.0","756315","66461dfd1eb6453139b1db4c","2","50","null","","","","","","","","","<p style='font-size: 30px;'><strong>Okay</strong></p>","null","neutral_feedback","1","test","40","","","","","","","",""
"","","","","","","","","","","","html-button-response","285","2.0.0","761291","66461dfd1eb6453139b1db4c","2","50","4972","","","","","","","","","<img src= ""rock_img/I_Basalt_02.jpg"" style=""width:8cm; height:6.45cm;""><p>What type of rock is this?</p>","0","class_response","1","test","41","Andesite","Basalt","02","false","1","2","",""
"","","","","","","","","","","","html-keyboard-response","286","2.0.0","761797","66461dfd1eb6453139b1db4c","2","50","null","","","","","","","","","<p style='font-size: 30px;'><strong>Okay</strong></p>","null","neutral_feedback","1","test","41","","","","","","","",""
"","","","","","","","","","","","html-button-response","287","2.0.0","762988","66461dfd1eb6453139b1db4c","2","50","1187","","","","","","","","","<img src= ""rock_img/I_Pumice_10.jpg"" style=""width:8cm; height:7.609999999999999cm;""><p>What type of rock is this?</p>","7","class_response","1","test","42","Pumice","Pumice","10","true","8","8","",""
"","","","","","","","","","","","html-keyboard-response","288","2.0.0","763492","66461dfd1eb6453139b1db4c","2","50","null","","","","","","","","","<p style='font-size: 30px;'><strong>Okay</strong></p>","null","neutral_feedback","1","test","42","","","","","","","",""
"","","","","","","","","","","","html-button-response","289","2.0.0","764828","66461dfd1eb6453139b1db4c","2","50","1330","","","","","","","","","<img src= ""rock_img/I_Obsidian_02.jpg"" style=""width:8cm; height:7.51cm;""><p>What type of rock is this?</p>","4","class_response","1","test","43","Obsidian","Obsidian","02","true","5","5","",""
"","","","","","","","","","","","html-keyboard-response","290","2.0.0","765331","66461dfd1eb6453139b1db4c","2","50","null","","","","","","","","","<p style='font-size: 30px;'><strong>Okay</strong></p>","null","neutral_feedback","1","test","43","","","","","","","",""
"","","","","","","","","","","","html-button-response","291","2.0.0","767628","66461dfd1eb6453139b1db4c","2","50","2293","","","","","","","","","<img src= ""rock_img/I_Diorite_10.jpg"" style=""width:8cm; height:5.949999999999999cm;""><p>What type of rock is this?</p>","2","class_response","1","test","44","Diorite","Diorite","10","true","3","3","",""
"","","","","","","","","","","","html-keyboard-response","292","2.0.0","768131","66461dfd1eb6453139b1db4c","2","50","null","","","","","","","","","<p style='font-size: 30px;'><strong>Okay</strong></p>","null","neutral_feedback","1","test","44","","","","","","","",""
"","","","","","","","","","","","html-button-response","293","2.0.0","769708","66461dfd1eb6453139b1db4c","2","50","1571","","","","","","","","","<img src= ""rock_img/I_Basalt_09.jpg"" style=""width:8cm; height:6.2cm;""><p>What type of rock is this?</p>","0","class_response","1","test","45","Andesite","Basalt","09","false","1","2","",""
"","","","","","","","","","","","html-keyboard-response","294","2.0.0","770211","66461dfd1eb6453139b1db4c","2","50","null","","","","","","","","","<p style='font-size: 30px;'><strong>Okay</strong></p>","null","neutral_feedback","1","test","45","","","","","","","",""
"","","","","","","","","","","","html-button-response","295","2.0.0","773724","66461dfd1eb6453139b1db4c","2","50","3508","","","","","","","","","<img src= ""rock_img/I_Andesite_10.jpg"" style=""width:8cm; height:4.16cm;""><p>What type of rock is this?</p>","3","class_response","1","test","46","Gabbro","Andesite","10","false","4","1","",""
"","","","","","","","","","","","html-keyboard-response","296","2.0.0","774227","66461dfd1eb6453139b1db4c","2","50","null","","","","","","","","","<p style='font-size: 30px;'><strong>Okay</strong></p>","null","neutral_feedback","1","test","46","","","","","","","",""
"","","","","","","","","","","","html-button-response","297","2.0.0","775596","66461dfd1eb6453139b1db4c","2","50","1363","","","","","","","","","<img src= ""rock_img/I_Basalt_01.jpg"" style=""width:8cm; height:7.880000000000001cm;""><p>What type of rock is this?</p>","0","class_response","1","test","47","Andesite","Basalt","01","false","1","2","",""
"","","","","","","","","","","","html-keyboard-response","298","2.0.0","776099","66461dfd1eb6453139b1db4c","2","50","null","","","","","","","","","<p style='font-size: 30px;'><strong>Okay</strong></p>","null","neutral_feedback","1","test","47","","","","","","","",""
"","","","","","","","","","","","html-button-response","299","2.0.0","778036","66461dfd1eb6453139b1db4c","2","50","1931","","","","","","","","","<img src= ""rock_img/I_Diorite_11.jpg"" style=""width:8cm; height:7.11cm;""><p>What type of rock is this?</p>","2","class_response","1","test","48","Diorite","Diorite","11","true","3","3","",""
"","","","","","","","","","","","html-keyboard-response","300","2.0.0","778539","66461dfd1eb6453139b1db4c","2","50","null","","","","","","","","","<p style='font-size: 30px;'><strong>Okay</strong></p>","null","neutral_feedback","1","test","48","","","","","","","",""
"","","","","","","","","","","","html-button-response","301","2.0.0","797491","66461dfd1eb6453139b1db4c","2","50","","","","","","","","","","","","cycle_feedback","","","","","","","","","","12797.399999976158","6134.5"
"","","","","","","","","","","","html-button-response","303","2.0.0","799635","66461dfd1eb6453139b1db4c","2","50","2140","","","","","","","","","","0","start_train","","","","","","","","","","",""
"","","","","","","","","","","","html-button-response","304","2.0.0","801596","66461dfd1eb6453139b1db4c","2","50","1955","","","","","","","","","<img src= ""rock_img/I_Obsidian_08.jpg"" style=""width:8cm; height:7.39cm;""><p>What type of rock is this?</p>","4","class_response","2","train","1","Obsidian","Obsidian","08","true","5","5","",""
