"width","height","webaudio","browser","browser_version","mobile","os","fullscreen","vsync_rate","webcam","microphone","trial_type","trial_index","plugin_version","time_elapsed","subjID","condition","stimID","rt","url","success","value","timeout","failed_images","failed_audio","failed_video","view_history","stimulus","response","trialType","cycle","phase","trial","resp","cat","token","corr","resp_num","cat_num","time_fb1","time_fb2"
"2176","1063","true","firefox","132.0.0","false","Windows 10","true","59.35","true","false","browser-check","0","2.0.0","1020","67218c211cc126877be706cc","2","7","","","","","","","","","","","","","","","","","","","","","","",""
"","","","","","","","","","","","external-html","1","2.0.0","25342","67218c211cc126877be706cc","2","7","24142","consent_form.html","","","","","","","","","","","","","","","","","","","","",""
"","","","","","","","","","","","fullscreen","2","2.0.0","29352","67218c211cc126877be706cc","2","7","2991","","true","","","","","","","","","","","","","","","","","","","",""
"","","","","","","","","","","","call-function","3","2.0.0","29355","67218c211cc126877be706cc","2","7","","","","{}","","","","","","","","","","","","","","","","","","",""
"","","","","","","","","","","","preload","4","2.0.0","33931","67218c211cc126877be706cc","2","7","","","true","","false","[]","[]","[]","","","","","","","","","","","","","","",""
"","","","","","","","","","","","instructions","5","2.0.0","96187","67218c211cc126877be706cc","2","7","62255","","","","","","","","[{""page_index"":0,""viewing_time"":8627},{""page_index"":1,""viewing_time"":36170},{""page_index"":2,""viewing_time"":17458}]","","","","","","","","","","","","","",""
"","","","","","","","","","","","html-button-response","6","2.0.0","99869","67218c211cc126877be706cc","2","7","3679","","","","","","","","","","0","start_test","","","","","","","","","","",""
"","","","","","","","","","","","html-button-response","7","2.0.0","102997","67218c211cc126877be706cc","2","7","3127","","","","","","","","","<img src= ""rock_img/I_Obsidian_08.jpg"" style=""width:8cm; height:7.39cm;""><p>What type of rock is this?</p>","4","class_response","0","test","1","Obsidian","Obsidian","08","true","5","5","",""
"","","","","","","","","","","","html-keyboard-response","8","2.0.0","103547","67218c211cc126877be706cc","2","7","null","","","","","","","","","<p style='font-size: 30px;'><strong>Okay</strong></p>","null","neutral_feedback","0","test","1","","","","","","","",""
"","","","","","","","","","","","html-button-response","9","2.0.0","108817","67218c211cc126877be706cc","2","7","5267","","","","","","","","","<img src= ""rock_img/I_Obsidian_04.jpg"" style=""width:8cm; height:6.930000000000001cm;""><p>What type of rock is this?</p>","4","class_response","0","test","2","Obsidian","Obsidian","04","true","5","5","",""
"","","","","","","","","","","","html-keyboard-response","10","2.0.0","109339","67218c211cc126877be706cc","2","7","null","","","","","","","","","<p style='font-size: 30px;'><strong>Okay</strong></p>","null","neutral_feedback","0","test","2","","","","","","","",""
"","","","","","","","","","","","html-button-response","11","2.0.0","120731","67218c211cc126877be706cc","2","7","11389","","","","","","","","","<img src= ""rock_img/I_Gabbro_01.jpg"" style=""width:8cm; height:5.21cm;""><p>What type of rock is this?</p>","2","class_response","0","test","3","Diorite","Gabbro","01","false","3","4","",""
"","","","","","","","","","","","html-keyboard-response","12","2.0.0","121235","67218c211cc126877be706cc","2","7","null","","","","","","","","","<p style='font-size: 30px;'><strong>Okay</strong></p>","null","neutral_feedback","0","test","3","","","","","","","",""
"","","","","","","","","","","","html-button-response","13","2.0.0","124716","67218c211cc126877be706cc","2","7","3481","","","","","","","","","<img src= ""rock_img/I_Andesite_06.jpg"" style=""width:8cm; height:6.840000000000001cm;""><p>What type of rock is this?</p>","1","class_response","0","test","4","Basalt","Andesite","06","false","2","1","",""
"","","","","","","","","","","","html-keyboard-response","14","2.0.0","125224","67218c211cc126877be706cc","2","7","null","","","","","","","","","<p style='font-size: 30px;'><strong>Okay</strong></p>","null","neutral_feedback","0","test","4","","","","","","","",""
"","","","","","","","","","","","html-button-response","15","2.0.0","130783","67218c211cc126877be706cc","2","7","5556","","","","","","","","","<img src= ""rock_img/I_Basalt_16.jpg"" style=""width:8cm; height:7.659999999999999cm;""><p>What type of rock is this?</p>","7","class_response","0","test","5","Pumice","Basalt","16","false","8","2","",""
"","","","","","","","","","","","html-keyboard-response","16","2.0.0","131288","67218c211cc126877be706cc","2","7","null","","","","","","","","","<p style='font-size: 30px;'><strong>Okay</strong></p>","null","neutral_feedback","0","test","5","","","","","","","",""
"","","","","","","","","","","","html-button-response","17","2.0.0","133670","67218c211cc126877be706cc","2","7","2380","","","","","","","","","<img src= ""rock_img/I_Peridotite_12.jpg"" style=""width:8cm; height:4.54cm;""><p>What type of rock is this?</p>","6","class_response","0","test","6","Peridotite","Peridotite","12","true","7","7","",""
"","","","","","","","","","","","html-keyboard-response","18","2.0.0","134176","67218c211cc126877be706cc","2","7","null","","","","","","","","","<p style='font-size: 30px;'><strong>Okay</strong></p>","null","neutral_feedback","0","test","6","","","","","","","",""
"","","","","","","","","","","","html-button-response","19","2.0.0","137367","67218c211cc126877be706cc","2","7","3188","","","","","","","","","<img src= ""rock_img/I_Gabbro_08.jpg"" style=""width:8cm; height:5.15cm;""><p>What type of rock is this?</p>","3","class_response","0","test","7","Gabbro","Gabbro","08","true","4","4","",""
"","","","","","","","","","","","html-keyboard-response","20","2.0.0","137879","67218c211cc126877be706cc","2","7","null","","","","","","","","","<p style='font-size: 30px;'><strong>Okay</strong></p>","null","neutral_feedback","0","test","7","","","","","","","",""
"","","","","","","","","","","","html-button-response","21","2.0.0","142368","67218c211cc126877be706cc","2","7","4487","","","","","","","","","<img src= ""rock_img/I_Diorite_11.jpg"" style=""width:8cm; height:7.11cm;""><p>What type of rock is this?</p>","0","class_response","0","test","8","Andesite","Diorite","11","false","1","3","",""
"","","","","","","","","","","","html-keyboard-response","22","2.0.0","142869","67218c211cc126877be706cc","2","7","null","","","","","","","","","<p style='font-size: 30px;'><strong>Okay</strong></p>","null","neutral_feedback","0","test","8","","","","","","","",""
"","","","","","","","","","","","html-button-response","23","2.0.0","144524","67218c211cc126877be706cc","2","7","1653","","","","","","","","","<img src= ""rock_img/I_Obsidian_11.jpg"" style=""width:8cm; height:6.05cm;""><p>What type of rock is this?</p>","4","class_response","0","test","9","Obsidian","Obsidian","11","true","5","5","",""
"","","","","","","","","","","","html-keyboard-response","24","2.0.0","145033","67218c211cc126877be706cc","2","7","null","","","","","","","","","<p style='font-size: 30px;'><strong>Okay</strong></p>","null","neutral_feedback","0","test","9","","","","","","","",""
"","","","","","","","","","","","html-button-response","25","2.0.0","152274","67218c211cc126877be706cc","2","7","7239","","","","","","","","","<img src= ""rock_img/I_Diorite_08.jpg"" style=""width:8cm; height:6.37cm;""><p>What type of rock is this?</p>","5","class_response","0","test","10","Pegmatite","Diorite","08","false","6","3","",""
"","","","","","","","","","","","html-keyboard-response","26","2.0.0","152832","67218c211cc126877be706cc","2","7","null","","","","","","","","","<p style='font-size: 30px;'><strong>Okay</strong></p>","null","neutral_feedback","0","test","10","","","","","","","",""
"","","","","","","","","","","","html-button-response","27","2.0.0","157224","67218c211cc126877be706cc","2","7","4390","","","","","","","","","<img src= ""rock_img/I_Gabbro_13.jpg"" style=""width:8cm; height:5.08cm;""><p>What type of rock is this?</p>","3","class_response","0","test","11","Gabbro","Gabbro","13","true","4","4","",""
"","","","","","","","","","","","html-keyboard-response","28","2.0.0","157728","67218c211cc126877be706cc","2","7","null","","","","","","","","","<p style='font-size: 30px;'><strong>Okay</strong></p>","null","neutral_feedback","0","test","11","","","","","","","",""
"","","","","","","","","","","","html-button-response","29","2.0.0","160153","67218c211cc126877be706cc","2","7","2424","","","","","","","","","<img src= ""rock_img/I_Peridotite_10.jpg"" style=""width:8cm; height:5.390000000000001cm;""><p>What type of rock is this?</p>","6","class_response","0","test","12","Peridotite","Peridotite","10","true","7","7","",""
"","","","","","","","","","","","html-keyboard-response","30","2.0.0","160663","67218c211cc126877be706cc","2","7","null","","","","","","","","","<p style='font-size: 30px;'><strong>Okay</strong></p>","null","neutral_feedback","0","test","12","","","","","","","",""
"","","","","","","","","","","","html-button-response","31","2.0.0","163262","67218c211cc126877be706cc","2","7","2597","","","","","","","","","<img src= ""rock_img/I_Peridotite_14.jpg"" style=""width:8cm; height:5.3cm;""><p>What type of rock is this?</p>","6","class_response","0","test","13","Peridotite","Peridotite","14","true","7","7","",""
"","","","","","","","","","","","html-keyboard-response","32","2.0.0","163772","67218c211cc126877be706cc","2","7","null","","","","","","","","","<p style='font-size: 30px;'><strong>Okay</strong></p>","null","neutral_feedback","0","test","13","","","","","","","",""
"","","","","","","","","","","","html-button-response","33","2.0.0","169283","67218c211cc126877be706cc","2","7","5510","","","","","","","","","<img src= ""rock_img/I_Pumice_03.jpg"" style=""width:8cm; height:6.64cm;""><p>What type of rock is this?</p>","0","class_response","0","test","14","Andesite","Pumice","03","false","1","8","",""
"","","","","","","","","","","","html-keyboard-response","34","2.0.0","169795","67218c211cc126877be706cc","2","7","null","","","","","","","","","<p style='font-size: 30px;'><strong>Okay</strong></p>","null","neutral_feedback","0","test","14","","","","","","","",""
"","","","","","","","","","","","html-button-response","35","2.0.0","173295","67218c211cc126877be706cc","2","7","3499","","","","","","","","","<img src= ""rock_img/I_Diorite_14.jpg"" style=""width:8cm; height:5.71cm;""><p>What type of rock is this?</p>","0","class_response","0","test","15","Andesite","Diorite","14","false","1","3","",""
"","","","","","","","","","","","html-keyboard-response","36","2.0.0","173805","67218c211cc126877be706cc","2","7","null","","","","","","","","","<p style='font-size: 30px;'><strong>Okay</strong></p>","null","neutral_feedback","0","test","15","","","","","","","",""
"","","","","","","","","","","","html-button-response","37","2.0.0","177511","67218c211cc126877be706cc","2","7","3703","","","","","","","","","<img src= ""rock_img/I_Diorite_06.jpg"" style=""width:8cm; height:6.03cm;""><p>What type of rock is this?</p>","7","class_response","0","test","16","Pumice","Diorite","06","false","8","3","",""
"","","","","","","","","","","","html-keyboard-response","38","2.0.0","178047","67218c211cc126877be706cc","2","7","null","","","","","","","","","<p style='font-size: 30px;'><strong>Okay</strong></p>","null","neutral_feedback","0","test","16","","","","","","","",""
"","","","","","","","","","","","html-button-response","39","2.0.0","185685","67218c211cc126877be706cc","2","7","7635","","","","","","","","","<img src= ""rock_img/I_Andesite_14.jpg"" style=""width:8cm; height:5.449999999999999cm;""><p>What type of rock is this?</p>","7","class_response","0","test","17","Pumice","Andesite","14","false","8","1","",""
"","","","","","","","","","","","html-keyboard-response","40","2.0.0","186195","67218c211cc126877be706cc","2","7","null","","","","","","","","","<p style='font-size: 30px;'><strong>Okay</strong></p>","null","neutral_feedback","0","test","17","","","","","","","",""
"","","","","","","","","","","","html-button-response","41","2.0.0","188629","67218c211cc126877be706cc","2","7","2433","","","","","","","","","<img src= ""rock_img/I_Pegmatite_13.jpg"" style=""width:8cm; height:4.95cm;""><p>What type of rock is this?</p>","0","class_response","0","test","18","Andesite","Pegmatite","13","false","1","6","",""
"","","","","","","","","","","","html-keyboard-response","42","2.0.0","189139","67218c211cc126877be706cc","2","7","null","","","","","","","","","<p style='font-size: 30px;'><strong>Okay</strong></p>","null","neutral_feedback","0","test","18","","","","","","","",""
"","","","","","","","","","","","html-button-response","43","2.0.0","190413","67218c211cc126877be706cc","2","7","1273","","","","","","","","","<img src= ""rock_img/I_Peridotite_05.jpg"" style=""width:8cm; height:7.1499999999999995cm;""><p>What type of rock is this?</p>","6","class_response","0","test","19","Peridotite","Peridotite","05","true","7","7","",""
"","","","","","","","","","","","html-keyboard-response","44","2.0.0","190921","67218c211cc126877be706cc","2","7","null","","","","","","","","","<p style='font-size: 30px;'><strong>Okay</strong></p>","null","neutral_feedback","0","test","19","","","","","","","",""
"","","","","","","","","","","","html-button-response","45","2.0.0","193463","67218c211cc126877be706cc","2","7","2541","","","","","","","","","<img src= ""rock_img/I_Basalt_04.jpg"" style=""width:8cm; height:7.53cm;""><p>What type of rock is this?</p>","2","class_response","0","test","20","Diorite","Basalt","04","false","3","2","",""
"","","","","","","","","","","","html-keyboard-response","46","2.0.0","193972","67218c211cc126877be706cc","2","7","null","","","","","","","","","<p style='font-size: 30px;'><strong>Okay</strong></p>","null","neutral_feedback","0","test","20","","","","","","","",""
"","","","","","","","","","","","html-button-response","47","2.0.0","202656","67218c211cc126877be706cc","2","7","8681","","","","","","","","","<img src= ""rock_img/I_Diorite_09.jpg"" style=""width:8cm; height:5.27cm;""><p>What type of rock is this?</p>","0","class_response","0","test","21","Andesite","Diorite","09","false","1","3","",""
"","","","","","","","","","","","html-keyboard-response","48","2.0.0","203167","67218c211cc126877be706cc","2","7","null","","","","","","","","","<p style='font-size: 30px;'><strong>Okay</strong></p>","null","neutral_feedback","0","test","21","","","","","","","",""
"","","","","","","","","","","","html-button-response","49","2.0.0","204991","67218c211cc126877be706cc","2","7","1822","","","","","","","","","<img src= ""rock_img/I_Pumice_15.jpg"" style=""width:8cm; height:7.86cm;""><p>What type of rock is this?</p>","1","class_response","0","test","22","Basalt","Pumice","15","false","2","8","",""
"","","","","","","","","","","","html-keyboard-response","50","2.0.0","205494","67218c211cc126877be706cc","2","7","null","","","","","","","","","<p style='font-size: 30px;'><strong>Okay</strong></p>","null","neutral_feedback","0","test","22","","","","","","","",""
"","","","","","","","","","","","html-button-response","51","2.0.0","209750","67218c211cc126877be706cc","2","7","4254","","","","","","","","","<img src= ""rock_img/I_Pumice_02.jpg"" style=""width:8cm; height:7.3999999999999995cm;""><p>What type of rock is this?</p>","5","class_response","0","test","23","Pegmatite","Pumice","02","false","6","8","",""
"","","","","","","","","","","","html-keyboard-response","52","2.0.0","210258","67218c211cc126877be706cc","2","7","null","","","","","","","","","<p style='font-size: 30px;'><strong>Okay</strong></p>","null","neutral_feedback","0","test","23","","","","","","","",""
"","","","","","","","","","","","html-button-response","53","2.0.0","212054","67218c211cc126877be706cc","2","7","1793","","","","","","","","","<img src= ""rock_img/I_Peridotite_16.jpg"" style=""width:8cm; height:6.989999999999999cm;""><p>What type of rock is this?</p>","6","class_response","0","test","24","Peridotite","Peridotite","16","true","7","7","",""
"","","","","","","","","","","","html-keyboard-response","54","2.0.0","212568","67218c211cc126877be706cc","2","7","null","","","","","","","","","<p style='font-size: 30px;'><strong>Okay</strong></p>","null","neutral_feedback","0","test","24","","","","","","","",""
"","","","","","","","","","","","html-button-response","55","2.0.0","214726","67218c211cc126877be706cc","2","7","2155","","","","","","","","","<img src= ""rock_img/I_Basalt_02.jpg"" style=""width:8cm; height:6.45cm;""><p>What type of rock is this?</p>","5","class_response","0","test","25","Pegmatite","Basalt","02","false","6","2","",""
"","","","","","","","","","","","html-keyboard-response","56","2.0.0","215240","67218c211cc126877be706cc","2","7","null","","","","","","","","","<p style='font-size: 30px;'><strong>Okay</strong></p>","null","neutral_feedback","0","test","25","","","","","","","",""
"","","","","","","","","","","","html-button-response","57","2.0.0","217738","67218c211cc126877be706cc","2","7","2496","","","","","","","","","<img src= ""rock_img/I_Andesite_01.jpg"" style=""width:8cm; height:5.87cm;""><p>What type of rock is this?</p>","1","class_response","0","test","26","Basalt","Andesite","01","false","2","1","",""
"","","","","","","","","","","","html-keyboard-response","58","2.0.0","218241","67218c211cc126877be706cc","2","7","null","","","","","","","","","<p style='font-size: 30px;'><strong>Okay</strong></p>","null","neutral_feedback","0","test","26","","","","","","","",""
"","","","","","","","","","","","html-button-response","59","2.0.0","219821","67218c211cc126877be706cc","2","7","1579","","","","","","","","","<img src= ""rock_img/I_Pegmatite_09.jpg"" style=""width:8cm; height:4.03cm;""><p>What type of rock is this?</p>","6","class_response","0","test","27","Peridotite","Pegmatite","09","false","7","6","",""
"","","","","","","","","","","","html-keyboard-response","60","2.0.0","220329","67218c211cc126877be706cc","2","7","null","","","","","","","","","<p style='font-size: 30px;'><strong>Okay</strong></p>","null","neutral_feedback","0","test","27","","","","","","","",""
"","","","","","","","","","","","html-button-response","61","2.0.0","223232","67218c211cc126877be706cc","2","7","2902","","","","","","","","","<img src= ""rock_img/I_Pumice_04.jpg"" style=""width:8cm; height:6.819999999999999cm;""><p>What type of rock is this?</p>","1","class_response","0","test","28","Basalt","Pumice","04","false","2","8","",""
"","","","","","","","","","","","html-keyboard-response","62","2.0.0","223735","67218c211cc126877be706cc","2","7","null","","","","","","","","","<p style='font-size: 30px;'><strong>Okay</strong></p>","null","neutral_feedback","0","test","28","","","","","","","",""
"","","","","","","","","","","","html-button-response","63","2.0.0","229658","67218c211cc126877be706cc","2","7","5920","","","","","","","","","<img src= ""rock_img/I_Andesite_05.jpg"" style=""width:8cm; height:4.12cm;""><p>What type of rock is this?</p>","1","class_response","0","test","29","Basalt","Andesite","05","false","2","1","",""
"","","","","","","","","","","","html-keyboard-response","64","2.0.0","230160","67218c211cc126877be706cc","2","7","null","","","","","","","","","<p style='font-size: 30px;'><strong>Okay</strong></p>","null","neutral_feedback","0","test","29","","","","","","","",""
"","","","","","","","","","","","html-button-response","65","2.0.0","231789","67218c211cc126877be706cc","2","7","1628","","","","","","","","","<img src= ""rock_img/I_Basalt_01.jpg"" style=""width:8cm; height:7.880000000000001cm;""><p>What type of rock is this?</p>","5","class_response","0","test","30","Pegmatite","Basalt","01","false","6","2","",""
"","","","","","","","","","","","html-keyboard-response","66","2.0.0","232301","67218c211cc126877be706cc","2","7","null","","","","","","","","","<p style='font-size: 30px;'><strong>Okay</strong></p>","null","neutral_feedback","0","test","30","","","","","","","",""
"","","","","","","","","","","","html-button-response","67","2.0.0","233696","67218c211cc126877be706cc","2","7","1392","","","","","","","","","<img src= ""rock_img/I_Diorite_13.jpg"" style=""width:8cm; height:6.29cm;""><p>What type of rock is this?</p>","0","class_response","0","test","31","Andesite","Diorite","13","false","1","3","",""
"","","","","","","","","","","","html-keyboard-response","68","2.0.0","234202","67218c211cc126877be706cc","2","7","null","","","","","","","","","<p style='font-size: 30px;'><strong>Okay</strong></p>","null","neutral_feedback","0","test","31","","","","","","","",""
"","","","","","","","","","","","html-button-response","69","2.0.0","236202","67218c211cc126877be706cc","2","7","2000","","","","","","","","","<img src= ""rock_img/I_Obsidian_12.jpg"" style=""width:8cm; height:6.53cm;""><p>What type of rock is this?</p>","4","class_response","0","test","32","Obsidian","Obsidian","12","true","5","5","",""
"","","","","","","","","","","","html-keyboard-response","70","2.0.0","236716","67218c211cc126877be706cc","2","7","null","","","","","","","","","<p style='font-size: 30px;'><strong>Okay</strong></p>","null","neutral_feedback","0","test","32","","","","","","","",""
"","","","","","","","","","","","html-button-response","71","2.0.0","243224","67218c211cc126877be706cc","2","7","6506","","","","","","","","","<img src= ""rock_img/I_Pumice_08.jpg"" style=""width:8cm; height:6.67cm;""><p>What type of rock is this?</p>","1","class_response","0","test","33","Basalt","Pumice","08","false","2","8","",""
"","","","","","","","","","","","html-keyboard-response","72","2.0.0","243789","67218c211cc126877be706cc","2","7","null","","","","","","","","","<p style='font-size: 30px;'><strong>Okay</strong></p>","null","neutral_feedback","0","test","33","","","","","","","",""
"","","","","","","","","","","","html-button-response","73","2.0.0","245407","67218c211cc126877be706cc","2","7","1616","","","","","","","","","<img src= ""rock_img/I_Basalt_12.jpg"" style=""width:8cm; height:6.010000000000001cm;""><p>What type of rock is this?</p>","1","class_response","0","test","34","Basalt","Basalt","12","true","2","2","",""
"","","","","","","","","","","","html-keyboard-response","74","2.0.0","245911","67218c211cc126877be706cc","2","7","null","","","","","","","","","<p style='font-size: 30px;'><strong>Okay</strong></p>","null","neutral_feedback","0","test","34","","","","","","","",""
"","","","","","","","","","","","html-button-response","75","2.0.0","249631","67218c211cc126877be706cc","2","7","3717","","","","","","","","","<img src= ""rock_img/I_Gabbro_09.jpg"" style=""width:8cm; height:7.279999999999999cm;""><p>What type of rock is this?</p>","7","class_response","0","test","35","Pumice","Gabbro","09","false","8","4","",""
"","","","","","","","","","","","html-keyboard-response","76","2.0.0","250140","67218c211cc126877be706cc","2","7","null","","","","","","","","","<p style='font-size: 30px;'><strong>Okay</strong></p>","null","neutral_feedback","0","test","35","","","","","","","",""
"","","","","","","","","","","","html-button-response","77","2.0.0","251354","67218c211cc126877be706cc","2","7","1213","","","","","","","","","<img src= ""rock_img/I_Pumice_09.jpg"" style=""width:8cm; height:6.44cm;""><p>What type of rock is this?</p>","2","class_response","0","test","36","Diorite","Pumice","09","false","3","8","",""
"","","","","","","","","","","","html-keyboard-response","78","2.0.0","251869","67218c211cc126877be706cc","2","7","null","","","","","","","","","<p style='font-size: 30px;'><strong>Okay</strong></p>","null","neutral_feedback","0","test","36","","","","","","","",""
"","","","","","","","","","","","html-button-response","79","2.0.0","253201","67218c211cc126877be706cc","2","7","1330","","","","","","","","","<img src= ""rock_img/I_Peridotite_02.jpg"" style=""width:8cm; height:5.859999999999999cm;""><p>What type of rock is this?</p>","6","class_response","0","test","37","Peridotite","Peridotite","02","true","7","7","",""
"","","","","","","","","","","","html-keyboard-response","80","2.0.0","253707","67218c211cc126877be706cc","2","7","null","","","","","","","","","<p style='font-size: 30px;'><strong>Okay</strong></p>","null","neutral_feedback","0","test","37","","","","","","","",""
"","","","","","","","","","","","html-button-response","81","2.0.0","255726","67218c211cc126877be706cc","2","7","2018","","","","","","","","","<img src= ""rock_img/I_Andesite_09.jpg"" style=""width:8cm; height:6cm;""><p>What type of rock is this?</p>","1","class_response","0","test","38","Basalt","Andesite","09","false","2","1","",""
"","","","","","","","","","","","html-keyboard-response","82","2.0.0","256235","67218c211cc126877be706cc","2","7","null","","","","","","","","","<p style='font-size: 30px;'><strong>Okay</strong></p>","null","neutral_feedback","0","test","38","","","","","","","",""
"","","","","","","","","","","","html-button-response","83","2.0.0","257380","67218c211cc126877be706cc","2","7","1145","","","","","","","","","<img src= ""rock_img/I_Obsidian_09.jpg"" style=""width:8cm; height:5cm;""><p>What type of rock is this?</p>","4","class_response","0","test","39","Obsidian","Obsidian","09","true","5","5","",""
"","","","","","","","","","","","html-keyboard-response","84","2.0.0","257883","67218c211cc126877be706cc","2","7","null","","","","","","","","","<p style='font-size: 30px;'><strong>Okay</strong></p>","null","neutral_feedback","0","test","39","","","","","","","",""
"","","","","","","","","","","","html-button-response","85","2.0.0","259932","67218c211cc126877be706cc","2","7","2047","","","","","","","","","<img src= ""rock_img/I_Pegmatite_05.jpg"" style=""width:8cm; height:7.300000000000001cm;""><p>What type of rock is this?</p>","0","class_response","0","test","40","Andesite","Pegmatite","05","false","1","6","",""
"","","","","","","","","","","","html-keyboard-response","86","2.0.0","260434","67218c211cc126877be706cc","2","7","null","","","","","","","","","<p style='font-size: 30px;'><strong>Okay</strong></p>","null","neutral_feedback","0","test","40","","","","","","","",""
"","","","","","","","","","","","html-button-response","87","2.0.0","265979","67218c211cc126877be706cc","2","7","5543","","","","","","","","","<img src= ""rock_img/I_Pegmatite_11.jpg"" style=""width:8cm; height:8.14cm;""><p>What type of rock is this?</p>","4","class_response","0","test","41","Obsidian","Pegmatite","11","false","5","6","",""
"","","","","","","","","","","","html-keyboard-response","88","2.0.0","266482","67218c211cc126877be706cc","2","7","null","","","","","","","","","<p style='font-size: 30px;'><strong>Okay</strong></p>","null","neutral_feedback","0","test","41","","","","","","","",""
"","","","","","","","","","","","html-button-response","89","2.0.0","267488","67218c211cc126877be706cc","2","7","1006","","","","","","","","","<img src= ""rock_img/I_Obsidian_16.jpg"" style=""width:8cm; height:9.3cm;""><p>What type of rock is this?</p>","4","class_response","0","test","42","Obsidian","Obsidian","16","true","5","5","",""
"","","","","","","","","","","","html-keyboard-response","90","2.0.0","268036","67218c211cc126877be706cc","2","7","null","","","","","","","","","<p style='font-size: 30px;'><strong>Okay</strong></p>","null","neutral_feedback","0","test","42","","","","","","","",""
"","","","","","","","","","","","html-button-response","91","2.0.0","272320","67218c211cc126877be706cc","2","7","4284","","","","","","","","","<img src= ""rock_img/I_Pegmatite_16.jpg"" style=""width:8cm; height:5.8cm;""><p>What type of rock is this?</p>","2","class_response","0","test","43","Diorite","Pegmatite","16","false","3","6","",""
"","","","","","","","","","","","html-keyboard-response","92","2.0.0","272825","67218c211cc126877be706cc","2","7","null","","","","","","","","","<p style='font-size: 30px;'><strong>Okay</strong></p>","null","neutral_feedback","0","test","43","","","","","","","",""
"","","","","","","","","","","","html-button-response","93","2.0.0","274620","67218c211cc126877be706cc","2","7","1794","","","","","","","","","<img src= ""rock_img/I_Basalt_06.jpg"" style=""width:8cm; height:7.06cm;""><p>What type of rock is this?</p>","1","class_response","0","test","44","Basalt","Basalt","06","true","2","2","",""
"","","","","","","","","","","","html-keyboard-response","94","2.0.0","275135","67218c211cc126877be706cc","2","7","null","","","","","","","","","<p style='font-size: 30px;'><strong>Okay</strong></p>","null","neutral_feedback","0","test","44","","","","","","","",""
"","","","","","","","","","","","html-button-response","95","2.0.0","276642","67218c211cc126877be706cc","2","7","1506","","","","","","","","","<img src= ""rock_img/I_Andesite_16.jpg"" style=""width:8cm; height:6.010000000000001cm;""><p>What type of rock is this?</p>","1","class_response","0","test","45","Basalt","Andesite","16","false","2","1","",""
"","","","","","","","","","","","html-keyboard-response","96","2.0.0","277146","67218c211cc126877be706cc","2","7","null","","","","","","","","","<p style='font-size: 30px;'><strong>Okay</strong></p>","null","neutral_feedback","0","test","45","","","","","","","",""
"","","","","","","","","","","","html-button-response","97","2.0.0","281036","67218c211cc126877be706cc","2","7","3888","","","","","","","","","<img src= ""rock_img/I_Gabbro_15.jpg"" style=""width:8cm; height:6.29cm;""><p>What type of rock is this?</p>","3","class_response","0","test","46","Gabbro","Gabbro","15","true","4","4","",""
"","","","","","","","","","","","html-keyboard-response","98","2.0.0","281541","67218c211cc126877be706cc","2","7","null","","","","","","","","","<p style='font-size: 30px;'><strong>Okay</strong></p>","null","neutral_feedback","0","test","46","","","","","","","",""
"","","","","","","","","","","","html-button-response","99","2.0.0","284664","67218c211cc126877be706cc","2","7","3120","","","","","","","","","<img src= ""rock_img/I_Gabbro_03.jpg"" style=""width:8cm; height:8.52cm;""><p>What type of rock is this?</p>","7","class_response","0","test","47","Pumice","Gabbro","03","false","8","4","",""
"","","","","","","","","","","","html-keyboard-response","100","2.0.0","285167","67218c211cc126877be706cc","2","7","null","","","","","","","","","<p style='font-size: 30px;'><strong>Okay</strong></p>","null","neutral_feedback","0","test","47","","","","","","","",""
"","","","","","","","","","","","html-button-response","101","2.0.0","288425","67218c211cc126877be706cc","2","7","3258","","","","","","","","","<img src= ""rock_img/I_Pegmatite_07.jpg"" style=""width:8cm; height:6.7cm;""><p>What type of rock is this?</p>","7","class_response","0","test","48","Pumice","Pegmatite","07","false","8","6","",""
"","","","","","","","","","","","html-keyboard-response","102","2.0.0","288930","67218c211cc126877be706cc","2","7","null","","","","","","","","","<p style='font-size: 30px;'><strong>Okay</strong></p>","null","neutral_feedback","0","test","48","","","","","","","",""
"","","","","","","","","","","","instructions","103","2.0.0","328631","67218c211cc126877be706cc","2","7","39689","","","","","","","","[{""page_index"":0,""viewing_time"":24020},{""page_index"":1,""viewing_time"":10972},{""page_index"":2,""viewing_time"":4697}]","","","","","","","","","","","","","",""
"","","","","","","","","","","","html-button-response","104","2.0.0","331490","67218c211cc126877be706cc","2","7","2857","","","","","","","","","","0","start_train","","","","","","","","","","",""
"","","","","","","","","","","","html-button-response","105","2.0.0","334688","67218c211cc126877be706cc","2","7","3197","","","","","","","","","<img src= ""rock_img/I_Andesite_03.jpg"" style=""width:8cm; height:5.73cm;""><p>What type of rock is this?</p>","1","class_response","1","train","1","Basalt","Andesite","03","false","2","1","",""
"","","","","","","","","","","","html-button-response","106","2.0.0","340209","67218c211cc126877be706cc","2","7","5520","","","","","","","","","<img src= rock_img/I_Andesite_03.jpg style=""width:8cm; height:5.73cm;""><p style='font-size: 30px; color: red;'><strong>Incorrect!</strong></p><p style='font-size: 30px;'><strong>This rock is andesite</strong></p>","0","corr_feedback","1","train","1","","","","","","","",""
"","","","","","","","","","","","html-button-response","107","2.0.0","342636","67218c211cc126877be706cc","2","7","2425","","","","","","","","","<img src= ""rock_img/I_Pumice_14.jpg"" style=""width:8cm; height:6.39cm;""><p>What type of rock is this?</p>","2","class_response","1","train","2","Diorite","Pumice","14","false","3","8","",""
"","","","","","","","","","","","html-button-response","108","2.0.0","346180","67218c211cc126877be706cc","2","7","3543","","","","","","","","","<img src= rock_img/I_Pumice_14.jpg style=""width:8cm; height:6.39cm;""><p style='font-size: 30px; color: red;'><strong>Incorrect!</strong></p><p style='font-size: 30px;'><strong>This rock is pumice</strong></p>","0","corr_feedback","1","train","2","","","","","","","",""
"","","","","","","","","","","","html-button-response","109","2.0.0","349824","67218c211cc126877be706cc","2","7","3642","","","","","","","","","<img src= ""rock_img/I_Gabbro_16.jpg"" style=""width:8cm; height:6.44cm;""><p>What type of rock is this?</p>","1","class_response","1","train","3","Basalt","Gabbro","16","false","2","4","",""
"","","","","","","","","","","","html-button-response","110","2.0.0","351399","67218c211cc126877be706cc","2","7","1574","","","","","","","","","<img src= rock_img/I_Gabbro_16.jpg style=""width:8cm; height:6.44cm;""><p style='font-size: 30px; color: red;'><strong>Incorrect!</strong></p><p style='font-size: 30px;'><strong>This rock is gabbro</strong></p>","0","corr_feedback","1","train","3","","","","","","","",""
"","","","","","","","","","","","html-button-response","111","2.0.0","355062","67218c211cc126877be706cc","2","7","3663","","","","","","","","","<img src= ""rock_img/I_Andesite_11.jpg"" style=""width:8cm; height:4.92cm;""><p>What type of rock is this?</p>","0","class_response","1","train","4","Andesite","Andesite","11","true","1","1","",""
"","","","","","","","","","","","html-button-response","112","2.0.0","356595","67218c211cc126877be706cc","2","7","1531","","","","","","","","","<img src= rock_img/I_Andesite_11.jpg style=""width:8cm; height:4.92cm;""><p style='font-size: 30px; color: green;'><strong>Correct!</strong></p><p style='font-size: 30px;'><strong>This rock is andesite</strong></p>","0","corr_feedback","1","train","4","","","","","","","",""
"","","","","","","","","","","","html-button-response","113","2.0.0","358972","67218c211cc126877be706cc","2","7","2376","","","","","","","","","<img src= ""rock_img/I_Pegmatite_06.jpg"" style=""width:8cm; height:5.17cm;""><p>What type of rock is this?</p>","3","class_response","1","train","5","Gabbro","Pegmatite","06","false","4","6","",""
"","","","","","","","","","","","html-button-response","114","2.0.0","360654","67218c211cc126877be706cc","2","7","1681","","","","","","","","","<img src= rock_img/I_Pegmatite_06.jpg style=""width:8cm; height:5.17cm;""><p style='font-size: 30px; color: red;'><strong>Incorrect!</strong></p><p style='font-size: 30px;'><strong>This rock is pegmatite</strong></p>","0","corr_feedback","1","train","5","","","","","","","",""
"","","","","","","","","","","","html-button-response","115","2.0.0","364658","67218c211cc126877be706cc","2","7","4003","","","","","","","","","<img src= ""rock_img/I_Pumice_05.jpg"" style=""width:8cm; height:7.25cm;""><p>What type of rock is this?</p>","7","class_response","1","train","6","Pumice","Pumice","05","true","8","8","",""
"","","","","","","","","","","","html-button-response","116","2.0.0","365694","67218c211cc126877be706cc","2","7","1035","","","","","","","","","<img src= rock_img/I_Pumice_05.jpg style=""width:8cm; height:7.25cm;""><p style='font-size: 30px; color: green;'><strong>Correct!</strong></p><p style='font-size: 30px;'><strong>This rock is pumice</strong></p>","0","corr_feedback","1","train","6","","","","","","","",""
"","","","","","","","","","","","html-button-response","117","2.0.0","367805","67218c211cc126877be706cc","2","7","2109","","","","","","","","","<img src= ""rock_img/I_Pegmatite_15.jpg"" style=""width:8cm; height:6cm;""><p>What type of rock is this?</p>","5","class_response","1","train","7","Pegmatite","Pegmatite","15","true","6","6","",""
"","","","","","","","","","","","html-button-response","118","2.0.0","368595","67218c211cc126877be706cc","2","7","790","","","","","","","","","<img src= rock_img/I_Pegmatite_15.jpg style=""width:8cm; height:6cm;""><p style='font-size: 30px; color: green;'><strong>Correct!</strong></p><p style='font-size: 30px;'><strong>This rock is pegmatite</strong></p>","0","corr_feedback","1","train","7","","","","","","","",""
"","","","","","","","","","","","html-button-response","119","2.0.0","372045","67218c211cc126877be706cc","2","7","3449","","","","","","","","","<img src= ""rock_img/I_Basalt_05.jpg"" style=""width:8cm; height:8.18cm;""><p>What type of rock is this?</p>","2","class_response","1","train","8","Diorite","Basalt","05","false","3","2","",""
"","","","","","","","","","","","html-button-response","120","2.0.0","373040","67218c211cc126877be706cc","2","7","992","","","","","","","","","<img src= rock_img/I_Basalt_05.jpg style=""width:8cm; height:8.18cm;""><p style='font-size: 30px; color: red;'><strong>Incorrect!</strong></p><p style='font-size: 30px;'><strong>This rock is basalt</strong></p>","0","corr_feedback","1","train","8","","","","","","","",""
"","","","","","","","","","","","html-button-response","121","2.0.0","375280","67218c211cc126877be706cc","2","7","2239","","","","","","","","","<img src= ""rock_img/I_Diorite_10.jpg"" style=""width:8cm; height:5.949999999999999cm;""><p>What type of rock is this?</p>","2","class_response","1","train","9","Diorite","Diorite","10","true","3","3","",""
"","","","","","","","","","","","html-button-response","122","2.0.0","376326","67218c211cc126877be706cc","2","7","1044","","","","","","","","","<img src= rock_img/I_Diorite_10.jpg style=""width:8cm; height:5.949999999999999cm;""><p style='font-size: 30px; color: green;'><strong>Correct!</strong></p><p style='font-size: 30px;'><strong>This rock is diorite</strong></p>","0","corr_feedback","1","train","9","","","","","","","",""
"","","","","","","","","","","","html-button-response","123","2.0.0","377531","67218c211cc126877be706cc","2","7","1204","","","","","","","","","<img src= ""rock_img/I_Diorite_02.jpg"" style=""width:8cm; height:6.27cm;""><p>What type of rock is this?</p>","2","class_response","1","train","10","Diorite","Diorite","02","true","3","3","",""
"","","","","","","","","","","","html-button-response","124","2.0.0","378107","67218c211cc126877be706cc","2","7","574","","","","","","","","","<img src= rock_img/I_Diorite_02.jpg style=""width:8cm; height:6.27cm;""><p style='font-size: 30px; color: green;'><strong>Correct!</strong></p><p style='font-size: 30px;'><strong>This rock is diorite</strong></p>","0","corr_feedback","1","train","10","","","","","","","",""
"","","","","","","","","","","","html-button-response","125","2.0.0","379145","67218c211cc126877be706cc","2","7","1038","","","","","","","","","<img src= ""rock_img/I_Basalt_14.jpg"" style=""width:8cm; height:5.82cm;""><p>What type of rock is this?</p>","1","class_response","1","train","11","Basalt","Basalt","14","true","2","2","",""
"","","","","","","","","","","","html-button-response","126","2.0.0","379854","67218c211cc126877be706cc","2","7","706","","","","","","","","","<img src= rock_img/I_Basalt_14.jpg style=""width:8cm; height:5.82cm;""><p style='font-size: 30px; color: green;'><strong>Correct!</strong></p><p style='font-size: 30px;'><strong>This rock is basalt</strong></p>","0","corr_feedback","1","train","11","","","","","","","",""
"","","","","","","","","","","","html-button-response","127","2.0.0","382157","67218c211cc126877be706cc","2","7","2303","","","","","","","","","<img src= ""rock_img/I_Pegmatite_08.jpg"" style=""width:8cm; height:7.68cm;""><p>What type of rock is this?</p>","5","class_response","1","train","12","Pegmatite","Pegmatite","08","true","6","6","",""
"","","","","","","","","","","","html-button-response","128","2.0.0","382835","67218c211cc126877be706cc","2","7","676","","","","","","","","","<img src= rock_img/I_Pegmatite_08.jpg style=""width:8cm; height:7.68cm;""><p style='font-size: 30px; color: green;'><strong>Correct!</strong></p><p style='font-size: 30px;'><strong>This rock is pegmatite</strong></p>","0","corr_feedback","1","train","12","","","","","","","",""
"","","","","","","","","","","","html-button-response","129","2.0.0","385711","67218c211cc126877be706cc","2","7","2875","","","","","","","","","<img src= ""rock_img/I_Diorite_15.jpg"" style=""width:8cm; height:5.54cm;""><p>What type of rock is this?</p>","5","class_response","1","train","13","Pegmatite","Diorite","15","false","6","3","",""
"","","","","","","","","","","","html-button-response","130","2.0.0","387002","67218c211cc126877be706cc","2","7","1291","","","","","","","","","<img src= rock_img/I_Diorite_15.jpg style=""width:8cm; height:5.54cm;""><p style='font-size: 30px; color: red;'><strong>Incorrect!</strong></p><p style='font-size: 30px;'><strong>This rock is diorite</strong></p>","0","corr_feedback","1","train","13","","","","","","","",""
"","","","","","","","","","","","html-button-response","131","2.0.0","388056","67218c211cc126877be706cc","2","7","1053","","","","","","","","","<img src= ""rock_img/I_Peridotite_15.jpg"" style=""width:8cm; height:6cm;""><p>What type of rock is this?</p>","6","class_response","1","train","14","Peridotite","Peridotite","15","true","7","7","",""
"","","","","","","","","","","","html-button-response","132","2.0.0","388790","67218c211cc126877be706cc","2","7","733","","","","","","","","","<img src= rock_img/I_Peridotite_15.jpg style=""width:8cm; height:6cm;""><p style='font-size: 30px; color: green;'><strong>Correct!</strong></p><p style='font-size: 30px;'><strong>This rock is peridotite</strong></p>","0","corr_feedback","1","train","14","","","","","","","",""
"","","","","","","","","","","","html-button-response","133","2.0.0","390077","67218c211cc126877be706cc","2","7","1286","","","","","","","","","<img src= ""rock_img/I_Diorite_07.jpg"" style=""width:8cm; height:5.239999999999999cm;""><p>What type of rock is this?</p>","2","class_response","1","train","15","Diorite","Diorite","07","true","3","3","",""
"","","","","","","","","","","","html-button-response","134","2.0.0","390695","67218c211cc126877be706cc","2","7","617","","","","","","","","","<img src= rock_img/I_Diorite_07.jpg style=""width:8cm; height:5.239999999999999cm;""><p style='font-size: 30px; color: green;'><strong>Correct!</strong></p><p style='font-size: 30px;'><strong>This rock is diorite</strong></p>","0","corr_feedback","1","train","15","","","","","","","",""
"","","","","","","","","","","","html-button-response","135","2.0.0","392073","67218c211cc126877be706cc","2","7","1377","","","","","","","","","<img src= ""rock_img/I_Obsidian_05.jpg"" style=""width:8cm; height:6.33cm;""><p>What type of rock is this?</p>","4","class_response","1","train","16","Obsidian","Obsidian","05","true","5","5","",""
"","","","","","","","","","","","html-button-response","136","2.0.0","392831","67218c211cc126877be706cc","2","7","757","","","","","","","","","<img src= rock_img/I_Obsidian_05.jpg style=""width:8cm; height:6.33cm;""><p style='font-size: 30px; color: green;'><strong>Correct!</strong></p><p style='font-size: 30px;'><strong>This rock is obsidian</strong></p>","0","corr_feedback","1","train","16","","","","","","","",""
"","","","","","","","","","","","html-button-response","137","2.0.0","394724","67218c211cc126877be706cc","2","7","1892","","","","","","","","","<img src= ""rock_img/I_Pumice_06.jpg"" style=""width:8cm; height:6.9399999999999995cm;""><p>What type of rock is this?</p>","3","class_response","1","train","17","Gabbro","Pumice","06","false","4","8","",""
"","","","","","","","","","","","html-button-response","138","2.0.0","395841","67218c211cc126877be706cc","2","7","1116","","","","","","","","","<img src= rock_img/I_Pumice_06.jpg style=""width:8cm; height:6.9399999999999995cm;""><p style='font-size: 30px; color: red;'><strong>Incorrect!</strong></p><p style='font-size: 30px;'><strong>This rock is pumice</strong></p>","0","corr_feedback","1","train","17","","","","","","","",""
"","","","","","","","","","","","html-button-response","139","2.0.0","398139","67218c211cc126877be706cc","2","7","2297","","","","","","","","","<img src= ""rock_img/I_Diorite_02.jpg"" style=""width:8cm; height:6.27cm;""><p>What type of rock is this?</p>","2","class_response","1","train","18","Diorite","Diorite","02","true","3","3","",""
"","","","","","","","","","","","html-button-response","140","2.0.0","398773","67218c211cc126877be706cc","2","7","632","","","","","","","","","<img src= rock_img/I_Diorite_02.jpg style=""width:8cm; height:6.27cm;""><p style='font-size: 30px; color: green;'><strong>Correct!</strong></p><p style='font-size: 30px;'><strong>This rock is diorite</strong></p>","0","corr_feedback","1","train","18","","","","","","","",""
"","","","","","","","","","","","html-button-response","141","2.0.0","400505","67218c211cc126877be706cc","2","7","1733","","","","","","","","","<img src= ""rock_img/I_Basalt_10.jpg"" style=""width:8cm; height:5.85cm;""><p>What type of rock is this?</p>","5","class_response","1","train","19","Pegmatite","Basalt","10","false","6","2","",""
"","","","","","","","","","","","html-button-response","142","2.0.0","401424","67218c211cc126877be706cc","2","7","917","","","","","","","","","<img src= rock_img/I_Basalt_10.jpg style=""width:8cm; height:5.85cm;""><p style='font-size: 30px; color: red;'><strong>Incorrect!</strong></p><p style='font-size: 30px;'><strong>This rock is basalt</strong></p>","0","corr_feedback","1","train","19","","","","","","","",""
"","","","","","","","","","","","html-button-response","143","2.0.0","402568","67218c211cc126877be706cc","2","7","1143","","","","","","","","","<img src= ""rock_img/I_Basalt_11.jpg"" style=""width:8cm; height:5.359999999999999cm;""><p>What type of rock is this?</p>","1","class_response","1","train","20","Basalt","Basalt","11","true","2","2","",""
"","","","","","","","","","","","html-button-response","144","2.0.0","403128","67218c211cc126877be706cc","2","7","558","","","","","","","","","<img src= rock_img/I_Basalt_11.jpg style=""width:8cm; height:5.359999999999999cm;""><p style='font-size: 30px; color: green;'><strong>Correct!</strong></p><p style='font-size: 30px;'><strong>This rock is basalt</strong></p>","0","corr_feedback","1","train","20","","","","","","","",""
"","","","","","","","","","","","html-button-response","145","2.0.0","405922","67218c211cc126877be706cc","2","7","2793","","","","","","","","","<img src= ""rock_img/I_Pumice_13.jpg"" style=""width:8cm; height:8.200000000000001cm;""><p>What type of rock is this?</p>","7","class_response","1","train","21","Pumice","Pumice","13","true","8","8","",""
"","","","","","","","","","","","html-button-response","146","2.0.0","406805","67218c211cc126877be706cc","2","7","882","","","","","","","","","<img src= rock_img/I_Pumice_13.jpg style=""width:8cm; height:8.200000000000001cm;""><p style='font-size: 30px; color: green;'><strong>Correct!</strong></p><p style='font-size: 30px;'><strong>This rock is pumice</strong></p>","0","corr_feedback","1","train","21","","","","","","","",""
"","","","","","","","","","","","html-button-response","147","2.0.0","408123","67218c211cc126877be706cc","2","7","1317","","","","","","","","","<img src= ""rock_img/I_Diorite_16.jpg"" style=""width:8cm; height:6.74cm;""><p>What type of rock is this?</p>","2","class_response","1","train","22","Diorite","Diorite","16","true","3","3","",""
"","","","","","","","","","","","html-button-response","148","2.0.0","408659","67218c211cc126877be706cc","2","7","535","","","","","","","","","<img src= rock_img/I_Diorite_16.jpg style=""width:8cm; height:6.74cm;""><p style='font-size: 30px; color: green;'><strong>Correct!</strong></p><p style='font-size: 30px;'><strong>This rock is diorite</strong></p>","0","corr_feedback","1","train","22","","","","","","","",""
"","","","","","","","","","","","html-button-response","149","2.0.0","410089","67218c211cc126877be706cc","2","7","1430","","","","","","","","","<img src= ""rock_img/I_Pumice_13.jpg"" style=""width:8cm; height:8.200000000000001cm;""><p>What type of rock is this?</p>","7","class_response","1","train","23","Pumice","Pumice","13","true","8","8","",""
"","","","","","","","","","","","html-button-response","150","2.0.0","410683","67218c211cc126877be706cc","2","7","593","","","","","","","","","<img src= rock_img/I_Pumice_13.jpg style=""width:8cm; height:8.200000000000001cm;""><p style='font-size: 30px; color: green;'><strong>Correct!</strong></p><p style='font-size: 30px;'><strong>This rock is pumice</strong></p>","0","corr_feedback","1","train","23","","","","","","","",""
"","","","","","","","","","","","html-button-response","151","2.0.0","413132","67218c211cc126877be706cc","2","7","2447","","","","","","","","","<img src= ""rock_img/I_Andesite_10.jpg"" style=""width:8cm; height:4.16cm;""><p>What type of rock is this?</p>","1","class_response","1","train","24","Basalt","Andesite","10","false","2","1","",""
"","","","","","","","","","","","html-button-response","152","2.0.0","414058","67218c211cc126877be706cc","2","7","925","","","","","","","","","<img src= rock_img/I_Andesite_10.jpg style=""width:8cm; height:4.16cm;""><p style='font-size: 30px; color: red;'><strong>Incorrect!</strong></p><p style='font-size: 30px;'><strong>This rock is andesite</strong></p>","0","corr_feedback","1","train","24","","","","","","","",""
"","","","","","","","","","","","html-button-response","153","2.0.0","416004","67218c211cc126877be706cc","2","7","1943","","","","","","","","","<img src= ""rock_img/I_Andesite_07.jpg"" style=""width:8cm; height:5.93cm;""><p>What type of rock is this?</p>","0","class_response","1","train","25","Andesite","Andesite","07","true","1","1","",""
"","","","","","","","","","","","html-button-response","154","2.0.0","416745","67218c211cc126877be706cc","2","7","740","","","","","","","","","<img src= rock_img/I_Andesite_07.jpg style=""width:8cm; height:5.93cm;""><p style='font-size: 30px; color: green;'><strong>Correct!</strong></p><p style='font-size: 30px;'><strong>This rock is andesite</strong></p>","0","corr_feedback","1","train","25","","","","","","","",""
"","","","","","","","","","","","html-button-response","155","2.0.0","418169","67218c211cc126877be706cc","2","7","1423","","","","","","","","","<img src= ""rock_img/I_Pumice_14.jpg"" style=""width:8cm; height:6.39cm;""><p>What type of rock is this?</p>","7","class_response","1","train","26","Pumice","Pumice","14","true","8","8","",""
"","","","","","","","","","","","html-button-response","156","2.0.0","418735","67218c211cc126877be706cc","2","7","565","","","","","","","","","<img src= rock_img/I_Pumice_14.jpg style=""width:8cm; height:6.39cm;""><p style='font-size: 30px; color: green;'><strong>Correct!</strong></p><p style='font-size: 30px;'><strong>This rock is pumice</strong></p>","0","corr_feedback","1","train","26","","","","","","","",""
"","","","","","","","","","","","html-button-response","157","2.0.0","420766","67218c211cc126877be706cc","2","7","2029","","","","","","","","","<img src= ""rock_img/I_Pumice_10.jpg"" style=""width:8cm; height:7.609999999999999cm;""><p>What type of rock is this?</p>","6","class_response","1","train","27","Peridotite","Pumice","10","false","7","8","",""
"","","","","","","","","","","","html-button-response","158","2.0.0","421735","67218c211cc126877be706cc","2","7","967","","","","","","","","","<img src= rock_img/I_Pumice_10.jpg style=""width:8cm; height:7.609999999999999cm;""><p style='font-size: 30px; color: red;'><strong>Incorrect!</strong></p><p style='font-size: 30px;'><strong>This rock is pumice</strong></p>","0","corr_feedback","1","train","27","","","","","","","",""
"","","","","","","","","","","","html-button-response","159","2.0.0","423048","67218c211cc126877be706cc","2","7","1313","","","","","","","","","<img src= ""rock_img/I_Diorite_12.jpg"" style=""width:8cm; height:4.88cm;""><p>What type of rock is this?</p>","2","class_response","1","train","28","Diorite","Diorite","12","true","3","3","",""
"","","","","","","","","","","","html-button-response","160","2.0.0","423898","67218c211cc126877be706cc","2","7","849","","","","","","","","","<img src= rock_img/I_Diorite_12.jpg style=""width:8cm; height:4.88cm;""><p style='font-size: 30px; color: green;'><strong>Correct!</strong></p><p style='font-size: 30px;'><strong>This rock is diorite</strong></p>","0","corr_feedback","1","train","28","","","","","","","",""
"","","","","","","","","","","","html-button-response","161","2.0.0","425374","67218c211cc126877be706cc","2","7","1474","","","","","","","","","<img src= ""rock_img/I_Pegmatite_15.jpg"" style=""width:8cm; height:6cm;""><p>What type of rock is this?</p>","5","class_response","1","train","29","Pegmatite","Pegmatite","15","true","6","6","",""
"","","","","","","","","","","","html-button-response","162","2.0.0","425869","67218c211cc126877be706cc","2","7","494","","","","","","","","","<img src= rock_img/I_Pegmatite_15.jpg style=""width:8cm; height:6cm;""><p style='font-size: 30px; color: green;'><strong>Correct!</strong></p><p style='font-size: 30px;'><strong>This rock is pegmatite</strong></p>","0","corr_feedback","1","train","29","","","","","","","",""
"","","","","","","","","","","","html-button-response","163","2.0.0","427606","67218c211cc126877be706cc","2","7","1736","","","","","","","","","<img src= ""rock_img/I_Andesite_10.jpg"" style=""width:8cm; height:4.16cm;""><p>What type of rock is this?</p>","0","class_response","1","train","30","Andesite","Andesite","10","true","1","1","",""
"","","","","","","","","","","","html-button-response","164","2.0.0","428268","67218c211cc126877be706cc","2","7","658","","","","","","","","","<img src= rock_img/I_Andesite_10.jpg style=""width:8cm; height:4.16cm;""><p style='font-size: 30px; color: green;'><strong>Correct!</strong></p><p style='font-size: 30px;'><strong>This rock is andesite</strong></p>","0","corr_feedback","1","train","30","","","","","","","",""
"","","","","","","","","","","","html-button-response","165","2.0.0","430714","67218c211cc126877be706cc","2","7","2443","","","","","","","","","<img src= ""rock_img/I_Pumice_16.jpg"" style=""width:8cm; height:6.79cm;""><p>What type of rock is this?</p>","7","class_response","1","train","31","Pumice","Pumice","16","true","8","8","",""
"","","","","","","","","","","","html-button-response","166","2.0.0","431457","67218c211cc126877be706cc","2","7","740","","","","","","","","","<img src= rock_img/I_Pumice_16.jpg style=""width:8cm; height:6.79cm;""><p style='font-size: 30px; color: green;'><strong>Correct!</strong></p><p style='font-size: 30px;'><strong>This rock is pumice</strong></p>","0","corr_feedback","1","train","31","","","","","","","",""
"","","","","","","","","","","","html-button-response","167","2.0.0","436109","67218c211cc126877be706cc","2","7","4652","","","","","","","","","<img src= ""rock_img/I_Andesite_04.jpg"" style=""width:8cm; height:5.96cm;""><p>What type of rock is this?</p>","5","class_response","1","train","32","Pegmatite","Andesite","04","false","6","1","",""
"","","","","","","","","","","","html-button-response","168","2.0.0","436860","67218c211cc126877be706cc","2","7","750","","","","","","","","","<img src= rock_img/I_Andesite_04.jpg style=""width:8cm; height:5.96cm;""><p style='font-size: 30px; color: red;'><strong>Incorrect!</strong></p><p style='font-size: 30px;'><strong>This rock is andesite</strong></p>","0","corr_feedback","1","train","32","","","","","","","",""
"","","","","","","","","","","","html-button-response","169","2.0.0","438442","67218c211cc126877be706cc","2","7","1580","","","","","","","","","<img src= ""rock_img/I_Pegmatite_12.jpg"" style=""width:8cm; height:5.7cm;""><p>What type of rock is this?</p>","2","class_response","1","train","33","Diorite","Pegmatite","12","false","3","6","",""
"","","","","","","","","","","","html-button-response","170","2.0.0","440341","67218c211cc126877be706cc","2","7","1897","","","","","","","","","<img src= rock_img/I_Pegmatite_12.jpg style=""width:8cm; height:5.7cm;""><p style='font-size: 30px; color: red;'><strong>Incorrect!</strong></p><p style='font-size: 30px;'><strong>This rock is pegmatite</strong></p>","0","corr_feedback","1","train","33","","","","","","","",""
"","","","","","","","","","","","html-button-response","171","2.0.0","441603","67218c211cc126877be706cc","2","7","1261","","","","","","","","","<img src= ""rock_img/I_Pegmatite_03.jpg"" style=""width:8cm; height:5.239999999999999cm;""><p>What type of rock is this?</p>","6","class_response","1","train","34","Peridotite","Pegmatite","03","false","7","6","",""
"","","","","","","","","","","","html-button-response","172","2.0.0","444602","67218c211cc126877be706cc","2","7","2998","","","","","","","","","<img src= rock_img/I_Pegmatite_03.jpg style=""width:8cm; height:5.239999999999999cm;""><p style='font-size: 30px; color: red;'><strong>Incorrect!</strong></p><p style='font-size: 30px;'><strong>This rock is pegmatite</strong></p>","0","corr_feedback","1","train","34","","","","","","","",""
"","","","","","","","","","","","html-button-response","173","2.0.0","445832","67218c211cc126877be706cc","2","7","1229","","","","","","","","","<img src= ""rock_img/I_Diorite_15.jpg"" style=""width:8cm; height:5.54cm;""><p>What type of rock is this?</p>","2","class_response","1","train","35","Diorite","Diorite","15","true","3","3","",""
"","","","","","","","","","","","html-button-response","174","2.0.0","446446","67218c211cc126877be706cc","2","7","614","","","","","","","","","<img src= rock_img/I_Diorite_15.jpg style=""width:8cm; height:5.54cm;""><p style='font-size: 30px; color: green;'><strong>Correct!</strong></p><p style='font-size: 30px;'><strong>This rock is diorite</strong></p>","0","corr_feedback","1","train","35","","","","","","","",""
"","","","","","","","","","","","html-button-response","175","2.0.0","448942","67218c211cc126877be706cc","2","7","2493","","","","","","","","","<img src= ""rock_img/I_Diorite_10.jpg"" style=""width:8cm; height:5.949999999999999cm;""><p>What type of rock is this?</p>","2","class_response","1","train","36","Diorite","Diorite","10","true","3","3","",""
"","","","","","","","","","","","html-button-response","176","2.0.0","449480","67218c211cc126877be706cc","2","7","537","","","","","","","","","<img src= rock_img/I_Diorite_10.jpg style=""width:8cm; height:5.949999999999999cm;""><p style='font-size: 30px; color: green;'><strong>Correct!</strong></p><p style='font-size: 30px;'><strong>This rock is diorite</strong></p>","0","corr_feedback","1","train","36","","","","","","","",""
"","","","","","","","","","","","html-button-response","177","2.0.0","451712","67218c211cc126877be706cc","2","7","2231","","","","","","","","","<img src= ""rock_img/I_Pegmatite_12.jpg"" style=""width:8cm; height:5.7cm;""><p>What type of rock is this?</p>","5","class_response","1","train","37","Pegmatite","Pegmatite","12","true","6","6","",""
"","","","","","","","","","","","html-button-response","178","2.0.0","452315","67218c211cc126877be706cc","2","7","602","","","","","","","","","<img src= rock_img/I_Pegmatite_12.jpg style=""width:8cm; height:5.7cm;""><p style='font-size: 30px; color: green;'><strong>Correct!</strong></p><p style='font-size: 30px;'><strong>This rock is pegmatite</strong></p>","0","corr_feedback","1","train","37","","","","","","","",""
"","","","","","","","","","","","html-button-response","179","2.0.0","454910","67218c211cc126877be706cc","2","7","2593","","","","","","","","","<img src= ""rock_img/I_Andesite_02.jpg"" style=""width:8cm; height:8.5cm;""><p>What type of rock is this?</p>","0","class_response","1","train","38","Andesite","Andesite","02","true","1","1","",""
"","","","","","","","","","","","html-button-response","180","2.0.0","455841","67218c211cc126877be706cc","2","7","930","","","","","","","","","<img src= rock_img/I_Andesite_02.jpg style=""width:8cm; height:8.5cm;""><p style='font-size: 30px; color: green;'><strong>Correct!</strong></p><p style='font-size: 30px;'><strong>This rock is andesite</strong></p>","0","corr_feedback","1","train","38","","","","","","","",""
"","","","","","","","","","","","html-button-response","181","2.0.0","458042","67218c211cc126877be706cc","2","7","2200","","","","","","","","","<img src= ""rock_img/I_Andesite_11.jpg"" style=""width:8cm; height:4.92cm;""><p>What type of rock is this?</p>","0","class_response","1","train","39","Andesite","Andesite","11","true","1","1","",""
"","","","","","","","","","","","html-button-response","182","2.0.0","458697","67218c211cc126877be706cc","2","7","653","","","","","","","","","<img src= rock_img/I_Andesite_11.jpg style=""width:8cm; height:4.92cm;""><p style='font-size: 30px; color: green;'><strong>Correct!</strong></p><p style='font-size: 30px;'><strong>This rock is andesite</strong></p>","0","corr_feedback","1","train","39","","","","","","","",""
"","","","","","","","","","","","html-button-response","183","2.0.0","459987","67218c211cc126877be706cc","2","7","1289","","","","","","","","","<img src= ""rock_img/I_Gabbro_11.jpg"" style=""width:8cm; height:6.2cm;""><p>What type of rock is this?</p>","1","class_response","1","train","40","Basalt","Gabbro","11","false","2","4","",""
"","","","","","","","","","","","html-button-response","184","2.0.0","462196","67218c211cc126877be706cc","2","7","2209","","","","","","","","","<img src= rock_img/I_Gabbro_11.jpg style=""width:8cm; height:6.2cm;""><p style='font-size: 30px; color: red;'><strong>Incorrect!</strong></p><p style='font-size: 30px;'><strong>This rock is gabbro</strong></p>","0","corr_feedback","1","train","40","","","","","","","",""
"","","","","","","","","","","","html-button-response","185","2.0.0","463480","67218c211cc126877be706cc","2","7","1283","","","","","","","","","<img src= ""rock_img/I_Pegmatite_10.jpg"" style=""width:8cm; height:4.16cm;""><p>What type of rock is this?</p>","6","class_response","1","train","41","Peridotite","Pegmatite","10","false","7","6","",""
"","","","","","","","","","","","html-button-response","186","2.0.0","466884","67218c211cc126877be706cc","2","7","3403","","","","","","","","","<img src= rock_img/I_Pegmatite_10.jpg style=""width:8cm; height:4.16cm;""><p style='font-size: 30px; color: red;'><strong>Incorrect!</strong></p><p style='font-size: 30px;'><strong>This rock is pegmatite</strong></p>","0","corr_feedback","1","train","41","","","","","","","",""
"","","","","","","","","","","","html-button-response","187","2.0.0","468847","67218c211cc126877be706cc","2","7","1961","","","","","","","","","<img src= ""rock_img/I_Gabbro_14.jpg"" style=""width:8cm; height:8.48cm;""><p>What type of rock is this?</p>","1","class_response","1","train","42","Basalt","Gabbro","14","false","2","4","",""
"","","","","","","","","","","","html-button-response","188","2.0.0","469730","67218c211cc126877be706cc","2","7","881","","","","","","","","","<img src= rock_img/I_Gabbro_14.jpg style=""width:8cm; height:8.48cm;""><p style='font-size: 30px; color: red;'><strong>Incorrect!</strong></p><p style='font-size: 30px;'><strong>This rock is gabbro</strong></p>","0","corr_feedback","1","train","42","","","","","","","",""
"","","","","","","","","","","","html-button-response","189","2.0.0","472066","67218c211cc126877be706cc","2","7","2337","","","","","","","","","<img src= ""rock_img/I_Basalt_14.jpg"" style=""width:8cm; height:5.82cm;""><p>What type of rock is this?</p>","3","class_response","1","train","43","Gabbro","Basalt","14","false","4","2","",""
"","","","","","","","","","","","html-button-response","190","2.0.0","473053","67218c211cc126877be706cc","2","7","985","","","","","","","","","<img src= rock_img/I_Basalt_14.jpg style=""width:8cm; height:5.82cm;""><p style='font-size: 30px; color: red;'><strong>Incorrect!</strong></p><p style='font-size: 30px;'><strong>This rock is basalt</strong></p>","0","corr_feedback","1","train","43","","","","","","","",""
"","","","","","","","","","","","html-button-response","191","2.0.0","477109","67218c211cc126877be706cc","2","7","4055","","","","","","","","","<img src= ""rock_img/I_Basalt_09.jpg"" style=""width:8cm; height:6.2cm;""><p>What type of rock is this?</p>","0","class_response","1","train","44","Andesite","Basalt","09","false","1","2","",""
"","","","","","","","","","","","html-button-response","192","2.0.0","478053","67218c211cc126877be706cc","2","7","941","","","","","","","","","<img src= rock_img/I_Basalt_09.jpg style=""width:8cm; height:6.2cm;""><p style='font-size: 30px; color: red;'><strong>Incorrect!</strong></p><p style='font-size: 30px;'><strong>This rock is basalt</strong></p>","0","corr_feedback","1","train","44","","","","","","","",""
"","","","","","","","","","","","html-button-response","193","2.0.0","479412","67218c211cc126877be706cc","2","7","1358","","","","","","","","","<img src= ""rock_img/I_Basalt_08.jpg"" style=""width:8cm; height:10.44cm;""><p>What type of rock is this?</p>","1","class_response","1","train","45","Basalt","Basalt","08","true","2","2","",""
"","","","","","","","","","","","html-button-response","194","2.0.0","480071","67218c211cc126877be706cc","2","7","657","","","","","","","","","<img src= rock_img/I_Basalt_08.jpg style=""width:8cm; height:10.44cm;""><p style='font-size: 30px; color: green;'><strong>Correct!</strong></p><p style='font-size: 30px;'><strong>This rock is basalt</strong></p>","0","corr_feedback","1","train","45","","","","","","","",""
"","","","","","","","","","","","html-button-response","195","2.0.0","485478","67218c211cc126877be706cc","2","7","5407","","","","","","","","","<img src= ""rock_img/I_Pumice_10.jpg"" style=""width:8cm; height:7.609999999999999cm;""><p>What type of rock is this?</p>","5","class_response","1","train","46","Pegmatite","Pumice","10","false","6","8","",""
"","","","","","","","","","","","html-button-response","196","2.0.0","486482","67218c211cc126877be706cc","2","7","1001","","","","","","","","","<img src= rock_img/I_Pumice_10.jpg style=""width:8cm; height:7.609999999999999cm;""><p style='font-size: 30px; color: red;'><strong>Incorrect!</strong></p><p style='font-size: 30px;'><strong>This rock is pumice</strong></p>","0","corr_feedback","1","train","46","","","","","","","",""
"","","","","","","","","","","","html-button-response","197","2.0.0","488290","67218c211cc126877be706cc","2","7","1805","","","","","","","","","<img src= ""rock_img/I_Gabbro_10.jpg"" style=""width:8cm; height:5.680000000000001cm;""><p>What type of rock is this?</p>","1","class_response","1","train","47","Basalt","Gabbro","10","false","2","4","",""
"","","","","","","","","","","","html-button-response","198","2.0.0","488964","67218c211cc126877be706cc","2","7","673","","","","","","","","","<img src= rock_img/I_Gabbro_10.jpg style=""width:8cm; height:5.680000000000001cm;""><p style='font-size: 30px; color: red;'><strong>Incorrect!</strong></p><p style='font-size: 30px;'><strong>This rock is gabbro</strong></p>","0","corr_feedback","1","train","47","","","","","","","",""
"","","","","","","","","","","","html-button-response","199","2.0.0","490063","67218c211cc126877be706cc","2","7","1098","","","","","","","","","<img src= ""rock_img/I_Andesite_07.jpg"" style=""width:8cm; height:5.93cm;""><p>What type of rock is this?</p>","2","class_response","1","train","48","Diorite","Andesite","07","false","3","1","",""
"","","","","","","","","","","","html-button-response","200","2.0.0","490743","67218c211cc126877be706cc","2","7","678","","","","","","","","","<img src= rock_img/I_Andesite_07.jpg style=""width:8cm; height:5.93cm;""><p style='font-size: 30px; color: red;'><strong>Incorrect!</strong></p><p style='font-size: 30px;'><strong>This rock is andesite</strong></p>","0","corr_feedback","1","train","48","","","","","","","",""
"","","","","","","","","","","","instructions","203","2.0.0","509053","67218c211cc126877be706cc","2","7","18310","","","","","","","","[{""page_index"":0,""viewing_time"":5136},{""page_index"":1,""viewing_time"":13174}]","","","","","","","","","","","","","",""
"","","","","","","","","","","","html-button-response","204","2.0.0","511480","67218c211cc126877be706cc","2","7","2426","","","","","","","","","","0","start_test","","","","","","","","","","",""
"","","","","","","","","","","","html-button-response","205","2.0.0","513678","67218c211cc126877be706cc","2","7","2196","","","","","","","","","<img src= ""rock_img/I_Diorite_06.jpg"" style=""width:8cm; height:6.03cm;""><p>What type of rock is this?</p>","2","class_response","1","test","1","Diorite","Diorite","06","true","3","3","",""
"","","","","","","","","","","","html-keyboard-response","206","2.0.0","514179","67218c211cc126877be706cc","2","7","null","","","","","","","","","<p style='font-size: 30px;'><strong>Okay</strong></p>","null","neutral_feedback","1","test","1","","","","","","","",""
"","","","","","","","","","","","html-button-response","207","2.0.0","524005","67218c211cc126877be706cc","2","7","9824","","","","","","","","","<img src= ""rock_img/I_Pegmatite_11.jpg"" style=""width:8cm; height:8.14cm;""><p>What type of rock is this?</p>","5","class_response","1","test","2","Pegmatite","Pegmatite","11","true","6","6","",""
"","","","","","","","","","","","html-keyboard-response","208","2.0.0","524522","67218c211cc126877be706cc","2","7","null","","","","","","","","","<p style='font-size: 30px;'><strong>Okay</strong></p>","null","neutral_feedback","1","test","2","","","","","","","",""
"","","","","","","","","","","","html-button-response","209","2.0.0","530675","67218c211cc126877be706cc","2","7","6152","","","","","","","","","<img src= ""rock_img/I_Basalt_12.jpg"" style=""width:8cm; height:6.010000000000001cm;""><p>What type of rock is this?</p>","0","class_response","1","test","3","Andesite","Basalt","12","false","1","2","",""
"","","","","","","","","","","","html-keyboard-response","210","2.0.0","531179","67218c211cc126877be706cc","2","7","null","","","","","","","","","<p style='font-size: 30px;'><strong>Okay</strong></p>","null","neutral_feedback","1","test","3","","","","","","","",""
"","","","","","","","","","","","html-button-response","211","2.0.0","533316","67218c211cc126877be706cc","2","7","2136","","","","","","","","","<img src= ""rock_img/I_Pegmatite_07.jpg"" style=""width:8cm; height:6.7cm;""><p>What type of rock is this?</p>","5","class_response","1","test","4","Pegmatite","Pegmatite","07","true","6","6","",""
"","","","","","","","","","","","html-keyboard-response","212","2.0.0","533832","67218c211cc126877be706cc","2","7","null","","","","","","","","","<p style='font-size: 30px;'><strong>Okay</strong></p>","null","neutral_feedback","1","test","4","","","","","","","",""
"","","","","","","","","","","","html-button-response","213","2.0.0","535468","67218c211cc126877be706cc","2","7","1635","","","","","","","","","<img src= ""rock_img/I_Andesite_06.jpg"" style=""width:8cm; height:6.840000000000001cm;""><p>What type of rock is this?</p>","2","class_response","1","test","5","Diorite","Andesite","06","false","3","1","",""
"","","","","","","","","","","","html-keyboard-response","214","2.0.0","535983","67218c211cc126877be706cc","2","7","null","","","","","","","","","<p style='font-size: 30px;'><strong>Okay</strong></p>","null","neutral_feedback","1","test","5","","","","","","","",""
"","","","","","","","","","","","html-button-response","215","2.0.0","537120","67218c211cc126877be706cc","2","7","1137","","","","","","","","","<img src= ""rock_img/I_Obsidian_08.jpg"" style=""width:8cm; height:7.39cm;""><p>What type of rock is this?</p>","4","class_response","1","test","6","Obsidian","Obsidian","08","true","5","5","",""
"","","","","","","","","","","","html-keyboard-response","216","2.0.0","537634","67218c211cc126877be706cc","2","7","null","","","","","","","","","<p style='font-size: 30px;'><strong>Okay</strong></p>","null","neutral_feedback","1","test","6","","","","","","","",""
"","","","","","","","","","","","html-button-response","217","2.0.0","540426","67218c211cc126877be706cc","2","7","2791","","","","","","","","","<img src= ""rock_img/I_Peridotite_12.jpg"" style=""width:8cm; height:4.54cm;""><p>What type of rock is this?</p>","6","class_response","1","test","7","Peridotite","Peridotite","12","true","7","7","",""
"","","","","","","","","","","","html-keyboard-response","218","2.0.0","540930","67218c211cc126877be706cc","2","7","null","","","","","","","","","<p style='font-size: 30px;'><strong>Okay</strong></p>","null","neutral_feedback","1","test","7","","","","","","","",""
"","","","","","","","","","","","html-button-response","219","2.0.0","544232","67218c211cc126877be706cc","2","7","3300","","","","","","","","","<img src= ""rock_img/I_Pegmatite_13.jpg"" style=""width:8cm; height:4.95cm;""><p>What type of rock is this?</p>","5","class_response","1","test","8","Pegmatite","Pegmatite","13","true","6","6","",""
"","","","","","","","","","","","html-keyboard-response","220","2.0.0","544748","67218c211cc126877be706cc","2","7","null","","","","","","","","","<p style='font-size: 30px;'><strong>Okay</strong></p>","null","neutral_feedback","1","test","8","","","","","","","",""
"","","","","","","","","","","","html-button-response","221","2.0.0","545837","67218c211cc126877be706cc","2","7","1087","","","","","","","","","<img src= ""rock_img/I_Diorite_08.jpg"" style=""width:8cm; height:6.37cm;""><p>What type of rock is this?</p>","2","class_response","1","test","9","Diorite","Diorite","08","true","3","3","",""
"","","","","","","","","","","","html-keyboard-response","222","2.0.0","546348","67218c211cc126877be706cc","2","7","null","","","","","","","","","<p style='font-size: 30px;'><strong>Okay</strong></p>","null","neutral_feedback","1","test","9","","","","","","","",""
"","","","","","","","","","","","html-button-response","223","2.0.0","551448","67218c211cc126877be706cc","2","7","5097","","","","","","","","","<img src= ""rock_img/I_Pumice_08.jpg"" style=""width:8cm; height:6.67cm;""><p>What type of rock is this?</p>","1","class_response","1","test","10","Basalt","Pumice","08","false","2","8","",""
"","","","","","","","","","","","html-keyboard-response","224","2.0.0","551955","67218c211cc126877be706cc","2","7","null","","","","","","","","","<p style='font-size: 30px;'><strong>Okay</strong></p>","null","neutral_feedback","1","test","10","","","","","","","",""
"","","","","","","","","","","","html-button-response","225","2.0.0","554473","67218c211cc126877be706cc","2","7","2517","","","","","","","","","<img src= ""rock_img/I_Andesite_09.jpg"" style=""width:8cm; height:6cm;""><p>What type of rock is this?</p>","0","class_response","1","test","11","Andesite","Andesite","09","true","1","1","",""
"","","","","","","","","","","","html-keyboard-response","226","2.0.0","555022","67218c211cc126877be706cc","2","7","null","","","","","","","","","<p style='font-size: 30px;'><strong>Okay</strong></p>","null","neutral_feedback","1","test","11","","","","","","","",""
"","","","","","","","","","","","html-button-response","227","2.0.0","559897","67218c211cc126877be706cc","2","7","4874","","","","","","","","","<img src= ""rock_img/I_Basalt_16.jpg"" style=""width:8cm; height:7.659999999999999cm;""><p>What type of rock is this?</p>","3","class_response","1","test","12","Gabbro","Basalt","16","false","4","2","",""
"","","","","","","","","","","","html-keyboard-response","228","2.0.0","560402","67218c211cc126877be706cc","2","7","null","","","","","","","","","<p style='font-size: 30px;'><strong>Okay</strong></p>","null","neutral_feedback","1","test","12","","","","","","","",""
"","","","","","","","","","","","html-button-response","229","2.0.0","561471","67218c211cc126877be706cc","2","7","1068","","","","","","","","","<img src= ""rock_img/I_Diorite_13.jpg"" style=""width:8cm; height:6.29cm;""><p>What type of rock is this?</p>","2","class_response","1","test","13","Diorite","Diorite","13","true","3","3","",""
"","","","","","","","","","","","html-keyboard-response","230","2.0.0","562009","67218c211cc126877be706cc","2","7","null","","","","","","","","","<p style='font-size: 30px;'><strong>Okay</strong></p>","null","neutral_feedback","1","test","13","","","","","","","",""
"","","","","","","","","","","","html-button-response","231","2.0.0","563170","67218c211cc126877be706cc","2","7","1158","","","","","","","","","<img src= ""rock_img/I_Obsidian_11.jpg"" style=""width:8cm; height:6.05cm;""><p>What type of rock is this?</p>","4","class_response","1","test","14","Obsidian","Obsidian","11","true","5","5","",""
"","","","","","","","","","","","html-keyboard-response","232","2.0.0","563675","67218c211cc126877be706cc","2","7","null","","","","","","","","","<p style='font-size: 30px;'><strong>Okay</strong></p>","null","neutral_feedback","1","test","14","","","","","","","",""
"","","","","","","","","","","","html-button-response","233","2.0.0","565500","67218c211cc126877be706cc","2","7","1824","","","","","","","","","<img src= ""rock_img/I_Diorite_09.jpg"" style=""width:8cm; height:5.27cm;""><p>What type of rock is this?</p>","2","class_response","1","test","15","Diorite","Diorite","09","true","3","3","",""
"","","","","","","","","","","","html-keyboard-response","234","2.0.0","566046","67218c211cc126877be706cc","2","7","null","","","","","","","","","<p style='font-size: 30px;'><strong>Okay</strong></p>","null","neutral_feedback","1","test","15","","","","","","","",""
"","","","","","","","","","","","html-button-response","235","2.0.0","569405","67218c211cc126877be706cc","2","7","3359","","","","","","","","","<img src= ""rock_img/I_Gabbro_13.jpg"" style=""width:8cm; height:5.08cm;""><p>What type of rock is this?</p>","2","class_response","1","test","16","Diorite","Gabbro","13","false","3","4","",""
"","","","","","","","","","","","html-keyboard-response","236","2.0.0","569917","67218c211cc126877be706cc","2","7","null","","","","","","","","","<p style='font-size: 30px;'><strong>Okay</strong></p>","null","neutral_feedback","1","test","16","","","","","","","",""
"","","","","","","","","","","","html-button-response","237","2.0.0","571794","67218c211cc126877be706cc","2","7","1875","","","","","","","","","<img src= ""rock_img/I_Basalt_06.jpg"" style=""width:8cm; height:7.06cm;""><p>What type of rock is this?</p>","1","class_response","1","test","17","Basalt","Basalt","06","true","2","2","",""
"","","","","","","","","","","","html-keyboard-response","238","2.0.0","572321","67218c211cc126877be706cc","2","7","null","","","","","","","","","<p style='font-size: 30px;'><strong>Okay</strong></p>","null","neutral_feedback","1","test","17","","","","","","","",""
"","","","","","","","","","","","html-button-response","239","2.0.0","575880","67218c211cc126877be706cc","2","7","3559","","","","","","","","","<img src= ""rock_img/I_Pegmatite_16.jpg"" style=""width:8cm; height:5.8cm;""><p>What type of rock is this?</p>","5","class_response","1","test","18","Pegmatite","Pegmatite","16","true","6","6","",""
"","","","","","","","","","","","html-keyboard-response","240","2.0.0","576406","67218c211cc126877be706cc","2","7","null","","","","","","","","","<p style='font-size: 30px;'><strong>Okay</strong></p>","null","neutral_feedback","1","test","18","","","","","","","",""
"","","","","","","","","","","","html-button-response","241","2.0.0","577872","67218c211cc126877be706cc","2","7","1464","","","","","","","","","<img src= ""rock_img/I_Basalt_01.jpg"" style=""width:8cm; height:7.880000000000001cm;""><p>What type of rock is this?</p>","1","class_response","1","test","19","Basalt","Basalt","01","true","2","2","",""
"","","","","","","","","","","","html-keyboard-response","242","2.0.0","578386","67218c211cc126877be706cc","2","7","null","","","","","","","","","<p style='font-size: 30px;'><strong>Okay</strong></p>","null","neutral_feedback","1","test","19","","","","","","","",""
"","","","","","","","","","","","html-button-response","243","2.0.0","581571","67218c211cc126877be706cc","2","7","3182","","","","","","","","","<img src= ""rock_img/I_Andesite_01.jpg"" style=""width:8cm; height:5.87cm;""><p>What type of rock is this?</p>","2","class_response","1","test","20","Diorite","Andesite","01","false","3","1","",""
"","","","","","","","","","","","html-keyboard-response","244","2.0.0","582082","67218c211cc126877be706cc","2","7","null","","","","","","","","","<p style='font-size: 30px;'><strong>Okay</strong></p>","null","neutral_feedback","1","test","20","","","","","","","",""
"","","","","","","","","","","","html-button-response","245","2.0.0","589681","67218c211cc126877be706cc","2","7","7598","","","","","","","","","<img src= ""rock_img/I_Pumice_04.jpg"" style=""width:8cm; height:6.819999999999999cm;""><p>What type of rock is this?</p>","7","class_response","1","test","21","Pumice","Pumice","04","true","8","8","",""
"","","","","","","","","","","","html-keyboard-response","246","2.0.0","590190","67218c211cc126877be706cc","2","7","null","","","","","","","","","<p style='font-size: 30px;'><strong>Okay</strong></p>","null","neutral_feedback","1","test","21","","","","","","","",""
"","","","","","","","","","","","html-button-response","247","2.0.0","591530","67218c211cc126877be706cc","2","7","1340","","","","","","","","","<img src= ""rock_img/I_Gabbro_03.jpg"" style=""width:8cm; height:8.52cm;""><p>What type of rock is this?</p>","2","class_response","1","test","22","Diorite","Gabbro","03","false","3","4","",""
"","","","","","","","","","","","html-keyboard-response","248","2.0.0","592044","67218c211cc126877be706cc","2","7","null","","","","","","","","","<p style='font-size: 30px;'><strong>Okay</strong></p>","null","neutral_feedback","1","test","22","","","","","","","",""
"","","","","","","","","","","","html-button-response","249","2.0.0","594037","67218c211cc126877be706cc","2","7","1991","","","","","","","","","<img src= ""rock_img/I_Peridotite_05.jpg"" style=""width:8cm; height:7.1499999999999995cm;""><p>What type of rock is this?</p>","6","class_response","1","test","23","Peridotite","Peridotite","05","true","7","7","",""
"","","","","","","","","","","","html-keyboard-response","250","2.0.0","594544","67218c211cc126877be706cc","2","7","null","","","","","","","","","<p style='font-size: 30px;'><strong>Okay</strong></p>","null","neutral_feedback","1","test","23","","","","","","","",""
"","","","","","","","","","","","html-button-response","251","2.0.0","595899","67218c211cc126877be706cc","2","7","1353","","","","","","","","","<img src= ""rock_img/I_Diorite_14.jpg"" style=""width:8cm; height:5.71cm;""><p>What type of rock is this?</p>","2","class_response","1","test","24","Diorite","Diorite","14","true","3","3","",""
"","","","","","","","","","","","html-keyboard-response","252","2.0.0","596412","67218c211cc126877be706cc","2","7","null","","","","","","","","","<p style='font-size: 30px;'><strong>Okay</strong></p>","null","neutral_feedback","1","test","24","","","","","","","",""
"","","","","","","","","","","","html-button-response","253","2.0.0","607195","67218c211cc126877be706cc","2","7","10781","","","","","","","","","<img src= ""rock_img/I_Gabbro_09.jpg"" style=""width:8cm; height:7.279999999999999cm;""><p>What type of rock is this?</p>","0","class_response","1","test","25","Andesite","Gabbro","09","false","1","4","",""
"","","","","","","","","","","","html-keyboard-response","254","2.0.0","607712","67218c211cc126877be706cc","2","7","null","","","","","","","","","<p style='font-size: 30px;'><strong>Okay</strong></p>","null","neutral_feedback","1","test","25","","","","","","","",""
"","","","","","","","","","","","html-button-response","255","2.0.0","611581","67218c211cc126877be706cc","2","7","3867","","","","","","","","","<img src= ""rock_img/I_Pegmatite_05.jpg"" style=""width:8cm; height:7.300000000000001cm;""><p>What type of rock is this?</p>","2","class_response","1","test","26","Diorite","Pegmatite","05","false","3","6","",""
"","","","","","","","","","","","html-keyboard-response","256","2.0.0","612083","67218c211cc126877be706cc","2","7","null","","","","","","","","","<p style='font-size: 30px;'><strong>Okay</strong></p>","null","neutral_feedback","1","test","26","","","","","","","",""
"","","","","","","","","","","","html-button-response","257","2.0.0","615415","67218c211cc126877be706cc","2","7","3330","","","","","","","","","<img src= ""rock_img/I_Pumice_09.jpg"" style=""width:8cm; height:6.44cm;""><p>What type of rock is this?</p>","7","class_response","1","test","27","Pumice","Pumice","09","true","8","8","",""
"","","","","","","","","","","","html-keyboard-response","258","2.0.0","615934","67218c211cc126877be706cc","2","7","null","","","","","","","","","<p style='font-size: 30px;'><strong>Okay</strong></p>","null","neutral_feedback","1","test","27","","","","","","","",""
"","","","","","","","","","","","html-button-response","259","2.0.0","619638","67218c211cc126877be706cc","2","7","3701","","","","","","","","","<img src= ""rock_img/I_Peridotite_14.jpg"" style=""width:8cm; height:5.3cm;""><p>What type of rock is this?</p>","6","class_response","1","test","28","Peridotite","Peridotite","14","true","7","7","",""
"","","","","","","","","","","","html-keyboard-response","260","2.0.0","620144","67218c211cc126877be706cc","2","7","null","","","","","","","","","<p style='font-size: 30px;'><strong>Okay</strong></p>","null","neutral_feedback","1","test","28","","","","","","","",""
"","","","","","","","","","","","html-button-response","261","2.0.0","625438","67218c211cc126877be706cc","2","7","5291","","","","","","","","","<img src= ""rock_img/I_Peridotite_10.jpg"" style=""width:8cm; height:5.390000000000001cm;""><p>What type of rock is this?</p>","2","class_response","1","test","29","Diorite","Peridotite","10","false","3","7","",""
"","","","","","","","","","","","html-keyboard-response","262","2.0.0","625954","67218c211cc126877be706cc","2","7","null","","","","","","","","","<p style='font-size: 30px;'><strong>Okay</strong></p>","null","neutral_feedback","1","test","29","","","","","","","",""
"","","","","","","","","","","","html-button-response","263","2.0.0","627188","67218c211cc126877be706cc","2","7","1231","","","","","","","","","<img src= ""rock_img/I_Gabbro_15.jpg"" style=""width:8cm; height:6.29cm;""><p>What type of rock is this?</p>","2","class_response","1","test","30","Diorite","Gabbro","15","false","3","4","",""
"","","","","","","","","","","","html-keyboard-response","264","2.0.0","627700","67218c211cc126877be706cc","2","7","null","","","","","","","","","<p style='font-size: 30px;'><strong>Okay</strong></p>","null","neutral_feedback","1","test","30","","","","","","","",""
"","","","","","","","","","","","html-button-response","265","2.0.0","628779","67218c211cc126877be706cc","2","7","1078","","","","","","","","","<img src= ""rock_img/I_Obsidian_09.jpg"" style=""width:8cm; height:5cm;""><p>What type of rock is this?</p>","4","class_response","1","test","31","Obsidian","Obsidian","09","true","5","5","",""
"","","","","","","","","","","","html-keyboard-response","266","2.0.0","629285","67218c211cc126877be706cc","2","7","null","","","","","","","","","<p style='font-size: 30px;'><strong>Okay</strong></p>","null","neutral_feedback","1","test","31","","","","","","","",""
"","","","","","","","","","","","html-button-response","267","2.0.0","631866","67218c211cc126877be706cc","2","7","2579","","","","","","","","","<img src= ""rock_img/I_Pumice_02.jpg"" style=""width:8cm; height:7.3999999999999995cm;""><p>What type of rock is this?</p>","7","class_response","1","test","32","Pumice","Pumice","02","true","8","8","",""
"","","","","","","","","","","","html-keyboard-response","268","2.0.0","632369","67218c211cc126877be706cc","2","7","null","","","","","","","","","<p style='font-size: 30px;'><strong>Okay</strong></p>","null","neutral_feedback","1","test","32","","","","","","","",""
"","","","","","","","","","","","html-button-response","269","2.0.0","635577","67218c211cc126877be706cc","2","7","3206","","","","","","","","","<img src= ""rock_img/I_Pegmatite_09.jpg"" style=""width:8cm; height:4.03cm;""><p>What type of rock is this?</p>","6","class_response","1","test","33","Peridotite","Pegmatite","09","false","7","6","",""
"","","","","","","","","","","","html-keyboard-response","270","2.0.0","636091","67218c211cc126877be706cc","2","7","null","","","","","","","","","<p style='font-size: 30px;'><strong>Okay</strong></p>","null","neutral_feedback","1","test","33","","","","","","","",""
"","","","","","","","","","","","html-button-response","271","2.0.0","641704","67218c211cc126877be706cc","2","7","5611","","","","","","","","","<img src= ""rock_img/I_Peridotite_16.jpg"" style=""width:8cm; height:6.989999999999999cm;""><p>What type of rock is this?</p>","0","class_response","1","test","34","Andesite","Peridotite","16","false","1","7","",""
"","","","","","","","","","","","html-keyboard-response","272","2.0.0","642207","67218c211cc126877be706cc","2","7","null","","","","","","","","","<p style='font-size: 30px;'><strong>Okay</strong></p>","null","neutral_feedback","1","test","34","","","","","","","",""
"","","","","","","","","","","","html-button-response","273","2.0.0","643224","67218c211cc126877be706cc","2","7","1015","","","","","","","","","<img src= ""rock_img/I_Obsidian_04.jpg"" style=""width:8cm; height:6.930000000000001cm;""><p>What type of rock is this?</p>","4","class_response","1","test","35","Obsidian","Obsidian","04","true","5","5","",""
"","","","","","","","","","","","html-keyboard-response","274","2.0.0","643737","67218c211cc126877be706cc","2","7","null","","","","","","","","","<p style='font-size: 30px;'><strong>Okay</strong></p>","null","neutral_feedback","1","test","35","","","","","","","",""
"","","","","","","","","","","","html-button-response","275","2.0.0","646172","67218c211cc126877be706cc","2","7","2433","","","","","","","","","<img src= ""rock_img/I_Gabbro_01.jpg"" style=""width:8cm; height:5.21cm;""><p>What type of rock is this?</p>","1","class_response","1","test","36","Basalt","Gabbro","01","false","2","4","",""
"","","","","","","","","","","","html-keyboard-response","276","2.0.0","646677","67218c211cc126877be706cc","2","7","null","","","","","","","","","<p style='font-size: 30px;'><strong>Okay</strong></p>","null","neutral_feedback","1","test","36","","","","","","","",""
"","","","","","","","","","","","html-button-response","277","2.0.0","650270","67218c211cc126877be706cc","2","7","3592","","","","","","","","","<img src= ""rock_img/I_Andesite_14.jpg"" style=""width:8cm; height:5.449999999999999cm;""><p>What type of rock is this?</p>","1","class_response","1","test","37","Basalt","Andesite","14","false","2","1","",""
"","","","","","","","","","","","html-keyboard-response","278","2.0.0","650783","67218c211cc126877be706cc","2","7","null","","","","","","","","","<p style='font-size: 30px;'><strong>Okay</strong></p>","null","neutral_feedback","1","test","37","","","","","","","",""
"","","","","","","","","","","","html-button-response","279","2.0.0","654991","67218c211cc126877be706cc","2","7","4207","","","","","","","","","<img src= ""rock_img/I_Peridotite_02.jpg"" style=""width:8cm; height:5.859999999999999cm;""><p>What type of rock is this?</p>","0","class_response","1","test","38","Andesite","Peridotite","02","false","1","7","",""
"","","","","","","","","","","","html-keyboard-response","280","2.0.0","655500","67218c211cc126877be706cc","2","7","null","","","","","","","","","<p style='font-size: 30px;'><strong>Okay</strong></p>","null","neutral_feedback","1","test","38","","","","","","","",""
"","","","","","","","","","","","html-button-response","281","2.0.0","656597","67218c211cc126877be706cc","2","7","1094","","","","","","","","","<img src= ""rock_img/I_Obsidian_16.jpg"" style=""width:8cm; height:9.3cm;""><p>What type of rock is this?</p>","4","class_response","1","test","39","Obsidian","Obsidian","16","true","5","5","",""
"","","","","","","","","","","","html-keyboard-response","282","2.0.0","657107","67218c211cc126877be706cc","2","7","null","","","","","","","","","<p style='font-size: 30px;'><strong>Okay</strong></p>","null","neutral_feedback","1","test","39","","","","","","","",""
"","","","","","","","","","","","html-button-response","283","2.0.0","659854","67218c211cc126877be706cc","2","7","2746","","","","","","","","","<img src= ""rock_img/I_Andesite_05.jpg"" style=""width:8cm; height:4.12cm;""><p>What type of rock is this?</p>","2","class_response","1","test","40","Diorite","Andesite","05","false","3","1","",""
"","","","","","","","","","","","html-keyboard-response","284","2.0.0","660361","67218c211cc126877be706cc","2","7","null","","","","","","","","","<p style='font-size: 30px;'><strong>Okay</strong></p>","null","neutral_feedback","1","test","40","","","","","","","",""
"","","","","","","","","","","","html-button-response","285","2.0.0","662303","67218c211cc126877be706cc","2","7","1940","","","","","","","","","<img src= ""rock_img/I_Andesite_16.jpg"" style=""width:8cm; height:6.010000000000001cm;""><p>What type of rock is this?</p>","2","class_response","1","test","41","Diorite","Andesite","16","false","3","1","",""
"","","","","","","","","","","","html-keyboard-response","286","2.0.0","662815","67218c211cc126877be706cc","2","7","null","","","","","","","","","<p style='font-size: 30px;'><strong>Okay</strong></p>","null","neutral_feedback","1","test","41","","","","","","","",""
"","","","","","","","","","","","html-button-response","287","2.0.0","664102","67218c211cc126877be706cc","2","7","1285","","","","","","","","","<img src= ""rock_img/I_Diorite_11.jpg"" style=""width:8cm; height:7.11cm;""><p>What type of rock is this?</p>","2","class_response","1","test","42","Diorite","Diorite","11","true","3","3","",""
"","","","","","","","","","","","html-keyboard-response","288","2.0.0","664608","67218c211cc126877be706cc","2","7","null","","","","","","","","","<p style='font-size: 30px;'><strong>Okay</strong></p>","null","neutral_feedback","1","test","42","","","","","","","",""
"","","","","","","","","","","","html-button-response","289","2.0.0","666568","67218c211cc126877be706cc","2","7","1959","","","","","","","","","<img src= ""rock_img/I_Gabbro_08.jpg"" style=""width:8cm; height:5.15cm;""><p>What type of rock is this?</p>","1","class_response","1","test","43","Basalt","Gabbro","08","false","2","4","",""
"","","","","","","","","","","","html-keyboard-response","290","2.0.0","667075","67218c211cc126877be706cc","2","7","null","","","","","","","","","<p style='font-size: 30px;'><strong>Okay</strong></p>","null","neutral_feedback","1","test","43","","","","","","","",""
"","","","","","","","","","","","html-button-response","291","2.0.0","668211","67218c211cc126877be706cc","2","7","1134","","","","","","","","","<img src= ""rock_img/I_Obsidian_12.jpg"" style=""width:8cm; height:6.53cm;""><p>What type of rock is this?</p>","4","class_response","1","test","44","Obsidian","Obsidian","12","true","5","5","",""
"","","","","","","","","","","","html-keyboard-response","292","2.0.0","668726","67218c211cc126877be706cc","2","7","null","","","","","","","","","<p style='font-size: 30px;'><strong>Okay</strong></p>","null","neutral_feedback","1","test","44","","","","","","","",""
"","","","","","","","","","","","html-button-response","293","2.0.0","674643","67218c211cc126877be706cc","2","7","5914","","","","","","","","","<img src= ""rock_img/I_Basalt_04.jpg"" style=""width:8cm; height:7.53cm;""><p>What type of rock is this?</p>","3","class_response","1","test","45","Gabbro","Basalt","04","false","4","2","",""
"","","","","","","","","","","","html-keyboard-response","294","2.0.0","675151","67218c211cc126877be706cc","2","7","null","","","","","","","","","<p style='font-size: 30px;'><strong>Okay</strong></p>","null","neutral_feedback","1","test","45","","","","","","","",""
"","","","","","","","","","","","html-button-response","295","2.0.0","676528","67218c211cc126877be706cc","2","7","1374","","","","","","","","","<img src= ""rock_img/I_Pumice_15.jpg"" style=""width:8cm; height:7.86cm;""><p>What type of rock is this?</p>","7","class_response","1","test","46","Pumice","Pumice","15","true","8","8","",""
"","","","","","","","","","","","html-keyboard-response","296","2.0.0","677034","67218c211cc126877be706cc","2","7","null","","","","","","","","","<p style='font-size: 30px;'><strong>Okay</strong></p>","null","neutral_feedback","1","test","46","","","","","","","",""
"","","","","","","","","","","","html-button-response","297","2.0.0","678341","67218c211cc126877be706cc","2","7","1304","","","","","","","","","<img src= ""rock_img/I_Pumice_03.jpg"" style=""width:8cm; height:6.64cm;""><p>What type of rock is this?</p>","7","class_response","1","test","47","Pumice","Pumice","03","true","8","8","",""
"","","","","","","","","","","","html-keyboard-response","298","2.0.0","678855","67218c211cc126877be706cc","2","7","null","","","","","","","","","<p style='font-size: 30px;'><strong>Okay</strong></p>","null","neutral_feedback","1","test","47","","","","","","","",""
"","","","","","","","","","","","html-button-response","299","2.0.0","680601","67218c211cc126877be706cc","2","7","1744","","","","","","","","","<img src= ""rock_img/I_Basalt_02.jpg"" style=""width:8cm; height:6.45cm;""><p>What type of rock is this?</p>","1","class_response","1","test","48","Basalt","Basalt","02","true","2","2","",""
"","","","","","","","","","","","html-keyboard-response","300","2.0.0","681114","67218c211cc126877be706cc","2","7","null","","","","","","","","","<p style='font-size: 30px;'><strong>Okay</strong></p>","null","neutral_feedback","1","test","48","","","","","","","",""
"","","","","","","","","","","","html-button-response","301","2.0.0","740188","67218c211cc126877be706cc","2","7","","","","","","","","","","","","cycle_feedback","","","","","","","","","","30955","28108"
"","","","","","","","","","","","html-button-response","303","2.0.0","745652","67218c211cc126877be706cc","2","7","5461","","","","","","","","","","0","start_train","","","","","","","","","","",""
"","","","","","","","","","","","html-button-response","304","2.0.0","750682","67218c211cc126877be706cc","2","7","5027","","","","","","","","","<img src= ""rock_img/I_Basalt_05.jpg"" style=""width:8cm; height:8.18cm;""><p>What type of rock is this?</p>","1","class_response","2","train","1","Basalt","Basalt","05","true","2","2","",""
"","","","","","","","","","","","html-button-response","305","2.0.0","753003","67218c211cc126877be706cc","2","7","2319","","","","","","","","","<img src= rock_img/I_Basalt_05.jpg style=""width:8cm; height:8.18cm;""><p style='font-size: 30px; color: green;'><strong>Correct!</strong></p><p style='font-size: 30px;'><strong>This rock is basalt</strong></p>","0","corr_feedback","2","train","1","","","","","","","",""
