"width","height","webaudio","browser","browser_version","mobile","os","fullscreen","vsync_rate","webcam","microphone","trial_type","trial_index","plugin_version","time_elapsed","subjID","condition","stimID","rt","url","success","value","timeout","failed_images","failed_audio","failed_video","view_history","stimulus","response","trialType","cycle","phase","trial","resp","cat","token","corr","resp_num","cat_num","time_fb1","time_fb2"
"1280","585","true","chrome","130.0.0","false","Windows 10","true","60.07","true","true","browser-check","0","2.0.0","1011","66d1acabe75fc3f59ec0fb4b","2","24","","","","","","","","","","","","","","","","","","","","","","",""
"","","","","","","","","","","","external-html","1","2.0.0","723765","66d1acabe75fc3f59ec0fb4b","2","24","721406","consent_form.html","","","","","","","","","","","","","","","","","","","","",""
"","","","","","","","","","","","fullscreen","2","2.0.0","726468","66d1acabe75fc3f59ec0fb4b","2","24","1679","","true","","","","","","","","","","","","","","","","","","","",""
"","","","","","","","","","","","call-function","3","2.0.0","726478","66d1acabe75fc3f59ec0fb4b","2","24","","","","{}","","","","","","","","","","","","","","","","","","",""
"","","","","","","","","","","","preload","4","2.0.0","733912","66d1acabe75fc3f59ec0fb4b","2","24","","","true","","false","[]","[]","[]","","","","","","","","","","","","","","",""
"","","","","","","","","","","","instructions","5","2.0.0","783680","66d1acabe75fc3f59ec0fb4b","2","24","49763","","","","","","","","[{""page_index"":0,""viewing_time"":44232},{""page_index"":1,""viewing_time"":4030},{""page_index"":2,""viewing_time"":1501}]","","","","","","","","","","","","","",""
"","","","","","","","","","","","html-button-response","6","2.0.0","785041","66d1acabe75fc3f59ec0fb4b","2","24","1353","","","","","","","","","","0","start_test","","","","","","","","","","",""
"","","","","","","","","","","","html-button-response","7","2.0.0","791510","66d1acabe75fc3f59ec0fb4b","2","24","6465","","","","","","","","","<img src= ""rock_img/I_Peridotite_02.jpg"" style=""width:8cm; height:5.859999999999999cm;""><p>What type of rock is this?</p>","1","class_response","0","test","1","Basalt","Peridotite","02","false","2","7","",""
"","","","","","","","","","","","html-keyboard-response","8","2.0.0","792020","66d1acabe75fc3f59ec0fb4b","2","24","null","","","","","","","","","<p style='font-size: 30px;'><strong>Okay</strong></p>","null","neutral_feedback","0","test","1","","","","","","","",""
"","","","","","","","","","","","html-button-response","9","2.0.0","797131","66d1acabe75fc3f59ec0fb4b","2","24","5105","","","","","","","","","<img src= ""rock_img/I_Basalt_04.jpg"" style=""width:8cm; height:7.53cm;""><p>What type of rock is this?</p>","0","class_response","0","test","2","Andesite","Basalt","04","false","1","2","",""
"","","","","","","","","","","","html-keyboard-response","10","2.0.0","797647","66d1acabe75fc3f59ec0fb4b","2","24","null","","","","","","","","","<p style='font-size: 30px;'><strong>Okay</strong></p>","null","neutral_feedback","0","test","2","","","","","","","",""
"","","","","","","","","","","","html-button-response","11","2.0.0","800436","66d1acabe75fc3f59ec0fb4b","2","24","2785","","","","","","","","","<img src= ""rock_img/I_Diorite_07.jpg"" style=""width:8cm; height:5.239999999999999cm;""><p>What type of rock is this?</p>","7","class_response","0","test","3","Pumice","Diorite","07","false","8","3","",""
"","","","","","","","","","","","html-keyboard-response","12","2.0.0","800940","66d1acabe75fc3f59ec0fb4b","2","24","null","","","","","","","","","<p style='font-size: 30px;'><strong>Okay</strong></p>","null","neutral_feedback","0","test","3","","","","","","","",""
"","","","","","","","","","","","html-button-response","13","2.0.0","801387","66d1acabe75fc3f59ec0fb4b","2","24","442","","","","","","","","","<img src= ""rock_img/I_Diorite_10.jpg"" style=""width:8cm; height:5.949999999999999cm;""><p>What type of rock is this?</p>","2","class_response","0","test","4","Diorite","Diorite","10","true","3","3","",""
"","","","","","","","","","","","html-keyboard-response","14","2.0.0","801893","66d1acabe75fc3f59ec0fb4b","2","24","null","","","","","","","","","<p style='font-size: 30px;'><strong>Okay</strong></p>","null","neutral_feedback","0","test","4","","","","","","","",""
"","","","","","","","","","","","html-button-response","15","2.0.0","805392","66d1acabe75fc3f59ec0fb4b","2","24","3495","","","","","","","","","<img src= ""rock_img/I_Gabbro_03.jpg"" style=""width:8cm; height:8.52cm;""><p>What type of rock is this?</p>","0","class_response","0","test","5","Andesite","Gabbro","03","false","1","4","",""
"","","","","","","","","","","","html-keyboard-response","16","2.0.0","805906","66d1acabe75fc3f59ec0fb4b","2","24","null","","","","","","","","","<p style='font-size: 30px;'><strong>Okay</strong></p>","null","neutral_feedback","0","test","5","","","","","","","",""
"","","","","","","","","","","","html-button-response","17","2.0.0","807275","66d1acabe75fc3f59ec0fb4b","2","24","1364","","","","","","","","","<img src= ""rock_img/I_Pegmatite_16.jpg"" style=""width:8cm; height:5.8cm;""><p>What type of rock is this?</p>","4","class_response","0","test","6","Obsidian","Pegmatite","16","false","5","6","",""
"","","","","","","","","","","","html-keyboard-response","18","2.0.0","807788","66d1acabe75fc3f59ec0fb4b","2","24","null","","","","","","","","","<p style='font-size: 30px;'><strong>Okay</strong></p>","null","neutral_feedback","0","test","6","","","","","","","",""
"","","","","","","","","","","","html-button-response","19","2.0.0","808445","66d1acabe75fc3f59ec0fb4b","2","24","650","","","","","","","","","<img src= ""rock_img/I_Gabbro_08.jpg"" style=""width:8cm; height:5.15cm;""><p>What type of rock is this?</p>","5","class_response","0","test","7","Pegmatite","Gabbro","08","false","6","4","",""
"","","","","","","","","","","","html-keyboard-response","20","2.0.0","808954","66d1acabe75fc3f59ec0fb4b","2","24","null","","","","","","","","","<p style='font-size: 30px;'><strong>Okay</strong></p>","null","neutral_feedback","0","test","7","","","","","","","",""
"","","","","","","","","","","","html-button-response","21","2.0.0","810842","66d1acabe75fc3f59ec0fb4b","2","24","1884","","","","","","","","","<img src= ""rock_img/I_Obsidian_04.jpg"" style=""width:8cm; height:6.930000000000001cm;""><p>What type of rock is this?</p>","2","class_response","0","test","8","Diorite","Obsidian","04","false","3","5","",""
"","","","","","","","","","","","html-keyboard-response","22","2.0.0","811360","66d1acabe75fc3f59ec0fb4b","2","24","null","","","","","","","","","<p style='font-size: 30px;'><strong>Okay</strong></p>","null","neutral_feedback","0","test","8","","","","","","","",""
"","","","","","","","","","","","html-button-response","23","2.0.0","812491","66d1acabe75fc3f59ec0fb4b","2","24","1127","","","","","","","","","<img src= ""rock_img/I_Gabbro_01.jpg"" style=""width:8cm; height:5.21cm;""><p>What type of rock is this?</p>","7","class_response","0","test","9","Pumice","Gabbro","01","false","8","4","",""
"","","","","","","","","","","","html-keyboard-response","24","2.0.0","813009","66d1acabe75fc3f59ec0fb4b","2","24","null","","","","","","","","","<p style='font-size: 30px;'><strong>Okay</strong></p>","null","neutral_feedback","0","test","9","","","","","","","",""
"","","","","","","","","","","","html-button-response","25","2.0.0","813378","66d1acabe75fc3f59ec0fb4b","2","24","365","","","","","","","","","<img src= ""rock_img/I_Pumice_10.jpg"" style=""width:8cm; height:7.609999999999999cm;""><p>What type of rock is this?</p>","2","class_response","0","test","10","Diorite","Pumice","10","false","3","8","",""
"","","","","","","","","","","","html-keyboard-response","26","2.0.0","813887","66d1acabe75fc3f59ec0fb4b","2","24","null","","","","","","","","","<p style='font-size: 30px;'><strong>Okay</strong></p>","null","neutral_feedback","0","test","10","","","","","","","",""
"","","","","","","","","","","","html-button-response","27","2.0.0","828696","66d1acabe75fc3f59ec0fb4b","2","24","14804","","","","","","","","","<img src= ""rock_img/I_Peridotite_08.jpg"" style=""width:8cm; height:6.7cm;""><p>What type of rock is this?</p>","2","class_response","0","test","11","Diorite","Peridotite","08","false","3","7","",""
"","","","","","","","","","","","html-keyboard-response","28","2.0.0","829217","66d1acabe75fc3f59ec0fb4b","2","24","null","","","","","","","","","<p style='font-size: 30px;'><strong>Okay</strong></p>","null","neutral_feedback","0","test","11","","","","","","","",""
"","","","","","","","","","","","html-button-response","29","2.0.0","830623","66d1acabe75fc3f59ec0fb4b","2","24","1403","","","","","","","","","<img src= ""rock_img/I_Andesite_07.jpg"" style=""width:8cm; height:5.93cm;""><p>What type of rock is this?</p>","1","class_response","0","test","12","Basalt","Andesite","07","false","2","1","",""
"","","","","","","","","","","","html-keyboard-response","30","2.0.0","831127","66d1acabe75fc3f59ec0fb4b","2","24","null","","","","","","","","","<p style='font-size: 30px;'><strong>Okay</strong></p>","null","neutral_feedback","0","test","12","","","","","","","",""
"","","","","","","","","","","","html-button-response","31","2.0.0","831837","66d1acabe75fc3f59ec0fb4b","2","24","708","","","","","","","","","<img src= ""rock_img/I_Peridotite_13.jpg"" style=""width:8cm; height:7.58cm;""><p>What type of rock is this?</p>","0","class_response","0","test","13","Andesite","Peridotite","13","false","1","7","",""
"","","","","","","","","","","","html-keyboard-response","32","2.0.0","832350","66d1acabe75fc3f59ec0fb4b","2","24","null","","","","","","","","","<p style='font-size: 30px;'><strong>Okay</strong></p>","null","neutral_feedback","0","test","13","","","","","","","",""
"","","","","","","","","","","","html-button-response","33","2.0.0","837588","66d1acabe75fc3f59ec0fb4b","2","24","5234","","","","","","","","","<img src= ""rock_img/I_Pegmatite_10.jpg"" style=""width:8cm; height:4.16cm;""><p>What type of rock is this?</p>","5","class_response","0","test","14","Pegmatite","Pegmatite","10","true","6","6","",""
"","","","","","","","","","","","html-keyboard-response","34","2.0.0","838103","66d1acabe75fc3f59ec0fb4b","2","24","null","","","","","","","","","<p style='font-size: 30px;'><strong>Okay</strong></p>","null","neutral_feedback","0","test","14","","","","","","","",""
"","","","","","","","","","","","html-button-response","35","2.0.0","839698","66d1acabe75fc3f59ec0fb4b","2","24","1590","","","","","","","","","<img src= ""rock_img/I_Pumice_03.jpg"" style=""width:8cm; height:6.64cm;""><p>What type of rock is this?</p>","2","class_response","0","test","15","Diorite","Pumice","03","false","3","8","",""
"","","","","","","","","","","","html-keyboard-response","36","2.0.0","840212","66d1acabe75fc3f59ec0fb4b","2","24","null","","","","","","","","","<p style='font-size: 30px;'><strong>Okay</strong></p>","null","neutral_feedback","0","test","15","","","","","","","",""
"","","","","","","","","","","","html-button-response","37","2.0.0","842347","66d1acabe75fc3f59ec0fb4b","2","24","2130","","","","","","","","","<img src= ""rock_img/I_Basalt_10.jpg"" style=""width:8cm; height:5.85cm;""><p>What type of rock is this?</p>","7","class_response","0","test","16","Pumice","Basalt","10","false","8","2","",""
"","","","","","","","","","","","html-keyboard-response","38","2.0.0","842861","66d1acabe75fc3f59ec0fb4b","2","24","null","","","","","","","","","<p style='font-size: 30px;'><strong>Okay</strong></p>","null","neutral_feedback","0","test","16","","","","","","","",""
"","","","","","","","","","","","html-button-response","39","2.0.0","843125","66d1acabe75fc3f59ec0fb4b","2","24","260","","","","","","","","","<img src= ""rock_img/I_Pegmatite_07.jpg"" style=""width:8cm; height:6.7cm;""><p>What type of rock is this?</p>","2","class_response","0","test","17","Diorite","Pegmatite","07","false","3","6","",""
"","","","","","","","","","","","html-keyboard-response","40","2.0.0","843643","66d1acabe75fc3f59ec0fb4b","2","24","null","","","","","","","","","<p style='font-size: 30px;'><strong>Okay</strong></p>","null","neutral_feedback","0","test","17","","","","","","","",""
"","","","","","","","","","","","html-button-response","41","2.0.0","845033","66d1acabe75fc3f59ec0fb4b","2","24","1386","","","","","","","","","<img src= ""rock_img/I_Obsidian_02.jpg"" style=""width:8cm; height:7.51cm;""><p>What type of rock is this?</p>","0","class_response","0","test","18","Andesite","Obsidian","02","false","1","5","",""
"","","","","","","","","","","","html-keyboard-response","42","2.0.0","845536","66d1acabe75fc3f59ec0fb4b","2","24","null","","","","","","","","","<p style='font-size: 30px;'><strong>Okay</strong></p>","null","neutral_feedback","0","test","18","","","","","","","",""
"","","","","","","","","","","","html-button-response","43","2.0.0","845968","66d1acabe75fc3f59ec0fb4b","2","24","429","","","","","","","","","<img src= ""rock_img/I_Basalt_06.jpg"" style=""width:8cm; height:7.06cm;""><p>What type of rock is this?</p>","5","class_response","0","test","19","Pegmatite","Basalt","06","false","6","2","",""
"","","","","","","","","","","","html-keyboard-response","44","2.0.0","846475","66d1acabe75fc3f59ec0fb4b","2","24","null","","","","","","","","","<p style='font-size: 30px;'><strong>Okay</strong></p>","null","neutral_feedback","0","test","19","","","","","","","",""
"","","","","","","","","","","","html-button-response","45","2.0.0","846805","66d1acabe75fc3f59ec0fb4b","2","24","325","","","","","","","","","<img src= ""rock_img/I_Peridotite_06.jpg"" style=""width:8cm; height:7.53cm;""><p>What type of rock is this?</p>","2","class_response","0","test","20","Diorite","Peridotite","06","false","3","7","",""
"","","","","","","","","","","","html-keyboard-response","46","2.0.0","847314","66d1acabe75fc3f59ec0fb4b","2","24","null","","","","","","","","","<p style='font-size: 30px;'><strong>Okay</strong></p>","null","neutral_feedback","0","test","20","","","","","","","",""
"","","","","","","","","","","","html-button-response","47","2.0.0","847686","66d1acabe75fc3f59ec0fb4b","2","24","369","","","","","","","","","<img src= ""rock_img/I_Obsidian_12.jpg"" style=""width:8cm; height:6.53cm;""><p>What type of rock is this?</p>","6","class_response","0","test","21","Peridotite","Obsidian","12","false","7","5","",""
"","","","","","","","","","","","html-keyboard-response","48","2.0.0","848195","66d1acabe75fc3f59ec0fb4b","2","24","null","","","","","","","","","<p style='font-size: 30px;'><strong>Okay</strong></p>","null","neutral_feedback","0","test","21","","","","","","","",""
"","","","","","","","","","","","html-button-response","49","2.0.0","849113","66d1acabe75fc3f59ec0fb4b","2","24","913","","","","","","","","","<img src= ""rock_img/I_Pumice_09.jpg"" style=""width:8cm; height:6.44cm;""><p>What type of rock is this?</p>","1","class_response","0","test","22","Basalt","Pumice","09","false","2","8","",""
"","","","","","","","","","","","html-keyboard-response","50","2.0.0","849621","66d1acabe75fc3f59ec0fb4b","2","24","null","","","","","","","","","<p style='font-size: 30px;'><strong>Okay</strong></p>","null","neutral_feedback","0","test","22","","","","","","","",""
"","","","","","","","","","","","html-button-response","51","2.0.0","850046","66d1acabe75fc3f59ec0fb4b","2","24","423","","","","","","","","","<img src= ""rock_img/I_Basalt_08.jpg"" style=""width:8cm; height:10.44cm;""><p>What type of rock is this?</p>","0","class_response","0","test","23","Andesite","Basalt","08","false","1","2","",""
"","","","","","","","","","","","html-keyboard-response","52","2.0.0","850549","66d1acabe75fc3f59ec0fb4b","2","24","null","","","","","","","","","<p style='font-size: 30px;'><strong>Okay</strong></p>","null","neutral_feedback","0","test","23","","","","","","","",""
"","","","","","","","","","","","html-button-response","53","2.0.0","852170","66d1acabe75fc3f59ec0fb4b","2","24","1617","","","","","","","","","<img src= ""rock_img/I_Diorite_02.jpg"" style=""width:8cm; height:6.27cm;""><p>What type of rock is this?</p>","3","class_response","0","test","24","Gabbro","Diorite","02","false","4","3","",""
"","","","","","","","","","","","html-keyboard-response","54","2.0.0","852673","66d1acabe75fc3f59ec0fb4b","2","24","null","","","","","","","","","<p style='font-size: 30px;'><strong>Okay</strong></p>","null","neutral_feedback","0","test","24","","","","","","","",""
"","","","","","","","","","","","html-button-response","55","2.0.0","853109","66d1acabe75fc3f59ec0fb4b","2","24","433","","","","","","","","","<img src= ""rock_img/I_Peridotite_15.jpg"" style=""width:8cm; height:6cm;""><p>What type of rock is this?</p>","6","class_response","0","test","25","Peridotite","Peridotite","15","true","7","7","",""
"","","","","","","","","","","","html-keyboard-response","56","2.0.0","853623","66d1acabe75fc3f59ec0fb4b","2","24","null","","","","","","","","","<p style='font-size: 30px;'><strong>Okay</strong></p>","null","neutral_feedback","0","test","25","","","","","","","",""
"","","","","","","","","","","","html-button-response","57","2.0.0","853951","66d1acabe75fc3f59ec0fb4b","2","24","324","","","","","","","","","<img src= ""rock_img/I_Pegmatite_15.jpg"" style=""width:8cm; height:6cm;""><p>What type of rock is this?</p>","1","class_response","0","test","26","Basalt","Pegmatite","15","false","2","6","",""
"","","","","","","","","","","","html-keyboard-response","58","2.0.0","854453","66d1acabe75fc3f59ec0fb4b","2","24","null","","","","","","","","","<p style='font-size: 30px;'><strong>Okay</strong></p>","null","neutral_feedback","0","test","26","","","","","","","",""
"","","","","","","","","","","","html-button-response","59","2.0.0","854957","66d1acabe75fc3f59ec0fb4b","2","24","499","","","","","","","","","<img src= ""rock_img/I_Andesite_04.jpg"" style=""width:8cm; height:5.96cm;""><p>What type of rock is this?</p>","5","class_response","0","test","27","Pegmatite","Andesite","04","false","6","1","",""
"","","","","","","","","","","","html-keyboard-response","60","2.0.0","855468","66d1acabe75fc3f59ec0fb4b","2","24","null","","","","","","","","","<p style='font-size: 30px;'><strong>Okay</strong></p>","null","neutral_feedback","0","test","27","","","","","","","",""
"","","","","","","","","","","","html-button-response","61","2.0.0","855751","66d1acabe75fc3f59ec0fb4b","2","24","278","","","","","","","","","<img src= ""rock_img/I_Pegmatite_03.jpg"" style=""width:8cm; height:5.239999999999999cm;""><p>What type of rock is this?</p>","2","class_response","0","test","28","Diorite","Pegmatite","03","false","3","6","",""
"","","","","","","","","","","","html-keyboard-response","62","2.0.0","856271","66d1acabe75fc3f59ec0fb4b","2","24","null","","","","","","","","","<p style='font-size: 30px;'><strong>Okay</strong></p>","null","neutral_feedback","0","test","28","","","","","","","",""
"","","","","","","","","","","","html-button-response","63","2.0.0","860381","66d1acabe75fc3f59ec0fb4b","2","24","4105","","","","","","","","","<img src= ""rock_img/I_Obsidian_06.jpg"" style=""width:8cm; height:6.8cm;""><p>What type of rock is this?</p>","6","class_response","0","test","29","Peridotite","Obsidian","06","false","7","5","",""
"","","","","","","","","","","","html-keyboard-response","64","2.0.0","860894","66d1acabe75fc3f59ec0fb4b","2","24","null","","","","","","","","","<p style='font-size: 30px;'><strong>Okay</strong></p>","null","neutral_feedback","0","test","29","","","","","","","",""
"","","","","","","","","","","","html-button-response","65","2.0.0","862520","66d1acabe75fc3f59ec0fb4b","2","24","1622","","","","","","","","","<img src= ""rock_img/I_Pegmatite_05.jpg"" style=""width:8cm; height:7.300000000000001cm;""><p>What type of rock is this?</p>","0","class_response","0","test","30","Andesite","Pegmatite","05","false","1","6","",""
"","","","","","","","","","","","html-keyboard-response","66","2.0.0","863038","66d1acabe75fc3f59ec0fb4b","2","24","null","","","","","","","","","<p style='font-size: 30px;'><strong>Okay</strong></p>","null","neutral_feedback","0","test","30","","","","","","","",""
"","","","","","","","","","","","html-button-response","67","2.0.0","864661","66d1acabe75fc3f59ec0fb4b","2","24","1619","","","","","","","","","<img src= ""rock_img/I_Gabbro_13.jpg"" style=""width:8cm; height:5.08cm;""><p>What type of rock is this?</p>","1","class_response","0","test","31","Basalt","Gabbro","13","false","2","4","",""
"","","","","","","","","","","","html-keyboard-response","68","2.0.0","865172","66d1acabe75fc3f59ec0fb4b","2","24","null","","","","","","","","","<p style='font-size: 30px;'><strong>Okay</strong></p>","null","neutral_feedback","0","test","31","","","","","","","",""
"","","","","","","","","","","","html-button-response","69","2.0.0","867446","66d1acabe75fc3f59ec0fb4b","2","24","2269","","","","","","","","","<img src= ""rock_img/I_Diorite_11.jpg"" style=""width:8cm; height:7.11cm;""><p>What type of rock is this?</p>","6","class_response","0","test","32","Peridotite","Diorite","11","false","7","3","",""
"","","","","","","","","","","","html-keyboard-response","70","2.0.0","867956","66d1acabe75fc3f59ec0fb4b","2","24","null","","","","","","","","","<p style='font-size: 30px;'><strong>Okay</strong></p>","null","neutral_feedback","0","test","32","","","","","","","",""
"","","","","","","","","","","","html-button-response","71","2.0.0","884924","66d1acabe75fc3f59ec0fb4b","2","24","16966","","","","","","","","","<img src= ""rock_img/I_Diorite_08.jpg"" style=""width:8cm; height:6.37cm;""><p>What type of rock is this?</p>","6","class_response","0","test","33","Peridotite","Diorite","08","false","7","3","",""
"","","","","","","","","","","","html-keyboard-response","72","2.0.0","885438","66d1acabe75fc3f59ec0fb4b","2","24","null","","","","","","","","","<p style='font-size: 30px;'><strong>Okay</strong></p>","null","neutral_feedback","0","test","33","","","","","","","",""
"","","","","","","","","","","","html-button-response","73","2.0.0","885959","66d1acabe75fc3f59ec0fb4b","2","24","518","","","","","","","","","<img src= ""rock_img/I_Obsidian_14.jpg"" style=""width:8cm; height:7.64cm;""><p>What type of rock is this?</p>","1","class_response","0","test","34","Basalt","Obsidian","14","false","2","5","",""
"","","","","","","","","","","","html-keyboard-response","74","2.0.0","886461","66d1acabe75fc3f59ec0fb4b","2","24","null","","","","","","","","","<p style='font-size: 30px;'><strong>Okay</strong></p>","null","neutral_feedback","0","test","34","","","","","","","",""
"","","","","","","","","","","","html-button-response","75","2.0.0","886993","66d1acabe75fc3f59ec0fb4b","2","24","528","","","","","","","","","<img src= ""rock_img/I_Pumice_16.jpg"" style=""width:8cm; height:6.79cm;""><p>What type of rock is this?</p>","2","class_response","0","test","35","Diorite","Pumice","16","false","3","8","",""
"","","","","","","","","","","","html-keyboard-response","76","2.0.0","887509","66d1acabe75fc3f59ec0fb4b","2","24","null","","","","","","","","","<p style='font-size: 30px;'><strong>Okay</strong></p>","null","neutral_feedback","0","test","35","","","","","","","",""
"","","","","","","","","","","","html-button-response","77","2.0.0","887821","66d1acabe75fc3f59ec0fb4b","2","24","307","","","","","","","","","<img src= ""rock_img/I_Basalt_12.jpg"" style=""width:8cm; height:6.010000000000001cm;""><p>What type of rock is this?</p>","7","class_response","0","test","36","Pumice","Basalt","12","false","8","2","",""
"","","","","","","","","","","","html-keyboard-response","78","2.0.0","888329","66d1acabe75fc3f59ec0fb4b","2","24","null","","","","","","","","","<p style='font-size: 30px;'><strong>Okay</strong></p>","null","neutral_feedback","0","test","36","","","","","","","",""
"","","","","","","","","","","","html-button-response","79","2.0.0","888688","66d1acabe75fc3f59ec0fb4b","2","24","355","","","","","","","","","<img src= ""rock_img/I_Gabbro_14.jpg"" style=""width:8cm; height:8.48cm;""><p>What type of rock is this?</p>","1","class_response","0","test","37","Basalt","Gabbro","14","false","2","4","",""
"","","","","","","","","","","","html-keyboard-response","80","2.0.0","889193","66d1acabe75fc3f59ec0fb4b","2","24","null","","","","","","","","","<p style='font-size: 30px;'><strong>Okay</strong></p>","null","neutral_feedback","0","test","37","","","","","","","",""
"","","","","","","","","","","","html-button-response","81","2.0.0","890271","66d1acabe75fc3f59ec0fb4b","2","24","1075","","","","","","","","","<img src= ""rock_img/I_Gabbro_11.jpg"" style=""width:8cm; height:6.2cm;""><p>What type of rock is this?</p>","4","class_response","0","test","38","Obsidian","Gabbro","11","false","5","4","",""
"","","","","","","","","","","","html-keyboard-response","82","2.0.0","890786","66d1acabe75fc3f59ec0fb4b","2","24","null","","","","","","","","","<p style='font-size: 30px;'><strong>Okay</strong></p>","null","neutral_feedback","0","test","38","","","","","","","",""
"","","","","","","","","","","","html-button-response","83","2.0.0","892487","66d1acabe75fc3f59ec0fb4b","2","24","1696","","","","","","","","","<img src= ""rock_img/I_Obsidian_07.jpg"" style=""width:8cm; height:4.76cm;""><p>What type of rock is this?</p>","0","class_response","0","test","39","Andesite","Obsidian","07","false","1","5","",""
"","","","","","","","","","","","html-keyboard-response","84","2.0.0","893002","66d1acabe75fc3f59ec0fb4b","2","24","null","","","","","","","","","<p style='font-size: 30px;'><strong>Okay</strong></p>","null","neutral_feedback","0","test","39","","","","","","","",""
"","","","","","","","","","","","html-button-response","85","2.0.0","893690","66d1acabe75fc3f59ec0fb4b","2","24","683","","","","","","","","","<img src= ""rock_img/I_Pumice_08.jpg"" style=""width:8cm; height:6.67cm;""><p>What type of rock is this?</p>","1","class_response","0","test","40","Basalt","Pumice","08","false","2","8","",""
"","","","","","","","","","","","html-keyboard-response","86","2.0.0","894207","66d1acabe75fc3f59ec0fb4b","2","24","null","","","","","","","","","<p style='font-size: 30px;'><strong>Okay</strong></p>","null","neutral_feedback","0","test","40","","","","","","","",""
"","","","","","","","","","","","html-button-response","87","2.0.0","895806","66d1acabe75fc3f59ec0fb4b","2","24","1595","","","","","","","","","<img src= ""rock_img/I_Andesite_06.jpg"" style=""width:8cm; height:6.840000000000001cm;""><p>What type of rock is this?</p>","5","class_response","0","test","41","Pegmatite","Andesite","06","false","6","1","",""
"","","","","","","","","","","","html-keyboard-response","88","2.0.0","896323","66d1acabe75fc3f59ec0fb4b","2","24","null","","","","","","","","","<p style='font-size: 30px;'><strong>Okay</strong></p>","null","neutral_feedback","0","test","41","","","","","","","",""
"","","","","","","","","","","","html-button-response","89","2.0.0","896759","66d1acabe75fc3f59ec0fb4b","2","24","432","","","","","","","","","<img src= ""rock_img/I_Peridotite_07.jpg"" style=""width:8cm; height:4.83cm;""><p>What type of rock is this?</p>","3","class_response","0","test","42","Gabbro","Peridotite","07","false","4","7","",""
"","","","","","","","","","","","html-keyboard-response","90","2.0.0","897278","66d1acabe75fc3f59ec0fb4b","2","24","null","","","","","","","","","<p style='font-size: 30px;'><strong>Okay</strong></p>","null","neutral_feedback","0","test","42","","","","","","","",""
"","","","","","","","","","","","html-button-response","91","2.0.0","915186","66d1acabe75fc3f59ec0fb4b","2","24","17903","","","","","","","","","<img src= ""rock_img/I_Andesite_11.jpg"" style=""width:8cm; height:4.92cm;""><p>What type of rock is this?</p>","3","class_response","0","test","43","Gabbro","Andesite","11","false","4","1","",""
"","","","","","","","","","","","html-keyboard-response","92","2.0.0","915691","66d1acabe75fc3f59ec0fb4b","2","24","null","","","","","","","","","<p style='font-size: 30px;'><strong>Okay</strong></p>","null","neutral_feedback","0","test","43","","","","","","","",""
"","","","","","","","","","","","html-button-response","93","2.0.0","917887","66d1acabe75fc3f59ec0fb4b","2","24","2191","","","","","","","","","<img src= ""rock_img/I_Diorite_16.jpg"" style=""width:8cm; height:6.74cm;""><p>What type of rock is this?</p>","1","class_response","0","test","44","Basalt","Diorite","16","false","2","3","",""
"","","","","","","","","","","","html-keyboard-response","94","2.0.0","918399","66d1acabe75fc3f59ec0fb4b","2","24","null","","","","","","","","","<p style='font-size: 30px;'><strong>Okay</strong></p>","null","neutral_feedback","0","test","44","","","","","","","",""
"","","","","","","","","","","","html-button-response","95","2.0.0","919072","66d1acabe75fc3f59ec0fb4b","2","24","670","","","","","","","","","<img src= ""rock_img/I_Pumice_14.jpg"" style=""width:8cm; height:6.39cm;""><p>What type of rock is this?</p>","6","class_response","0","test","45","Peridotite","Pumice","14","false","7","8","",""
"","","","","","","","","","","","html-keyboard-response","96","2.0.0","919586","66d1acabe75fc3f59ec0fb4b","2","24","null","","","","","","","","","<p style='font-size: 30px;'><strong>Okay</strong></p>","null","neutral_feedback","0","test","45","","","","","","","",""
"","","","","","","","","","","","html-button-response","97","2.0.0","920746","66d1acabe75fc3f59ec0fb4b","2","24","1156","","","","","","","","","<img src= ""rock_img/I_Andesite_14.jpg"" style=""width:8cm; height:5.449999999999999cm;""><p>What type of rock is this?</p>","4","class_response","0","test","46","Obsidian","Andesite","14","false","5","1","",""
"","","","","","","","","","","","html-keyboard-response","98","2.0.0","921262","66d1acabe75fc3f59ec0fb4b","2","24","null","","","","","","","","","<p style='font-size: 30px;'><strong>Okay</strong></p>","null","neutral_feedback","0","test","46","","","","","","","",""
"","","","","","","","","","","","html-button-response","99","2.0.0","921523","66d1acabe75fc3f59ec0fb4b","2","24","257","","","","","","","","","<img src= ""rock_img/I_Andesite_10.jpg"" style=""width:8cm; height:4.16cm;""><p>What type of rock is this?</p>","0","class_response","0","test","47","Andesite","Andesite","10","true","1","1","",""
"","","","","","","","","","","","html-keyboard-response","100","2.0.0","922036","66d1acabe75fc3f59ec0fb4b","2","24","null","","","","","","","","","<p style='font-size: 30px;'><strong>Okay</strong></p>","null","neutral_feedback","0","test","47","","","","","","","",""
"","","","","","","","","","","","html-button-response","101","2.0.0","922533","66d1acabe75fc3f59ec0fb4b","2","24","494","","","","","","","","","<img src= ""rock_img/I_Basalt_16.jpg"" style=""width:8cm; height:7.659999999999999cm;""><p>What type of rock is this?</p>","1","class_response","0","test","48","Basalt","Basalt","16","true","2","2","",""
"","","","","","","","","","","","html-keyboard-response","102","2.0.0","923046","66d1acabe75fc3f59ec0fb4b","2","24","null","","","","","","","","","<p style='font-size: 30px;'><strong>Okay</strong></p>","null","neutral_feedback","0","test","48","","","","","","","",""
"","","","","","","","","","","","instructions","103","2.0.0","952357","66d1acabe75fc3f59ec0fb4b","2","24","29241","","","","","","","","[{""page_index"":0,""viewing_time"":19885},{""page_index"":1,""viewing_time"":6108},{""page_index"":2,""viewing_time"":3247}]","","","","","","","","","","","","","",""
"","","","","","","","","","","","html-button-response","104","2.0.0","954707","66d1acabe75fc3f59ec0fb4b","2","24","2345","","","","","","","","","","0","start_train","","","","","","","","","","",""
"","","","","","","","","","","","html-button-response","105","2.0.0","957404","66d1acabe75fc3f59ec0fb4b","2","24","2687","","","","","","","","","<img src= ""rock_img/I_Andesite_09.jpg"" style=""width:8cm; height:6cm;""><p>What type of rock is this?</p>","1","class_response","1","train","1","Basalt","Andesite","09","false","2","1","",""
"","","","","","","","","","","","html-button-response","106","2.0.0","959166","66d1acabe75fc3f59ec0fb4b","2","24","1757","","","","","","","","","<img src= rock_img/I_Andesite_09.jpg style=""width:8cm; height:6cm;""><p style='font-size: 30px; color: red;'><strong>Incorrect!</strong></p><p style='font-size: 30px;'><strong>This rock is andesite</strong></p>","0","corr_feedback","1","train","1","","","","","","","",""
"","","","","","","","","","","","html-button-response","107","2.0.0","960732","66d1acabe75fc3f59ec0fb4b","2","24","1562","","","","","","","","","<img src= ""rock_img/I_Basalt_09.jpg"" style=""width:8cm; height:6.2cm;""><p>What type of rock is this?</p>","2","class_response","1","train","2","Diorite","Basalt","09","false","3","2","",""
"","","","","","","","","","","","html-button-response","108","2.0.0","961863","66d1acabe75fc3f59ec0fb4b","2","24","1125","","","","","","","","","<img src= rock_img/I_Basalt_09.jpg style=""width:8cm; height:6.2cm;""><p style='font-size: 30px; color: red;'><strong>Incorrect!</strong></p><p style='font-size: 30px;'><strong>This rock is basalt</strong></p>","0","corr_feedback","1","train","2","","","","","","","",""
"","","","","","","","","","","","html-button-response","109","2.0.0","963649","66d1acabe75fc3f59ec0fb4b","2","24","1780","","","","","","","","","<img src= ""rock_img/I_Pumice_02.jpg"" style=""width:8cm; height:7.3999999999999995cm;""><p>What type of rock is this?</p>","6","class_response","1","train","3","Peridotite","Pumice","02","false","7","8","",""
"","","","","","","","","","","","html-button-response","110","2.0.0","965061","66d1acabe75fc3f59ec0fb4b","2","24","1404","","","","","","","","","<img src= rock_img/I_Pumice_02.jpg style=""width:8cm; height:7.3999999999999995cm;""><p style='font-size: 30px; color: red;'><strong>Incorrect!</strong></p><p style='font-size: 30px;'><strong>This rock is pumice</strong></p>","0","corr_feedback","1","train","3","","","","","","","",""
"","","","","","","","","","","","html-button-response","111","2.0.0","967112","66d1acabe75fc3f59ec0fb4b","2","24","2049","","","","","","","","","<img src= ""rock_img/I_Gabbro_15.jpg"" style=""width:8cm; height:6.29cm;""><p>What type of rock is this?</p>","5","class_response","1","train","4","Pegmatite","Gabbro","15","false","6","4","",""
"","","","","","","","","","","","html-button-response","112","2.0.0","968473","66d1acabe75fc3f59ec0fb4b","2","24","1356","","","","","","","","","<img src= rock_img/I_Gabbro_15.jpg style=""width:8cm; height:6.29cm;""><p style='font-size: 30px; color: red;'><strong>Incorrect!</strong></p><p style='font-size: 30px;'><strong>This rock is gabbro</strong></p>","0","corr_feedback","1","train","4","","","","","","","",""
"","","","","","","","","","","","html-button-response","113","2.0.0","969909","66d1acabe75fc3f59ec0fb4b","2","24","1432","","","","","","","","","<img src= ""rock_img/I_Peridotite_10.jpg"" style=""width:8cm; height:5.390000000000001cm;""><p>What type of rock is this?</p>","4","class_response","1","train","5","Obsidian","Peridotite","10","false","5","7","",""
"","","","","","","","","","","","html-button-response","114","2.0.0","971541","66d1acabe75fc3f59ec0fb4b","2","24","1627","","","","","","","","","<img src= rock_img/I_Peridotite_10.jpg style=""width:8cm; height:5.390000000000001cm;""><p style='font-size: 30px; color: red;'><strong>Incorrect!</strong></p><p style='font-size: 30px;'><strong>This rock is peridotite</strong></p>","0","corr_feedback","1","train","5","","","","","","","",""
"","","","","","","","","","","","html-button-response","115","2.0.0","973181","66d1acabe75fc3f59ec0fb4b","2","24","1635","","","","","","","","","<img src= ""rock_img/I_Peridotite_04.jpg"" style=""width:8cm; height:6.680000000000001cm;""><p>What type of rock is this?</p>","3","class_response","1","train","6","Gabbro","Peridotite","04","false","4","7","",""
"","","","","","","","","","","","html-button-response","116","2.0.0","974861","66d1acabe75fc3f59ec0fb4b","2","24","1675","","","","","","","","","<img src= rock_img/I_Peridotite_04.jpg style=""width:8cm; height:6.680000000000001cm;""><p style='font-size: 30px; color: red;'><strong>Incorrect!</strong></p><p style='font-size: 30px;'><strong>This rock is peridotite</strong></p>","0","corr_feedback","1","train","6","","","","","","","",""
"","","","","","","","","","","","html-button-response","117","2.0.0","976593","66d1acabe75fc3f59ec0fb4b","2","24","1728","","","","","","","","","<img src= ""rock_img/I_Diorite_12.jpg"" style=""width:8cm; height:4.88cm;""><p>What type of rock is this?</p>","2","class_response","1","train","7","Diorite","Diorite","12","true","3","3","",""
"","","","","","","","","","","","html-button-response","118","2.0.0","978401","66d1acabe75fc3f59ec0fb4b","2","24","1802","","","","","","","","","<img src= rock_img/I_Diorite_12.jpg style=""width:8cm; height:4.88cm;""><p style='font-size: 30px; color: green;'><strong>Correct!</strong></p><p style='font-size: 30px;'><strong>This rock is diorite</strong></p>","0","corr_feedback","1","train","7","","","","","","","",""
"","","","","","","","","","","","html-button-response","119","2.0.0","979916","66d1acabe75fc3f59ec0fb4b","2","24","1511","","","","","","","","","<img src= ""rock_img/I_Obsidian_05.jpg"" style=""width:8cm; height:6.33cm;""><p>What type of rock is this?</p>","1","class_response","1","train","8","Basalt","Obsidian","05","false","2","5","",""
"","","","","","","","","","","","html-button-response","120","2.0.0","981033","66d1acabe75fc3f59ec0fb4b","2","24","1112","","","","","","","","","<img src= rock_img/I_Obsidian_05.jpg style=""width:8cm; height:6.33cm;""><p style='font-size: 30px; color: red;'><strong>Incorrect!</strong></p><p style='font-size: 30px;'><strong>This rock is obsidian</strong></p>","0","corr_feedback","1","train","8","","","","","","","",""
"","","","","","","","","","","","html-button-response","121","2.0.0","982664","66d1acabe75fc3f59ec0fb4b","2","24","1627","","","","","","","","","<img src= ""rock_img/I_Peridotite_14.jpg"" style=""width:8cm; height:5.3cm;""><p>What type of rock is this?</p>","0","class_response","1","train","9","Andesite","Peridotite","14","false","1","7","",""
"","","","","","","","","","","","html-button-response","122","2.0.0","984157","66d1acabe75fc3f59ec0fb4b","2","24","1488","","","","","","","","","<img src= rock_img/I_Peridotite_14.jpg style=""width:8cm; height:5.3cm;""><p style='font-size: 30px; color: red;'><strong>Incorrect!</strong></p><p style='font-size: 30px;'><strong>This rock is peridotite</strong></p>","0","corr_feedback","1","train","9","","","","","","","",""
"","","","","","","","","","","","html-button-response","123","2.0.0","986097","66d1acabe75fc3f59ec0fb4b","2","24","1939","","","","","","","","","<img src= ""rock_img/I_Basalt_14.jpg"" style=""width:8cm; height:5.82cm;""><p>What type of rock is this?</p>","6","class_response","1","train","10","Peridotite","Basalt","14","false","7","2","",""
"","","","","","","","","","","","html-button-response","124","2.0.0","987394","66d1acabe75fc3f59ec0fb4b","2","24","1292","","","","","","","","","<img src= rock_img/I_Basalt_14.jpg style=""width:8cm; height:5.82cm;""><p style='font-size: 30px; color: red;'><strong>Incorrect!</strong></p><p style='font-size: 30px;'><strong>This rock is basalt</strong></p>","0","corr_feedback","1","train","10","","","","","","","",""
"","","","","","","","","","","","html-button-response","125","2.0.0","1131108","66d1acabe75fc3f59ec0fb4b","2","24","143711","","","","","","","","","<img src= ""rock_img/I_Pegmatite_09.jpg"" style=""width:8cm; height:4.03cm;""><p>What type of rock is this?</p>","6","class_response","1","train","11","Peridotite","Pegmatite","09","false","7","6","",""
"","","","","","","","","","","","html-button-response","126","2.0.0","1132106","66d1acabe75fc3f59ec0fb4b","2","24","994","","","","","","","","","<img src= rock_img/I_Pegmatite_09.jpg style=""width:8cm; height:4.03cm;""><p style='font-size: 30px; color: red;'><strong>Incorrect!</strong></p><p style='font-size: 30px;'><strong>This rock is pegmatite</strong></p>","0","corr_feedback","1","train","11","","","","","","","",""
"","","","","","","","","","","","html-button-response","127","2.0.0","1134887","66d1acabe75fc3f59ec0fb4b","2","24","2777","","","","","","","","","<img src= ""rock_img/I_Peridotite_05.jpg"" style=""width:8cm; height:7.1499999999999995cm;""><p>What type of rock is this?</p>","1","class_response","1","train","12","Basalt","Peridotite","05","false","2","7","",""
"","","","","","","","","","","","html-button-response","128","2.0.0","1135754","66d1acabe75fc3f59ec0fb4b","2","24","864","","","","","","","","","<img src= rock_img/I_Peridotite_05.jpg style=""width:8cm; height:7.1499999999999995cm;""><p style='font-size: 30px; color: red;'><strong>Incorrect!</strong></p><p style='font-size: 30px;'><strong>This rock is peridotite</strong></p>","0","corr_feedback","1","train","12","","","","","","","",""
"","","","","","","","","","","","html-button-response","129","2.0.0","1138184","66d1acabe75fc3f59ec0fb4b","2","24","2424","","","","","","","","","<img src= ""rock_img/I_Obsidian_10.jpg"" style=""width:8cm; height:6.260000000000001cm;""><p>What type of rock is this?</p>","0","class_response","1","train","13","Andesite","Obsidian","10","false","1","5","",""
"","","","","","","","","","","","html-button-response","130","2.0.0","1139120","66d1acabe75fc3f59ec0fb4b","2","24","932","","","","","","","","","<img src= rock_img/I_Obsidian_10.jpg style=""width:8cm; height:6.260000000000001cm;""><p style='font-size: 30px; color: red;'><strong>Incorrect!</strong></p><p style='font-size: 30px;'><strong>This rock is obsidian</strong></p>","0","corr_feedback","1","train","13","","","","","","","",""
"","","","","","","","","","","","html-button-response","131","2.0.0","1140753","66d1acabe75fc3f59ec0fb4b","2","24","1628","","","","","","","","","<img src= ""rock_img/I_Pegmatite_11.jpg"" style=""width:8cm; height:8.14cm;""><p>What type of rock is this?</p>","4","class_response","1","train","14","Obsidian","Pegmatite","11","false","5","6","",""
"","","","","","","","","","","","html-button-response","132","2.0.0","1142363","66d1acabe75fc3f59ec0fb4b","2","24","1604","","","","","","","","","<img src= rock_img/I_Pegmatite_11.jpg style=""width:8cm; height:8.14cm;""><p style='font-size: 30px; color: red;'><strong>Incorrect!</strong></p><p style='font-size: 30px;'><strong>This rock is pegmatite</strong></p>","0","corr_feedback","1","train","14","","","","","","","",""
"","","","","","","","","","","","html-button-response","133","2.0.0","1146376","66d1acabe75fc3f59ec0fb4b","2","24","4008","","","","","","","","","<img src= ""rock_img/I_Gabbro_12.jpg"" style=""width:8cm; height:7.800000000000001cm;""><p>What type of rock is this?</p>","2","class_response","1","train","15","Diorite","Gabbro","12","false","3","4","",""
"","","","","","","","","","","","html-button-response","134","2.0.0","1147627","66d1acabe75fc3f59ec0fb4b","2","24","1247","","","","","","","","","<img src= rock_img/I_Gabbro_12.jpg style=""width:8cm; height:7.800000000000001cm;""><p style='font-size: 30px; color: red;'><strong>Incorrect!</strong></p><p style='font-size: 30px;'><strong>This rock is gabbro</strong></p>","0","corr_feedback","1","train","15","","","","","","","",""
"","","","","","","","","","","","html-button-response","135","2.0.0","1150265","66d1acabe75fc3f59ec0fb4b","2","24","2632","","","","","","","","","<img src= ""rock_img/I_Andesite_05.jpg"" style=""width:8cm; height:4.12cm;""><p>What type of rock is this?</p>","3","class_response","1","train","16","Gabbro","Andesite","05","false","4","1","",""
"","","","","","","","","","","","html-button-response","136","2.0.0","1151246","66d1acabe75fc3f59ec0fb4b","2","24","976","","","","","","","","","<img src= rock_img/I_Andesite_05.jpg style=""width:8cm; height:4.12cm;""><p style='font-size: 30px; color: red;'><strong>Incorrect!</strong></p><p style='font-size: 30px;'><strong>This rock is andesite</strong></p>","0","corr_feedback","1","train","16","","","","","","","",""
"","","","","","","","","","","","html-button-response","137","2.0.0","1153455","66d1acabe75fc3f59ec0fb4b","2","24","2206","","","","","","","","","<img src= ""rock_img/I_Obsidian_09.jpg"" style=""width:8cm; height:5cm;""><p>What type of rock is this?</p>","4","class_response","1","train","17","Obsidian","Obsidian","09","true","5","5","",""
"","","","","","","","","","","","html-button-response","138","2.0.0","1154355","66d1acabe75fc3f59ec0fb4b","2","24","899","","","","","","","","","<img src= rock_img/I_Obsidian_09.jpg style=""width:8cm; height:5cm;""><p style='font-size: 30px; color: green;'><strong>Correct!</strong></p><p style='font-size: 30px;'><strong>This rock is obsidian</strong></p>","0","corr_feedback","1","train","17","","","","","","","",""
"","","","","","","","","","","","html-button-response","139","2.0.0","1156540","66d1acabe75fc3f59ec0fb4b","2","24","2182","","","","","","","","","<img src= ""rock_img/I_Diorite_13.jpg"" style=""width:8cm; height:6.29cm;""><p>What type of rock is this?</p>","0","class_response","1","train","18","Andesite","Diorite","13","false","1","3","",""
"","","","","","","","","","","","html-button-response","140","2.0.0","1157403","66d1acabe75fc3f59ec0fb4b","2","24","858","","","","","","","","","<img src= rock_img/I_Diorite_13.jpg style=""width:8cm; height:6.29cm;""><p style='font-size: 30px; color: red;'><strong>Incorrect!</strong></p><p style='font-size: 30px;'><strong>This rock is diorite</strong></p>","0","corr_feedback","1","train","18","","","","","","","",""
"","","","","","","","","","","","html-button-response","141","2.0.0","1158787","66d1acabe75fc3f59ec0fb4b","2","24","1379","","","","","","","","","<img src= ""rock_img/I_Andesite_16.jpg"" style=""width:8cm; height:6.010000000000001cm;""><p>What type of rock is this?</p>","1","class_response","1","train","19","Basalt","Andesite","16","false","2","1","",""
"","","","","","","","","","","","html-button-response","142","2.0.0","1159683","66d1acabe75fc3f59ec0fb4b","2","24","893","","","","","","","","","<img src= rock_img/I_Andesite_16.jpg style=""width:8cm; height:6.010000000000001cm;""><p style='font-size: 30px; color: red;'><strong>Incorrect!</strong></p><p style='font-size: 30px;'><strong>This rock is andesite</strong></p>","0","corr_feedback","1","train","19","","","","","","","",""
"","","","","","","","","","","","html-button-response","143","2.0.0","1161080","66d1acabe75fc3f59ec0fb4b","2","24","1392","","","","","","","","","<img src= ""rock_img/I_Peridotite_12.jpg"" style=""width:8cm; height:4.54cm;""><p>What type of rock is this?</p>","0","class_response","1","train","20","Andesite","Peridotite","12","false","1","7","",""
"","","","","","","","","","","","html-button-response","144","2.0.0","1161916","66d1acabe75fc3f59ec0fb4b","2","24","833","","","","","","","","","<img src= rock_img/I_Peridotite_12.jpg style=""width:8cm; height:4.54cm;""><p style='font-size: 30px; color: red;'><strong>Incorrect!</strong></p><p style='font-size: 30px;'><strong>This rock is peridotite</strong></p>","0","corr_feedback","1","train","20","","","","","","","",""
"","","","","","","","","","","","html-button-response","145","2.0.0","1163148","66d1acabe75fc3f59ec0fb4b","2","24","1227","","","","","","","","","<img src= ""rock_img/I_Pumice_13.jpg"" style=""width:8cm; height:8.200000000000001cm;""><p>What type of rock is this?</p>","2","class_response","1","train","21","Diorite","Pumice","13","false","3","8","",""
"","","","","","","","","","","","html-button-response","146","2.0.0","1164094","66d1acabe75fc3f59ec0fb4b","2","24","943","","","","","","","","","<img src= rock_img/I_Pumice_13.jpg style=""width:8cm; height:8.200000000000001cm;""><p style='font-size: 30px; color: red;'><strong>Incorrect!</strong></p><p style='font-size: 30px;'><strong>This rock is pumice</strong></p>","0","corr_feedback","1","train","21","","","","","","","",""
"","","","","","","","","","","","html-button-response","147","2.0.0","1165785","66d1acabe75fc3f59ec0fb4b","2","24","1688","","","","","","","","","<img src= ""rock_img/I_Gabbro_10.jpg"" style=""width:8cm; height:5.680000000000001cm;""><p>What type of rock is this?</p>","3","class_response","1","train","22","Gabbro","Gabbro","10","true","4","4","",""
"","","","","","","","","","","","html-button-response","148","2.0.0","1166962","66d1acabe75fc3f59ec0fb4b","2","24","1173","","","","","","","","","<img src= rock_img/I_Gabbro_10.jpg style=""width:8cm; height:5.680000000000001cm;""><p style='font-size: 30px; color: green;'><strong>Correct!</strong></p><p style='font-size: 30px;'><strong>This rock is gabbro</strong></p>","0","corr_feedback","1","train","22","","","","","","","",""
"","","","","","","","","","","","html-button-response","149","2.0.0","1168966","66d1acabe75fc3f59ec0fb4b","2","24","1999","","","","","","","","","<img src= ""rock_img/I_Gabbro_09.jpg"" style=""width:8cm; height:7.279999999999999cm;""><p>What type of rock is this?</p>","3","class_response","1","train","23","Gabbro","Gabbro","09","true","4","4","",""
"","","","","","","","","","","","html-button-response","150","2.0.0","1169858","66d1acabe75fc3f59ec0fb4b","2","24","887","","","","","","","","","<img src= rock_img/I_Gabbro_09.jpg style=""width:8cm; height:7.279999999999999cm;""><p style='font-size: 30px; color: green;'><strong>Correct!</strong></p><p style='font-size: 30px;'><strong>This rock is gabbro</strong></p>","0","corr_feedback","1","train","23","","","","","","","",""
"","","","","","","","","","","","html-button-response","151","2.0.0","1171223","66d1acabe75fc3f59ec0fb4b","2","24","1360","","","","","","","","","<img src= ""rock_img/I_Pumice_04.jpg"" style=""width:8cm; height:6.819999999999999cm;""><p>What type of rock is this?</p>","2","class_response","1","train","24","Diorite","Pumice","04","false","3","8","",""
"","","","","","","","","","","","html-button-response","152","2.0.0","1172153","66d1acabe75fc3f59ec0fb4b","2","24","928","","","","","","","","","<img src= rock_img/I_Pumice_04.jpg style=""width:8cm; height:6.819999999999999cm;""><p style='font-size: 30px; color: red;'><strong>Incorrect!</strong></p><p style='font-size: 30px;'><strong>This rock is pumice</strong></p>","0","corr_feedback","1","train","24","","","","","","","",""
"","","","","","","","","","","","html-button-response","153","2.0.0","1173472","66d1acabe75fc3f59ec0fb4b","2","24","1317","","","","","","","","","<img src= ""rock_img/I_Obsidian_16.jpg"" style=""width:8cm; height:9.3cm;""><p>What type of rock is this?</p>","1","class_response","1","train","25","Basalt","Obsidian","16","false","2","5","",""
"","","","","","","","","","","","html-button-response","154","2.0.0","1174524","66d1acabe75fc3f59ec0fb4b","2","24","1048","","","","","","","","","<img src= rock_img/I_Obsidian_16.jpg style=""width:8cm; height:9.3cm;""><p style='font-size: 30px; color: red;'><strong>Incorrect!</strong></p><p style='font-size: 30px;'><strong>This rock is obsidian</strong></p>","0","corr_feedback","1","train","25","","","","","","","",""
"","","","","","","","","","","","html-button-response","155","2.0.0","1177312","66d1acabe75fc3f59ec0fb4b","2","24","2782","","","","","","","","","<img src= ""rock_img/I_Gabbro_05.jpg"" style=""width:8cm; height:6cm;""><p>What type of rock is this?</p>","5","class_response","1","train","26","Pegmatite","Gabbro","05","false","6","4","",""
"","","","","","","","","","","","html-button-response","156","2.0.0","1178191","66d1acabe75fc3f59ec0fb4b","2","24","875","","","","","","","","","<img src= rock_img/I_Gabbro_05.jpg style=""width:8cm; height:6cm;""><p style='font-size: 30px; color: red;'><strong>Incorrect!</strong></p><p style='font-size: 30px;'><strong>This rock is gabbro</strong></p>","0","corr_feedback","1","train","26","","","","","","","",""
"","","","","","","","","","","","html-button-response","157","2.0.0","1180525","66d1acabe75fc3f59ec0fb4b","2","24","2327","","","","","","","","","<img src= ""rock_img/I_Pumice_15.jpg"" style=""width:8cm; height:7.86cm;""><p>What type of rock is this?</p>","2","class_response","1","train","27","Diorite","Pumice","15","false","3","8","",""
"","","","","","","","","","","","html-button-response","158","2.0.0","1181416","66d1acabe75fc3f59ec0fb4b","2","24","886","","","","","","","","","<img src= rock_img/I_Pumice_15.jpg style=""width:8cm; height:7.86cm;""><p style='font-size: 30px; color: red;'><strong>Incorrect!</strong></p><p style='font-size: 30px;'><strong>This rock is pumice</strong></p>","0","corr_feedback","1","train","27","","","","","","","",""
"","","","","","","","","","","","html-button-response","159","2.0.0","1183886","66d1acabe75fc3f59ec0fb4b","2","24","2465","","","","","","","","","<img src= ""rock_img/I_Obsidian_11.jpg"" style=""width:8cm; height:6.05cm;""><p>What type of rock is this?</p>","4","class_response","1","train","28","Obsidian","Obsidian","11","true","5","5","",""
"","","","","","","","","","","","html-button-response","160","2.0.0","1185295","66d1acabe75fc3f59ec0fb4b","2","24","1404","","","","","","","","","<img src= rock_img/I_Obsidian_11.jpg style=""width:8cm; height:6.05cm;""><p style='font-size: 30px; color: green;'><strong>Correct!</strong></p><p style='font-size: 30px;'><strong>This rock is obsidian</strong></p>","0","corr_feedback","1","train","28","","","","","","","",""
"","","","","","","","","","","","html-button-response","161","2.0.0","1187815","66d1acabe75fc3f59ec0fb4b","2","24","2515","","","","","","","","","<img src= ""rock_img/I_Basalt_01.jpg"" style=""width:8cm; height:7.880000000000001cm;""><p>What type of rock is this?</p>","7","class_response","1","train","29","Pumice","Basalt","01","false","8","2","",""
"","","","","","","","","","","","html-button-response","162","2.0.0","1188744","66d1acabe75fc3f59ec0fb4b","2","24","924","","","","","","","","","<img src= rock_img/I_Basalt_01.jpg style=""width:8cm; height:7.880000000000001cm;""><p style='font-size: 30px; color: red;'><strong>Incorrect!</strong></p><p style='font-size: 30px;'><strong>This rock is basalt</strong></p>","0","corr_feedback","1","train","29","","","","","","","",""
"","","","","","","","","","","","html-button-response","163","2.0.0","1190349","66d1acabe75fc3f59ec0fb4b","2","24","1598","","","","","","","","","<img src= ""rock_img/I_Gabbro_16.jpg"" style=""width:8cm; height:6.44cm;""><p>What type of rock is this?</p>","3","class_response","1","train","30","Gabbro","Gabbro","16","true","4","4","",""
"","","","","","","","","","","","html-button-response","164","2.0.0","1191242","66d1acabe75fc3f59ec0fb4b","2","24","888","","","","","","","","","<img src= rock_img/I_Gabbro_16.jpg style=""width:8cm; height:6.44cm;""><p style='font-size: 30px; color: green;'><strong>Correct!</strong></p><p style='font-size: 30px;'><strong>This rock is gabbro</strong></p>","0","corr_feedback","1","train","30","","","","","","","",""
"","","","","","","","","","","","html-button-response","165","2.0.0","1193393","66d1acabe75fc3f59ec0fb4b","2","24","2146","","","","","","","","","<img src= ""rock_img/I_Diorite_09.jpg"" style=""width:8cm; height:5.27cm;""><p>What type of rock is this?</p>","6","class_response","1","train","31","Peridotite","Diorite","09","false","7","3","",""
"","","","","","","","","","","","html-button-response","166","2.0.0","1194338","66d1acabe75fc3f59ec0fb4b","2","24","941","","","","","","","","","<img src= rock_img/I_Diorite_09.jpg style=""width:8cm; height:5.27cm;""><p style='font-size: 30px; color: red;'><strong>Incorrect!</strong></p><p style='font-size: 30px;'><strong>This rock is diorite</strong></p>","0","corr_feedback","1","train","31","","","","","","","",""
"","","","","","","","","","","","html-button-response","167","2.0.0","1196806","66d1acabe75fc3f59ec0fb4b","2","24","2464","","","","","","","","","<img src= ""rock_img/I_Pumice_05.jpg"" style=""width:8cm; height:7.25cm;""><p>What type of rock is this?</p>","0","class_response","1","train","32","Andesite","Pumice","05","false","1","8","",""
"","","","","","","","","","","","html-button-response","168","2.0.0","1197687","66d1acabe75fc3f59ec0fb4b","2","24","878","","","","","","","","","<img src= rock_img/I_Pumice_05.jpg style=""width:8cm; height:7.25cm;""><p style='font-size: 30px; color: red;'><strong>Incorrect!</strong></p><p style='font-size: 30px;'><strong>This rock is pumice</strong></p>","0","corr_feedback","1","train","32","","","","","","","",""
"","","","","","","","","","","","html-button-response","169","2.0.0","1198907","66d1acabe75fc3f59ec0fb4b","2","24","1214","","","","","","","","","<img src= ""rock_img/I_Andesite_02.jpg"" style=""width:8cm; height:8.5cm;""><p>What type of rock is this?</p>","3","class_response","1","train","33","Gabbro","Andesite","02","false","4","1","",""
"","","","","","","","","","","","html-button-response","170","2.0.0","1199768","66d1acabe75fc3f59ec0fb4b","2","24","856","","","","","","","","","<img src= rock_img/I_Andesite_02.jpg style=""width:8cm; height:8.5cm;""><p style='font-size: 30px; color: red;'><strong>Incorrect!</strong></p><p style='font-size: 30px;'><strong>This rock is andesite</strong></p>","0","corr_feedback","1","train","33","","","","","","","",""
"","","","","","","","","","","","html-button-response","171","2.0.0","1201200","66d1acabe75fc3f59ec0fb4b","2","24","1428","","","","","","","","","<img src= ""rock_img/I_Basalt_02.jpg"" style=""width:8cm; height:6.45cm;""><p>What type of rock is this?</p>","0","class_response","1","train","34","Andesite","Basalt","02","false","1","2","",""
"","","","","","","","","","","","html-button-response","172","2.0.0","1202263","66d1acabe75fc3f59ec0fb4b","2","24","1062","","","","","","","","","<img src= rock_img/I_Basalt_02.jpg style=""width:8cm; height:6.45cm;""><p style='font-size: 30px; color: red;'><strong>Incorrect!</strong></p><p style='font-size: 30px;'><strong>This rock is basalt</strong></p>","0","corr_feedback","1","train","34","","","","","","","",""
"","","","","","","","","","","","html-button-response","173","2.0.0","1206887","66d1acabe75fc3f59ec0fb4b","2","24","4621","","","","","","","","","<img src= ""rock_img/I_Diorite_15.jpg"" style=""width:8cm; height:5.54cm;""><p>What type of rock is this?</p>","2","class_response","1","train","35","Diorite","Diorite","15","true","3","3","",""
"","","","","","","","","","","","html-button-response","174","2.0.0","1207979","66d1acabe75fc3f59ec0fb4b","2","24","1088","","","","","","","","","<img src= rock_img/I_Diorite_15.jpg style=""width:8cm; height:5.54cm;""><p style='font-size: 30px; color: green;'><strong>Correct!</strong></p><p style='font-size: 30px;'><strong>This rock is diorite</strong></p>","0","corr_feedback","1","train","35","","","","","","","",""
"","","","","","","","","","","","html-button-response","175","2.0.0","1210395","66d1acabe75fc3f59ec0fb4b","2","24","2413","","","","","","","","","<img src= ""rock_img/I_Pegmatite_08.jpg"" style=""width:8cm; height:7.68cm;""><p>What type of rock is this?</p>","4","class_response","1","train","36","Obsidian","Pegmatite","08","false","5","6","",""
"","","","","","","","","","","","html-button-response","176","2.0.0","1211309","66d1acabe75fc3f59ec0fb4b","2","24","910","","","","","","","","","<img src= rock_img/I_Pegmatite_08.jpg style=""width:8cm; height:7.68cm;""><p style='font-size: 30px; color: red;'><strong>Incorrect!</strong></p><p style='font-size: 30px;'><strong>This rock is pegmatite</strong></p>","0","corr_feedback","1","train","36","","","","","","","",""
"","","","","","","","","","","","html-button-response","177","2.0.0","1307418","66d1acabe75fc3f59ec0fb4b","2","24","96105","","","","","","","","","<img src= ""rock_img/I_Diorite_06.jpg"" style=""width:8cm; height:6.03cm;""><p>What type of rock is this?</p>","3","class_response","1","train","37","Gabbro","Diorite","06","false","4","3","",""
"","","","","","","","","","","","html-button-response","178","2.0.0","1312492","66d1acabe75fc3f59ec0fb4b","2","24","5070","","","","","","","","","<img src= rock_img/I_Diorite_06.jpg style=""width:8cm; height:6.03cm;""><p style='font-size: 30px; color: red;'><strong>Incorrect!</strong></p><p style='font-size: 30px;'><strong>This rock is diorite</strong></p>","0","corr_feedback","1","train","37","","","","","","","",""
"","","","","","","","","","","","html-button-response","179","2.0.0","1314681","66d1acabe75fc3f59ec0fb4b","2","24","2183","","","","","","","","","<img src= ""rock_img/I_Obsidian_08.jpg"" style=""width:8cm; height:7.39cm;""><p>What type of rock is this?</p>","4","class_response","1","train","38","Obsidian","Obsidian","08","true","5","5","",""
"","","","","","","","","","","","html-button-response","180","2.0.0","1315590","66d1acabe75fc3f59ec0fb4b","2","24","902","","","","","","","","","<img src= rock_img/I_Obsidian_08.jpg style=""width:8cm; height:7.39cm;""><p style='font-size: 30px; color: green;'><strong>Correct!</strong></p><p style='font-size: 30px;'><strong>This rock is obsidian</strong></p>","0","corr_feedback","1","train","38","","","","","","","",""
"","","","","","","","","","","","html-button-response","181","2.0.0","1318370","66d1acabe75fc3f59ec0fb4b","2","24","2774","","","","","","","","","<img src= ""rock_img/I_Pegmatite_06.jpg"" style=""width:8cm; height:5.17cm;""><p>What type of rock is this?</p>","7","class_response","1","train","39","Pumice","Pegmatite","06","false","8","6","",""
"","","","","","","","","","","","html-button-response","182","2.0.0","1319303","66d1acabe75fc3f59ec0fb4b","2","24","930","","","","","","","","","<img src= rock_img/I_Pegmatite_06.jpg style=""width:8cm; height:5.17cm;""><p style='font-size: 30px; color: red;'><strong>Incorrect!</strong></p><p style='font-size: 30px;'><strong>This rock is pegmatite</strong></p>","0","corr_feedback","1","train","39","","","","","","","",""
"","","","","","","","","","","","html-button-response","183","2.0.0","1322370","66d1acabe75fc3f59ec0fb4b","2","24","3064","","","","","","","","","<img src= ""rock_img/I_Basalt_11.jpg"" style=""width:8cm; height:5.359999999999999cm;""><p>What type of rock is this?</p>","3","class_response","1","train","40","Gabbro","Basalt","11","false","4","2","",""
"","","","","","","","","","","","html-button-response","184","2.0.0","1323302","66d1acabe75fc3f59ec0fb4b","2","24","929","","","","","","","","","<img src= rock_img/I_Basalt_11.jpg style=""width:8cm; height:5.359999999999999cm;""><p style='font-size: 30px; color: red;'><strong>Incorrect!</strong></p><p style='font-size: 30px;'><strong>This rock is basalt</strong></p>","0","corr_feedback","1","train","40","","","","","","","",""
"","","","","","","","","","","","html-button-response","185","2.0.0","1324889","66d1acabe75fc3f59ec0fb4b","2","24","1582","","","","","","","","","<img src= ""rock_img/I_Andesite_01.jpg"" style=""width:8cm; height:5.87cm;""><p>What type of rock is this?</p>","3","class_response","1","train","41","Gabbro","Andesite","01","false","4","1","",""
"","","","","","","","","","","","html-button-response","186","2.0.0","1325764","66d1acabe75fc3f59ec0fb4b","2","24","870","","","","","","","","","<img src= rock_img/I_Andesite_01.jpg style=""width:8cm; height:5.87cm;""><p style='font-size: 30px; color: red;'><strong>Incorrect!</strong></p><p style='font-size: 30px;'><strong>This rock is andesite</strong></p>","0","corr_feedback","1","train","41","","","","","","","",""
"","","","","","","","","","","","html-button-response","187","2.0.0","1327451","66d1acabe75fc3f59ec0fb4b","2","24","1682","","","","","","","","","<img src= ""rock_img/I_Pegmatite_12.jpg"" style=""width:8cm; height:5.7cm;""><p>What type of rock is this?</p>","6","class_response","1","train","42","Peridotite","Pegmatite","12","false","7","6","",""
"","","","","","","","","","","","html-button-response","188","2.0.0","1328295","66d1acabe75fc3f59ec0fb4b","2","24","841","","","","","","","","","<img src= rock_img/I_Pegmatite_12.jpg style=""width:8cm; height:5.7cm;""><p style='font-size: 30px; color: red;'><strong>Incorrect!</strong></p><p style='font-size: 30px;'><strong>This rock is pegmatite</strong></p>","0","corr_feedback","1","train","42","","","","","","","",""
"","","","","","","","","","","","html-button-response","189","2.0.0","1329843","66d1acabe75fc3f59ec0fb4b","2","24","1546","","","","","","","","","<img src= ""rock_img/I_Andesite_03.jpg"" style=""width:8cm; height:5.73cm;""><p>What type of rock is this?</p>","3","class_response","1","train","43","Gabbro","Andesite","03","false","4","1","",""
"","","","","","","","","","","","html-button-response","190","2.0.0","1330826","66d1acabe75fc3f59ec0fb4b","2","24","982","","","","","","","","","<img src= rock_img/I_Andesite_03.jpg style=""width:8cm; height:5.73cm;""><p style='font-size: 30px; color: red;'><strong>Incorrect!</strong></p><p style='font-size: 30px;'><strong>This rock is andesite</strong></p>","0","corr_feedback","1","train","43","","","","","","","",""
"","","","","","","","","","","","html-button-response","191","2.0.0","1332561","66d1acabe75fc3f59ec0fb4b","2","24","1733","","","","","","","","","<img src= ""rock_img/I_Peridotite_16.jpg"" style=""width:8cm; height:6.989999999999999cm;""><p>What type of rock is this?</p>","1","class_response","1","train","44","Basalt","Peridotite","16","false","2","7","",""
"","","","","","","","","","","","html-button-response","192","2.0.0","1333442","66d1acabe75fc3f59ec0fb4b","2","24","873","","","","","","","","","<img src= rock_img/I_Peridotite_16.jpg style=""width:8cm; height:6.989999999999999cm;""><p style='font-size: 30px; color: red;'><strong>Incorrect!</strong></p><p style='font-size: 30px;'><strong>This rock is peridotite</strong></p>","0","corr_feedback","1","train","44","","","","","","","",""
"","","","","","","","","","","","html-button-response","193","2.0.0","1335391","66d1acabe75fc3f59ec0fb4b","2","24","1943","","","","","","","","","<img src= ""rock_img/I_Pumice_06.jpg"" style=""width:8cm; height:6.9399999999999995cm;""><p>What type of rock is this?</p>","6","class_response","1","train","45","Peridotite","Pumice","06","false","7","8","",""
"","","","","","","","","","","","html-button-response","194","2.0.0","1338386","66d1acabe75fc3f59ec0fb4b","2","24","2991","","","","","","","","","<img src= rock_img/I_Pumice_06.jpg style=""width:8cm; height:6.9399999999999995cm;""><p style='font-size: 30px; color: red;'><strong>Incorrect!</strong></p><p style='font-size: 30px;'><strong>This rock is pumice</strong></p>","0","corr_feedback","1","train","45","","","","","","","",""
"","","","","","","","","","","","html-button-response","195","2.0.0","1339174","66d1acabe75fc3f59ec0fb4b","2","24","783","","","","","","","","","<img src= ""rock_img/I_Pegmatite_13.jpg"" style=""width:8cm; height:4.95cm;""><p>What type of rock is this?</p>","7","class_response","1","train","46","Pumice","Pegmatite","13","false","8","6","",""
"","","","","","","","","","","","html-button-response","196","2.0.0","1340102","66d1acabe75fc3f59ec0fb4b","2","24","925","","","","","","","","","<img src= rock_img/I_Pegmatite_13.jpg style=""width:8cm; height:4.95cm;""><p style='font-size: 30px; color: red;'><strong>Incorrect!</strong></p><p style='font-size: 30px;'><strong>This rock is pegmatite</strong></p>","0","corr_feedback","1","train","46","","","","","","","",""
"","","","","","","","","","","","html-button-response","197","2.0.0","1341266","66d1acabe75fc3f59ec0fb4b","2","24","1162","","","","","","","","","<img src= ""rock_img/I_Diorite_14.jpg"" style=""width:8cm; height:5.71cm;""><p>What type of rock is this?</p>","1","class_response","1","train","47","Basalt","Diorite","14","false","2","3","",""
"","","","","","","","","","","","html-button-response","198","2.0.0","1342333","66d1acabe75fc3f59ec0fb4b","2","24","1065","","","","","","","","","<img src= rock_img/I_Diorite_14.jpg style=""width:8cm; height:5.71cm;""><p style='font-size: 30px; color: red;'><strong>Incorrect!</strong></p><p style='font-size: 30px;'><strong>This rock is diorite</strong></p>","0","corr_feedback","1","train","47","","","","","","","",""
"","","","","","","","","","","","html-button-response","199","2.0.0","1343691","66d1acabe75fc3f59ec0fb4b","2","24","1353","","","","","","","","","<img src= ""rock_img/I_Basalt_05.jpg"" style=""width:8cm; height:8.18cm;""><p>What type of rock is this?</p>","3","class_response","1","train","48","Gabbro","Basalt","05","false","4","2","",""
"","","","","","","","","","","","html-button-response","200","2.0.0","1344598","66d1acabe75fc3f59ec0fb4b","2","24","901","","","","","","","","","<img src= rock_img/I_Basalt_05.jpg style=""width:8cm; height:8.18cm;""><p style='font-size: 30px; color: red;'><strong>Incorrect!</strong></p><p style='font-size: 30px;'><strong>This rock is basalt</strong></p>","0","corr_feedback","1","train","48","","","","","","","",""
"","","","","","","","","","","","instructions","203","2.0.0","1359022","66d1acabe75fc3f59ec0fb4b","2","24","14418","","","","","","","","[{""page_index"":0,""viewing_time"":6192},{""page_index"":1,""viewing_time"":8226}]","","","","","","","","","","","","","",""
"","","","","","","","","","","","html-button-response","204","2.0.0","1365115","66d1acabe75fc3f59ec0fb4b","2","24","6089","","","","","","","","","","0","start_test","","","","","","","","","","",""
"","","","","","","","","","","","html-button-response","205","2.0.0","1370178","66d1acabe75fc3f59ec0fb4b","2","24","5058","","","","","","","","","<img src= ""rock_img/I_Pumice_16.jpg"" style=""width:8cm; height:6.79cm;""><p>What type of rock is this?</p>","3","class_response","1","test","1","Gabbro","Pumice","16","false","4","8","",""
"","","","","","","","","","","","html-keyboard-response","206","2.0.0","1370693","66d1acabe75fc3f59ec0fb4b","2","24","null","","","","","","","","","<p style='font-size: 30px;'><strong>Okay</strong></p>","null","neutral_feedback","1","test","1","","","","","","","",""
"","","","","","","","","","","","html-button-response","207","2.0.0","1373727","66d1acabe75fc3f59ec0fb4b","2","24","3030","","","","","","","","","<img src= ""rock_img/I_Pegmatite_03.jpg"" style=""width:8cm; height:5.239999999999999cm;""><p>What type of rock is this?</p>","6","class_response","1","test","2","Peridotite","Pegmatite","03","false","7","6","",""
"","","","","","","","","","","","html-keyboard-response","208","2.0.0","1374238","66d1acabe75fc3f59ec0fb4b","2","24","null","","","","","","","","","<p style='font-size: 30px;'><strong>Okay</strong></p>","null","neutral_feedback","1","test","2","","","","","","","",""
"","","","","","","","","","","","html-button-response","209","2.0.0","1375928","66d1acabe75fc3f59ec0fb4b","2","24","1685","","","","","","","","","<img src= ""rock_img/I_Obsidian_12.jpg"" style=""width:8cm; height:6.53cm;""><p>What type of rock is this?</p>","4","class_response","1","test","3","Obsidian","Obsidian","12","true","5","5","",""
"","","","","","","","","","","","html-keyboard-response","210","2.0.0","1376437","66d1acabe75fc3f59ec0fb4b","2","24","null","","","","","","","","","<p style='font-size: 30px;'><strong>Okay</strong></p>","null","neutral_feedback","1","test","3","","","","","","","",""
"","","","","","","","","","","","html-button-response","211","2.0.0","1378239","66d1acabe75fc3f59ec0fb4b","2","24","1798","","","","","","","","","<img src= ""rock_img/I_Gabbro_11.jpg"" style=""width:8cm; height:6.2cm;""><p>What type of rock is this?</p>","1","class_response","1","test","4","Basalt","Gabbro","11","false","2","4","",""
"","","","","","","","","","","","html-keyboard-response","212","2.0.0","1378757","66d1acabe75fc3f59ec0fb4b","2","24","null","","","","","","","","","<p style='font-size: 30px;'><strong>Okay</strong></p>","null","neutral_feedback","1","test","4","","","","","","","",""
"","","","","","","","","","","","html-button-response","213","2.0.0","1380500","66d1acabe75fc3f59ec0fb4b","2","24","1740","","","","","","","","","<img src= ""rock_img/I_Pegmatite_05.jpg"" style=""width:8cm; height:7.300000000000001cm;""><p>What type of rock is this?</p>","0","class_response","1","test","5","Andesite","Pegmatite","05","false","1","6","",""
"","","","","","","","","","","","html-keyboard-response","214","2.0.0","1381012","66d1acabe75fc3f59ec0fb4b","2","24","null","","","","","","","","","<p style='font-size: 30px;'><strong>Okay</strong></p>","null","neutral_feedback","1","test","5","","","","","","","",""
"","","","","","","","","","","","html-button-response","215","2.0.0","1382942","66d1acabe75fc3f59ec0fb4b","2","24","1924","","","","","","","","","<img src= ""rock_img/I_Pegmatite_10.jpg"" style=""width:8cm; height:4.16cm;""><p>What type of rock is this?</p>","5","class_response","1","test","6","Pegmatite","Pegmatite","10","true","6","6","",""
"","","","","","","","","","","","html-keyboard-response","216","2.0.0","1383447","66d1acabe75fc3f59ec0fb4b","2","24","null","","","","","","","","","<p style='font-size: 30px;'><strong>Okay</strong></p>","null","neutral_feedback","1","test","6","","","","","","","",""
"","","","","","","","","","","","html-button-response","217","2.0.0","1384958","66d1acabe75fc3f59ec0fb4b","2","24","1507","","","","","","","","","<img src= ""rock_img/I_Andesite_06.jpg"" style=""width:8cm; height:6.840000000000001cm;""><p>What type of rock is this?</p>","1","class_response","1","test","7","Basalt","Andesite","06","false","2","1","",""
"","","","","","","","","","","","html-keyboard-response","218","2.0.0","1385471","66d1acabe75fc3f59ec0fb4b","2","24","null","","","","","","","","","<p style='font-size: 30px;'><strong>Okay</strong></p>","null","neutral_feedback","1","test","7","","","","","","","",""
"","","","","","","","","","","","html-button-response","219","2.0.0","1387231","66d1acabe75fc3f59ec0fb4b","2","24","1757","","","","","","","","","<img src= ""rock_img/I_Basalt_12.jpg"" style=""width:8cm; height:6.010000000000001cm;""><p>What type of rock is this?</p>","3","class_response","1","test","8","Gabbro","Basalt","12","false","4","2","",""
"","","","","","","","","","","","html-keyboard-response","220","2.0.0","1387737","66d1acabe75fc3f59ec0fb4b","2","24","null","","","","","","","","","<p style='font-size: 30px;'><strong>Okay</strong></p>","null","neutral_feedback","1","test","8","","","","","","","",""
"","","","","","","","","","","","html-button-response","221","2.0.0","1389012","66d1acabe75fc3f59ec0fb4b","2","24","1271","","","","","","","","","<img src= ""rock_img/I_Andesite_14.jpg"" style=""width:8cm; height:5.449999999999999cm;""><p>What type of rock is this?</p>","6","class_response","1","test","9","Peridotite","Andesite","14","false","7","1","",""
"","","","","","","","","","","","html-keyboard-response","222","2.0.0","1389527","66d1acabe75fc3f59ec0fb4b","2","24","null","","","","","","","","","<p style='font-size: 30px;'><strong>Okay</strong></p>","null","neutral_feedback","1","test","9","","","","","","","",""
"","","","","","","","","","","","html-button-response","223","2.0.0","1391299","66d1acabe75fc3f59ec0fb4b","2","24","1767","","","","","","","","","<img src= ""rock_img/I_Obsidian_07.jpg"" style=""width:8cm; height:4.76cm;""><p>What type of rock is this?</p>","4","class_response","1","test","10","Obsidian","Obsidian","07","true","5","5","",""
"","","","","","","","","","","","html-keyboard-response","224","2.0.0","1391807","66d1acabe75fc3f59ec0fb4b","2","24","null","","","","","","","","","<p style='font-size: 30px;'><strong>Okay</strong></p>","null","neutral_feedback","1","test","10","","","","","","","",""
"","","","","","","","","","","","html-button-response","225","2.0.0","1393991","66d1acabe75fc3f59ec0fb4b","2","24","2180","","","","","","","","","<img src= ""rock_img/I_Pegmatite_15.jpg"" style=""width:8cm; height:6cm;""><p>What type of rock is this?</p>","0","class_response","1","test","11","Andesite","Pegmatite","15","false","1","6","",""
"","","","","","","","","","","","html-keyboard-response","226","2.0.0","1394505","66d1acabe75fc3f59ec0fb4b","2","24","null","","","","","","","","","<p style='font-size: 30px;'><strong>Okay</strong></p>","null","neutral_feedback","1","test","11","","","","","","","",""
"","","","","","","","","","","","html-button-response","227","2.0.0","1397146","66d1acabe75fc3f59ec0fb4b","2","24","2635","","","","","","","","","<img src= ""rock_img/I_Andesite_11.jpg"" style=""width:8cm; height:4.92cm;""><p>What type of rock is this?</p>","3","class_response","1","test","12","Gabbro","Andesite","11","false","4","1","",""
"","","","","","","","","","","","html-keyboard-response","228","2.0.0","1397662","66d1acabe75fc3f59ec0fb4b","2","24","null","","","","","","","","","<p style='font-size: 30px;'><strong>Okay</strong></p>","null","neutral_feedback","1","test","12","","","","","","","",""
"","","","","","","","","","","","html-button-response","229","2.0.0","1399271","66d1acabe75fc3f59ec0fb4b","2","24","1607","","","","","","","","","<img src= ""rock_img/I_Basalt_06.jpg"" style=""width:8cm; height:7.06cm;""><p>What type of rock is this?</p>","2","class_response","1","test","13","Diorite","Basalt","06","false","3","2","",""
"","","","","","","","","","","","html-keyboard-response","230","2.0.0","1399783","66d1acabe75fc3f59ec0fb4b","2","24","null","","","","","","","","","<p style='font-size: 30px;'><strong>Okay</strong></p>","null","neutral_feedback","1","test","13","","","","","","","",""
"","","","","","","","","","","","html-button-response","231","2.0.0","1401918","66d1acabe75fc3f59ec0fb4b","2","24","2132","","","","","","","","","<img src= ""rock_img/I_Diorite_08.jpg"" style=""width:8cm; height:6.37cm;""><p>What type of rock is this?</p>","1","class_response","1","test","14","Basalt","Diorite","08","false","2","3","",""
"","","","","","","","","","","","html-keyboard-response","232","2.0.0","1402432","66d1acabe75fc3f59ec0fb4b","2","24","null","","","","","","","","","<p style='font-size: 30px;'><strong>Okay</strong></p>","null","neutral_feedback","1","test","14","","","","","","","",""
"","","","","","","","","","","","html-button-response","233","2.0.0","1404337","66d1acabe75fc3f59ec0fb4b","2","24","1899","","","","","","","","","<img src= ""rock_img/I_Diorite_07.jpg"" style=""width:8cm; height:5.239999999999999cm;""><p>What type of rock is this?</p>","6","class_response","1","test","15","Peridotite","Diorite","07","false","7","3","",""
"","","","","","","","","","","","html-keyboard-response","234","2.0.0","1404847","66d1acabe75fc3f59ec0fb4b","2","24","null","","","","","","","","","<p style='font-size: 30px;'><strong>Okay</strong></p>","null","neutral_feedback","1","test","15","","","","","","","",""
"","","","","","","","","","","","html-button-response","235","2.0.0","1406202","66d1acabe75fc3f59ec0fb4b","2","24","1349","","","","","","","","","<img src= ""rock_img/I_Pumice_08.jpg"" style=""width:8cm; height:6.67cm;""><p>What type of rock is this?</p>","3","class_response","1","test","16","Gabbro","Pumice","08","false","4","8","",""
"","","","","","","","","","","","html-keyboard-response","236","2.0.0","1406713","66d1acabe75fc3f59ec0fb4b","2","24","null","","","","","","","","","<p style='font-size: 30px;'><strong>Okay</strong></p>","null","neutral_feedback","1","test","16","","","","","","","",""
"","","","","","","","","","","","html-button-response","237","2.0.0","1408664","66d1acabe75fc3f59ec0fb4b","2","24","1945","","","","","","","","","<img src= ""rock_img/I_Obsidian_06.jpg"" style=""width:8cm; height:6.8cm;""><p>What type of rock is this?</p>","4","class_response","1","test","17","Obsidian","Obsidian","06","true","5","5","",""
"","","","","","","","","","","","html-keyboard-response","238","2.0.0","1409178","66d1acabe75fc3f59ec0fb4b","2","24","null","","","","","","","","","<p style='font-size: 30px;'><strong>Okay</strong></p>","null","neutral_feedback","1","test","17","","","","","","","",""
"","","","","","","","","","","","html-button-response","239","2.0.0","1410712","66d1acabe75fc3f59ec0fb4b","2","24","1530","","","","","","","","","<img src= ""rock_img/I_Peridotite_08.jpg"" style=""width:8cm; height:6.7cm;""><p>What type of rock is this?</p>","0","class_response","1","test","18","Andesite","Peridotite","08","false","1","7","",""
"","","","","","","","","","","","html-keyboard-response","240","2.0.0","1411225","66d1acabe75fc3f59ec0fb4b","2","24","null","","","","","","","","","<p style='font-size: 30px;'><strong>Okay</strong></p>","null","neutral_feedback","1","test","18","","","","","","","",""
"","","","","","","","","","","","html-button-response","241","2.0.0","1413393","66d1acabe75fc3f59ec0fb4b","2","24","2163","","","","","","","","","<img src= ""rock_img/I_Basalt_08.jpg"" style=""width:8cm; height:10.44cm;""><p>What type of rock is this?</p>","1","class_response","1","test","19","Basalt","Basalt","08","true","2","2","",""
"","","","","","","","","","","","html-keyboard-response","242","2.0.0","1413908","66d1acabe75fc3f59ec0fb4b","2","24","null","","","","","","","","","<p style='font-size: 30px;'><strong>Okay</strong></p>","null","neutral_feedback","1","test","19","","","","","","","",""
"","","","","","","","","","","","html-button-response","243","2.0.0","1419839","66d1acabe75fc3f59ec0fb4b","2","24","5926","","","","","","","","","<img src= ""rock_img/I_Diorite_10.jpg"" style=""width:8cm; height:5.949999999999999cm;""><p>What type of rock is this?</p>","3","class_response","1","test","20","Gabbro","Diorite","10","false","4","3","",""
"","","","","","","","","","","","html-keyboard-response","244","2.0.0","1420350","66d1acabe75fc3f59ec0fb4b","2","24","null","","","","","","","","","<p style='font-size: 30px;'><strong>Okay</strong></p>","null","neutral_feedback","1","test","20","","","","","","","",""
"","","","","","","","","","","","html-button-response","245","2.0.0","1424054","66d1acabe75fc3f59ec0fb4b","2","24","3701","","","","","","","","","<img src= ""rock_img/I_Basalt_10.jpg"" style=""width:8cm; height:5.85cm;""><p>What type of rock is this?</p>","1","class_response","1","test","21","Basalt","Basalt","10","true","2","2","",""
"","","","","","","","","","","","html-keyboard-response","246","2.0.0","1424563","66d1acabe75fc3f59ec0fb4b","2","24","null","","","","","","","","","<p style='font-size: 30px;'><strong>Okay</strong></p>","null","neutral_feedback","1","test","21","","","","","","","",""
"","","","","","","","","","","","html-button-response","247","2.0.0","1425766","66d1acabe75fc3f59ec0fb4b","2","24","1199","","","","","","","","","<img src= ""rock_img/I_Pegmatite_07.jpg"" style=""width:8cm; height:6.7cm;""><p>What type of rock is this?</p>","2","class_response","1","test","22","Diorite","Pegmatite","07","false","3","6","",""
"","","","","","","","","","","","html-keyboard-response","248","2.0.0","1426280","66d1acabe75fc3f59ec0fb4b","2","24","null","","","","","","","","","<p style='font-size: 30px;'><strong>Okay</strong></p>","null","neutral_feedback","1","test","22","","","","","","","",""
"","","","","","","","","","","","html-button-response","249","2.0.0","1428762","66d1acabe75fc3f59ec0fb4b","2","24","2478","","","","","","","","","<img src= ""rock_img/I_Peridotite_02.jpg"" style=""width:8cm; height:5.859999999999999cm;""><p>What type of rock is this?</p>","6","class_response","1","test","23","Peridotite","Peridotite","02","true","7","7","",""
"","","","","","","","","","","","html-keyboard-response","250","2.0.0","1429267","66d1acabe75fc3f59ec0fb4b","2","24","null","","","","","","","","","<p style='font-size: 30px;'><strong>Okay</strong></p>","null","neutral_feedback","1","test","23","","","","","","","",""
"","","","","","","","","","","","html-button-response","251","2.0.0","1429930","66d1acabe75fc3f59ec0fb4b","2","24","658","","","","","","","","","<img src= ""rock_img/I_Gabbro_03.jpg"" style=""width:8cm; height:8.52cm;""><p>What type of rock is this?</p>","2","class_response","1","test","24","Diorite","Gabbro","03","false","3","4","",""
"","","","","","","","","","","","html-keyboard-response","252","2.0.0","1430444","66d1acabe75fc3f59ec0fb4b","2","24","null","","","","","","","","","<p style='font-size: 30px;'><strong>Okay</strong></p>","null","neutral_feedback","1","test","24","","","","","","","",""
"","","","","","","","","","","","html-button-response","253","2.0.0","1430775","66d1acabe75fc3f59ec0fb4b","2","24","328","","","","","","","","","<img src= ""rock_img/I_Obsidian_14.jpg"" style=""width:8cm; height:7.64cm;""><p>What type of rock is this?</p>","1","class_response","1","test","25","Basalt","Obsidian","14","false","2","5","",""
"","","","","","","","","","","","html-keyboard-response","254","2.0.0","1431284","66d1acabe75fc3f59ec0fb4b","2","24","null","","","","","","","","","<p style='font-size: 30px;'><strong>Okay</strong></p>","null","neutral_feedback","1","test","25","","","","","","","",""
"","","","","","","","","","","","html-button-response","255","2.0.0","1432560","66d1acabe75fc3f59ec0fb4b","2","24","1271","","","","","","","","","<img src= ""rock_img/I_Gabbro_08.jpg"" style=""width:8cm; height:5.15cm;""><p>What type of rock is this?</p>","7","class_response","1","test","26","Pumice","Gabbro","08","false","8","4","",""
"","","","","","","","","","","","html-keyboard-response","256","2.0.0","1433073","66d1acabe75fc3f59ec0fb4b","2","24","null","","","","","","","","","<p style='font-size: 30px;'><strong>Okay</strong></p>","null","neutral_feedback","1","test","26","","","","","","","",""
"","","","","","","","","","","","html-button-response","257","2.0.0","1439504","66d1acabe75fc3f59ec0fb4b","2","24","6428","","","","","","","","","<img src= ""rock_img/I_Peridotite_06.jpg"" style=""width:8cm; height:7.53cm;""><p>What type of rock is this?</p>","2","class_response","1","test","27","Diorite","Peridotite","06","false","3","7","",""
"","","","","","","","","","","","html-keyboard-response","258","2.0.0","1440016","66d1acabe75fc3f59ec0fb4b","2","24","null","","","","","","","","","<p style='font-size: 30px;'><strong>Okay</strong></p>","null","neutral_feedback","1","test","27","","","","","","","",""
"","","","","","","","","","","","html-button-response","259","2.0.0","1441805","66d1acabe75fc3f59ec0fb4b","2","24","1785","","","","","","","","","<img src= ""rock_img/I_Andesite_04.jpg"" style=""width:8cm; height:5.96cm;""><p>What type of rock is this?</p>","7","class_response","1","test","28","Pumice","Andesite","04","false","8","1","",""
"","","","","","","","","","","","html-keyboard-response","260","2.0.0","1442316","66d1acabe75fc3f59ec0fb4b","2","24","null","","","","","","","","","<p style='font-size: 30px;'><strong>Okay</strong></p>","null","neutral_feedback","1","test","28","","","","","","","",""
"","","","","","","","","","","","html-button-response","261","2.0.0","1444100","66d1acabe75fc3f59ec0fb4b","2","24","1780","","","","","","","","","<img src= ""rock_img/I_Gabbro_01.jpg"" style=""width:8cm; height:5.21cm;""><p>What type of rock is this?</p>","1","class_response","1","test","29","Basalt","Gabbro","01","false","2","4","",""
"","","","","","","","","","","","html-keyboard-response","262","2.0.0","1444614","66d1acabe75fc3f59ec0fb4b","2","24","null","","","","","","","","","<p style='font-size: 30px;'><strong>Okay</strong></p>","null","neutral_feedback","1","test","29","","","","","","","",""
"","","","","","","","","","","","html-button-response","263","2.0.0","1446974","66d1acabe75fc3f59ec0fb4b","2","24","2355","","","","","","","","","<img src= ""rock_img/I_Peridotite_07.jpg"" style=""width:8cm; height:4.83cm;""><p>What type of rock is this?</p>","3","class_response","1","test","30","Gabbro","Peridotite","07","false","4","7","",""
"","","","","","","","","","","","html-keyboard-response","264","2.0.0","1447484","66d1acabe75fc3f59ec0fb4b","2","24","null","","","","","","","","","<p style='font-size: 30px;'><strong>Okay</strong></p>","null","neutral_feedback","1","test","30","","","","","","","",""
"","","","","","","","","","","","html-button-response","265","2.0.0","1448850","66d1acabe75fc3f59ec0fb4b","2","24","1362","","","","","","","","","<img src= ""rock_img/I_Basalt_04.jpg"" style=""width:8cm; height:7.53cm;""><p>What type of rock is this?</p>","0","class_response","1","test","31","Andesite","Basalt","04","false","1","2","",""
"","","","","","","","","","","","html-keyboard-response","266","2.0.0","1449363","66d1acabe75fc3f59ec0fb4b","2","24","null","","","","","","","","","<p style='font-size: 30px;'><strong>Okay</strong></p>","null","neutral_feedback","1","test","31","","","","","","","",""
"","","","","","","","","","","","html-button-response","267","2.0.0","1449851","66d1acabe75fc3f59ec0fb4b","2","24","483","","","","","","","","","<img src= ""rock_img/I_Pumice_09.jpg"" style=""width:8cm; height:6.44cm;""><p>What type of rock is this?</p>","5","class_response","1","test","32","Pegmatite","Pumice","09","false","6","8","",""
"","","","","","","","","","","","html-keyboard-response","268","2.0.0","1450357","66d1acabe75fc3f59ec0fb4b","2","24","null","","","","","","","","","<p style='font-size: 30px;'><strong>Okay</strong></p>","null","neutral_feedback","1","test","32","","","","","","","",""
"","","","","","","","","","","","html-button-response","269","2.0.0","1451827","66d1acabe75fc3f59ec0fb4b","2","24","1467","","","","","","","","","<img src= ""rock_img/I_Gabbro_14.jpg"" style=""width:8cm; height:8.48cm;""><p>What type of rock is this?</p>","2","class_response","1","test","33","Diorite","Gabbro","14","false","3","4","",""
"","","","","","","","","","","","html-keyboard-response","270","2.0.0","1452340","66d1acabe75fc3f59ec0fb4b","2","24","null","","","","","","","","","<p style='font-size: 30px;'><strong>Okay</strong></p>","null","neutral_feedback","1","test","33","","","","","","","",""
"","","","","","","","","","","","html-button-response","271","2.0.0","1454333","66d1acabe75fc3f59ec0fb4b","2","24","1989","","","","","","","","","<img src= ""rock_img/I_Gabbro_13.jpg"" style=""width:8cm; height:5.08cm;""><p>What type of rock is this?</p>","6","class_response","1","test","34","Peridotite","Gabbro","13","false","7","4","",""
"","","","","","","","","","","","html-keyboard-response","272","2.0.0","1454838","66d1acabe75fc3f59ec0fb4b","2","24","null","","","","","","","","","<p style='font-size: 30px;'><strong>Okay</strong></p>","null","neutral_feedback","1","test","34","","","","","","","",""
"","","","","","","","","","","","html-button-response","273","2.0.0","1455940","66d1acabe75fc3f59ec0fb4b","2","24","1099","","","","","","","","","<img src= ""rock_img/I_Andesite_07.jpg"" style=""width:8cm; height:5.93cm;""><p>What type of rock is this?</p>","1","class_response","1","test","35","Basalt","Andesite","07","false","2","1","",""
"","","","","","","","","","","","html-keyboard-response","274","2.0.0","1456454","66d1acabe75fc3f59ec0fb4b","2","24","null","","","","","","","","","<p style='font-size: 30px;'><strong>Okay</strong></p>","null","neutral_feedback","1","test","35","","","","","","","",""
"","","","","","","","","","","","html-button-response","275","2.0.0","1457778","66d1acabe75fc3f59ec0fb4b","2","24","1319","","","","","","","","","<img src= ""rock_img/I_Diorite_02.jpg"" style=""width:8cm; height:6.27cm;""><p>What type of rock is this?</p>","5","class_response","1","test","36","Pegmatite","Diorite","02","false","6","3","",""
"","","","","","","","","","","","html-keyboard-response","276","2.0.0","1458287","66d1acabe75fc3f59ec0fb4b","2","24","null","","","","","","","","","<p style='font-size: 30px;'><strong>Okay</strong></p>","null","neutral_feedback","1","test","36","","","","","","","",""
"","","","","","","","","","","","html-button-response","277","2.0.0","1459726","66d1acabe75fc3f59ec0fb4b","2","24","1434","","","","","","","","","<img src= ""rock_img/I_Peridotite_15.jpg"" style=""width:8cm; height:6cm;""><p>What type of rock is this?</p>","2","class_response","1","test","37","Diorite","Peridotite","15","false","3","7","",""
"","","","","","","","","","","","html-keyboard-response","278","2.0.0","1460235","66d1acabe75fc3f59ec0fb4b","2","24","null","","","","","","","","","<p style='font-size: 30px;'><strong>Okay</strong></p>","null","neutral_feedback","1","test","37","","","","","","","",""
"","","","","","","","","","","","html-button-response","279","2.0.0","1462326","66d1acabe75fc3f59ec0fb4b","2","24","2086","","","","","","","","","<img src= ""rock_img/I_Pumice_10.jpg"" style=""width:8cm; height:7.609999999999999cm;""><p>What type of rock is this?</p>","7","class_response","1","test","38","Pumice","Pumice","10","true","8","8","",""
"","","","","","","","","","","","html-keyboard-response","280","2.0.0","1462833","66d1acabe75fc3f59ec0fb4b","2","24","null","","","","","","","","","<p style='font-size: 30px;'><strong>Okay</strong></p>","null","neutral_feedback","1","test","38","","","","","","","",""
"","","","","","","","","","","","html-button-response","281","2.0.0","1464565","66d1acabe75fc3f59ec0fb4b","2","24","1728","","","","","","","","","<img src= ""rock_img/I_Andesite_10.jpg"" style=""width:8cm; height:4.16cm;""><p>What type of rock is this?</p>","7","class_response","1","test","39","Pumice","Andesite","10","false","8","1","",""
"","","","","","","","","","","","html-keyboard-response","282","2.0.0","1465080","66d1acabe75fc3f59ec0fb4b","2","24","null","","","","","","","","","<p style='font-size: 30px;'><strong>Okay</strong></p>","null","neutral_feedback","1","test","39","","","","","","","",""
"","","","","","","","","","","","html-button-response","283","2.0.0","1468653","66d1acabe75fc3f59ec0fb4b","2","24","3568","","","","","","","","","<img src= ""rock_img/I_Peridotite_13.jpg"" style=""width:8cm; height:7.58cm;""><p>What type of rock is this?</p>","6","class_response","1","test","40","Peridotite","Peridotite","13","true","7","7","",""
"","","","","","","","","","","","html-keyboard-response","284","2.0.0","1469160","66d1acabe75fc3f59ec0fb4b","2","24","null","","","","","","","","","<p style='font-size: 30px;'><strong>Okay</strong></p>","null","neutral_feedback","1","test","40","","","","","","","",""
"","","","","","","","","","","","html-button-response","285","2.0.0","1472760","66d1acabe75fc3f59ec0fb4b","2","24","3595","","","","","","","","","<img src= ""rock_img/I_Basalt_16.jpg"" style=""width:8cm; height:7.659999999999999cm;""><p>What type of rock is this?</p>","1","class_response","1","test","41","Basalt","Basalt","16","true","2","2","",""
"","","","","","","","","","","","html-keyboard-response","286","2.0.0","1473273","66d1acabe75fc3f59ec0fb4b","2","24","null","","","","","","","","","<p style='font-size: 30px;'><strong>Okay</strong></p>","null","neutral_feedback","1","test","41","","","","","","","",""
"","","","","","","","","","","","html-button-response","287","2.0.0","1476227","66d1acabe75fc3f59ec0fb4b","2","24","2950","","","","","","","","","<img src= ""rock_img/I_Pumice_14.jpg"" style=""width:8cm; height:6.39cm;""><p>What type of rock is this?</p>","2","class_response","1","test","42","Diorite","Pumice","14","false","3","8","",""
"","","","","","","","","","","","html-keyboard-response","288","2.0.0","1476740","66d1acabe75fc3f59ec0fb4b","2","24","null","","","","","","","","","<p style='font-size: 30px;'><strong>Okay</strong></p>","null","neutral_feedback","1","test","42","","","","","","","",""
"","","","","","","","","","","","html-button-response","289","2.0.0","1478872","66d1acabe75fc3f59ec0fb4b","2","24","2127","","","","","","","","","<img src= ""rock_img/I_Pegmatite_16.jpg"" style=""width:8cm; height:5.8cm;""><p>What type of rock is this?</p>","5","class_response","1","test","43","Pegmatite","Pegmatite","16","true","6","6","",""
"","","","","","","","","","","","html-keyboard-response","290","2.0.0","1479392","66d1acabe75fc3f59ec0fb4b","2","24","null","","","","","","","","","<p style='font-size: 30px;'><strong>Okay</strong></p>","null","neutral_feedback","1","test","43","","","","","","","",""
"","","","","","","","","","","","html-button-response","291","2.0.0","1480976","66d1acabe75fc3f59ec0fb4b","2","24","1580","","","","","","","","","<img src= ""rock_img/I_Diorite_16.jpg"" style=""width:8cm; height:6.74cm;""><p>What type of rock is this?</p>","0","class_response","1","test","44","Andesite","Diorite","16","false","1","3","",""
"","","","","","","","","","","","html-keyboard-response","292","2.0.0","1481483","66d1acabe75fc3f59ec0fb4b","2","24","null","","","","","","","","","<p style='font-size: 30px;'><strong>Okay</strong></p>","null","neutral_feedback","1","test","44","","","","","","","",""
"","","","","","","","","","","","html-button-response","293","2.0.0","1482869","66d1acabe75fc3f59ec0fb4b","2","24","1382","","","","","","","","","<img src= ""rock_img/I_Diorite_11.jpg"" style=""width:8cm; height:7.11cm;""><p>What type of rock is this?</p>","1","class_response","1","test","45","Basalt","Diorite","11","false","2","3","",""
"","","","","","","","","","","","html-keyboard-response","294","2.0.0","1483385","66d1acabe75fc3f59ec0fb4b","2","24","null","","","","","","","","","<p style='font-size: 30px;'><strong>Okay</strong></p>","null","neutral_feedback","1","test","45","","","","","","","",""
"","","","","","","","","","","","html-button-response","295","2.0.0","1483890","66d1acabe75fc3f59ec0fb4b","2","24","500","","","","","","","","","<img src= ""rock_img/I_Obsidian_04.jpg"" style=""width:8cm; height:6.930000000000001cm;""><p>What type of rock is this?</p>","6","class_response","1","test","46","Peridotite","Obsidian","04","false","7","5","",""
"","","","","","","","","","","","html-keyboard-response","296","2.0.0","1484397","66d1acabe75fc3f59ec0fb4b","2","24","null","","","","","","","","","<p style='font-size: 30px;'><strong>Okay</strong></p>","null","neutral_feedback","1","test","46","","","","","","","",""
"","","","","","","","","","","","html-button-response","297","2.0.0","1486020","66d1acabe75fc3f59ec0fb4b","2","24","1619","","","","","","","","","<img src= ""rock_img/I_Pumice_03.jpg"" style=""width:8cm; height:6.64cm;""><p>What type of rock is this?</p>","7","class_response","1","test","47","Pumice","Pumice","03","true","8","8","",""
"","","","","","","","","","","","html-keyboard-response","298","2.0.0","1486528","66d1acabe75fc3f59ec0fb4b","2","24","null","","","","","","","","","<p style='font-size: 30px;'><strong>Okay</strong></p>","null","neutral_feedback","1","test","47","","","","","","","",""
"","","","","","","","","","","","html-button-response","299","2.0.0","1489349","66d1acabe75fc3f59ec0fb4b","2","24","2816","","","","","","","","","<img src= ""rock_img/I_Obsidian_02.jpg"" style=""width:8cm; height:7.51cm;""><p>What type of rock is this?</p>","4","class_response","1","test","48","Obsidian","Obsidian","02","true","5","5","",""
"","","","","","","","","","","","html-keyboard-response","300","2.0.0","1489861","66d1acabe75fc3f59ec0fb4b","2","24","null","","","","","","","","","<p style='font-size: 30px;'><strong>Okay</strong></p>","null","neutral_feedback","1","test","48","","","","","","","",""
"","","","","","","","","","","","html-button-response","301","2.0.0","1523703","66d1acabe75fc3f59ec0fb4b","2","24","","","","","","","","","","","","cycle_feedback","","","","","","","","","","7345.4000000059605","26482"
"","","","","","","","","","","","html-button-response","303","2.0.0","1525200","66d1acabe75fc3f59ec0fb4b","2","24","1491","","","","","","","","","","0","start_train","","","","","","","","","","",""
"","","","","","","","","","","","html-button-response","304","2.0.0","1527546","66d1acabe75fc3f59ec0fb4b","2","24","2343","","","","","","","","","<img src= ""rock_img/I_Gabbro_12.jpg"" style=""width:8cm; height:7.800000000000001cm;""><p>What type of rock is this?</p>","1","class_response","2","train","1","Basalt","Gabbro","12","false","2","4","",""
