"width","height","webaudio","browser","browser_version","mobile","os","fullscreen","vsync_rate","webcam","microphone","trial_type","trial_index","plugin_version","time_elapsed","subjID","condition","stimID","rt","url","success","value","timeout","failed_images","failed_audio","failed_video","view_history","stimulus","response","trialType","cycle","phase","trial","resp","cat","token","corr","resp_num","cat_num","rt_ref","rt_paired","ref_cat_num","paired_cat_num","ref_cat","paired_cat","text_Andesite","text_Pegmatite","time_obs","time_resp","text_Basalt","text_Gabbro","text_Diorite","text_Peridotite","time_fb1","time_fb2"
"1223","690","true","chrome","131.0.0","false","Windows 10","true","60.19","true","true","browser-check","0","2.0.0","1013","672d4ccff9372d646bbd16ba","4","52","","","","","","","","","","","","","","","","","","","","","","","","","","","","","","","","","","","","",""
"","","","","","","","","","","","external-html","1","2.0.0","4615","672d4ccff9372d646bbd16ba","4","52","3509","consent_form.html","","","","","","","","","","","","","","","","","","","","","","","","","","","","","","","","","","",""
"","","","","","","","","","","","fullscreen","2","2.0.0","7089","672d4ccff9372d646bbd16ba","4","52","1465","","true","","","","","","","","","","","","","","","","","","","","","","","","","","","","","","","","","",""
"","","","","","","","","","","","call-function","3","2.0.0","7091","672d4ccff9372d646bbd16ba","4","52","","","","{}","","","","","","","","","","","","","","","","","","","","","","","","","","","","","","","","",""
"","","","","","","","","","","","preload","4","2.0.0","9473","672d4ccff9372d646bbd16ba","4","52","","","true","","false","[]","[]","[]","","","","","","","","","","","","","","","","","","","","","","","","","","","","",""
"","","","","","","","","","","","instructions","5","2.0.0","35349","672d4ccff9372d646bbd16ba","4","52","25874","","","","","","","","[{""page_index"":0,""viewing_time"":5317},{""page_index"":1,""viewing_time"":11010},{""page_index"":2,""viewing_time"":9547}]","","","","","","","","","","","","","","","","","","","","","","","","","","","",""
"","","","","","","","","","","","html-button-response","6","2.0.0","38004","672d4ccff9372d646bbd16ba","4","52","2653","","","","","","","","","","0","start_test","","","","","","","","","","","","","","","","","","","","","","","","",""
"","","","","","","","","","","","html-button-response","7","2.0.0","42228","672d4ccff9372d646bbd16ba","4","52","4221","","","","","","","","","<img src= ""rock_img/I_Diorite_09.jpg"" style=""width:8cm; height:5.27cm;""><p>What type of rock is this?</p>","2","class_response","0","test","1","Diorite","Diorite","09","true","3","3","","","","","","","","","","","","","","","",""
"","","","","","","","","","","","html-keyboard-response","8","2.0.0","42746","672d4ccff9372d646bbd16ba","4","52","null","","","","","","","","","<p style='font-size: 30px;'><strong>Okay</strong></p>","null","neutral_feedback","0","test","1","","","","","","","","","","","","","","","","","","","","","",""
"","","","","","","","","","","","html-button-response","9","2.0.0","47174","672d4ccff9372d646bbd16ba","4","52","4426","","","","","","","","","<img src= ""rock_img/I_Basalt_12.jpg"" style=""width:8cm; height:6.010000000000001cm;""><p>What type of rock is this?</p>","7","class_response","0","test","2","Pumice","Basalt","12","false","8","2","","","","","","","","","","","","","","","",""
"","","","","","","","","","","","html-keyboard-response","10","2.0.0","47676","672d4ccff9372d646bbd16ba","4","52","null","","","","","","","","","<p style='font-size: 30px;'><strong>Okay</strong></p>","null","neutral_feedback","0","test","2","","","","","","","","","","","","","","","","","","","","","",""
"","","","","","","","","","","","html-button-response","11","2.0.0","51742","672d4ccff9372d646bbd16ba","4","52","4064","","","","","","","","","<img src= ""rock_img/I_Gabbro_14.jpg"" style=""width:8cm; height:8.48cm;""><p>What type of rock is this?</p>","0","class_response","0","test","3","Andesite","Gabbro","14","false","1","4","","","","","","","","","","","","","","","",""
"","","","","","","","","","","","html-keyboard-response","12","2.0.0","52245","672d4ccff9372d646bbd16ba","4","52","null","","","","","","","","","<p style='font-size: 30px;'><strong>Okay</strong></p>","null","neutral_feedback","0","test","3","","","","","","","","","","","","","","","","","","","","","",""
"","","","","","","","","","","","html-button-response","13","2.0.0","58199","672d4ccff9372d646bbd16ba","4","52","5952","","","","","","","","","<img src= ""rock_img/I_Gabbro_03.jpg"" style=""width:8cm; height:8.52cm;""><p>What type of rock is this?</p>","5","class_response","0","test","4","Pegmatite","Gabbro","03","false","6","4","","","","","","","","","","","","","","","",""
"","","","","","","","","","","","html-keyboard-response","14","2.0.0","58701","672d4ccff9372d646bbd16ba","4","52","null","","","","","","","","","<p style='font-size: 30px;'><strong>Okay</strong></p>","null","neutral_feedback","0","test","4","","","","","","","","","","","","","","","","","","","","","",""
"","","","","","","","","","","","html-button-response","15","2.0.0","61522","672d4ccff9372d646bbd16ba","4","52","2819","","","","","","","","","<img src= ""rock_img/I_Gabbro_05.jpg"" style=""width:8cm; height:6cm;""><p>What type of rock is this?</p>","1","class_response","0","test","5","Basalt","Gabbro","05","false","2","4","","","","","","","","","","","","","","","",""
"","","","","","","","","","","","html-keyboard-response","16","2.0.0","62023","672d4ccff9372d646bbd16ba","4","52","null","","","","","","","","","<p style='font-size: 30px;'><strong>Okay</strong></p>","null","neutral_feedback","0","test","5","","","","","","","","","","","","","","","","","","","","","",""
"","","","","","","","","","","","html-button-response","17","2.0.0","64790","672d4ccff9372d646bbd16ba","4","52","2766","","","","","","","","","<img src= ""rock_img/I_Pumice_03.jpg"" style=""width:8cm; height:6.64cm;""><p>What type of rock is this?</p>","7","class_response","0","test","6","Pumice","Pumice","03","true","8","8","","","","","","","","","","","","","","","",""
"","","","","","","","","","","","html-keyboard-response","18","2.0.0","65293","672d4ccff9372d646bbd16ba","4","52","null","","","","","","","","","<p style='font-size: 30px;'><strong>Okay</strong></p>","null","neutral_feedback","0","test","6","","","","","","","","","","","","","","","","","","","","","",""
"","","","","","","","","","","","html-button-response","19","2.0.0","66725","672d4ccff9372d646bbd16ba","4","52","1431","","","","","","","","","<img src= ""rock_img/I_Obsidian_14.jpg"" style=""width:8cm; height:7.64cm;""><p>What type of rock is this?</p>","4","class_response","0","test","7","Obsidian","Obsidian","14","true","5","5","","","","","","","","","","","","","","","",""
"","","","","","","","","","","","html-keyboard-response","20","2.0.0","67227","672d4ccff9372d646bbd16ba","4","52","null","","","","","","","","","<p style='font-size: 30px;'><strong>Okay</strong></p>","null","neutral_feedback","0","test","7","","","","","","","","","","","","","","","","","","","","","",""
"","","","","","","","","","","","html-button-response","21","2.0.0","68738","672d4ccff9372d646bbd16ba","4","52","1510","","","","","","","","","<img src= ""rock_img/I_Pumice_02.jpg"" style=""width:8cm; height:7.3999999999999995cm;""><p>What type of rock is this?</p>","3","class_response","0","test","8","Gabbro","Pumice","02","false","4","8","","","","","","","","","","","","","","","",""
"","","","","","","","","","","","html-keyboard-response","22","2.0.0","69241","672d4ccff9372d646bbd16ba","4","52","null","","","","","","","","","<p style='font-size: 30px;'><strong>Okay</strong></p>","null","neutral_feedback","0","test","8","","","","","","","","","","","","","","","","","","","","","",""
"","","","","","","","","","","","html-button-response","23","2.0.0","72726","672d4ccff9372d646bbd16ba","4","52","3484","","","","","","","","","<img src= ""rock_img/I_Peridotite_14.jpg"" style=""width:8cm; height:5.3cm;""><p>What type of rock is this?</p>","6","class_response","0","test","9","Peridotite","Peridotite","14","true","7","7","","","","","","","","","","","","","","","",""
"","","","","","","","","","","","html-keyboard-response","24","2.0.0","73227","672d4ccff9372d646bbd16ba","4","52","null","","","","","","","","","<p style='font-size: 30px;'><strong>Okay</strong></p>","null","neutral_feedback","0","test","9","","","","","","","","","","","","","","","","","","","","","",""
"","","","","","","","","","","","html-button-response","25","2.0.0","77370","672d4ccff9372d646bbd16ba","4","52","4141","","","","","","","","","<img src= ""rock_img/I_Basalt_01.jpg"" style=""width:8cm; height:7.880000000000001cm;""><p>What type of rock is this?</p>","0","class_response","0","test","10","Andesite","Basalt","01","false","1","2","","","","","","","","","","","","","","","",""
"","","","","","","","","","","","html-keyboard-response","26","2.0.0","77874","672d4ccff9372d646bbd16ba","4","52","null","","","","","","","","","<p style='font-size: 30px;'><strong>Okay</strong></p>","null","neutral_feedback","0","test","10","","","","","","","","","","","","","","","","","","","","","",""
"","","","","","","","","","","","html-button-response","27","2.0.0","83107","672d4ccff9372d646bbd16ba","4","52","5232","","","","","","","","","<img src= ""rock_img/I_Pumice_14.jpg"" style=""width:8cm; height:6.39cm;""><p>What type of rock is this?</p>","7","class_response","0","test","11","Pumice","Pumice","14","true","8","8","","","","","","","","","","","","","","","",""
"","","","","","","","","","","","html-keyboard-response","28","2.0.0","83609","672d4ccff9372d646bbd16ba","4","52","null","","","","","","","","","<p style='font-size: 30px;'><strong>Okay</strong></p>","null","neutral_feedback","0","test","11","","","","","","","","","","","","","","","","","","","","","",""
"","","","","","","","","","","","html-button-response","29","2.0.0","88472","672d4ccff9372d646bbd16ba","4","52","4862","","","","","","","","","<img src= ""rock_img/I_Pegmatite_10.jpg"" style=""width:8cm; height:4.16cm;""><p>What type of rock is this?</p>","2","class_response","0","test","12","Diorite","Pegmatite","10","false","3","6","","","","","","","","","","","","","","","",""
"","","","","","","","","","","","html-keyboard-response","30","2.0.0","88979","672d4ccff9372d646bbd16ba","4","52","null","","","","","","","","","<p style='font-size: 30px;'><strong>Okay</strong></p>","null","neutral_feedback","0","test","12","","","","","","","","","","","","","","","","","","","","","",""
"","","","","","","","","","","","html-button-response","31","2.0.0","94888","672d4ccff9372d646bbd16ba","4","52","5906","","","","","","","","","<img src= ""rock_img/I_Peridotite_08.jpg"" style=""width:8cm; height:6.7cm;""><p>What type of rock is this?</p>","5","class_response","0","test","13","Pegmatite","Peridotite","08","false","6","7","","","","","","","","","","","","","","","",""
"","","","","","","","","","","","html-keyboard-response","32","2.0.0","95389","672d4ccff9372d646bbd16ba","4","52","null","","","","","","","","","<p style='font-size: 30px;'><strong>Okay</strong></p>","null","neutral_feedback","0","test","13","","","","","","","","","","","","","","","","","","","","","",""
"","","","","","","","","","","","html-button-response","33","2.0.0","96704","672d4ccff9372d646bbd16ba","4","52","1312","","","","","","","","","<img src= ""rock_img/I_Obsidian_16.jpg"" style=""width:8cm; height:9.3cm;""><p>What type of rock is this?</p>","4","class_response","0","test","14","Obsidian","Obsidian","16","true","5","5","","","","","","","","","","","","","","","",""
"","","","","","","","","","","","html-keyboard-response","34","2.0.0","97205","672d4ccff9372d646bbd16ba","4","52","null","","","","","","","","","<p style='font-size: 30px;'><strong>Okay</strong></p>","null","neutral_feedback","0","test","14","","","","","","","","","","","","","","","","","","","","","",""
"","","","","","","","","","","","html-button-response","35","2.0.0","99652","672d4ccff9372d646bbd16ba","4","52","2446","","","","","","","","","<img src= ""rock_img/I_Diorite_16.jpg"" style=""width:8cm; height:6.74cm;""><p>What type of rock is this?</p>","0","class_response","0","test","15","Andesite","Diorite","16","false","1","3","","","","","","","","","","","","","","","",""
"","","","","","","","","","","","html-keyboard-response","36","2.0.0","100154","672d4ccff9372d646bbd16ba","4","52","null","","","","","","","","","<p style='font-size: 30px;'><strong>Okay</strong></p>","null","neutral_feedback","0","test","15","","","","","","","","","","","","","","","","","","","","","",""
"","","","","","","","","","","","html-button-response","37","2.0.0","101710","672d4ccff9372d646bbd16ba","4","52","1555","","","","","","","","","<img src= ""rock_img/I_Gabbro_16.jpg"" style=""width:8cm; height:6.44cm;""><p>What type of rock is this?</p>","4","class_response","0","test","16","Obsidian","Gabbro","16","false","5","4","","","","","","","","","","","","","","","",""
"","","","","","","","","","","","html-keyboard-response","38","2.0.0","102211","672d4ccff9372d646bbd16ba","4","52","null","","","","","","","","","<p style='font-size: 30px;'><strong>Okay</strong></p>","null","neutral_feedback","0","test","16","","","","","","","","","","","","","","","","","","","","","",""
"","","","","","","","","","","","html-button-response","39","2.0.0","104486","672d4ccff9372d646bbd16ba","4","52","2273","","","","","","","","","<img src= ""rock_img/I_Pumice_05.jpg"" style=""width:8cm; height:7.25cm;""><p>What type of rock is this?</p>","7","class_response","0","test","17","Pumice","Pumice","05","true","8","8","","","","","","","","","","","","","","","",""
"","","","","","","","","","","","html-keyboard-response","40","2.0.0","104988","672d4ccff9372d646bbd16ba","4","52","null","","","","","","","","","<p style='font-size: 30px;'><strong>Okay</strong></p>","null","neutral_feedback","0","test","17","","","","","","","","","","","","","","","","","","","","","",""
"","","","","","","","","","","","html-button-response","41","2.0.0","106227","672d4ccff9372d646bbd16ba","4","52","1237","","","","","","","","","<img src= ""rock_img/I_Obsidian_04.jpg"" style=""width:8cm; height:6.930000000000001cm;""><p>What type of rock is this?</p>","4","class_response","0","test","18","Obsidian","Obsidian","04","true","5","5","","","","","","","","","","","","","","","",""
"","","","","","","","","","","","html-keyboard-response","42","2.0.0","106729","672d4ccff9372d646bbd16ba","4","52","null","","","","","","","","","<p style='font-size: 30px;'><strong>Okay</strong></p>","null","neutral_feedback","0","test","18","","","","","","","","","","","","","","","","","","","","","",""
"","","","","","","","","","","","html-button-response","43","2.0.0","109806","672d4ccff9372d646bbd16ba","4","52","3076","","","","","","","","","<img src= ""rock_img/I_Diorite_08.jpg"" style=""width:8cm; height:6.37cm;""><p>What type of rock is this?</p>","3","class_response","0","test","19","Gabbro","Diorite","08","false","4","3","","","","","","","","","","","","","","","",""
"","","","","","","","","","","","html-keyboard-response","44","2.0.0","110307","672d4ccff9372d646bbd16ba","4","52","null","","","","","","","","","<p style='font-size: 30px;'><strong>Okay</strong></p>","null","neutral_feedback","0","test","19","","","","","","","","","","","","","","","","","","","","","",""
"","","","","","","","","","","","html-button-response","45","2.0.0","112443","672d4ccff9372d646bbd16ba","4","52","2135","","","","","","","","","<img src= ""rock_img/I_Diorite_11.jpg"" style=""width:8cm; height:7.11cm;""><p>What type of rock is this?</p>","3","class_response","0","test","20","Gabbro","Diorite","11","false","4","3","","","","","","","","","","","","","","","",""
"","","","","","","","","","","","html-keyboard-response","46","2.0.0","112945","672d4ccff9372d646bbd16ba","4","52","null","","","","","","","","","<p style='font-size: 30px;'><strong>Okay</strong></p>","null","neutral_feedback","0","test","20","","","","","","","","","","","","","","","","","","","","","",""
"","","","","","","","","","","","html-button-response","47","2.0.0","117162","672d4ccff9372d646bbd16ba","4","52","4215","","","","","","","","","<img src= ""rock_img/I_Pegmatite_15.jpg"" style=""width:8cm; height:6cm;""><p>What type of rock is this?</p>","2","class_response","0","test","21","Diorite","Pegmatite","15","false","3","6","","","","","","","","","","","","","","","",""
"","","","","","","","","","","","html-keyboard-response","48","2.0.0","117663","672d4ccff9372d646bbd16ba","4","52","null","","","","","","","","","<p style='font-size: 30px;'><strong>Okay</strong></p>","null","neutral_feedback","0","test","21","","","","","","","","","","","","","","","","","","","","","",""
"","","","","","","","","","","","html-button-response","49","2.0.0","120261","672d4ccff9372d646bbd16ba","4","52","2597","","","","","","","","","<img src= ""rock_img/I_Andesite_11.jpg"" style=""width:8cm; height:4.92cm;""><p>What type of rock is this?</p>","5","class_response","0","test","22","Pegmatite","Andesite","11","false","6","1","","","","","","","","","","","","","","","",""
"","","","","","","","","","","","html-keyboard-response","50","2.0.0","120763","672d4ccff9372d646bbd16ba","4","52","null","","","","","","","","","<p style='font-size: 30px;'><strong>Okay</strong></p>","null","neutral_feedback","0","test","22","","","","","","","","","","","","","","","","","","","","","",""
"","","","","","","","","","","","html-button-response","51","2.0.0","124635","672d4ccff9372d646bbd16ba","4","52","3870","","","","","","","","","<img src= ""rock_img/I_Peridotite_05.jpg"" style=""width:8cm; height:7.1499999999999995cm;""><p>What type of rock is this?</p>","6","class_response","0","test","23","Peridotite","Peridotite","05","true","7","7","","","","","","","","","","","","","","","",""
"","","","","","","","","","","","html-keyboard-response","52","2.0.0","125137","672d4ccff9372d646bbd16ba","4","52","null","","","","","","","","","<p style='font-size: 30px;'><strong>Okay</strong></p>","null","neutral_feedback","0","test","23","","","","","","","","","","","","","","","","","","","","","",""
"","","","","","","","","","","","html-button-response","53","2.0.0","126652","672d4ccff9372d646bbd16ba","4","52","1514","","","","","","","","","<img src= ""rock_img/I_Basalt_06.jpg"" style=""width:8cm; height:7.06cm;""><p>What type of rock is this?</p>","4","class_response","0","test","24","Obsidian","Basalt","06","false","5","2","","","","","","","","","","","","","","","",""
"","","","","","","","","","","","html-keyboard-response","54","2.0.0","127153","672d4ccff9372d646bbd16ba","4","52","null","","","","","","","","","<p style='font-size: 30px;'><strong>Okay</strong></p>","null","neutral_feedback","0","test","24","","","","","","","","","","","","","","","","","","","","","",""
"","","","","","","","","","","","html-button-response","55","2.0.0","129047","672d4ccff9372d646bbd16ba","4","52","1892","","","","","","","","","<img src= ""rock_img/I_Diorite_07.jpg"" style=""width:8cm; height:5.239999999999999cm;""><p>What type of rock is this?</p>","1","class_response","0","test","25","Basalt","Diorite","07","false","2","3","","","","","","","","","","","","","","","",""
"","","","","","","","","","","","html-keyboard-response","56","2.0.0","129548","672d4ccff9372d646bbd16ba","4","52","null","","","","","","","","","<p style='font-size: 30px;'><strong>Okay</strong></p>","null","neutral_feedback","0","test","25","","","","","","","","","","","","","","","","","","","","","",""
"","","","","","","","","","","","html-button-response","57","2.0.0","131041","672d4ccff9372d646bbd16ba","4","52","1491","","","","","","","","","<img src= ""rock_img/I_Obsidian_08.jpg"" style=""width:8cm; height:7.39cm;""><p>What type of rock is this?</p>","4","class_response","0","test","26","Obsidian","Obsidian","08","true","5","5","","","","","","","","","","","","","","","",""
"","","","","","","","","","","","html-keyboard-response","58","2.0.0","131542","672d4ccff9372d646bbd16ba","4","52","null","","","","","","","","","<p style='font-size: 30px;'><strong>Okay</strong></p>","null","neutral_feedback","0","test","26","","","","","","","","","","","","","","","","","","","","","",""
"","","","","","","","","","","","html-button-response","59","2.0.0","136115","672d4ccff9372d646bbd16ba","4","52","4572","","","","","","","","","<img src= ""rock_img/I_Peridotite_07.jpg"" style=""width:8cm; height:4.83cm;""><p>What type of rock is this?</p>","2","class_response","0","test","27","Diorite","Peridotite","07","false","3","7","","","","","","","","","","","","","","","",""
"","","","","","","","","","","","html-keyboard-response","60","2.0.0","136616","672d4ccff9372d646bbd16ba","4","52","null","","","","","","","","","<p style='font-size: 30px;'><strong>Okay</strong></p>","null","neutral_feedback","0","test","27","","","","","","","","","","","","","","","","","","","","","",""
"","","","","","","","","","","","html-button-response","61","2.0.0","139842","672d4ccff9372d646bbd16ba","4","52","3224","","","","","","","","","<img src= ""rock_img/I_Pegmatite_08.jpg"" style=""width:8cm; height:7.68cm;""><p>What type of rock is this?</p>","6","class_response","0","test","28","Peridotite","Pegmatite","08","false","7","6","","","","","","","","","","","","","","","",""
"","","","","","","","","","","","html-keyboard-response","62","2.0.0","140344","672d4ccff9372d646bbd16ba","4","52","null","","","","","","","","","<p style='font-size: 30px;'><strong>Okay</strong></p>","null","neutral_feedback","0","test","28","","","","","","","","","","","","","","","","","","","","","",""
"","","","","","","","","","","","html-button-response","63","2.0.0","142854","672d4ccff9372d646bbd16ba","4","52","2509","","","","","","","","","<img src= ""rock_img/I_Andesite_02.jpg"" style=""width:8cm; height:8.5cm;""><p>What type of rock is this?</p>","1","class_response","0","test","29","Basalt","Andesite","02","false","2","1","","","","","","","","","","","","","","","",""
"","","","","","","","","","","","html-keyboard-response","64","2.0.0","143363","672d4ccff9372d646bbd16ba","4","52","null","","","","","","","","","<p style='font-size: 30px;'><strong>Okay</strong></p>","null","neutral_feedback","0","test","29","","","","","","","","","","","","","","","","","","","","","",""
"","","","","","","","","","","","html-button-response","65","2.0.0","145485","672d4ccff9372d646bbd16ba","4","52","2120","","","","","","","","","<img src= ""rock_img/I_Andesite_04.jpg"" style=""width:8cm; height:5.96cm;""><p>What type of rock is this?</p>","0","class_response","0","test","30","Andesite","Andesite","04","true","1","1","","","","","","","","","","","","","","","",""
"","","","","","","","","","","","html-keyboard-response","66","2.0.0","145997","672d4ccff9372d646bbd16ba","4","52","null","","","","","","","","","<p style='font-size: 30px;'><strong>Okay</strong></p>","null","neutral_feedback","0","test","30","","","","","","","","","","","","","","","","","","","","","",""
"","","","","","","","","","","","html-button-response","67","2.0.0","148387","672d4ccff9372d646bbd16ba","4","52","2388","","","","","","","","","<img src= ""rock_img/I_Pegmatite_05.jpg"" style=""width:8cm; height:7.300000000000001cm;""><p>What type of rock is this?</p>","5","class_response","0","test","31","Pegmatite","Pegmatite","05","true","6","6","","","","","","","","","","","","","","","",""
"","","","","","","","","","","","html-keyboard-response","68","2.0.0","148889","672d4ccff9372d646bbd16ba","4","52","null","","","","","","","","","<p style='font-size: 30px;'><strong>Okay</strong></p>","null","neutral_feedback","0","test","31","","","","","","","","","","","","","","","","","","","","","",""
"","","","","","","","","","","","html-button-response","69","2.0.0","153060","672d4ccff9372d646bbd16ba","4","52","4169","","","","","","","","","<img src= ""rock_img/I_Peridotite_02.jpg"" style=""width:8cm; height:5.859999999999999cm;""><p>What type of rock is this?</p>","1","class_response","0","test","32","Basalt","Peridotite","02","false","2","7","","","","","","","","","","","","","","","",""
"","","","","","","","","","","","html-keyboard-response","70","2.0.0","153561","672d4ccff9372d646bbd16ba","4","52","null","","","","","","","","","<p style='font-size: 30px;'><strong>Okay</strong></p>","null","neutral_feedback","0","test","32","","","","","","","","","","","","","","","","","","","","","",""
"","","","","","","","","","","","html-button-response","71","2.0.0","155026","672d4ccff9372d646bbd16ba","4","52","1463","","","","","","","","","<img src= ""rock_img/I_Obsidian_10.jpg"" style=""width:8cm; height:6.260000000000001cm;""><p>What type of rock is this?</p>","4","class_response","0","test","33","Obsidian","Obsidian","10","true","5","5","","","","","","","","","","","","","","","",""
"","","","","","","","","","","","html-keyboard-response","72","2.0.0","155528","672d4ccff9372d646bbd16ba","4","52","null","","","","","","","","","<p style='font-size: 30px;'><strong>Okay</strong></p>","null","neutral_feedback","0","test","33","","","","","","","","","","","","","","","","","","","","","",""
"","","","","","","","","","","","html-button-response","73","2.0.0","160000","672d4ccff9372d646bbd16ba","4","52","4470","","","","","","","","","<img src= ""rock_img/I_Andesite_10.jpg"" style=""width:8cm; height:4.16cm;""><p>What type of rock is this?</p>","2","class_response","0","test","34","Diorite","Andesite","10","false","3","1","","","","","","","","","","","","","","","",""
"","","","","","","","","","","","html-keyboard-response","74","2.0.0","160513","672d4ccff9372d646bbd16ba","4","52","null","","","","","","","","","<p style='font-size: 30px;'><strong>Okay</strong></p>","null","neutral_feedback","0","test","34","","","","","","","","","","","","","","","","","","","","","",""
"","","","","","","","","","","","html-button-response","75","2.0.0","162349","672d4ccff9372d646bbd16ba","4","52","1834","","","","","","","","","<img src= ""rock_img/I_Peridotite_15.jpg"" style=""width:8cm; height:6cm;""><p>What type of rock is this?</p>","1","class_response","0","test","35","Basalt","Peridotite","15","false","2","7","","","","","","","","","","","","","","","",""
"","","","","","","","","","","","html-keyboard-response","76","2.0.0","162861","672d4ccff9372d646bbd16ba","4","52","null","","","","","","","","","<p style='font-size: 30px;'><strong>Okay</strong></p>","null","neutral_feedback","0","test","35","","","","","","","","","","","","","","","","","","","","","",""
"","","","","","","","","","","","html-button-response","77","2.0.0","165972","672d4ccff9372d646bbd16ba","4","52","3109","","","","","","","","","<img src= ""rock_img/I_Pumice_10.jpg"" style=""width:8cm; height:7.609999999999999cm;""><p>What type of rock is this?</p>","3","class_response","0","test","36","Gabbro","Pumice","10","false","4","8","","","","","","","","","","","","","","","",""
"","","","","","","","","","","","html-keyboard-response","78","2.0.0","166473","672d4ccff9372d646bbd16ba","4","52","null","","","","","","","","","<p style='font-size: 30px;'><strong>Okay</strong></p>","null","neutral_feedback","0","test","36","","","","","","","","","","","","","","","","","","","","","",""
"","","","","","","","","","","","html-button-response","79","2.0.0","167774","672d4ccff9372d646bbd16ba","4","52","1300","","","","","","","","","<img src= ""rock_img/I_Gabbro_10.jpg"" style=""width:8cm; height:5.680000000000001cm;""><p>What type of rock is this?</p>","6","class_response","0","test","37","Peridotite","Gabbro","10","false","7","4","","","","","","","","","","","","","","","",""
"","","","","","","","","","","","html-keyboard-response","80","2.0.0","168277","672d4ccff9372d646bbd16ba","4","52","null","","","","","","","","","<p style='font-size: 30px;'><strong>Okay</strong></p>","null","neutral_feedback","0","test","37","","","","","","","","","","","","","","","","","","","","","",""
"","","","","","","","","","","","html-button-response","81","2.0.0","174339","672d4ccff9372d646bbd16ba","4","52","6058","","","","","","","","","<img src= ""rock_img/I_Basalt_08.jpg"" style=""width:8cm; height:10.44cm;""><p>What type of rock is this?</p>","5","class_response","0","test","38","Pegmatite","Basalt","08","false","6","2","","","","","","","","","","","","","","","",""
"","","","","","","","","","","","html-keyboard-response","82","2.0.0","174846","672d4ccff9372d646bbd16ba","4","52","null","","","","","","","","","<p style='font-size: 30px;'><strong>Okay</strong></p>","null","neutral_feedback","0","test","38","","","","","","","","","","","","","","","","","","","","","",""
"","","","","","","","","","","","html-button-response","83","2.0.0","176885","672d4ccff9372d646bbd16ba","4","52","2037","","","","","","","","","<img src= ""rock_img/I_Andesite_16.jpg"" style=""width:8cm; height:6.010000000000001cm;""><p>What type of rock is this?</p>","1","class_response","0","test","39","Basalt","Andesite","16","false","2","1","","","","","","","","","","","","","","","",""
"","","","","","","","","","","","html-keyboard-response","84","2.0.0","177390","672d4ccff9372d646bbd16ba","4","52","null","","","","","","","","","<p style='font-size: 30px;'><strong>Okay</strong></p>","null","neutral_feedback","0","test","39","","","","","","","","","","","","","","","","","","","","","",""
"","","","","","","","","","","","html-button-response","85","2.0.0","178630","672d4ccff9372d646bbd16ba","4","52","1239","","","","","","","","","<img src= ""rock_img/I_Obsidian_02.jpg"" style=""width:8cm; height:7.51cm;""><p>What type of rock is this?</p>","4","class_response","0","test","40","Obsidian","Obsidian","02","true","5","5","","","","","","","","","","","","","","","",""
"","","","","","","","","","","","html-keyboard-response","86","2.0.0","179144","672d4ccff9372d646bbd16ba","4","52","null","","","","","","","","","<p style='font-size: 30px;'><strong>Okay</strong></p>","null","neutral_feedback","0","test","40","","","","","","","","","","","","","","","","","","","","","",""
"","","","","","","","","","","","html-button-response","87","2.0.0","187328","672d4ccff9372d646bbd16ba","4","52","8182","","","","","","","","","<img src= ""rock_img/I_Pegmatite_16.jpg"" style=""width:8cm; height:5.8cm;""><p>What type of rock is this?</p>","0","class_response","0","test","41","Andesite","Pegmatite","16","false","1","6","","","","","","","","","","","","","","","",""
"","","","","","","","","","","","html-keyboard-response","88","2.0.0","187829","672d4ccff9372d646bbd16ba","4","52","null","","","","","","","","","<p style='font-size: 30px;'><strong>Okay</strong></p>","null","neutral_feedback","0","test","41","","","","","","","","","","","","","","","","","","","","","",""
"","","","","","","","","","","","html-button-response","89","2.0.0","189303","672d4ccff9372d646bbd16ba","4","52","1473","","","","","","","","","<img src= ""rock_img/I_Pumice_08.jpg"" style=""width:8cm; height:6.67cm;""><p>What type of rock is this?</p>","7","class_response","0","test","42","Pumice","Pumice","08","true","8","8","","","","","","","","","","","","","","","",""
"","","","","","","","","","","","html-keyboard-response","90","2.0.0","189805","672d4ccff9372d646bbd16ba","4","52","null","","","","","","","","","<p style='font-size: 30px;'><strong>Okay</strong></p>","null","neutral_feedback","0","test","42","","","","","","","","","","","","","","","","","","","","","",""
"","","","","","","","","","","","html-button-response","91","2.0.0","191074","672d4ccff9372d646bbd16ba","4","52","1267","","","","","","","","","<img src= ""rock_img/I_Basalt_11.jpg"" style=""width:8cm; height:5.359999999999999cm;""><p>What type of rock is this?</p>","7","class_response","0","test","43","Pumice","Basalt","11","false","8","2","","","","","","","","","","","","","","","",""
"","","","","","","","","","","","html-keyboard-response","92","2.0.0","191576","672d4ccff9372d646bbd16ba","4","52","null","","","","","","","","","<p style='font-size: 30px;'><strong>Okay</strong></p>","null","neutral_feedback","0","test","43","","","","","","","","","","","","","","","","","","","","","",""
"","","","","","","","","","","","html-button-response","93","2.0.0","195149","672d4ccff9372d646bbd16ba","4","52","3572","","","","","","","","","<img src= ""rock_img/I_Diorite_13.jpg"" style=""width:8cm; height:6.29cm;""><p>What type of rock is this?</p>","2","class_response","0","test","44","Diorite","Diorite","13","true","3","3","","","","","","","","","","","","","","","",""
"","","","","","","","","","","","html-keyboard-response","94","2.0.0","195651","672d4ccff9372d646bbd16ba","4","52","null","","","","","","","","","<p style='font-size: 30px;'><strong>Okay</strong></p>","null","neutral_feedback","0","test","44","","","","","","","","","","","","","","","","","","","","","",""
"","","","","","","","","","","","html-button-response","95","2.0.0","197741","672d4ccff9372d646bbd16ba","4","52","2089","","","","","","","","","<img src= ""rock_img/I_Andesite_03.jpg"" style=""width:8cm; height:5.73cm;""><p>What type of rock is this?</p>","1","class_response","0","test","45","Basalt","Andesite","03","false","2","1","","","","","","","","","","","","","","","",""
"","","","","","","","","","","","html-keyboard-response","96","2.0.0","198245","672d4ccff9372d646bbd16ba","4","52","null","","","","","","","","","<p style='font-size: 30px;'><strong>Okay</strong></p>","null","neutral_feedback","0","test","45","","","","","","","","","","","","","","","","","","","","","",""
"","","","","","","","","","","","html-button-response","97","2.0.0","200319","672d4ccff9372d646bbd16ba","4","52","2071","","","","","","","","","<img src= ""rock_img/I_Pegmatite_06.jpg"" style=""width:8cm; height:5.17cm;""><p>What type of rock is this?</p>","3","class_response","0","test","46","Gabbro","Pegmatite","06","false","4","6","","","","","","","","","","","","","","","",""
"","","","","","","","","","","","html-keyboard-response","98","2.0.0","200833","672d4ccff9372d646bbd16ba","4","52","null","","","","","","","","","<p style='font-size: 30px;'><strong>Okay</strong></p>","null","neutral_feedback","0","test","46","","","","","","","","","","","","","","","","","","","","","",""
"","","","","","","","","","","","html-button-response","99","2.0.0","203105","672d4ccff9372d646bbd16ba","4","52","2270","","","","","","","","","<img src= ""rock_img/I_Gabbro_08.jpg"" style=""width:8cm; height:5.15cm;""><p>What type of rock is this?</p>","6","class_response","0","test","47","Peridotite","Gabbro","08","false","7","4","","","","","","","","","","","","","","","",""
"","","","","","","","","","","","html-keyboard-response","100","2.0.0","203616","672d4ccff9372d646bbd16ba","4","52","null","","","","","","","","","<p style='font-size: 30px;'><strong>Okay</strong></p>","null","neutral_feedback","0","test","47","","","","","","","","","","","","","","","","","","","","","",""
"","","","","","","","","","","","html-button-response","101","2.0.0","209291","672d4ccff9372d646bbd16ba","4","52","5673","","","","","","","","","<img src= ""rock_img/I_Basalt_16.jpg"" style=""width:8cm; height:7.659999999999999cm;""><p>What type of rock is this?</p>","0","class_response","0","test","48","Andesite","Basalt","16","false","1","2","","","","","","","","","","","","","","","",""
"","","","","","","","","","","","html-keyboard-response","102","2.0.0","209792","672d4ccff9372d646bbd16ba","4","52","null","","","","","","","","","<p style='font-size: 30px;'><strong>Okay</strong></p>","null","neutral_feedback","0","test","48","","","","","","","","","","","","","","","","","","","","","",""
"","","","","","","","","","","","instructions","103","2.0.0","226989","672d4ccff9372d646bbd16ba","4","52","17176","","","","","","","","[{""page_index"":0,""viewing_time"":14470},{""page_index"":1,""viewing_time"":2706}]","","","","","","","","","","","","","","","","","","","","","","","","","","","",""
"","","","","","","","","","","","html-button-response","104","2.0.0","228781","672d4ccff9372d646bbd16ba","4","52","1790","","","","","","","","","","0","start_train","","","","","","","","","","","","","","","","","","","","","","","","",""
"","","","","","","","","","","","html-button-response","106","2.0.0","230490","672d4ccff9372d646bbd16ba","4","52","1708","","","","","","","","","<img src= ""rock_img/I_Gabbro_13.jpg"" style=""width:8cm; height:5.08cm;""><p>What type of rock is this?</p>","0","class_response","1","train","1","Andesite","Gabbro","13","false","1","4","","","","","","","","","","","","","","","",""
"","","","","","","","","","","","html-button-response","107","2.0.0","231908","672d4ccff9372d646bbd16ba","4","52","1416","","","","","","","","","<img src= rock_img/I_Gabbro_13.jpg style=""width:8cm; height:5.08cm;""><p style='font-size: 30px; color: red;'><strong>Incorrect!</strong></p><p style='font-size: 30px;'><strong>This rock is gabbro</strong></p>","0","corr_feedback","1","train","1","","","","","","","","","","","","","","","","","","","","","",""
"","","","","","","","","","","","html-button-response","108","2.0.0","234580","672d4ccff9372d646bbd16ba","4","52","2670","","","","","","","","","<img src= ""rock_img/I_Gabbro_01.jpg"" style=""width:8cm; height:5.21cm;""><p>What type of rock is this?</p>","2","class_response","1","train","2","Diorite","Gabbro","01","false","3","4","","","","","","","","","","","","","","","",""
"","","","","","","","","","","","html-button-response","109","2.0.0","236538","672d4ccff9372d646bbd16ba","4","52","1957","","","","","","","","","<img src= rock_img/I_Gabbro_01.jpg style=""width:8cm; height:5.21cm;""><p style='font-size: 30px; color: red;'><strong>Incorrect!</strong></p><p style='font-size: 30px;'><strong>This rock is gabbro</strong></p>","0","corr_feedback","1","train","2","","","","","","","","","","","","","","","","","","","","","",""
"","","","","","","","","","","","html-button-response","110","2.0.0","242681","672d4ccff9372d646bbd16ba","4","52","6142","","","","","","","","","<img src= ""rock_img/I_Basalt_04.jpg"" style=""width:8cm; height:7.53cm;""><p>What type of rock is this?</p>","2","class_response","1","train","3","Diorite","Basalt","04","false","3","2","","","","","","","","","","","","","","","",""
"","","","","","","","","","","","html-button-response","111","2.0.0","245979","672d4ccff9372d646bbd16ba","4","52","3296","","","","","","","","","<img src= rock_img/I_Basalt_04.jpg style=""width:8cm; height:7.53cm;""><p style='font-size: 30px; color: red;'><strong>Incorrect!</strong></p><p style='font-size: 30px;'><strong>This rock is basalt</strong></p>","0","corr_feedback","1","train","3","","","","","","","","","","","","","","","","","","","","","",""
"","","","","","","","","","","","html-button-response","112","2.0.0","247211","672d4ccff9372d646bbd16ba","4","52","1229","","","","","","","","","<img src= ""rock_img/I_Obsidian_09.jpg"" style=""width:8cm; height:5cm;""><p>What type of rock is this?</p>","4","class_response","1","train","4","Obsidian","Obsidian","09","true","5","5","","","","","","","","","","","","","","","",""
"","","","","","","","","","","","html-button-response","113","2.0.0","248422","672d4ccff9372d646bbd16ba","4","52","1210","","","","","","","","","<img src= rock_img/I_Obsidian_09.jpg style=""width:8cm; height:5cm;""><p style='font-size: 30px; color: green;'><strong>Correct!</strong></p><p style='font-size: 30px;'><strong>This rock is obsidian</strong></p>","0","corr_feedback","1","train","4","","","","","","","","","","","","","","","","","","","","","",""
"","","","","","","","","","","","html-button-response","114","2.0.0","250763","672d4ccff9372d646bbd16ba","4","52","2339","","","","","","","","","<img src= ""rock_img/I_Pegmatite_11.jpg"" style=""width:8cm; height:8.14cm;""><p>What type of rock is this?</p>","5","class_response","1","train","5","Pegmatite","Pegmatite","11","true","6","6","","","","","","","","","","","","","","","",""
"","","","","","","","","","","","html-button-response","115","2.0.0","252273","672d4ccff9372d646bbd16ba","4","52","1508","","","","","","","","","<img src= rock_img/I_Pegmatite_11.jpg style=""width:8cm; height:8.14cm;""><p style='font-size: 30px; color: green;'><strong>Correct!</strong></p><p style='font-size: 30px;'><strong>This rock is pegmatite</strong></p>","0","corr_feedback","1","train","5","","","","","","","","","","","","","","","","","","","","","",""
"","","","","","","","","","","","html-button-response","116","2.0.0","254060","672d4ccff9372d646bbd16ba","4","52","1785","","","","","","","","","<img src= ""rock_img/I_Andesite_14.jpg"" style=""width:8cm; height:5.449999999999999cm;""><p>What type of rock is this?</p>","3","class_response","1","train","6","Gabbro","Andesite","14","false","4","1","","","","","","","","","","","","","","","",""
"","","","","","","","","","","","html-button-response","117","2.0.0","256743","672d4ccff9372d646bbd16ba","4","52","2682","","","","","","","","","<img src= rock_img/I_Andesite_14.jpg style=""width:8cm; height:5.449999999999999cm;""><p style='font-size: 30px; color: red;'><strong>Incorrect!</strong></p><p style='font-size: 30px;'><strong>This rock is andesite</strong></p>","0","corr_feedback","1","train","6","","","","","","","","","","","","","","","","","","","","","",""
"","","","","","","","","","","","html-button-response","118","2.0.0","256762","672d4ccff9372d646bbd16ba","4","52","18","","","","","","","","","<img src= ""rock_img/I_Basalt_14.jpg"" style=""width:8cm; height:5.82cm;""><p>What type of rock is this?</p>","6","class_response","1","train","7","Peridotite","Basalt","14","false","7","2","","","","","","","","","","","","","","","",""
"","","","","","","","","","","","html-button-response","119","2.0.0","261614","672d4ccff9372d646bbd16ba","4","52","4850","","","","","","","","","<img src= rock_img/I_Basalt_14.jpg style=""width:8cm; height:5.82cm;""><p style='font-size: 30px; color: red;'><strong>Incorrect!</strong></p><p style='font-size: 30px;'><strong>This rock is basalt</strong></p>","0","corr_feedback","1","train","7","","","","","","","","","","","","","","","","","","","","","",""
"","","","","","","","","","","","html-button-response","120","2.0.0","264025","672d4ccff9372d646bbd16ba","4","52","2409","","","","","","","","","<img src= ""rock_img/I_Peridotite_12.jpg"" style=""width:8cm; height:4.54cm;""><p>What type of rock is this?</p>","6","class_response","1","train","8","Peridotite","Peridotite","12","true","7","7","","","","","","","","","","","","","","","",""
"","","","","","","","","","","","html-button-response","121","2.0.0","266380","672d4ccff9372d646bbd16ba","4","52","2353","","","","","","","","","<img src= rock_img/I_Peridotite_12.jpg style=""width:8cm; height:4.54cm;""><p style='font-size: 30px; color: green;'><strong>Correct!</strong></p><p style='font-size: 30px;'><strong>This rock is peridotite</strong></p>","0","corr_feedback","1","train","8","","","","","","","","","","","","","","","","","","","","","",""
"","","","","","","","","","","","html-button-response","122","2.0.0","268150","672d4ccff9372d646bbd16ba","4","52","1769","","","","","","","","","<img src= ""rock_img/I_Pumice_15.jpg"" style=""width:8cm; height:7.86cm;""><p>What type of rock is this?</p>","7","class_response","1","train","9","Pumice","Pumice","15","true","8","8","","","","","","","","","","","","","","","",""
"","","","","","","","","","","","html-button-response","123","2.0.0","269855","672d4ccff9372d646bbd16ba","4","52","1703","","","","","","","","","<img src= rock_img/I_Pumice_15.jpg style=""width:8cm; height:7.86cm;""><p style='font-size: 30px; color: green;'><strong>Correct!</strong></p><p style='font-size: 30px;'><strong>This rock is pumice</strong></p>","0","corr_feedback","1","train","9","","","","","","","","","","","","","","","","","","","","","",""
"","","","","","","","","","","","html-button-response","124","2.0.0","271763","672d4ccff9372d646bbd16ba","4","52","1907","","","","","","","","","<img src= ""rock_img/I_Andesite_07.jpg"" style=""width:8cm; height:5.93cm;""><p>What type of rock is this?</p>","2","class_response","1","train","10","Diorite","Andesite","07","false","3","1","","","","","","","","","","","","","","","",""
"","","","","","","","","","","","html-button-response","125","2.0.0","274674","672d4ccff9372d646bbd16ba","4","52","2909","","","","","","","","","<img src= rock_img/I_Andesite_07.jpg style=""width:8cm; height:5.93cm;""><p style='font-size: 30px; color: red;'><strong>Incorrect!</strong></p><p style='font-size: 30px;'><strong>This rock is andesite</strong></p>","0","corr_feedback","1","train","10","","","","","","","","","","","","","","","","","","","","","",""
"","","","","","","","","","","","html-button-response","126","2.0.0","277333","672d4ccff9372d646bbd16ba","4","52","2658","","","","","","","","","<img src= ""rock_img/I_Diorite_12.jpg"" style=""width:8cm; height:4.88cm;""><p>What type of rock is this?</p>","1","class_response","1","train","11","Basalt","Diorite","12","false","2","3","","","","","","","","","","","","","","","",""
"","","","","","","","","","","","html-button-response","127","2.0.0","278768","672d4ccff9372d646bbd16ba","4","52","1433","","","","","","","","","<img src= rock_img/I_Diorite_12.jpg style=""width:8cm; height:4.88cm;""><p style='font-size: 30px; color: red;'><strong>Incorrect!</strong></p><p style='font-size: 30px;'><strong>This rock is diorite</strong></p>","0","corr_feedback","1","train","11","","","","","","","","","","","","","","","","","","","","","",""
"","","","","","","","","","","","html-button-response","128","2.0.0","281607","672d4ccff9372d646bbd16ba","4","52","2837","","","","","","","","","<img src= ""rock_img/I_Peridotite_13.jpg"" style=""width:8cm; height:7.58cm;""><p>What type of rock is this?</p>","5","class_response","1","train","12","Pegmatite","Peridotite","13","false","6","7","","","","","","","","","","","","","","","",""
"","","","","","","","","","","","html-button-response","129","2.0.0","285532","672d4ccff9372d646bbd16ba","4","52","3924","","","","","","","","","<img src= rock_img/I_Peridotite_13.jpg style=""width:8cm; height:7.58cm;""><p style='font-size: 30px; color: red;'><strong>Incorrect!</strong></p><p style='font-size: 30px;'><strong>This rock is peridotite</strong></p>","0","corr_feedback","1","train","12","","","","","","","","","","","","","","","","","","","","","",""
"","","","","","","","","","","","instructions","130","2.0.0","315676","672d4ccff9372d646bbd16ba","4","52","30143","","","","","","","","[{""page_index"":0,""viewing_time"":7570},{""page_index"":1,""viewing_time"":12829},{""page_index"":2,""viewing_time"":4409},{""page_index"":3,""viewing_time"":5335}]","","","","","","","","","","","","","","","","","","","","","","","","","","","",""
"","","","","","","","","","","","html-button-response","131","2.0.0","316580","672d4ccff9372d646bbd16ba","4","52","902","","","","","","","","","","0","start_train","","","","","","","","","","","","","","","","","","","","","","","","",""
"","","","","","","","","","","","html-button-response","132","2.0.0","324016","672d4ccff9372d646bbd16ba","4","52","","","","","","","","","","","","cat_selection","1","train","1","","","","","","","2647.2000000029802","4787","1","6","Andesite","Pegmatite","","","","","","","","","",""
"","","","","","","","","","","","paired-cat-display","133","1.0.0","372431","672d4ccff9372d646bbd16ba","4","52","","","","","","","","","","","","paired_cat_display","1","train","1","","","","","","","","","","","","","Andresite- lots of smaller rocks within it, white looking pebbles","Pegmatite- mostly white or grey rock with streaks of black throughout","9209","39203.20000000298","","","","","",""
"","","","","","","","","","","","html-button-response","134","2.0.0","386254","672d4ccff9372d646bbd16ba","4","52","","","","","","","","","","","","cat_selection","1","train","2","","","","","","","7229.0999999940395","6591.5","2","4","Basalt","Gabbro","","","","","","","","","",""
"","","","","","","","","","","","paired-cat-display","135","1.0.0","502766","672d4ccff9372d646bbd16ba","4","52","","","","","","","","","","","","paired_cat_display","1","train","2","","","","","","","","","","","","","","","19503.90000000596","97004.40000000596","Look kind of like a boulder that you would see while hiking- very flat grey sides, some are reddish","Gabbro looks like pavement with white streaks in it, or reddish rocks with black streaks in it. ","","","",""
"","","","","","","","","","","","html-button-response","136","2.0.0","506072","672d4ccff9372d646bbd16ba","4","52","","","","","","","","","","","","cat_selection","1","train","3","","","","","","","2827.2999999970198","477.70000000298023","3","7","Diorite","Peridotite","","","","","","","","","",""
"","","","","","","","","","","","paired-cat-display","137","1.0.0","552588","672d4ccff9372d646bbd16ba","4","52","","","","","","","","","","","","paired_cat_display","1","train","3","","","","","","","","","","","","","","","6628.5999999940395","39883.60000000894","","","Looks like spots in various color schemes. Diorite spots","Periodotite- usually greener, shinier, can have red spots or steaks ","",""
"","","","","","","","","","","","instructions","138","2.0.0","566290","672d4ccff9372d646bbd16ba","4","52","13701","","","","","","","","[{""page_index"":0,""viewing_time"":5207},{""page_index"":1,""viewing_time"":8494}]","","","","","","","","","","","","","","","","","","","","","","","","","","","",""
"","","","","","","","","","","","html-button-response","139","2.0.0","567856","672d4ccff9372d646bbd16ba","4","52","1564","","","","","","","","","","0","start_test","","","","","","","","","","","","","","","","","","","","","","","","",""
"","","","","","","","","","","","html-button-response","140","2.0.0","577732","672d4ccff9372d646bbd16ba","4","52","9874","","","","","","","","","<img src= ""rock_img/I_Diorite_16.jpg"" style=""width:8cm; height:6.74cm;""><p>What type of rock is this?</p>","2","class_response","1","test","1","Diorite","Diorite","16","true","3","3","","","","","","","","","","","","","","","",""
"","","","","","","","","","","","html-keyboard-response","141","2.0.0","578234","672d4ccff9372d646bbd16ba","4","52","null","","","","","","","","","<p style='font-size: 30px;'><strong>Okay</strong></p>","null","neutral_feedback","1","test","1","","","","","","","","","","","","","","","","","","","","","",""
"","","","","","","","","","","","html-button-response","142","2.0.0","594930","672d4ccff9372d646bbd16ba","4","52","16695","","","","","","","","","<img src= ""rock_img/I_Diorite_13.jpg"" style=""width:8cm; height:6.29cm;""><p>What type of rock is this?</p>","3","class_response","1","test","2","Gabbro","Diorite","13","false","4","3","","","","","","","","","","","","","","","",""
"","","","","","","","","","","","html-keyboard-response","143","2.0.0","595433","672d4ccff9372d646bbd16ba","4","52","null","","","","","","","","","<p style='font-size: 30px;'><strong>Okay</strong></p>","null","neutral_feedback","1","test","2","","","","","","","","","","","","","","","","","","","","","",""
"","","","","","","","","","","","html-button-response","144","2.0.0","607915","672d4ccff9372d646bbd16ba","4","52","12480","","","","","","","","","<img src= ""rock_img/I_Andesite_03.jpg"" style=""width:8cm; height:5.73cm;""><p>What type of rock is this?</p>","5","class_response","1","test","3","Pegmatite","Andesite","03","false","6","1","","","","","","","","","","","","","","","",""
"","","","","","","","","","","","html-keyboard-response","145","2.0.0","608417","672d4ccff9372d646bbd16ba","4","52","null","","","","","","","","","<p style='font-size: 30px;'><strong>Okay</strong></p>","null","neutral_feedback","1","test","3","","","","","","","","","","","","","","","","","","","","","",""
"","","","","","","","","","","","html-button-response","146","2.0.0","610702","672d4ccff9372d646bbd16ba","4","52","2284","","","","","","","","","<img src= ""rock_img/I_Andesite_11.jpg"" style=""width:8cm; height:4.92cm;""><p>What type of rock is this?</p>","0","class_response","1","test","4","Andesite","Andesite","11","true","1","1","","","","","","","","","","","","","","","",""
"","","","","","","","","","","","html-keyboard-response","147","2.0.0","611208","672d4ccff9372d646bbd16ba","4","52","null","","","","","","","","","<p style='font-size: 30px;'><strong>Okay</strong></p>","null","neutral_feedback","1","test","4","","","","","","","","","","","","","","","","","","","","","",""
"","","","","","","","","","","","html-button-response","148","2.0.0","613084","672d4ccff9372d646bbd16ba","4","52","1874","","","","","","","","","<img src= ""rock_img/I_Peridotite_05.jpg"" style=""width:8cm; height:7.1499999999999995cm;""><p>What type of rock is this?</p>","6","class_response","1","test","5","Peridotite","Peridotite","05","true","7","7","","","","","","","","","","","","","","","",""
"","","","","","","","","","","","html-keyboard-response","149","2.0.0","613586","672d4ccff9372d646bbd16ba","4","52","null","","","","","","","","","<p style='font-size: 30px;'><strong>Okay</strong></p>","null","neutral_feedback","1","test","5","","","","","","","","","","","","","","","","","","","","","",""
"","","","","","","","","","","","html-button-response","150","2.0.0","619651","672d4ccff9372d646bbd16ba","4","52","6063","","","","","","","","","<img src= ""rock_img/I_Pegmatite_05.jpg"" style=""width:8cm; height:7.300000000000001cm;""><p>What type of rock is this?</p>","7","class_response","1","test","6","Pumice","Pegmatite","05","false","8","6","","","","","","","","","","","","","","","",""
"","","","","","","","","","","","html-keyboard-response","151","2.0.0","620152","672d4ccff9372d646bbd16ba","4","52","null","","","","","","","","","<p style='font-size: 30px;'><strong>Okay</strong></p>","null","neutral_feedback","1","test","6","","","","","","","","","","","","","","","","","","","","","",""
"","","","","","","","","","","","html-button-response","152","2.0.0","625396","672d4ccff9372d646bbd16ba","4","52","5243","","","","","","","","","<img src= ""rock_img/I_Gabbro_14.jpg"" style=""width:8cm; height:8.48cm;""><p>What type of rock is this?</p>","1","class_response","1","test","7","Basalt","Gabbro","14","false","2","4","","","","","","","","","","","","","","","",""
"","","","","","","","","","","","html-keyboard-response","153","2.0.0","625905","672d4ccff9372d646bbd16ba","4","52","null","","","","","","","","","<p style='font-size: 30px;'><strong>Okay</strong></p>","null","neutral_feedback","1","test","7","","","","","","","","","","","","","","","","","","","","","",""
"","","","","","","","","","","","html-button-response","154","2.0.0","627606","672d4ccff9372d646bbd16ba","4","52","1699","","","","","","","","","<img src= ""rock_img/I_Pumice_08.jpg"" style=""width:8cm; height:6.67cm;""><p>What type of rock is this?</p>","7","class_response","1","test","8","Pumice","Pumice","08","true","8","8","","","","","","","","","","","","","","","",""
"","","","","","","","","","","","html-keyboard-response","155","2.0.0","628107","672d4ccff9372d646bbd16ba","4","52","null","","","","","","","","","<p style='font-size: 30px;'><strong>Okay</strong></p>","null","neutral_feedback","1","test","8","","","","","","","","","","","","","","","","","","","","","",""
"","","","","","","","","","","","html-button-response","156","2.0.0","632873","672d4ccff9372d646bbd16ba","4","52","4764","","","","","","","","","<img src= ""rock_img/I_Pegmatite_06.jpg"" style=""width:8cm; height:5.17cm;""><p>What type of rock is this?</p>","6","class_response","1","test","9","Peridotite","Pegmatite","06","false","7","6","","","","","","","","","","","","","","","",""
"","","","","","","","","","","","html-keyboard-response","157","2.0.0","633374","672d4ccff9372d646bbd16ba","4","52","null","","","","","","","","","<p style='font-size: 30px;'><strong>Okay</strong></p>","null","neutral_feedback","1","test","9","","","","","","","","","","","","","","","","","","","","","",""
"","","","","","","","","","","","html-button-response","158","2.0.0","634585","672d4ccff9372d646bbd16ba","4","52","1209","","","","","","","","","<img src= ""rock_img/I_Peridotite_15.jpg"" style=""width:8cm; height:6cm;""><p>What type of rock is this?</p>","6","class_response","1","test","10","Peridotite","Peridotite","15","true","7","7","","","","","","","","","","","","","","","",""
"","","","","","","","","","","","html-keyboard-response","159","2.0.0","635087","672d4ccff9372d646bbd16ba","4","52","null","","","","","","","","","<p style='font-size: 30px;'><strong>Okay</strong></p>","null","neutral_feedback","1","test","10","","","","","","","","","","","","","","","","","","","","","",""
"","","","","","","","","","","","html-button-response","160","2.0.0","636826","672d4ccff9372d646bbd16ba","4","52","1737","","","","","","","","","<img src= ""rock_img/I_Pumice_03.jpg"" style=""width:8cm; height:6.64cm;""><p>What type of rock is this?</p>","7","class_response","1","test","11","Pumice","Pumice","03","true","8","8","","","","","","","","","","","","","","","",""
"","","","","","","","","","","","html-keyboard-response","161","2.0.0","637328","672d4ccff9372d646bbd16ba","4","52","null","","","","","","","","","<p style='font-size: 30px;'><strong>Okay</strong></p>","null","neutral_feedback","1","test","11","","","","","","","","","","","","","","","","","","","","","",""
"","","","","","","","","","","","html-button-response","162","2.0.0","645334","672d4ccff9372d646bbd16ba","4","52","8003","","","","","","","","","<img src= ""rock_img/I_Pegmatite_16.jpg"" style=""width:8cm; height:5.8cm;""><p>What type of rock is this?</p>","2","class_response","1","test","12","Diorite","Pegmatite","16","false","3","6","","","","","","","","","","","","","","","",""
"","","","","","","","","","","","html-keyboard-response","163","2.0.0","645836","672d4ccff9372d646bbd16ba","4","52","null","","","","","","","","","<p style='font-size: 30px;'><strong>Okay</strong></p>","null","neutral_feedback","1","test","12","","","","","","","","","","","","","","","","","","","","","",""
"","","","","","","","","","","","html-button-response","164","2.0.0","648399","672d4ccff9372d646bbd16ba","4","52","2562","","","","","","","","","<img src= ""rock_img/I_Diorite_08.jpg"" style=""width:8cm; height:6.37cm;""><p>What type of rock is this?</p>","5","class_response","1","test","13","Pegmatite","Diorite","08","false","6","3","","","","","","","","","","","","","","","",""
"","","","","","","","","","","","html-keyboard-response","165","2.0.0","648900","672d4ccff9372d646bbd16ba","4","52","null","","","","","","","","","<p style='font-size: 30px;'><strong>Okay</strong></p>","null","neutral_feedback","1","test","13","","","","","","","","","","","","","","","","","","","","","",""
"","","","","","","","","","","","html-button-response","166","2.0.0","651539","672d4ccff9372d646bbd16ba","4","52","2638","","","","","","","","","<img src= ""rock_img/I_Basalt_11.jpg"" style=""width:8cm; height:5.359999999999999cm;""><p>What type of rock is this?</p>","7","class_response","1","test","14","Pumice","Basalt","11","false","8","2","","","","","","","","","","","","","","","",""
"","","","","","","","","","","","html-keyboard-response","167","2.0.0","652041","672d4ccff9372d646bbd16ba","4","52","null","","","","","","","","","<p style='font-size: 30px;'><strong>Okay</strong></p>","null","neutral_feedback","1","test","14","","","","","","","","","","","","","","","","","","","","","",""
"","","","","","","","","","","","html-button-response","168","2.0.0","654797","672d4ccff9372d646bbd16ba","4","52","2756","","","","","","","","","<img src= ""rock_img/I_Basalt_16.jpg"" style=""width:8cm; height:7.659999999999999cm;""><p>What type of rock is this?</p>","0","class_response","1","test","15","Andesite","Basalt","16","false","1","2","","","","","","","","","","","","","","","",""
"","","","","","","","","","","","html-keyboard-response","169","2.0.0","655306","672d4ccff9372d646bbd16ba","4","52","null","","","","","","","","","<p style='font-size: 30px;'><strong>Okay</strong></p>","null","neutral_feedback","1","test","15","","","","","","","","","","","","","","","","","","","","","",""
"","","","","","","","","","","","html-button-response","170","2.0.0","662334","672d4ccff9372d646bbd16ba","4","52","7027","","","","","","","","","<img src= ""rock_img/I_Andesite_04.jpg"" style=""width:8cm; height:5.96cm;""><p>What type of rock is this?</p>","1","class_response","1","test","16","Basalt","Andesite","04","false","2","1","","","","","","","","","","","","","","","",""
"","","","","","","","","","","","html-keyboard-response","171","2.0.0","662840","672d4ccff9372d646bbd16ba","4","52","null","","","","","","","","","<p style='font-size: 30px;'><strong>Okay</strong></p>","null","neutral_feedback","1","test","16","","","","","","","","","","","","","","","","","","","","","",""
"","","","","","","","","","","","html-button-response","172","2.0.0","665630","672d4ccff9372d646bbd16ba","4","52","2788","","","","","","","","","<img src= ""rock_img/I_Diorite_09.jpg"" style=""width:8cm; height:5.27cm;""><p>What type of rock is this?</p>","2","class_response","1","test","17","Diorite","Diorite","09","true","3","3","","","","","","","","","","","","","","","",""
"","","","","","","","","","","","html-keyboard-response","173","2.0.0","666134","672d4ccff9372d646bbd16ba","4","52","null","","","","","","","","","<p style='font-size: 30px;'><strong>Okay</strong></p>","null","neutral_feedback","1","test","17","","","","","","","","","","","","","","","","","","","","","",""
"","","","","","","","","","","","html-button-response","174","2.0.0","669583","672d4ccff9372d646bbd16ba","4","52","3447","","","","","","","","","<img src= ""rock_img/I_Pumice_10.jpg"" style=""width:8cm; height:7.609999999999999cm;""><p>What type of rock is this?</p>","7","class_response","1","test","18","Pumice","Pumice","10","true","8","8","","","","","","","","","","","","","","","",""
"","","","","","","","","","","","html-keyboard-response","175","2.0.0","670085","672d4ccff9372d646bbd16ba","4","52","null","","","","","","","","","<p style='font-size: 30px;'><strong>Okay</strong></p>","null","neutral_feedback","1","test","18","","","","","","","","","","","","","","","","","","","","","",""
"","","","","","","","","","","","html-button-response","176","2.0.0","673379","672d4ccff9372d646bbd16ba","4","52","3293","","","","","","","","","<img src= ""rock_img/I_Pegmatite_15.jpg"" style=""width:8cm; height:6cm;""><p>What type of rock is this?</p>","3","class_response","1","test","19","Gabbro","Pegmatite","15","false","4","6","","","","","","","","","","","","","","","",""
"","","","","","","","","","","","html-keyboard-response","177","2.0.0","673881","672d4ccff9372d646bbd16ba","4","52","null","","","","","","","","","<p style='font-size: 30px;'><strong>Okay</strong></p>","null","neutral_feedback","1","test","19","","","","","","","","","","","","","","","","","","","","","",""
"","","","","","","","","","","","html-button-response","178","2.0.0","677262","672d4ccff9372d646bbd16ba","4","52","3379","","","","","","","","","<img src= ""rock_img/I_Peridotite_14.jpg"" style=""width:8cm; height:5.3cm;""><p>What type of rock is this?</p>","6","class_response","1","test","20","Peridotite","Peridotite","14","true","7","7","","","","","","","","","","","","","","","",""
"","","","","","","","","","","","html-keyboard-response","179","2.0.0","677766","672d4ccff9372d646bbd16ba","4","52","null","","","","","","","","","<p style='font-size: 30px;'><strong>Okay</strong></p>","null","neutral_feedback","1","test","20","","","","","","","","","","","","","","","","","","","","","",""
"","","","","","","","","","","","html-button-response","180","2.0.0","678996","672d4ccff9372d646bbd16ba","4","52","1228","","","","","","","","","<img src= ""rock_img/I_Obsidian_04.jpg"" style=""width:8cm; height:6.930000000000001cm;""><p>What type of rock is this?</p>","4","class_response","1","test","21","Obsidian","Obsidian","04","true","5","5","","","","","","","","","","","","","","","",""
"","","","","","","","","","","","html-keyboard-response","181","2.0.0","679507","672d4ccff9372d646bbd16ba","4","52","null","","","","","","","","","<p style='font-size: 30px;'><strong>Okay</strong></p>","null","neutral_feedback","1","test","21","","","","","","","","","","","","","","","","","","","","","",""
"","","","","","","","","","","","html-button-response","182","2.0.0","686431","672d4ccff9372d646bbd16ba","4","52","6922","","","","","","","","","<img src= ""rock_img/I_Gabbro_08.jpg"" style=""width:8cm; height:5.15cm;""><p>What type of rock is this?</p>","1","class_response","1","test","22","Basalt","Gabbro","08","false","2","4","","","","","","","","","","","","","","","",""
"","","","","","","","","","","","html-keyboard-response","183","2.0.0","686939","672d4ccff9372d646bbd16ba","4","52","null","","","","","","","","","<p style='font-size: 30px;'><strong>Okay</strong></p>","null","neutral_feedback","1","test","22","","","","","","","","","","","","","","","","","","","","","",""
"","","","","","","","","","","","html-button-response","184","2.0.0","695104","672d4ccff9372d646bbd16ba","4","52","8163","","","","","","","","","<img src= ""rock_img/I_Andesite_16.jpg"" style=""width:8cm; height:6.010000000000001cm;""><p>What type of rock is this?</p>","0","class_response","1","test","23","Andesite","Andesite","16","true","1","1","","","","","","","","","","","","","","","",""
"","","","","","","","","","","","html-keyboard-response","185","2.0.0","695606","672d4ccff9372d646bbd16ba","4","52","null","","","","","","","","","<p style='font-size: 30px;'><strong>Okay</strong></p>","null","neutral_feedback","1","test","23","","","","","","","","","","","","","","","","","","","","","",""
"","","","","","","","","","","","html-button-response","186","2.0.0","696628","672d4ccff9372d646bbd16ba","4","52","1020","","","","","","","","","<img src= ""rock_img/I_Obsidian_08.jpg"" style=""width:8cm; height:7.39cm;""><p>What type of rock is this?</p>","4","class_response","1","test","24","Obsidian","Obsidian","08","true","5","5","","","","","","","","","","","","","","","",""
"","","","","","","","","","","","html-keyboard-response","187","2.0.0","697130","672d4ccff9372d646bbd16ba","4","52","null","","","","","","","","","<p style='font-size: 30px;'><strong>Okay</strong></p>","null","neutral_feedback","1","test","24","","","","","","","","","","","","","","","","","","","","","",""
"","","","","","","","","","","","html-button-response","188","2.0.0","698429","672d4ccff9372d646bbd16ba","4","52","1298","","","","","","","","","<img src= ""rock_img/I_Pegmatite_10.jpg"" style=""width:8cm; height:4.16cm;""><p>What type of rock is this?</p>","6","class_response","1","test","25","Peridotite","Pegmatite","10","false","7","6","","","","","","","","","","","","","","","",""
"","","","","","","","","","","","html-keyboard-response","189","2.0.0","698942","672d4ccff9372d646bbd16ba","4","52","null","","","","","","","","","<p style='font-size: 30px;'><strong>Okay</strong></p>","null","neutral_feedback","1","test","25","","","","","","","","","","","","","","","","","","","","","",""
"","","","","","","","","","","","html-button-response","190","2.0.0","700073","672d4ccff9372d646bbd16ba","4","52","1129","","","","","","","","","<img src= ""rock_img/I_Obsidian_16.jpg"" style=""width:8cm; height:9.3cm;""><p>What type of rock is this?</p>","4","class_response","1","test","26","Obsidian","Obsidian","16","true","5","5","","","","","","","","","","","","","","","",""
"","","","","","","","","","","","html-keyboard-response","191","2.0.0","700576","672d4ccff9372d646bbd16ba","4","52","null","","","","","","","","","<p style='font-size: 30px;'><strong>Okay</strong></p>","null","neutral_feedback","1","test","26","","","","","","","","","","","","","","","","","","","","","",""
"","","","","","","","","","","","html-button-response","192","2.0.0","703875","672d4ccff9372d646bbd16ba","4","52","3297","","","","","","","","","<img src= ""rock_img/I_Gabbro_16.jpg"" style=""width:8cm; height:6.44cm;""><p>What type of rock is this?</p>","0","class_response","1","test","27","Andesite","Gabbro","16","false","1","4","","","","","","","","","","","","","","","",""
"","","","","","","","","","","","html-keyboard-response","193","2.0.0","704377","672d4ccff9372d646bbd16ba","4","52","null","","","","","","","","","<p style='font-size: 30px;'><strong>Okay</strong></p>","null","neutral_feedback","1","test","27","","","","","","","","","","","","","","","","","","","","","",""
"","","","","","","","","","","","html-button-response","194","2.0.0","705399","672d4ccff9372d646bbd16ba","4","52","1020","","","","","","","","","<img src= ""rock_img/I_Obsidian_10.jpg"" style=""width:8cm; height:6.260000000000001cm;""><p>What type of rock is this?</p>","4","class_response","1","test","28","Obsidian","Obsidian","10","true","5","5","","","","","","","","","","","","","","","",""
"","","","","","","","","","","","html-keyboard-response","195","2.0.0","705907","672d4ccff9372d646bbd16ba","4","52","null","","","","","","","","","<p style='font-size: 30px;'><strong>Okay</strong></p>","null","neutral_feedback","1","test","28","","","","","","","","","","","","","","","","","","","","","",""
"","","","","","","","","","","","html-button-response","196","2.0.0","708251","672d4ccff9372d646bbd16ba","4","52","2343","","","","","","","","","<img src= ""rock_img/I_Basalt_01.jpg"" style=""width:8cm; height:7.880000000000001cm;""><p>What type of rock is this?</p>","0","class_response","1","test","29","Andesite","Basalt","01","false","1","2","","","","","","","","","","","","","","","",""
"","","","","","","","","","","","html-keyboard-response","197","2.0.0","708759","672d4ccff9372d646bbd16ba","4","52","null","","","","","","","","","<p style='font-size: 30px;'><strong>Okay</strong></p>","null","neutral_feedback","1","test","29","","","","","","","","","","","","","","","","","","","","","",""
"","","","","","","","","","","","html-button-response","198","2.0.0","710230","672d4ccff9372d646bbd16ba","4","52","1469","","","","","","","","","<img src= ""rock_img/I_Pumice_14.jpg"" style=""width:8cm; height:6.39cm;""><p>What type of rock is this?</p>","7","class_response","1","test","30","Pumice","Pumice","14","true","8","8","","","","","","","","","","","","","","","",""
"","","","","","","","","","","","html-keyboard-response","199","2.0.0","710732","672d4ccff9372d646bbd16ba","4","52","null","","","","","","","","","<p style='font-size: 30px;'><strong>Okay</strong></p>","null","neutral_feedback","1","test","30","","","","","","","","","","","","","","","","","","","","","",""
"","","","","","","","","","","","html-button-response","200","2.0.0","712430","672d4ccff9372d646bbd16ba","4","52","1696","","","","","","","","","<img src= ""rock_img/I_Basalt_08.jpg"" style=""width:8cm; height:10.44cm;""><p>What type of rock is this?</p>","1","class_response","1","test","31","Basalt","Basalt","08","true","2","2","","","","","","","","","","","","","","","",""
"","","","","","","","","","","","html-keyboard-response","201","2.0.0","712943","672d4ccff9372d646bbd16ba","4","52","null","","","","","","","","","<p style='font-size: 30px;'><strong>Okay</strong></p>","null","neutral_feedback","1","test","31","","","","","","","","","","","","","","","","","","","","","",""
"","","","","","","","","","","","html-button-response","202","2.0.0","715696","672d4ccff9372d646bbd16ba","4","52","2750","","","","","","","","","<img src= ""rock_img/I_Basalt_06.jpg"" style=""width:8cm; height:7.06cm;""><p>What type of rock is this?</p>","1","class_response","1","test","32","Basalt","Basalt","06","true","2","2","","","","","","","","","","","","","","","",""
"","","","","","","","","","","","html-keyboard-response","203","2.0.0","716198","672d4ccff9372d646bbd16ba","4","52","null","","","","","","","","","<p style='font-size: 30px;'><strong>Okay</strong></p>","null","neutral_feedback","1","test","32","","","","","","","","","","","","","","","","","","","","","",""
"","","","","","","","","","","","html-button-response","204","2.0.0","722373","672d4ccff9372d646bbd16ba","4","52","6173","","","","","","","","","<img src= ""rock_img/I_Pegmatite_08.jpg"" style=""width:8cm; height:7.68cm;""><p>What type of rock is this?</p>","2","class_response","1","test","33","Diorite","Pegmatite","08","false","3","6","","","","","","","","","","","","","","","",""
"","","","","","","","","","","","html-keyboard-response","205","2.0.0","722874","672d4ccff9372d646bbd16ba","4","52","null","","","","","","","","","<p style='font-size: 30px;'><strong>Okay</strong></p>","null","neutral_feedback","1","test","33","","","","","","","","","","","","","","","","","","","","","",""
"","","","","","","","","","","","html-button-response","206","2.0.0","725419","672d4ccff9372d646bbd16ba","4","52","2543","","","","","","","","","<img src= ""rock_img/I_Diorite_11.jpg"" style=""width:8cm; height:7.11cm;""><p>What type of rock is this?</p>","3","class_response","1","test","34","Gabbro","Diorite","11","false","4","3","","","","","","","","","","","","","","","",""
"","","","","","","","","","","","html-keyboard-response","207","2.0.0","725924","672d4ccff9372d646bbd16ba","4","52","null","","","","","","","","","<p style='font-size: 30px;'><strong>Okay</strong></p>","null","neutral_feedback","1","test","34","","","","","","","","","","","","","","","","","","","","","",""
"","","","","","","","","","","","html-button-response","208","2.0.0","727209","672d4ccff9372d646bbd16ba","4","52","1283","","","","","","","","","<img src= ""rock_img/I_Obsidian_02.jpg"" style=""width:8cm; height:7.51cm;""><p>What type of rock is this?</p>","4","class_response","1","test","35","Obsidian","Obsidian","02","true","5","5","","","","","","","","","","","","","","","",""
"","","","","","","","","","","","html-keyboard-response","209","2.0.0","727725","672d4ccff9372d646bbd16ba","4","52","null","","","","","","","","","<p style='font-size: 30px;'><strong>Okay</strong></p>","null","neutral_feedback","1","test","35","","","","","","","","","","","","","","","","","","","","","",""
"","","","","","","","","","","","html-button-response","210","2.0.0","731668","672d4ccff9372d646bbd16ba","4","52","3941","","","","","","","","","<img src= ""rock_img/I_Peridotite_08.jpg"" style=""width:8cm; height:6.7cm;""><p>What type of rock is this?</p>","6","class_response","1","test","36","Peridotite","Peridotite","08","true","7","7","","","","","","","","","","","","","","","",""
"","","","","","","","","","","","html-keyboard-response","211","2.0.0","732171","672d4ccff9372d646bbd16ba","4","52","null","","","","","","","","","<p style='font-size: 30px;'><strong>Okay</strong></p>","null","neutral_feedback","1","test","36","","","","","","","","","","","","","","","","","","","","","",""
"","","","","","","","","","","","html-button-response","212","2.0.0","735858","672d4ccff9372d646bbd16ba","4","52","3685","","","","","","","","","<img src= ""rock_img/I_Diorite_07.jpg"" style=""width:8cm; height:5.239999999999999cm;""><p>What type of rock is this?</p>","5","class_response","1","test","37","Pegmatite","Diorite","07","false","6","3","","","","","","","","","","","","","","","",""
"","","","","","","","","","","","html-keyboard-response","213","2.0.0","736360","672d4ccff9372d646bbd16ba","4","52","null","","","","","","","","","<p style='font-size: 30px;'><strong>Okay</strong></p>","null","neutral_feedback","1","test","37","","","","","","","","","","","","","","","","","","","","","",""
"","","","","","","","","","","","html-button-response","214","2.0.0","743386","672d4ccff9372d646bbd16ba","4","52","7024","","","","","","","","","<img src= ""rock_img/I_Andesite_02.jpg"" style=""width:8cm; height:8.5cm;""><p>What type of rock is this?</p>","3","class_response","1","test","38","Gabbro","Andesite","02","false","4","1","","","","","","","","","","","","","","","",""
"","","","","","","","","","","","html-keyboard-response","215","2.0.0","743893","672d4ccff9372d646bbd16ba","4","52","null","","","","","","","","","<p style='font-size: 30px;'><strong>Okay</strong></p>","null","neutral_feedback","1","test","38","","","","","","","","","","","","","","","","","","","","","",""
"","","","","","","","","","","","html-button-response","216","2.0.0","745571","672d4ccff9372d646bbd16ba","4","52","1676","","","","","","","","","<img src= ""rock_img/I_Gabbro_05.jpg"" style=""width:8cm; height:6cm;""><p>What type of rock is this?</p>","6","class_response","1","test","39","Peridotite","Gabbro","05","false","7","4","","","","","","","","","","","","","","","",""
"","","","","","","","","","","","html-keyboard-response","217","2.0.0","746075","672d4ccff9372d646bbd16ba","4","52","null","","","","","","","","","<p style='font-size: 30px;'><strong>Okay</strong></p>","null","neutral_feedback","1","test","39","","","","","","","","","","","","","","","","","","","","","",""
"","","","","","","","","","","","html-button-response","218","2.0.0","751478","672d4ccff9372d646bbd16ba","4","52","5402","","","","","","","","","<img src= ""rock_img/I_Basalt_12.jpg"" style=""width:8cm; height:6.010000000000001cm;""><p>What type of rock is this?</p>","7","class_response","1","test","40","Pumice","Basalt","12","false","8","2","","","","","","","","","","","","","","","",""
"","","","","","","","","","","","html-keyboard-response","219","2.0.0","751993","672d4ccff9372d646bbd16ba","4","52","null","","","","","","","","","<p style='font-size: 30px;'><strong>Okay</strong></p>","null","neutral_feedback","1","test","40","","","","","","","","","","","","","","","","","","","","","",""
"","","","","","","","","","","","html-button-response","220","2.0.0","753137","672d4ccff9372d646bbd16ba","4","52","1143","","","","","","","","","<img src= ""rock_img/I_Obsidian_14.jpg"" style=""width:8cm; height:7.64cm;""><p>What type of rock is this?</p>","4","class_response","1","test","41","Obsidian","Obsidian","14","true","5","5","","","","","","","","","","","","","","","",""
"","","","","","","","","","","","html-keyboard-response","221","2.0.0","753639","672d4ccff9372d646bbd16ba","4","52","null","","","","","","","","","<p style='font-size: 30px;'><strong>Okay</strong></p>","null","neutral_feedback","1","test","41","","","","","","","","","","","","","","","","","","","","","",""
"","","","","","","","","","","","html-button-response","222","2.0.0","757349","672d4ccff9372d646bbd16ba","4","52","3708","","","","","","","","","<img src= ""rock_img/I_Gabbro_10.jpg"" style=""width:8cm; height:5.680000000000001cm;""><p>What type of rock is this?</p>","0","class_response","1","test","42","Andesite","Gabbro","10","false","1","4","","","","","","","","","","","","","","","",""
"","","","","","","","","","","","html-keyboard-response","223","2.0.0","757858","672d4ccff9372d646bbd16ba","4","52","null","","","","","","","","","<p style='font-size: 30px;'><strong>Okay</strong></p>","null","neutral_feedback","1","test","42","","","","","","","","","","","","","","","","","","","","","",""
"","","","","","","","","","","","html-button-response","224","2.0.0","759217","672d4ccff9372d646bbd16ba","4","52","1357","","","","","","","","","<img src= ""rock_img/I_Peridotite_07.jpg"" style=""width:8cm; height:4.83cm;""><p>What type of rock is this?</p>","6","class_response","1","test","43","Peridotite","Peridotite","07","true","7","7","","","","","","","","","","","","","","","",""
"","","","","","","","","","","","html-keyboard-response","225","2.0.0","759726","672d4ccff9372d646bbd16ba","4","52","null","","","","","","","","","<p style='font-size: 30px;'><strong>Okay</strong></p>","null","neutral_feedback","1","test","43","","","","","","","","","","","","","","","","","","","","","",""
"","","","","","","","","","","","html-button-response","226","2.0.0","760799","672d4ccff9372d646bbd16ba","4","52","1072","","","","","","","","","<img src= ""rock_img/I_Peridotite_02.jpg"" style=""width:8cm; height:5.859999999999999cm;""><p>What type of rock is this?</p>","6","class_response","1","test","44","Peridotite","Peridotite","02","true","7","7","","","","","","","","","","","","","","","",""
"","","","","","","","","","","","html-keyboard-response","227","2.0.0","761309","672d4ccff9372d646bbd16ba","4","52","null","","","","","","","","","<p style='font-size: 30px;'><strong>Okay</strong></p>","null","neutral_feedback","1","test","44","","","","","","","","","","","","","","","","","","","","","",""
"","","","","","","","","","","","html-button-response","228","2.0.0","765457","672d4ccff9372d646bbd16ba","4","52","4147","","","","","","","","","<img src= ""rock_img/I_Andesite_10.jpg"" style=""width:8cm; height:4.16cm;""><p>What type of rock is this?</p>","3","class_response","1","test","45","Gabbro","Andesite","10","false","4","1","","","","","","","","","","","","","","","",""
"","","","","","","","","","","","html-keyboard-response","229","2.0.0","765958","672d4ccff9372d646bbd16ba","4","52","null","","","","","","","","","<p style='font-size: 30px;'><strong>Okay</strong></p>","null","neutral_feedback","1","test","45","","","","","","","","","","","","","","","","","","","","","",""
"","","","","","","","","","","","html-button-response","230","2.0.0","767303","672d4ccff9372d646bbd16ba","4","52","1342","","","","","","","","","<img src= ""rock_img/I_Pumice_05.jpg"" style=""width:8cm; height:7.25cm;""><p>What type of rock is this?</p>","7","class_response","1","test","46","Pumice","Pumice","05","true","8","8","","","","","","","","","","","","","","","",""
"","","","","","","","","","","","html-keyboard-response","231","2.0.0","767805","672d4ccff9372d646bbd16ba","4","52","null","","","","","","","","","<p style='font-size: 30px;'><strong>Okay</strong></p>","null","neutral_feedback","1","test","46","","","","","","","","","","","","","","","","","","","","","",""
"","","","","","","","","","","","html-button-response","232","2.0.0","773053","672d4ccff9372d646bbd16ba","4","52","5247","","","","","","","","","<img src= ""rock_img/I_Gabbro_03.jpg"" style=""width:8cm; height:8.52cm;""><p>What type of rock is this?</p>","1","class_response","1","test","47","Basalt","Gabbro","03","false","2","4","","","","","","","","","","","","","","","",""
"","","","","","","","","","","","html-keyboard-response","233","2.0.0","773555","672d4ccff9372d646bbd16ba","4","52","null","","","","","","","","","<p style='font-size: 30px;'><strong>Okay</strong></p>","null","neutral_feedback","1","test","47","","","","","","","","","","","","","","","","","","","","","",""
"","","","","","","","","","","","html-button-response","234","2.0.0","775188","672d4ccff9372d646bbd16ba","4","52","1632","","","","","","","","","<img src= ""rock_img/I_Pumice_02.jpg"" style=""width:8cm; height:7.3999999999999995cm;""><p>What type of rock is this?</p>","7","class_response","1","test","48","Pumice","Pumice","02","true","8","8","","","","","","","","","","","","","","","",""
"","","","","","","","","","","","html-keyboard-response","235","2.0.0","775691","672d4ccff9372d646bbd16ba","4","52","null","","","","","","","","","<p style='font-size: 30px;'><strong>Okay</strong></p>","null","neutral_feedback","1","test","48","","","","","","","","","","","","","","","","","","","","","",""
"","","","","","","","","","","","html-button-response","236","2.0.0","823499","672d4ccff9372d646bbd16ba","4","52","","","","","","","","","","","","cycle_feedback","","","","","","","","","","","","","","","","","","","","","","","","15421","32381.60000000894"
"","","","","","","","","","","","html-button-response","238","2.0.0","827645","672d4ccff9372d646bbd16ba","4","52","4145","","","","","","","","","","0","start_train","","","","","","","","","","","","","","","","","","","","","","","","",""
"","","","","","","","","","","","html-button-response","240","2.0.0","828967","672d4ccff9372d646bbd16ba","4","52","1320","","","","","","","","","<img src= ""rock_img/I_Obsidian_09.jpg"" style=""width:8cm; height:5cm;""><p>What type of rock is this?</p>","4","class_response","2","train","1","Obsidian","Obsidian","09","true","5","5","","","","","","","","","","","","","","","",""
"","","","","","","","","","","","html-button-response","241","2.0.0","829908","672d4ccff9372d646bbd16ba","4","52","940","","","","","","","","","<img src= rock_img/I_Obsidian_09.jpg style=""width:8cm; height:5cm;""><p style='font-size: 30px; color: green;'><strong>Correct!</strong></p><p style='font-size: 30px;'><strong>This rock is obsidian</strong></p>","0","corr_feedback","2","train","1","","","","","","","","","","","","","","","","","","","","","",""
"","","","","","","","","","","","html-button-response","242","2.0.0","832583","672d4ccff9372d646bbd16ba","4","52","2673","","","","","","","","","<img src= ""rock_img/I_Pegmatite_11.jpg"" style=""width:8cm; height:8.14cm;""><p>What type of rock is this?</p>","3","class_response","2","train","2","Gabbro","Pegmatite","11","false","4","6","","","","","","","","","","","","","","","",""
"","","","","","","","","","","","html-button-response","243","2.0.0","835415","672d4ccff9372d646bbd16ba","4","52","2831","","","","","","","","","<img src= rock_img/I_Pegmatite_11.jpg style=""width:8cm; height:8.14cm;""><p style='font-size: 30px; color: red;'><strong>Incorrect!</strong></p><p style='font-size: 30px;'><strong>This rock is pegmatite</strong></p>","0","corr_feedback","2","train","2","","","","","","","","","","","","","","","","","","","","","",""
"","","","","","","","","","","","html-button-response","244","2.0.0","837606","672d4ccff9372d646bbd16ba","4","52","2189","","","","","","","","","<img src= ""rock_img/I_Diorite_12.jpg"" style=""width:8cm; height:4.88cm;""><p>What type of rock is this?</p>","3","class_response","2","train","3","Gabbro","Diorite","12","false","4","3","","","","","","","","","","","","","","","",""
"","","","","","","","","","","","html-button-response","245","2.0.0","840593","672d4ccff9372d646bbd16ba","4","52","2987","","","","","","","","","<img src= rock_img/I_Diorite_12.jpg style=""width:8cm; height:4.88cm;""><p style='font-size: 30px; color: red;'><strong>Incorrect!</strong></p><p style='font-size: 30px;'><strong>This rock is diorite</strong></p>","0","corr_feedback","2","train","3","","","","","","","","","","","","","","","","","","","","","",""
"","","","","","","","","","","","html-button-response","246","2.0.0","842048","672d4ccff9372d646bbd16ba","4","52","1453","","","","","","","","","<img src= ""rock_img/I_Pumice_04.jpg"" style=""width:8cm; height:6.819999999999999cm;""><p>What type of rock is this?</p>","7","class_response","2","train","4","Pumice","Pumice","04","true","8","8","","","","","","","","","","","","","","","",""
"","","","","","","","","","","","html-button-response","247","2.0.0","842749","672d4ccff9372d646bbd16ba","4","52","700","","","","","","","","","<img src= rock_img/I_Pumice_04.jpg style=""width:8cm; height:6.819999999999999cm;""><p style='font-size: 30px; color: green;'><strong>Correct!</strong></p><p style='font-size: 30px;'><strong>This rock is pumice</strong></p>","0","corr_feedback","2","train","4","","","","","","","","","","","","","","","","","","","","","",""
"","","","","","","","","","","","html-button-response","248","2.0.0","846679","672d4ccff9372d646bbd16ba","4","52","3928","","","","","","","","","<img src= ""rock_img/I_Andesite_14.jpg"" style=""width:8cm; height:5.449999999999999cm;""><p>What type of rock is this?</p>","1","class_response","2","train","5","Basalt","Andesite","14","false","2","1","","","","","","","","","","","","","","","",""
"","","","","","","","","","","","html-button-response","249","2.0.0","849111","672d4ccff9372d646bbd16ba","4","52","2431","","","","","","","","","<img src= rock_img/I_Andesite_14.jpg style=""width:8cm; height:5.449999999999999cm;""><p style='font-size: 30px; color: red;'><strong>Incorrect!</strong></p><p style='font-size: 30px;'><strong>This rock is andesite</strong></p>","0","corr_feedback","2","train","5","","","","","","","","","","","","","","","","","","","","","",""
"","","","","","","","","","","","html-button-response","250","2.0.0","850270","672d4ccff9372d646bbd16ba","4","52","1156","","","","","","","","","<img src= ""rock_img/I_Pumice_15.jpg"" style=""width:8cm; height:7.86cm;""><p>What type of rock is this?</p>","7","class_response","2","train","6","Pumice","Pumice","15","true","8","8","","","","","","","","","","","","","","","",""
"","","","","","","","","","","","html-button-response","251","2.0.0","850901","672d4ccff9372d646bbd16ba","4","52","630","","","","","","","","","<img src= rock_img/I_Pumice_15.jpg style=""width:8cm; height:7.86cm;""><p style='font-size: 30px; color: green;'><strong>Correct!</strong></p><p style='font-size: 30px;'><strong>This rock is pumice</strong></p>","0","corr_feedback","2","train","6","","","","","","","","","","","","","","","","","","","","","",""
"","","","","","","","","","","","html-button-response","252","2.0.0","853033","672d4ccff9372d646bbd16ba","4","52","2130","","","","","","","","","<img src= ""rock_img/I_Basalt_04.jpg"" style=""width:8cm; height:7.53cm;""><p>What type of rock is this?</p>","1","class_response","2","train","7","Basalt","Basalt","04","true","2","2","","","","","","","","","","","","","","","",""
"","","","","","","","","","","","html-button-response","253","2.0.0","855775","672d4ccff9372d646bbd16ba","4","52","2741","","","","","","","","","<img src= rock_img/I_Basalt_04.jpg style=""width:8cm; height:7.53cm;""><p style='font-size: 30px; color: green;'><strong>Correct!</strong></p><p style='font-size: 30px;'><strong>This rock is basalt</strong></p>","0","corr_feedback","2","train","7","","","","","","","","","","","","","","","","","","","","","",""
"","","","","","","","","","","","html-button-response","254","2.0.0","857590","672d4ccff9372d646bbd16ba","4","52","1813","","","","","","","","","<img src= ""rock_img/I_Gabbro_13.jpg"" style=""width:8cm; height:5.08cm;""><p>What type of rock is this?</p>","3","class_response","2","train","8","Gabbro","Gabbro","13","true","4","4","","","","","","","","","","","","","","","",""
"","","","","","","","","","","","html-button-response","255","2.0.0","858841","672d4ccff9372d646bbd16ba","4","52","1250","","","","","","","","","<img src= rock_img/I_Gabbro_13.jpg style=""width:8cm; height:5.08cm;""><p style='font-size: 30px; color: green;'><strong>Correct!</strong></p><p style='font-size: 30px;'><strong>This rock is gabbro</strong></p>","0","corr_feedback","2","train","8","","","","","","","","","","","","","","","","","","","","","",""
"","","","","","","","","","","","html-button-response","256","2.0.0","862091","672d4ccff9372d646bbd16ba","4","52","3248","","","","","","","","","<img src= ""rock_img/I_Pegmatite_07.jpg"" style=""width:8cm; height:6.7cm;""><p>What type of rock is this?</p>","2","class_response","2","train","9","Diorite","Pegmatite","07","false","3","6","","","","","","","","","","","","","","","",""
"","","","","","","","","","","","html-button-response","257","2.0.0","863860","672d4ccff9372d646bbd16ba","4","52","1766","","","","","","","","","<img src= rock_img/I_Pegmatite_07.jpg style=""width:8cm; height:6.7cm;""><p style='font-size: 30px; color: red;'><strong>Incorrect!</strong></p><p style='font-size: 30px;'><strong>This rock is pegmatite</strong></p>","0","corr_feedback","2","train","9","","","","","","","","","","","","","","","","","","","","","",""
"","","","","","","","","","","","html-button-response","258","2.0.0","865520","672d4ccff9372d646bbd16ba","4","52","1659","","","","","","","","","<img src= ""rock_img/I_Diorite_02.jpg"" style=""width:8cm; height:6.27cm;""><p>What type of rock is this?</p>","6","class_response","2","train","10","Peridotite","Diorite","02","false","7","3","","","","","","","","","","","","","","","",""
"","","","","","","","","","","","html-button-response","259","2.0.0","866503","672d4ccff9372d646bbd16ba","4","52","982","","","","","","","","","<img src= rock_img/I_Diorite_02.jpg style=""width:8cm; height:6.27cm;""><p style='font-size: 30px; color: red;'><strong>Incorrect!</strong></p><p style='font-size: 30px;'><strong>This rock is diorite</strong></p>","0","corr_feedback","2","train","10","","","","","","","","","","","","","","","","","","","","","",""
"","","","","","","","","","","","html-button-response","260","2.0.0","867742","672d4ccff9372d646bbd16ba","4","52","1237","","","","","","","","","<img src= ""rock_img/I_Obsidian_11.jpg"" style=""width:8cm; height:6.05cm;""><p>What type of rock is this?</p>","4","class_response","2","train","11","Obsidian","Obsidian","11","true","5","5","","","","","","","","","","","","","","","",""
"","","","","","","","","","","","html-button-response","261","2.0.0","868307","672d4ccff9372d646bbd16ba","4","52","564","","","","","","","","","<img src= rock_img/I_Obsidian_11.jpg style=""width:8cm; height:6.05cm;""><p style='font-size: 30px; color: green;'><strong>Correct!</strong></p><p style='font-size: 30px;'><strong>This rock is obsidian</strong></p>","0","corr_feedback","2","train","11","","","","","","","","","","","","","","","","","","","","","",""
"","","","","","","","","","","","html-button-response","262","2.0.0","869308","672d4ccff9372d646bbd16ba","4","52","999","","","","","","","","","<img src= ""rock_img/I_Peridotite_13.jpg"" style=""width:8cm; height:7.58cm;""><p>What type of rock is this?</p>","6","class_response","2","train","12","Peridotite","Peridotite","13","true","7","7","","","","","","","","","","","","","","","",""
"","","","","","","","","","","","html-button-response","263","2.0.0","870233","672d4ccff9372d646bbd16ba","4","52","924","","","","","","","","","<img src= rock_img/I_Peridotite_13.jpg style=""width:8cm; height:7.58cm;""><p style='font-size: 30px; color: green;'><strong>Correct!</strong></p><p style='font-size: 30px;'><strong>This rock is peridotite</strong></p>","0","corr_feedback","2","train","12","","","","","","","","","","","","","","","","","","","","","",""
"","","","","","","","","","","","html-button-response","265","2.0.0","878467","672d4ccff9372d646bbd16ba","4","52","8233","","","","","","","","","","0","start_train","","","","","","","","","","","","","","","","","","","","","","","","",""
"","","","","","","","","","","","html-button-response","266","2.0.0","886090","672d4ccff9372d646bbd16ba","4","52","","","","","","","","","","","","cat_selection","2","train","1","","","","","","","2948.2999999970198","4672.29999999702","4","1","Gabbro","Andesite","","","","","","","","","",""
"","","","","","","","","","","","paired-cat-display","267","1.0.0","954219","672d4ccff9372d646bbd16ba","4","52","","","","","","","","","","","","paired_cat_display","2","train","1","","","","","","","","","","","","","Andesite has more smaller pebbles in it. Like smaller rocks within larger rocks. Rounder in shape than most gabbro","","9858.29999999702","58267.70000000298","","Mostly square or rectangular. Hard to discern a pattern in Gabbro rocks.","","","",""
"","","","","","","","","","","","html-button-response","268","2.0.0","964326","672d4ccff9372d646bbd16ba","4","52","","","","","","","","","","","","cat_selection","2","train","2","","","","","","","7572.600000008941","2532.3999999910593","2","6","Basalt","Pegmatite","","","","","","","","","",""
"","","","","","","","","","","","paired-cat-display","269","1.0.0","1008993","672d4ccff9372d646bbd16ba","4","52","","","","","","","","","","","","paired_cat_display","2","train","2","","","","","","","","","","","","","","Pegmatite, has shiny striations in the rock, as if a gemstone is within it. Gem = peg.","6591.100000008941","38072.10000000894","Basalt- smooth, little bro to obsidian in looks, not as shiny","","","","",""
"","","","","","","","","","","","html-button-response","270","2.0.0","1014111","672d4ccff9372d646bbd16ba","4","52","","","","","","","","","","","","cat_selection","2","train","3","","","","","","","4494.70000000298","620.5","3","7","Diorite","Peridotite","","","","","","","","","",""
"","","","","","","","","","","","paired-cat-display","271","1.0.0","1061459","672d4ccff9372d646bbd16ba","4","52","","","","","","","","","","","","paired_cat_display","2","train","3","","","","","","","","","","","","","","","7774","39571","","","Diorite- peppery looking texture of two colors coming together. Can really be any color","Any shiny and green rock is probably Peridotite. Or green/red marks","",""
"","","","","","","","","","","","html-button-response","273","2.0.0","1063494","672d4ccff9372d646bbd16ba","4","52","2033","","","","","","","","","","0","start_test","","","","","","","","","","","","","","","","","","","","","","","","",""
"","","","","","","","","","","","html-button-response","274","2.0.0","1065379","672d4ccff9372d646bbd16ba","4","52","1882","","","","","","","","","<img src= ""rock_img/I_Pumice_08.jpg"" style=""width:8cm; height:6.67cm;""><p>What type of rock is this?</p>","7","class_response","2","test","1","Pumice","Pumice","08","true","8","8","","","","","","","","","","","","","","","",""
"","","","","","","","","","","","html-keyboard-response","275","2.0.0","1065880","672d4ccff9372d646bbd16ba","4","52","null","","","","","","","","","<p style='font-size: 30px;'><strong>Okay</strong></p>","null","neutral_feedback","2","test","1","","","","","","","","","","","","","","","","","","","","","",""
"","","","","","","","","","","","html-button-response","276","2.0.0","1069383","672d4ccff9372d646bbd16ba","4","52","3501","","","","","","","","","<img src= ""rock_img/I_Basalt_16.jpg"" style=""width:8cm; height:7.659999999999999cm;""><p>What type of rock is this?</p>","1","class_response","2","test","2","Basalt","Basalt","16","true","2","2","","","","","","","","","","","","","","","",""
"","","","","","","","","","","","html-keyboard-response","277","2.0.0","1069885","672d4ccff9372d646bbd16ba","4","52","null","","","","","","","","","<p style='font-size: 30px;'><strong>Okay</strong></p>","null","neutral_feedback","2","test","2","","","","","","","","","","","","","","","","","","","","","",""
"","","","","","","","","","","","html-button-response","278","2.0.0","1073285","672d4ccff9372d646bbd16ba","4","52","3398","","","","","","","","","<img src= ""rock_img/I_Pegmatite_08.jpg"" style=""width:8cm; height:7.68cm;""><p>What type of rock is this?</p>","5","class_response","2","test","3","Pegmatite","Pegmatite","08","true","6","6","","","","","","","","","","","","","","","",""
"","","","","","","","","","","","html-keyboard-response","279","2.0.0","1073786","672d4ccff9372d646bbd16ba","4","52","null","","","","","","","","","<p style='font-size: 30px;'><strong>Okay</strong></p>","null","neutral_feedback","2","test","3","","","","","","","","","","","","","","","","","","","","","",""
"","","","","","","","","","","","html-button-response","280","2.0.0","1077413","672d4ccff9372d646bbd16ba","4","52","3625","","","","","","","","","<img src= ""rock_img/I_Andesite_03.jpg"" style=""width:8cm; height:5.73cm;""><p>What type of rock is this?</p>","3","class_response","2","test","4","Gabbro","Andesite","03","false","4","1","","","","","","","","","","","","","","","",""
"","","","","","","","","","","","html-keyboard-response","281","2.0.0","1077915","672d4ccff9372d646bbd16ba","4","52","null","","","","","","","","","<p style='font-size: 30px;'><strong>Okay</strong></p>","null","neutral_feedback","2","test","4","","","","","","","","","","","","","","","","","","","","","",""
