"width","height","webaudio","browser","browser_version","mobile","os","fullscreen","vsync_rate","webcam","microphone","trial_type","trial_index","plugin_version","time_elapsed","subjID","condition","stimID","rt","url","success","value","timeout","failed_images","failed_audio","failed_video","view_history","stimulus","response","trialType","cycle","phase","trial","resp","cat","token","corr","resp_num","cat_num","rt_ref","rt_paired","ref_cat_num","paired_cat_num","ref_cat","paired_cat","text_Gabbro","text_Peridotite","time_obs","time_resp","text_Andesite","text_Basalt","text_Diorite","text_Pegmatite","time_fb1","time_fb2","text_Obsidian"
"1366","633","true","chrome","131.0.0","false","Windows 10","true","60.58","true","true","browser-check","0","2.0.0","2794","5ef246c6d2b9060809858e7e","4","43","","","","","","","","","","","","","","","","","","","","","","","","","","","","","","","","","","","","","",""
"","","","","","","","","","","","external-html","1","2.0.0","86106","5ef246c6d2b9060809858e7e","4","43","83224","consent_form.html","","","","","","","","","","","","","","","","","","","","","","","","","","","","","","","","","","","",""
"","","","","","","","","","","","fullscreen","2","2.0.0","93125","5ef246c6d2b9060809858e7e","4","43","6010","","true","","","","","","","","","","","","","","","","","","","","","","","","","","","","","","","","","","",""
"","","","","","","","","","","","call-function","3","2.0.0","93130","5ef246c6d2b9060809858e7e","4","43","","","","{}","","","","","","","","","","","","","","","","","","","","","","","","","","","","","","","","","",""
"","","","","","","","","","","","preload","4","2.0.0","95216","5ef246c6d2b9060809858e7e","4","43","","","true","","false","[]","[]","[]","","","","","","","","","","","","","","","","","","","","","","","","","","","","","",""
"","","","","","","","","","","","instructions","5","2.0.0","129390","5ef246c6d2b9060809858e7e","4","43","34171","","","","","","","","[{""page_index"":0,""viewing_time"":5593},{""page_index"":1,""viewing_time"":17249},{""page_index"":2,""viewing_time"":11328}]","","","","","","","","","","","","","","","","","","","","","","","","","","","","",""
"","","","","","","","","","","","html-button-response","6","2.0.0","132025","5ef246c6d2b9060809858e7e","4","43","2629","","","","","","","","","","0","start_test","","","","","","","","","","","","","","","","","","","","","","","","","",""
"","","","","","","","","","","","html-button-response","7","2.0.0","136105","5ef246c6d2b9060809858e7e","4","43","4073","","","","","","","","","<img src= ""rock_img/I_Gabbro_08.jpg"" style=""width:8cm; height:5.15cm;""><p>What type of rock is this?</p>","7","class_response","0","test","1","Pumice","Gabbro","08","false","8","4","","","","","","","","","","","","","","","","",""
"","","","","","","","","","","","html-keyboard-response","8","2.0.0","136622","5ef246c6d2b9060809858e7e","4","43","null","","","","","","","","","<p style='font-size: 30px;'><strong>Okay</strong></p>","null","neutral_feedback","0","test","1","","","","","","","","","","","","","","","","","","","","","","",""
"","","","","","","","","","","","html-button-response","9","2.0.0","138033","5ef246c6d2b9060809858e7e","4","43","1405","","","","","","","","","<img src= ""rock_img/I_Pumice_10.jpg"" style=""width:8cm; height:7.609999999999999cm;""><p>What type of rock is this?</p>","7","class_response","0","test","2","Pumice","Pumice","10","true","8","8","","","","","","","","","","","","","","","","",""
"","","","","","","","","","","","html-keyboard-response","10","2.0.0","138540","5ef246c6d2b9060809858e7e","4","43","null","","","","","","","","","<p style='font-size: 30px;'><strong>Okay</strong></p>","null","neutral_feedback","0","test","2","","","","","","","","","","","","","","","","","","","","","","",""
"","","","","","","","","","","","html-button-response","11","2.0.0","141622","5ef246c6d2b9060809858e7e","4","43","3077","","","","","","","","","<img src= ""rock_img/I_Pegmatite_08.jpg"" style=""width:8cm; height:7.68cm;""><p>What type of rock is this?</p>","0","class_response","0","test","3","Andesite","Pegmatite","08","false","1","6","","","","","","","","","","","","","","","","",""
"","","","","","","","","","","","html-keyboard-response","12","2.0.0","142133","5ef246c6d2b9060809858e7e","4","43","null","","","","","","","","","<p style='font-size: 30px;'><strong>Okay</strong></p>","null","neutral_feedback","0","test","3","","","","","","","","","","","","","","","","","","","","","","",""
"","","","","","","","","","","","html-button-response","13","2.0.0","144439","5ef246c6d2b9060809858e7e","4","43","2301","","","","","","","","","<img src= ""rock_img/I_Pumice_02.jpg"" style=""width:8cm; height:7.3999999999999995cm;""><p>What type of rock is this?</p>","7","class_response","0","test","4","Pumice","Pumice","02","true","8","8","","","","","","","","","","","","","","","","",""
"","","","","","","","","","","","html-keyboard-response","14","2.0.0","144946","5ef246c6d2b9060809858e7e","4","43","null","","","","","","","","","<p style='font-size: 30px;'><strong>Okay</strong></p>","null","neutral_feedback","0","test","4","","","","","","","","","","","","","","","","","","","","","","",""
"","","","","","","","","","","","html-button-response","15","2.0.0","146644","5ef246c6d2b9060809858e7e","4","43","1693","","","","","","","","","<img src= ""rock_img/I_Pegmatite_13.jpg"" style=""width:8cm; height:4.95cm;""><p>What type of rock is this?</p>","6","class_response","0","test","5","Peridotite","Pegmatite","13","false","7","6","","","","","","","","","","","","","","","","",""
"","","","","","","","","","","","html-keyboard-response","16","2.0.0","147154","5ef246c6d2b9060809858e7e","4","43","null","","","","","","","","","<p style='font-size: 30px;'><strong>Okay</strong></p>","null","neutral_feedback","0","test","5","","","","","","","","","","","","","","","","","","","","","","",""
"","","","","","","","","","","","html-button-response","17","2.0.0","149363","5ef246c6d2b9060809858e7e","4","43","2204","","","","","","","","","<img src= ""rock_img/I_Pumice_13.jpg"" style=""width:8cm; height:8.200000000000001cm;""><p>What type of rock is this?</p>","3","class_response","0","test","6","Gabbro","Pumice","13","false","4","8","","","","","","","","","","","","","","","","",""
"","","","","","","","","","","","html-keyboard-response","18","2.0.0","149869","5ef246c6d2b9060809858e7e","4","43","null","","","","","","","","","<p style='font-size: 30px;'><strong>Okay</strong></p>","null","neutral_feedback","0","test","6","","","","","","","","","","","","","","","","","","","","","","",""
"","","","","","","","","","","","html-button-response","19","2.0.0","152540","5ef246c6d2b9060809858e7e","4","43","2667","","","","","","","","","<img src= ""rock_img/I_Pegmatite_06.jpg"" style=""width:8cm; height:5.17cm;""><p>What type of rock is this?</p>","2","class_response","0","test","7","Diorite","Pegmatite","06","false","3","6","","","","","","","","","","","","","","","","",""
"","","","","","","","","","","","html-keyboard-response","20","2.0.0","153044","5ef246c6d2b9060809858e7e","4","43","null","","","","","","","","","<p style='font-size: 30px;'><strong>Okay</strong></p>","null","neutral_feedback","0","test","7","","","","","","","","","","","","","","","","","","","","","","",""
"","","","","","","","","","","","html-button-response","21","2.0.0","154835","5ef246c6d2b9060809858e7e","4","43","1785","","","","","","","","","<img src= ""rock_img/I_Andesite_02.jpg"" style=""width:8cm; height:8.5cm;""><p>What type of rock is this?</p>","5","class_response","0","test","8","Pegmatite","Andesite","02","false","6","1","","","","","","","","","","","","","","","","",""
"","","","","","","","","","","","html-keyboard-response","22","2.0.0","155340","5ef246c6d2b9060809858e7e","4","43","null","","","","","","","","","<p style='font-size: 30px;'><strong>Okay</strong></p>","null","neutral_feedback","0","test","8","","","","","","","","","","","","","","","","","","","","","","",""
"","","","","","","","","","","","html-button-response","23","2.0.0","157192","5ef246c6d2b9060809858e7e","4","43","1848","","","","","","","","","<img src= ""rock_img/I_Gabbro_10.jpg"" style=""width:8cm; height:5.680000000000001cm;""><p>What type of rock is this?</p>","1","class_response","0","test","9","Basalt","Gabbro","10","false","2","4","","","","","","","","","","","","","","","","",""
"","","","","","","","","","","","html-keyboard-response","24","2.0.0","157697","5ef246c6d2b9060809858e7e","4","43","null","","","","","","","","","<p style='font-size: 30px;'><strong>Okay</strong></p>","null","neutral_feedback","0","test","9","","","","","","","","","","","","","","","","","","","","","","",""
"","","","","","","","","","","","html-button-response","25","2.0.0","159390","5ef246c6d2b9060809858e7e","4","43","1689","","","","","","","","","<img src= ""rock_img/I_Basalt_16.jpg"" style=""width:8cm; height:7.659999999999999cm;""><p>What type of rock is this?</p>","2","class_response","0","test","10","Diorite","Basalt","16","false","3","2","","","","","","","","","","","","","","","","",""
"","","","","","","","","","","","html-keyboard-response","26","2.0.0","159899","5ef246c6d2b9060809858e7e","4","43","null","","","","","","","","","<p style='font-size: 30px;'><strong>Okay</strong></p>","null","neutral_feedback","0","test","10","","","","","","","","","","","","","","","","","","","","","","",""
"","","","","","","","","","","","html-button-response","27","2.0.0","161544","5ef246c6d2b9060809858e7e","4","43","1640","","","","","","","","","<img src= ""rock_img/I_Obsidian_09.jpg"" style=""width:8cm; height:5cm;""><p>What type of rock is this?</p>","4","class_response","0","test","11","Obsidian","Obsidian","09","true","5","5","","","","","","","","","","","","","","","","",""
"","","","","","","","","","","","html-keyboard-response","28","2.0.0","162049","5ef246c6d2b9060809858e7e","4","43","null","","","","","","","","","<p style='font-size: 30px;'><strong>Okay</strong></p>","null","neutral_feedback","0","test","11","","","","","","","","","","","","","","","","","","","","","","",""
"","","","","","","","","","","","html-button-response","29","2.0.0","163688","5ef246c6d2b9060809858e7e","4","43","1634","","","","","","","","","<img src= ""rock_img/I_Pumice_05.jpg"" style=""width:8cm; height:7.25cm;""><p>What type of rock is this?</p>","7","class_response","0","test","12","Pumice","Pumice","05","true","8","8","","","","","","","","","","","","","","","","",""
"","","","","","","","","","","","html-keyboard-response","30","2.0.0","164196","5ef246c6d2b9060809858e7e","4","43","null","","","","","","","","","<p style='font-size: 30px;'><strong>Okay</strong></p>","null","neutral_feedback","0","test","12","","","","","","","","","","","","","","","","","","","","","","",""
"","","","","","","","","","","","html-button-response","31","2.0.0","166122","5ef246c6d2b9060809858e7e","4","43","1921","","","","","","","","","<img src= ""rock_img/I_Pegmatite_09.jpg"" style=""width:8cm; height:4.03cm;""><p>What type of rock is this?</p>","6","class_response","0","test","13","Peridotite","Pegmatite","09","false","7","6","","","","","","","","","","","","","","","","",""
"","","","","","","","","","","","html-keyboard-response","32","2.0.0","166637","5ef246c6d2b9060809858e7e","4","43","null","","","","","","","","","<p style='font-size: 30px;'><strong>Okay</strong></p>","null","neutral_feedback","0","test","13","","","","","","","","","","","","","","","","","","","","","","",""
"","","","","","","","","","","","html-button-response","33","2.0.0","168601","5ef246c6d2b9060809858e7e","4","43","1960","","","","","","","","","<img src= ""rock_img/I_Peridotite_14.jpg"" style=""width:8cm; height:5.3cm;""><p>What type of rock is this?</p>","1","class_response","0","test","14","Basalt","Peridotite","14","false","2","7","","","","","","","","","","","","","","","","",""
"","","","","","","","","","","","html-keyboard-response","34","2.0.0","169109","5ef246c6d2b9060809858e7e","4","43","null","","","","","","","","","<p style='font-size: 30px;'><strong>Okay</strong></p>","null","neutral_feedback","0","test","14","","","","","","","","","","","","","","","","","","","","","","",""
"","","","","","","","","","","","html-button-response","35","2.0.0","170688","5ef246c6d2b9060809858e7e","4","43","1574","","","","","","","","","<img src= ""rock_img/I_Basalt_11.jpg"" style=""width:8cm; height:5.359999999999999cm;""><p>What type of rock is this?</p>","7","class_response","0","test","15","Pumice","Basalt","11","false","8","2","","","","","","","","","","","","","","","","",""
"","","","","","","","","","","","html-keyboard-response","36","2.0.0","171194","5ef246c6d2b9060809858e7e","4","43","null","","","","","","","","","<p style='font-size: 30px;'><strong>Okay</strong></p>","null","neutral_feedback","0","test","15","","","","","","","","","","","","","","","","","","","","","","",""
"","","","","","","","","","","","html-button-response","37","2.0.0","172508","5ef246c6d2b9060809858e7e","4","43","1309","","","","","","","","","<img src= ""rock_img/I_Pumice_15.jpg"" style=""width:8cm; height:7.86cm;""><p>What type of rock is this?</p>","7","class_response","0","test","16","Pumice","Pumice","15","true","8","8","","","","","","","","","","","","","","","","",""
"","","","","","","","","","","","html-keyboard-response","38","2.0.0","173013","5ef246c6d2b9060809858e7e","4","43","null","","","","","","","","","<p style='font-size: 30px;'><strong>Okay</strong></p>","null","neutral_feedback","0","test","16","","","","","","","","","","","","","","","","","","","","","","",""
"","","","","","","","","","","","html-button-response","39","2.0.0","174374","5ef246c6d2b9060809858e7e","4","43","1356","","","","","","","","","<img src= ""rock_img/I_Gabbro_12.jpg"" style=""width:8cm; height:7.800000000000001cm;""><p>What type of rock is this?</p>","3","class_response","0","test","17","Gabbro","Gabbro","12","true","4","4","","","","","","","","","","","","","","","","",""
"","","","","","","","","","","","html-keyboard-response","40","2.0.0","174882","5ef246c6d2b9060809858e7e","4","43","null","","","","","","","","","<p style='font-size: 30px;'><strong>Okay</strong></p>","null","neutral_feedback","0","test","17","","","","","","","","","","","","","","","","","","","","","","",""
"","","","","","","","","","","","html-button-response","41","2.0.0","176086","5ef246c6d2b9060809858e7e","4","43","1201","","","","","","","","","<img src= ""rock_img/I_Gabbro_09.jpg"" style=""width:8cm; height:7.279999999999999cm;""><p>What type of rock is this?</p>","2","class_response","0","test","18","Diorite","Gabbro","09","false","3","4","","","","","","","","","","","","","","","","",""
"","","","","","","","","","","","html-keyboard-response","42","2.0.0","176598","5ef246c6d2b9060809858e7e","4","43","null","","","","","","","","","<p style='font-size: 30px;'><strong>Okay</strong></p>","null","neutral_feedback","0","test","18","","","","","","","","","","","","","","","","","","","","","","",""
"","","","","","","","","","","","html-button-response","43","2.0.0","178309","5ef246c6d2b9060809858e7e","4","43","1707","","","","","","","","","<img src= ""rock_img/I_Diorite_16.jpg"" style=""width:8cm; height:6.74cm;""><p>What type of rock is this?</p>","4","class_response","0","test","19","Obsidian","Diorite","16","false","5","3","","","","","","","","","","","","","","","","",""
"","","","","","","","","","","","html-keyboard-response","44","2.0.0","178816","5ef246c6d2b9060809858e7e","4","43","null","","","","","","","","","<p style='font-size: 30px;'><strong>Okay</strong></p>","null","neutral_feedback","0","test","19","","","","","","","","","","","","","","","","","","","","","","",""
"","","","","","","","","","","","html-button-response","45","2.0.0","179804","5ef246c6d2b9060809858e7e","4","43","983","","","","","","","","","<img src= ""rock_img/I_Diorite_13.jpg"" style=""width:8cm; height:6.29cm;""><p>What type of rock is this?</p>","4","class_response","0","test","20","Obsidian","Diorite","13","false","5","3","","","","","","","","","","","","","","","","",""
"","","","","","","","","","","","html-keyboard-response","46","2.0.0","180312","5ef246c6d2b9060809858e7e","4","43","null","","","","","","","","","<p style='font-size: 30px;'><strong>Okay</strong></p>","null","neutral_feedback","0","test","20","","","","","","","","","","","","","","","","","","","","","","",""
"","","","","","","","","","","","html-button-response","47","2.0.0","181269","5ef246c6d2b9060809858e7e","4","43","952","","","","","","","","","<img src= ""rock_img/I_Peridotite_16.jpg"" style=""width:8cm; height:6.989999999999999cm;""><p>What type of rock is this?</p>","4","class_response","0","test","21","Obsidian","Peridotite","16","false","5","7","","","","","","","","","","","","","","","","",""
"","","","","","","","","","","","html-keyboard-response","48","2.0.0","181786","5ef246c6d2b9060809858e7e","4","43","null","","","","","","","","","<p style='font-size: 30px;'><strong>Okay</strong></p>","null","neutral_feedback","0","test","21","","","","","","","","","","","","","","","","","","","","","","",""
"","","","","","","","","","","","html-button-response","49","2.0.0","182751","5ef246c6d2b9060809858e7e","4","43","960","","","","","","","","","<img src= ""rock_img/I_Obsidian_14.jpg"" style=""width:8cm; height:7.64cm;""><p>What type of rock is this?</p>","4","class_response","0","test","22","Obsidian","Obsidian","14","true","5","5","","","","","","","","","","","","","","","","",""
"","","","","","","","","","","","html-keyboard-response","50","2.0.0","183258","5ef246c6d2b9060809858e7e","4","43","null","","","","","","","","","<p style='font-size: 30px;'><strong>Okay</strong></p>","null","neutral_feedback","0","test","22","","","","","","","","","","","","","","","","","","","","","","",""
"","","","","","","","","","","","html-button-response","51","2.0.0","185676","5ef246c6d2b9060809858e7e","4","43","2414","","","","","","","","","<img src= ""rock_img/I_Pegmatite_11.jpg"" style=""width:8cm; height:8.14cm;""><p>What type of rock is this?</p>","5","class_response","0","test","23","Pegmatite","Pegmatite","11","true","6","6","","","","","","","","","","","","","","","","",""
"","","","","","","","","","","","html-keyboard-response","52","2.0.0","186194","5ef246c6d2b9060809858e7e","4","43","null","","","","","","","","","<p style='font-size: 30px;'><strong>Okay</strong></p>","null","neutral_feedback","0","test","23","","","","","","","","","","","","","","","","","","","","","","",""
"","","","","","","","","","","","html-button-response","53","2.0.0","187900","5ef246c6d2b9060809858e7e","4","43","1702","","","","","","","","","<img src= ""rock_img/I_Gabbro_14.jpg"" style=""width:8cm; height:8.48cm;""><p>What type of rock is this?</p>","2","class_response","0","test","24","Diorite","Gabbro","14","false","3","4","","","","","","","","","","","","","","","","",""
"","","","","","","","","","","","html-keyboard-response","54","2.0.0","188418","5ef246c6d2b9060809858e7e","4","43","null","","","","","","","","","<p style='font-size: 30px;'><strong>Okay</strong></p>","null","neutral_feedback","0","test","24","","","","","","","","","","","","","","","","","","","","","","",""
"","","","","","","","","","","","html-button-response","55","2.0.0","190802","5ef246c6d2b9060809858e7e","4","43","2379","","","","","","","","","<img src= ""rock_img/I_Pegmatite_07.jpg"" style=""width:8cm; height:6.7cm;""><p>What type of rock is this?</p>","6","class_response","0","test","25","Peridotite","Pegmatite","07","false","7","6","","","","","","","","","","","","","","","","",""
"","","","","","","","","","","","html-keyboard-response","56","2.0.0","191306","5ef246c6d2b9060809858e7e","4","43","null","","","","","","","","","<p style='font-size: 30px;'><strong>Okay</strong></p>","null","neutral_feedback","0","test","25","","","","","","","","","","","","","","","","","","","","","","",""
"","","","","","","","","","","","html-button-response","57","2.0.0","192687","5ef246c6d2b9060809858e7e","4","43","1378","","","","","","","","","<img src= ""rock_img/I_Obsidian_05.jpg"" style=""width:8cm; height:6.33cm;""><p>What type of rock is this?</p>","4","class_response","0","test","26","Obsidian","Obsidian","05","true","5","5","","","","","","","","","","","","","","","","",""
"","","","","","","","","","","","html-keyboard-response","58","2.0.0","193191","5ef246c6d2b9060809858e7e","4","43","null","","","","","","","","","<p style='font-size: 30px;'><strong>Okay</strong></p>","null","neutral_feedback","0","test","26","","","","","","","","","","","","","","","","","","","","","","",""
"","","","","","","","","","","","html-button-response","59","2.0.0","194612","5ef246c6d2b9060809858e7e","4","43","1418","","","","","","","","","<img src= ""rock_img/I_Andesite_01.jpg"" style=""width:8cm; height:5.87cm;""><p>What type of rock is this?</p>","0","class_response","0","test","27","Andesite","Andesite","01","true","1","1","","","","","","","","","","","","","","","","",""
"","","","","","","","","","","","html-keyboard-response","60","2.0.0","195115","5ef246c6d2b9060809858e7e","4","43","null","","","","","","","","","<p style='font-size: 30px;'><strong>Okay</strong></p>","null","neutral_feedback","0","test","27","","","","","","","","","","","","","","","","","","","","","","",""
"","","","","","","","","","","","html-button-response","61","2.0.0","197561","5ef246c6d2b9060809858e7e","4","43","2440","","","","","","","","","<img src= ""rock_img/I_Diorite_14.jpg"" style=""width:8cm; height:5.71cm;""><p>What type of rock is this?</p>","5","class_response","0","test","28","Pegmatite","Diorite","14","false","6","3","","","","","","","","","","","","","","","","",""
"","","","","","","","","","","","html-keyboard-response","62","2.0.0","198069","5ef246c6d2b9060809858e7e","4","43","null","","","","","","","","","<p style='font-size: 30px;'><strong>Okay</strong></p>","null","neutral_feedback","0","test","28","","","","","","","","","","","","","","","","","","","","","","",""
"","","","","","","","","","","","html-button-response","63","2.0.0","199517","5ef246c6d2b9060809858e7e","4","43","1443","","","","","","","","","<img src= ""rock_img/I_Diorite_15.jpg"" style=""width:8cm; height:5.54cm;""><p>What type of rock is this?</p>","4","class_response","0","test","29","Obsidian","Diorite","15","false","5","3","","","","","","","","","","","","","","","","",""
"","","","","","","","","","","","html-keyboard-response","64","2.0.0","200026","5ef246c6d2b9060809858e7e","4","43","null","","","","","","","","","<p style='font-size: 30px;'><strong>Okay</strong></p>","null","neutral_feedback","0","test","29","","","","","","","","","","","","","","","","","","","","","","",""
"","","","","","","","","","","","html-button-response","65","2.0.0","201831","5ef246c6d2b9060809858e7e","4","43","1800","","","","","","","","","<img src= ""rock_img/I_Andesite_03.jpg"" style=""width:8cm; height:5.73cm;""><p>What type of rock is this?</p>","2","class_response","0","test","30","Diorite","Andesite","03","false","3","1","","","","","","","","","","","","","","","","",""
"","","","","","","","","","","","html-keyboard-response","66","2.0.0","202347","5ef246c6d2b9060809858e7e","4","43","null","","","","","","","","","<p style='font-size: 30px;'><strong>Okay</strong></p>","null","neutral_feedback","0","test","30","","","","","","","","","","","","","","","","","","","","","","",""
"","","","","","","","","","","","html-button-response","67","2.0.0","204020","5ef246c6d2b9060809858e7e","4","43","1670","","","","","","","","","<img src= ""rock_img/I_Basalt_08.jpg"" style=""width:8cm; height:10.44cm;""><p>What type of rock is this?</p>","4","class_response","0","test","31","Obsidian","Basalt","08","false","5","2","","","","","","","","","","","","","","","","",""
"","","","","","","","","","","","html-keyboard-response","68","2.0.0","204530","5ef246c6d2b9060809858e7e","4","43","null","","","","","","","","","<p style='font-size: 30px;'><strong>Okay</strong></p>","null","neutral_feedback","0","test","31","","","","","","","","","","","","","","","","","","","","","","",""
"","","","","","","","","","","","html-button-response","69","2.0.0","206306","5ef246c6d2b9060809858e7e","4","43","1771","","","","","","","","","<img src= ""rock_img/I_Andesite_11.jpg"" style=""width:8cm; height:4.92cm;""><p>What type of rock is this?</p>","1","class_response","0","test","32","Basalt","Andesite","11","false","2","1","","","","","","","","","","","","","","","","",""
"","","","","","","","","","","","html-keyboard-response","70","2.0.0","206821","5ef246c6d2b9060809858e7e","4","43","null","","","","","","","","","<p style='font-size: 30px;'><strong>Okay</strong></p>","null","neutral_feedback","0","test","32","","","","","","","","","","","","","","","","","","","","","","",""
"","","","","","","","","","","","html-button-response","71","2.0.0","208215","5ef246c6d2b9060809858e7e","4","43","1389","","","","","","","","","<img src= ""rock_img/I_Basalt_12.jpg"" style=""width:8cm; height:6.010000000000001cm;""><p>What type of rock is this?</p>","7","class_response","0","test","33","Pumice","Basalt","12","false","8","2","","","","","","","","","","","","","","","","",""
"","","","","","","","","","","","html-keyboard-response","72","2.0.0","208731","5ef246c6d2b9060809858e7e","4","43","null","","","","","","","","","<p style='font-size: 30px;'><strong>Okay</strong></p>","null","neutral_feedback","0","test","33","","","","","","","","","","","","","","","","","","","","","","",""
"","","","","","","","","","","","html-button-response","73","2.0.0","210722","5ef246c6d2b9060809858e7e","4","43","1986","","","","","","","","","<img src= ""rock_img/I_Gabbro_05.jpg"" style=""width:8cm; height:6cm;""><p>What type of rock is this?</p>","5","class_response","0","test","34","Pegmatite","Gabbro","05","false","6","4","","","","","","","","","","","","","","","","",""
"","","","","","","","","","","","html-keyboard-response","74","2.0.0","211228","5ef246c6d2b9060809858e7e","4","43","null","","","","","","","","","<p style='font-size: 30px;'><strong>Okay</strong></p>","null","neutral_feedback","0","test","34","","","","","","","","","","","","","","","","","","","","","","",""
"","","","","","","","","","","","html-button-response","75","2.0.0","213090","5ef246c6d2b9060809858e7e","4","43","1856","","","","","","","","","<img src= ""rock_img/I_Andesite_07.jpg"" style=""width:8cm; height:5.93cm;""><p>What type of rock is this?</p>","4","class_response","0","test","35","Obsidian","Andesite","07","false","5","1","","","","","","","","","","","","","","","","",""
"","","","","","","","","","","","html-keyboard-response","76","2.0.0","213594","5ef246c6d2b9060809858e7e","4","43","null","","","","","","","","","<p style='font-size: 30px;'><strong>Okay</strong></p>","null","neutral_feedback","0","test","35","","","","","","","","","","","","","","","","","","","","","","",""
"","","","","","","","","","","","html-button-response","77","2.0.0","215473","5ef246c6d2b9060809858e7e","4","43","1875","","","","","","","","","<img src= ""rock_img/I_Peridotite_05.jpg"" style=""width:8cm; height:7.1499999999999995cm;""><p>What type of rock is this?</p>","4","class_response","0","test","36","Obsidian","Peridotite","05","false","5","7","","","","","","","","","","","","","","","","",""
"","","","","","","","","","","","html-keyboard-response","78","2.0.0","215976","5ef246c6d2b9060809858e7e","4","43","null","","","","","","","","","<p style='font-size: 30px;'><strong>Okay</strong></p>","null","neutral_feedback","0","test","36","","","","","","","","","","","","","","","","","","","","","","",""
"","","","","","","","","","","","html-button-response","79","2.0.0","217484","5ef246c6d2b9060809858e7e","4","43","1503","","","","","","","","","<img src= ""rock_img/I_Diorite_10.jpg"" style=""width:8cm; height:5.949999999999999cm;""><p>What type of rock is this?</p>","0","class_response","0","test","37","Andesite","Diorite","10","false","1","3","","","","","","","","","","","","","","","","",""
"","","","","","","","","","","","html-keyboard-response","80","2.0.0","217989","5ef246c6d2b9060809858e7e","4","43","null","","","","","","","","","<p style='font-size: 30px;'><strong>Okay</strong></p>","null","neutral_feedback","0","test","37","","","","","","","","","","","","","","","","","","","","","","",""
"","","","","","","","","","","","html-button-response","81","2.0.0","219732","5ef246c6d2b9060809858e7e","4","43","1737","","","","","","","","","<img src= ""rock_img/I_Peridotite_07.jpg"" style=""width:8cm; height:4.83cm;""><p>What type of rock is this?</p>","4","class_response","0","test","38","Obsidian","Peridotite","07","false","5","7","","","","","","","","","","","","","","","","",""
"","","","","","","","","","","","html-keyboard-response","82","2.0.0","220241","5ef246c6d2b9060809858e7e","4","43","null","","","","","","","","","<p style='font-size: 30px;'><strong>Okay</strong></p>","null","neutral_feedback","0","test","38","","","","","","","","","","","","","","","","","","","","","","",""
"","","","","","","","","","","","html-button-response","83","2.0.0","221780","5ef246c6d2b9060809858e7e","4","43","1535","","","","","","","","","<img src= ""rock_img/I_Basalt_04.jpg"" style=""width:8cm; height:7.53cm;""><p>What type of rock is this?</p>","1","class_response","0","test","39","Basalt","Basalt","04","true","2","2","","","","","","","","","","","","","","","","",""
"","","","","","","","","","","","html-keyboard-response","84","2.0.0","222288","5ef246c6d2b9060809858e7e","4","43","null","","","","","","","","","<p style='font-size: 30px;'><strong>Okay</strong></p>","null","neutral_feedback","0","test","39","","","","","","","","","","","","","","","","","","","","","","",""
"","","","","","","","","","","","html-button-response","85","2.0.0","225918","5ef246c6d2b9060809858e7e","4","43","3625","","","","","","","","","<img src= ""rock_img/I_Peridotite_10.jpg"" style=""width:8cm; height:5.390000000000001cm;""><p>What type of rock is this?</p>","5","class_response","0","test","40","Pegmatite","Peridotite","10","false","6","7","","","","","","","","","","","","","","","","",""
"","","","","","","","","","","","html-keyboard-response","86","2.0.0","226435","5ef246c6d2b9060809858e7e","4","43","null","","","","","","","","","<p style='font-size: 30px;'><strong>Okay</strong></p>","null","neutral_feedback","0","test","40","","","","","","","","","","","","","","","","","","","","","","",""
"","","","","","","","","","","","html-button-response","87","2.0.0","227923","5ef246c6d2b9060809858e7e","4","43","1484","","","","","","","","","<img src= ""rock_img/I_Diorite_11.jpg"" style=""width:8cm; height:7.11cm;""><p>What type of rock is this?</p>","4","class_response","0","test","41","Obsidian","Diorite","11","false","5","3","","","","","","","","","","","","","","","","",""
"","","","","","","","","","","","html-keyboard-response","88","2.0.0","228433","5ef246c6d2b9060809858e7e","4","43","null","","","","","","","","","<p style='font-size: 30px;'><strong>Okay</strong></p>","null","neutral_feedback","0","test","41","","","","","","","","","","","","","","","","","","","","","","",""
"","","","","","","","","","","","html-button-response","89","2.0.0","229782","5ef246c6d2b9060809858e7e","4","43","1344","","","","","","","","","<img src= ""rock_img/I_Obsidian_12.jpg"" style=""width:8cm; height:6.53cm;""><p>What type of rock is this?</p>","4","class_response","0","test","42","Obsidian","Obsidian","12","true","5","5","","","","","","","","","","","","","","","","",""
"","","","","","","","","","","","html-keyboard-response","90","2.0.0","230293","5ef246c6d2b9060809858e7e","4","43","null","","","","","","","","","<p style='font-size: 30px;'><strong>Okay</strong></p>","null","neutral_feedback","0","test","42","","","","","","","","","","","","","","","","","","","","","","",""
"","","","","","","","","","","","html-button-response","91","2.0.0","231325","5ef246c6d2b9060809858e7e","4","43","1028","","","","","","","","","<img src= ""rock_img/I_Obsidian_08.jpg"" style=""width:8cm; height:7.39cm;""><p>What type of rock is this?</p>","4","class_response","0","test","43","Obsidian","Obsidian","08","true","5","5","","","","","","","","","","","","","","","","",""
"","","","","","","","","","","","html-keyboard-response","92","2.0.0","231836","5ef246c6d2b9060809858e7e","4","43","null","","","","","","","","","<p style='font-size: 30px;'><strong>Okay</strong></p>","null","neutral_feedback","0","test","43","","","","","","","","","","","","","","","","","","","","","","",""
"","","","","","","","","","","","html-button-response","93","2.0.0","233904","5ef246c6d2b9060809858e7e","4","43","2063","","","","","","","","","<img src= ""rock_img/I_Peridotite_13.jpg"" style=""width:8cm; height:7.58cm;""><p>What type of rock is this?</p>","1","class_response","0","test","44","Basalt","Peridotite","13","false","2","7","","","","","","","","","","","","","","","","",""
"","","","","","","","","","","","html-keyboard-response","94","2.0.0","234421","5ef246c6d2b9060809858e7e","4","43","null","","","","","","","","","<p style='font-size: 30px;'><strong>Okay</strong></p>","null","neutral_feedback","0","test","44","","","","","","","","","","","","","","","","","","","","","","",""
"","","","","","","","","","","","html-button-response","95","2.0.0","235717","5ef246c6d2b9060809858e7e","4","43","1292","","","","","","","","","<img src= ""rock_img/I_Basalt_06.jpg"" style=""width:8cm; height:7.06cm;""><p>What type of rock is this?</p>","5","class_response","0","test","45","Pegmatite","Basalt","06","false","6","2","","","","","","","","","","","","","","","","",""
"","","","","","","","","","","","html-keyboard-response","96","2.0.0","236229","5ef246c6d2b9060809858e7e","4","43","null","","","","","","","","","<p style='font-size: 30px;'><strong>Okay</strong></p>","null","neutral_feedback","0","test","45","","","","","","","","","","","","","","","","","","","","","","",""
"","","","","","","","","","","","html-button-response","97","2.0.0","238069","5ef246c6d2b9060809858e7e","4","43","1835","","","","","","","","","<img src= ""rock_img/I_Andesite_09.jpg"" style=""width:8cm; height:6cm;""><p>What type of rock is this?</p>","3","class_response","0","test","46","Gabbro","Andesite","09","false","4","1","","","","","","","","","","","","","","","","",""
"","","","","","","","","","","","html-keyboard-response","98","2.0.0","238578","5ef246c6d2b9060809858e7e","4","43","null","","","","","","","","","<p style='font-size: 30px;'><strong>Okay</strong></p>","null","neutral_feedback","0","test","46","","","","","","","","","","","","","","","","","","","","","","",""
"","","","","","","","","","","","html-button-response","99","2.0.0","239957","5ef246c6d2b9060809858e7e","4","43","1375","","","","","","","","","<img src= ""rock_img/I_Pumice_04.jpg"" style=""width:8cm; height:6.819999999999999cm;""><p>What type of rock is this?</p>","7","class_response","0","test","47","Pumice","Pumice","04","true","8","8","","","","","","","","","","","","","","","","",""
"","","","","","","","","","","","html-keyboard-response","100","2.0.0","240468","5ef246c6d2b9060809858e7e","4","43","null","","","","","","","","","<p style='font-size: 30px;'><strong>Okay</strong></p>","null","neutral_feedback","0","test","47","","","","","","","","","","","","","","","","","","","","","","",""
"","","","","","","","","","","","html-button-response","101","2.0.0","241975","5ef246c6d2b9060809858e7e","4","43","1502","","","","","","","","","<img src= ""rock_img/I_Obsidian_06.jpg"" style=""width:8cm; height:6.8cm;""><p>What type of rock is this?</p>","4","class_response","0","test","48","Obsidian","Obsidian","06","true","5","5","","","","","","","","","","","","","","","","",""
"","","","","","","","","","","","html-keyboard-response","102","2.0.0","242492","5ef246c6d2b9060809858e7e","4","43","null","","","","","","","","","<p style='font-size: 30px;'><strong>Okay</strong></p>","null","neutral_feedback","0","test","48","","","","","","","","","","","","","","","","","","","","","","",""
"","","","","","","","","","","","instructions","103","2.0.0","259604","5ef246c6d2b9060809858e7e","4","43","17010","","","","","","","","[{""page_index"":0,""viewing_time"":12396},{""page_index"":1,""viewing_time"":4614}]","","","","","","","","","","","","","","","","","","","","","","","","","","","","",""
"","","","","","","","","","","","html-button-response","104","2.0.0","262234","5ef246c6d2b9060809858e7e","4","43","2627","","","","","","","","","","0","start_train","","","","","","","","","","","","","","","","","","","","","","","","","",""
"","","","","","","","","","","","html-button-response","106","2.0.0","264156","5ef246c6d2b9060809858e7e","4","43","1917","","","","","","","","","<img src= ""rock_img/I_Pumice_03.jpg"" style=""width:8cm; height:6.64cm;""><p>What type of rock is this?</p>","7","class_response","1","train","1","Pumice","Pumice","03","true","8","8","","","","","","","","","","","","","","","","",""
"","","","","","","","","","","","html-button-response","107","2.0.0","265589","5ef246c6d2b9060809858e7e","4","43","1428","","","","","","","","","<img src= rock_img/I_Pumice_03.jpg style=""width:8cm; height:6.64cm;""><p style='font-size: 30px; color: green;'><strong>Correct!</strong></p><p style='font-size: 30px;'><strong>This rock is pumice</strong></p>","0","corr_feedback","1","train","1","","","","","","","","","","","","","","","","","","","","","","",""
"","","","","","","","","","","","html-button-response","108","2.0.0","267170","5ef246c6d2b9060809858e7e","4","43","1576","","","","","","","","","<img src= ""rock_img/I_Obsidian_16.jpg"" style=""width:8cm; height:9.3cm;""><p>What type of rock is this?</p>","4","class_response","1","train","2","Obsidian","Obsidian","16","true","5","5","","","","","","","","","","","","","","","","",""
"","","","","","","","","","","","html-button-response","109","2.0.0","269682","5ef246c6d2b9060809858e7e","4","43","2508","","","","","","","","","<img src= rock_img/I_Obsidian_16.jpg style=""width:8cm; height:9.3cm;""><p style='font-size: 30px; color: green;'><strong>Correct!</strong></p><p style='font-size: 30px;'><strong>This rock is obsidian</strong></p>","0","corr_feedback","1","train","2","","","","","","","","","","","","","","","","","","","","","","",""
"","","","","","","","","","","","html-button-response","110","2.0.0","271391","5ef246c6d2b9060809858e7e","4","43","1704","","","","","","","","","<img src= ""rock_img/I_Pegmatite_15.jpg"" style=""width:8cm; height:6cm;""><p>What type of rock is this?</p>","5","class_response","1","train","3","Pegmatite","Pegmatite","15","true","6","6","","","","","","","","","","","","","","","","",""
"","","","","","","","","","","","html-button-response","111","2.0.0","274214","5ef246c6d2b9060809858e7e","4","43","2820","","","","","","","","","<img src= rock_img/I_Pegmatite_15.jpg style=""width:8cm; height:6cm;""><p style='font-size: 30px; color: green;'><strong>Correct!</strong></p><p style='font-size: 30px;'><strong>This rock is pegmatite</strong></p>","0","corr_feedback","1","train","3","","","","","","","","","","","","","","","","","","","","","","",""
"","","","","","","","","","","","html-button-response","112","2.0.0","275522","5ef246c6d2b9060809858e7e","4","43","1302","","","","","","","","","<img src= ""rock_img/I_Diorite_07.jpg"" style=""width:8cm; height:5.239999999999999cm;""><p>What type of rock is this?</p>","5","class_response","1","train","4","Pegmatite","Diorite","07","false","6","3","","","","","","","","","","","","","","","","",""
"","","","","","","","","","","","html-button-response","113","2.0.0","278946","5ef246c6d2b9060809858e7e","4","43","3421","","","","","","","","","<img src= rock_img/I_Diorite_07.jpg style=""width:8cm; height:5.239999999999999cm;""><p style='font-size: 30px; color: red;'><strong>Incorrect!</strong></p><p style='font-size: 30px;'><strong>This rock is diorite</strong></p>","0","corr_feedback","1","train","4","","","","","","","","","","","","","","","","","","","","","","",""
"","","","","","","","","","","","html-button-response","114","2.0.0","280640","5ef246c6d2b9060809858e7e","4","43","1689","","","","","","","","","<img src= ""rock_img/I_Andesite_16.jpg"" style=""width:8cm; height:6.010000000000001cm;""><p>What type of rock is this?</p>","2","class_response","1","train","5","Diorite","Andesite","16","false","3","1","","","","","","","","","","","","","","","","",""
"","","","","","","","","","","","html-button-response","115","2.0.0","283728","5ef246c6d2b9060809858e7e","4","43","3085","","","","","","","","","<img src= rock_img/I_Andesite_16.jpg style=""width:8cm; height:6.010000000000001cm;""><p style='font-size: 30px; color: red;'><strong>Incorrect!</strong></p><p style='font-size: 30px;'><strong>This rock is andesite</strong></p>","0","corr_feedback","1","train","5","","","","","","","","","","","","","","","","","","","","","","",""
"","","","","","","","","","","","html-button-response","116","2.0.0","285522","5ef246c6d2b9060809858e7e","4","43","1789","","","","","","","","","<img src= ""rock_img/I_Diorite_02.jpg"" style=""width:8cm; height:6.27cm;""><p>What type of rock is this?</p>","4","class_response","1","train","6","Obsidian","Diorite","02","false","5","3","","","","","","","","","","","","","","","","",""
"","","","","","","","","","","","html-button-response","117","2.0.0","292763","5ef246c6d2b9060809858e7e","4","43","7237","","","","","","","","","<img src= rock_img/I_Diorite_02.jpg style=""width:8cm; height:6.27cm;""><p style='font-size: 30px; color: red;'><strong>Incorrect!</strong></p><p style='font-size: 30px;'><strong>This rock is diorite</strong></p>","0","corr_feedback","1","train","6","","","","","","","","","","","","","","","","","","","","","","",""
"","","","","","","","","","","","html-button-response","118","2.0.0","298226","5ef246c6d2b9060809858e7e","4","43","5460","","","","","","","","","<img src= ""rock_img/I_Basalt_10.jpg"" style=""width:8cm; height:5.85cm;""><p>What type of rock is this?</p>","4","class_response","1","train","7","Obsidian","Basalt","10","false","5","2","","","","","","","","","","","","","","","","",""
"","","","","","","","","","","","html-button-response","119","2.0.0","301069","5ef246c6d2b9060809858e7e","4","43","2839","","","","","","","","","<img src= rock_img/I_Basalt_10.jpg style=""width:8cm; height:5.85cm;""><p style='font-size: 30px; color: red;'><strong>Incorrect!</strong></p><p style='font-size: 30px;'><strong>This rock is basalt</strong></p>","0","corr_feedback","1","train","7","","","","","","","","","","","","","","","","","","","","","","",""
"","","","","","","","","","","","html-button-response","120","2.0.0","304356","5ef246c6d2b9060809858e7e","4","43","3282","","","","","","","","","<img src= ""rock_img/I_Gabbro_13.jpg"" style=""width:8cm; height:5.08cm;""><p>What type of rock is this?</p>","2","class_response","1","train","8","Diorite","Gabbro","13","false","3","4","","","","","","","","","","","","","","","","",""
"","","","","","","","","","","","html-button-response","121","2.0.0","306893","5ef246c6d2b9060809858e7e","4","43","2533","","","","","","","","","<img src= rock_img/I_Gabbro_13.jpg style=""width:8cm; height:5.08cm;""><p style='font-size: 30px; color: red;'><strong>Incorrect!</strong></p><p style='font-size: 30px;'><strong>This rock is gabbro</strong></p>","0","corr_feedback","1","train","8","","","","","","","","","","","","","","","","","","","","","","",""
"","","","","","","","","","","","html-button-response","122","2.0.0","308450","5ef246c6d2b9060809858e7e","4","43","1552","","","","","","","","","<img src= ""rock_img/I_Obsidian_07.jpg"" style=""width:8cm; height:4.76cm;""><p>What type of rock is this?</p>","4","class_response","1","train","9","Obsidian","Obsidian","07","true","5","5","","","","","","","","","","","","","","","","",""
"","","","","","","","","","","","html-button-response","123","2.0.0","310249","5ef246c6d2b9060809858e7e","4","43","1795","","","","","","","","","<img src= rock_img/I_Obsidian_07.jpg style=""width:8cm; height:4.76cm;""><p style='font-size: 30px; color: green;'><strong>Correct!</strong></p><p style='font-size: 30px;'><strong>This rock is obsidian</strong></p>","0","corr_feedback","1","train","9","","","","","","","","","","","","","","","","","","","","","","",""
"","","","","","","","","","","","html-button-response","124","2.0.0","311838","5ef246c6d2b9060809858e7e","4","43","1584","","","","","","","","","<img src= ""rock_img/I_Peridotite_06.jpg"" style=""width:8cm; height:7.53cm;""><p>What type of rock is this?</p>","5","class_response","1","train","10","Pegmatite","Peridotite","06","false","6","7","","","","","","","","","","","","","","","","",""
"","","","","","","","","","","","html-button-response","125","2.0.0","314608","5ef246c6d2b9060809858e7e","4","43","2766","","","","","","","","","<img src= rock_img/I_Peridotite_06.jpg style=""width:8cm; height:7.53cm;""><p style='font-size: 30px; color: red;'><strong>Incorrect!</strong></p><p style='font-size: 30px;'><strong>This rock is peridotite</strong></p>","0","corr_feedback","1","train","10","","","","","","","","","","","","","","","","","","","","","","",""
"","","","","","","","","","","","html-button-response","126","2.0.0","316964","5ef246c6d2b9060809858e7e","4","43","2351","","","","","","","","","<img src= ""rock_img/I_Peridotite_12.jpg"" style=""width:8cm; height:4.54cm;""><p>What type of rock is this?</p>","6","class_response","1","train","11","Peridotite","Peridotite","12","true","7","7","","","","","","","","","","","","","","","","",""
"","","","","","","","","","","","html-button-response","127","2.0.0","319594","5ef246c6d2b9060809858e7e","4","43","2626","","","","","","","","","<img src= rock_img/I_Peridotite_12.jpg style=""width:8cm; height:4.54cm;""><p style='font-size: 30px; color: green;'><strong>Correct!</strong></p><p style='font-size: 30px;'><strong>This rock is peridotite</strong></p>","0","corr_feedback","1","train","11","","","","","","","","","","","","","","","","","","","","","","",""
"","","","","","","","","","","","html-button-response","128","2.0.0","321205","5ef246c6d2b9060809858e7e","4","43","1606","","","","","","","","","<img src= ""rock_img/I_Basalt_02.jpg"" style=""width:8cm; height:6.45cm;""><p>What type of rock is this?</p>","1","class_response","1","train","12","Basalt","Basalt","02","true","2","2","","","","","","","","","","","","","","","","",""
"","","","","","","","","","","","html-button-response","129","2.0.0","323505","5ef246c6d2b9060809858e7e","4","43","2296","","","","","","","","","<img src= rock_img/I_Basalt_02.jpg style=""width:8cm; height:6.45cm;""><p style='font-size: 30px; color: green;'><strong>Correct!</strong></p><p style='font-size: 30px;'><strong>This rock is basalt</strong></p>","0","corr_feedback","1","train","12","","","","","","","","","","","","","","","","","","","","","","",""
"","","","","","","","","","","","instructions","130","2.0.0","385738","5ef246c6d2b9060809858e7e","4","43","62229","","","","","","","","[{""page_index"":0,""viewing_time"":11006},{""page_index"":1,""viewing_time"":38030},{""page_index"":2,""viewing_time"":6121},{""page_index"":3,""viewing_time"":7073}]","","","","","","","","","","","","","","","","","","","","","","","","","","","","",""
"","","","","","","","","","","","html-button-response","131","2.0.0","387021","5ef246c6d2b9060809858e7e","4","43","1279","","","","","","","","","","0","start_train","","","","","","","","","","","","","","","","","","","","","","","","","",""
"","","","","","","","","","","","html-button-response","132","2.0.0","394891","5ef246c6d2b9060809858e7e","4","43","","","","","","","","","","","","cat_selection","1","train","1","","","","","","","3095.5999999998603","4768.90000000014","4","7","Gabbro","Peridotite","","","","","","","","","","",""
"","","","","","","","","","","","paired-cat-display","133","1.0.0","461117","5ef246c6d2b9060809858e7e","4","43","","","","","","","","","","","","paired_cat_display","1","train","1","","","","","","","","","","","","","Extremely hard looking, asphalt-like texture, one solid color for the most part.","Two-toned in color, Multi-colored.","10110.800000000047","56102.69999999995","","","","","","",""
"","","","","","","","","","","","html-button-response","134","2.0.0","470855","5ef246c6d2b9060809858e7e","4","43","","","","","","","","","","","","cat_selection","1","train","2","","","","","","","6089.09999999986","3644.8000000000466","1","2","Andesite","Basalt","","","","","","","","","","",""
"","","","","","","","","","","","paired-cat-display","135","1.0.0","507956","5ef246c6d2b9060809858e7e","4","43","","","","","","","","","","","","paired_cat_display","1","train","2","","","","","","","","","","","","","","","6652.800000000047","30437.600000000093","Almost always a solid gray in color, street-like","smoother in texture, can be any color","","","","",""
"","","","","","","","","","","","html-button-response","136","2.0.0","518460","5ef246c6d2b9060809858e7e","4","43","","","","","","","","","","","","cat_selection","1","train","3","","","","","","","9677.699999999953","822","3","6","Diorite","Pegmatite","","","","","","","","","","",""
"","","","","","","","","","","","paired-cat-display","137","1.0.0","554178","5ef246c6d2b9060809858e7e","4","43","","","","","","","","","","","","paired_cat_display","1","train","3","","","","","","","","","","","","","","","6987.40000000014","28721.199999999953","","","crystalized in a way, small little dots","Multi-colored, irregular looking.","","",""
"","","","","","","","","","","","instructions","138","2.0.0","654497","5ef246c6d2b9060809858e7e","4","43","100315","","","","","","","","[{""page_index"":0,""viewing_time"":79666},{""page_index"":1,""viewing_time"":20649}]","","","","","","","","","","","","","","","","","","","","","","","","","","","","",""
"","","","","","","","","","","","html-button-response","139","2.0.0","656946","5ef246c6d2b9060809858e7e","4","43","2444","","","","","","","","","","0","start_test","","","","","","","","","","","","","","","","","","","","","","","","","",""
"","","","","","","","","","","","html-button-response","140","2.0.0","662883","5ef246c6d2b9060809858e7e","4","43","5931","","","","","","","","","<img src= ""rock_img/I_Pegmatite_11.jpg"" style=""width:8cm; height:8.14cm;""><p>What type of rock is this?</p>","5","class_response","1","test","1","Pegmatite","Pegmatite","11","true","6","6","","","","","","","","","","","","","","","","",""
"","","","","","","","","","","","html-keyboard-response","141","2.0.0","663396","5ef246c6d2b9060809858e7e","4","43","null","","","","","","","","","<p style='font-size: 30px;'><strong>Okay</strong></p>","null","neutral_feedback","1","test","1","","","","","","","","","","","","","","","","","","","","","","",""
"","","","","","","","","","","","html-button-response","142","2.0.0","666792","5ef246c6d2b9060809858e7e","4","43","3391","","","","","","","","","<img src= ""rock_img/I_Diorite_14.jpg"" style=""width:8cm; height:5.71cm;""><p>What type of rock is this?</p>","2","class_response","1","test","2","Diorite","Diorite","14","true","3","3","","","","","","","","","","","","","","","","",""
"","","","","","","","","","","","html-keyboard-response","143","2.0.0","667306","5ef246c6d2b9060809858e7e","4","43","null","","","","","","","","","<p style='font-size: 30px;'><strong>Okay</strong></p>","null","neutral_feedback","1","test","2","","","","","","","","","","","","","","","","","","","","","","",""
"","","","","","","","","","","","html-button-response","144","2.0.0","673545","5ef246c6d2b9060809858e7e","4","43","6234","","","","","","","","","<img src= ""rock_img/I_Diorite_15.jpg"" style=""width:8cm; height:5.54cm;""><p>What type of rock is this?</p>","2","class_response","1","test","3","Diorite","Diorite","15","true","3","3","","","","","","","","","","","","","","","","",""
"","","","","","","","","","","","html-keyboard-response","145","2.0.0","674057","5ef246c6d2b9060809858e7e","4","43","null","","","","","","","","","<p style='font-size: 30px;'><strong>Okay</strong></p>","null","neutral_feedback","1","test","3","","","","","","","","","","","","","","","","","","","","","","",""
"","","","","","","","","","","","html-button-response","146","2.0.0","675060","5ef246c6d2b9060809858e7e","4","43","997","","","","","","","","","<img src= ""rock_img/I_Diorite_13.jpg"" style=""width:8cm; height:6.29cm;""><p>What type of rock is this?</p>","2","class_response","1","test","4","Diorite","Diorite","13","true","3","3","","","","","","","","","","","","","","","","",""
"","","","","","","","","","","","html-keyboard-response","147","2.0.0","675571","5ef246c6d2b9060809858e7e","4","43","null","","","","","","","","","<p style='font-size: 30px;'><strong>Okay</strong></p>","null","neutral_feedback","1","test","4","","","","","","","","","","","","","","","","","","","","","","",""
"","","","","","","","","","","","html-button-response","148","2.0.0","676923","5ef246c6d2b9060809858e7e","4","43","1348","","","","","","","","","<img src= ""rock_img/I_Basalt_04.jpg"" style=""width:8cm; height:7.53cm;""><p>What type of rock is this?</p>","1","class_response","1","test","5","Basalt","Basalt","04","true","2","2","","","","","","","","","","","","","","","","",""
"","","","","","","","","","","","html-keyboard-response","149","2.0.0","677439","5ef246c6d2b9060809858e7e","4","43","null","","","","","","","","","<p style='font-size: 30px;'><strong>Okay</strong></p>","null","neutral_feedback","1","test","5","","","","","","","","","","","","","","","","","","","","","","",""
"","","","","","","","","","","","html-button-response","150","2.0.0","680123","5ef246c6d2b9060809858e7e","4","43","2680","","","","","","","","","<img src= ""rock_img/I_Diorite_10.jpg"" style=""width:8cm; height:5.949999999999999cm;""><p>What type of rock is this?</p>","0","class_response","1","test","6","Andesite","Diorite","10","false","1","3","","","","","","","","","","","","","","","","",""
"","","","","","","","","","","","html-keyboard-response","151","2.0.0","680634","5ef246c6d2b9060809858e7e","4","43","null","","","","","","","","","<p style='font-size: 30px;'><strong>Okay</strong></p>","null","neutral_feedback","1","test","6","","","","","","","","","","","","","","","","","","","","","","",""
"","","","","","","","","","","","html-button-response","152","2.0.0","682251","5ef246c6d2b9060809858e7e","4","43","1613","","","","","","","","","<img src= ""rock_img/I_Pumice_05.jpg"" style=""width:8cm; height:7.25cm;""><p>What type of rock is this?</p>","7","class_response","1","test","7","Pumice","Pumice","05","true","8","8","","","","","","","","","","","","","","","","",""
"","","","","","","","","","","","html-keyboard-response","153","2.0.0","682757","5ef246c6d2b9060809858e7e","4","43","null","","","","","","","","","<p style='font-size: 30px;'><strong>Okay</strong></p>","null","neutral_feedback","1","test","7","","","","","","","","","","","","","","","","","","","","","","",""
"","","","","","","","","","","","html-button-response","154","2.0.0","684762","5ef246c6d2b9060809858e7e","4","43","2001","","","","","","","","","<img src= ""rock_img/I_Pegmatite_09.jpg"" style=""width:8cm; height:4.03cm;""><p>What type of rock is this?</p>","5","class_response","1","test","8","Pegmatite","Pegmatite","09","true","6","6","","","","","","","","","","","","","","","","",""
"","","","","","","","","","","","html-keyboard-response","155","2.0.0","685281","5ef246c6d2b9060809858e7e","4","43","null","","","","","","","","","<p style='font-size: 30px;'><strong>Okay</strong></p>","null","neutral_feedback","1","test","8","","","","","","","","","","","","","","","","","","","","","","",""
"","","","","","","","","","","","html-button-response","156","2.0.0","687510","5ef246c6d2b9060809858e7e","4","43","2225","","","","","","","","","<img src= ""rock_img/I_Gabbro_10.jpg"" style=""width:8cm; height:5.680000000000001cm;""><p>What type of rock is this?</p>","0","class_response","1","test","9","Andesite","Gabbro","10","false","1","4","","","","","","","","","","","","","","","","",""
"","","","","","","","","","","","html-keyboard-response","157","2.0.0","688020","5ef246c6d2b9060809858e7e","4","43","null","","","","","","","","","<p style='font-size: 30px;'><strong>Okay</strong></p>","null","neutral_feedback","1","test","9","","","","","","","","","","","","","","","","","","","","","","",""
"","","","","","","","","","","","html-button-response","158","2.0.0","693553","5ef246c6d2b9060809858e7e","4","43","5529","","","","","","","","","<img src= ""rock_img/I_Diorite_11.jpg"" style=""width:8cm; height:7.11cm;""><p>What type of rock is this?</p>","2","class_response","1","test","10","Diorite","Diorite","11","true","3","3","","","","","","","","","","","","","","","","",""
"","","","","","","","","","","","html-keyboard-response","159","2.0.0","694064","5ef246c6d2b9060809858e7e","4","43","null","","","","","","","","","<p style='font-size: 30px;'><strong>Okay</strong></p>","null","neutral_feedback","1","test","10","","","","","","","","","","","","","","","","","","","","","","",""
"","","","","","","","","","","","html-button-response","160","2.0.0","704639","5ef246c6d2b9060809858e7e","4","43","10571","","","","","","","","","<img src= ""rock_img/I_Peridotite_07.jpg"" style=""width:8cm; height:4.83cm;""><p>What type of rock is this?</p>","6","class_response","1","test","11","Peridotite","Peridotite","07","true","7","7","","","","","","","","","","","","","","","","",""
"","","","","","","","","","","","html-keyboard-response","161","2.0.0","705151","5ef246c6d2b9060809858e7e","4","43","null","","","","","","","","","<p style='font-size: 30px;'><strong>Okay</strong></p>","null","neutral_feedback","1","test","11","","","","","","","","","","","","","","","","","","","","","","",""
"","","","","","","","","","","","html-button-response","162","2.0.0","708347","5ef246c6d2b9060809858e7e","4","43","3191","","","","","","","","","<img src= ""rock_img/I_Peridotite_10.jpg"" style=""width:8cm; height:5.390000000000001cm;""><p>What type of rock is this?</p>","2","class_response","1","test","12","Diorite","Peridotite","10","false","3","7","","","","","","","","","","","","","","","","",""
"","","","","","","","","","","","html-keyboard-response","163","2.0.0","708864","5ef246c6d2b9060809858e7e","4","43","null","","","","","","","","","<p style='font-size: 30px;'><strong>Okay</strong></p>","null","neutral_feedback","1","test","12","","","","","","","","","","","","","","","","","","","","","","",""
"","","","","","","","","","","","html-button-response","164","2.0.0","710638","5ef246c6d2b9060809858e7e","4","43","1769","","","","","","","","","<img src= ""rock_img/I_Obsidian_12.jpg"" style=""width:8cm; height:6.53cm;""><p>What type of rock is this?</p>","4","class_response","1","test","13","Obsidian","Obsidian","12","true","5","5","","","","","","","","","","","","","","","","",""
"","","","","","","","","","","","html-keyboard-response","165","2.0.0","711143","5ef246c6d2b9060809858e7e","4","43","null","","","","","","","","","<p style='font-size: 30px;'><strong>Okay</strong></p>","null","neutral_feedback","1","test","13","","","","","","","","","","","","","","","","","","","","","","",""
"","","","","","","","","","","","html-button-response","166","2.0.0","713341","5ef246c6d2b9060809858e7e","4","43","2194","","","","","","","","","<img src= ""rock_img/I_Basalt_16.jpg"" style=""width:8cm; height:7.659999999999999cm;""><p>What type of rock is this?</p>","1","class_response","1","test","14","Basalt","Basalt","16","true","2","2","","","","","","","","","","","","","","","","",""
"","","","","","","","","","","","html-keyboard-response","167","2.0.0","713856","5ef246c6d2b9060809858e7e","4","43","null","","","","","","","","","<p style='font-size: 30px;'><strong>Okay</strong></p>","null","neutral_feedback","1","test","14","","","","","","","","","","","","","","","","","","","","","","",""
"","","","","","","","","","","","html-button-response","168","2.0.0","715575","5ef246c6d2b9060809858e7e","4","43","1714","","","","","","","","","<img src= ""rock_img/I_Gabbro_12.jpg"" style=""width:8cm; height:7.800000000000001cm;""><p>What type of rock is this?</p>","0","class_response","1","test","15","Andesite","Gabbro","12","false","1","4","","","","","","","","","","","","","","","","",""
"","","","","","","","","","","","html-keyboard-response","169","2.0.0","716087","5ef246c6d2b9060809858e7e","4","43","null","","","","","","","","","<p style='font-size: 30px;'><strong>Okay</strong></p>","null","neutral_feedback","1","test","15","","","","","","","","","","","","","","","","","","","","","","",""
"","","","","","","","","","","","html-button-response","170","2.0.0","718772","5ef246c6d2b9060809858e7e","4","43","2681","","","","","","","","","<img src= ""rock_img/I_Gabbro_08.jpg"" style=""width:8cm; height:5.15cm;""><p>What type of rock is this?</p>","0","class_response","1","test","16","Andesite","Gabbro","08","false","1","4","","","","","","","","","","","","","","","","",""
"","","","","","","","","","","","html-keyboard-response","171","2.0.0","719279","5ef246c6d2b9060809858e7e","4","43","null","","","","","","","","","<p style='font-size: 30px;'><strong>Okay</strong></p>","null","neutral_feedback","1","test","16","","","","","","","","","","","","","","","","","","","","","","",""
"","","","","","","","","","","","html-button-response","172","2.0.0","722574","5ef246c6d2b9060809858e7e","4","43","3290","","","","","","","","","<img src= ""rock_img/I_Pegmatite_07.jpg"" style=""width:8cm; height:6.7cm;""><p>What type of rock is this?</p>","5","class_response","1","test","17","Pegmatite","Pegmatite","07","true","6","6","","","","","","","","","","","","","","","","",""
"","","","","","","","","","","","html-keyboard-response","173","2.0.0","723083","5ef246c6d2b9060809858e7e","4","43","null","","","","","","","","","<p style='font-size: 30px;'><strong>Okay</strong></p>","null","neutral_feedback","1","test","17","","","","","","","","","","","","","","","","","","","","","","",""
"","","","","","","","","","","","html-button-response","174","2.0.0","725292","5ef246c6d2b9060809858e7e","4","43","2205","","","","","","","","","<img src= ""rock_img/I_Obsidian_05.jpg"" style=""width:8cm; height:6.33cm;""><p>What type of rock is this?</p>","4","class_response","1","test","18","Obsidian","Obsidian","05","true","5","5","","","","","","","","","","","","","","","","",""
"","","","","","","","","","","","html-keyboard-response","175","2.0.0","725808","5ef246c6d2b9060809858e7e","4","43","null","","","","","","","","","<p style='font-size: 30px;'><strong>Okay</strong></p>","null","neutral_feedback","1","test","18","","","","","","","","","","","","","","","","","","","","","","",""
"","","","","","","","","","","","html-button-response","176","2.0.0","729154","5ef246c6d2b9060809858e7e","4","43","3341","","","","","","","","","<img src= ""rock_img/I_Andesite_01.jpg"" style=""width:8cm; height:5.87cm;""><p>What type of rock is this?</p>","0","class_response","1","test","19","Andesite","Andesite","01","true","1","1","","","","","","","","","","","","","","","","",""
"","","","","","","","","","","","html-keyboard-response","177","2.0.0","729669","5ef246c6d2b9060809858e7e","4","43","null","","","","","","","","","<p style='font-size: 30px;'><strong>Okay</strong></p>","null","neutral_feedback","1","test","19","","","","","","","","","","","","","","","","","","","","","","",""
"","","","","","","","","","","","html-button-response","178","2.0.0","731306","5ef246c6d2b9060809858e7e","4","43","1632","","","","","","","","","<img src= ""rock_img/I_Obsidian_14.jpg"" style=""width:8cm; height:7.64cm;""><p>What type of rock is this?</p>","4","class_response","1","test","20","Obsidian","Obsidian","14","true","5","5","","","","","","","","","","","","","","","","",""
"","","","","","","","","","","","html-keyboard-response","179","2.0.0","731819","5ef246c6d2b9060809858e7e","4","43","null","","","","","","","","","<p style='font-size: 30px;'><strong>Okay</strong></p>","null","neutral_feedback","1","test","20","","","","","","","","","","","","","","","","","","","","","","",""
"","","","","","","","","","","","html-button-response","180","2.0.0","733280","5ef246c6d2b9060809858e7e","4","43","1456","","","","","","","","","<img src= ""rock_img/I_Pumice_15.jpg"" style=""width:8cm; height:7.86cm;""><p>What type of rock is this?</p>","7","class_response","1","test","21","Pumice","Pumice","15","true","8","8","","","","","","","","","","","","","","","","",""
"","","","","","","","","","","","html-keyboard-response","181","2.0.0","733786","5ef246c6d2b9060809858e7e","4","43","null","","","","","","","","","<p style='font-size: 30px;'><strong>Okay</strong></p>","null","neutral_feedback","1","test","21","","","","","","","","","","","","","","","","","","","","","","",""
"","","","","","","","","","","","html-button-response","182","2.0.0","736904","5ef246c6d2b9060809858e7e","4","43","3113","","","","","","","","","<img src= ""rock_img/I_Andesite_02.jpg"" style=""width:8cm; height:8.5cm;""><p>What type of rock is this?</p>","2","class_response","1","test","22","Diorite","Andesite","02","false","3","1","","","","","","","","","","","","","","","","",""
"","","","","","","","","","","","html-keyboard-response","183","2.0.0","737408","5ef246c6d2b9060809858e7e","4","43","null","","","","","","","","","<p style='font-size: 30px;'><strong>Okay</strong></p>","null","neutral_feedback","1","test","22","","","","","","","","","","","","","","","","","","","","","","",""
"","","","","","","","","","","","html-button-response","184","2.0.0","739461","5ef246c6d2b9060809858e7e","4","43","2048","","","","","","","","","<img src= ""rock_img/I_Peridotite_16.jpg"" style=""width:8cm; height:6.989999999999999cm;""><p>What type of rock is this?</p>","2","class_response","1","test","23","Diorite","Peridotite","16","false","3","7","","","","","","","","","","","","","","","","",""
"","","","","","","","","","","","html-keyboard-response","185","2.0.0","739964","5ef246c6d2b9060809858e7e","4","43","null","","","","","","","","","<p style='font-size: 30px;'><strong>Okay</strong></p>","null","neutral_feedback","1","test","23","","","","","","","","","","","","","","","","","","","","","","",""
"","","","","","","","","","","","html-button-response","186","2.0.0","741669","5ef246c6d2b9060809858e7e","4","43","1701","","","","","","","","","<img src= ""rock_img/I_Andesite_09.jpg"" style=""width:8cm; height:6cm;""><p>What type of rock is this?</p>","0","class_response","1","test","24","Andesite","Andesite","09","true","1","1","","","","","","","","","","","","","","","","",""
"","","","","","","","","","","","html-keyboard-response","187","2.0.0","742176","5ef246c6d2b9060809858e7e","4","43","null","","","","","","","","","<p style='font-size: 30px;'><strong>Okay</strong></p>","null","neutral_feedback","1","test","24","","","","","","","","","","","","","","","","","","","","","","",""
"","","","","","","","","","","","html-button-response","188","2.0.0","750173","5ef246c6d2b9060809858e7e","4","43","7993","","","","","","","","","<img src= ""rock_img/I_Gabbro_05.jpg"" style=""width:8cm; height:6cm;""><p>What type of rock is this?</p>","3","class_response","1","test","25","Gabbro","Gabbro","05","true","4","4","","","","","","","","","","","","","","","","",""
"","","","","","","","","","","","html-keyboard-response","189","2.0.0","750676","5ef246c6d2b9060809858e7e","4","43","null","","","","","","","","","<p style='font-size: 30px;'><strong>Okay</strong></p>","null","neutral_feedback","1","test","25","","","","","","","","","","","","","","","","","","","","","","",""
"","","","","","","","","","","","html-button-response","190","2.0.0","753100","5ef246c6d2b9060809858e7e","4","43","2419","","","","","","","","","<img src= ""rock_img/I_Peridotite_05.jpg"" style=""width:8cm; height:7.1499999999999995cm;""><p>What type of rock is this?</p>","6","class_response","1","test","26","Peridotite","Peridotite","05","true","7","7","","","","","","","","","","","","","","","","",""
"","","","","","","","","","","","html-keyboard-response","191","2.0.0","753609","5ef246c6d2b9060809858e7e","4","43","null","","","","","","","","","<p style='font-size: 30px;'><strong>Okay</strong></p>","null","neutral_feedback","1","test","26","","","","","","","","","","","","","","","","","","","","","","",""
"","","","","","","","","","","","html-button-response","192","2.0.0","755080","5ef246c6d2b9060809858e7e","4","43","1466","","","","","","","","","<img src= ""rock_img/I_Pegmatite_08.jpg"" style=""width:8cm; height:7.68cm;""><p>What type of rock is this?</p>","5","class_response","1","test","27","Pegmatite","Pegmatite","08","true","6","6","","","","","","","","","","","","","","","","",""
"","","","","","","","","","","","html-keyboard-response","193","2.0.0","755597","5ef246c6d2b9060809858e7e","4","43","null","","","","","","","","","<p style='font-size: 30px;'><strong>Okay</strong></p>","null","neutral_feedback","1","test","27","","","","","","","","","","","","","","","","","","","","","","",""
"","","","","","","","","","","","html-button-response","194","2.0.0","758872","5ef246c6d2b9060809858e7e","4","43","3270","","","","","","","","","<img src= ""rock_img/I_Andesite_11.jpg"" style=""width:8cm; height:4.92cm;""><p>What type of rock is this?</p>","3","class_response","1","test","28","Gabbro","Andesite","11","false","4","1","","","","","","","","","","","","","","","","",""
"","","","","","","","","","","","html-keyboard-response","195","2.0.0","759376","5ef246c6d2b9060809858e7e","4","43","null","","","","","","","","","<p style='font-size: 30px;'><strong>Okay</strong></p>","null","neutral_feedback","1","test","28","","","","","","","","","","","","","","","","","","","","","","",""
"","","","","","","","","","","","html-button-response","196","2.0.0","763547","5ef246c6d2b9060809858e7e","4","43","4166","","","","","","","","","<img src= ""rock_img/I_Pegmatite_13.jpg"" style=""width:8cm; height:4.95cm;""><p>What type of rock is this?</p>","6","class_response","1","test","29","Peridotite","Pegmatite","13","false","7","6","","","","","","","","","","","","","","","","",""
"","","","","","","","","","","","html-keyboard-response","197","2.0.0","764063","5ef246c6d2b9060809858e7e","4","43","null","","","","","","","","","<p style='font-size: 30px;'><strong>Okay</strong></p>","null","neutral_feedback","1","test","29","","","","","","","","","","","","","","","","","","","","","","",""
"","","","","","","","","","","","html-button-response","198","2.0.0","766371","5ef246c6d2b9060809858e7e","4","43","2303","","","","","","","","","<img src= ""rock_img/I_Pumice_02.jpg"" style=""width:8cm; height:7.3999999999999995cm;""><p>What type of rock is this?</p>","7","class_response","1","test","30","Pumice","Pumice","02","true","8","8","","","","","","","","","","","","","","","","",""
"","","","","","","","","","","","html-keyboard-response","199","2.0.0","766880","5ef246c6d2b9060809858e7e","4","43","null","","","","","","","","","<p style='font-size: 30px;'><strong>Okay</strong></p>","null","neutral_feedback","1","test","30","","","","","","","","","","","","","","","","","","","","","","",""
"","","","","","","","","","","","html-button-response","200","2.0.0","768329","5ef246c6d2b9060809858e7e","4","43","1444","","","","","","","","","<img src= ""rock_img/I_Basalt_11.jpg"" style=""width:8cm; height:5.359999999999999cm;""><p>What type of rock is this?</p>","7","class_response","1","test","31","Pumice","Basalt","11","false","8","2","","","","","","","","","","","","","","","","",""
"","","","","","","","","","","","html-keyboard-response","201","2.0.0","768839","5ef246c6d2b9060809858e7e","4","43","null","","","","","","","","","<p style='font-size: 30px;'><strong>Okay</strong></p>","null","neutral_feedback","1","test","31","","","","","","","","","","","","","","","","","","","","","","",""
"","","","","","","","","","","","html-button-response","202","2.0.0","771238","5ef246c6d2b9060809858e7e","4","43","2395","","","","","","","","","<img src= ""rock_img/I_Andesite_07.jpg"" style=""width:8cm; height:5.93cm;""><p>What type of rock is this?</p>","2","class_response","1","test","32","Diorite","Andesite","07","false","3","1","","","","","","","","","","","","","","","","",""
"","","","","","","","","","","","html-keyboard-response","203","2.0.0","771753","5ef246c6d2b9060809858e7e","4","43","null","","","","","","","","","<p style='font-size: 30px;'><strong>Okay</strong></p>","null","neutral_feedback","1","test","32","","","","","","","","","","","","","","","","","","","","","","",""
"","","","","","","","","","","","html-button-response","204","2.0.0","774174","5ef246c6d2b9060809858e7e","4","43","2416","","","","","","","","","<img src= ""rock_img/I_Peridotite_14.jpg"" style=""width:8cm; height:5.3cm;""><p>What type of rock is this?</p>","2","class_response","1","test","33","Diorite","Peridotite","14","false","3","7","","","","","","","","","","","","","","","","",""
"","","","","","","","","","","","html-keyboard-response","205","2.0.0","774678","5ef246c6d2b9060809858e7e","4","43","null","","","","","","","","","<p style='font-size: 30px;'><strong>Okay</strong></p>","null","neutral_feedback","1","test","33","","","","","","","","","","","","","","","","","","","","","","",""
"","","","","","","","","","","","html-button-response","206","2.0.0","776157","5ef246c6d2b9060809858e7e","4","43","1474","","","","","","","","","<img src= ""rock_img/I_Basalt_12.jpg"" style=""width:8cm; height:6.010000000000001cm;""><p>What type of rock is this?</p>","7","class_response","1","test","34","Pumice","Basalt","12","false","8","2","","","","","","","","","","","","","","","","",""
"","","","","","","","","","","","html-keyboard-response","207","2.0.0","776666","5ef246c6d2b9060809858e7e","4","43","null","","","","","","","","","<p style='font-size: 30px;'><strong>Okay</strong></p>","null","neutral_feedback","1","test","34","","","","","","","","","","","","","","","","","","","","","","",""
"","","","","","","","","","","","html-button-response","208","2.0.0","778098","5ef246c6d2b9060809858e7e","4","43","1427","","","","","","","","","<img src= ""rock_img/I_Obsidian_06.jpg"" style=""width:8cm; height:6.8cm;""><p>What type of rock is this?</p>","4","class_response","1","test","35","Obsidian","Obsidian","06","true","5","5","","","","","","","","","","","","","","","","",""
"","","","","","","","","","","","html-keyboard-response","209","2.0.0","778615","5ef246c6d2b9060809858e7e","4","43","null","","","","","","","","","<p style='font-size: 30px;'><strong>Okay</strong></p>","null","neutral_feedback","1","test","35","","","","","","","","","","","","","","","","","","","","","","",""
"","","","","","","","","","","","html-button-response","210","2.0.0","780000","5ef246c6d2b9060809858e7e","4","43","1380","","","","","","","","","<img src= ""rock_img/I_Pumice_10.jpg"" style=""width:8cm; height:7.609999999999999cm;""><p>What type of rock is this?</p>","7","class_response","1","test","36","Pumice","Pumice","10","true","8","8","","","","","","","","","","","","","","","","",""
"","","","","","","","","","","","html-keyboard-response","211","2.0.0","780514","5ef246c6d2b9060809858e7e","4","43","null","","","","","","","","","<p style='font-size: 30px;'><strong>Okay</strong></p>","null","neutral_feedback","1","test","36","","","","","","","","","","","","","","","","","","","","","","",""
"","","","","","","","","","","","html-button-response","212","2.0.0","782662","5ef246c6d2b9060809858e7e","4","43","2144","","","","","","","","","<img src= ""rock_img/I_Pegmatite_06.jpg"" style=""width:8cm; height:5.17cm;""><p>What type of rock is this?</p>","5","class_response","1","test","37","Pegmatite","Pegmatite","06","true","6","6","","","","","","","","","","","","","","","","",""
"","","","","","","","","","","","html-keyboard-response","213","2.0.0","783175","5ef246c6d2b9060809858e7e","4","43","null","","","","","","","","","<p style='font-size: 30px;'><strong>Okay</strong></p>","null","neutral_feedback","1","test","37","","","","","","","","","","","","","","","","","","","","","","",""
"","","","","","","","","","","","html-button-response","214","2.0.0","787563","5ef246c6d2b9060809858e7e","4","43","4384","","","","","","","","","<img src= ""rock_img/I_Gabbro_09.jpg"" style=""width:8cm; height:7.279999999999999cm;""><p>What type of rock is this?</p>","3","class_response","1","test","38","Gabbro","Gabbro","09","true","4","4","","","","","","","","","","","","","","","","",""
"","","","","","","","","","","","html-keyboard-response","215","2.0.0","788078","5ef246c6d2b9060809858e7e","4","43","null","","","","","","","","","<p style='font-size: 30px;'><strong>Okay</strong></p>","null","neutral_feedback","1","test","38","","","","","","","","","","","","","","","","","","","","","","",""
"","","","","","","","","","","","html-button-response","216","2.0.0","791134","5ef246c6d2b9060809858e7e","4","43","3052","","","","","","","","","<img src= ""rock_img/I_Andesite_03.jpg"" style=""width:8cm; height:5.73cm;""><p>What type of rock is this?</p>","0","class_response","1","test","39","Andesite","Andesite","03","true","1","1","","","","","","","","","","","","","","","","",""
"","","","","","","","","","","","html-keyboard-response","217","2.0.0","791650","5ef246c6d2b9060809858e7e","4","43","null","","","","","","","","","<p style='font-size: 30px;'><strong>Okay</strong></p>","null","neutral_feedback","1","test","39","","","","","","","","","","","","","","","","","","","","","","",""
"","","","","","","","","","","","html-button-response","218","2.0.0","795928","5ef246c6d2b9060809858e7e","4","43","4273","","","","","","","","","<img src= ""rock_img/I_Diorite_16.jpg"" style=""width:8cm; height:6.74cm;""><p>What type of rock is this?</p>","2","class_response","1","test","40","Diorite","Diorite","16","true","3","3","","","","","","","","","","","","","","","","",""
"","","","","","","","","","","","html-keyboard-response","219","2.0.0","796438","5ef246c6d2b9060809858e7e","4","43","null","","","","","","","","","<p style='font-size: 30px;'><strong>Okay</strong></p>","null","neutral_feedback","1","test","40","","","","","","","","","","","","","","","","","","","","","","",""
"","","","","","","","","","","","html-button-response","220","2.0.0","798072","5ef246c6d2b9060809858e7e","4","43","1629","","","","","","","","","<img src= ""rock_img/I_Pumice_04.jpg"" style=""width:8cm; height:6.819999999999999cm;""><p>What type of rock is this?</p>","7","class_response","1","test","41","Pumice","Pumice","04","true","8","8","","","","","","","","","","","","","","","","",""
"","","","","","","","","","","","html-keyboard-response","221","2.0.0","798589","5ef246c6d2b9060809858e7e","4","43","null","","","","","","","","","<p style='font-size: 30px;'><strong>Okay</strong></p>","null","neutral_feedback","1","test","41","","","","","","","","","","","","","","","","","","","","","","",""
"","","","","","","","","","","","html-button-response","222","2.0.0","799974","5ef246c6d2b9060809858e7e","4","43","1380","","","","","","","","","<img src= ""rock_img/I_Obsidian_08.jpg"" style=""width:8cm; height:7.39cm;""><p>What type of rock is this?</p>","4","class_response","1","test","42","Obsidian","Obsidian","08","true","5","5","","","","","","","","","","","","","","","","",""
"","","","","","","","","","","","html-keyboard-response","223","2.0.0","800481","5ef246c6d2b9060809858e7e","4","43","null","","","","","","","","","<p style='font-size: 30px;'><strong>Okay</strong></p>","null","neutral_feedback","1","test","42","","","","","","","","","","","","","","","","","","","","","","",""
"","","","","","","","","","","","html-button-response","224","2.0.0","802004","5ef246c6d2b9060809858e7e","4","43","1518","","","","","","","","","<img src= ""rock_img/I_Obsidian_09.jpg"" style=""width:8cm; height:5cm;""><p>What type of rock is this?</p>","4","class_response","1","test","43","Obsidian","Obsidian","09","true","5","5","","","","","","","","","","","","","","","","",""
"","","","","","","","","","","","html-keyboard-response","225","2.0.0","802522","5ef246c6d2b9060809858e7e","4","43","null","","","","","","","","","<p style='font-size: 30px;'><strong>Okay</strong></p>","null","neutral_feedback","1","test","43","","","","","","","","","","","","","","","","","","","","","","",""
"","","","","","","","","","","","html-button-response","226","2.0.0","806361","5ef246c6d2b9060809858e7e","4","43","3835","","","","","","","","","<img src= ""rock_img/I_Gabbro_14.jpg"" style=""width:8cm; height:8.48cm;""><p>What type of rock is this?</p>","1","class_response","1","test","44","Basalt","Gabbro","14","false","2","4","","","","","","","","","","","","","","","","",""
"","","","","","","","","","","","html-keyboard-response","227","2.0.0","806873","5ef246c6d2b9060809858e7e","4","43","null","","","","","","","","","<p style='font-size: 30px;'><strong>Okay</strong></p>","null","neutral_feedback","1","test","44","","","","","","","","","","","","","","","","","","","","","","",""
"","","","","","","","","","","","html-button-response","228","2.0.0","808269","5ef246c6d2b9060809858e7e","4","43","1391","","","","","","","","","<img src= ""rock_img/I_Pumice_13.jpg"" style=""width:8cm; height:8.200000000000001cm;""><p>What type of rock is this?</p>","7","class_response","1","test","45","Pumice","Pumice","13","true","8","8","","","","","","","","","","","","","","","","",""
"","","","","","","","","","","","html-keyboard-response","229","2.0.0","808777","5ef246c6d2b9060809858e7e","4","43","null","","","","","","","","","<p style='font-size: 30px;'><strong>Okay</strong></p>","null","neutral_feedback","1","test","45","","","","","","","","","","","","","","","","","","","","","","",""
"","","","","","","","","","","","html-button-response","230","2.0.0","814780","5ef246c6d2b9060809858e7e","4","43","5999","","","","","","","","","<img src= ""rock_img/I_Peridotite_13.jpg"" style=""width:8cm; height:7.58cm;""><p>What type of rock is this?</p>","6","class_response","1","test","46","Peridotite","Peridotite","13","true","7","7","","","","","","","","","","","","","","","","",""
"","","","","","","","","","","","html-keyboard-response","231","2.0.0","815297","5ef246c6d2b9060809858e7e","4","43","null","","","","","","","","","<p style='font-size: 30px;'><strong>Okay</strong></p>","null","neutral_feedback","1","test","46","","","","","","","","","","","","","","","","","","","","","","",""
"","","","","","","","","","","","html-button-response","232","2.0.0","816919","5ef246c6d2b9060809858e7e","4","43","1617","","","","","","","","","<img src= ""rock_img/I_Basalt_06.jpg"" style=""width:8cm; height:7.06cm;""><p>What type of rock is this?</p>","1","class_response","1","test","47","Basalt","Basalt","06","true","2","2","","","","","","","","","","","","","","","","",""
"","","","","","","","","","","","html-keyboard-response","233","2.0.0","817422","5ef246c6d2b9060809858e7e","4","43","null","","","","","","","","","<p style='font-size: 30px;'><strong>Okay</strong></p>","null","neutral_feedback","1","test","47","","","","","","","","","","","","","","","","","","","","","","",""
"","","","","","","","","","","","html-button-response","234","2.0.0","818594","5ef246c6d2b9060809858e7e","4","43","1168","","","","","","","","","<img src= ""rock_img/I_Basalt_08.jpg"" style=""width:8cm; height:10.44cm;""><p>What type of rock is this?</p>","1","class_response","1","test","48","Basalt","Basalt","08","true","2","2","","","","","","","","","","","","","","","","",""
"","","","","","","","","","","","html-keyboard-response","235","2.0.0","819106","5ef246c6d2b9060809858e7e","4","43","null","","","","","","","","","<p style='font-size: 30px;'><strong>Okay</strong></p>","null","neutral_feedback","1","test","48","","","","","","","","","","","","","","","","","","","","","","",""
"","","","","","","","","","","","html-button-response","236","2.0.0","849322","5ef246c6d2b9060809858e7e","4","43","","","","","","","","","","","","cycle_feedback","","","","","","","","","","","","","","","","","","","","","","","","16877.900000000373","13316.599999999627",""
"","","","","","","","","","","","html-button-response","238","2.0.0","851641","5ef246c6d2b9060809858e7e","4","43","2315","","","","","","","","","","0","start_train","","","","","","","","","","","","","","","","","","","","","","","","","",""
"","","","","","","","","","","","html-button-response","240","2.0.0","854060","5ef246c6d2b9060809858e7e","4","43","2413","","","","","","","","","<img src= ""rock_img/I_Gabbro_11.jpg"" style=""width:8cm; height:6.2cm;""><p>What type of rock is this?</p>","0","class_response","2","train","1","Andesite","Gabbro","11","false","1","4","","","","","","","","","","","","","","","","",""
"","","","","","","","","","","","html-button-response","241","2.0.0","857252","5ef246c6d2b9060809858e7e","4","43","3189","","","","","","","","","<img src= rock_img/I_Gabbro_11.jpg style=""width:8cm; height:6.2cm;""><p style='font-size: 30px; color: red;'><strong>Incorrect!</strong></p><p style='font-size: 30px;'><strong>This rock is gabbro</strong></p>","0","corr_feedback","2","train","1","","","","","","","","","","","","","","","","","","","","","","",""
"","","","","","","","","","","","html-button-response","242","2.0.0","860070","5ef246c6d2b9060809858e7e","4","43","2813","","","","","","","","","<img src= ""rock_img/I_Andesite_16.jpg"" style=""width:8cm; height:6.010000000000001cm;""><p>What type of rock is this?</p>","0","class_response","2","train","2","Andesite","Andesite","16","true","1","1","","","","","","","","","","","","","","","","",""
"","","","","","","","","","","","html-button-response","243","2.0.0","861959","5ef246c6d2b9060809858e7e","4","43","1885","","","","","","","","","<img src= rock_img/I_Andesite_16.jpg style=""width:8cm; height:6.010000000000001cm;""><p style='font-size: 30px; color: green;'><strong>Correct!</strong></p><p style='font-size: 30px;'><strong>This rock is andesite</strong></p>","0","corr_feedback","2","train","2","","","","","","","","","","","","","","","","","","","","","","",""
"","","","","","","","","","","","html-button-response","244","2.0.0","863654","5ef246c6d2b9060809858e7e","4","43","1690","","","","","","","","","<img src= ""rock_img/I_Obsidian_16.jpg"" style=""width:8cm; height:9.3cm;""><p>What type of rock is this?</p>","4","class_response","2","train","3","Obsidian","Obsidian","16","true","5","5","","","","","","","","","","","","","","","","",""
"","","","","","","","","","","","html-button-response","245","2.0.0","864915","5ef246c6d2b9060809858e7e","4","43","1257","","","","","","","","","<img src= rock_img/I_Obsidian_16.jpg style=""width:8cm; height:9.3cm;""><p style='font-size: 30px; color: green;'><strong>Correct!</strong></p><p style='font-size: 30px;'><strong>This rock is obsidian</strong></p>","0","corr_feedback","2","train","3","","","","","","","","","","","","","","","","","","","","","","",""
"","","","","","","","","","","","html-button-response","246","2.0.0","866422","5ef246c6d2b9060809858e7e","4","43","1502","","","","","","","","","<img src= ""rock_img/I_Pegmatite_05.jpg"" style=""width:8cm; height:7.300000000000001cm;""><p>What type of rock is this?</p>","5","class_response","2","train","4","Pegmatite","Pegmatite","05","true","6","6","","","","","","","","","","","","","","","","",""
"","","","","","","","","","","","html-button-response","247","2.0.0","867396","5ef246c6d2b9060809858e7e","4","43","971","","","","","","","","","<img src= rock_img/I_Pegmatite_05.jpg style=""width:8cm; height:7.300000000000001cm;""><p style='font-size: 30px; color: green;'><strong>Correct!</strong></p><p style='font-size: 30px;'><strong>This rock is pegmatite</strong></p>","0","corr_feedback","2","train","4","","","","","","","","","","","","","","","","","","","","","","",""
"","","","","","","","","","","","html-button-response","248","2.0.0","868835","5ef246c6d2b9060809858e7e","4","43","1434","","","","","","","","","<img src= ""rock_img/I_Diorite_07.jpg"" style=""width:8cm; height:5.239999999999999cm;""><p>What type of rock is this?</p>","2","class_response","2","train","5","Diorite","Diorite","07","true","3","3","","","","","","","","","","","","","","","","",""
"","","","","","","","","","","","html-button-response","249","2.0.0","869768","5ef246c6d2b9060809858e7e","4","43","929","","","","","","","","","<img src= rock_img/I_Diorite_07.jpg style=""width:8cm; height:5.239999999999999cm;""><p style='font-size: 30px; color: green;'><strong>Correct!</strong></p><p style='font-size: 30px;'><strong>This rock is diorite</strong></p>","0","corr_feedback","2","train","5","","","","","","","","","","","","","","","","","","","","","","",""
"","","","","","","","","","","","html-button-response","250","2.0.0","871132","5ef246c6d2b9060809858e7e","4","43","1360","","","","","","","","","<img src= ""rock_img/I_Pegmatite_15.jpg"" style=""width:8cm; height:6cm;""><p>What type of rock is this?</p>","5","class_response","2","train","6","Pegmatite","Pegmatite","15","true","6","6","","","","","","","","","","","","","","","","",""
"","","","","","","","","","","","html-button-response","251","2.0.0","871943","5ef246c6d2b9060809858e7e","4","43","806","","","","","","","","","<img src= rock_img/I_Pegmatite_15.jpg style=""width:8cm; height:6cm;""><p style='font-size: 30px; color: green;'><strong>Correct!</strong></p><p style='font-size: 30px;'><strong>This rock is pegmatite</strong></p>","0","corr_feedback","2","train","6","","","","","","","","","","","","","","","","","","","","","","",""
"","","","","","","","","","","","html-button-response","252","2.0.0","873736","5ef246c6d2b9060809858e7e","4","43","1789","","","","","","","","","<img src= ""rock_img/I_Basalt_02.jpg"" style=""width:8cm; height:6.45cm;""><p>What type of rock is this?</p>","1","class_response","2","train","7","Basalt","Basalt","02","true","2","2","","","","","","","","","","","","","","","","",""
"","","","","","","","","","","","html-button-response","253","2.0.0","874695","5ef246c6d2b9060809858e7e","4","43","954","","","","","","","","","<img src= rock_img/I_Basalt_02.jpg style=""width:8cm; height:6.45cm;""><p style='font-size: 30px; color: green;'><strong>Correct!</strong></p><p style='font-size: 30px;'><strong>This rock is basalt</strong></p>","0","corr_feedback","2","train","7","","","","","","","","","","","","","","","","","","","","","","",""
"","","","","","","","","","","","html-button-response","254","2.0.0","876034","5ef246c6d2b9060809858e7e","4","43","1334","","","","","","","","","<img src= ""rock_img/I_Pumice_03.jpg"" style=""width:8cm; height:6.64cm;""><p>What type of rock is this?</p>","7","class_response","2","train","8","Pumice","Pumice","03","true","8","8","","","","","","","","","","","","","","","","",""
"","","","","","","","","","","","html-button-response","255","2.0.0","877007","5ef246c6d2b9060809858e7e","4","43","969","","","","","","","","","<img src= rock_img/I_Pumice_03.jpg style=""width:8cm; height:6.64cm;""><p style='font-size: 30px; color: green;'><strong>Correct!</strong></p><p style='font-size: 30px;'><strong>This rock is pumice</strong></p>","0","corr_feedback","2","train","8","","","","","","","","","","","","","","","","","","","","","","",""
"","","","","","","","","","","","html-button-response","256","2.0.0","879772","5ef246c6d2b9060809858e7e","4","43","2761","","","","","","","","","<img src= ""rock_img/I_Gabbro_13.jpg"" style=""width:8cm; height:5.08cm;""><p>What type of rock is this?</p>","2","class_response","2","train","9","Diorite","Gabbro","13","false","3","4","","","","","","","","","","","","","","","","",""
"","","","","","","","","","","","html-button-response","257","2.0.0","882362","5ef246c6d2b9060809858e7e","4","43","2585","","","","","","","","","<img src= rock_img/I_Gabbro_13.jpg style=""width:8cm; height:5.08cm;""><p style='font-size: 30px; color: red;'><strong>Incorrect!</strong></p><p style='font-size: 30px;'><strong>This rock is gabbro</strong></p>","0","corr_feedback","2","train","9","","","","","","","","","","","","","","","","","","","","","","",""
"","","","","","","","","","","","html-button-response","258","2.0.0","883840","5ef246c6d2b9060809858e7e","4","43","1473","","","","","","","","","<img src= ""rock_img/I_Andesite_06.jpg"" style=""width:8cm; height:6.840000000000001cm;""><p>What type of rock is this?</p>","3","class_response","2","train","10","Gabbro","Andesite","06","false","4","1","","","","","","","","","","","","","","","","",""
"","","","","","","","","","","","html-button-response","259","2.0.0","885050","5ef246c6d2b9060809858e7e","4","43","1207","","","","","","","","","<img src= rock_img/I_Andesite_06.jpg style=""width:8cm; height:6.840000000000001cm;""><p style='font-size: 30px; color: red;'><strong>Incorrect!</strong></p><p style='font-size: 30px;'><strong>This rock is andesite</strong></p>","0","corr_feedback","2","train","10","","","","","","","","","","","","","","","","","","","","","","",""
"","","","","","","","","","","","html-button-response","260","2.0.0","886239","5ef246c6d2b9060809858e7e","4","43","1184","","","","","","","","","<img src= ""rock_img/I_Pumice_14.jpg"" style=""width:8cm; height:6.39cm;""><p>What type of rock is this?</p>","7","class_response","2","train","11","Pumice","Pumice","14","true","8","8","","","","","","","","","","","","","","","","",""
"","","","","","","","","","","","html-button-response","261","2.0.0","886984","5ef246c6d2b9060809858e7e","4","43","741","","","","","","","","","<img src= rock_img/I_Pumice_14.jpg style=""width:8cm; height:6.39cm;""><p style='font-size: 30px; color: green;'><strong>Correct!</strong></p><p style='font-size: 30px;'><strong>This rock is pumice</strong></p>","0","corr_feedback","2","train","11","","","","","","","","","","","","","","","","","","","","","","",""
"","","","","","","","","","","","html-button-response","262","2.0.0","889004","5ef246c6d2b9060809858e7e","4","43","2015","","","","","","","","","<img src= ""rock_img/I_Peridotite_12.jpg"" style=""width:8cm; height:4.54cm;""><p>What type of rock is this?</p>","2","class_response","2","train","12","Diorite","Peridotite","12","false","3","7","","","","","","","","","","","","","","","","",""
"","","","","","","","","","","","html-button-response","263","2.0.0","891082","5ef246c6d2b9060809858e7e","4","43","2075","","","","","","","","","<img src= rock_img/I_Peridotite_12.jpg style=""width:8cm; height:4.54cm;""><p style='font-size: 30px; color: red;'><strong>Incorrect!</strong></p><p style='font-size: 30px;'><strong>This rock is peridotite</strong></p>","0","corr_feedback","2","train","12","","","","","","","","","","","","","","","","","","","","","","",""
"","","","","","","","","","","","html-button-response","265","2.0.0","892625","5ef246c6d2b9060809858e7e","4","43","1537","","","","","","","","","","0","start_train","","","","","","","","","","","","","","","","","","","","","","","","","",""
"","","","","","","","","","","","html-button-response","266","2.0.0","899471","5ef246c6d2b9060809858e7e","4","43","","","","","","","","","","","","cat_selection","2","train","1","","","","","","","4133.200000000186","2709.100000000093","4","1","Gabbro","Andesite","","","","","","","","","","",""
"","","","","","","","","","","","paired-cat-display","267","1.0.0","948103","5ef246c6d2b9060809858e7e","4","43","","","","","","","","","","","","paired_cat_display","2","train","1","","","","","","","","","","","","","Rougher, jagged, visible defects","","7372","41250.89999999991","gray, stone rock, collection of small rocks","","","","","",""
"","","","","","","","","","","","html-button-response","268","2.0.0","958683","5ef246c6d2b9060809858e7e","4","43","","","","","","","","","","","","cat_selection","2","train","2","","","","","","","9847.099999999627","729.2000000001863","3","7","Diorite","Peridotite","","","","","","","","","","",""
"","","","","","","","","","","","paired-cat-display","269","1.0.0","995202","5ef246c6d2b9060809858e7e","4","43","","","","","","","","","","","","paired_cat_display","2","train","2","","","","","","","","","","","","","","multi-colored, resembles the earth","7060.600000000093","29451","","","small fine dots in the rock, two colored","","","",""
"","","","","","","","","","","","html-button-response","270","2.0.0","1013361","5ef246c6d2b9060809858e7e","4","43","","","","","","","","","","","","cat_selection","2","train","3","","","","","","","4386.0999999996275","13770","4","7","Gabbro","Peridotite","","","","","","","","","","",""
"","","","","","","","","","","","paired-cat-display","271","1.0.0","1051175","5ef246c6d2b9060809858e7e","4","43","","","","","","","","","","","","paired_cat_display","2","train","3","","","","","","","","","","","","","irregular, shaped, resembles cave stones","Can be several colors","6348.899999999907","31455.299999999814","","","","","","",""
"","","","","","","","","","","","html-button-response","273","2.0.0","1052471","5ef246c6d2b9060809858e7e","4","43","1292","","","","","","","","","","0","start_test","","","","","","","","","","","","","","","","","","","","","","","","","",""
"","","","","","","","","","","","html-button-response","274","2.0.0","1056548","5ef246c6d2b9060809858e7e","4","43","4071","","","","","","","","","<img src= ""rock_img/I_Diorite_16.jpg"" style=""width:8cm; height:6.74cm;""><p>What type of rock is this?</p>","2","class_response","2","test","1","Diorite","Diorite","16","true","3","3","","","","","","","","","","","","","","","","",""
"","","","","","","","","","","","html-keyboard-response","275","2.0.0","1057059","5ef246c6d2b9060809858e7e","4","43","null","","","","","","","","","<p style='font-size: 30px;'><strong>Okay</strong></p>","null","neutral_feedback","2","test","1","","","","","","","","","","","","","","","","","","","","","","",""
"","","","","","","","","","","","html-button-response","276","2.0.0","1060769","5ef246c6d2b9060809858e7e","4","43","3705","","","","","","","","","<img src= ""rock_img/I_Peridotite_10.jpg"" style=""width:8cm; height:5.390000000000001cm;""><p>What type of rock is this?</p>","6","class_response","2","test","2","Peridotite","Peridotite","10","true","7","7","","","","","","","","","","","","","","","","",""
"","","","","","","","","","","","html-keyboard-response","277","2.0.0","1061279","5ef246c6d2b9060809858e7e","4","43","null","","","","","","","","","<p style='font-size: 30px;'><strong>Okay</strong></p>","null","neutral_feedback","2","test","2","","","","","","","","","","","","","","","","","","","","","","",""
"","","","","","","","","","","","html-button-response","278","2.0.0","1062901","5ef246c6d2b9060809858e7e","4","43","1618","","","","","","","","","<img src= ""rock_img/I_Obsidian_08.jpg"" style=""width:8cm; height:7.39cm;""><p>What type of rock is this?</p>","4","class_response","2","test","3","Obsidian","Obsidian","08","true","5","5","","","","","","","","","","","","","","","","",""
"","","","","","","","","","","","html-keyboard-response","279","2.0.0","1063410","5ef246c6d2b9060809858e7e","4","43","null","","","","","","","","","<p style='font-size: 30px;'><strong>Okay</strong></p>","null","neutral_feedback","2","test","3","","","","","","","","","","","","","","","","","","","","","","",""
