"width","height","webaudio","browser","browser_version","mobile","os","fullscreen","vsync_rate","webcam","microphone","trial_type","trial_index","plugin_version","time_elapsed","subjID","condition","stimID","rt","url","success","value","timeout","failed_images","failed_audio","failed_video","view_history","stimulus","response","trialType","cycle","phase","trial","resp","cat","token","corr","resp_num","cat_num","rt_ref","rt_paired","ref_cat_num","paired_cat_num","ref_cat","paired_cat","text_Diorite","text_Andesite","time_obs","time_resp","text_Gabbro","text_Peridotite","text_Obsidian","time_fb1","time_fb2","text_Pumice","text_Basalt","text_Pegmatite"
"1366","641","true","chrome","131.0.0","false","Windows 10","true","60.55","false","false","browser-check","0","2.0.0","1035","671c8a1fe7a5cd2edc846675","4","51","","","","","","","","","","","","","","","","","","","","","","","","","","","","","","","","","","","","","","",""
"","","","","","","","","","","","external-html","1","2.0.0","37180","671c8a1fe7a5cd2edc846675","4","51","34915","consent_form.html","","","","","","","","","","","","","","","","","","","","","","","","","","","","","","","","","","","","",""
"","","","","","","","","","","","fullscreen","2","2.0.0","43181","671c8a1fe7a5cd2edc846675","4","51","4997","","true","","","","","","","","","","","","","","","","","","","","","","","","","","","","","","","","","","","",""
"","","","","","","","","","","","call-function","3","2.0.0","43183","671c8a1fe7a5cd2edc846675","4","51","","","","{}","","","","","","","","","","","","","","","","","","","","","","","","","","","","","","","","","","",""
"","","","","","","","","","","","preload","4","2.0.0","59299","671c8a1fe7a5cd2edc846675","4","51","","","true","","false","[]","[]","[]","","","","","","","","","","","","","","","","","","","","","","","","","","","","","","",""
"","","","","","","","","","","","instructions","5","2.0.0","125715","671c8a1fe7a5cd2edc846675","4","51","66411","","","","","","","","[{""page_index"":0,""viewing_time"":13707},{""page_index"":1,""viewing_time"":32152},{""page_index"":2,""viewing_time"":20552}]","","","","","","","","","","","","","","","","","","","","","","","","","","","","","",""
"","","","","","","","","","","","html-button-response","6","2.0.0","183163","671c8a1fe7a5cd2edc846675","4","51","57446","","","","","","","","","","0","start_test","","","","","","","","","","","","","","","","","","","","","","","","","","",""
"","","","","","","","","","","","html-button-response","7","2.0.0","188115","671c8a1fe7a5cd2edc846675","4","51","4950","","","","","","","","","<img src= ""rock_img/I_Obsidian_08.jpg"" style=""width:8cm; height:7.39cm;""><p>What type of rock is this?</p>","2","class_response","0","test","1","Diorite","Obsidian","08","false","3","5","","","","","","","","","","","","","","","","","",""
"","","","","","","","","","","","html-keyboard-response","8","2.0.0","188626","671c8a1fe7a5cd2edc846675","4","51","null","","","","","","","","","<p style='font-size: 30px;'><strong>Okay</strong></p>","null","neutral_feedback","0","test","1","","","","","","","","","","","","","","","","","","","","","","","",""
"","","","","","","","","","","","html-button-response","9","2.0.0","194180","671c8a1fe7a5cd2edc846675","4","51","5551","","","","","","","","","<img src= ""rock_img/I_Pumice_05.jpg"" style=""width:8cm; height:7.25cm;""><p>What type of rock is this?</p>","4","class_response","0","test","2","Obsidian","Pumice","05","false","5","8","","","","","","","","","","","","","","","","","",""
"","","","","","","","","","","","html-keyboard-response","10","2.0.0","194689","671c8a1fe7a5cd2edc846675","4","51","null","","","","","","","","","<p style='font-size: 30px;'><strong>Okay</strong></p>","null","neutral_feedback","0","test","2","","","","","","","","","","","","","","","","","","","","","","","",""
"","","","","","","","","","","","html-button-response","11","2.0.0","199788","671c8a1fe7a5cd2edc846675","4","51","5095","","","","","","","","","<img src= ""rock_img/I_Pumice_16.jpg"" style=""width:8cm; height:6.79cm;""><p>What type of rock is this?</p>","6","class_response","0","test","3","Peridotite","Pumice","16","false","7","8","","","","","","","","","","","","","","","","","",""
"","","","","","","","","","","","html-keyboard-response","12","2.0.0","200293","671c8a1fe7a5cd2edc846675","4","51","null","","","","","","","","","<p style='font-size: 30px;'><strong>Okay</strong></p>","null","neutral_feedback","0","test","3","","","","","","","","","","","","","","","","","","","","","","","",""
"","","","","","","","","","","","html-button-response","13","2.0.0","201931","671c8a1fe7a5cd2edc846675","4","51","1634","","","","","","","","","<img src= ""rock_img/I_Pegmatite_07.jpg"" style=""width:8cm; height:6.7cm;""><p>What type of rock is this?</p>","7","class_response","0","test","4","Pumice","Pegmatite","07","false","8","6","","","","","","","","","","","","","","","","","",""
"","","","","","","","","","","","html-keyboard-response","14","2.0.0","202434","671c8a1fe7a5cd2edc846675","4","51","null","","","","","","","","","<p style='font-size: 30px;'><strong>Okay</strong></p>","null","neutral_feedback","0","test","4","","","","","","","","","","","","","","","","","","","","","","","",""
"","","","","","","","","","","","html-button-response","15","2.0.0","204763","671c8a1fe7a5cd2edc846675","4","51","2328","","","","","","","","","<img src= ""rock_img/I_Gabbro_03.jpg"" style=""width:8cm; height:8.52cm;""><p>What type of rock is this?</p>","1","class_response","0","test","5","Basalt","Gabbro","03","false","2","4","","","","","","","","","","","","","","","","","",""
"","","","","","","","","","","","html-keyboard-response","16","2.0.0","205270","671c8a1fe7a5cd2edc846675","4","51","null","","","","","","","","","<p style='font-size: 30px;'><strong>Okay</strong></p>","null","neutral_feedback","0","test","5","","","","","","","","","","","","","","","","","","","","","","","",""
"","","","","","","","","","","","html-button-response","17","2.0.0","210235","671c8a1fe7a5cd2edc846675","4","51","4961","","","","","","","","","<img src= ""rock_img/I_Basalt_04.jpg"" style=""width:8cm; height:7.53cm;""><p>What type of rock is this?</p>","0","class_response","0","test","6","Andesite","Basalt","04","false","1","2","","","","","","","","","","","","","","","","","",""
"","","","","","","","","","","","html-keyboard-response","18","2.0.0","210748","671c8a1fe7a5cd2edc846675","4","51","null","","","","","","","","","<p style='font-size: 30px;'><strong>Okay</strong></p>","null","neutral_feedback","0","test","6","","","","","","","","","","","","","","","","","","","","","","","",""
"","","","","","","","","","","","html-button-response","19","2.0.0","214899","671c8a1fe7a5cd2edc846675","4","51","4149","","","","","","","","","<img src= ""rock_img/I_Diorite_02.jpg"" style=""width:8cm; height:6.27cm;""><p>What type of rock is this?</p>","2","class_response","0","test","7","Diorite","Diorite","02","true","3","3","","","","","","","","","","","","","","","","","",""
"","","","","","","","","","","","html-keyboard-response","20","2.0.0","215405","671c8a1fe7a5cd2edc846675","4","51","null","","","","","","","","","<p style='font-size: 30px;'><strong>Okay</strong></p>","null","neutral_feedback","0","test","7","","","","","","","","","","","","","","","","","","","","","","","",""
"","","","","","","","","","","","html-button-response","21","2.0.0","220907","671c8a1fe7a5cd2edc846675","4","51","5499","","","","","","","","","<img src= ""rock_img/I_Basalt_08.jpg"" style=""width:8cm; height:10.44cm;""><p>What type of rock is this?</p>","3","class_response","0","test","8","Gabbro","Basalt","08","false","4","2","","","","","","","","","","","","","","","","","",""
"","","","","","","","","","","","html-keyboard-response","22","2.0.0","221409","671c8a1fe7a5cd2edc846675","4","51","null","","","","","","","","","<p style='font-size: 30px;'><strong>Okay</strong></p>","null","neutral_feedback","0","test","8","","","","","","","","","","","","","","","","","","","","","","","",""
"","","","","","","","","","","","html-button-response","23","2.0.0","222995","671c8a1fe7a5cd2edc846675","4","51","1585","","","","","","","","","<img src= ""rock_img/I_Pumice_10.jpg"" style=""width:8cm; height:7.609999999999999cm;""><p>What type of rock is this?</p>","6","class_response","0","test","9","Peridotite","Pumice","10","false","7","8","","","","","","","","","","","","","","","","","",""
"","","","","","","","","","","","html-keyboard-response","24","2.0.0","223500","671c8a1fe7a5cd2edc846675","4","51","null","","","","","","","","","<p style='font-size: 30px;'><strong>Okay</strong></p>","null","neutral_feedback","0","test","9","","","","","","","","","","","","","","","","","","","","","","","",""
"","","","","","","","","","","","html-button-response","25","2.0.0","225507","671c8a1fe7a5cd2edc846675","4","51","2003","","","","","","","","","<img src= ""rock_img/I_Gabbro_09.jpg"" style=""width:8cm; height:7.279999999999999cm;""><p>What type of rock is this?</p>","1","class_response","0","test","10","Basalt","Gabbro","09","false","2","4","","","","","","","","","","","","","","","","","",""
"","","","","","","","","","","","html-keyboard-response","26","2.0.0","226022","671c8a1fe7a5cd2edc846675","4","51","null","","","","","","","","","<p style='font-size: 30px;'><strong>Okay</strong></p>","null","neutral_feedback","0","test","10","","","","","","","","","","","","","","","","","","","","","","","",""
"","","","","","","","","","","","html-button-response","27","2.0.0","228499","671c8a1fe7a5cd2edc846675","4","51","2475","","","","","","","","","<img src= ""rock_img/I_Obsidian_07.jpg"" style=""width:8cm; height:4.76cm;""><p>What type of rock is this?</p>","2","class_response","0","test","11","Diorite","Obsidian","07","false","3","5","","","","","","","","","","","","","","","","","",""
"","","","","","","","","","","","html-keyboard-response","28","2.0.0","229010","671c8a1fe7a5cd2edc846675","4","51","null","","","","","","","","","<p style='font-size: 30px;'><strong>Okay</strong></p>","null","neutral_feedback","0","test","11","","","","","","","","","","","","","","","","","","","","","","","",""
"","","","","","","","","","","","html-button-response","29","2.0.0","230923","671c8a1fe7a5cd2edc846675","4","51","1911","","","","","","","","","<img src= ""rock_img/I_Obsidian_06.jpg"" style=""width:8cm; height:6.8cm;""><p>What type of rock is this?</p>","6","class_response","0","test","12","Peridotite","Obsidian","06","false","7","5","","","","","","","","","","","","","","","","","",""
"","","","","","","","","","","","html-keyboard-response","30","2.0.0","231437","671c8a1fe7a5cd2edc846675","4","51","null","","","","","","","","","<p style='font-size: 30px;'><strong>Okay</strong></p>","null","neutral_feedback","0","test","12","","","","","","","","","","","","","","","","","","","","","","","",""
"","","","","","","","","","","","html-button-response","31","2.0.0","234338","671c8a1fe7a5cd2edc846675","4","51","2898","","","","","","","","","<img src= ""rock_img/I_Pegmatite_09.jpg"" style=""width:8cm; height:4.03cm;""><p>What type of rock is this?</p>","3","class_response","0","test","13","Gabbro","Pegmatite","09","false","4","6","","","","","","","","","","","","","","","","","",""
"","","","","","","","","","","","html-keyboard-response","32","2.0.0","234849","671c8a1fe7a5cd2edc846675","4","51","null","","","","","","","","","<p style='font-size: 30px;'><strong>Okay</strong></p>","null","neutral_feedback","0","test","13","","","","","","","","","","","","","","","","","","","","","","","",""
"","","","","","","","","","","","html-button-response","33","2.0.0","236419","671c8a1fe7a5cd2edc846675","4","51","1567","","","","","","","","","<img src= ""rock_img/I_Andesite_02.jpg"" style=""width:8cm; height:8.5cm;""><p>What type of rock is this?</p>","0","class_response","0","test","14","Andesite","Andesite","02","true","1","1","","","","","","","","","","","","","","","","","",""
"","","","","","","","","","","","html-keyboard-response","34","2.0.0","236935","671c8a1fe7a5cd2edc846675","4","51","null","","","","","","","","","<p style='font-size: 30px;'><strong>Okay</strong></p>","null","neutral_feedback","0","test","14","","","","","","","","","","","","","","","","","","","","","","","",""
"","","","","","","","","","","","html-button-response","35","2.0.0","238354","671c8a1fe7a5cd2edc846675","4","51","1416","","","","","","","","","<img src= ""rock_img/I_Gabbro_05.jpg"" style=""width:8cm; height:6cm;""><p>What type of rock is this?</p>","4","class_response","0","test","15","Obsidian","Gabbro","05","false","5","4","","","","","","","","","","","","","","","","","",""
"","","","","","","","","","","","html-keyboard-response","36","2.0.0","238869","671c8a1fe7a5cd2edc846675","4","51","null","","","","","","","","","<p style='font-size: 30px;'><strong>Okay</strong></p>","null","neutral_feedback","0","test","15","","","","","","","","","","","","","","","","","","","","","","","",""
"","","","","","","","","","","","html-button-response","37","2.0.0","240467","671c8a1fe7a5cd2edc846675","4","51","1594","","","","","","","","","<img src= ""rock_img/I_Pumice_08.jpg"" style=""width:8cm; height:6.67cm;""><p>What type of rock is this?</p>","5","class_response","0","test","16","Pegmatite","Pumice","08","false","6","8","","","","","","","","","","","","","","","","","",""
"","","","","","","","","","","","html-keyboard-response","38","2.0.0","240976","671c8a1fe7a5cd2edc846675","4","51","null","","","","","","","","","<p style='font-size: 30px;'><strong>Okay</strong></p>","null","neutral_feedback","0","test","16","","","","","","","","","","","","","","","","","","","","","","","",""
"","","","","","","","","","","","html-button-response","39","2.0.0","242595","671c8a1fe7a5cd2edc846675","4","51","1616","","","","","","","","","<img src= ""rock_img/I_Pumice_06.jpg"" style=""width:8cm; height:6.9399999999999995cm;""><p>What type of rock is this?</p>","5","class_response","0","test","17","Pegmatite","Pumice","06","false","6","8","","","","","","","","","","","","","","","","","",""
"","","","","","","","","","","","html-keyboard-response","40","2.0.0","243098","671c8a1fe7a5cd2edc846675","4","51","null","","","","","","","","","<p style='font-size: 30px;'><strong>Okay</strong></p>","null","neutral_feedback","0","test","17","","","","","","","","","","","","","","","","","","","","","","","",""
"","","","","","","","","","","","html-button-response","41","2.0.0","244459","671c8a1fe7a5cd2edc846675","4","51","1358","","","","","","","","","<img src= ""rock_img/I_Basalt_12.jpg"" style=""width:8cm; height:6.010000000000001cm;""><p>What type of rock is this?</p>","6","class_response","0","test","18","Peridotite","Basalt","12","false","7","2","","","","","","","","","","","","","","","","","",""
"","","","","","","","","","","","html-keyboard-response","42","2.0.0","244962","671c8a1fe7a5cd2edc846675","4","51","null","","","","","","","","","<p style='font-size: 30px;'><strong>Okay</strong></p>","null","neutral_feedback","0","test","18","","","","","","","","","","","","","","","","","","","","","","","",""
"","","","","","","","","","","","html-button-response","43","2.0.0","245843","671c8a1fe7a5cd2edc846675","4","51","877","","","","","","","","","<img src= ""rock_img/I_Basalt_05.jpg"" style=""width:8cm; height:8.18cm;""><p>What type of rock is this?</p>","1","class_response","0","test","19","Basalt","Basalt","05","true","2","2","","","","","","","","","","","","","","","","","",""
"","","","","","","","","","","","html-keyboard-response","44","2.0.0","246344","671c8a1fe7a5cd2edc846675","4","51","null","","","","","","","","","<p style='font-size: 30px;'><strong>Okay</strong></p>","null","neutral_feedback","0","test","19","","","","","","","","","","","","","","","","","","","","","","","",""
"","","","","","","","","","","","html-button-response","45","2.0.0","247475","671c8a1fe7a5cd2edc846675","4","51","1127","","","","","","","","","<img src= ""rock_img/I_Pumice_13.jpg"" style=""width:8cm; height:8.200000000000001cm;""><p>What type of rock is this?</p>","2","class_response","0","test","20","Diorite","Pumice","13","false","3","8","","","","","","","","","","","","","","","","","",""
"","","","","","","","","","","","html-keyboard-response","46","2.0.0","247981","671c8a1fe7a5cd2edc846675","4","51","null","","","","","","","","","<p style='font-size: 30px;'><strong>Okay</strong></p>","null","neutral_feedback","0","test","20","","","","","","","","","","","","","","","","","","","","","","","",""
"","","","","","","","","","","","html-button-response","47","2.0.0","249259","671c8a1fe7a5cd2edc846675","4","51","1273","","","","","","","","","<img src= ""rock_img/I_Pegmatite_12.jpg"" style=""width:8cm; height:5.7cm;""><p>What type of rock is this?</p>","2","class_response","0","test","21","Diorite","Pegmatite","12","false","3","6","","","","","","","","","","","","","","","","","",""
"","","","","","","","","","","","html-keyboard-response","48","2.0.0","249775","671c8a1fe7a5cd2edc846675","4","51","null","","","","","","","","","<p style='font-size: 30px;'><strong>Okay</strong></p>","null","neutral_feedback","0","test","21","","","","","","","","","","","","","","","","","","","","","","","",""
"","","","","","","","","","","","html-button-response","49","2.0.0","250771","671c8a1fe7a5cd2edc846675","4","51","992","","","","","","","","","<img src= ""rock_img/I_Pegmatite_13.jpg"" style=""width:8cm; height:4.95cm;""><p>What type of rock is this?</p>","6","class_response","0","test","22","Peridotite","Pegmatite","13","false","7","6","","","","","","","","","","","","","","","","","",""
"","","","","","","","","","","","html-keyboard-response","50","2.0.0","251279","671c8a1fe7a5cd2edc846675","4","51","null","","","","","","","","","<p style='font-size: 30px;'><strong>Okay</strong></p>","null","neutral_feedback","0","test","22","","","","","","","","","","","","","","","","","","","","","","","",""
"","","","","","","","","","","","html-button-response","51","2.0.0","252539","671c8a1fe7a5cd2edc846675","4","51","1256","","","","","","","","","<img src= ""rock_img/I_Diorite_13.jpg"" style=""width:8cm; height:6.29cm;""><p>What type of rock is this?</p>","6","class_response","0","test","23","Peridotite","Diorite","13","false","7","3","","","","","","","","","","","","","","","","","",""
"","","","","","","","","","","","html-keyboard-response","52","2.0.0","253040","671c8a1fe7a5cd2edc846675","4","51","null","","","","","","","","","<p style='font-size: 30px;'><strong>Okay</strong></p>","null","neutral_feedback","0","test","23","","","","","","","","","","","","","","","","","","","","","","","",""
"","","","","","","","","","","","html-button-response","53","2.0.0","253955","671c8a1fe7a5cd2edc846675","4","51","911","","","","","","","","","<img src= ""rock_img/I_Diorite_14.jpg"" style=""width:8cm; height:5.71cm;""><p>What type of rock is this?</p>","3","class_response","0","test","24","Gabbro","Diorite","14","false","4","3","","","","","","","","","","","","","","","","","",""
"","","","","","","","","","","","html-keyboard-response","54","2.0.0","254471","671c8a1fe7a5cd2edc846675","4","51","null","","","","","","","","","<p style='font-size: 30px;'><strong>Okay</strong></p>","null","neutral_feedback","0","test","24","","","","","","","","","","","","","","","","","","","","","","","",""
"","","","","","","","","","","","html-button-response","55","2.0.0","255786","671c8a1fe7a5cd2edc846675","4","51","1312","","","","","","","","","<img src= ""rock_img/I_Diorite_06.jpg"" style=""width:8cm; height:6.03cm;""><p>What type of rock is this?</p>","7","class_response","0","test","25","Pumice","Diorite","06","false","8","3","","","","","","","","","","","","","","","","","",""
"","","","","","","","","","","","html-keyboard-response","56","2.0.0","256288","671c8a1fe7a5cd2edc846675","4","51","null","","","","","","","","","<p style='font-size: 30px;'><strong>Okay</strong></p>","null","neutral_feedback","0","test","25","","","","","","","","","","","","","","","","","","","","","","","",""
"","","","","","","","","","","","html-button-response","57","2.0.0","516798","671c8a1fe7a5cd2edc846675","4","51","260509","","","","","","","","","<img src= ""rock_img/I_Peridotite_07.jpg"" style=""width:8cm; height:4.83cm;""><p>What type of rock is this?</p>","2","class_response","0","test","26","Diorite","Peridotite","07","false","3","7","","","","","","","","","","","","","","","","","",""
"","","","","","","","","","","","html-keyboard-response","58","2.0.0","517303","671c8a1fe7a5cd2edc846675","4","51","null","","","","","","","","","<p style='font-size: 30px;'><strong>Okay</strong></p>","null","neutral_feedback","0","test","26","","","","","","","","","","","","","","","","","","","","","","","",""
"","","","","","","","","","","","html-button-response","59","2.0.0","518617","671c8a1fe7a5cd2edc846675","4","51","1309","","","","","","","","","<img src= ""rock_img/I_Obsidian_05.jpg"" style=""width:8cm; height:6.33cm;""><p>What type of rock is this?</p>","6","class_response","0","test","27","Peridotite","Obsidian","05","false","7","5","","","","","","","","","","","","","","","","","",""
"","","","","","","","","","","","html-keyboard-response","60","2.0.0","519134","671c8a1fe7a5cd2edc846675","4","51","null","","","","","","","","","<p style='font-size: 30px;'><strong>Okay</strong></p>","null","neutral_feedback","0","test","27","","","","","","","","","","","","","","","","","","","","","","","",""
"","","","","","","","","","","","html-button-response","61","2.0.0","520679","671c8a1fe7a5cd2edc846675","4","51","1536","","","","","","","","","<img src= ""rock_img/I_Andesite_09.jpg"" style=""width:8cm; height:6cm;""><p>What type of rock is this?</p>","4","class_response","0","test","28","Obsidian","Andesite","09","false","5","1","","","","","","","","","","","","","","","","","",""
"","","","","","","","","","","","html-keyboard-response","62","2.0.0","521181","671c8a1fe7a5cd2edc846675","4","51","null","","","","","","","","","<p style='font-size: 30px;'><strong>Okay</strong></p>","null","neutral_feedback","0","test","28","","","","","","","","","","","","","","","","","","","","","","","",""
"","","","","","","","","","","","html-button-response","63","2.0.0","522535","671c8a1fe7a5cd2edc846675","4","51","1351","","","","","","","","","<img src= ""rock_img/I_Obsidian_10.jpg"" style=""width:8cm; height:6.260000000000001cm;""><p>What type of rock is this?</p>","0","class_response","0","test","29","Andesite","Obsidian","10","false","1","5","","","","","","","","","","","","","","","","","",""
"","","","","","","","","","","","html-keyboard-response","64","2.0.0","523045","671c8a1fe7a5cd2edc846675","4","51","null","","","","","","","","","<p style='font-size: 30px;'><strong>Okay</strong></p>","null","neutral_feedback","0","test","29","","","","","","","","","","","","","","","","","","","","","","","",""
"","","","","","","","","","","","html-button-response","65","2.0.0","525219","671c8a1fe7a5cd2edc846675","4","51","2172","","","","","","","","","<img src= ""rock_img/I_Andesite_01.jpg"" style=""width:8cm; height:5.87cm;""><p>What type of rock is this?</p>","0","class_response","0","test","30","Andesite","Andesite","01","true","1","1","","","","","","","","","","","","","","","","","",""
"","","","","","","","","","","","html-keyboard-response","66","2.0.0","525722","671c8a1fe7a5cd2edc846675","4","51","null","","","","","","","","","<p style='font-size: 30px;'><strong>Okay</strong></p>","null","neutral_feedback","0","test","30","","","","","","","","","","","","","","","","","","","","","","","",""
"","","","","","","","","","","","html-button-response","67","2.0.0","532916","671c8a1fe7a5cd2edc846675","4","51","7192","","","","","","","","","<img src= ""rock_img/I_Peridotite_02.jpg"" style=""width:8cm; height:5.859999999999999cm;""><p>What type of rock is this?</p>","2","class_response","0","test","31","Diorite","Peridotite","02","false","3","7","","","","","","","","","","","","","","","","","",""
"","","","","","","","","","","","html-keyboard-response","68","2.0.0","533425","671c8a1fe7a5cd2edc846675","4","51","null","","","","","","","","","<p style='font-size: 30px;'><strong>Okay</strong></p>","null","neutral_feedback","0","test","31","","","","","","","","","","","","","","","","","","","","","","","",""
"","","","","","","","","","","","html-button-response","69","2.0.0","535156","671c8a1fe7a5cd2edc846675","4","51","1727","","","","","","","","","<img src= ""rock_img/I_Andesite_04.jpg"" style=""width:8cm; height:5.96cm;""><p>What type of rock is this?</p>","6","class_response","0","test","32","Peridotite","Andesite","04","false","7","1","","","","","","","","","","","","","","","","","",""
"","","","","","","","","","","","html-keyboard-response","70","2.0.0","535664","671c8a1fe7a5cd2edc846675","4","51","null","","","","","","","","","<p style='font-size: 30px;'><strong>Okay</strong></p>","null","neutral_feedback","0","test","32","","","","","","","","","","","","","","","","","","","","","","","",""
"","","","","","","","","","","","html-button-response","71","2.0.0","537204","671c8a1fe7a5cd2edc846675","4","51","1538","","","","","","","","","<img src= ""rock_img/I_Gabbro_14.jpg"" style=""width:8cm; height:8.48cm;""><p>What type of rock is this?</p>","3","class_response","0","test","33","Gabbro","Gabbro","14","true","4","4","","","","","","","","","","","","","","","","","",""
"","","","","","","","","","","","html-keyboard-response","72","2.0.0","537715","671c8a1fe7a5cd2edc846675","4","51","null","","","","","","","","","<p style='font-size: 30px;'><strong>Okay</strong></p>","null","neutral_feedback","0","test","33","","","","","","","","","","","","","","","","","","","","","","","",""
"","","","","","","","","","","","html-button-response","73","2.0.0","539548","671c8a1fe7a5cd2edc846675","4","51","1828","","","","","","","","","<img src= ""rock_img/I_Basalt_16.jpg"" style=""width:8cm; height:7.659999999999999cm;""><p>What type of rock is this?</p>","7","class_response","0","test","34","Pumice","Basalt","16","false","8","2","","","","","","","","","","","","","","","","","",""
"","","","","","","","","","","","html-keyboard-response","74","2.0.0","540053","671c8a1fe7a5cd2edc846675","4","51","null","","","","","","","","","<p style='font-size: 30px;'><strong>Okay</strong></p>","null","neutral_feedback","0","test","34","","","","","","","","","","","","","","","","","","","","","","","",""
"","","","","","","","","","","","html-button-response","75","2.0.0","541460","671c8a1fe7a5cd2edc846675","4","51","1404","","","","","","","","","<img src= ""rock_img/I_Pegmatite_16.jpg"" style=""width:8cm; height:5.8cm;""><p>What type of rock is this?</p>","1","class_response","0","test","35","Basalt","Pegmatite","16","false","2","6","","","","","","","","","","","","","","","","","",""
"","","","","","","","","","","","html-keyboard-response","76","2.0.0","541975","671c8a1fe7a5cd2edc846675","4","51","null","","","","","","","","","<p style='font-size: 30px;'><strong>Okay</strong></p>","null","neutral_feedback","0","test","35","","","","","","","","","","","","","","","","","","","","","","","",""
"","","","","","","","","","","","html-button-response","77","2.0.0","544236","671c8a1fe7a5cd2edc846675","4","51","2256","","","","","","","","","<img src= ""rock_img/I_Diorite_11.jpg"" style=""width:8cm; height:7.11cm;""><p>What type of rock is this?</p>","0","class_response","0","test","36","Andesite","Diorite","11","false","1","3","","","","","","","","","","","","","","","","","",""
"","","","","","","","","","","","html-keyboard-response","78","2.0.0","544746","671c8a1fe7a5cd2edc846675","4","51","null","","","","","","","","","<p style='font-size: 30px;'><strong>Okay</strong></p>","null","neutral_feedback","0","test","36","","","","","","","","","","","","","","","","","","","","","","","",""
"","","","","","","","","","","","html-button-response","79","2.0.0","545580","671c8a1fe7a5cd2edc846675","4","51","829","","","","","","","","","<img src= ""rock_img/I_Diorite_12.jpg"" style=""width:8cm; height:4.88cm;""><p>What type of rock is this?</p>","4","class_response","0","test","37","Obsidian","Diorite","12","false","5","3","","","","","","","","","","","","","","","","","",""
"","","","","","","","","","","","html-keyboard-response","80","2.0.0","546086","671c8a1fe7a5cd2edc846675","4","51","null","","","","","","","","","<p style='font-size: 30px;'><strong>Okay</strong></p>","null","neutral_feedback","0","test","37","","","","","","","","","","","","","","","","","","","","","","","",""
"","","","","","","","","","","","html-button-response","81","2.0.0","555628","671c8a1fe7a5cd2edc846675","4","51","9540","","","","","","","","","<img src= ""rock_img/I_Andesite_07.jpg"" style=""width:8cm; height:5.93cm;""><p>What type of rock is this?</p>","1","class_response","0","test","38","Basalt","Andesite","07","false","2","1","","","","","","","","","","","","","","","","","",""
"","","","","","","","","","","","html-keyboard-response","82","2.0.0","556141","671c8a1fe7a5cd2edc846675","4","51","null","","","","","","","","","<p style='font-size: 30px;'><strong>Okay</strong></p>","null","neutral_feedback","0","test","38","","","","","","","","","","","","","","","","","","","","","","","",""
"","","","","","","","","","","","html-button-response","83","2.0.0","562852","671c8a1fe7a5cd2edc846675","4","51","6709","","","","","","","","","<img src= ""rock_img/I_Gabbro_16.jpg"" style=""width:8cm; height:6.44cm;""><p>What type of rock is this?</p>","2","class_response","0","test","39","Diorite","Gabbro","16","false","3","4","","","","","","","","","","","","","","","","","",""
"","","","","","","","","","","","html-keyboard-response","84","2.0.0","563353","671c8a1fe7a5cd2edc846675","4","51","null","","","","","","","","","<p style='font-size: 30px;'><strong>Okay</strong></p>","null","neutral_feedback","0","test","39","","","","","","","","","","","","","","","","","","","","","","","",""
"","","","","","","","","","","","html-button-response","85","2.0.0","564380","671c8a1fe7a5cd2edc846675","4","51","1025","","","","","","","","","<img src= ""rock_img/I_Peridotite_12.jpg"" style=""width:8cm; height:4.54cm;""><p>What type of rock is this?</p>","4","class_response","0","test","40","Obsidian","Peridotite","12","false","5","7","","","","","","","","","","","","","","","","","",""
"","","","","","","","","","","","html-keyboard-response","86","2.0.0","564882","671c8a1fe7a5cd2edc846675","4","51","null","","","","","","","","","<p style='font-size: 30px;'><strong>Okay</strong></p>","null","neutral_feedback","0","test","40","","","","","","","","","","","","","","","","","","","","","","","",""
"","","","","","","","","","","","html-button-response","87","2.0.0","565636","671c8a1fe7a5cd2edc846675","4","51","751","","","","","","","","","<img src= ""rock_img/I_Peridotite_14.jpg"" style=""width:8cm; height:5.3cm;""><p>What type of rock is this?</p>","3","class_response","0","test","41","Gabbro","Peridotite","14","false","4","7","","","","","","","","","","","","","","","","","",""
"","","","","","","","","","","","html-keyboard-response","88","2.0.0","566137","671c8a1fe7a5cd2edc846675","4","51","null","","","","","","","","","<p style='font-size: 30px;'><strong>Okay</strong></p>","null","neutral_feedback","0","test","41","","","","","","","","","","","","","","","","","","","","","","","",""
"","","","","","","","","","","","html-button-response","89","2.0.0","566867","671c8a1fe7a5cd2edc846675","4","51","729","","","","","","","","","<img src= ""rock_img/I_Gabbro_11.jpg"" style=""width:8cm; height:6.2cm;""><p>What type of rock is this?</p>","7","class_response","0","test","42","Pumice","Gabbro","11","false","8","4","","","","","","","","","","","","","","","","","",""
"","","","","","","","","","","","html-keyboard-response","90","2.0.0","567384","671c8a1fe7a5cd2edc846675","4","51","null","","","","","","","","","<p style='font-size: 30px;'><strong>Okay</strong></p>","null","neutral_feedback","0","test","42","","","","","","","","","","","","","","","","","","","","","","","",""
"","","","","","","","","","","","html-button-response","91","2.0.0","568220","671c8a1fe7a5cd2edc846675","4","51","832","","","","","","","","","<img src= ""rock_img/I_Peridotite_08.jpg"" style=""width:8cm; height:6.7cm;""><p>What type of rock is this?</p>","6","class_response","0","test","43","Peridotite","Peridotite","08","true","7","7","","","","","","","","","","","","","","","","","",""
"","","","","","","","","","","","html-keyboard-response","92","2.0.0","568734","671c8a1fe7a5cd2edc846675","4","51","null","","","","","","","","","<p style='font-size: 30px;'><strong>Okay</strong></p>","null","neutral_feedback","0","test","43","","","","","","","","","","","","","","","","","","","","","","","",""
"","","","","","","","","","","","html-button-response","93","2.0.0","569508","671c8a1fe7a5cd2edc846675","4","51","771","","","","","","","","","<img src= ""rock_img/I_Obsidian_11.jpg"" style=""width:8cm; height:6.05cm;""><p>What type of rock is this?</p>","7","class_response","0","test","44","Pumice","Obsidian","11","false","8","5","","","","","","","","","","","","","","","","","",""
"","","","","","","","","","","","html-keyboard-response","94","2.0.0","570013","671c8a1fe7a5cd2edc846675","4","51","null","","","","","","","","","<p style='font-size: 30px;'><strong>Okay</strong></p>","null","neutral_feedback","0","test","44","","","","","","","","","","","","","","","","","","","","","","","",""
"","","","","","","","","","","","html-button-response","95","2.0.0","570404","671c8a1fe7a5cd2edc846675","4","51","389","","","","","","","","","<img src= ""rock_img/I_Andesite_03.jpg"" style=""width:8cm; height:5.73cm;""><p>What type of rock is this?</p>","5","class_response","0","test","45","Pegmatite","Andesite","03","false","6","1","","","","","","","","","","","","","","","","","",""
"","","","","","","","","","","","html-keyboard-response","96","2.0.0","570914","671c8a1fe7a5cd2edc846675","4","51","null","","","","","","","","","<p style='font-size: 30px;'><strong>Okay</strong></p>","null","neutral_feedback","0","test","45","","","","","","","","","","","","","","","","","","","","","","","",""
"","","","","","","","","","","","html-button-response","97","2.0.0","571636","671c8a1fe7a5cd2edc846675","4","51","719","","","","","","","","","<img src= ""rock_img/I_Peridotite_04.jpg"" style=""width:8cm; height:6.680000000000001cm;""><p>What type of rock is this?</p>","1","class_response","0","test","46","Basalt","Peridotite","04","false","2","7","","","","","","","","","","","","","","","","","",""
"","","","","","","","","","","","html-keyboard-response","98","2.0.0","572137","671c8a1fe7a5cd2edc846675","4","51","null","","","","","","","","","<p style='font-size: 30px;'><strong>Okay</strong></p>","null","neutral_feedback","0","test","46","","","","","","","","","","","","","","","","","","","","","","","",""
"","","","","","","","","","","","html-button-response","99","2.0.0","611004","671c8a1fe7a5cd2edc846675","4","51","38864","","","","","","","","","<img src= ""rock_img/I_Pegmatite_06.jpg"" style=""width:8cm; height:5.17cm;""><p>What type of rock is this?</p>","1","class_response","0","test","47","Basalt","Pegmatite","06","false","2","6","","","","","","","","","","","","","","","","","",""
"","","","","","","","","","","","html-keyboard-response","100","2.0.0","611506","671c8a1fe7a5cd2edc846675","4","51","null","","","","","","","","","<p style='font-size: 30px;'><strong>Okay</strong></p>","null","neutral_feedback","0","test","47","","","","","","","","","","","","","","","","","","","","","","","",""
"","","","","","","","","","","","html-button-response","101","2.0.0","612268","671c8a1fe7a5cd2edc846675","4","51","760","","","","","","","","","<img src= ""rock_img/I_Basalt_02.jpg"" style=""width:8cm; height:6.45cm;""><p>What type of rock is this?</p>","2","class_response","0","test","48","Diorite","Basalt","02","false","3","2","","","","","","","","","","","","","","","","","",""
"","","","","","","","","","","","html-keyboard-response","102","2.0.0","612775","671c8a1fe7a5cd2edc846675","4","51","null","","","","","","","","","<p style='font-size: 30px;'><strong>Okay</strong></p>","null","neutral_feedback","0","test","48","","","","","","","","","","","","","","","","","","","","","","","",""
"","","","","","","","","","","","instructions","103","2.0.0","649987","671c8a1fe7a5cd2edc846675","4","51","37142","","","","","","","","[{""page_index"":0,""viewing_time"":25807},{""page_index"":1,""viewing_time"":11336}]","","","","","","","","","","","","","","","","","","","","","","","","","","","","","",""
"","","","","","","","","","","","html-button-response","104","2.0.0","651740","671c8a1fe7a5cd2edc846675","4","51","1751","","","","","","","","","","0","start_train","","","","","","","","","","","","","","","","","","","","","","","","","","",""
"","","","","","","","","","","","html-button-response","106","2.0.0","654812","671c8a1fe7a5cd2edc846675","4","51","3070","","","","","","","","","<img src= ""rock_img/I_Peridotite_15.jpg"" style=""width:8cm; height:6cm;""><p>What type of rock is this?</p>","1","class_response","1","train","1","Basalt","Peridotite","15","false","2","7","","","","","","","","","","","","","","","","","",""
"","","","","","","","","","","","html-button-response","107","2.0.0","657628","671c8a1fe7a5cd2edc846675","4","51","2814","","","","","","","","","<img src= rock_img/I_Peridotite_15.jpg style=""width:8cm; height:6cm;""><p style='font-size: 30px; color: red;'><strong>Incorrect!</strong></p><p style='font-size: 30px;'><strong>This rock is peridotite</strong></p>","0","corr_feedback","1","train","1","","","","","","","","","","","","","","","","","","","","","","","",""
"","","","","","","","","","","","html-button-response","108","2.0.0","659156","671c8a1fe7a5cd2edc846675","4","51","1527","","","","","","","","","<img src= ""rock_img/I_Andesite_16.jpg"" style=""width:8cm; height:6.010000000000001cm;""><p>What type of rock is this?</p>","0","class_response","1","train","2","Andesite","Andesite","16","true","1","1","","","","","","","","","","","","","","","","","",""
"","","","","","","","","","","","html-button-response","109","2.0.0","663355","671c8a1fe7a5cd2edc846675","4","51","4199","","","","","","","","","<img src= rock_img/I_Andesite_16.jpg style=""width:8cm; height:6.010000000000001cm;""><p style='font-size: 30px; color: green;'><strong>Correct!</strong></p><p style='font-size: 30px;'><strong>This rock is andesite</strong></p>","0","corr_feedback","1","train","2","","","","","","","","","","","","","","","","","","","","","","","",""
"","","","","","","","","","","","html-button-response","110","2.0.0","665220","671c8a1fe7a5cd2edc846675","4","51","1863","","","","","","","","","<img src= ""rock_img/I_Gabbro_15.jpg"" style=""width:8cm; height:6.29cm;""><p>What type of rock is this?</p>","1","class_response","1","train","3","Basalt","Gabbro","15","false","2","4","","","","","","","","","","","","","","","","","",""
"","","","","","","","","","","","html-button-response","111","2.0.0","667292","671c8a1fe7a5cd2edc846675","4","51","2071","","","","","","","","","<img src= rock_img/I_Gabbro_15.jpg style=""width:8cm; height:6.29cm;""><p style='font-size: 30px; color: red;'><strong>Incorrect!</strong></p><p style='font-size: 30px;'><strong>This rock is gabbro</strong></p>","0","corr_feedback","1","train","3","","","","","","","","","","","","","","","","","","","","","","","",""
"","","","","","","","","","","","html-button-response","112","2.0.0","669787","671c8a1fe7a5cd2edc846675","4","51","2494","","","","","","","","","<img src= ""rock_img/I_Basalt_14.jpg"" style=""width:8cm; height:5.82cm;""><p>What type of rock is this?</p>","2","class_response","1","train","4","Diorite","Basalt","14","false","3","2","","","","","","","","","","","","","","","","","",""
"","","","","","","","","","","","html-button-response","113","2.0.0","671219","671c8a1fe7a5cd2edc846675","4","51","1431","","","","","","","","","<img src= rock_img/I_Basalt_14.jpg style=""width:8cm; height:5.82cm;""><p style='font-size: 30px; color: red;'><strong>Incorrect!</strong></p><p style='font-size: 30px;'><strong>This rock is basalt</strong></p>","0","corr_feedback","1","train","4","","","","","","","","","","","","","","","","","","","","","","","",""
"","","","","","","","","","","","html-button-response","114","2.0.0","674036","671c8a1fe7a5cd2edc846675","4","51","2815","","","","","","","","","<img src= ""rock_img/I_Andesite_11.jpg"" style=""width:8cm; height:4.92cm;""><p>What type of rock is this?</p>","5","class_response","1","train","5","Pegmatite","Andesite","11","false","6","1","","","","","","","","","","","","","","","","","",""
"","","","","","","","","","","","html-button-response","115","2.0.0","675299","671c8a1fe7a5cd2edc846675","4","51","1262","","","","","","","","","<img src= rock_img/I_Andesite_11.jpg style=""width:8cm; height:4.92cm;""><p style='font-size: 30px; color: red;'><strong>Incorrect!</strong></p><p style='font-size: 30px;'><strong>This rock is andesite</strong></p>","0","corr_feedback","1","train","5","","","","","","","","","","","","","","","","","","","","","","","",""
"","","","","","","","","","","","html-button-response","116","2.0.0","677404","671c8a1fe7a5cd2edc846675","4","51","2103","","","","","","","","","<img src= ""rock_img/I_Gabbro_13.jpg"" style=""width:8cm; height:5.08cm;""><p>What type of rock is this?</p>","3","class_response","1","train","6","Gabbro","Gabbro","13","true","4","4","","","","","","","","","","","","","","","","","",""
"","","","","","","","","","","","html-button-response","117","2.0.0","679604","671c8a1fe7a5cd2edc846675","4","51","2199","","","","","","","","","<img src= rock_img/I_Gabbro_13.jpg style=""width:8cm; height:5.08cm;""><p style='font-size: 30px; color: green;'><strong>Correct!</strong></p><p style='font-size: 30px;'><strong>This rock is gabbro</strong></p>","0","corr_feedback","1","train","6","","","","","","","","","","","","","","","","","","","","","","","",""
"","","","","","","","","","","","html-button-response","118","2.0.0","681579","671c8a1fe7a5cd2edc846675","4","51","1975","","","","","","","","","<img src= ""rock_img/I_Obsidian_09.jpg"" style=""width:8cm; height:5cm;""><p>What type of rock is this?</p>","1","class_response","1","train","7","Basalt","Obsidian","09","false","2","5","","","","","","","","","","","","","","","","","",""
"","","","","","","","","","","","html-button-response","119","2.0.0","682803","671c8a1fe7a5cd2edc846675","4","51","1223","","","","","","","","","<img src= rock_img/I_Obsidian_09.jpg style=""width:8cm; height:5cm;""><p style='font-size: 30px; color: red;'><strong>Incorrect!</strong></p><p style='font-size: 30px;'><strong>This rock is obsidian</strong></p>","0","corr_feedback","1","train","7","","","","","","","","","","","","","","","","","","","","","","","",""
"","","","","","","","","","","","html-button-response","120","2.0.0","690052","671c8a1fe7a5cd2edc846675","4","51","7247","","","","","","","","","<img src= ""rock_img/I_Pegmatite_08.jpg"" style=""width:8cm; height:7.68cm;""><p>What type of rock is this?</p>","6","class_response","1","train","8","Peridotite","Pegmatite","08","false","7","6","","","","","","","","","","","","","","","","","",""
"","","","","","","","","","","","html-button-response","121","2.0.0","691467","671c8a1fe7a5cd2edc846675","4","51","1415","","","","","","","","","<img src= rock_img/I_Pegmatite_08.jpg style=""width:8cm; height:7.68cm;""><p style='font-size: 30px; color: red;'><strong>Incorrect!</strong></p><p style='font-size: 30px;'><strong>This rock is pegmatite</strong></p>","0","corr_feedback","1","train","8","","","","","","","","","","","","","","","","","","","","","","","",""
"","","","","","","","","","","","html-button-response","122","2.0.0","692915","671c8a1fe7a5cd2edc846675","4","51","1447","","","","","","","","","<img src= ""rock_img/I_Diorite_16.jpg"" style=""width:8cm; height:6.74cm;""><p>What type of rock is this?</p>","0","class_response","1","train","9","Andesite","Diorite","16","false","1","3","","","","","","","","","","","","","","","","","",""
"","","","","","","","","","","","html-button-response","123","2.0.0","694379","671c8a1fe7a5cd2edc846675","4","51","1463","","","","","","","","","<img src= rock_img/I_Diorite_16.jpg style=""width:8cm; height:6.74cm;""><p style='font-size: 30px; color: red;'><strong>Incorrect!</strong></p><p style='font-size: 30px;'><strong>This rock is diorite</strong></p>","0","corr_feedback","1","train","9","","","","","","","","","","","","","","","","","","","","","","","",""
"","","","","","","","","","","","html-button-response","124","2.0.0","695971","671c8a1fe7a5cd2edc846675","4","51","1591","","","","","","","","","<img src= ""rock_img/I_Pegmatite_11.jpg"" style=""width:8cm; height:8.14cm;""><p>What type of rock is this?</p>","1","class_response","1","train","10","Basalt","Pegmatite","11","false","2","6","","","","","","","","","","","","","","","","","",""
"","","","","","","","","","","","html-button-response","125","2.0.0","697123","671c8a1fe7a5cd2edc846675","4","51","1151","","","","","","","","","<img src= rock_img/I_Pegmatite_11.jpg style=""width:8cm; height:8.14cm;""><p style='font-size: 30px; color: red;'><strong>Incorrect!</strong></p><p style='font-size: 30px;'><strong>This rock is pegmatite</strong></p>","0","corr_feedback","1","train","10","","","","","","","","","","","","","","","","","","","","","","","",""
"","","","","","","","","","","","html-button-response","126","2.0.0","698451","671c8a1fe7a5cd2edc846675","4","51","1327","","","","","","","","","<img src= ""rock_img/I_Peridotite_10.jpg"" style=""width:8cm; height:5.390000000000001cm;""><p>What type of rock is this?</p>","2","class_response","1","train","11","Diorite","Peridotite","10","false","3","7","","","","","","","","","","","","","","","","","",""
"","","","","","","","","","","","html-button-response","127","2.0.0","699604","671c8a1fe7a5cd2edc846675","4","51","1151","","","","","","","","","<img src= rock_img/I_Peridotite_10.jpg style=""width:8cm; height:5.390000000000001cm;""><p style='font-size: 30px; color: red;'><strong>Incorrect!</strong></p><p style='font-size: 30px;'><strong>This rock is peridotite</strong></p>","0","corr_feedback","1","train","11","","","","","","","","","","","","","","","","","","","","","","","",""
"","","","","","","","","","","","html-button-response","128","2.0.0","700659","671c8a1fe7a5cd2edc846675","4","51","1055","","","","","","","","","<img src= ""rock_img/I_Pumice_14.jpg"" style=""width:8cm; height:6.39cm;""><p>What type of rock is this?</p>","1","class_response","1","train","12","Basalt","Pumice","14","false","2","8","","","","","","","","","","","","","","","","","",""
"","","","","","","","","","","","html-button-response","129","2.0.0","701699","671c8a1fe7a5cd2edc846675","4","51","1039","","","","","","","","","<img src= rock_img/I_Pumice_14.jpg style=""width:8cm; height:6.39cm;""><p style='font-size: 30px; color: red;'><strong>Incorrect!</strong></p><p style='font-size: 30px;'><strong>This rock is pumice</strong></p>","0","corr_feedback","1","train","12","","","","","","","","","","","","","","","","","","","","","","","",""
"","","","","","","","","","","","instructions","130","2.0.0","811219","671c8a1fe7a5cd2edc846675","4","51","109519","","","","","","","","[{""page_index"":0,""viewing_time"":7567},{""page_index"":1,""viewing_time"":43336},{""page_index"":2,""viewing_time"":39200},{""page_index"":3,""viewing_time"":19416}]","","","","","","","","","","","","","","","","","","","","","","","","","","","","","",""
"","","","","","","","","","","","html-button-response","131","2.0.0","814123","671c8a1fe7a5cd2edc846675","4","51","2902","","","","","","","","","","0","start_train","","","","","","","","","","","","","","","","","","","","","","","","","","",""
"","","","","","","","","","","","html-button-response","132","2.0.0","825116","671c8a1fe7a5cd2edc846675","4","51","","","","","","","","","","","","cat_selection","1","train","1","","","","","","","7230","3760.2999999821186","3","1","Diorite","Andesite","","","","","","","","","","","",""
"","","","","","","","","","","","paired-cat-display","133","1.0.0","1019419","671c8a1fe7a5cd2edc846675","4","51","","","","","","","","","","","","paired_cat_display","1","train","1","","","","","","","","","","","","","circular colored patterns ","rough patches with hole","14092.800000011921","180206.40000000596","","","","","","","",""
"","","","","","","","","","","","html-button-response","134","2.0.0","1043611","671c8a1fe7a5cd2edc846675","4","51","","","","","","","","","","","","cat_selection","1","train","2","","","","","","","16822.90000000596","7367.799999982119","4","7","Gabbro","Peridotite","","","","","","","","","","","",""
"","","","","","","","","","","","paired-cat-display","135","1.0.0","1215083","671c8a1fe7a5cd2edc846675","4","51","","","","","","","","","","","","paired_cat_display","1","train","2","","","","","","","","","","","","","","","12549.90000000596","158919","patterned rough lines","colored rough rocks","","","","","",""
"","","","","","","","","","","","html-button-response","136","2.0.0","1218709","671c8a1fe7a5cd2edc846675","4","51","","","","","","","","","","","","cat_selection","1","train","3","","","","","","","2798.9000000059605","825.6999999880791","3","5","Diorite","Obsidian","","","","","","","","","","","",""
"","","","","","","","","","","","paired-cat-display","137","1.0.0","1265386","671c8a1fe7a5cd2edc846675","4","51","","","","","","","","","","","","paired_cat_display","1","train","3","","","","","","","","","","","","","circular colored pattern","","8644.5","38031","","","smooth shiny rock","","","","",""
"","","","","","","","","","","","instructions","138","2.0.0","1318274","671c8a1fe7a5cd2edc846675","4","51","52886","","","","","","","","[{""page_index"":0,""viewing_time"":2399},{""page_index"":1,""viewing_time"":50488}]","","","","","","","","","","","","","","","","","","","","","","","","","","","","","",""
"","","","","","","","","","","","html-button-response","139","2.0.0","1319450","671c8a1fe7a5cd2edc846675","4","51","1174","","","","","","","","","","0","start_test","","","","","","","","","","","","","","","","","","","","","","","","","","",""
"","","","","","","","","","","","html-button-response","140","2.0.0","1323770","671c8a1fe7a5cd2edc846675","4","51","4319","","","","","","","","","<img src= ""rock_img/I_Andesite_07.jpg"" style=""width:8cm; height:5.93cm;""><p>What type of rock is this?</p>","2","class_response","1","test","1","Diorite","Andesite","07","false","3","1","","","","","","","","","","","","","","","","","",""
"","","","","","","","","","","","html-keyboard-response","141","2.0.0","1324276","671c8a1fe7a5cd2edc846675","4","51","null","","","","","","","","","<p style='font-size: 30px;'><strong>Okay</strong></p>","null","neutral_feedback","1","test","1","","","","","","","","","","","","","","","","","","","","","","","",""
"","","","","","","","","","","","html-button-response","142","2.0.0","1329138","671c8a1fe7a5cd2edc846675","4","51","4860","","","","","","","","","<img src= ""rock_img/I_Gabbro_05.jpg"" style=""width:8cm; height:6cm;""><p>What type of rock is this?</p>","3","class_response","1","test","2","Gabbro","Gabbro","05","true","4","4","","","","","","","","","","","","","","","","","",""
"","","","","","","","","","","","html-keyboard-response","143","2.0.0","1329651","671c8a1fe7a5cd2edc846675","4","51","null","","","","","","","","","<p style='font-size: 30px;'><strong>Okay</strong></p>","null","neutral_feedback","1","test","2","","","","","","","","","","","","","","","","","","","","","","","",""
"","","","","","","","","","","","html-button-response","144","2.0.0","1347378","671c8a1fe7a5cd2edc846675","4","51","17724","","","","","","","","","<img src= ""rock_img/I_Peridotite_08.jpg"" style=""width:8cm; height:6.7cm;""><p>What type of rock is this?</p>","7","class_response","1","test","3","Pumice","Peridotite","08","false","8","7","","","","","","","","","","","","","","","","","",""
"","","","","","","","","","","","html-keyboard-response","145","2.0.0","1347887","671c8a1fe7a5cd2edc846675","4","51","null","","","","","","","","","<p style='font-size: 30px;'><strong>Okay</strong></p>","null","neutral_feedback","1","test","3","","","","","","","","","","","","","","","","","","","","","","","",""
"","","","","","","","","","","","html-button-response","146","2.0.0","1355234","671c8a1fe7a5cd2edc846675","4","51","7343","","","","","","","","","<img src= ""rock_img/I_Pegmatite_07.jpg"" style=""width:8cm; height:6.7cm;""><p>What type of rock is this?</p>","4","class_response","1","test","4","Obsidian","Pegmatite","07","false","5","6","","","","","","","","","","","","","","","","","",""
"","","","","","","","","","","","html-keyboard-response","147","2.0.0","1355748","671c8a1fe7a5cd2edc846675","4","51","null","","","","","","","","","<p style='font-size: 30px;'><strong>Okay</strong></p>","null","neutral_feedback","1","test","4","","","","","","","","","","","","","","","","","","","","","","","",""
"","","","","","","","","","","","html-button-response","148","2.0.0","1365386","671c8a1fe7a5cd2edc846675","4","51","9635","","","","","","","","","<img src= ""rock_img/I_Diorite_06.jpg"" style=""width:8cm; height:6.03cm;""><p>What type of rock is this?</p>","2","class_response","1","test","5","Diorite","Diorite","06","true","3","3","","","","","","","","","","","","","","","","","",""
"","","","","","","","","","","","html-keyboard-response","149","2.0.0","1365904","671c8a1fe7a5cd2edc846675","4","51","null","","","","","","","","","<p style='font-size: 30px;'><strong>Okay</strong></p>","null","neutral_feedback","1","test","5","","","","","","","","","","","","","","","","","","","","","","","",""
"","","","","","","","","","","","html-button-response","150","2.0.0","1367458","671c8a1fe7a5cd2edc846675","4","51","1550","","","","","","","","","<img src= ""rock_img/I_Peridotite_07.jpg"" style=""width:8cm; height:4.83cm;""><p>What type of rock is this?</p>","6","class_response","1","test","6","Peridotite","Peridotite","07","true","7","7","","","","","","","","","","","","","","","","","",""
"","","","","","","","","","","","html-keyboard-response","151","2.0.0","1367961","671c8a1fe7a5cd2edc846675","4","51","null","","","","","","","","","<p style='font-size: 30px;'><strong>Okay</strong></p>","null","neutral_feedback","1","test","6","","","","","","","","","","","","","","","","","","","","","","","",""
"","","","","","","","","","","","html-button-response","152","2.0.0","1370138","671c8a1fe7a5cd2edc846675","4","51","2174","","","","","","","","","<img src= ""rock_img/I_Diorite_13.jpg"" style=""width:8cm; height:6.29cm;""><p>What type of rock is this?</p>","5","class_response","1","test","7","Pegmatite","Diorite","13","false","6","3","","","","","","","","","","","","","","","","","",""
"","","","","","","","","","","","html-keyboard-response","153","2.0.0","1370651","671c8a1fe7a5cd2edc846675","4","51","null","","","","","","","","","<p style='font-size: 30px;'><strong>Okay</strong></p>","null","neutral_feedback","1","test","7","","","","","","","","","","","","","","","","","","","","","","","",""
"","","","","","","","","","","","html-button-response","154","2.0.0","1383683","671c8a1fe7a5cd2edc846675","4","51","13028","","","","","","","","","<img src= ""rock_img/I_Andesite_04.jpg"" style=""width:8cm; height:5.96cm;""><p>What type of rock is this?</p>","7","class_response","1","test","8","Pumice","Andesite","04","false","8","1","","","","","","","","","","","","","","","","","",""
"","","","","","","","","","","","html-keyboard-response","155","2.0.0","1384200","671c8a1fe7a5cd2edc846675","4","51","null","","","","","","","","","<p style='font-size: 30px;'><strong>Okay</strong></p>","null","neutral_feedback","1","test","8","","","","","","","","","","","","","","","","","","","","","","","",""
"","","","","","","","","","","","html-button-response","156","2.0.0","1389306","671c8a1fe7a5cd2edc846675","4","51","5102","","","","","","","","","<img src= ""rock_img/I_Pegmatite_13.jpg"" style=""width:8cm; height:4.95cm;""><p>What type of rock is this?</p>","0","class_response","1","test","9","Andesite","Pegmatite","13","false","1","6","","","","","","","","","","","","","","","","","",""
"","","","","","","","","","","","html-keyboard-response","157","2.0.0","1389814","671c8a1fe7a5cd2edc846675","4","51","null","","","","","","","","","<p style='font-size: 30px;'><strong>Okay</strong></p>","null","neutral_feedback","1","test","9","","","","","","","","","","","","","","","","","","","","","","","",""
"","","","","","","","","","","","html-button-response","158","2.0.0","1394186","671c8a1fe7a5cd2edc846675","4","51","4368","","","","","","","","","<img src= ""rock_img/I_Pumice_13.jpg"" style=""width:8cm; height:8.200000000000001cm;""><p>What type of rock is this?</p>","4","class_response","1","test","10","Obsidian","Pumice","13","false","5","8","","","","","","","","","","","","","","","","","",""
"","","","","","","","","","","","html-keyboard-response","159","2.0.0","1394702","671c8a1fe7a5cd2edc846675","4","51","null","","","","","","","","","<p style='font-size: 30px;'><strong>Okay</strong></p>","null","neutral_feedback","1","test","10","","","","","","","","","","","","","","","","","","","","","","","",""
"","","","","","","","","","","","html-button-response","160","2.0.0","1397794","671c8a1fe7a5cd2edc846675","4","51","3091","","","","","","","","","<img src= ""rock_img/I_Gabbro_14.jpg"" style=""width:8cm; height:8.48cm;""><p>What type of rock is this?</p>","3","class_response","1","test","11","Gabbro","Gabbro","14","true","4","4","","","","","","","","","","","","","","","","","",""
"","","","","","","","","","","","html-keyboard-response","161","2.0.0","1398305","671c8a1fe7a5cd2edc846675","4","51","null","","","","","","","","","<p style='font-size: 30px;'><strong>Okay</strong></p>","null","neutral_feedback","1","test","11","","","","","","","","","","","","","","","","","","","","","","","",""
"","","","","","","","","","","","html-button-response","162","2.0.0","1407226","671c8a1fe7a5cd2edc846675","4","51","8920","","","","","","","","","<img src= ""rock_img/I_Diorite_12.jpg"" style=""width:8cm; height:4.88cm;""><p>What type of rock is this?</p>","1","class_response","1","test","12","Basalt","Diorite","12","false","2","3","","","","","","","","","","","","","","","","","",""
"","","","","","","","","","","","html-keyboard-response","163","2.0.0","1407736","671c8a1fe7a5cd2edc846675","4","51","null","","","","","","","","","<p style='font-size: 30px;'><strong>Okay</strong></p>","null","neutral_feedback","1","test","12","","","","","","","","","","","","","","","","","","","","","","","",""
"","","","","","","","","","","","html-button-response","164","2.0.0","1419243","671c8a1fe7a5cd2edc846675","4","51","11504","","","","","","","","","<img src= ""rock_img/I_Obsidian_11.jpg"" style=""width:8cm; height:6.05cm;""><p>What type of rock is this?</p>","4","class_response","1","test","13","Obsidian","Obsidian","11","true","5","5","","","","","","","","","","","","","","","","","",""
"","","","","","","","","","","","html-keyboard-response","165","2.0.0","1419746","671c8a1fe7a5cd2edc846675","4","51","null","","","","","","","","","<p style='font-size: 30px;'><strong>Okay</strong></p>","null","neutral_feedback","1","test","13","","","","","","","","","","","","","","","","","","","","","","","",""
"","","","","","","","","","","","html-button-response","166","2.0.0","1422530","671c8a1fe7a5cd2edc846675","4","51","2778","","","","","","","","","<img src= ""rock_img/I_Gabbro_09.jpg"" style=""width:8cm; height:7.279999999999999cm;""><p>What type of rock is this?</p>","6","class_response","1","test","14","Peridotite","Gabbro","09","false","7","4","","","","","","","","","","","","","","","","","",""
"","","","","","","","","","","","html-keyboard-response","167","2.0.0","1423031","671c8a1fe7a5cd2edc846675","4","51","null","","","","","","","","","<p style='font-size: 30px;'><strong>Okay</strong></p>","null","neutral_feedback","1","test","14","","","","","","","","","","","","","","","","","","","","","","","",""
"","","","","","","","","","","","html-button-response","168","2.0.0","1426594","671c8a1fe7a5cd2edc846675","4","51","3558","","","","","","","","","<img src= ""rock_img/I_Pegmatite_12.jpg"" style=""width:8cm; height:5.7cm;""><p>What type of rock is this?</p>","2","class_response","1","test","15","Diorite","Pegmatite","12","false","3","6","","","","","","","","","","","","","","","","","",""
"","","","","","","","","","","","html-keyboard-response","169","2.0.0","1427104","671c8a1fe7a5cd2edc846675","4","51","null","","","","","","","","","<p style='font-size: 30px;'><strong>Okay</strong></p>","null","neutral_feedback","1","test","15","","","","","","","","","","","","","","","","","","","","","","","",""
"","","","","","","","","","","","html-button-response","170","2.0.0","1428154","671c8a1fe7a5cd2edc846675","4","51","1048","","","","","","","","","<img src= ""rock_img/I_Diorite_14.jpg"" style=""width:8cm; height:5.71cm;""><p>What type of rock is this?</p>","2","class_response","1","test","16","Diorite","Diorite","14","true","3","3","","","","","","","","","","","","","","","","","",""
"","","","","","","","","","","","html-keyboard-response","171","2.0.0","1428663","671c8a1fe7a5cd2edc846675","4","51","null","","","","","","","","","<p style='font-size: 30px;'><strong>Okay</strong></p>","null","neutral_feedback","1","test","16","","","","","","","","","","","","","","","","","","","","","","","",""
"","","","","","","","","","","","html-button-response","172","2.0.0","1435986","671c8a1fe7a5cd2edc846675","4","51","7319","","","","","","","","","<img src= ""rock_img/I_Pumice_06.jpg"" style=""width:8cm; height:6.9399999999999995cm;""><p>What type of rock is this?</p>","3","class_response","1","test","17","Gabbro","Pumice","06","false","4","8","","","","","","","","","","","","","","","","","",""
"","","","","","","","","","","","html-keyboard-response","173","2.0.0","1436494","671c8a1fe7a5cd2edc846675","4","51","null","","","","","","","","","<p style='font-size: 30px;'><strong>Okay</strong></p>","null","neutral_feedback","1","test","17","","","","","","","","","","","","","","","","","","","","","","","",""
"","","","","","","","","","","","html-button-response","174","2.0.0","1442010","671c8a1fe7a5cd2edc846675","4","51","5514","","","","","","","","","<img src= ""rock_img/I_Diorite_11.jpg"" style=""width:8cm; height:7.11cm;""><p>What type of rock is this?</p>","6","class_response","1","test","18","Peridotite","Diorite","11","false","7","3","","","","","","","","","","","","","","","","","",""
"","","","","","","","","","","","html-keyboard-response","175","2.0.0","1442514","671c8a1fe7a5cd2edc846675","4","51","null","","","","","","","","","<p style='font-size: 30px;'><strong>Okay</strong></p>","null","neutral_feedback","1","test","18","","","","","","","","","","","","","","","","","","","","","","","",""
"","","","","","","","","","","","html-button-response","176","2.0.0","1444235","671c8a1fe7a5cd2edc846675","4","51","1717","","","","","","","","","<img src= ""rock_img/I_Basalt_08.jpg"" style=""width:8cm; height:10.44cm;""><p>What type of rock is this?</p>","7","class_response","1","test","19","Pumice","Basalt","08","false","8","2","","","","","","","","","","","","","","","","","",""
"","","","","","","","","","","","html-keyboard-response","177","2.0.0","1444747","671c8a1fe7a5cd2edc846675","4","51","null","","","","","","","","","<p style='font-size: 30px;'><strong>Okay</strong></p>","null","neutral_feedback","1","test","19","","","","","","","","","","","","","","","","","","","","","","","",""
"","","","","","","","","","","","html-button-response","178","2.0.0","1447258","671c8a1fe7a5cd2edc846675","4","51","2510","","","","","","","","","<img src= ""rock_img/I_Pegmatite_06.jpg"" style=""width:8cm; height:5.17cm;""><p>What type of rock is this?</p>","5","class_response","1","test","20","Pegmatite","Pegmatite","06","true","6","6","","","","","","","","","","","","","","","","","",""
"","","","","","","","","","","","html-keyboard-response","179","2.0.0","1447768","671c8a1fe7a5cd2edc846675","4","51","null","","","","","","","","","<p style='font-size: 30px;'><strong>Okay</strong></p>","null","neutral_feedback","1","test","20","","","","","","","","","","","","","","","","","","","","","","","",""
"","","","","","","","","","","","html-button-response","180","2.0.0","1449714","671c8a1fe7a5cd2edc846675","4","51","1944","","","","","","","","","<img src= ""rock_img/I_Basalt_04.jpg"" style=""width:8cm; height:7.53cm;""><p>What type of rock is this?</p>","6","class_response","1","test","21","Peridotite","Basalt","04","false","7","2","","","","","","","","","","","","","","","","","",""
"","","","","","","","","","","","html-keyboard-response","181","2.0.0","1450221","671c8a1fe7a5cd2edc846675","4","51","null","","","","","","","","","<p style='font-size: 30px;'><strong>Okay</strong></p>","null","neutral_feedback","1","test","21","","","","","","","","","","","","","","","","","","","","","","","",""
"","","","","","","","","","","","html-button-response","182","2.0.0","1453970","671c8a1fe7a5cd2edc846675","4","51","3748","","","","","","","","","<img src= ""rock_img/I_Gabbro_16.jpg"" style=""width:8cm; height:6.44cm;""><p>What type of rock is this?</p>","2","class_response","1","test","22","Diorite","Gabbro","16","false","3","4","","","","","","","","","","","","","","","","","",""
"","","","","","","","","","","","html-keyboard-response","183","2.0.0","1454488","671c8a1fe7a5cd2edc846675","4","51","null","","","","","","","","","<p style='font-size: 30px;'><strong>Okay</strong></p>","null","neutral_feedback","1","test","22","","","","","","","","","","","","","","","","","","","","","","","",""
"","","","","","","","","","","","html-button-response","184","2.0.0","1458866","671c8a1fe7a5cd2edc846675","4","51","4374","","","","","","","","","<img src= ""rock_img/I_Andesite_02.jpg"" style=""width:8cm; height:8.5cm;""><p>What type of rock is this?</p>","5","class_response","1","test","23","Pegmatite","Andesite","02","false","6","1","","","","","","","","","","","","","","","","","",""
"","","","","","","","","","","","html-keyboard-response","185","2.0.0","1459367","671c8a1fe7a5cd2edc846675","4","51","null","","","","","","","","","<p style='font-size: 30px;'><strong>Okay</strong></p>","null","neutral_feedback","1","test","23","","","","","","","","","","","","","","","","","","","","","","","",""
"","","","","","","","","","","","html-button-response","186","2.0.0","1462850","671c8a1fe7a5cd2edc846675","4","51","3481","","","","","","","","","<img src= ""rock_img/I_Peridotite_12.jpg"" style=""width:8cm; height:4.54cm;""><p>What type of rock is this?</p>","3","class_response","1","test","24","Gabbro","Peridotite","12","false","4","7","","","","","","","","","","","","","","","","","",""
"","","","","","","","","","","","html-keyboard-response","187","2.0.0","1463356","671c8a1fe7a5cd2edc846675","4","51","null","","","","","","","","","<p style='font-size: 30px;'><strong>Okay</strong></p>","null","neutral_feedback","1","test","24","","","","","","","","","","","","","","","","","","","","","","","",""
"","","","","","","","","","","","html-button-response","188","2.0.0","1469938","671c8a1fe7a5cd2edc846675","4","51","6578","","","","","","","","","<img src= ""rock_img/I_Andesite_09.jpg"" style=""width:8cm; height:6cm;""><p>What type of rock is this?</p>","0","class_response","1","test","25","Andesite","Andesite","09","true","1","1","","","","","","","","","","","","","","","","","",""
"","","","","","","","","","","","html-keyboard-response","189","2.0.0","1470452","671c8a1fe7a5cd2edc846675","4","51","null","","","","","","","","","<p style='font-size: 30px;'><strong>Okay</strong></p>","null","neutral_feedback","1","test","25","","","","","","","","","","","","","","","","","","","","","","","",""
"","","","","","","","","","","","html-button-response","190","2.0.0","1472586","671c8a1fe7a5cd2edc846675","4","51","2132","","","","","","","","","<img src= ""rock_img/I_Peridotite_02.jpg"" style=""width:8cm; height:5.859999999999999cm;""><p>What type of rock is this?</p>","6","class_response","1","test","26","Peridotite","Peridotite","02","true","7","7","","","","","","","","","","","","","","","","","",""
"","","","","","","","","","","","html-keyboard-response","191","2.0.0","1473098","671c8a1fe7a5cd2edc846675","4","51","null","","","","","","","","","<p style='font-size: 30px;'><strong>Okay</strong></p>","null","neutral_feedback","1","test","26","","","","","","","","","","","","","","","","","","","","","","","",""
"","","","","","","","","","","","html-button-response","192","2.0.0","1476378","671c8a1fe7a5cd2edc846675","4","51","3275","","","","","","","","","<img src= ""rock_img/I_Basalt_16.jpg"" style=""width:8cm; height:7.659999999999999cm;""><p>What type of rock is this?</p>","7","class_response","1","test","27","Pumice","Basalt","16","false","8","2","","","","","","","","","","","","","","","","","",""
"","","","","","","","","","","","html-keyboard-response","193","2.0.0","1476893","671c8a1fe7a5cd2edc846675","4","51","null","","","","","","","","","<p style='font-size: 30px;'><strong>Okay</strong></p>","null","neutral_feedback","1","test","27","","","","","","","","","","","","","","","","","","","","","","","",""
"","","","","","","","","","","","html-button-response","194","2.0.0","1479074","671c8a1fe7a5cd2edc846675","4","51","2178","","","","","","","","","<img src= ""rock_img/I_Basalt_05.jpg"" style=""width:8cm; height:8.18cm;""><p>What type of rock is this?</p>","6","class_response","1","test","28","Peridotite","Basalt","05","false","7","2","","","","","","","","","","","","","","","","","",""
"","","","","","","","","","","","html-keyboard-response","195","2.0.0","1479586","671c8a1fe7a5cd2edc846675","4","51","null","","","","","","","","","<p style='font-size: 30px;'><strong>Okay</strong></p>","null","neutral_feedback","1","test","28","","","","","","","","","","","","","","","","","","","","","","","",""
"","","","","","","","","","","","html-button-response","196","2.0.0","1483986","671c8a1fe7a5cd2edc846675","4","51","4397","","","","","","","","","<img src= ""rock_img/I_Andesite_03.jpg"" style=""width:8cm; height:5.73cm;""><p>What type of rock is this?</p>","0","class_response","1","test","29","Andesite","Andesite","03","true","1","1","","","","","","","","","","","","","","","","","",""
"","","","","","","","","","","","html-keyboard-response","197","2.0.0","1484502","671c8a1fe7a5cd2edc846675","4","51","null","","","","","","","","","<p style='font-size: 30px;'><strong>Okay</strong></p>","null","neutral_feedback","1","test","29","","","","","","","","","","","","","","","","","","","","","","","",""
"","","","","","","","","","","","html-button-response","198","2.0.0","1486034","671c8a1fe7a5cd2edc846675","4","51","1530","","","","","","","","","<img src= ""rock_img/I_Pumice_16.jpg"" style=""width:8cm; height:6.79cm;""><p>What type of rock is this?</p>","5","class_response","1","test","30","Pegmatite","Pumice","16","false","6","8","","","","","","","","","","","","","","","","","",""
"","","","","","","","","","","","html-keyboard-response","199","2.0.0","1486538","671c8a1fe7a5cd2edc846675","4","51","null","","","","","","","","","<p style='font-size: 30px;'><strong>Okay</strong></p>","null","neutral_feedback","1","test","30","","","","","","","","","","","","","","","","","","","","","","","",""
"","","","","","","","","","","","html-button-response","200","2.0.0","1489298","671c8a1fe7a5cd2edc846675","4","51","2758","","","","","","","","","<img src= ""rock_img/I_Basalt_12.jpg"" style=""width:8cm; height:6.010000000000001cm;""><p>What type of rock is this?</p>","0","class_response","1","test","31","Andesite","Basalt","12","false","1","2","","","","","","","","","","","","","","","","","",""
"","","","","","","","","","","","html-keyboard-response","201","2.0.0","1489805","671c8a1fe7a5cd2edc846675","4","51","null","","","","","","","","","<p style='font-size: 30px;'><strong>Okay</strong></p>","null","neutral_feedback","1","test","31","","","","","","","","","","","","","","","","","","","","","","","",""
"","","","","","","","","","","","html-button-response","202","2.0.0","1492266","671c8a1fe7a5cd2edc846675","4","51","2459","","","","","","","","","<img src= ""rock_img/I_Gabbro_11.jpg"" style=""width:8cm; height:6.2cm;""><p>What type of rock is this?</p>","6","class_response","1","test","32","Peridotite","Gabbro","11","false","7","4","","","","","","","","","","","","","","","","","",""
"","","","","","","","","","","","html-keyboard-response","203","2.0.0","1492771","671c8a1fe7a5cd2edc846675","4","51","null","","","","","","","","","<p style='font-size: 30px;'><strong>Okay</strong></p>","null","neutral_feedback","1","test","32","","","","","","","","","","","","","","","","","","","","","","","",""
"","","","","","","","","","","","html-button-response","204","2.0.0","1495243","671c8a1fe7a5cd2edc846675","4","51","2469","","","","","","","","","<img src= ""rock_img/I_Pegmatite_09.jpg"" style=""width:8cm; height:4.03cm;""><p>What type of rock is this?</p>","5","class_response","1","test","33","Pegmatite","Pegmatite","09","true","6","6","","","","","","","","","","","","","","","","","",""
"","","","","","","","","","","","html-keyboard-response","205","2.0.0","1495749","671c8a1fe7a5cd2edc846675","4","51","null","","","","","","","","","<p style='font-size: 30px;'><strong>Okay</strong></p>","null","neutral_feedback","1","test","33","","","","","","","","","","","","","","","","","","","","","","","",""
"","","","","","","","","","","","html-button-response","206","2.0.0","1500370","671c8a1fe7a5cd2edc846675","4","51","4618","","","","","","","","","<img src= ""rock_img/I_Pumice_10.jpg"" style=""width:8cm; height:7.609999999999999cm;""><p>What type of rock is this?</p>","0","class_response","1","test","34","Andesite","Pumice","10","false","1","8","","","","","","","","","","","","","","","","","",""
"","","","","","","","","","","","html-keyboard-response","207","2.0.0","1500886","671c8a1fe7a5cd2edc846675","4","51","null","","","","","","","","","<p style='font-size: 30px;'><strong>Okay</strong></p>","null","neutral_feedback","1","test","34","","","","","","","","","","","","","","","","","","","","","","","",""
"","","","","","","","","","","","html-button-response","208","2.0.0","1502898","671c8a1fe7a5cd2edc846675","4","51","2009","","","","","","","","","<img src= ""rock_img/I_Peridotite_14.jpg"" style=""width:8cm; height:5.3cm;""><p>What type of rock is this?</p>","3","class_response","1","test","35","Gabbro","Peridotite","14","false","4","7","","","","","","","","","","","","","","","","","",""
"","","","","","","","","","","","html-keyboard-response","209","2.0.0","1503404","671c8a1fe7a5cd2edc846675","4","51","null","","","","","","","","","<p style='font-size: 30px;'><strong>Okay</strong></p>","null","neutral_feedback","1","test","35","","","","","","","","","","","","","","","","","","","","","","","",""
"","","","","","","","","","","","html-button-response","210","2.0.0","1504666","671c8a1fe7a5cd2edc846675","4","51","1259","","","","","","","","","<img src= ""rock_img/I_Pumice_08.jpg"" style=""width:8cm; height:6.67cm;""><p>What type of rock is this?</p>","1","class_response","1","test","36","Basalt","Pumice","08","false","2","8","","","","","","","","","","","","","","","","","",""
"","","","","","","","","","","","html-keyboard-response","211","2.0.0","1505181","671c8a1fe7a5cd2edc846675","4","51","null","","","","","","","","","<p style='font-size: 30px;'><strong>Okay</strong></p>","null","neutral_feedback","1","test","36","","","","","","","","","","","","","","","","","","","","","","","",""
"","","","","","","","","","","","html-button-response","212","2.0.0","1509258","671c8a1fe7a5cd2edc846675","4","51","4075","","","","","","","","","<img src= ""rock_img/I_Diorite_02.jpg"" style=""width:8cm; height:6.27cm;""><p>What type of rock is this?</p>","2","class_response","1","test","37","Diorite","Diorite","02","true","3","3","","","","","","","","","","","","","","","","","",""
"","","","","","","","","","","","html-keyboard-response","213","2.0.0","1509765","671c8a1fe7a5cd2edc846675","4","51","null","","","","","","","","","<p style='font-size: 30px;'><strong>Okay</strong></p>","null","neutral_feedback","1","test","37","","","","","","","","","","","","","","","","","","","","","","","",""
"","","","","","","","","","","","html-button-response","214","2.0.0","1511218","671c8a1fe7a5cd2edc846675","4","51","1449","","","","","","","","","<img src= ""rock_img/I_Pumice_05.jpg"" style=""width:8cm; height:7.25cm;""><p>What type of rock is this?</p>","6","class_response","1","test","38","Peridotite","Pumice","05","false","7","8","","","","","","","","","","","","","","","","","",""
"","","","","","","","","","","","html-keyboard-response","215","2.0.0","1511724","671c8a1fe7a5cd2edc846675","4","51","null","","","","","","","","","<p style='font-size: 30px;'><strong>Okay</strong></p>","null","neutral_feedback","1","test","38","","","","","","","","","","","","","","","","","","","","","","","",""
"","","","","","","","","","","","html-button-response","216","2.0.0","1513210","671c8a1fe7a5cd2edc846675","4","51","1483","","","","","","","","","<img src= ""rock_img/I_Obsidian_06.jpg"" style=""width:8cm; height:6.8cm;""><p>What type of rock is this?</p>","4","class_response","1","test","39","Obsidian","Obsidian","06","true","5","5","","","","","","","","","","","","","","","","","",""
"","","","","","","","","","","","html-keyboard-response","217","2.0.0","1513725","671c8a1fe7a5cd2edc846675","4","51","null","","","","","","","","","<p style='font-size: 30px;'><strong>Okay</strong></p>","null","neutral_feedback","1","test","39","","","","","","","","","","","","","","","","","","","","","","","",""
"","","","","","","","","","","","html-button-response","218","2.0.0","1515346","671c8a1fe7a5cd2edc846675","4","51","1617","","","","","","","","","<img src= ""rock_img/I_Gabbro_03.jpg"" style=""width:8cm; height:8.52cm;""><p>What type of rock is this?</p>","2","class_response","1","test","40","Diorite","Gabbro","03","false","3","4","","","","","","","","","","","","","","","","","",""
"","","","","","","","","","","","html-keyboard-response","219","2.0.0","1515850","671c8a1fe7a5cd2edc846675","4","51","null","","","","","","","","","<p style='font-size: 30px;'><strong>Okay</strong></p>","null","neutral_feedback","1","test","40","","","","","","","","","","","","","","","","","","","","","","","",""
"","","","","","","","","","","","html-button-response","220","2.0.0","1517274","671c8a1fe7a5cd2edc846675","4","51","1423","","","","","","","","","<img src= ""rock_img/I_Obsidian_07.jpg"" style=""width:8cm; height:4.76cm;""><p>What type of rock is this?</p>","4","class_response","1","test","41","Obsidian","Obsidian","07","true","5","5","","","","","","","","","","","","","","","","","",""
"","","","","","","","","","","","html-keyboard-response","221","2.0.0","1517795","671c8a1fe7a5cd2edc846675","4","51","null","","","","","","","","","<p style='font-size: 30px;'><strong>Okay</strong></p>","null","neutral_feedback","1","test","41","","","","","","","","","","","","","","","","","","","","","","","",""
"","","","","","","","","","","","html-button-response","222","2.0.0","1519202","671c8a1fe7a5cd2edc846675","4","51","1404","","","","","","","","","<img src= ""rock_img/I_Obsidian_10.jpg"" style=""width:8cm; height:6.260000000000001cm;""><p>What type of rock is this?</p>","4","class_response","1","test","42","Obsidian","Obsidian","10","true","5","5","","","","","","","","","","","","","","","","","",""
"","","","","","","","","","","","html-keyboard-response","223","2.0.0","1519705","671c8a1fe7a5cd2edc846675","4","51","null","","","","","","","","","<p style='font-size: 30px;'><strong>Okay</strong></p>","null","neutral_feedback","1","test","42","","","","","","","","","","","","","","","","","","","","","","","",""
"","","","","","","","","","","","html-button-response","224","2.0.0","1521194","671c8a1fe7a5cd2edc846675","4","51","1485","","","","","","","","","<img src= ""rock_img/I_Pegmatite_16.jpg"" style=""width:8cm; height:5.8cm;""><p>What type of rock is this?</p>","5","class_response","1","test","43","Pegmatite","Pegmatite","16","true","6","6","","","","","","","","","","","","","","","","","",""
"","","","","","","","","","","","html-keyboard-response","225","2.0.0","1521703","671c8a1fe7a5cd2edc846675","4","51","null","","","","","","","","","<p style='font-size: 30px;'><strong>Okay</strong></p>","null","neutral_feedback","1","test","43","","","","","","","","","","","","","","","","","","","","","","","",""
"","","","","","","","","","","","html-button-response","226","2.0.0","1525002","671c8a1fe7a5cd2edc846675","4","51","3296","","","","","","","","","<img src= ""rock_img/I_Andesite_01.jpg"" style=""width:8cm; height:5.87cm;""><p>What type of rock is this?</p>","1","class_response","1","test","44","Basalt","Andesite","01","false","2","1","","","","","","","","","","","","","","","","","",""
"","","","","","","","","","","","html-keyboard-response","227","2.0.0","1525510","671c8a1fe7a5cd2edc846675","4","51","null","","","","","","","","","<p style='font-size: 30px;'><strong>Okay</strong></p>","null","neutral_feedback","1","test","44","","","","","","","","","","","","","","","","","","","","","","","",""
"","","","","","","","","","","","html-button-response","228","2.0.0","1527098","671c8a1fe7a5cd2edc846675","4","51","1584","","","","","","","","","<img src= ""rock_img/I_Peridotite_04.jpg"" style=""width:8cm; height:6.680000000000001cm;""><p>What type of rock is this?</p>","1","class_response","1","test","45","Basalt","Peridotite","04","false","2","7","","","","","","","","","","","","","","","","","",""
"","","","","","","","","","","","html-keyboard-response","229","2.0.0","1527607","671c8a1fe7a5cd2edc846675","4","51","null","","","","","","","","","<p style='font-size: 30px;'><strong>Okay</strong></p>","null","neutral_feedback","1","test","45","","","","","","","","","","","","","","","","","","","","","","","",""
"","","","","","","","","","","","html-button-response","230","2.0.0","1530642","671c8a1fe7a5cd2edc846675","4","51","3033","","","","","","","","","<img src= ""rock_img/I_Basalt_02.jpg"" style=""width:8cm; height:6.45cm;""><p>What type of rock is this?</p>","6","class_response","1","test","46","Peridotite","Basalt","02","false","7","2","","","","","","","","","","","","","","","","","",""
"","","","","","","","","","","","html-keyboard-response","231","2.0.0","1531153","671c8a1fe7a5cd2edc846675","4","51","null","","","","","","","","","<p style='font-size: 30px;'><strong>Okay</strong></p>","null","neutral_feedback","1","test","46","","","","","","","","","","","","","","","","","","","","","","","",""
"","","","","","","","","","","","html-button-response","232","2.0.0","1532778","671c8a1fe7a5cd2edc846675","4","51","1622","","","","","","","","","<img src= ""rock_img/I_Obsidian_05.jpg"" style=""width:8cm; height:6.33cm;""><p>What type of rock is this?</p>","4","class_response","1","test","47","Obsidian","Obsidian","05","true","5","5","","","","","","","","","","","","","","","","","",""
"","","","","","","","","","","","html-keyboard-response","233","2.0.0","1533282","671c8a1fe7a5cd2edc846675","4","51","null","","","","","","","","","<p style='font-size: 30px;'><strong>Okay</strong></p>","null","neutral_feedback","1","test","47","","","","","","","","","","","","","","","","","","","","","","","",""
"","","","","","","","","","","","html-button-response","234","2.0.0","1534722","671c8a1fe7a5cd2edc846675","4","51","1437","","","","","","","","","<img src= ""rock_img/I_Obsidian_08.jpg"" style=""width:8cm; height:7.39cm;""><p>What type of rock is this?</p>","4","class_response","1","test","48","Obsidian","Obsidian","08","true","5","5","","","","","","","","","","","","","","","","","",""
"","","","","","","","","","","","html-keyboard-response","235","2.0.0","1535232","671c8a1fe7a5cd2edc846675","4","51","null","","","","","","","","","<p style='font-size: 30px;'><strong>Okay</strong></p>","null","neutral_feedback","1","test","48","","","","","","","","","","","","","","","","","","","","","","","",""
"","","","","","","","","","","","html-button-response","236","2.0.0","1596186","671c8a1fe7a5cd2edc846675","4","51","","","","","","","","","","","","cycle_feedback","","","","","","","","","","","","","","","","","","","","","","","19285.29999998212","41639.80000001192","","",""
"","","","","","","","","","","","html-button-response","238","2.0.0","1604050","671c8a1fe7a5cd2edc846675","4","51","7863","","","","","","","","","","0","start_train","","","","","","","","","","","","","","","","","","","","","","","","","","",""
"","","","","","","","","","","","html-button-response","240","2.0.0","1615050","671c8a1fe7a5cd2edc846675","4","51","10999","","","","","","","","","<img src= ""rock_img/I_Andesite_16.jpg"" style=""width:8cm; height:6.010000000000001cm;""><p>What type of rock is this?</p>","0","class_response","2","train","1","Andesite","Andesite","16","true","1","1","","","","","","","","","","","","","","","","","",""
"","","","","","","","","","","","html-button-response","241","2.0.0","1633026","671c8a1fe7a5cd2edc846675","4","51","17974","","","","","","","","","<img src= rock_img/I_Andesite_16.jpg style=""width:8cm; height:6.010000000000001cm;""><p style='font-size: 30px; color: green;'><strong>Correct!</strong></p><p style='font-size: 30px;'><strong>This rock is andesite</strong></p>","0","corr_feedback","2","train","1","","","","","","","","","","","","","","","","","","","","","","","",""
"","","","","","","","","","","","html-button-response","242","2.0.0","1635889","671c8a1fe7a5cd2edc846675","4","51","2862","","","","","","","","","<img src= ""rock_img/I_Diorite_16.jpg"" style=""width:8cm; height:6.74cm;""><p>What type of rock is this?</p>","2","class_response","2","train","2","Diorite","Diorite","16","true","3","3","","","","","","","","","","","","","","","","","",""
"","","","","","","","","","","","html-button-response","243","2.0.0","1641201","671c8a1fe7a5cd2edc846675","4","51","5311","","","","","","","","","<img src= rock_img/I_Diorite_16.jpg style=""width:8cm; height:6.74cm;""><p style='font-size: 30px; color: green;'><strong>Correct!</strong></p><p style='font-size: 30px;'><strong>This rock is diorite</strong></p>","0","corr_feedback","2","train","2","","","","","","","","","","","","","","","","","","","","","","","",""
"","","","","","","","","","","","html-button-response","244","2.0.0","1644338","671c8a1fe7a5cd2edc846675","4","51","3135","","","","","","","","","<img src= ""rock_img/I_Basalt_10.jpg"" style=""width:8cm; height:5.85cm;""><p>What type of rock is this?</p>","6","class_response","2","train","3","Peridotite","Basalt","10","false","7","2","","","","","","","","","","","","","","","","","",""
"","","","","","","","","","","","html-button-response","245","2.0.0","1653762","671c8a1fe7a5cd2edc846675","4","51","9423","","","","","","","","","<img src= rock_img/I_Basalt_10.jpg style=""width:8cm; height:5.85cm;""><p style='font-size: 30px; color: red;'><strong>Incorrect!</strong></p><p style='font-size: 30px;'><strong>This rock is basalt</strong></p>","0","corr_feedback","2","train","3","","","","","","","","","","","","","","","","","","","","","","","",""
"","","","","","","","","","","","html-button-response","246","2.0.0","1655922","671c8a1fe7a5cd2edc846675","4","51","2158","","","","","","","","","<img src= ""rock_img/I_Gabbro_15.jpg"" style=""width:8cm; height:6.29cm;""><p>What type of rock is this?</p>","3","class_response","2","train","4","Gabbro","Gabbro","15","true","4","4","","","","","","","","","","","","","","","","","",""
"","","","","","","","","","","","html-button-response","247","2.0.0","1661722","671c8a1fe7a5cd2edc846675","4","51","5799","","","","","","","","","<img src= rock_img/I_Gabbro_15.jpg style=""width:8cm; height:6.29cm;""><p style='font-size: 30px; color: green;'><strong>Correct!</strong></p><p style='font-size: 30px;'><strong>This rock is gabbro</strong></p>","0","corr_feedback","2","train","4","","","","","","","","","","","","","","","","","","","","","","","",""
"","","","","","","","","","","","html-button-response","248","2.0.0","1663481","671c8a1fe7a5cd2edc846675","4","51","1759","","","","","","","","","<img src= ""rock_img/I_Pegmatite_11.jpg"" style=""width:8cm; height:8.14cm;""><p>What type of rock is this?</p>","4","class_response","2","train","5","Obsidian","Pegmatite","11","false","5","6","","","","","","","","","","","","","","","","","",""
"","","","","","","","","","","","html-button-response","249","2.0.0","1669394","671c8a1fe7a5cd2edc846675","4","51","5911","","","","","","","","","<img src= rock_img/I_Pegmatite_11.jpg style=""width:8cm; height:8.14cm;""><p style='font-size: 30px; color: red;'><strong>Incorrect!</strong></p><p style='font-size: 30px;'><strong>This rock is pegmatite</strong></p>","0","corr_feedback","2","train","5","","","","","","","","","","","","","","","","","","","","","","","",""
"","","","","","","","","","","","html-button-response","250","2.0.0","1671690","671c8a1fe7a5cd2edc846675","4","51","2295","","","","","","","","","<img src= ""rock_img/I_Obsidian_16.jpg"" style=""width:8cm; height:9.3cm;""><p>What type of rock is this?</p>","4","class_response","2","train","6","Obsidian","Obsidian","16","true","5","5","","","","","","","","","","","","","","","","","",""
"","","","","","","","","","","","html-button-response","251","2.0.0","1676954","671c8a1fe7a5cd2edc846675","4","51","5263","","","","","","","","","<img src= rock_img/I_Obsidian_16.jpg style=""width:8cm; height:9.3cm;""><p style='font-size: 30px; color: green;'><strong>Correct!</strong></p><p style='font-size: 30px;'><strong>This rock is obsidian</strong></p>","0","corr_feedback","2","train","6","","","","","","","","","","","","","","","","","","","","","","","",""
"","","","","","","","","","","","html-button-response","252","2.0.0","1679642","671c8a1fe7a5cd2edc846675","4","51","2687","","","","","","","","","<img src= ""rock_img/I_Pumice_15.jpg"" style=""width:8cm; height:7.86cm;""><p>What type of rock is this?</p>","7","class_response","2","train","7","Pumice","Pumice","15","true","8","8","","","","","","","","","","","","","","","","","",""
"","","","","","","","","","","","html-button-response","253","2.0.0","1684762","671c8a1fe7a5cd2edc846675","4","51","5118","","","","","","","","","<img src= rock_img/I_Pumice_15.jpg style=""width:8cm; height:7.86cm;""><p style='font-size: 30px; color: green;'><strong>Correct!</strong></p><p style='font-size: 30px;'><strong>This rock is pumice</strong></p>","0","corr_feedback","2","train","7","","","","","","","","","","","","","","","","","","","","","","","",""
"","","","","","","","","","","","html-button-response","254","2.0.0","1686410","671c8a1fe7a5cd2edc846675","4","51","1647","","","","","","","","","<img src= ""rock_img/I_Basalt_14.jpg"" style=""width:8cm; height:5.82cm;""><p>What type of rock is this?</p>","0","class_response","2","train","8","Andesite","Basalt","14","false","1","2","","","","","","","","","","","","","","","","","",""
"","","","","","","","","","","","html-button-response","255","2.0.0","1691874","671c8a1fe7a5cd2edc846675","4","51","5462","","","","","","","","","<img src= rock_img/I_Basalt_14.jpg style=""width:8cm; height:5.82cm;""><p style='font-size: 30px; color: red;'><strong>Incorrect!</strong></p><p style='font-size: 30px;'><strong>This rock is basalt</strong></p>","0","corr_feedback","2","train","8","","","","","","","","","","","","","","","","","","","","","","","",""
"","","","","","","","","","","","html-button-response","256","2.0.0","1693578","671c8a1fe7a5cd2edc846675","4","51","1703","","","","","","","","","<img src= ""rock_img/I_Pumice_14.jpg"" style=""width:8cm; height:6.39cm;""><p>What type of rock is this?</p>","2","class_response","2","train","9","Diorite","Pumice","14","false","3","8","","","","","","","","","","","","","","","","","",""
"","","","","","","","","","","","html-button-response","257","2.0.0","1699138","671c8a1fe7a5cd2edc846675","4","51","5559","","","","","","","","","<img src= rock_img/I_Pumice_14.jpg style=""width:8cm; height:6.39cm;""><p style='font-size: 30px; color: red;'><strong>Incorrect!</strong></p><p style='font-size: 30px;'><strong>This rock is pumice</strong></p>","0","corr_feedback","2","train","9","","","","","","","","","","","","","","","","","","","","","","","",""
"","","","","","","","","","","","html-button-response","258","2.0.0","1705417","671c8a1fe7a5cd2edc846675","4","51","6278","","","","","","","","","<img src= ""rock_img/I_Peridotite_10.jpg"" style=""width:8cm; height:5.390000000000001cm;""><p>What type of rock is this?</p>","6","class_response","2","train","10","Peridotite","Peridotite","10","true","7","7","","","","","","","","","","","","","","","","","",""
"","","","","","","","","","","","html-button-response","259","2.0.0","1710697","671c8a1fe7a5cd2edc846675","4","51","5278","","","","","","","","","<img src= rock_img/I_Peridotite_10.jpg style=""width:8cm; height:5.390000000000001cm;""><p style='font-size: 30px; color: green;'><strong>Correct!</strong></p><p style='font-size: 30px;'><strong>This rock is peridotite</strong></p>","0","corr_feedback","2","train","10","","","","","","","","","","","","","","","","","","","","","","","",""
"","","","","","","","","","","","html-button-response","260","2.0.0","1712274","671c8a1fe7a5cd2edc846675","4","51","1575","","","","","","","","","<img src= ""rock_img/I_Obsidian_09.jpg"" style=""width:8cm; height:5cm;""><p>What type of rock is this?</p>","4","class_response","2","train","11","Obsidian","Obsidian","09","true","5","5","","","","","","","","","","","","","","","","","",""
"","","","","","","","","","","","html-button-response","261","2.0.0","1717641","671c8a1fe7a5cd2edc846675","4","51","5367","","","","","","","","","<img src= rock_img/I_Obsidian_09.jpg style=""width:8cm; height:5cm;""><p style='font-size: 30px; color: green;'><strong>Correct!</strong></p><p style='font-size: 30px;'><strong>This rock is obsidian</strong></p>","0","corr_feedback","2","train","11","","","","","","","","","","","","","","","","","","","","","","","",""
"","","","","","","","","","","","html-button-response","262","2.0.0","1720850","671c8a1fe7a5cd2edc846675","4","51","3207","","","","","","","","","<img src= ""rock_img/I_Diorite_15.jpg"" style=""width:8cm; height:5.54cm;""><p>What type of rock is this?</p>","2","class_response","2","train","12","Diorite","Diorite","15","true","3","3","","","","","","","","","","","","","","","","","",""
"","","","","","","","","","","","html-button-response","263","2.0.0","1725898","671c8a1fe7a5cd2edc846675","4","51","5046","","","","","","","","","<img src= rock_img/I_Diorite_15.jpg style=""width:8cm; height:5.54cm;""><p style='font-size: 30px; color: green;'><strong>Correct!</strong></p><p style='font-size: 30px;'><strong>This rock is diorite</strong></p>","0","corr_feedback","2","train","12","","","","","","","","","","","","","","","","","","","","","","","",""
"","","","","","","","","","","","html-button-response","265","2.0.0","1728289","671c8a1fe7a5cd2edc846675","4","51","2391","","","","","","","","","","0","start_train","","","","","","","","","","","","","","","","","","","","","","","","","","",""
"","","","","","","","","","","","html-button-response","266","2.0.0","1737066","671c8a1fe7a5cd2edc846675","4","51","","","","","","","","","","","","cat_selection","2","train","1","","","","","","","6511.199999988079","2263.800000011921","7","8","Peridotite","Pumice","","","","","","","","","","","",""
"","","","","","","","","","","","paired-cat-display","267","1.0.0","1834402","671c8a1fe7a5cd2edc846675","4","51","","","","","","","","","","","","paired_cat_display","2","train","1","","","","","","","","","","","","","","","7453.699999988079","89879.09999999404","","green colored rough rocks","","","","colored hole rock","",""
"","","","","","","","","","","","html-button-response","268","2.0.0","1840705","671c8a1fe7a5cd2edc846675","4","51","","","","","","","","","","","","cat_selection","2","train","2","","","","","","","3998.699999988079","2304","4","1","Gabbro","Andesite","","","","","","","","","","","",""
"","","","","","","","","","","","paired-cat-display","269","1.0.0","1902817","671c8a1fe7a5cd2edc846675","4","51","","","","","","","","","","","","paired_cat_display","2","train","2","","","","","","","","","","","","","","white line patterns","9238.300000011921","52871.19999998808","dark rough pattern","","","","","","",""
"","","","","","","","","","","","html-button-response","270","2.0.0","1907578","671c8a1fe7a5cd2edc846675","4","51","","","","","","","","","","","","cat_selection","2","train","3","","","","","","","3374.800000011921","1384.199999988079","2","3","Basalt","Diorite","","","","","","","","","","","",""
"","","","","","","","","","","","paired-cat-display","271","1.0.0","1972785","671c8a1fe7a5cd2edc846675","4","51","","","","","","","","","","","","paired_cat_display","2","train","3","","","","","","","","","","","","","circular patterned rock","","6062.199999988079","59142.79999998212","","","","","","","dark lined rock",""
"","","","","","","","","","","","html-button-response","273","2.0.0","1975593","671c8a1fe7a5cd2edc846675","4","51","2807","","","","","","","","","","0","start_test","","","","","","","","","","","","","","","","","","","","","","","","","","",""
"","","","","","","","","","","","html-button-response","274","2.0.0","2002561","671c8a1fe7a5cd2edc846675","4","51","26967","","","","","","","","","<img src= ""rock_img/I_Andesite_03.jpg"" style=""width:8cm; height:5.73cm;""><p>What type of rock is this?</p>","6","class_response","2","test","1","Peridotite","Andesite","03","false","7","1","","","","","","","","","","","","","","","","","",""
"","","","","","","","","","","","html-keyboard-response","275","2.0.0","2003068","671c8a1fe7a5cd2edc846675","4","51","null","","","","","","","","","<p style='font-size: 30px;'><strong>Okay</strong></p>","null","neutral_feedback","2","test","1","","","","","","","","","","","","","","","","","","","","","","","",""
"","","","","","","","","","","","html-button-response","276","2.0.0","2008249","671c8a1fe7a5cd2edc846675","4","51","5177","","","","","","","","","<img src= ""rock_img/I_Andesite_04.jpg"" style=""width:8cm; height:5.96cm;""><p>What type of rock is this?</p>","7","class_response","2","test","2","Pumice","Andesite","04","false","8","1","","","","","","","","","","","","","","","","","",""
"","","","","","","","","","","","html-keyboard-response","277","2.0.0","2008751","671c8a1fe7a5cd2edc846675","4","51","null","","","","","","","","","<p style='font-size: 30px;'><strong>Okay</strong></p>","null","neutral_feedback","2","test","2","","","","","","","","","","","","","","","","","","","","","","","",""
"","","","","","","","","","","","html-button-response","278","2.0.0","2016721","671c8a1fe7a5cd2edc846675","4","51","7967","","","","","","","","","<img src= ""rock_img/I_Pegmatite_13.jpg"" style=""width:8cm; height:4.95cm;""><p>What type of rock is this?</p>","5","class_response","2","test","3","Pegmatite","Pegmatite","13","true","6","6","","","","","","","","","","","","","","","","","",""
