"width","height","webaudio","browser","browser_version","mobile","os","fullscreen","vsync_rate","webcam","microphone","trial_type","trial_index","plugin_version","time_elapsed","subjID","condition","stimID","rt","url","success","value","timeout","failed_images","failed_audio","failed_video","view_history","stimulus","response","trialType","cycle","phase","trial","resp","cat","token","corr","resp_num","cat_num","rt_ref","rt_paired","ref_cat_num","paired_cat_num","ref_cat","paired_cat","text_Andesite","text_Diorite","time_obs","time_resp","text_Gabbro","text_Basalt","text_Pegmatite","text_Peridotite","time_fb1","time_fb2","text_Pumice","text_Obsidian"
"1538","779","true","chrome","131.0.0","false","Windows 10","true","61.27","false","false","browser-check","0","2.0.0","1044","666b096ade3d4f774c629d3e","4","2","","","","","","","","","","","","","","","","","","","","","","","","","","","","","","","","","","","","","","",""
"","","","","","","","","","","","external-html","1","2.0.0","10813","666b096ade3d4f774c629d3e","4","2","9681","consent_form.html","","","","","","","","","","","","","","","","","","","","","","","","","","","","","","","","","","","","",""
"","","","","","","","","","","","fullscreen","2","2.0.0","108141","666b096ade3d4f774c629d3e","4","2","96310","","true","","","","","","","","","","","","","","","","","","","","","","","","","","","","","","","","","","","",""
"","","","","","","","","","","","call-function","3","2.0.0","108143","666b096ade3d4f774c629d3e","4","2","","","","{}","","","","","","","","","","","","","","","","","","","","","","","","","","","","","","","","","","",""
"","","","","","","","","","","","preload","4","2.0.0","112267","666b096ade3d4f774c629d3e","4","2","","","true","","false","[]","[]","[]","","","","","","","","","","","","","","","","","","","","","","","","","","","","","","",""
"","","","","","","","","","","","instructions","5","2.0.0","150077","666b096ade3d4f774c629d3e","4","2","37809","","","","","","","","[{""page_index"":0,""viewing_time"":15449},{""page_index"":1,""viewing_time"":15632},{""page_index"":2,""viewing_time"":6728}]","","","","","","","","","","","","","","","","","","","","","","","","","","","","","",""
"","","","","","","","","","","","html-button-response","6","2.0.0","153885","666b096ade3d4f774c629d3e","4","2","3806","","","","","","","","","","0","start_test","","","","","","","","","","","","","","","","","","","","","","","","","","",""
"","","","","","","","","","","","html-button-response","7","2.0.0","161133","666b096ade3d4f774c629d3e","4","2","7246","","","","","","","","","<img src= ""rock_img/I_Pegmatite_07.jpg"" style=""width:8cm; height:6.7cm;""><p>What type of rock is this?</p>","4","class_response","0","test","1","Obsidian","Pegmatite","07","false","5","6","","","","","","","","","","","","","","","","","",""
"","","","","","","","","","","","html-keyboard-response","8","2.0.0","161636","666b096ade3d4f774c629d3e","4","2","null","","","","","","","","","<p style='font-size: 30px;'><strong>Okay</strong></p>","null","neutral_feedback","0","test","1","","","","","","","","","","","","","","","","","","","","","","","",""
"","","","","","","","","","","","html-button-response","9","2.0.0","164781","666b096ade3d4f774c629d3e","4","2","3143","","","","","","","","","<img src= ""rock_img/I_Pegmatite_13.jpg"" style=""width:8cm; height:4.95cm;""><p>What type of rock is this?</p>","1","class_response","0","test","2","Basalt","Pegmatite","13","false","2","6","","","","","","","","","","","","","","","","","",""
"","","","","","","","","","","","html-keyboard-response","10","2.0.0","165292","666b096ade3d4f774c629d3e","4","2","null","","","","","","","","","<p style='font-size: 30px;'><strong>Okay</strong></p>","null","neutral_feedback","0","test","2","","","","","","","","","","","","","","","","","","","","","","","",""
"","","","","","","","","","","","html-button-response","11","2.0.0","167797","666b096ade3d4f774c629d3e","4","2","2503","","","","","","","","","<img src= ""rock_img/I_Peridotite_12.jpg"" style=""width:8cm; height:4.54cm;""><p>What type of rock is this?</p>","7","class_response","0","test","3","Pumice","Peridotite","12","false","8","7","","","","","","","","","","","","","","","","","",""
"","","","","","","","","","","","html-keyboard-response","12","2.0.0","168306","666b096ade3d4f774c629d3e","4","2","null","","","","","","","","","<p style='font-size: 30px;'><strong>Okay</strong></p>","null","neutral_feedback","0","test","3","","","","","","","","","","","","","","","","","","","","","","","",""
"","","","","","","","","","","","html-button-response","13","2.0.0","169997","666b096ade3d4f774c629d3e","4","2","1689","","","","","","","","","<img src= ""rock_img/I_Diorite_15.jpg"" style=""width:8cm; height:5.54cm;""><p>What type of rock is this?</p>","6","class_response","0","test","4","Peridotite","Diorite","15","false","7","3","","","","","","","","","","","","","","","","","",""
"","","","","","","","","","","","html-keyboard-response","14","2.0.0","170499","666b096ade3d4f774c629d3e","4","2","null","","","","","","","","","<p style='font-size: 30px;'><strong>Okay</strong></p>","null","neutral_feedback","0","test","4","","","","","","","","","","","","","","","","","","","","","","","",""
"","","","","","","","","","","","html-button-response","15","2.0.0","173078","666b096ade3d4f774c629d3e","4","2","2578","","","","","","","","","<img src= ""rock_img/I_Pumice_04.jpg"" style=""width:8cm; height:6.819999999999999cm;""><p>What type of rock is this?</p>","0","class_response","0","test","5","Andesite","Pumice","04","false","1","8","","","","","","","","","","","","","","","","","",""
"","","","","","","","","","","","html-keyboard-response","16","2.0.0","173581","666b096ade3d4f774c629d3e","4","2","null","","","","","","","","","<p style='font-size: 30px;'><strong>Okay</strong></p>","null","neutral_feedback","0","test","5","","","","","","","","","","","","","","","","","","","","","","","",""
"","","","","","","","","","","","html-button-response","17","2.0.0","174925","666b096ade3d4f774c629d3e","4","2","1344","","","","","","","","","<img src= ""rock_img/I_Peridotite_13.jpg"" style=""width:8cm; height:7.58cm;""><p>What type of rock is this?</p>","1","class_response","0","test","6","Basalt","Peridotite","13","false","2","7","","","","","","","","","","","","","","","","","",""
"","","","","","","","","","","","html-keyboard-response","18","2.0.0","175428","666b096ade3d4f774c629d3e","4","2","null","","","","","","","","","<p style='font-size: 30px;'><strong>Okay</strong></p>","null","neutral_feedback","0","test","6","","","","","","","","","","","","","","","","","","","","","","","",""
"","","","","","","","","","","","html-button-response","19","2.0.0","177845","666b096ade3d4f774c629d3e","4","2","2416","","","","","","","","","<img src= ""rock_img/I_Obsidian_02.jpg"" style=""width:8cm; height:7.51cm;""><p>What type of rock is this?</p>","5","class_response","0","test","7","Pegmatite","Obsidian","02","false","6","5","","","","","","","","","","","","","","","","","",""
"","","","","","","","","","","","html-keyboard-response","20","2.0.0","178359","666b096ade3d4f774c629d3e","4","2","null","","","","","","","","","<p style='font-size: 30px;'><strong>Okay</strong></p>","null","neutral_feedback","0","test","7","","","","","","","","","","","","","","","","","","","","","","","",""
"","","","","","","","","","","","html-button-response","21","2.0.0","180037","666b096ade3d4f774c629d3e","4","2","1677","","","","","","","","","<img src= ""rock_img/I_Peridotite_15.jpg"" style=""width:8cm; height:6cm;""><p>What type of rock is this?</p>","6","class_response","0","test","8","Peridotite","Peridotite","15","true","7","7","","","","","","","","","","","","","","","","","",""
"","","","","","","","","","","","html-keyboard-response","22","2.0.0","180541","666b096ade3d4f774c629d3e","4","2","null","","","","","","","","","<p style='font-size: 30px;'><strong>Okay</strong></p>","null","neutral_feedback","0","test","8","","","","","","","","","","","","","","","","","","","","","","","",""
"","","","","","","","","","","","html-button-response","23","2.0.0","182078","666b096ade3d4f774c629d3e","4","2","1536","","","","","","","","","<img src= ""rock_img/I_Peridotite_02.jpg"" style=""width:8cm; height:5.859999999999999cm;""><p>What type of rock is this?</p>","3","class_response","0","test","9","Gabbro","Peridotite","02","false","4","7","","","","","","","","","","","","","","","","","",""
"","","","","","","","","","","","html-keyboard-response","24","2.0.0","182590","666b096ade3d4f774c629d3e","4","2","null","","","","","","","","","<p style='font-size: 30px;'><strong>Okay</strong></p>","null","neutral_feedback","0","test","9","","","","","","","","","","","","","","","","","","","","","","","",""
"","","","","","","","","","","","html-button-response","25","2.0.0","184046","666b096ade3d4f774c629d3e","4","2","1454","","","","","","","","","<img src= ""rock_img/I_Basalt_06.jpg"" style=""width:8cm; height:7.06cm;""><p>What type of rock is this?</p>","7","class_response","0","test","10","Pumice","Basalt","06","false","8","2","","","","","","","","","","","","","","","","","",""
"","","","","","","","","","","","html-keyboard-response","26","2.0.0","184556","666b096ade3d4f774c629d3e","4","2","null","","","","","","","","","<p style='font-size: 30px;'><strong>Okay</strong></p>","null","neutral_feedback","0","test","10","","","","","","","","","","","","","","","","","","","","","","","",""
"","","","","","","","","","","","html-button-response","27","2.0.0","185725","666b096ade3d4f774c629d3e","4","2","1168","","","","","","","","","<img src= ""rock_img/I_Gabbro_03.jpg"" style=""width:8cm; height:8.52cm;""><p>What type of rock is this?</p>","7","class_response","0","test","11","Pumice","Gabbro","03","false","8","4","","","","","","","","","","","","","","","","","",""
"","","","","","","","","","","","html-keyboard-response","28","2.0.0","186236","666b096ade3d4f774c629d3e","4","2","null","","","","","","","","","<p style='font-size: 30px;'><strong>Okay</strong></p>","null","neutral_feedback","0","test","11","","","","","","","","","","","","","","","","","","","","","","","",""
"","","","","","","","","","","","html-button-response","29","2.0.0","187165","666b096ade3d4f774c629d3e","4","2","928","","","","","","","","","<img src= ""rock_img/I_Diorite_09.jpg"" style=""width:8cm; height:5.27cm;""><p>What type of rock is this?</p>","1","class_response","0","test","12","Basalt","Diorite","09","false","2","3","","","","","","","","","","","","","","","","","",""
"","","","","","","","","","","","html-keyboard-response","30","2.0.0","187669","666b096ade3d4f774c629d3e","4","2","null","","","","","","","","","<p style='font-size: 30px;'><strong>Okay</strong></p>","null","neutral_feedback","0","test","12","","","","","","","","","","","","","","","","","","","","","","","",""
"","","","","","","","","","","","html-button-response","31","2.0.0","188933","666b096ade3d4f774c629d3e","4","2","1263","","","","","","","","","<img src= ""rock_img/I_Pumice_13.jpg"" style=""width:8cm; height:8.200000000000001cm;""><p>What type of rock is this?</p>","4","class_response","0","test","13","Obsidian","Pumice","13","false","5","8","","","","","","","","","","","","","","","","","",""
"","","","","","","","","","","","html-keyboard-response","32","2.0.0","189437","666b096ade3d4f774c629d3e","4","2","null","","","","","","","","","<p style='font-size: 30px;'><strong>Okay</strong></p>","null","neutral_feedback","0","test","13","","","","","","","","","","","","","","","","","","","","","","","",""
"","","","","","","","","","","","html-button-response","33","2.0.0","190461","666b096ade3d4f774c629d3e","4","2","1024","","","","","","","","","<img src= ""rock_img/I_Pumice_06.jpg"" style=""width:8cm; height:6.9399999999999995cm;""><p>What type of rock is this?</p>","3","class_response","0","test","14","Gabbro","Pumice","06","false","4","8","","","","","","","","","","","","","","","","","",""
"","","","","","","","","","","","html-keyboard-response","34","2.0.0","190964","666b096ade3d4f774c629d3e","4","2","null","","","","","","","","","<p style='font-size: 30px;'><strong>Okay</strong></p>","null","neutral_feedback","0","test","14","","","","","","","","","","","","","","","","","","","","","","","",""
"","","","","","","","","","","","html-button-response","35","2.0.0","192086","666b096ade3d4f774c629d3e","4","2","1120","","","","","","","","","<img src= ""rock_img/I_Pegmatite_08.jpg"" style=""width:8cm; height:7.68cm;""><p>What type of rock is this?</p>","1","class_response","0","test","15","Basalt","Pegmatite","08","false","2","6","","","","","","","","","","","","","","","","","",""
"","","","","","","","","","","","html-keyboard-response","36","2.0.0","192589","666b096ade3d4f774c629d3e","4","2","null","","","","","","","","","<p style='font-size: 30px;'><strong>Okay</strong></p>","null","neutral_feedback","0","test","15","","","","","","","","","","","","","","","","","","","","","","","",""
"","","","","","","","","","","","html-button-response","37","2.0.0","193750","666b096ade3d4f774c629d3e","4","2","1160","","","","","","","","","<img src= ""rock_img/I_Andesite_06.jpg"" style=""width:8cm; height:6.840000000000001cm;""><p>What type of rock is this?</p>","0","class_response","0","test","16","Andesite","Andesite","06","true","1","1","","","","","","","","","","","","","","","","","",""
"","","","","","","","","","","","html-keyboard-response","38","2.0.0","194251","666b096ade3d4f774c629d3e","4","2","null","","","","","","","","","<p style='font-size: 30px;'><strong>Okay</strong></p>","null","neutral_feedback","0","test","16","","","","","","","","","","","","","","","","","","","","","","","",""
"","","","","","","","","","","","html-button-response","39","2.0.0","194989","666b096ade3d4f774c629d3e","4","2","737","","","","","","","","","<img src= ""rock_img/I_Gabbro_05.jpg"" style=""width:8cm; height:6cm;""><p>What type of rock is this?</p>","6","class_response","0","test","17","Peridotite","Gabbro","05","false","7","4","","","","","","","","","","","","","","","","","",""
"","","","","","","","","","","","html-keyboard-response","40","2.0.0","195491","666b096ade3d4f774c629d3e","4","2","null","","","","","","","","","<p style='font-size: 30px;'><strong>Okay</strong></p>","null","neutral_feedback","0","test","17","","","","","","","","","","","","","","","","","","","","","","","",""
"","","","","","","","","","","","html-button-response","41","2.0.0","197702","666b096ade3d4f774c629d3e","4","2","2209","","","","","","","","","<img src= ""rock_img/I_Obsidian_10.jpg"" style=""width:8cm; height:6.260000000000001cm;""><p>What type of rock is this?</p>","5","class_response","0","test","18","Pegmatite","Obsidian","10","false","6","5","","","","","","","","","","","","","","","","","",""
"","","","","","","","","","","","html-keyboard-response","42","2.0.0","198205","666b096ade3d4f774c629d3e","4","2","null","","","","","","","","","<p style='font-size: 30px;'><strong>Okay</strong></p>","null","neutral_feedback","0","test","18","","","","","","","","","","","","","","","","","","","","","","","",""
"","","","","","","","","","","","html-button-response","43","2.0.0","199166","666b096ade3d4f774c629d3e","4","2","960","","","","","","","","","<img src= ""rock_img/I_Andesite_02.jpg"" style=""width:8cm; height:8.5cm;""><p>What type of rock is this?</p>","3","class_response","0","test","19","Gabbro","Andesite","02","false","4","1","","","","","","","","","","","","","","","","","",""
"","","","","","","","","","","","html-keyboard-response","44","2.0.0","199667","666b096ade3d4f774c629d3e","4","2","null","","","","","","","","","<p style='font-size: 30px;'><strong>Okay</strong></p>","null","neutral_feedback","0","test","19","","","","","","","","","","","","","","","","","","","","","","","",""
"","","","","","","","","","","","html-button-response","45","2.0.0","200621","666b096ade3d4f774c629d3e","4","2","953","","","","","","","","","<img src= ""rock_img/I_Obsidian_04.jpg"" style=""width:8cm; height:6.930000000000001cm;""><p>What type of rock is this?</p>","2","class_response","0","test","20","Diorite","Obsidian","04","false","3","5","","","","","","","","","","","","","","","","","",""
"","","","","","","","","","","","html-keyboard-response","46","2.0.0","201122","666b096ade3d4f774c629d3e","4","2","null","","","","","","","","","<p style='font-size: 30px;'><strong>Okay</strong></p>","null","neutral_feedback","0","test","20","","","","","","","","","","","","","","","","","","","","","","","",""
"","","","","","","","","","","","html-button-response","47","2.0.0","202061","666b096ade3d4f774c629d3e","4","2","938","","","","","","","","","<img src= ""rock_img/I_Gabbro_16.jpg"" style=""width:8cm; height:6.44cm;""><p>What type of rock is this?</p>","1","class_response","0","test","21","Basalt","Gabbro","16","false","2","4","","","","","","","","","","","","","","","","","",""
"","","","","","","","","","","","html-keyboard-response","48","2.0.0","202563","666b096ade3d4f774c629d3e","4","2","null","","","","","","","","","<p style='font-size: 30px;'><strong>Okay</strong></p>","null","neutral_feedback","0","test","21","","","","","","","","","","","","","","","","","","","","","","","",""
"","","","","","","","","","","","html-button-response","49","2.0.0","203189","666b096ade3d4f774c629d3e","4","2","625","","","","","","","","","<img src= ""rock_img/I_Diorite_11.jpg"" style=""width:8cm; height:7.11cm;""><p>What type of rock is this?</p>","6","class_response","0","test","22","Peridotite","Diorite","11","false","7","3","","","","","","","","","","","","","","","","","",""
"","","","","","","","","","","","html-keyboard-response","50","2.0.0","203691","666b096ade3d4f774c629d3e","4","2","null","","","","","","","","","<p style='font-size: 30px;'><strong>Okay</strong></p>","null","neutral_feedback","0","test","22","","","","","","","","","","","","","","","","","","","","","","","",""
"","","","","","","","","","","","html-button-response","51","2.0.0","204733","666b096ade3d4f774c629d3e","4","2","1040","","","","","","","","","<img src= ""rock_img/I_Gabbro_14.jpg"" style=""width:8cm; height:8.48cm;""><p>What type of rock is this?</p>","7","class_response","0","test","23","Pumice","Gabbro","14","false","8","4","","","","","","","","","","","","","","","","","",""
"","","","","","","","","","","","html-keyboard-response","52","2.0.0","205235","666b096ade3d4f774c629d3e","4","2","null","","","","","","","","","<p style='font-size: 30px;'><strong>Okay</strong></p>","null","neutral_feedback","0","test","23","","","","","","","","","","","","","","","","","","","","","","","",""
"","","","","","","","","","","","html-button-response","53","2.0.0","206541","666b096ade3d4f774c629d3e","4","2","1305","","","","","","","","","<img src= ""rock_img/I_Pumice_16.jpg"" style=""width:8cm; height:6.79cm;""><p>What type of rock is this?</p>","0","class_response","0","test","24","Andesite","Pumice","16","false","1","8","","","","","","","","","","","","","","","","","",""
"","","","","","","","","","","","html-keyboard-response","54","2.0.0","207043","666b096ade3d4f774c629d3e","4","2","null","","","","","","","","","<p style='font-size: 30px;'><strong>Okay</strong></p>","null","neutral_feedback","0","test","24","","","","","","","","","","","","","","","","","","","","","","","",""
"","","","","","","","","","","","html-button-response","55","2.0.0","208182","666b096ade3d4f774c629d3e","4","2","1137","","","","","","","","","<img src= ""rock_img/I_Peridotite_16.jpg"" style=""width:8cm; height:6.989999999999999cm;""><p>What type of rock is this?</p>","1","class_response","0","test","25","Basalt","Peridotite","16","false","2","7","","","","","","","","","","","","","","","","","",""
"","","","","","","","","","","","html-keyboard-response","56","2.0.0","208687","666b096ade3d4f774c629d3e","4","2","null","","","","","","","","","<p style='font-size: 30px;'><strong>Okay</strong></p>","null","neutral_feedback","0","test","25","","","","","","","","","","","","","","","","","","","","","","","",""
"","","","","","","","","","","","html-button-response","57","2.0.0","209573","666b096ade3d4f774c629d3e","4","2","885","","","","","","","","","<img src= ""rock_img/I_Pumice_14.jpg"" style=""width:8cm; height:6.39cm;""><p>What type of rock is this?</p>","3","class_response","0","test","26","Gabbro","Pumice","14","false","4","8","","","","","","","","","","","","","","","","","",""
"","","","","","","","","","","","html-keyboard-response","58","2.0.0","210077","666b096ade3d4f774c629d3e","4","2","null","","","","","","","","","<p style='font-size: 30px;'><strong>Okay</strong></p>","null","neutral_feedback","0","test","26","","","","","","","","","","","","","","","","","","","","","","","",""
"","","","","","","","","","","","html-button-response","59","2.0.0","211325","666b096ade3d4f774c629d3e","4","2","1247","","","","","","","","","<img src= ""rock_img/I_Pegmatite_09.jpg"" style=""width:8cm; height:4.03cm;""><p>What type of rock is this?</p>","5","class_response","0","test","27","Pegmatite","Pegmatite","09","true","6","6","","","","","","","","","","","","","","","","","",""
"","","","","","","","","","","","html-keyboard-response","60","2.0.0","211826","666b096ade3d4f774c629d3e","4","2","null","","","","","","","","","<p style='font-size: 30px;'><strong>Okay</strong></p>","null","neutral_feedback","0","test","27","","","","","","","","","","","","","","","","","","","","","","","",""
"","","","","","","","","","","","html-button-response","61","2.0.0","212622","666b096ade3d4f774c629d3e","4","2","794","","","","","","","","","<img src= ""rock_img/I_Gabbro_08.jpg"" style=""width:8cm; height:5.15cm;""><p>What type of rock is this?</p>","2","class_response","0","test","28","Diorite","Gabbro","08","false","3","4","","","","","","","","","","","","","","","","","",""
"","","","","","","","","","","","html-keyboard-response","62","2.0.0","213130","666b096ade3d4f774c629d3e","4","2","null","","","","","","","","","<p style='font-size: 30px;'><strong>Okay</strong></p>","null","neutral_feedback","0","test","28","","","","","","","","","","","","","","","","","","","","","","","",""
"","","","","","","","","","","","html-button-response","63","2.0.0","214429","666b096ade3d4f774c629d3e","4","2","1298","","","","","","","","","<img src= ""rock_img/I_Basalt_16.jpg"" style=""width:8cm; height:7.659999999999999cm;""><p>What type of rock is this?</p>","6","class_response","0","test","29","Peridotite","Basalt","16","false","7","2","","","","","","","","","","","","","","","","","",""
"","","","","","","","","","","","html-keyboard-response","64","2.0.0","214930","666b096ade3d4f774c629d3e","4","2","null","","","","","","","","","<p style='font-size: 30px;'><strong>Okay</strong></p>","null","neutral_feedback","0","test","29","","","","","","","","","","","","","","","","","","","","","","","",""
"","","","","","","","","","","","html-button-response","65","2.0.0","216005","666b096ade3d4f774c629d3e","4","2","1074","","","","","","","","","<img src= ""rock_img/I_Andesite_03.jpg"" style=""width:8cm; height:5.73cm;""><p>What type of rock is this?</p>","0","class_response","0","test","30","Andesite","Andesite","03","true","1","1","","","","","","","","","","","","","","","","","",""
"","","","","","","","","","","","html-keyboard-response","66","2.0.0","216507","666b096ade3d4f774c629d3e","4","2","null","","","","","","","","","<p style='font-size: 30px;'><strong>Okay</strong></p>","null","neutral_feedback","0","test","30","","","","","","","","","","","","","","","","","","","","","","","",""
"","","","","","","","","","","","html-button-response","67","2.0.0","217125","666b096ade3d4f774c629d3e","4","2","617","","","","","","","","","<img src= ""rock_img/I_Diorite_02.jpg"" style=""width:8cm; height:6.27cm;""><p>What type of rock is this?</p>","4","class_response","0","test","31","Obsidian","Diorite","02","false","5","3","","","","","","","","","","","","","","","","","",""
"","","","","","","","","","","","html-keyboard-response","68","2.0.0","217627","666b096ade3d4f774c629d3e","4","2","null","","","","","","","","","<p style='font-size: 30px;'><strong>Okay</strong></p>","null","neutral_feedback","0","test","31","","","","","","","","","","","","","","","","","","","","","","","",""
"","","","","","","","","","","","html-button-response","69","2.0.0","218549","666b096ade3d4f774c629d3e","4","2","922","","","","","","","","","<img src= ""rock_img/I_Andesite_10.jpg"" style=""width:8cm; height:4.16cm;""><p>What type of rock is this?</p>","3","class_response","0","test","32","Gabbro","Andesite","10","false","4","1","","","","","","","","","","","","","","","","","",""
"","","","","","","","","","","","html-keyboard-response","70","2.0.0","219061","666b096ade3d4f774c629d3e","4","2","null","","","","","","","","","<p style='font-size: 30px;'><strong>Okay</strong></p>","null","neutral_feedback","0","test","32","","","","","","","","","","","","","","","","","","","","","","","",""
"","","","","","","","","","","","html-button-response","71","2.0.0","220021","666b096ade3d4f774c629d3e","4","2","960","","","","","","","","","<img src= ""rock_img/I_Obsidian_07.jpg"" style=""width:8cm; height:4.76cm;""><p>What type of rock is this?</p>","5","class_response","0","test","33","Pegmatite","Obsidian","07","false","6","5","","","","","","","","","","","","","","","","","",""
"","","","","","","","","","","","html-keyboard-response","72","2.0.0","220523","666b096ade3d4f774c629d3e","4","2","null","","","","","","","","","<p style='font-size: 30px;'><strong>Okay</strong></p>","null","neutral_feedback","0","test","33","","","","","","","","","","","","","","","","","","","","","","","",""
"","","","","","","","","","","","html-button-response","73","2.0.0","221333","666b096ade3d4f774c629d3e","4","2","810","","","","","","","","","<img src= ""rock_img/I_Basalt_02.jpg"" style=""width:8cm; height:6.45cm;""><p>What type of rock is this?</p>","2","class_response","0","test","34","Diorite","Basalt","02","false","3","2","","","","","","","","","","","","","","","","","",""
"","","","","","","","","","","","html-keyboard-response","74","2.0.0","221835","666b096ade3d4f774c629d3e","4","2","null","","","","","","","","","<p style='font-size: 30px;'><strong>Okay</strong></p>","null","neutral_feedback","0","test","34","","","","","","","","","","","","","","","","","","","","","","","",""
"","","","","","","","","","","","html-button-response","75","2.0.0","222934","666b096ade3d4f774c629d3e","4","2","1098","","","","","","","","","<img src= ""rock_img/I_Pegmatite_15.jpg"" style=""width:8cm; height:6cm;""><p>What type of rock is this?</p>","5","class_response","0","test","35","Pegmatite","Pegmatite","15","true","6","6","","","","","","","","","","","","","","","","","",""
"","","","","","","","","","","","html-keyboard-response","76","2.0.0","223435","666b096ade3d4f774c629d3e","4","2","null","","","","","","","","","<p style='font-size: 30px;'><strong>Okay</strong></p>","null","neutral_feedback","0","test","35","","","","","","","","","","","","","","","","","","","","","","","",""
"","","","","","","","","","","","html-button-response","77","2.0.0","224597","666b096ade3d4f774c629d3e","4","2","1160","","","","","","","","","<img src= ""rock_img/I_Obsidian_05.jpg"" style=""width:8cm; height:6.33cm;""><p>What type of rock is this?</p>","3","class_response","0","test","36","Gabbro","Obsidian","05","false","4","5","","","","","","","","","","","","","","","","","",""
"","","","","","","","","","","","html-keyboard-response","78","2.0.0","225098","666b096ade3d4f774c629d3e","4","2","null","","","","","","","","","<p style='font-size: 30px;'><strong>Okay</strong></p>","null","neutral_feedback","0","test","36","","","","","","","","","","","","","","","","","","","","","","","",""
"","","","","","","","","","","","html-button-response","79","2.0.0","225885","666b096ade3d4f774c629d3e","4","2","786","","","","","","","","","<img src= ""rock_img/I_Diorite_12.jpg"" style=""width:8cm; height:4.88cm;""><p>What type of rock is this?</p>","6","class_response","0","test","37","Peridotite","Diorite","12","false","7","3","","","","","","","","","","","","","","","","","",""
"","","","","","","","","","","","html-keyboard-response","80","2.0.0","226399","666b096ade3d4f774c629d3e","4","2","null","","","","","","","","","<p style='font-size: 30px;'><strong>Okay</strong></p>","null","neutral_feedback","0","test","37","","","","","","","","","","","","","","","","","","","","","","","",""
"","","","","","","","","","","","html-button-response","81","2.0.0","227566","666b096ade3d4f774c629d3e","4","2","1166","","","","","","","","","<img src= ""rock_img/I_Andesite_01.jpg"" style=""width:8cm; height:5.87cm;""><p>What type of rock is this?</p>","7","class_response","0","test","38","Pumice","Andesite","01","false","8","1","","","","","","","","","","","","","","","","","",""
"","","","","","","","","","","","html-keyboard-response","82","2.0.0","228067","666b096ade3d4f774c629d3e","4","2","null","","","","","","","","","<p style='font-size: 30px;'><strong>Okay</strong></p>","null","neutral_feedback","0","test","38","","","","","","","","","","","","","","","","","","","","","","","",""
"","","","","","","","","","","","html-button-response","83","2.0.0","229646","666b096ade3d4f774c629d3e","4","2","1577","","","","","","","","","<img src= ""rock_img/I_Andesite_05.jpg"" style=""width:8cm; height:4.12cm;""><p>What type of rock is this?</p>","4","class_response","0","test","39","Obsidian","Andesite","05","false","5","1","","","","","","","","","","","","","","","","","",""
"","","","","","","","","","","","html-keyboard-response","84","2.0.0","230149","666b096ade3d4f774c629d3e","4","2","null","","","","","","","","","<p style='font-size: 30px;'><strong>Okay</strong></p>","null","neutral_feedback","0","test","39","","","","","","","","","","","","","","","","","","","","","","","",""
"","","","","","","","","","","","html-button-response","85","2.0.0","231014","666b096ade3d4f774c629d3e","4","2","863","","","","","","","","","<img src= ""rock_img/I_Peridotite_07.jpg"" style=""width:8cm; height:4.83cm;""><p>What type of rock is this?</p>","0","class_response","0","test","40","Andesite","Peridotite","07","false","1","7","","","","","","","","","","","","","","","","","",""
"","","","","","","","","","","","html-keyboard-response","86","2.0.0","231516","666b096ade3d4f774c629d3e","4","2","null","","","","","","","","","<p style='font-size: 30px;'><strong>Okay</strong></p>","null","neutral_feedback","0","test","40","","","","","","","","","","","","","","","","","","","","","","","",""
"","","","","","","","","","","","html-button-response","87","2.0.0","232469","666b096ade3d4f774c629d3e","4","2","952","","","","","","","","","<img src= ""rock_img/I_Gabbro_09.jpg"" style=""width:8cm; height:7.279999999999999cm;""><p>What type of rock is this?</p>","1","class_response","0","test","41","Basalt","Gabbro","09","false","2","4","","","","","","","","","","","","","","","","","",""
"","","","","","","","","","","","html-keyboard-response","88","2.0.0","232983","666b096ade3d4f774c629d3e","4","2","null","","","","","","","","","<p style='font-size: 30px;'><strong>Okay</strong></p>","null","neutral_feedback","0","test","41","","","","","","","","","","","","","","","","","","","","","","","",""
"","","","","","","","","","","","html-button-response","89","2.0.0","233845","666b096ade3d4f774c629d3e","4","2","861","","","","","","","","","<img src= ""rock_img/I_Basalt_10.jpg"" style=""width:8cm; height:5.85cm;""><p>What type of rock is this?</p>","2","class_response","0","test","42","Diorite","Basalt","10","false","3","2","","","","","","","","","","","","","","","","","",""
"","","","","","","","","","","","html-keyboard-response","90","2.0.0","234357","666b096ade3d4f774c629d3e","4","2","null","","","","","","","","","<p style='font-size: 30px;'><strong>Okay</strong></p>","null","neutral_feedback","0","test","42","","","","","","","","","","","","","","","","","","","","","","","",""
"","","","","","","","","","","","html-button-response","91","2.0.0","235133","666b096ade3d4f774c629d3e","4","2","775","","","","","","","","","<img src= ""rock_img/I_Basalt_08.jpg"" style=""width:8cm; height:10.44cm;""><p>What type of rock is this?</p>","3","class_response","0","test","43","Gabbro","Basalt","08","false","4","2","","","","","","","","","","","","","","","","","",""
"","","","","","","","","","","","html-keyboard-response","92","2.0.0","235637","666b096ade3d4f774c629d3e","4","2","null","","","","","","","","","<p style='font-size: 30px;'><strong>Okay</strong></p>","null","neutral_feedback","0","test","43","","","","","","","","","","","","","","","","","","","","","","","",""
"","","","","","","","","","","","html-button-response","93","2.0.0","236438","666b096ade3d4f774c629d3e","4","2","800","","","","","","","","","<img src= ""rock_img/I_Pegmatite_16.jpg"" style=""width:8cm; height:5.8cm;""><p>What type of rock is this?</p>","4","class_response","0","test","44","Obsidian","Pegmatite","16","false","5","6","","","","","","","","","","","","","","","","","",""
"","","","","","","","","","","","html-keyboard-response","94","2.0.0","236947","666b096ade3d4f774c629d3e","4","2","null","","","","","","","","","<p style='font-size: 30px;'><strong>Okay</strong></p>","null","neutral_feedback","0","test","44","","","","","","","","","","","","","","","","","","","","","","","",""
"","","","","","","","","","","","html-button-response","95","2.0.0","237581","666b096ade3d4f774c629d3e","4","2","633","","","","","","","","","<img src= ""rock_img/I_Pumice_02.jpg"" style=""width:8cm; height:7.3999999999999995cm;""><p>What type of rock is this?</p>","6","class_response","0","test","45","Peridotite","Pumice","02","false","7","8","","","","","","","","","","","","","","","","","",""
"","","","","","","","","","","","html-keyboard-response","96","2.0.0","238096","666b096ade3d4f774c629d3e","4","2","null","","","","","","","","","<p style='font-size: 30px;'><strong>Okay</strong></p>","null","neutral_feedback","0","test","45","","","","","","","","","","","","","","","","","","","","","","","",""
"","","","","","","","","","","","html-button-response","97","2.0.0","238965","666b096ade3d4f774c629d3e","4","2","868","","","","","","","","","<img src= ""rock_img/I_Obsidian_06.jpg"" style=""width:8cm; height:6.8cm;""><p>What type of rock is this?</p>","3","class_response","0","test","46","Gabbro","Obsidian","06","false","4","5","","","","","","","","","","","","","","","","","",""
"","","","","","","","","","","","html-keyboard-response","98","2.0.0","239467","666b096ade3d4f774c629d3e","4","2","null","","","","","","","","","<p style='font-size: 30px;'><strong>Okay</strong></p>","null","neutral_feedback","0","test","46","","","","","","","","","","","","","","","","","","","","","","","",""
"","","","","","","","","","","","html-button-response","99","2.0.0","240022","666b096ade3d4f774c629d3e","4","2","554","","","","","","","","","<img src= ""rock_img/I_Basalt_11.jpg"" style=""width:8cm; height:5.359999999999999cm;""><p>What type of rock is this?</p>","5","class_response","0","test","47","Pegmatite","Basalt","11","false","6","2","","","","","","","","","","","","","","","","","",""
"","","","","","","","","","","","html-keyboard-response","100","2.0.0","240523","666b096ade3d4f774c629d3e","4","2","null","","","","","","","","","<p style='font-size: 30px;'><strong>Okay</strong></p>","null","neutral_feedback","0","test","47","","","","","","","","","","","","","","","","","","","","","","","",""
"","","","","","","","","","","","html-button-response","101","2.0.0","241077","666b096ade3d4f774c629d3e","4","2","554","","","","","","","","","<img src= ""rock_img/I_Diorite_06.jpg"" style=""width:8cm; height:6.03cm;""><p>What type of rock is this?</p>","1","class_response","0","test","48","Basalt","Diorite","06","false","2","3","","","","","","","","","","","","","","","","","",""
"","","","","","","","","","","","html-keyboard-response","102","2.0.0","241590","666b096ade3d4f774c629d3e","4","2","null","","","","","","","","","<p style='font-size: 30px;'><strong>Okay</strong></p>","null","neutral_feedback","0","test","48","","","","","","","","","","","","","","","","","","","","","","","",""
"","","","","","","","","","","","instructions","103","2.0.0","266501","666b096ade3d4f774c629d3e","4","2","24890","","","","","","","","[{""page_index"":0,""viewing_time"":18426},{""page_index"":1,""viewing_time"":6464}]","","","","","","","","","","","","","","","","","","","","","","","","","","","","","",""
"","","","","","","","","","","","html-button-response","104","2.0.0","273621","666b096ade3d4f774c629d3e","4","2","7118","","","","","","","","","","0","start_train","","","","","","","","","","","","","","","","","","","","","","","","","","",""
"","","","","","","","","","","","html-button-response","106","2.0.0","275893","666b096ade3d4f774c629d3e","4","2","2271","","","","","","","","","<img src= ""rock_img/I_Basalt_01.jpg"" style=""width:8cm; height:7.880000000000001cm;""><p>What type of rock is this?</p>","2","class_response","1","train","1","Diorite","Basalt","01","false","3","2","","","","","","","","","","","","","","","","","",""
"","","","","","","","","","","","html-button-response","107","2.0.0","279533","666b096ade3d4f774c629d3e","4","2","3638","","","","","","","","","<img src= rock_img/I_Basalt_01.jpg style=""width:8cm; height:7.880000000000001cm;""><p style='font-size: 30px; color: red;'><strong>Incorrect!</strong></p><p style='font-size: 30px;'><strong>This rock is basalt</strong></p>","0","corr_feedback","1","train","1","","","","","","","","","","","","","","","","","","","","","","","",""
"","","","","","","","","","","","html-button-response","108","2.0.0","283221","666b096ade3d4f774c629d3e","4","2","3687","","","","","","","","","<img src= ""rock_img/I_Obsidian_14.jpg"" style=""width:8cm; height:7.64cm;""><p>What type of rock is this?</p>","0","class_response","1","train","2","Andesite","Obsidian","14","false","1","5","","","","","","","","","","","","","","","","","",""
"","","","","","","","","","","","html-button-response","109","2.0.0","286782","666b096ade3d4f774c629d3e","4","2","3559","","","","","","","","","<img src= rock_img/I_Obsidian_14.jpg style=""width:8cm; height:7.64cm;""><p style='font-size: 30px; color: red;'><strong>Incorrect!</strong></p><p style='font-size: 30px;'><strong>This rock is obsidian</strong></p>","0","corr_feedback","1","train","2","","","","","","","","","","","","","","","","","","","","","","","",""
"","","","","","","","","","","","html-button-response","110","2.0.0","288701","666b096ade3d4f774c629d3e","4","2","1918","","","","","","","","","<img src= ""rock_img/I_Peridotite_14.jpg"" style=""width:8cm; height:5.3cm;""><p>What type of rock is this?</p>","3","class_response","1","train","3","Gabbro","Peridotite","14","false","4","7","","","","","","","","","","","","","","","","","",""
"","","","","","","","","","","","html-button-response","111","2.0.0","292702","666b096ade3d4f774c629d3e","4","2","3999","","","","","","","","","<img src= rock_img/I_Peridotite_14.jpg style=""width:8cm; height:5.3cm;""><p style='font-size: 30px; color: red;'><strong>Incorrect!</strong></p><p style='font-size: 30px;'><strong>This rock is peridotite</strong></p>","0","corr_feedback","1","train","3","","","","","","","","","","","","","","","","","","","","","","","",""
"","","","","","","","","","","","html-button-response","112","2.0.0","295357","666b096ade3d4f774c629d3e","4","2","2654","","","","","","","","","<img src= ""rock_img/I_Gabbro_13.jpg"" style=""width:8cm; height:5.08cm;""><p>What type of rock is this?</p>","7","class_response","1","train","4","Pumice","Gabbro","13","false","8","4","","","","","","","","","","","","","","","","","",""
"","","","","","","","","","","","html-button-response","113","2.0.0","297854","666b096ade3d4f774c629d3e","4","2","2495","","","","","","","","","<img src= rock_img/I_Gabbro_13.jpg style=""width:8cm; height:5.08cm;""><p style='font-size: 30px; color: red;'><strong>Incorrect!</strong></p><p style='font-size: 30px;'><strong>This rock is gabbro</strong></p>","0","corr_feedback","1","train","4","","","","","","","","","","","","","","","","","","","","","","","",""
"","","","","","","","","","","","html-button-response","114","2.0.0","300301","666b096ade3d4f774c629d3e","4","2","2447","","","","","","","","","<img src= ""rock_img/I_Pegmatite_06.jpg"" style=""width:8cm; height:5.17cm;""><p>What type of rock is this?</p>","0","class_response","1","train","5","Andesite","Pegmatite","06","false","1","6","","","","","","","","","","","","","","","","","",""
"","","","","","","","","","","","html-button-response","115","2.0.0","303437","666b096ade3d4f774c629d3e","4","2","3135","","","","","","","","","<img src= rock_img/I_Pegmatite_06.jpg style=""width:8cm; height:5.17cm;""><p style='font-size: 30px; color: red;'><strong>Incorrect!</strong></p><p style='font-size: 30px;'><strong>This rock is pegmatite</strong></p>","0","corr_feedback","1","train","5","","","","","","","","","","","","","","","","","","","","","","","",""
"","","","","","","","","","","","html-button-response","116","2.0.0","306574","666b096ade3d4f774c629d3e","4","2","3135","","","","","","","","","<img src= ""rock_img/I_Diorite_14.jpg"" style=""width:8cm; height:5.71cm;""><p>What type of rock is this?</p>","5","class_response","1","train","6","Pegmatite","Diorite","14","false","6","3","","","","","","","","","","","","","","","","","",""
"","","","","","","","","","","","html-button-response","117","2.0.0","309901","666b096ade3d4f774c629d3e","4","2","3326","","","","","","","","","<img src= rock_img/I_Diorite_14.jpg style=""width:8cm; height:5.71cm;""><p style='font-size: 30px; color: red;'><strong>Incorrect!</strong></p><p style='font-size: 30px;'><strong>This rock is diorite</strong></p>","0","corr_feedback","1","train","6","","","","","","","","","","","","","","","","","","","","","","","",""
"","","","","","","","","","","","html-button-response","118","2.0.0","312749","666b096ade3d4f774c629d3e","4","2","2846","","","","","","","","","<img src= ""rock_img/I_Andesite_16.jpg"" style=""width:8cm; height:6.010000000000001cm;""><p>What type of rock is this?</p>","3","class_response","1","train","7","Gabbro","Andesite","16","false","4","1","","","","","","","","","","","","","","","","","",""
"","","","","","","","","","","","html-button-response","119","2.0.0","315461","666b096ade3d4f774c629d3e","4","2","2711","","","","","","","","","<img src= rock_img/I_Andesite_16.jpg style=""width:8cm; height:6.010000000000001cm;""><p style='font-size: 30px; color: red;'><strong>Incorrect!</strong></p><p style='font-size: 30px;'><strong>This rock is andesite</strong></p>","0","corr_feedback","1","train","7","","","","","","","","","","","","","","","","","","","","","","","",""
"","","","","","","","","","","","html-button-response","120","2.0.0","320982","666b096ade3d4f774c629d3e","4","2","5519","","","","","","","","","<img src= ""rock_img/I_Peridotite_06.jpg"" style=""width:8cm; height:7.53cm;""><p>What type of rock is this?</p>","6","class_response","1","train","8","Peridotite","Peridotite","06","true","7","7","","","","","","","","","","","","","","","","","",""
"","","","","","","","","","","","html-button-response","121","2.0.0","326678","666b096ade3d4f774c629d3e","4","2","5695","","","","","","","","","<img src= rock_img/I_Peridotite_06.jpg style=""width:8cm; height:7.53cm;""><p style='font-size: 30px; color: green;'><strong>Correct!</strong></p><p style='font-size: 30px;'><strong>This rock is peridotite</strong></p>","0","corr_feedback","1","train","8","","","","","","","","","","","","","","","","","","","","","","","",""
"","","","","","","","","","","","html-button-response","122","2.0.0","330245","666b096ade3d4f774c629d3e","4","2","3567","","","","","","","","","<img src= ""rock_img/I_Obsidian_12.jpg"" style=""width:8cm; height:6.53cm;""><p>What type of rock is this?</p>","4","class_response","1","train","9","Obsidian","Obsidian","12","true","5","5","","","","","","","","","","","","","","","","","",""
"","","","","","","","","","","","html-button-response","123","2.0.0","332285","666b096ade3d4f774c629d3e","4","2","2039","","","","","","","","","<img src= rock_img/I_Obsidian_12.jpg style=""width:8cm; height:6.53cm;""><p style='font-size: 30px; color: green;'><strong>Correct!</strong></p><p style='font-size: 30px;'><strong>This rock is obsidian</strong></p>","0","corr_feedback","1","train","9","","","","","","","","","","","","","","","","","","","","","","","",""
"","","","","","","","","","","","html-button-response","124","2.0.0","334101","666b096ade3d4f774c629d3e","4","2","1815","","","","","","","","","<img src= ""rock_img/I_Pumice_05.jpg"" style=""width:8cm; height:7.25cm;""><p>What type of rock is this?</p>","3","class_response","1","train","10","Gabbro","Pumice","05","false","4","8","","","","","","","","","","","","","","","","","",""
"","","","","","","","","","","","html-button-response","125","2.0.0","335501","666b096ade3d4f774c629d3e","4","2","1399","","","","","","","","","<img src= rock_img/I_Pumice_05.jpg style=""width:8cm; height:7.25cm;""><p style='font-size: 30px; color: red;'><strong>Incorrect!</strong></p><p style='font-size: 30px;'><strong>This rock is pumice</strong></p>","0","corr_feedback","1","train","10","","","","","","","","","","","","","","","","","","","","","","","",""
"","","","","","","","","","","","html-button-response","126","2.0.0","339806","666b096ade3d4f774c629d3e","4","2","4303","","","","","","","","","<img src= ""rock_img/I_Diorite_07.jpg"" style=""width:8cm; height:5.239999999999999cm;""><p>What type of rock is this?</p>","3","class_response","1","train","11","Gabbro","Diorite","07","false","4","3","","","","","","","","","","","","","","","","","",""
"","","","","","","","","","","","html-button-response","127","2.0.0","341549","666b096ade3d4f774c629d3e","4","2","1742","","","","","","","","","<img src= rock_img/I_Diorite_07.jpg style=""width:8cm; height:5.239999999999999cm;""><p style='font-size: 30px; color: red;'><strong>Incorrect!</strong></p><p style='font-size: 30px;'><strong>This rock is diorite</strong></p>","0","corr_feedback","1","train","11","","","","","","","","","","","","","","","","","","","","","","","",""
"","","","","","","","","","","","html-button-response","128","2.0.0","345158","666b096ade3d4f774c629d3e","4","2","3607","","","","","","","","","<img src= ""rock_img/I_Pegmatite_03.jpg"" style=""width:8cm; height:5.239999999999999cm;""><p>What type of rock is this?</p>","6","class_response","1","train","12","Peridotite","Pegmatite","03","false","7","6","","","","","","","","","","","","","","","","","",""
"","","","","","","","","","","","html-button-response","129","2.0.0","347214","666b096ade3d4f774c629d3e","4","2","2054","","","","","","","","","<img src= rock_img/I_Pegmatite_03.jpg style=""width:8cm; height:5.239999999999999cm;""><p style='font-size: 30px; color: red;'><strong>Incorrect!</strong></p><p style='font-size: 30px;'><strong>This rock is pegmatite</strong></p>","0","corr_feedback","1","train","12","","","","","","","","","","","","","","","","","","","","","","","",""
"","","","","","","","","","","","instructions","130","2.0.0","382614","666b096ade3d4f774c629d3e","4","2","35399","","","","","","","","[{""page_index"":0,""viewing_time"":10423},{""page_index"":1,""viewing_time"":9184},{""page_index"":2,""viewing_time"":6504},{""page_index"":3,""viewing_time"":9288}]","","","","","","","","","","","","","","","","","","","","","","","","","","","","","",""
"","","","","","","","","","","","html-button-response","131","2.0.0","383733","666b096ade3d4f774c629d3e","4","2","1119","","","","","","","","","","0","start_train","","","","","","","","","","","","","","","","","","","","","","","","","","",""
"","","","","","","","","","","","html-button-response","132","2.0.0","390374","666b096ade3d4f774c629d3e","4","2","","","","","","","","","","","","cat_selection","1","train","1","","","","","","","4999.20000000298","1640","1","3","","","","","","","","","","","","","",""
"","","","","","","","","","","","paired-cat-display","133","1.0.0","460990","666b096ade3d4f774c629d3e","4","2","","","","","","","","","","","","paired_cat_display","1","train","1","","","","","","","","","","","","","smaller cock within the larger rock, gray in color","more speckled appearance with black speckles ","32245.70000000298","38366.89999999851","","","","","","","",""
"","","","","","","","","","","","html-button-response","134","2.0.0","473102","666b096ade3d4f774c629d3e","4","2","","","","","","","","","","","","cat_selection","1","train","2","","","","","","","8935.10000000149","3176.10000000149","4","2","Andesite","Diorite","","","","","","","","","","","",""
"","","","","","","","","","","","paired-cat-display","135","1.0.0","521950","666b096ade3d4f774c629d3e","4","2","","","","","","","","","","","","paired_cat_display","1","train","2","","","","","","","","","","","","","","","12861.89999999851","35983","raw looking but with speckles and textue","looks more raw and stone like  more smooth","","","","","",""
"","","","","","","","","","","","html-button-response","136","2.0.0","524014","666b096ade3d4f774c629d3e","4","2","","","","","","","","","","","","cat_selection","1","train","3","","","","","","","1703.1999999955297","359.70000000298023","6","7","Gabbro","Basalt","","","","","","","","","","","",""
"","","","","","","","","","","","paired-cat-display","137","1.0.0","574078","666b096ade3d4f774c629d3e","4","2","","","","","","","","","","","","paired_cat_display","1","train","3","","","","","","","","","","","","","","","17518.5","32542.60000000149","","","big patterns with different colors like orange and green","pretty colors but in smaller patterns","","","",""
"","","","","","","","","","","","instructions","138","2.0.0","582454","666b096ade3d4f774c629d3e","4","2","8375","","","","","","","","[{""page_index"":0,""viewing_time"":5623},{""page_index"":1,""viewing_time"":2752}]","","","","","","","","","","","","","","","","","","","","","","","","","","","","","",""
"","","","","","","","","","","","html-button-response","139","2.0.0","585758","666b096ade3d4f774c629d3e","4","2","3303","","","","","","","","","","0","start_test","","","","","","","","","","","","","","","","","","","","","","","","","","",""
"","","","","","","","","","","","html-button-response","140","2.0.0","608134","666b096ade3d4f774c629d3e","4","2","22374","","","","","","","","","<img src= ""rock_img/I_Diorite_11.jpg"" style=""width:8cm; height:7.11cm;""><p>What type of rock is this?</p>","2","class_response","1","test","1","Diorite","Diorite","11","true","3","3","","","","","","","","","","","","","","","","","",""
"","","","","","","","","","","","html-keyboard-response","141","2.0.0","608640","666b096ade3d4f774c629d3e","4","2","null","","","","","","","","","<p style='font-size: 30px;'><strong>Okay</strong></p>","null","neutral_feedback","1","test","1","","","","","","","","","","","","","","","","","","","","","","","",""
"","","","","","","","","","","","html-button-response","142","2.0.0","611694","666b096ade3d4f774c629d3e","4","2","3053","","","","","","","","","<img src= ""rock_img/I_Pumice_04.jpg"" style=""width:8cm; height:6.819999999999999cm;""><p>What type of rock is this?</p>","7","class_response","1","test","2","Pumice","Pumice","04","true","8","8","","","","","","","","","","","","","","","","","",""
"","","","","","","","","","","","html-keyboard-response","143","2.0.0","612196","666b096ade3d4f774c629d3e","4","2","null","","","","","","","","","<p style='font-size: 30px;'><strong>Okay</strong></p>","null","neutral_feedback","1","test","2","","","","","","","","","","","","","","","","","","","","","","","",""
"","","","","","","","","","","","html-button-response","144","2.0.0","620510","666b096ade3d4f774c629d3e","4","2","8313","","","","","","","","","<img src= ""rock_img/I_Gabbro_09.jpg"" style=""width:8cm; height:7.279999999999999cm;""><p>What type of rock is this?</p>","3","class_response","1","test","3","Gabbro","Gabbro","09","true","4","4","","","","","","","","","","","","","","","","","",""
"","","","","","","","","","","","html-keyboard-response","145","2.0.0","621026","666b096ade3d4f774c629d3e","4","2","null","","","","","","","","","<p style='font-size: 30px;'><strong>Okay</strong></p>","null","neutral_feedback","1","test","3","","","","","","","","","","","","","","","","","","","","","","","",""
"","","","","","","","","","","","html-button-response","146","2.0.0","625262","666b096ade3d4f774c629d3e","4","2","4235","","","","","","","","","<img src= ""rock_img/I_Peridotite_16.jpg"" style=""width:8cm; height:6.989999999999999cm;""><p>What type of rock is this?</p>","6","class_response","1","test","4","Peridotite","Peridotite","16","true","7","7","","","","","","","","","","","","","","","","","",""
"","","","","","","","","","","","html-keyboard-response","147","2.0.0","625764","666b096ade3d4f774c629d3e","4","2","null","","","","","","","","","<p style='font-size: 30px;'><strong>Okay</strong></p>","null","neutral_feedback","1","test","4","","","","","","","","","","","","","","","","","","","","","","","",""
"","","","","","","","","","","","html-button-response","148","2.0.0","626830","666b096ade3d4f774c629d3e","4","2","1064","","","","","","","","","<img src= ""rock_img/I_Pegmatite_15.jpg"" style=""width:8cm; height:6cm;""><p>What type of rock is this?</p>","5","class_response","1","test","5","Pegmatite","Pegmatite","15","true","6","6","","","","","","","","","","","","","","","","","",""
"","","","","","","","","","","","html-keyboard-response","149","2.0.0","627336","666b096ade3d4f774c629d3e","4","2","null","","","","","","","","","<p style='font-size: 30px;'><strong>Okay</strong></p>","null","neutral_feedback","1","test","5","","","","","","","","","","","","","","","","","","","","","","","",""
"","","","","","","","","","","","html-button-response","150","2.0.0","631494","666b096ade3d4f774c629d3e","4","2","4157","","","","","","","","","<img src= ""rock_img/I_Pegmatite_13.jpg"" style=""width:8cm; height:4.95cm;""><p>What type of rock is this?</p>","5","class_response","1","test","6","Pegmatite","Pegmatite","13","true","6","6","","","","","","","","","","","","","","","","","",""
"","","","","","","","","","","","html-keyboard-response","151","2.0.0","632002","666b096ade3d4f774c629d3e","4","2","null","","","","","","","","","<p style='font-size: 30px;'><strong>Okay</strong></p>","null","neutral_feedback","1","test","6","","","","","","","","","","","","","","","","","","","","","","","",""
"","","","","","","","","","","","html-button-response","152","2.0.0","636110","666b096ade3d4f774c629d3e","4","2","4107","","","","","","","","","<img src= ""rock_img/I_Basalt_10.jpg"" style=""width:8cm; height:5.85cm;""><p>What type of rock is this?</p>","1","class_response","1","test","7","Basalt","Basalt","10","true","2","2","","","","","","","","","","","","","","","","","",""
"","","","","","","","","","","","html-keyboard-response","153","2.0.0","636612","666b096ade3d4f774c629d3e","4","2","null","","","","","","","","","<p style='font-size: 30px;'><strong>Okay</strong></p>","null","neutral_feedback","1","test","7","","","","","","","","","","","","","","","","","","","","","","","",""
"","","","","","","","","","","","html-button-response","154","2.0.0","641030","666b096ade3d4f774c629d3e","4","2","4417","","","","","","","","","<img src= ""rock_img/I_Peridotite_02.jpg"" style=""width:8cm; height:5.859999999999999cm;""><p>What type of rock is this?</p>","6","class_response","1","test","8","Peridotite","Peridotite","02","true","7","7","","","","","","","","","","","","","","","","","",""
"","","","","","","","","","","","html-keyboard-response","155","2.0.0","641534","666b096ade3d4f774c629d3e","4","2","null","","","","","","","","","<p style='font-size: 30px;'><strong>Okay</strong></p>","null","neutral_feedback","1","test","8","","","","","","","","","","","","","","","","","","","","","","","",""
"","","","","","","","","","","","html-button-response","156","2.0.0","647742","666b096ade3d4f774c629d3e","4","2","6207","","","","","","","","","<img src= ""rock_img/I_Gabbro_05.jpg"" style=""width:8cm; height:6cm;""><p>What type of rock is this?</p>","3","class_response","1","test","9","Gabbro","Gabbro","05","true","4","4","","","","","","","","","","","","","","","","","",""
"","","","","","","","","","","","html-keyboard-response","157","2.0.0","648246","666b096ade3d4f774c629d3e","4","2","null","","","","","","","","","<p style='font-size: 30px;'><strong>Okay</strong></p>","null","neutral_feedback","1","test","9","","","","","","","","","","","","","","","","","","","","","","","",""
"","","","","","","","","","","","html-button-response","158","2.0.0","649286","666b096ade3d4f774c629d3e","4","2","1039","","","","","","","","","<img src= ""rock_img/I_Obsidian_10.jpg"" style=""width:8cm; height:6.260000000000001cm;""><p>What type of rock is this?</p>","5","class_response","1","test","10","Pegmatite","Obsidian","10","false","6","5","","","","","","","","","","","","","","","","","",""
"","","","","","","","","","","","html-keyboard-response","159","2.0.0","649790","666b096ade3d4f774c629d3e","4","2","null","","","","","","","","","<p style='font-size: 30px;'><strong>Okay</strong></p>","null","neutral_feedback","1","test","10","","","","","","","","","","","","","","","","","","","","","","","",""
"","","","","","","","","","","","html-button-response","160","2.0.0","651126","666b096ade3d4f774c629d3e","4","2","1335","","","","","","","","","<img src= ""rock_img/I_Pumice_14.jpg"" style=""width:8cm; height:6.39cm;""><p>What type of rock is this?</p>","7","class_response","1","test","11","Pumice","Pumice","14","true","8","8","","","","","","","","","","","","","","","","","",""
"","","","","","","","","","","","html-keyboard-response","161","2.0.0","651628","666b096ade3d4f774c629d3e","4","2","null","","","","","","","","","<p style='font-size: 30px;'><strong>Okay</strong></p>","null","neutral_feedback","1","test","11","","","","","","","","","","","","","","","","","","","","","","","",""
"","","","","","","","","","","","html-button-response","162","2.0.0","659239","666b096ade3d4f774c629d3e","4","2","7609","","","","","","","","","<img src= ""rock_img/I_Diorite_02.jpg"" style=""width:8cm; height:6.27cm;""><p>What type of rock is this?</p>","6","class_response","1","test","12","Peridotite","Diorite","02","false","7","3","","","","","","","","","","","","","","","","","",""
"","","","","","","","","","","","html-keyboard-response","163","2.0.0","659741","666b096ade3d4f774c629d3e","4","2","null","","","","","","","","","<p style='font-size: 30px;'><strong>Okay</strong></p>","null","neutral_feedback","1","test","12","","","","","","","","","","","","","","","","","","","","","","","",""
"","","","","","","","","","","","html-button-response","164","2.0.0","661623","666b096ade3d4f774c629d3e","4","2","1880","","","","","","","","","<img src= ""rock_img/I_Basalt_11.jpg"" style=""width:8cm; height:5.359999999999999cm;""><p>What type of rock is this?</p>","3","class_response","1","test","13","Gabbro","Basalt","11","false","4","2","","","","","","","","","","","","","","","","","",""
"","","","","","","","","","","","html-keyboard-response","165","2.0.0","662126","666b096ade3d4f774c629d3e","4","2","null","","","","","","","","","<p style='font-size: 30px;'><strong>Okay</strong></p>","null","neutral_feedback","1","test","13","","","","","","","","","","","","","","","","","","","","","","","",""
"","","","","","","","","","","","html-button-response","166","2.0.0","664918","666b096ade3d4f774c629d3e","4","2","2791","","","","","","","","","<img src= ""rock_img/I_Diorite_12.jpg"" style=""width:8cm; height:4.88cm;""><p>What type of rock is this?</p>","2","class_response","1","test","14","Diorite","Diorite","12","true","3","3","","","","","","","","","","","","","","","","","",""
"","","","","","","","","","","","html-keyboard-response","167","2.0.0","665427","666b096ade3d4f774c629d3e","4","2","null","","","","","","","","","<p style='font-size: 30px;'><strong>Okay</strong></p>","null","neutral_feedback","1","test","14","","","","","","","","","","","","","","","","","","","","","","","",""
"","","","","","","","","","","","html-button-response","168","2.0.0","666854","666b096ade3d4f774c629d3e","4","2","1426","","","","","","","","","<img src= ""rock_img/I_Gabbro_16.jpg"" style=""width:8cm; height:6.44cm;""><p>What type of rock is this?</p>","1","class_response","1","test","15","Basalt","Gabbro","16","false","2","4","","","","","","","","","","","","","","","","","",""
"","","","","","","","","","","","html-keyboard-response","169","2.0.0","667357","666b096ade3d4f774c629d3e","4","2","null","","","","","","","","","<p style='font-size: 30px;'><strong>Okay</strong></p>","null","neutral_feedback","1","test","15","","","","","","","","","","","","","","","","","","","","","","","",""
"","","","","","","","","","","","html-button-response","170","2.0.0","669175","666b096ade3d4f774c629d3e","4","2","1817","","","","","","","","","<img src= ""rock_img/I_Basalt_02.jpg"" style=""width:8cm; height:6.45cm;""><p>What type of rock is this?</p>","1","class_response","1","test","16","Basalt","Basalt","02","true","2","2","","","","","","","","","","","","","","","","","",""
"","","","","","","","","","","","html-keyboard-response","171","2.0.0","669679","666b096ade3d4f774c629d3e","4","2","null","","","","","","","","","<p style='font-size: 30px;'><strong>Okay</strong></p>","null","neutral_feedback","1","test","16","","","","","","","","","","","","","","","","","","","","","","","",""
"","","","","","","","","","","","html-button-response","172","2.0.0","671782","666b096ade3d4f774c629d3e","4","2","2103","","","","","","","","","<img src= ""rock_img/I_Peridotite_15.jpg"" style=""width:8cm; height:6cm;""><p>What type of rock is this?</p>","4","class_response","1","test","17","Obsidian","Peridotite","15","false","5","7","","","","","","","","","","","","","","","","","",""
"","","","","","","","","","","","html-keyboard-response","173","2.0.0","672284","666b096ade3d4f774c629d3e","4","2","null","","","","","","","","","<p style='font-size: 30px;'><strong>Okay</strong></p>","null","neutral_feedback","1","test","17","","","","","","","","","","","","","","","","","","","","","","","",""
"","","","","","","","","","","","html-button-response","174","2.0.0","675078","666b096ade3d4f774c629d3e","4","2","2793","","","","","","","","","<img src= ""rock_img/I_Gabbro_14.jpg"" style=""width:8cm; height:8.48cm;""><p>What type of rock is this?</p>","0","class_response","1","test","18","Andesite","Gabbro","14","false","1","4","","","","","","","","","","","","","","","","","",""
"","","","","","","","","","","","html-keyboard-response","175","2.0.0","675581","666b096ade3d4f774c629d3e","4","2","null","","","","","","","","","<p style='font-size: 30px;'><strong>Okay</strong></p>","null","neutral_feedback","1","test","18","","","","","","","","","","","","","","","","","","","","","","","",""
"","","","","","","","","","","","html-button-response","176","2.0.0","676846","666b096ade3d4f774c629d3e","4","2","1263","","","","","","","","","<img src= ""rock_img/I_Basalt_08.jpg"" style=""width:8cm; height:10.44cm;""><p>What type of rock is this?</p>","1","class_response","1","test","19","Basalt","Basalt","08","true","2","2","","","","","","","","","","","","","","","","","",""
"","","","","","","","","","","","html-keyboard-response","177","2.0.0","677362","666b096ade3d4f774c629d3e","4","2","null","","","","","","","","","<p style='font-size: 30px;'><strong>Okay</strong></p>","null","neutral_feedback","1","test","19","","","","","","","","","","","","","","","","","","","","","","","",""
"","","","","","","","","","","","html-button-response","178","2.0.0","681902","666b096ade3d4f774c629d3e","4","2","4539","","","","","","","","","<img src= ""rock_img/I_Andesite_01.jpg"" style=""width:8cm; height:5.87cm;""><p>What type of rock is this?</p>","3","class_response","1","test","20","Gabbro","Andesite","01","false","4","1","","","","","","","","","","","","","","","","","",""
"","","","","","","","","","","","html-keyboard-response","179","2.0.0","682407","666b096ade3d4f774c629d3e","4","2","null","","","","","","","","","<p style='font-size: 30px;'><strong>Okay</strong></p>","null","neutral_feedback","1","test","20","","","","","","","","","","","","","","","","","","","","","","","",""
"","","","","","","","","","","","html-button-response","180","2.0.0","683302","666b096ade3d4f774c629d3e","4","2","894","","","","","","","","","<img src= ""rock_img/I_Obsidian_04.jpg"" style=""width:8cm; height:6.930000000000001cm;""><p>What type of rock is this?</p>","5","class_response","1","test","21","Pegmatite","Obsidian","04","false","6","5","","","","","","","","","","","","","","","","","",""
"","","","","","","","","","","","html-keyboard-response","181","2.0.0","683814","666b096ade3d4f774c629d3e","4","2","null","","","","","","","","","<p style='font-size: 30px;'><strong>Okay</strong></p>","null","neutral_feedback","1","test","21","","","","","","","","","","","","","","","","","","","","","","","",""
"","","","","","","","","","","","html-button-response","182","2.0.0","685350","666b096ade3d4f774c629d3e","4","2","1535","","","","","","","","","<img src= ""rock_img/I_Pegmatite_07.jpg"" style=""width:8cm; height:6.7cm;""><p>What type of rock is this?</p>","5","class_response","1","test","22","Pegmatite","Pegmatite","07","true","6","6","","","","","","","","","","","","","","","","","",""
"","","","","","","","","","","","html-keyboard-response","183","2.0.0","685863","666b096ade3d4f774c629d3e","4","2","null","","","","","","","","","<p style='font-size: 30px;'><strong>Okay</strong></p>","null","neutral_feedback","1","test","22","","","","","","","","","","","","","","","","","","","","","","","",""
"","","","","","","","","","","","html-button-response","184","2.0.0","686767","666b096ade3d4f774c629d3e","4","2","902","","","","","","","","","<img src= ""rock_img/I_Pegmatite_08.jpg"" style=""width:8cm; height:7.68cm;""><p>What type of rock is this?</p>","5","class_response","1","test","23","Pegmatite","Pegmatite","08","true","6","6","","","","","","","","","","","","","","","","","",""
"","","","","","","","","","","","html-keyboard-response","185","2.0.0","687275","666b096ade3d4f774c629d3e","4","2","null","","","","","","","","","<p style='font-size: 30px;'><strong>Okay</strong></p>","null","neutral_feedback","1","test","23","","","","","","","","","","","","","","","","","","","","","","","",""
"","","","","","","","","","","","html-button-response","186","2.0.0","690439","666b096ade3d4f774c629d3e","4","2","3162","","","","","","","","","<img src= ""rock_img/I_Andesite_02.jpg"" style=""width:8cm; height:8.5cm;""><p>What type of rock is this?</p>","2","class_response","1","test","24","Diorite","Andesite","02","false","3","1","","","","","","","","","","","","","","","","","",""
"","","","","","","","","","","","html-keyboard-response","187","2.0.0","690940","666b096ade3d4f774c629d3e","4","2","null","","","","","","","","","<p style='font-size: 30px;'><strong>Okay</strong></p>","null","neutral_feedback","1","test","24","","","","","","","","","","","","","","","","","","","","","","","",""
"","","","","","","","","","","","html-button-response","188","2.0.0","692110","666b096ade3d4f774c629d3e","4","2","1170","","","","","","","","","<img src= ""rock_img/I_Basalt_16.jpg"" style=""width:8cm; height:7.659999999999999cm;""><p>What type of rock is this?</p>","1","class_response","1","test","25","Basalt","Basalt","16","true","2","2","","","","","","","","","","","","","","","","","",""
"","","","","","","","","","","","html-keyboard-response","189","2.0.0","692612","666b096ade3d4f774c629d3e","4","2","null","","","","","","","","","<p style='font-size: 30px;'><strong>Okay</strong></p>","null","neutral_feedback","1","test","25","","","","","","","","","","","","","","","","","","","","","","","",""
"","","","","","","","","","","","html-button-response","190","2.0.0","695431","666b096ade3d4f774c629d3e","4","2","2818","","","","","","","","","<img src= ""rock_img/I_Andesite_05.jpg"" style=""width:8cm; height:4.12cm;""><p>What type of rock is this?</p>","3","class_response","1","test","26","Gabbro","Andesite","05","false","4","1","","","","","","","","","","","","","","","","","",""
"","","","","","","","","","","","html-keyboard-response","191","2.0.0","695946","666b096ade3d4f774c629d3e","4","2","null","","","","","","","","","<p style='font-size: 30px;'><strong>Okay</strong></p>","null","neutral_feedback","1","test","26","","","","","","","","","","","","","","","","","","","","","","","",""
"","","","","","","","","","","","html-button-response","192","2.0.0","697190","666b096ade3d4f774c629d3e","4","2","1243","","","","","","","","","<img src= ""rock_img/I_Diorite_09.jpg"" style=""width:8cm; height:5.27cm;""><p>What type of rock is this?</p>","3","class_response","1","test","27","Gabbro","Diorite","09","false","4","3","","","","","","","","","","","","","","","","","",""
"","","","","","","","","","","","html-keyboard-response","193","2.0.0","697691","666b096ade3d4f774c629d3e","4","2","null","","","","","","","","","<p style='font-size: 30px;'><strong>Okay</strong></p>","null","neutral_feedback","1","test","27","","","","","","","","","","","","","","","","","","","","","","","",""
"","","","","","","","","","","","html-button-response","194","2.0.0","700270","666b096ade3d4f774c629d3e","4","2","2578","","","","","","","","","<img src= ""rock_img/I_Gabbro_08.jpg"" style=""width:8cm; height:5.15cm;""><p>What type of rock is this?</p>","2","class_response","1","test","28","Diorite","Gabbro","08","false","3","4","","","","","","","","","","","","","","","","","",""
"","","","","","","","","","","","html-keyboard-response","195","2.0.0","700782","666b096ade3d4f774c629d3e","4","2","null","","","","","","","","","<p style='font-size: 30px;'><strong>Okay</strong></p>","null","neutral_feedback","1","test","28","","","","","","","","","","","","","","","","","","","","","","","",""
"","","","","","","","","","","","html-button-response","196","2.0.0","701814","666b096ade3d4f774c629d3e","4","2","1031","","","","","","","","","<img src= ""rock_img/I_Obsidian_02.jpg"" style=""width:8cm; height:7.51cm;""><p>What type of rock is this?</p>","5","class_response","1","test","29","Pegmatite","Obsidian","02","false","6","5","","","","","","","","","","","","","","","","","",""
"","","","","","","","","","","","html-keyboard-response","197","2.0.0","702316","666b096ade3d4f774c629d3e","4","2","null","","","","","","","","","<p style='font-size: 30px;'><strong>Okay</strong></p>","null","neutral_feedback","1","test","29","","","","","","","","","","","","","","","","","","","","","","","",""
"","","","","","","","","","","","html-button-response","198","2.0.0","703702","666b096ade3d4f774c629d3e","4","2","1385","","","","","","","","","<img src= ""rock_img/I_Obsidian_07.jpg"" style=""width:8cm; height:4.76cm;""><p>What type of rock is this?</p>","5","class_response","1","test","30","Pegmatite","Obsidian","07","false","6","5","","","","","","","","","","","","","","","","","",""
"","","","","","","","","","","","html-keyboard-response","199","2.0.0","704215","666b096ade3d4f774c629d3e","4","2","null","","","","","","","","","<p style='font-size: 30px;'><strong>Okay</strong></p>","null","neutral_feedback","1","test","30","","","","","","","","","","","","","","","","","","","","","","","",""
"","","","","","","","","","","","html-button-response","200","2.0.0","705182","666b096ade3d4f774c629d3e","4","2","967","","","","","","","","","<img src= ""rock_img/I_Peridotite_12.jpg"" style=""width:8cm; height:4.54cm;""><p>What type of rock is this?</p>","6","class_response","1","test","31","Peridotite","Peridotite","12","true","7","7","","","","","","","","","","","","","","","","","",""
"","","","","","","","","","","","html-keyboard-response","201","2.0.0","705691","666b096ade3d4f774c629d3e","4","2","null","","","","","","","","","<p style='font-size: 30px;'><strong>Okay</strong></p>","null","neutral_feedback","1","test","31","","","","","","","","","","","","","","","","","","","","","","","",""
"","","","","","","","","","","","html-button-response","202","2.0.0","706927","666b096ade3d4f774c629d3e","4","2","1235","","","","","","","","","<img src= ""rock_img/I_Pumice_02.jpg"" style=""width:8cm; height:7.3999999999999995cm;""><p>What type of rock is this?</p>","7","class_response","1","test","32","Pumice","Pumice","02","true","8","8","","","","","","","","","","","","","","","","","",""
"","","","","","","","","","","","html-keyboard-response","203","2.0.0","707442","666b096ade3d4f774c629d3e","4","2","null","","","","","","","","","<p style='font-size: 30px;'><strong>Okay</strong></p>","null","neutral_feedback","1","test","32","","","","","","","","","","","","","","","","","","","","","","","",""
"","","","","","","","","","","","html-button-response","204","2.0.0","708647","666b096ade3d4f774c629d3e","4","2","1203","","","","","","","","","<img src= ""rock_img/I_Andesite_03.jpg"" style=""width:8cm; height:5.73cm;""><p>What type of rock is this?</p>","3","class_response","1","test","33","Gabbro","Andesite","03","false","4","1","","","","","","","","","","","","","","","","","",""
"","","","","","","","","","","","html-keyboard-response","205","2.0.0","709151","666b096ade3d4f774c629d3e","4","2","null","","","","","","","","","<p style='font-size: 30px;'><strong>Okay</strong></p>","null","neutral_feedback","1","test","33","","","","","","","","","","","","","","","","","","","","","","","",""
"","","","","","","","","","","","html-button-response","206","2.0.0","710446","666b096ade3d4f774c629d3e","4","2","1294","","","","","","","","","<img src= ""rock_img/I_Pegmatite_16.jpg"" style=""width:8cm; height:5.8cm;""><p>What type of rock is this?</p>","5","class_response","1","test","34","Pegmatite","Pegmatite","16","true","6","6","","","","","","","","","","","","","","","","","",""
"","","","","","","","","","","","html-keyboard-response","207","2.0.0","710957","666b096ade3d4f774c629d3e","4","2","null","","","","","","","","","<p style='font-size: 30px;'><strong>Okay</strong></p>","null","neutral_feedback","1","test","34","","","","","","","","","","","","","","","","","","","","","","","",""
"","","","","","","","","","","","html-button-response","208","2.0.0","715662","666b096ade3d4f774c629d3e","4","2","4705","","","","","","","","","<img src= ""rock_img/I_Andesite_06.jpg"" style=""width:8cm; height:6.840000000000001cm;""><p>What type of rock is this?</p>","0","class_response","1","test","35","Andesite","Andesite","06","true","1","1","","","","","","","","","","","","","","","","","",""
"","","","","","","","","","","","html-keyboard-response","209","2.0.0","716178","666b096ade3d4f774c629d3e","4","2","null","","","","","","","","","<p style='font-size: 30px;'><strong>Okay</strong></p>","null","neutral_feedback","1","test","35","","","","","","","","","","","","","","","","","","","","","","","",""
"","","","","","","","","","","","html-button-response","210","2.0.0","717040","666b096ade3d4f774c629d3e","4","2","860","","","","","","","","","<img src= ""rock_img/I_Diorite_15.jpg"" style=""width:8cm; height:5.54cm;""><p>What type of rock is this?</p>","4","class_response","1","test","36","Obsidian","Diorite","15","false","5","3","","","","","","","","","","","","","","","","","",""
"","","","","","","","","","","","html-keyboard-response","211","2.0.0","717542","666b096ade3d4f774c629d3e","4","2","null","","","","","","","","","<p style='font-size: 30px;'><strong>Okay</strong></p>","null","neutral_feedback","1","test","36","","","","","","","","","","","","","","","","","","","","","","","",""
"","","","","","","","","","","","html-button-response","212","2.0.0","718695","666b096ade3d4f774c629d3e","4","2","1152","","","","","","","","","<img src= ""rock_img/I_Gabbro_03.jpg"" style=""width:8cm; height:8.52cm;""><p>What type of rock is this?</p>","4","class_response","1","test","37","Obsidian","Gabbro","03","false","5","4","","","","","","","","","","","","","","","","","",""
"","","","","","","","","","","","html-keyboard-response","213","2.0.0","719197","666b096ade3d4f774c629d3e","4","2","null","","","","","","","","","<p style='font-size: 30px;'><strong>Okay</strong></p>","null","neutral_feedback","1","test","37","","","","","","","","","","","","","","","","","","","","","","","",""
"","","","","","","","","","","","html-button-response","214","2.0.0","720183","666b096ade3d4f774c629d3e","4","2","985","","","","","","","","","<img src= ""rock_img/I_Andesite_10.jpg"" style=""width:8cm; height:4.16cm;""><p>What type of rock is this?</p>","3","class_response","1","test","38","Gabbro","Andesite","10","false","4","1","","","","","","","","","","","","","","","","","",""
"","","","","","","","","","","","html-keyboard-response","215","2.0.0","720693","666b096ade3d4f774c629d3e","4","2","null","","","","","","","","","<p style='font-size: 30px;'><strong>Okay</strong></p>","null","neutral_feedback","1","test","38","","","","","","","","","","","","","","","","","","","","","","","",""
"","","","","","","","","","","","html-button-response","216","2.0.0","726503","666b096ade3d4f774c629d3e","4","2","5809","","","","","","","","","<img src= ""rock_img/I_Peridotite_13.jpg"" style=""width:8cm; height:7.58cm;""><p>What type of rock is this?</p>","5","class_response","1","test","39","Pegmatite","Peridotite","13","false","6","7","","","","","","","","","","","","","","","","","",""
"","","","","","","","","","","","html-keyboard-response","217","2.0.0","727009","666b096ade3d4f774c629d3e","4","2","null","","","","","","","","","<p style='font-size: 30px;'><strong>Okay</strong></p>","null","neutral_feedback","1","test","39","","","","","","","","","","","","","","","","","","","","","","","",""
"","","","","","","","","","","","html-button-response","218","2.0.0","728022","666b096ade3d4f774c629d3e","4","2","1013","","","","","","","","","<img src= ""rock_img/I_Basalt_06.jpg"" style=""width:8cm; height:7.06cm;""><p>What type of rock is this?</p>","1","class_response","1","test","40","Basalt","Basalt","06","true","2","2","","","","","","","","","","","","","","","","","",""
"","","","","","","","","","","","html-keyboard-response","219","2.0.0","728524","666b096ade3d4f774c629d3e","4","2","null","","","","","","","","","<p style='font-size: 30px;'><strong>Okay</strong></p>","null","neutral_feedback","1","test","40","","","","","","","","","","","","","","","","","","","","","","","",""
"","","","","","","","","","","","html-button-response","220","2.0.0","730902","666b096ade3d4f774c629d3e","4","2","2377","","","","","","","","","<img src= ""rock_img/I_Pegmatite_09.jpg"" style=""width:8cm; height:4.03cm;""><p>What type of rock is this?</p>","6","class_response","1","test","41","Peridotite","Pegmatite","09","false","7","6","","","","","","","","","","","","","","","","","",""
"","","","","","","","","","","","html-keyboard-response","221","2.0.0","731404","666b096ade3d4f774c629d3e","4","2","null","","","","","","","","","<p style='font-size: 30px;'><strong>Okay</strong></p>","null","neutral_feedback","1","test","41","","","","","","","","","","","","","","","","","","","","","","","",""
"","","","","","","","","","","","html-button-response","222","2.0.0","734166","666b096ade3d4f774c629d3e","4","2","2761","","","","","","","","","<img src= ""rock_img/I_Pumice_13.jpg"" style=""width:8cm; height:8.200000000000001cm;""><p>What type of rock is this?</p>","2","class_response","1","test","42","Diorite","Pumice","13","false","3","8","","","","","","","","","","","","","","","","","",""
"","","","","","","","","","","","html-keyboard-response","223","2.0.0","734669","666b096ade3d4f774c629d3e","4","2","null","","","","","","","","","<p style='font-size: 30px;'><strong>Okay</strong></p>","null","neutral_feedback","1","test","42","","","","","","","","","","","","","","","","","","","","","","","",""
"","","","","","","","","","","","html-button-response","224","2.0.0","736479","666b096ade3d4f774c629d3e","4","2","1809","","","","","","","","","<img src= ""rock_img/I_Pumice_06.jpg"" style=""width:8cm; height:6.9399999999999995cm;""><p>What type of rock is this?</p>","1","class_response","1","test","43","Basalt","Pumice","06","false","2","8","","","","","","","","","","","","","","","","","",""
"","","","","","","","","","","","html-keyboard-response","225","2.0.0","736980","666b096ade3d4f774c629d3e","4","2","null","","","","","","","","","<p style='font-size: 30px;'><strong>Okay</strong></p>","null","neutral_feedback","1","test","43","","","","","","","","","","","","","","","","","","","","","","","",""
"","","","","","","","","","","","html-button-response","226","2.0.0","738255","666b096ade3d4f774c629d3e","4","2","1274","","","","","","","","","<img src= ""rock_img/I_Obsidian_05.jpg"" style=""width:8cm; height:6.33cm;""><p>What type of rock is this?</p>","5","class_response","1","test","44","Pegmatite","Obsidian","05","false","6","5","","","","","","","","","","","","","","","","","",""
"","","","","","","","","","","","html-keyboard-response","227","2.0.0","738762","666b096ade3d4f774c629d3e","4","2","null","","","","","","","","","<p style='font-size: 30px;'><strong>Okay</strong></p>","null","neutral_feedback","1","test","44","","","","","","","","","","","","","","","","","","","","","","","",""
"","","","","","","","","","","","html-button-response","228","2.0.0","740015","666b096ade3d4f774c629d3e","4","2","1251","","","","","","","","","<img src= ""rock_img/I_Diorite_06.jpg"" style=""width:8cm; height:6.03cm;""><p>What type of rock is this?</p>","6","class_response","1","test","45","Peridotite","Diorite","06","false","7","3","","","","","","","","","","","","","","","","","",""
"","","","","","","","","","","","html-keyboard-response","229","2.0.0","740515","666b096ade3d4f774c629d3e","4","2","null","","","","","","","","","<p style='font-size: 30px;'><strong>Okay</strong></p>","null","neutral_feedback","1","test","45","","","","","","","","","","","","","","","","","","","","","","","",""
"","","","","","","","","","","","html-button-response","230","2.0.0","741487","666b096ade3d4f774c629d3e","4","2","970","","","","","","","","","<img src= ""rock_img/I_Peridotite_07.jpg"" style=""width:8cm; height:4.83cm;""><p>What type of rock is this?</p>","3","class_response","1","test","46","Gabbro","Peridotite","07","false","4","7","","","","","","","","","","","","","","","","","",""
"","","","","","","","","","","","html-keyboard-response","231","2.0.0","741990","666b096ade3d4f774c629d3e","4","2","null","","","","","","","","","<p style='font-size: 30px;'><strong>Okay</strong></p>","null","neutral_feedback","1","test","46","","","","","","","","","","","","","","","","","","","","","","","",""
"","","","","","","","","","","","html-button-response","232","2.0.0","743183","666b096ade3d4f774c629d3e","4","2","1192","","","","","","","","","<img src= ""rock_img/I_Pumice_16.jpg"" style=""width:8cm; height:6.79cm;""><p>What type of rock is this?</p>","1","class_response","1","test","47","Basalt","Pumice","16","false","2","8","","","","","","","","","","","","","","","","","",""
"","","","","","","","","","","","html-keyboard-response","233","2.0.0","743695","666b096ade3d4f774c629d3e","4","2","null","","","","","","","","","<p style='font-size: 30px;'><strong>Okay</strong></p>","null","neutral_feedback","1","test","47","","","","","","","","","","","","","","","","","","","","","","","",""
"","","","","","","","","","","","html-button-response","234","2.0.0","745304","666b096ade3d4f774c629d3e","4","2","1607","","","","","","","","","<img src= ""rock_img/I_Obsidian_06.jpg"" style=""width:8cm; height:6.8cm;""><p>What type of rock is this?</p>","5","class_response","1","test","48","Pegmatite","Obsidian","06","false","6","5","","","","","","","","","","","","","","","","","",""
"","","","","","","","","","","","html-keyboard-response","235","2.0.0","745805","666b096ade3d4f774c629d3e","4","2","null","","","","","","","","","<p style='font-size: 30px;'><strong>Okay</strong></p>","null","neutral_feedback","1","test","48","","","","","","","","","","","","","","","","","","","","","","","",""
"","","","","","","","","","","","html-button-response","236","2.0.0","990655","666b096ade3d4f774c629d3e","4","2","","","","","","","","","","","","cycle_feedback","","","","","","","","","","","","","","","","","","","","","","","","13541.5","231303.69999999553","",""
"","","","","","","","","","","","html-button-response","238","2.0.0","993815","666b096ade3d4f774c629d3e","4","2","3158","","","","","","","","","","0","start_train","","","","","","","","","","","","","","","","","","","","","","","","","","",""
"","","","","","","","","","","","html-button-response","240","2.0.0","1007087","666b096ade3d4f774c629d3e","4","2","13271","","","","","","","","","<img src= ""rock_img/I_Basalt_01.jpg"" style=""width:8cm; height:7.880000000000001cm;""><p>What type of rock is this?</p>","1","class_response","2","train","1","Basalt","Basalt","01","true","2","2","","","","","","","","","","","","","","","","","",""
"","","","","","","","","","","","html-button-response","241","2.0.0","1009551","666b096ade3d4f774c629d3e","4","2","2463","","","","","","","","","<img src= rock_img/I_Basalt_01.jpg style=""width:8cm; height:7.880000000000001cm;""><p style='font-size: 30px; color: green;'><strong>Correct!</strong></p><p style='font-size: 30px;'><strong>This rock is basalt</strong></p>","0","corr_feedback","2","train","1","","","","","","","","","","","","","","","","","","","","","","","",""
"","","","","","","","","","","","html-button-response","242","2.0.0","1011575","666b096ade3d4f774c629d3e","4","2","2023","","","","","","","","","<img src= ""rock_img/I_Gabbro_01.jpg"" style=""width:8cm; height:5.21cm;""><p>What type of rock is this?</p>","3","class_response","2","train","2","Gabbro","Gabbro","01","true","4","4","","","","","","","","","","","","","","","","","",""
"","","","","","","","","","","","html-button-response","243","2.0.0","1013079","666b096ade3d4f774c629d3e","4","2","1503","","","","","","","","","<img src= rock_img/I_Gabbro_01.jpg style=""width:8cm; height:5.21cm;""><p style='font-size: 30px; color: green;'><strong>Correct!</strong></p><p style='font-size: 30px;'><strong>This rock is gabbro</strong></p>","0","corr_feedback","2","train","2","","","","","","","","","","","","","","","","","","","","","","","",""
"","","","","","","","","","","","html-button-response","244","2.0.0","1014247","666b096ade3d4f774c629d3e","4","2","1166","","","","","","","","","<img src= ""rock_img/I_Pumice_05.jpg"" style=""width:8cm; height:7.25cm;""><p>What type of rock is this?</p>","7","class_response","2","train","3","Pumice","Pumice","05","true","8","8","","","","","","","","","","","","","","","","","",""
"","","","","","","","","","","","html-button-response","245","2.0.0","1015343","666b096ade3d4f774c629d3e","4","2","1095","","","","","","","","","<img src= rock_img/I_Pumice_05.jpg style=""width:8cm; height:7.25cm;""><p style='font-size: 30px; color: green;'><strong>Correct!</strong></p><p style='font-size: 30px;'><strong>This rock is pumice</strong></p>","0","corr_feedback","2","train","3","","","","","","","","","","","","","","","","","","","","","","","",""
"","","","","","","","","","","","html-button-response","246","2.0.0","1026087","666b096ade3d4f774c629d3e","4","2","10743","","","","","","","","","<img src= ""rock_img/I_Andesite_07.jpg"" style=""width:8cm; height:5.93cm;""><p>What type of rock is this?</p>","0","class_response","2","train","4","Andesite","Andesite","07","true","1","1","","","","","","","","","","","","","","","","","",""
"","","","","","","","","","","","html-button-response","247","2.0.0","1035447","666b096ade3d4f774c629d3e","4","2","9359","","","","","","","","","<img src= rock_img/I_Andesite_07.jpg style=""width:8cm; height:5.93cm;""><p style='font-size: 30px; color: green;'><strong>Correct!</strong></p><p style='font-size: 30px;'><strong>This rock is andesite</strong></p>","0","corr_feedback","2","train","4","","","","","","","","","","","","","","","","","","","","","","","",""
"","","","","","","","","","","","html-button-response","248","2.0.0","1037703","666b096ade3d4f774c629d3e","4","2","2254","","","","","","","","","<img src= ""rock_img/I_Gabbro_13.jpg"" style=""width:8cm; height:5.08cm;""><p>What type of rock is this?</p>","3","class_response","2","train","5","Gabbro","Gabbro","13","true","4","4","","","","","","","","","","","","","","","","","",""
"","","","","","","","","","","","html-button-response","249","2.0.0","1039167","666b096ade3d4f774c629d3e","4","2","1463","","","","","","","","","<img src= rock_img/I_Gabbro_13.jpg style=""width:8cm; height:5.08cm;""><p style='font-size: 30px; color: green;'><strong>Correct!</strong></p><p style='font-size: 30px;'><strong>This rock is gabbro</strong></p>","0","corr_feedback","2","train","5","","","","","","","","","","","","","","","","","","","","","","","",""
"","","","","","","","","","","","html-button-response","250","2.0.0","1046583","666b096ade3d4f774c629d3e","4","2","7415","","","","","","","","","<img src= ""rock_img/I_Pumice_15.jpg"" style=""width:8cm; height:7.86cm;""><p>What type of rock is this?</p>","4","class_response","2","train","6","Obsidian","Pumice","15","false","5","8","","","","","","","","","","","","","","","","","",""
"","","","","","","","","","","","html-button-response","251","2.0.0","1048591","666b096ade3d4f774c629d3e","4","2","2007","","","","","","","","","<img src= rock_img/I_Pumice_15.jpg style=""width:8cm; height:7.86cm;""><p style='font-size: 30px; color: red;'><strong>Incorrect!</strong></p><p style='font-size: 30px;'><strong>This rock is pumice</strong></p>","0","corr_feedback","2","train","6","","","","","","","","","","","","","","","","","","","","","","","",""
"","","","","","","","","","","","html-button-response","252","2.0.0","1051615","666b096ade3d4f774c629d3e","4","2","3023","","","","","","","","","<img src= ""rock_img/I_Obsidian_14.jpg"" style=""width:8cm; height:7.64cm;""><p>What type of rock is this?</p>","1","class_response","2","train","7","Basalt","Obsidian","14","false","2","5","","","","","","","","","","","","","","","","","",""
"","","","","","","","","","","","html-button-response","253","2.0.0","1053096","666b096ade3d4f774c629d3e","4","2","1480","","","","","","","","","<img src= rock_img/I_Obsidian_14.jpg style=""width:8cm; height:7.64cm;""><p style='font-size: 30px; color: red;'><strong>Incorrect!</strong></p><p style='font-size: 30px;'><strong>This rock is obsidian</strong></p>","0","corr_feedback","2","train","7","","","","","","","","","","","","","","","","","","","","","","","",""
"","","","","","","","","","","","html-button-response","254","2.0.0","1060431","666b096ade3d4f774c629d3e","4","2","7334","","","","","","","","","<img src= ""rock_img/I_Andesite_16.jpg"" style=""width:8cm; height:6.010000000000001cm;""><p>What type of rock is this?</p>","3","class_response","2","train","8","Gabbro","Andesite","16","false","4","1","","","","","","","","","","","","","","","","","",""
"","","","","","","","","","","","html-button-response","255","2.0.0","1061655","666b096ade3d4f774c629d3e","4","2","1223","","","","","","","","","<img src= rock_img/I_Andesite_16.jpg style=""width:8cm; height:6.010000000000001cm;""><p style='font-size: 30px; color: red;'><strong>Incorrect!</strong></p><p style='font-size: 30px;'><strong>This rock is andesite</strong></p>","0","corr_feedback","2","train","8","","","","","","","","","","","","","","","","","","","","","","","",""
"","","","","","","","","","","","html-button-response","256","2.0.0","1066199","666b096ade3d4f774c629d3e","4","2","4543","","","","","","","","","<img src= ""rock_img/I_Peridotite_06.jpg"" style=""width:8cm; height:7.53cm;""><p>What type of rock is this?</p>","6","class_response","2","train","9","Peridotite","Peridotite","06","true","7","7","","","","","","","","","","","","","","","","","",""
"","","","","","","","","","","","html-button-response","257","2.0.0","1066983","666b096ade3d4f774c629d3e","4","2","783","","","","","","","","","<img src= rock_img/I_Peridotite_06.jpg style=""width:8cm; height:7.53cm;""><p style='font-size: 30px; color: green;'><strong>Correct!</strong></p><p style='font-size: 30px;'><strong>This rock is peridotite</strong></p>","0","corr_feedback","2","train","9","","","","","","","","","","","","","","","","","","","","","","","",""
"","","","","","","","","","","","html-button-response","258","2.0.0","1068375","666b096ade3d4f774c629d3e","4","2","1391","","","","","","","","","<img src= ""rock_img/I_Basalt_09.jpg"" style=""width:8cm; height:6.2cm;""><p>What type of rock is this?</p>","1","class_response","2","train","10","Basalt","Basalt","09","true","2","2","","","","","","","","","","","","","","","","","",""
"","","","","","","","","","","","html-button-response","259","2.0.0","1069223","666b096ade3d4f774c629d3e","4","2","847","","","","","","","","","<img src= rock_img/I_Basalt_09.jpg style=""width:8cm; height:6.2cm;""><p style='font-size: 30px; color: green;'><strong>Correct!</strong></p><p style='font-size: 30px;'><strong>This rock is basalt</strong></p>","0","corr_feedback","2","train","10","","","","","","","","","","","","","","","","","","","","","","","",""
"","","","","","","","","","","","html-button-response","260","2.0.0","1070191","666b096ade3d4f774c629d3e","4","2","967","","","","","","","","","<img src= ""rock_img/I_Pegmatite_03.jpg"" style=""width:8cm; height:5.239999999999999cm;""><p>What type of rock is this?</p>","5","class_response","2","train","11","Pegmatite","Pegmatite","03","true","6","6","","","","","","","","","","","","","","","","","",""
"","","","","","","","","","","","html-button-response","261","2.0.0","1070880","666b096ade3d4f774c629d3e","4","2","687","","","","","","","","","<img src= rock_img/I_Pegmatite_03.jpg style=""width:8cm; height:5.239999999999999cm;""><p style='font-size: 30px; color: green;'><strong>Correct!</strong></p><p style='font-size: 30px;'><strong>This rock is pegmatite</strong></p>","0","corr_feedback","2","train","11","","","","","","","","","","","","","","","","","","","","","","","",""
"","","","","","","","","","","","html-button-response","262","2.0.0","1074327","666b096ade3d4f774c629d3e","4","2","3446","","","","","","","","","<img src= ""rock_img/I_Diorite_14.jpg"" style=""width:8cm; height:5.71cm;""><p>What type of rock is this?</p>","4","class_response","2","train","12","Obsidian","Diorite","14","false","5","3","","","","","","","","","","","","","","","","","",""
"","","","","","","","","","","","html-button-response","263","2.0.0","1075167","666b096ade3d4f774c629d3e","4","2","839","","","","","","","","","<img src= rock_img/I_Diorite_14.jpg style=""width:8cm; height:5.71cm;""><p style='font-size: 30px; color: red;'><strong>Incorrect!</strong></p><p style='font-size: 30px;'><strong>This rock is diorite</strong></p>","0","corr_feedback","2","train","12","","","","","","","","","","","","","","","","","","","","","","","",""
"","","","","","","","","","","","html-button-response","265","2.0.0","1076463","666b096ade3d4f774c629d3e","4","2","1295","","","","","","","","","","0","start_train","","","","","","","","","","","","","","","","","","","","","","","","","","",""
"","","","","","","","","","","","html-button-response","266","2.0.0","1085815","666b096ade3d4f774c629d3e","4","2","","","","","","","","","","","","cat_selection","2","train","1","","","","","","","3599.0999999940395","5752.10000000149","1","3","Pegmatite","Peridotite","","","","","","","","","","","",""
"","","","","","","","","","","","paired-cat-display","267","1.0.0","1116120","666b096ade3d4f774c629d3e","4","2","","","","","","","","","","","","paired_cat_display","2","train","1","","","","","","","","","","","","","white rock like pebbles within","black speckles rough appearance","14045.70000000298","16255.19999999553","","","","","","","",""
"","","","","","","","","","","","html-button-response","268","2.0.0","1142488","666b096ade3d4f774c629d3e","4","2","","","","","","","","","","","","cat_selection","2","train","2","","","","","","","23647.19999999553","2720","4","8","Andesite","Diorite","","","","","","","","","","","",""
"","","","","","","","","","","","paired-cat-display","269","1.0.0","1166639","666b096ade3d4f774c629d3e","4","2","","","","","","","","","","","","paired_cat_display","2","train","2","","","","","","","","","","","","","","","8013.79999999702","16135.10000000149","bumpy and rough","","","","","","porous and dry",""
"","","","","","","","","","","","html-button-response","270","2.0.0","1172560","666b096ade3d4f774c629d3e","4","2","","","","","","","","","","","","cat_selection","2","train","3","","","","","","","5343.5","576.1000000014901","5","2","Gabbro","Pumice","","","","","","","","","","","",""
"","","","","","","","","","","","paired-cat-display","271","1.0.0","1196144","666b096ade3d4f774c629d3e","4","2","","","","","","","","","","","","paired_cat_display","2","train","3","","","","","","","","","","","","","","","5789.80000000447","17791.10000000149","","raw and gray and smooth","","","","","","shiny and black"
"","","","","","","","","","","","html-button-response","273","2.0.0","1199783","666b096ade3d4f774c629d3e","4","2","3639","","","","","","","","","","0","start_test","","","","","","","","","","","","","","","","","","","","","","","","","","",""
"","","","","","","","","","","","html-button-response","274","2.0.0","1230776","666b096ade3d4f774c629d3e","4","2","30991","","","","","","","","","<img src= ""rock_img/I_Peridotite_07.jpg"" style=""width:8cm; height:4.83cm;""><p>What type of rock is this?</p>","3","class_response","2","test","1","Gabbro","Peridotite","07","false","4","7","","","","","","","","","","","","","","","","","",""
"","","","","","","","","","","","html-keyboard-response","275","2.0.0","1231277","666b096ade3d4f774c629d3e","4","2","null","","","","","","","","","<p style='font-size: 30px;'><strong>Okay</strong></p>","null","neutral_feedback","2","test","1","","","","","","","","","","","","","","","","","","","","","","","",""
"","","","","","","","","","","","html-button-response","276","2.0.0","1252784","666b096ade3d4f774c629d3e","4","2","21505","","","","","","","","","<img src= ""rock_img/I_Diorite_15.jpg"" style=""width:8cm; height:5.54cm;""><p>What type of rock is this?</p>","2","class_response","2","test","2","Diorite","Diorite","15","true","3","3","","","","","","","","","","","","","","","","","",""
"","","","","","","","","","","","html-keyboard-response","277","2.0.0","1253294","666b096ade3d4f774c629d3e","4","2","null","","","","","","","","","<p style='font-size: 30px;'><strong>Okay</strong></p>","null","neutral_feedback","2","test","2","","","","","","","","","","","","","","","","","","","","","","","",""
"","","","","","","","","","","","html-button-response","278","2.0.0","1272752","666b096ade3d4f774c629d3e","4","2","19457","","","","","","","","","<img src= ""rock_img/I_Basalt_06.jpg"" style=""width:8cm; height:7.06cm;""><p>What type of rock is this?</p>","1","class_response","2","test","3","Basalt","Basalt","06","true","2","2","","","","","","","","","","","","","","","","","",""
