"width","height","webaudio","browser","browser_version","mobile","os","fullscreen","vsync_rate","webcam","microphone","trial_type","trial_index","plugin_version","time_elapsed","subjID","condition","stimID","rt","url","success","value","timeout","failed_images","failed_audio","failed_video","view_history","stimulus","response","trialType","cycle","phase","trial","resp","cat","token","corr","resp_num","cat_num","rt_ref","rt_paired","ref_cat_num","paired_cat_num","ref_cat","paired_cat","text_Peridotite","text_Pegmatite","time_obs","time_resp","text_Gabbro","text_Basalt","time_fb1","time_fb2","text_Andesite","text_Diorite","text_Pumice"
"2560","1271","true","chrome","131.0.0","false","Windows 10","true","147.06","true","true","browser-check","0","2.0.0","414","5f765a3c8a6ec010370c9cc1","4","47","","","","","","","","","","","","","","","","","","","","","","","","","","","","","","","","","","","","","",""
"","","","","","","","","","","","external-html","1","2.0.0","15994","5f765a3c8a6ec010370c9cc1","4","47","15514","consent_form.html","","","","","","","","","","","","","","","","","","","","","","","","","","","","","","","","","","","",""
"","","","","","","","","","","","fullscreen","2","2.0.0","20718","5f765a3c8a6ec010370c9cc1","4","47","3718","","true","","","","","","","","","","","","","","","","","","","","","","","","","","","","","","","","","","",""
"","","","","","","","","","","","call-function","3","2.0.0","20719","5f765a3c8a6ec010370c9cc1","4","47","","","","{}","","","","","","","","","","","","","","","","","","","","","","","","","","","","","","","","","",""
"","","","","","","","","","","","preload","4","2.0.0","21867","5f765a3c8a6ec010370c9cc1","4","47","","","true","","false","[]","[]","[]","","","","","","","","","","","","","","","","","","","","","","","","","","","","","",""
"","","","","","","","","","","","instructions","5","2.0.0","96583","5f765a3c8a6ec010370c9cc1","4","47","74715","","","","","","","","[{""page_index"":0,""viewing_time"":6616},{""page_index"":1,""viewing_time"":32304},{""page_index"":2,""viewing_time"":35794}]","","","","","","","","","","","","","","","","","","","","","","","","","","","","",""
"","","","","","","","","","","","html-button-response","6","2.0.0","108455","5f765a3c8a6ec010370c9cc1","4","47","11871","","","","","","","","","","0","start_test","","","","","","","","","","","","","","","","","","","","","","","","","",""
"","","","","","","","","","","","html-button-response","7","2.0.0","151557","5f765a3c8a6ec010370c9cc1","4","47","43100","","","","","","","","","<img src= ""rock_img/I_Gabbro_10.jpg"" style=""width:8cm; height:5.680000000000001cm;""><p>What type of rock is this?</p>","1","class_response","0","test","1","Basalt","Gabbro","10","false","2","4","","","","","","","","","","","","","","","","",""
"","","","","","","","","","","","html-keyboard-response","8","2.0.0","152062","5f765a3c8a6ec010370c9cc1","4","47","null","","","","","","","","","<p style='font-size: 30px;'><strong>Okay</strong></p>","null","neutral_feedback","0","test","1","","","","","","","","","","","","","","","","","","","","","","",""
"","","","","","","","","","","","html-button-response","9","2.0.0","158905","5f765a3c8a6ec010370c9cc1","4","47","6841","","","","","","","","","<img src= ""rock_img/I_Diorite_08.jpg"" style=""width:8cm; height:6.37cm;""><p>What type of rock is this?</p>","0","class_response","0","test","2","Andesite","Diorite","08","false","1","3","","","","","","","","","","","","","","","","",""
"","","","","","","","","","","","html-keyboard-response","10","2.0.0","159419","5f765a3c8a6ec010370c9cc1","4","47","null","","","","","","","","","<p style='font-size: 30px;'><strong>Okay</strong></p>","null","neutral_feedback","0","test","2","","","","","","","","","","","","","","","","","","","","","","",""
"","","","","","","","","","","","html-button-response","11","2.0.0","168715","5f765a3c8a6ec010370c9cc1","4","47","9295","","","","","","","","","<img src= ""rock_img/I_Basalt_11.jpg"" style=""width:8cm; height:5.359999999999999cm;""><p>What type of rock is this?</p>","1","class_response","0","test","3","Basalt","Basalt","11","true","2","2","","","","","","","","","","","","","","","","",""
"","","","","","","","","","","","html-keyboard-response","12","2.0.0","169221","5f765a3c8a6ec010370c9cc1","4","47","null","","","","","","","","","<p style='font-size: 30px;'><strong>Okay</strong></p>","null","neutral_feedback","0","test","3","","","","","","","","","","","","","","","","","","","","","","",""
"","","","","","","","","","","","html-button-response","13","2.0.0","172916","5f765a3c8a6ec010370c9cc1","4","47","3694","","","","","","","","","<img src= ""rock_img/I_Obsidian_05.jpg"" style=""width:8cm; height:6.33cm;""><p>What type of rock is this?</p>","4","class_response","0","test","4","Obsidian","Obsidian","05","true","5","5","","","","","","","","","","","","","","","","",""
"","","","","","","","","","","","html-keyboard-response","14","2.0.0","173417","5f765a3c8a6ec010370c9cc1","4","47","null","","","","","","","","","<p style='font-size: 30px;'><strong>Okay</strong></p>","null","neutral_feedback","0","test","4","","","","","","","","","","","","","","","","","","","","","","",""
"","","","","","","","","","","","html-button-response","15","2.0.0","181814","5f765a3c8a6ec010370c9cc1","4","47","8396","","","","","","","","","<img src= ""rock_img/I_Diorite_14.jpg"" style=""width:8cm; height:5.71cm;""><p>What type of rock is this?</p>","2","class_response","0","test","5","Diorite","Diorite","14","true","3","3","","","","","","","","","","","","","","","","",""
"","","","","","","","","","","","html-keyboard-response","16","2.0.0","182326","5f765a3c8a6ec010370c9cc1","4","47","null","","","","","","","","","<p style='font-size: 30px;'><strong>Okay</strong></p>","null","neutral_feedback","0","test","5","","","","","","","","","","","","","","","","","","","","","","",""
"","","","","","","","","","","","html-button-response","17","2.0.0","189545","5f765a3c8a6ec010370c9cc1","4","47","7217","","","","","","","","","<img src= ""rock_img/I_Pegmatite_07.jpg"" style=""width:8cm; height:6.7cm;""><p>What type of rock is this?</p>","6","class_response","0","test","6","Peridotite","Pegmatite","07","false","7","6","","","","","","","","","","","","","","","","",""
"","","","","","","","","","","","html-keyboard-response","18","2.0.0","190046","5f765a3c8a6ec010370c9cc1","4","47","null","","","","","","","","","<p style='font-size: 30px;'><strong>Okay</strong></p>","null","neutral_feedback","0","test","6","","","","","","","","","","","","","","","","","","","","","","",""
"","","","","","","","","","","","html-button-response","19","2.0.0","194897","5f765a3c8a6ec010370c9cc1","4","47","4850","","","","","","","","","<img src= ""rock_img/I_Pegmatite_05.jpg"" style=""width:8cm; height:7.300000000000001cm;""><p>What type of rock is this?</p>","5","class_response","0","test","7","Pegmatite","Pegmatite","05","true","6","6","","","","","","","","","","","","","","","","",""
"","","","","","","","","","","","html-keyboard-response","20","2.0.0","195406","5f765a3c8a6ec010370c9cc1","4","47","null","","","","","","","","","<p style='font-size: 30px;'><strong>Okay</strong></p>","null","neutral_feedback","0","test","7","","","","","","","","","","","","","","","","","","","","","","",""
"","","","","","","","","","","","html-button-response","21","2.0.0","207972","5f765a3c8a6ec010370c9cc1","4","47","12565","","","","","","","","","<img src= ""rock_img/I_Andesite_09.jpg"" style=""width:8cm; height:6cm;""><p>What type of rock is this?</p>","6","class_response","0","test","8","Peridotite","Andesite","09","false","7","1","","","","","","","","","","","","","","","","",""
"","","","","","","","","","","","html-keyboard-response","22","2.0.0","208473","5f765a3c8a6ec010370c9cc1","4","47","null","","","","","","","","","<p style='font-size: 30px;'><strong>Okay</strong></p>","null","neutral_feedback","0","test","8","","","","","","","","","","","","","","","","","","","","","","",""
"","","","","","","","","","","","html-button-response","23","2.0.0","212239","5f765a3c8a6ec010370c9cc1","4","47","3765","","","","","","","","","<img src= ""rock_img/I_Gabbro_15.jpg"" style=""width:8cm; height:6.29cm;""><p>What type of rock is this?</p>","1","class_response","0","test","9","Basalt","Gabbro","15","false","2","4","","","","","","","","","","","","","","","","",""
"","","","","","","","","","","","html-keyboard-response","24","2.0.0","212752","5f765a3c8a6ec010370c9cc1","4","47","null","","","","","","","","","<p style='font-size: 30px;'><strong>Okay</strong></p>","null","neutral_feedback","0","test","9","","","","","","","","","","","","","","","","","","","","","","",""
"","","","","","","","","","","","html-button-response","25","2.0.0","216301","5f765a3c8a6ec010370c9cc1","4","47","3547","","","","","","","","","<img src= ""rock_img/I_Obsidian_09.jpg"" style=""width:8cm; height:5cm;""><p>What type of rock is this?</p>","4","class_response","0","test","10","Obsidian","Obsidian","09","true","5","5","","","","","","","","","","","","","","","","",""
"","","","","","","","","","","","html-keyboard-response","26","2.0.0","216807","5f765a3c8a6ec010370c9cc1","4","47","null","","","","","","","","","<p style='font-size: 30px;'><strong>Okay</strong></p>","null","neutral_feedback","0","test","10","","","","","","","","","","","","","","","","","","","","","","",""
"","","","","","","","","","","","html-button-response","27","2.0.0","220254","5f765a3c8a6ec010370c9cc1","4","47","3446","","","","","","","","","<img src= ""rock_img/I_Peridotite_04.jpg"" style=""width:8cm; height:6.680000000000001cm;""><p>What type of rock is this?</p>","6","class_response","0","test","11","Peridotite","Peridotite","04","true","7","7","","","","","","","","","","","","","","","","",""
"","","","","","","","","","","","html-keyboard-response","28","2.0.0","220769","5f765a3c8a6ec010370c9cc1","4","47","null","","","","","","","","","<p style='font-size: 30px;'><strong>Okay</strong></p>","null","neutral_feedback","0","test","11","","","","","","","","","","","","","","","","","","","","","","",""
"","","","","","","","","","","","html-button-response","29","2.0.0","223893","5f765a3c8a6ec010370c9cc1","4","47","3122","","","","","","","","","<img src= ""rock_img/I_Peridotite_07.jpg"" style=""width:8cm; height:4.83cm;""><p>What type of rock is this?</p>","6","class_response","0","test","12","Peridotite","Peridotite","07","true","7","7","","","","","","","","","","","","","","","","",""
"","","","","","","","","","","","html-keyboard-response","30","2.0.0","224399","5f765a3c8a6ec010370c9cc1","4","47","null","","","","","","","","","<p style='font-size: 30px;'><strong>Okay</strong></p>","null","neutral_feedback","0","test","12","","","","","","","","","","","","","","","","","","","","","","",""
"","","","","","","","","","","","html-button-response","31","2.0.0","226896","5f765a3c8a6ec010370c9cc1","4","47","2496","","","","","","","","","<img src= ""rock_img/I_Basalt_02.jpg"" style=""width:8cm; height:6.45cm;""><p>What type of rock is this?</p>","1","class_response","0","test","13","Basalt","Basalt","02","true","2","2","","","","","","","","","","","","","","","","",""
"","","","","","","","","","","","html-keyboard-response","32","2.0.0","227397","5f765a3c8a6ec010370c9cc1","4","47","null","","","","","","","","","<p style='font-size: 30px;'><strong>Okay</strong></p>","null","neutral_feedback","0","test","13","","","","","","","","","","","","","","","","","","","","","","",""
"","","","","","","","","","","","html-button-response","33","2.0.0","233992","5f765a3c8a6ec010370c9cc1","4","47","6594","","","","","","","","","<img src= ""rock_img/I_Obsidian_04.jpg"" style=""width:8cm; height:6.930000000000001cm;""><p>What type of rock is this?</p>","4","class_response","0","test","14","Obsidian","Obsidian","04","true","5","5","","","","","","","","","","","","","","","","",""
"","","","","","","","","","","","html-keyboard-response","34","2.0.0","234504","5f765a3c8a6ec010370c9cc1","4","47","null","","","","","","","","","<p style='font-size: 30px;'><strong>Okay</strong></p>","null","neutral_feedback","0","test","14","","","","","","","","","","","","","","","","","","","","","","",""
"","","","","","","","","","","","html-button-response","35","2.0.0","238821","5f765a3c8a6ec010370c9cc1","4","47","4317","","","","","","","","","<img src= ""rock_img/I_Diorite_16.jpg"" style=""width:8cm; height:6.74cm;""><p>What type of rock is this?</p>","2","class_response","0","test","15","Diorite","Diorite","16","true","3","3","","","","","","","","","","","","","","","","",""
"","","","","","","","","","","","html-keyboard-response","36","2.0.0","239324","5f765a3c8a6ec010370c9cc1","4","47","null","","","","","","","","","<p style='font-size: 30px;'><strong>Okay</strong></p>","null","neutral_feedback","0","test","15","","","","","","","","","","","","","","","","","","","","","","",""
"","","","","","","","","","","","html-button-response","37","2.0.0","242746","5f765a3c8a6ec010370c9cc1","4","47","3421","","","","","","","","","<img src= ""rock_img/I_Gabbro_09.jpg"" style=""width:8cm; height:7.279999999999999cm;""><p>What type of rock is this?</p>","3","class_response","0","test","16","Gabbro","Gabbro","09","true","4","4","","","","","","","","","","","","","","","","",""
"","","","","","","","","","","","html-keyboard-response","38","2.0.0","243254","5f765a3c8a6ec010370c9cc1","4","47","null","","","","","","","","","<p style='font-size: 30px;'><strong>Okay</strong></p>","null","neutral_feedback","0","test","16","","","","","","","","","","","","","","","","","","","","","","",""
"","","","","","","","","","","","html-button-response","39","2.0.0","246374","5f765a3c8a6ec010370c9cc1","4","47","3120","","","","","","","","","<img src= ""rock_img/I_Basalt_01.jpg"" style=""width:8cm; height:7.880000000000001cm;""><p>What type of rock is this?</p>","1","class_response","0","test","17","Basalt","Basalt","01","true","2","2","","","","","","","","","","","","","","","","",""
"","","","","","","","","","","","html-keyboard-response","40","2.0.0","246880","5f765a3c8a6ec010370c9cc1","4","47","null","","","","","","","","","<p style='font-size: 30px;'><strong>Okay</strong></p>","null","neutral_feedback","0","test","17","","","","","","","","","","","","","","","","","","","","","","",""
"","","","","","","","","","","","html-button-response","41","2.0.0","251007","5f765a3c8a6ec010370c9cc1","4","47","4126","","","","","","","","","<img src= ""rock_img/I_Gabbro_12.jpg"" style=""width:8cm; height:7.800000000000001cm;""><p>What type of rock is this?</p>","7","class_response","0","test","18","Pumice","Gabbro","12","false","8","4","","","","","","","","","","","","","","","","",""
"","","","","","","","","","","","html-keyboard-response","42","2.0.0","251507","5f765a3c8a6ec010370c9cc1","4","47","null","","","","","","","","","<p style='font-size: 30px;'><strong>Okay</strong></p>","null","neutral_feedback","0","test","18","","","","","","","","","","","","","","","","","","","","","","",""
"","","","","","","","","","","","html-button-response","43","2.0.0","252909","5f765a3c8a6ec010370c9cc1","4","47","1401","","","","","","","","","<img src= ""rock_img/I_Pumice_08.jpg"" style=""width:8cm; height:6.67cm;""><p>What type of rock is this?</p>","7","class_response","0","test","19","Pumice","Pumice","08","true","8","8","","","","","","","","","","","","","","","","",""
"","","","","","","","","","","","html-keyboard-response","44","2.0.0","253411","5f765a3c8a6ec010370c9cc1","4","47","null","","","","","","","","","<p style='font-size: 30px;'><strong>Okay</strong></p>","null","neutral_feedback","0","test","19","","","","","","","","","","","","","","","","","","","","","","",""
"","","","","","","","","","","","html-button-response","45","2.0.0","256797","5f765a3c8a6ec010370c9cc1","4","47","3385","","","","","","","","","<img src= ""rock_img/I_Pegmatite_03.jpg"" style=""width:8cm; height:5.239999999999999cm;""><p>What type of rock is this?</p>","5","class_response","0","test","20","Pegmatite","Pegmatite","03","true","6","6","","","","","","","","","","","","","","","","",""
"","","","","","","","","","","","html-keyboard-response","46","2.0.0","257308","5f765a3c8a6ec010370c9cc1","4","47","null","","","","","","","","","<p style='font-size: 30px;'><strong>Okay</strong></p>","null","neutral_feedback","0","test","20","","","","","","","","","","","","","","","","","","","","","","",""
"","","","","","","","","","","","html-button-response","47","2.0.0","259734","5f765a3c8a6ec010370c9cc1","4","47","2425","","","","","","","","","<img src= ""rock_img/I_Pumice_13.jpg"" style=""width:8cm; height:8.200000000000001cm;""><p>What type of rock is this?</p>","7","class_response","0","test","21","Pumice","Pumice","13","true","8","8","","","","","","","","","","","","","","","","",""
"","","","","","","","","","","","html-keyboard-response","48","2.0.0","260238","5f765a3c8a6ec010370c9cc1","4","47","null","","","","","","","","","<p style='font-size: 30px;'><strong>Okay</strong></p>","null","neutral_feedback","0","test","21","","","","","","","","","","","","","","","","","","","","","","",""
"","","","","","","","","","","","html-button-response","49","2.0.0","263558","5f765a3c8a6ec010370c9cc1","4","47","3319","","","","","","","","","<img src= ""rock_img/I_Peridotite_05.jpg"" style=""width:8cm; height:7.1499999999999995cm;""><p>What type of rock is this?</p>","6","class_response","0","test","22","Peridotite","Peridotite","05","true","7","7","","","","","","","","","","","","","","","","",""
"","","","","","","","","","","","html-keyboard-response","50","2.0.0","264068","5f765a3c8a6ec010370c9cc1","4","47","null","","","","","","","","","<p style='font-size: 30px;'><strong>Okay</strong></p>","null","neutral_feedback","0","test","22","","","","","","","","","","","","","","","","","","","","","","",""
"","","","","","","","","","","","html-button-response","51","2.0.0","267909","5f765a3c8a6ec010370c9cc1","4","47","3840","","","","","","","","","<img src= ""rock_img/I_Gabbro_08.jpg"" style=""width:8cm; height:5.15cm;""><p>What type of rock is this?</p>","3","class_response","0","test","23","Gabbro","Gabbro","08","true","4","4","","","","","","","","","","","","","","","","",""
"","","","","","","","","","","","html-keyboard-response","52","2.0.0","268421","5f765a3c8a6ec010370c9cc1","4","47","null","","","","","","","","","<p style='font-size: 30px;'><strong>Okay</strong></p>","null","neutral_feedback","0","test","23","","","","","","","","","","","","","","","","","","","","","","",""
"","","","","","","","","","","","html-button-response","53","2.0.0","272183","5f765a3c8a6ec010370c9cc1","4","47","3761","","","","","","","","","<img src= ""rock_img/I_Gabbro_11.jpg"" style=""width:8cm; height:6.2cm;""><p>What type of rock is this?</p>","3","class_response","0","test","24","Gabbro","Gabbro","11","true","4","4","","","","","","","","","","","","","","","","",""
"","","","","","","","","","","","html-keyboard-response","54","2.0.0","272692","5f765a3c8a6ec010370c9cc1","4","47","null","","","","","","","","","<p style='font-size: 30px;'><strong>Okay</strong></p>","null","neutral_feedback","0","test","24","","","","","","","","","","","","","","","","","","","","","","",""
"","","","","","","","","","","","html-button-response","55","2.0.0","273751","5f765a3c8a6ec010370c9cc1","4","47","1057","","","","","","","","","<img src= ""rock_img/I_Basalt_09.jpg"" style=""width:8cm; height:6.2cm;""><p>What type of rock is this?</p>","1","class_response","0","test","25","Basalt","Basalt","09","true","2","2","","","","","","","","","","","","","","","","",""
"","","","","","","","","","","","html-keyboard-response","56","2.0.0","274267","5f765a3c8a6ec010370c9cc1","4","47","null","","","","","","","","","<p style='font-size: 30px;'><strong>Okay</strong></p>","null","neutral_feedback","0","test","25","","","","","","","","","","","","","","","","","","","","","","",""
"","","","","","","","","","","","html-button-response","57","2.0.0","277856","5f765a3c8a6ec010370c9cc1","4","47","3588","","","","","","","","","<img src= ""rock_img/I_Pegmatite_06.jpg"" style=""width:8cm; height:5.17cm;""><p>What type of rock is this?</p>","6","class_response","0","test","26","Peridotite","Pegmatite","06","false","7","6","","","","","","","","","","","","","","","","",""
"","","","","","","","","","","","html-keyboard-response","58","2.0.0","278357","5f765a3c8a6ec010370c9cc1","4","47","null","","","","","","","","","<p style='font-size: 30px;'><strong>Okay</strong></p>","null","neutral_feedback","0","test","26","","","","","","","","","","","","","","","","","","","","","","",""
"","","","","","","","","","","","html-button-response","59","2.0.0","281578","5f765a3c8a6ec010370c9cc1","4","47","3221","","","","","","","","","<img src= ""rock_img/I_Diorite_10.jpg"" style=""width:8cm; height:5.949999999999999cm;""><p>What type of rock is this?</p>","2","class_response","0","test","27","Diorite","Diorite","10","true","3","3","","","","","","","","","","","","","","","","",""
"","","","","","","","","","","","html-keyboard-response","60","2.0.0","282081","5f765a3c8a6ec010370c9cc1","4","47","null","","","","","","","","","<p style='font-size: 30px;'><strong>Okay</strong></p>","null","neutral_feedback","0","test","27","","","","","","","","","","","","","","","","","","","","","","",""
"","","","","","","","","","","","html-button-response","61","2.0.0","283368","5f765a3c8a6ec010370c9cc1","4","47","1285","","","","","","","","","<img src= ""rock_img/I_Obsidian_10.jpg"" style=""width:8cm; height:6.260000000000001cm;""><p>What type of rock is this?</p>","4","class_response","0","test","28","Obsidian","Obsidian","10","true","5","5","","","","","","","","","","","","","","","","",""
"","","","","","","","","","","","html-keyboard-response","62","2.0.0","283869","5f765a3c8a6ec010370c9cc1","4","47","null","","","","","","","","","<p style='font-size: 30px;'><strong>Okay</strong></p>","null","neutral_feedback","0","test","28","","","","","","","","","","","","","","","","","","","","","","",""
"","","","","","","","","","","","html-button-response","63","2.0.0","284758","5f765a3c8a6ec010370c9cc1","4","47","887","","","","","","","","","<img src= ""rock_img/I_Obsidian_08.jpg"" style=""width:8cm; height:7.39cm;""><p>What type of rock is this?</p>","4","class_response","0","test","29","Obsidian","Obsidian","08","true","5","5","","","","","","","","","","","","","","","","",""
"","","","","","","","","","","","html-keyboard-response","64","2.0.0","285259","5f765a3c8a6ec010370c9cc1","4","47","null","","","","","","","","","<p style='font-size: 30px;'><strong>Okay</strong></p>","null","neutral_feedback","0","test","29","","","","","","","","","","","","","","","","","","","","","","",""
"","","","","","","","","","","","html-button-response","65","2.0.0","288174","5f765a3c8a6ec010370c9cc1","4","47","2914","","","","","","","","","<img src= ""rock_img/I_Peridotite_14.jpg"" style=""width:8cm; height:5.3cm;""><p>What type of rock is this?</p>","5","class_response","0","test","30","Pegmatite","Peridotite","14","false","6","7","","","","","","","","","","","","","","","","",""
"","","","","","","","","","","","html-keyboard-response","66","2.0.0","288689","5f765a3c8a6ec010370c9cc1","4","47","null","","","","","","","","","<p style='font-size: 30px;'><strong>Okay</strong></p>","null","neutral_feedback","0","test","30","","","","","","","","","","","","","","","","","","","","","","",""
"","","","","","","","","","","","html-button-response","67","2.0.0","291840","5f765a3c8a6ec010370c9cc1","4","47","3150","","","","","","","","","<img src= ""rock_img/I_Basalt_08.jpg"" style=""width:8cm; height:10.44cm;""><p>What type of rock is this?</p>","1","class_response","0","test","31","Basalt","Basalt","08","true","2","2","","","","","","","","","","","","","","","","",""
"","","","","","","","","","","","html-keyboard-response","68","2.0.0","292345","5f765a3c8a6ec010370c9cc1","4","47","null","","","","","","","","","<p style='font-size: 30px;'><strong>Okay</strong></p>","null","neutral_feedback","0","test","31","","","","","","","","","","","","","","","","","","","","","","",""
"","","","","","","","","","","","html-button-response","69","2.0.0","294260","5f765a3c8a6ec010370c9cc1","4","47","1914","","","","","","","","","<img src= ""rock_img/I_Peridotite_15.jpg"" style=""width:8cm; height:6cm;""><p>What type of rock is this?</p>","7","class_response","0","test","32","Pumice","Peridotite","15","false","8","7","","","","","","","","","","","","","","","","",""
"","","","","","","","","","","","html-keyboard-response","70","2.0.0","294767","5f765a3c8a6ec010370c9cc1","4","47","null","","","","","","","","","<p style='font-size: 30px;'><strong>Okay</strong></p>","null","neutral_feedback","0","test","32","","","","","","","","","","","","","","","","","","","","","","",""
"","","","","","","","","","","","html-button-response","71","2.0.0","295593","5f765a3c8a6ec010370c9cc1","4","47","825","","","","","","","","","<img src= ""rock_img/I_Pumice_16.jpg"" style=""width:8cm; height:6.79cm;""><p>What type of rock is this?</p>","7","class_response","0","test","33","Pumice","Pumice","16","true","8","8","","","","","","","","","","","","","","","","",""
"","","","","","","","","","","","html-keyboard-response","72","2.0.0","296108","5f765a3c8a6ec010370c9cc1","4","47","null","","","","","","","","","<p style='font-size: 30px;'><strong>Okay</strong></p>","null","neutral_feedback","0","test","33","","","","","","","","","","","","","","","","","","","","","","",""
"","","","","","","","","","","","html-button-response","73","2.0.0","298865","5f765a3c8a6ec010370c9cc1","4","47","2756","","","","","","","","","<img src= ""rock_img/I_Andesite_04.jpg"" style=""width:8cm; height:5.96cm;""><p>What type of rock is this?</p>","0","class_response","0","test","34","Andesite","Andesite","04","true","1","1","","","","","","","","","","","","","","","","",""
"","","","","","","","","","","","html-keyboard-response","74","2.0.0","299370","5f765a3c8a6ec010370c9cc1","4","47","null","","","","","","","","","<p style='font-size: 30px;'><strong>Okay</strong></p>","null","neutral_feedback","0","test","34","","","","","","","","","","","","","","","","","","","","","","",""
"","","","","","","","","","","","html-button-response","75","2.0.0","300473","5f765a3c8a6ec010370c9cc1","4","47","1102","","","","","","","","","<img src= ""rock_img/I_Pumice_05.jpg"" style=""width:8cm; height:7.25cm;""><p>What type of rock is this?</p>","7","class_response","0","test","35","Pumice","Pumice","05","true","8","8","","","","","","","","","","","","","","","","",""
"","","","","","","","","","","","html-keyboard-response","76","2.0.0","300973","5f765a3c8a6ec010370c9cc1","4","47","null","","","","","","","","","<p style='font-size: 30px;'><strong>Okay</strong></p>","null","neutral_feedback","0","test","35","","","","","","","","","","","","","","","","","","","","","","",""
"","","","","","","","","","","","html-button-response","77","2.0.0","303432","5f765a3c8a6ec010370c9cc1","4","47","2458","","","","","","","","","<img src= ""rock_img/I_Pegmatite_09.jpg"" style=""width:8cm; height:4.03cm;""><p>What type of rock is this?</p>","5","class_response","0","test","36","Pegmatite","Pegmatite","09","true","6","6","","","","","","","","","","","","","","","","",""
"","","","","","","","","","","","html-keyboard-response","78","2.0.0","303940","5f765a3c8a6ec010370c9cc1","4","47","null","","","","","","","","","<p style='font-size: 30px;'><strong>Okay</strong></p>","null","neutral_feedback","0","test","36","","","","","","","","","","","","","","","","","","","","","","",""
"","","","","","","","","","","","html-button-response","79","2.0.0","304954","5f765a3c8a6ec010370c9cc1","4","47","1013","","","","","","","","","<img src= ""rock_img/I_Pumice_06.jpg"" style=""width:8cm; height:6.9399999999999995cm;""><p>What type of rock is this?</p>","7","class_response","0","test","37","Pumice","Pumice","06","true","8","8","","","","","","","","","","","","","","","","",""
"","","","","","","","","","","","html-keyboard-response","80","2.0.0","305467","5f765a3c8a6ec010370c9cc1","4","47","null","","","","","","","","","<p style='font-size: 30px;'><strong>Okay</strong></p>","null","neutral_feedback","0","test","37","","","","","","","","","","","","","","","","","","","","","","",""
"","","","","","","","","","","","html-button-response","81","2.0.0","308142","5f765a3c8a6ec010370c9cc1","4","47","2675","","","","","","","","","<img src= ""rock_img/I_Diorite_06.jpg"" style=""width:8cm; height:6.03cm;""><p>What type of rock is this?</p>","2","class_response","0","test","38","Diorite","Diorite","06","true","3","3","","","","","","","","","","","","","","","","",""
"","","","","","","","","","","","html-keyboard-response","82","2.0.0","308657","5f765a3c8a6ec010370c9cc1","4","47","null","","","","","","","","","<p style='font-size: 30px;'><strong>Okay</strong></p>","null","neutral_feedback","0","test","38","","","","","","","","","","","","","","","","","","","","","","",""
"","","","","","","","","","","","html-button-response","83","2.0.0","309741","5f765a3c8a6ec010370c9cc1","4","47","1083","","","","","","","","","<img src= ""rock_img/I_Pumice_10.jpg"" style=""width:8cm; height:7.609999999999999cm;""><p>What type of rock is this?</p>","7","class_response","0","test","39","Pumice","Pumice","10","true","8","8","","","","","","","","","","","","","","","","",""
"","","","","","","","","","","","html-keyboard-response","84","2.0.0","310246","5f765a3c8a6ec010370c9cc1","4","47","null","","","","","","","","","<p style='font-size: 30px;'><strong>Okay</strong></p>","null","neutral_feedback","0","test","39","","","","","","","","","","","","","","","","","","","","","","",""
"","","","","","","","","","","","html-button-response","85","2.0.0","311675","5f765a3c8a6ec010370c9cc1","4","47","1428","","","","","","","","","<img src= ""rock_img/I_Peridotite_06.jpg"" style=""width:8cm; height:7.53cm;""><p>What type of rock is this?</p>","5","class_response","0","test","40","Pegmatite","Peridotite","06","false","6","7","","","","","","","","","","","","","","","","",""
"","","","","","","","","","","","html-keyboard-response","86","2.0.0","312176","5f765a3c8a6ec010370c9cc1","4","47","null","","","","","","","","","<p style='font-size: 30px;'><strong>Okay</strong></p>","null","neutral_feedback","0","test","40","","","","","","","","","","","","","","","","","","","","","","",""
"","","","","","","","","","","","html-button-response","87","2.0.0","315124","5f765a3c8a6ec010370c9cc1","4","47","2947","","","","","","","","","<img src= ""rock_img/I_Pegmatite_13.jpg"" style=""width:8cm; height:4.95cm;""><p>What type of rock is this?</p>","5","class_response","0","test","41","Pegmatite","Pegmatite","13","true","6","6","","","","","","","","","","","","","","","","",""
"","","","","","","","","","","","html-keyboard-response","88","2.0.0","315625","5f765a3c8a6ec010370c9cc1","4","47","null","","","","","","","","","<p style='font-size: 30px;'><strong>Okay</strong></p>","null","neutral_feedback","0","test","41","","","","","","","","","","","","","","","","","","","","","","",""
"","","","","","","","","","","","html-button-response","89","2.0.0","317872","5f765a3c8a6ec010370c9cc1","4","47","2245","","","","","","","","","<img src= ""rock_img/I_Andesite_14.jpg"" style=""width:8cm; height:5.449999999999999cm;""><p>What type of rock is this?</p>","6","class_response","0","test","42","Peridotite","Andesite","14","false","7","1","","","","","","","","","","","","","","","","",""
"","","","","","","","","","","","html-keyboard-response","90","2.0.0","318383","5f765a3c8a6ec010370c9cc1","4","47","null","","","","","","","","","<p style='font-size: 30px;'><strong>Okay</strong></p>","null","neutral_feedback","0","test","42","","","","","","","","","","","","","","","","","","","","","","",""
"","","","","","","","","","","","html-button-response","91","2.0.0","320781","5f765a3c8a6ec010370c9cc1","4","47","2397","","","","","","","","","<img src= ""rock_img/I_Diorite_02.jpg"" style=""width:8cm; height:6.27cm;""><p>What type of rock is this?</p>","2","class_response","0","test","43","Diorite","Diorite","02","true","3","3","","","","","","","","","","","","","","","","",""
"","","","","","","","","","","","html-keyboard-response","92","2.0.0","321294","5f765a3c8a6ec010370c9cc1","4","47","null","","","","","","","","","<p style='font-size: 30px;'><strong>Okay</strong></p>","null","neutral_feedback","0","test","43","","","","","","","","","","","","","","","","","","","","","","",""
"","","","","","","","","","","","html-button-response","93","2.0.0","324005","5f765a3c8a6ec010370c9cc1","4","47","2710","","","","","","","","","<img src= ""rock_img/I_Andesite_06.jpg"" style=""width:8cm; height:6.840000000000001cm;""><p>What type of rock is this?</p>","0","class_response","0","test","44","Andesite","Andesite","06","true","1","1","","","","","","","","","","","","","","","","",""
"","","","","","","","","","","","html-keyboard-response","94","2.0.0","324511","5f765a3c8a6ec010370c9cc1","4","47","null","","","","","","","","","<p style='font-size: 30px;'><strong>Okay</strong></p>","null","neutral_feedback","0","test","44","","","","","","","","","","","","","","","","","","","","","","",""
"","","","","","","","","","","","html-button-response","95","2.0.0","326349","5f765a3c8a6ec010370c9cc1","4","47","1838","","","","","","","","","<img src= ""rock_img/I_Andesite_01.jpg"" style=""width:8cm; height:5.87cm;""><p>What type of rock is this?</p>","0","class_response","0","test","45","Andesite","Andesite","01","true","1","1","","","","","","","","","","","","","","","","",""
"","","","","","","","","","","","html-keyboard-response","96","2.0.0","326860","5f765a3c8a6ec010370c9cc1","4","47","null","","","","","","","","","<p style='font-size: 30px;'><strong>Okay</strong></p>","null","neutral_feedback","0","test","45","","","","","","","","","","","","","","","","","","","","","","",""
"","","","","","","","","","","","html-button-response","97","2.0.0","331372","5f765a3c8a6ec010370c9cc1","4","47","4512","","","","","","","","","<img src= ""rock_img/I_Andesite_10.jpg"" style=""width:8cm; height:4.16cm;""><p>What type of rock is this?</p>","0","class_response","0","test","46","Andesite","Andesite","10","true","1","1","","","","","","","","","","","","","","","","",""
"","","","","","","","","","","","html-keyboard-response","98","2.0.0","331881","5f765a3c8a6ec010370c9cc1","4","47","null","","","","","","","","","<p style='font-size: 30px;'><strong>Okay</strong></p>","null","neutral_feedback","0","test","46","","","","","","","","","","","","","","","","","","","","","","",""
"","","","","","","","","","","","html-button-response","99","2.0.0","334356","5f765a3c8a6ec010370c9cc1","4","47","2474","","","","","","","","","<img src= ""rock_img/I_Basalt_14.jpg"" style=""width:8cm; height:5.82cm;""><p>What type of rock is this?</p>","1","class_response","0","test","47","Basalt","Basalt","14","true","2","2","","","","","","","","","","","","","","","","",""
"","","","","","","","","","","","html-keyboard-response","100","2.0.0","334857","5f765a3c8a6ec010370c9cc1","4","47","null","","","","","","","","","<p style='font-size: 30px;'><strong>Okay</strong></p>","null","neutral_feedback","0","test","47","","","","","","","","","","","","","","","","","","","","","","",""
"","","","","","","","","","","","html-button-response","101","2.0.0","336878","5f765a3c8a6ec010370c9cc1","4","47","2019","","","","","","","","","<img src= ""rock_img/I_Obsidian_07.jpg"" style=""width:8cm; height:4.76cm;""><p>What type of rock is this?</p>","4","class_response","0","test","48","Obsidian","Obsidian","07","true","5","5","","","","","","","","","","","","","","","","",""
"","","","","","","","","","","","html-keyboard-response","102","2.0.0","337380","5f765a3c8a6ec010370c9cc1","4","47","null","","","","","","","","","<p style='font-size: 30px;'><strong>Okay</strong></p>","null","neutral_feedback","0","test","48","","","","","","","","","","","","","","","","","","","","","","",""
"","","","","","","","","","","","instructions","103","2.0.0","357521","5f765a3c8a6ec010370c9cc1","4","47","20130","","","","","","","","[{""page_index"":0,""viewing_time"":15199},{""page_index"":1,""viewing_time"":4930}]","","","","","","","","","","","","","","","","","","","","","","","","","","","","",""
"","","","","","","","","","","","html-button-response","104","2.0.0","363941","5f765a3c8a6ec010370c9cc1","4","47","6419","","","","","","","","","","0","start_train","","","","","","","","","","","","","","","","","","","","","","","","","",""
"","","","","","","","","","","","html-button-response","106","2.0.0","368349","5f765a3c8a6ec010370c9cc1","4","47","4406","","","","","","","","","<img src= ""rock_img/I_Pegmatite_16.jpg"" style=""width:8cm; height:5.8cm;""><p>What type of rock is this?</p>","5","class_response","1","train","1","Pegmatite","Pegmatite","16","true","6","6","","","","","","","","","","","","","","","","",""
"","","","","","","","","","","","html-button-response","107","2.0.0","369112","5f765a3c8a6ec010370c9cc1","4","47","762","","","","","","","","","<img src= rock_img/I_Pegmatite_16.jpg style=""width:8cm; height:5.8cm;""><p style='font-size: 30px; color: green;'><strong>Correct!</strong></p><p style='font-size: 30px;'><strong>This rock is pegmatite</strong></p>","0","corr_feedback","1","train","1","","","","","","","","","","","","","","","","","","","","","","",""
"","","","","","","","","","","","html-button-response","108","2.0.0","370632","5f765a3c8a6ec010370c9cc1","4","47","1519","","","","","","","","","<img src= ""rock_img/I_Peridotite_10.jpg"" style=""width:8cm; height:5.390000000000001cm;""><p>What type of rock is this?</p>","6","class_response","1","train","2","Peridotite","Peridotite","10","true","7","7","","","","","","","","","","","","","","","","",""
"","","","","","","","","","","","html-button-response","109","2.0.0","371345","5f765a3c8a6ec010370c9cc1","4","47","712","","","","","","","","","<img src= rock_img/I_Peridotite_10.jpg style=""width:8cm; height:5.390000000000001cm;""><p style='font-size: 30px; color: green;'><strong>Correct!</strong></p><p style='font-size: 30px;'><strong>This rock is peridotite</strong></p>","0","corr_feedback","1","train","2","","","","","","","","","","","","","","","","","","","","","","",""
"","","","","","","","","","","","html-button-response","110","2.0.0","373298","5f765a3c8a6ec010370c9cc1","4","47","1952","","","","","","","","","<img src= ""rock_img/I_Andesite_07.jpg"" style=""width:8cm; height:5.93cm;""><p>What type of rock is this?</p>","2","class_response","1","train","3","Diorite","Andesite","07","false","3","1","","","","","","","","","","","","","","","","",""
"","","","","","","","","","","","html-button-response","111","2.0.0","374496","5f765a3c8a6ec010370c9cc1","4","47","1197","","","","","","","","","<img src= rock_img/I_Andesite_07.jpg style=""width:8cm; height:5.93cm;""><p style='font-size: 30px; color: red;'><strong>Incorrect!</strong></p><p style='font-size: 30px;'><strong>This rock is andesite</strong></p>","0","corr_feedback","1","train","3","","","","","","","","","","","","","","","","","","","","","","",""
"","","","","","","","","","","","html-button-response","112","2.0.0","378142","5f765a3c8a6ec010370c9cc1","4","47","3644","","","","","","","","","<img src= ""rock_img/I_Peridotite_08.jpg"" style=""width:8cm; height:6.7cm;""><p>What type of rock is this?</p>","6","class_response","1","train","4","Peridotite","Peridotite","08","true","7","7","","","","","","","","","","","","","","","","",""
"","","","","","","","","","","","html-button-response","113","2.0.0","379437","5f765a3c8a6ec010370c9cc1","4","47","1294","","","","","","","","","<img src= rock_img/I_Peridotite_08.jpg style=""width:8cm; height:6.7cm;""><p style='font-size: 30px; color: green;'><strong>Correct!</strong></p><p style='font-size: 30px;'><strong>This rock is peridotite</strong></p>","0","corr_feedback","1","train","4","","","","","","","","","","","","","","","","","","","","","","",""
"","","","","","","","","","","","html-button-response","114","2.0.0","380645","5f765a3c8a6ec010370c9cc1","4","47","1207","","","","","","","","","<img src= ""rock_img/I_Obsidian_16.jpg"" style=""width:8cm; height:9.3cm;""><p>What type of rock is this?</p>","4","class_response","1","train","5","Obsidian","Obsidian","16","true","5","5","","","","","","","","","","","","","","","","",""
"","","","","","","","","","","","html-button-response","115","2.0.0","381163","5f765a3c8a6ec010370c9cc1","4","47","517","","","","","","","","","<img src= rock_img/I_Obsidian_16.jpg style=""width:8cm; height:9.3cm;""><p style='font-size: 30px; color: green;'><strong>Correct!</strong></p><p style='font-size: 30px;'><strong>This rock is obsidian</strong></p>","0","corr_feedback","1","train","5","","","","","","","","","","","","","","","","","","","","","","",""
"","","","","","","","","","","","html-button-response","116","2.0.0","382155","5f765a3c8a6ec010370c9cc1","4","47","991","","","","","","","","","<img src= ""rock_img/I_Basalt_04.jpg"" style=""width:8cm; height:7.53cm;""><p>What type of rock is this?</p>","1","class_response","1","train","6","Basalt","Basalt","04","true","2","2","","","","","","","","","","","","","","","","",""
"","","","","","","","","","","","html-button-response","117","2.0.0","382853","5f765a3c8a6ec010370c9cc1","4","47","697","","","","","","","","","<img src= rock_img/I_Basalt_04.jpg style=""width:8cm; height:7.53cm;""><p style='font-size: 30px; color: green;'><strong>Correct!</strong></p><p style='font-size: 30px;'><strong>This rock is basalt</strong></p>","0","corr_feedback","1","train","6","","","","","","","","","","","","","","","","","","","","","","",""
"","","","","","","","","","","","html-button-response","118","2.0.0","383767","5f765a3c8a6ec010370c9cc1","4","47","912","","","","","","","","","<img src= ""rock_img/I_Pumice_04.jpg"" style=""width:8cm; height:6.819999999999999cm;""><p>What type of rock is this?</p>","7","class_response","1","train","7","Pumice","Pumice","04","true","8","8","","","","","","","","","","","","","","","","",""
"","","","","","","","","","","","html-button-response","119","2.0.0","384234","5f765a3c8a6ec010370c9cc1","4","47","467","","","","","","","","","<img src= rock_img/I_Pumice_04.jpg style=""width:8cm; height:6.819999999999999cm;""><p style='font-size: 30px; color: green;'><strong>Correct!</strong></p><p style='font-size: 30px;'><strong>This rock is pumice</strong></p>","0","corr_feedback","1","train","7","","","","","","","","","","","","","","","","","","","","","","",""
"","","","","","","","","","","","html-button-response","120","2.0.0","386848","5f765a3c8a6ec010370c9cc1","4","47","2612","","","","","","","","","<img src= ""rock_img/I_Gabbro_01.jpg"" style=""width:8cm; height:5.21cm;""><p>What type of rock is this?</p>","3","class_response","1","train","8","Gabbro","Gabbro","01","true","4","4","","","","","","","","","","","","","","","","",""
"","","","","","","","","","","","html-button-response","121","2.0.0","387327","5f765a3c8a6ec010370c9cc1","4","47","478","","","","","","","","","<img src= rock_img/I_Gabbro_01.jpg style=""width:8cm; height:5.21cm;""><p style='font-size: 30px; color: green;'><strong>Correct!</strong></p><p style='font-size: 30px;'><strong>This rock is gabbro</strong></p>","0","corr_feedback","1","train","8","","","","","","","","","","","","","","","","","","","","","","",""
"","","","","","","","","","","","html-button-response","122","2.0.0","390521","5f765a3c8a6ec010370c9cc1","4","47","3194","","","","","","","","","<img src= ""rock_img/I_Basalt_16.jpg"" style=""width:8cm; height:7.659999999999999cm;""><p>What type of rock is this?</p>","1","class_response","1","train","9","Basalt","Basalt","16","true","2","2","","","","","","","","","","","","","","","","",""
"","","","","","","","","","","","html-button-response","123","2.0.0","391223","5f765a3c8a6ec010370c9cc1","4","47","701","","","","","","","","","<img src= rock_img/I_Basalt_16.jpg style=""width:8cm; height:7.659999999999999cm;""><p style='font-size: 30px; color: green;'><strong>Correct!</strong></p><p style='font-size: 30px;'><strong>This rock is basalt</strong></p>","0","corr_feedback","1","train","9","","","","","","","","","","","","","","","","","","","","","","",""
"","","","","","","","","","","","html-button-response","124","2.0.0","393910","5f765a3c8a6ec010370c9cc1","4","47","2685","","","","","","","","","<img src= ""rock_img/I_Andesite_16.jpg"" style=""width:8cm; height:6.010000000000001cm;""><p>What type of rock is this?</p>","0","class_response","1","train","10","Andesite","Andesite","16","true","1","1","","","","","","","","","","","","","","","","",""
"","","","","","","","","","","","html-button-response","125","2.0.0","394489","5f765a3c8a6ec010370c9cc1","4","47","578","","","","","","","","","<img src= rock_img/I_Andesite_16.jpg style=""width:8cm; height:6.010000000000001cm;""><p style='font-size: 30px; color: green;'><strong>Correct!</strong></p><p style='font-size: 30px;'><strong>This rock is andesite</strong></p>","0","corr_feedback","1","train","10","","","","","","","","","","","","","","","","","","","","","","",""
"","","","","","","","","","","","html-button-response","126","2.0.0","395929","5f765a3c8a6ec010370c9cc1","4","47","1439","","","","","","","","","<img src= ""rock_img/I_Diorite_09.jpg"" style=""width:8cm; height:5.27cm;""><p>What type of rock is this?</p>","2","class_response","1","train","11","Diorite","Diorite","09","true","3","3","","","","","","","","","","","","","","","","",""
"","","","","","","","","","","","html-button-response","127","2.0.0","396371","5f765a3c8a6ec010370c9cc1","4","47","441","","","","","","","","","<img src= rock_img/I_Diorite_09.jpg style=""width:8cm; height:5.27cm;""><p style='font-size: 30px; color: green;'><strong>Correct!</strong></p><p style='font-size: 30px;'><strong>This rock is diorite</strong></p>","0","corr_feedback","1","train","11","","","","","","","","","","","","","","","","","","","","","","",""
"","","","","","","","","","","","html-button-response","128","2.0.0","397950","5f765a3c8a6ec010370c9cc1","4","47","1578","","","","","","","","","<img src= ""rock_img/I_Pegmatite_08.jpg"" style=""width:8cm; height:7.68cm;""><p>What type of rock is this?</p>","5","class_response","1","train","12","Pegmatite","Pegmatite","08","true","6","6","","","","","","","","","","","","","","","","",""
"","","","","","","","","","","","html-button-response","129","2.0.0","398991","5f765a3c8a6ec010370c9cc1","4","47","1040","","","","","","","","","<img src= rock_img/I_Pegmatite_08.jpg style=""width:8cm; height:7.68cm;""><p style='font-size: 30px; color: green;'><strong>Correct!</strong></p><p style='font-size: 30px;'><strong>This rock is pegmatite</strong></p>","0","corr_feedback","1","train","12","","","","","","","","","","","","","","","","","","","","","","",""
"","","","","","","","","","","","instructions","130","2.0.0","421522","5f765a3c8a6ec010370c9cc1","4","47","22530","","","","","","","","[{""page_index"":0,""viewing_time"":6671},{""page_index"":1,""viewing_time"":7418},{""page_index"":2,""viewing_time"":4884},{""page_index"":3,""viewing_time"":3556}]","","","","","","","","","","","","","","","","","","","","","","","","","","","","",""
"","","","","","","","","","","","html-button-response","131","2.0.0","422432","5f765a3c8a6ec010370c9cc1","4","47","909","","","","","","","","","","0","start_train","","","","","","","","","","","","","","","","","","","","","","","","","",""
"","","","","","","","","","","","html-button-response","132","2.0.0","430201","5f765a3c8a6ec010370c9cc1","4","47","","","","","","","","","","","","cat_selection","1","train","1","","","","","","","5007.199999999255","2760.800000000745","7","6","Peridotite","Pegmatite","","","","","","","","","","",""
"","","","","","","","","","","","paired-cat-display","133","1.0.0","474840","5f765a3c8a6ec010370c9cc1","4","47","","","","","","","","","","","","paired_cat_display","1","train","1","","","","","","","","","","","","","sometimes has green speckled across the rock","has large chunks of black ","10441.89999999851","34195.300000000745","","","","","","",""
"","","","","","","","","","","","html-button-response","134","2.0.0","481960","5f765a3c8a6ec010370c9cc1","4","47","","","","","","","","","","","","cat_selection","1","train","2","","","","","","","5450.699999999255","1668.1000000014901","4","7","Gabbro","Peridotite","","","","","","","","","","",""
"","","","","","","","","","","","paired-cat-display","135","1.0.0","512305","5f765a3c8a6ec010370c9cc1","4","47","","","","","","","","","","","","paired_cat_display","1","train","2","","","","","","","","","","","","","white and gray speckled with green","","6458.199999999255","23885.300000000745","gray brown speckled with black","","","","","",""
"","","","","","","","","","","","html-button-response","136","2.0.0","516829","5f765a3c8a6ec010370c9cc1","4","47","","","","","","","","","","","","cat_selection","1","train","3","","","","","","","2269.800000000745","2253","2","4","Basalt","Gabbro","","","","","","","","","","",""
"","","","","","","","","","","","paired-cat-display","137","1.0.0","547181","5f765a3c8a6ec010370c9cc1","4","47","","","","","","","","","","","","paired_cat_display","1","train","3","","","","","","","","","","","","","","","6284.699999999255","24065.10000000149","brown gray and black speckled ","uniform gray black brown and white smooth surface","","","","",""
"","","","","","","","","","","","instructions","138","2.0.0","553983","5f765a3c8a6ec010370c9cc1","4","47","6801","","","","","","","","[{""page_index"":0,""viewing_time"":1423},{""page_index"":1,""viewing_time"":5378}]","","","","","","","","","","","","","","","","","","","","","","","","","","","","",""
"","","","","","","","","","","","html-button-response","139","2.0.0","554981","5f765a3c8a6ec010370c9cc1","4","47","998","","","","","","","","","","0","start_test","","","","","","","","","","","","","","","","","","","","","","","","","",""
"","","","","","","","","","","","html-button-response","140","2.0.0","556318","5f765a3c8a6ec010370c9cc1","4","47","1335","","","","","","","","","<img src= ""rock_img/I_Obsidian_05.jpg"" style=""width:8cm; height:6.33cm;""><p>What type of rock is this?</p>","4","class_response","1","test","1","Obsidian","Obsidian","05","true","5","5","","","","","","","","","","","","","","","","",""
"","","","","","","","","","","","html-keyboard-response","141","2.0.0","556819","5f765a3c8a6ec010370c9cc1","4","47","null","","","","","","","","","<p style='font-size: 30px;'><strong>Okay</strong></p>","null","neutral_feedback","1","test","1","","","","","","","","","","","","","","","","","","","","","","",""
"","","","","","","","","","","","html-button-response","142","2.0.0","559355","5f765a3c8a6ec010370c9cc1","4","47","2535","","","","","","","","","<img src= ""rock_img/I_Gabbro_11.jpg"" style=""width:8cm; height:6.2cm;""><p>What type of rock is this?</p>","3","class_response","1","test","2","Gabbro","Gabbro","11","true","4","4","","","","","","","","","","","","","","","","",""
"","","","","","","","","","","","html-keyboard-response","143","2.0.0","559857","5f765a3c8a6ec010370c9cc1","4","47","null","","","","","","","","","<p style='font-size: 30px;'><strong>Okay</strong></p>","null","neutral_feedback","1","test","2","","","","","","","","","","","","","","","","","","","","","","",""
"","","","","","","","","","","","html-button-response","144","2.0.0","561094","5f765a3c8a6ec010370c9cc1","4","47","1237","","","","","","","","","<img src= ""rock_img/I_Basalt_08.jpg"" style=""width:8cm; height:10.44cm;""><p>What type of rock is this?</p>","1","class_response","1","test","3","Basalt","Basalt","08","true","2","2","","","","","","","","","","","","","","","","",""
"","","","","","","","","","","","html-keyboard-response","145","2.0.0","561605","5f765a3c8a6ec010370c9cc1","4","47","null","","","","","","","","","<p style='font-size: 30px;'><strong>Okay</strong></p>","null","neutral_feedback","1","test","3","","","","","","","","","","","","","","","","","","","","","","",""
"","","","","","","","","","","","html-button-response","146","2.0.0","562667","5f765a3c8a6ec010370c9cc1","4","47","1061","","","","","","","","","<img src= ""rock_img/I_Pumice_10.jpg"" style=""width:8cm; height:7.609999999999999cm;""><p>What type of rock is this?</p>","7","class_response","1","test","4","Pumice","Pumice","10","true","8","8","","","","","","","","","","","","","","","","",""
"","","","","","","","","","","","html-keyboard-response","147","2.0.0","563176","5f765a3c8a6ec010370c9cc1","4","47","null","","","","","","","","","<p style='font-size: 30px;'><strong>Okay</strong></p>","null","neutral_feedback","1","test","4","","","","","","","","","","","","","","","","","","","","","","",""
"","","","","","","","","","","","html-button-response","148","2.0.0","565642","5f765a3c8a6ec010370c9cc1","4","47","2465","","","","","","","","","<img src= ""rock_img/I_Gabbro_08.jpg"" style=""width:8cm; height:5.15cm;""><p>What type of rock is this?</p>","3","class_response","1","test","5","Gabbro","Gabbro","08","true","4","4","","","","","","","","","","","","","","","","",""
"","","","","","","","","","","","html-keyboard-response","149","2.0.0","566151","5f765a3c8a6ec010370c9cc1","4","47","null","","","","","","","","","<p style='font-size: 30px;'><strong>Okay</strong></p>","null","neutral_feedback","1","test","5","","","","","","","","","","","","","","","","","","","","","","",""
"","","","","","","","","","","","html-button-response","150","2.0.0","569294","5f765a3c8a6ec010370c9cc1","4","47","3142","","","","","","","","","<img src= ""rock_img/I_Pegmatite_07.jpg"" style=""width:8cm; height:6.7cm;""><p>What type of rock is this?</p>","5","class_response","1","test","6","Pegmatite","Pegmatite","07","true","6","6","","","","","","","","","","","","","","","","",""
"","","","","","","","","","","","html-keyboard-response","151","2.0.0","569796","5f765a3c8a6ec010370c9cc1","4","47","null","","","","","","","","","<p style='font-size: 30px;'><strong>Okay</strong></p>","null","neutral_feedback","1","test","6","","","","","","","","","","","","","","","","","","","","","","",""
"","","","","","","","","","","","html-button-response","152","2.0.0","573325","5f765a3c8a6ec010370c9cc1","4","47","3528","","","","","","","","","<img src= ""rock_img/I_Basalt_14.jpg"" style=""width:8cm; height:5.82cm;""><p>What type of rock is this?</p>","1","class_response","1","test","7","Basalt","Basalt","14","true","2","2","","","","","","","","","","","","","","","","",""
"","","","","","","","","","","","html-keyboard-response","153","2.0.0","573836","5f765a3c8a6ec010370c9cc1","4","47","null","","","","","","","","","<p style='font-size: 30px;'><strong>Okay</strong></p>","null","neutral_feedback","1","test","7","","","","","","","","","","","","","","","","","","","","","","",""
"","","","","","","","","","","","html-button-response","154","2.0.0","578523","5f765a3c8a6ec010370c9cc1","4","47","4686","","","","","","","","","<img src= ""rock_img/I_Pegmatite_13.jpg"" style=""width:8cm; height:4.95cm;""><p>What type of rock is this?</p>","5","class_response","1","test","8","Pegmatite","Pegmatite","13","true","6","6","","","","","","","","","","","","","","","","",""
"","","","","","","","","","","","html-keyboard-response","155","2.0.0","579033","5f765a3c8a6ec010370c9cc1","4","47","null","","","","","","","","","<p style='font-size: 30px;'><strong>Okay</strong></p>","null","neutral_feedback","1","test","8","","","","","","","","","","","","","","","","","","","","","","",""
"","","","","","","","","","","","html-button-response","156","2.0.0","581538","5f765a3c8a6ec010370c9cc1","4","47","2504","","","","","","","","","<img src= ""rock_img/I_Gabbro_10.jpg"" style=""width:8cm; height:5.680000000000001cm;""><p>What type of rock is this?</p>","3","class_response","1","test","9","Gabbro","Gabbro","10","true","4","4","","","","","","","","","","","","","","","","",""
"","","","","","","","","","","","html-keyboard-response","157","2.0.0","582051","5f765a3c8a6ec010370c9cc1","4","47","null","","","","","","","","","<p style='font-size: 30px;'><strong>Okay</strong></p>","null","neutral_feedback","1","test","9","","","","","","","","","","","","","","","","","","","","","","",""
"","","","","","","","","","","","html-button-response","158","2.0.0","584816","5f765a3c8a6ec010370c9cc1","4","47","2764","","","","","","","","","<img src= ""rock_img/I_Andesite_14.jpg"" style=""width:8cm; height:5.449999999999999cm;""><p>What type of rock is this?</p>","0","class_response","1","test","10","Andesite","Andesite","14","true","1","1","","","","","","","","","","","","","","","","",""
"","","","","","","","","","","","html-keyboard-response","159","2.0.0","585325","5f765a3c8a6ec010370c9cc1","4","47","null","","","","","","","","","<p style='font-size: 30px;'><strong>Okay</strong></p>","null","neutral_feedback","1","test","10","","","","","","","","","","","","","","","","","","","","","","",""
"","","","","","","","","","","","html-button-response","160","2.0.0","588413","5f765a3c8a6ec010370c9cc1","4","47","3087","","","","","","","","","<img src= ""rock_img/I_Gabbro_09.jpg"" style=""width:8cm; height:7.279999999999999cm;""><p>What type of rock is this?</p>","3","class_response","1","test","11","Gabbro","Gabbro","09","true","4","4","","","","","","","","","","","","","","","","",""
"","","","","","","","","","","","html-keyboard-response","161","2.0.0","588914","5f765a3c8a6ec010370c9cc1","4","47","null","","","","","","","","","<p style='font-size: 30px;'><strong>Okay</strong></p>","null","neutral_feedback","1","test","11","","","","","","","","","","","","","","","","","","","","","","",""
"","","","","","","","","","","","html-button-response","162","2.0.0","590216","5f765a3c8a6ec010370c9cc1","4","47","1301","","","","","","","","","<img src= ""rock_img/I_Obsidian_09.jpg"" style=""width:8cm; height:5cm;""><p>What type of rock is this?</p>","4","class_response","1","test","12","Obsidian","Obsidian","09","true","5","5","","","","","","","","","","","","","","","","",""
"","","","","","","","","","","","html-keyboard-response","163","2.0.0","590717","5f765a3c8a6ec010370c9cc1","4","47","null","","","","","","","","","<p style='font-size: 30px;'><strong>Okay</strong></p>","null","neutral_feedback","1","test","12","","","","","","","","","","","","","","","","","","","","","","",""
"","","","","","","","","","","","html-button-response","164","2.0.0","592755","5f765a3c8a6ec010370c9cc1","4","47","2037","","","","","","","","","<img src= ""rock_img/I_Obsidian_10.jpg"" style=""width:8cm; height:6.260000000000001cm;""><p>What type of rock is this?</p>","4","class_response","1","test","13","Obsidian","Obsidian","10","true","5","5","","","","","","","","","","","","","","","","",""
"","","","","","","","","","","","html-keyboard-response","165","2.0.0","593257","5f765a3c8a6ec010370c9cc1","4","47","null","","","","","","","","","<p style='font-size: 30px;'><strong>Okay</strong></p>","null","neutral_feedback","1","test","13","","","","","","","","","","","","","","","","","","","","","","",""
"","","","","","","","","","","","html-button-response","166","2.0.0","596011","5f765a3c8a6ec010370c9cc1","4","47","2753","","","","","","","","","<img src= ""rock_img/I_Basalt_11.jpg"" style=""width:8cm; height:5.359999999999999cm;""><p>What type of rock is this?</p>","1","class_response","1","test","14","Basalt","Basalt","11","true","2","2","","","","","","","","","","","","","","","","",""
"","","","","","","","","","","","html-keyboard-response","167","2.0.0","596511","5f765a3c8a6ec010370c9cc1","4","47","null","","","","","","","","","<p style='font-size: 30px;'><strong>Okay</strong></p>","null","neutral_feedback","1","test","14","","","","","","","","","","","","","","","","","","","","","","",""
"","","","","","","","","","","","html-button-response","168","2.0.0","599699","5f765a3c8a6ec010370c9cc1","4","47","3186","","","","","","","","","<img src= ""rock_img/I_Andesite_09.jpg"" style=""width:8cm; height:6cm;""><p>What type of rock is this?</p>","0","class_response","1","test","15","Andesite","Andesite","09","true","1","1","","","","","","","","","","","","","","","","",""
"","","","","","","","","","","","html-keyboard-response","169","2.0.0","600201","5f765a3c8a6ec010370c9cc1","4","47","null","","","","","","","","","<p style='font-size: 30px;'><strong>Okay</strong></p>","null","neutral_feedback","1","test","15","","","","","","","","","","","","","","","","","","","","","","",""
"","","","","","","","","","","","html-button-response","170","2.0.0","602702","5f765a3c8a6ec010370c9cc1","4","47","2501","","","","","","","","","<img src= ""rock_img/I_Gabbro_15.jpg"" style=""width:8cm; height:6.29cm;""><p>What type of rock is this?</p>","3","class_response","1","test","16","Gabbro","Gabbro","15","true","4","4","","","","","","","","","","","","","","","","",""
"","","","","","","","","","","","html-keyboard-response","171","2.0.0","603210","5f765a3c8a6ec010370c9cc1","4","47","null","","","","","","","","","<p style='font-size: 30px;'><strong>Okay</strong></p>","null","neutral_feedback","1","test","16","","","","","","","","","","","","","","","","","","","","","","",""
"","","","","","","","","","","","html-button-response","172","2.0.0","605619","5f765a3c8a6ec010370c9cc1","4","47","2408","","","","","","","","","<img src= ""rock_img/I_Obsidian_07.jpg"" style=""width:8cm; height:4.76cm;""><p>What type of rock is this?</p>","4","class_response","1","test","17","Obsidian","Obsidian","07","true","5","5","","","","","","","","","","","","","","","","",""
"","","","","","","","","","","","html-keyboard-response","173","2.0.0","606124","5f765a3c8a6ec010370c9cc1","4","47","null","","","","","","","","","<p style='font-size: 30px;'><strong>Okay</strong></p>","null","neutral_feedback","1","test","17","","","","","","","","","","","","","","","","","","","","","","",""
"","","","","","","","","","","","html-button-response","174","2.0.0","609232","5f765a3c8a6ec010370c9cc1","4","47","3107","","","","","","","","","<img src= ""rock_img/I_Andesite_01.jpg"" style=""width:8cm; height:5.87cm;""><p>What type of rock is this?</p>","0","class_response","1","test","18","Andesite","Andesite","01","true","1","1","","","","","","","","","","","","","","","","",""
"","","","","","","","","","","","html-keyboard-response","175","2.0.0","609735","5f765a3c8a6ec010370c9cc1","4","47","null","","","","","","","","","<p style='font-size: 30px;'><strong>Okay</strong></p>","null","neutral_feedback","1","test","18","","","","","","","","","","","","","","","","","","","","","","",""
"","","","","","","","","","","","html-button-response","176","2.0.0","614004","5f765a3c8a6ec010370c9cc1","4","47","4268","","","","","","","","","<img src= ""rock_img/I_Pegmatite_05.jpg"" style=""width:8cm; height:7.300000000000001cm;""><p>What type of rock is this?</p>","5","class_response","1","test","19","Pegmatite","Pegmatite","05","true","6","6","","","","","","","","","","","","","","","","",""
"","","","","","","","","","","","html-keyboard-response","177","2.0.0","614512","5f765a3c8a6ec010370c9cc1","4","47","null","","","","","","","","","<p style='font-size: 30px;'><strong>Okay</strong></p>","null","neutral_feedback","1","test","19","","","","","","","","","","","","","","","","","","","","","","",""
"","","","","","","","","","","","html-button-response","178","2.0.0","615548","5f765a3c8a6ec010370c9cc1","4","47","1035","","","","","","","","","<img src= ""rock_img/I_Obsidian_04.jpg"" style=""width:8cm; height:6.930000000000001cm;""><p>What type of rock is this?</p>","4","class_response","1","test","20","Obsidian","Obsidian","04","true","5","5","","","","","","","","","","","","","","","","",""
"","","","","","","","","","","","html-keyboard-response","179","2.0.0","616063","5f765a3c8a6ec010370c9cc1","4","47","null","","","","","","","","","<p style='font-size: 30px;'><strong>Okay</strong></p>","null","neutral_feedback","1","test","20","","","","","","","","","","","","","","","","","","","","","","",""
"","","","","","","","","","","","html-button-response","180","2.0.0","617067","5f765a3c8a6ec010370c9cc1","4","47","1003","","","","","","","","","<img src= ""rock_img/I_Basalt_01.jpg"" style=""width:8cm; height:7.880000000000001cm;""><p>What type of rock is this?</p>","1","class_response","1","test","21","Basalt","Basalt","01","true","2","2","","","","","","","","","","","","","","","","",""
"","","","","","","","","","","","html-keyboard-response","181","2.0.0","617582","5f765a3c8a6ec010370c9cc1","4","47","null","","","","","","","","","<p style='font-size: 30px;'><strong>Okay</strong></p>","null","neutral_feedback","1","test","21","","","","","","","","","","","","","","","","","","","","","","",""
"","","","","","","","","","","","html-button-response","182","2.0.0","620584","5f765a3c8a6ec010370c9cc1","4","47","3002","","","","","","","","","<img src= ""rock_img/I_Gabbro_12.jpg"" style=""width:8cm; height:7.800000000000001cm;""><p>What type of rock is this?</p>","3","class_response","1","test","22","Gabbro","Gabbro","12","true","4","4","","","","","","","","","","","","","","","","",""
"","","","","","","","","","","","html-keyboard-response","183","2.0.0","621091","5f765a3c8a6ec010370c9cc1","4","47","null","","","","","","","","","<p style='font-size: 30px;'><strong>Okay</strong></p>","null","neutral_feedback","1","test","22","","","","","","","","","","","","","","","","","","","","","","",""
"","","","","","","","","","","","html-button-response","184","2.0.0","622039","5f765a3c8a6ec010370c9cc1","4","47","947","","","","","","","","","<img src= ""rock_img/I_Basalt_02.jpg"" style=""width:8cm; height:6.45cm;""><p>What type of rock is this?</p>","1","class_response","1","test","23","Basalt","Basalt","02","true","2","2","","","","","","","","","","","","","","","","",""
"","","","","","","","","","","","html-keyboard-response","185","2.0.0","622553","5f765a3c8a6ec010370c9cc1","4","47","null","","","","","","","","","<p style='font-size: 30px;'><strong>Okay</strong></p>","null","neutral_feedback","1","test","23","","","","","","","","","","","","","","","","","","","","","","",""
"","","","","","","","","","","","html-button-response","186","2.0.0","625850","5f765a3c8a6ec010370c9cc1","4","47","3296","","","","","","","","","<img src= ""rock_img/I_Pegmatite_09.jpg"" style=""width:8cm; height:4.03cm;""><p>What type of rock is this?</p>","6","class_response","1","test","24","Peridotite","Pegmatite","09","false","7","6","","","","","","","","","","","","","","","","",""
"","","","","","","","","","","","html-keyboard-response","187","2.0.0","626360","5f765a3c8a6ec010370c9cc1","4","47","null","","","","","","","","","<p style='font-size: 30px;'><strong>Okay</strong></p>","null","neutral_feedback","1","test","24","","","","","","","","","","","","","","","","","","","","","","",""
"","","","","","","","","","","","html-button-response","188","2.0.0","627616","5f765a3c8a6ec010370c9cc1","4","47","1255","","","","","","","","","<img src= ""rock_img/I_Pumice_05.jpg"" style=""width:8cm; height:7.25cm;""><p>What type of rock is this?</p>","7","class_response","1","test","25","Pumice","Pumice","05","true","8","8","","","","","","","","","","","","","","","","",""
"","","","","","","","","","","","html-keyboard-response","189","2.0.0","628121","5f765a3c8a6ec010370c9cc1","4","47","null","","","","","","","","","<p style='font-size: 30px;'><strong>Okay</strong></p>","null","neutral_feedback","1","test","25","","","","","","","","","","","","","","","","","","","","","","",""
"","","","","","","","","","","","html-button-response","190","2.0.0","631261","5f765a3c8a6ec010370c9cc1","4","47","3139","","","","","","","","","<img src= ""rock_img/I_Andesite_04.jpg"" style=""width:8cm; height:5.96cm;""><p>What type of rock is this?</p>","0","class_response","1","test","26","Andesite","Andesite","04","true","1","1","","","","","","","","","","","","","","","","",""
"","","","","","","","","","","","html-keyboard-response","191","2.0.0","631764","5f765a3c8a6ec010370c9cc1","4","47","null","","","","","","","","","<p style='font-size: 30px;'><strong>Okay</strong></p>","null","neutral_feedback","1","test","26","","","","","","","","","","","","","","","","","","","","","","",""
"","","","","","","","","","","","html-button-response","192","2.0.0","635061","5f765a3c8a6ec010370c9cc1","4","47","3296","","","","","","","","","<img src= ""rock_img/I_Andesite_06.jpg"" style=""width:8cm; height:6.840000000000001cm;""><p>What type of rock is this?</p>","2","class_response","1","test","27","Diorite","Andesite","06","false","3","1","","","","","","","","","","","","","","","","",""
"","","","","","","","","","","","html-keyboard-response","193","2.0.0","635567","5f765a3c8a6ec010370c9cc1","4","47","null","","","","","","","","","<p style='font-size: 30px;'><strong>Okay</strong></p>","null","neutral_feedback","1","test","27","","","","","","","","","","","","","","","","","","","","","","",""
"","","","","","","","","","","","html-button-response","194","2.0.0","638130","5f765a3c8a6ec010370c9cc1","4","47","2562","","","","","","","","","<img src= ""rock_img/I_Pegmatite_06.jpg"" style=""width:8cm; height:5.17cm;""><p>What type of rock is this?</p>","5","class_response","1","test","28","Pegmatite","Pegmatite","06","true","6","6","","","","","","","","","","","","","","","","",""
"","","","","","","","","","","","html-keyboard-response","195","2.0.0","638638","5f765a3c8a6ec010370c9cc1","4","47","null","","","","","","","","","<p style='font-size: 30px;'><strong>Okay</strong></p>","null","neutral_feedback","1","test","28","","","","","","","","","","","","","","","","","","","","","","",""
"","","","","","","","","","","","html-button-response","196","2.0.0","640312","5f765a3c8a6ec010370c9cc1","4","47","1673","","","","","","","","","<img src= ""rock_img/I_Peridotite_05.jpg"" style=""width:8cm; height:7.1499999999999995cm;""><p>What type of rock is this?</p>","6","class_response","1","test","29","Peridotite","Peridotite","05","true","7","7","","","","","","","","","","","","","","","","",""
"","","","","","","","","","","","html-keyboard-response","197","2.0.0","640817","5f765a3c8a6ec010370c9cc1","4","47","null","","","","","","","","","<p style='font-size: 30px;'><strong>Okay</strong></p>","null","neutral_feedback","1","test","29","","","","","","","","","","","","","","","","","","","","","","",""
"","","","","","","","","","","","html-button-response","198","2.0.0","642023","5f765a3c8a6ec010370c9cc1","4","47","1205","","","","","","","","","<img src= ""rock_img/I_Obsidian_08.jpg"" style=""width:8cm; height:7.39cm;""><p>What type of rock is this?</p>","4","class_response","1","test","30","Obsidian","Obsidian","08","true","5","5","","","","","","","","","","","","","","","","",""
"","","","","","","","","","","","html-keyboard-response","199","2.0.0","642531","5f765a3c8a6ec010370c9cc1","4","47","null","","","","","","","","","<p style='font-size: 30px;'><strong>Okay</strong></p>","null","neutral_feedback","1","test","30","","","","","","","","","","","","","","","","","","","","","","",""
"","","","","","","","","","","","html-button-response","200","2.0.0","645705","5f765a3c8a6ec010370c9cc1","4","47","3172","","","","","","","","","<img src= ""rock_img/I_Diorite_02.jpg"" style=""width:8cm; height:6.27cm;""><p>What type of rock is this?</p>","2","class_response","1","test","31","Diorite","Diorite","02","true","3","3","","","","","","","","","","","","","","","","",""
"","","","","","","","","","","","html-keyboard-response","201","2.0.0","646206","5f765a3c8a6ec010370c9cc1","4","47","null","","","","","","","","","<p style='font-size: 30px;'><strong>Okay</strong></p>","null","neutral_feedback","1","test","31","","","","","","","","","","","","","","","","","","","","","","",""
"","","","","","","","","","","","html-button-response","202","2.0.0","648198","5f765a3c8a6ec010370c9cc1","4","47","1991","","","","","","","","","<img src= ""rock_img/I_Diorite_06.jpg"" style=""width:8cm; height:6.03cm;""><p>What type of rock is this?</p>","0","class_response","1","test","32","Andesite","Diorite","06","false","1","3","","","","","","","","","","","","","","","","",""
"","","","","","","","","","","","html-keyboard-response","203","2.0.0","648700","5f765a3c8a6ec010370c9cc1","4","47","null","","","","","","","","","<p style='font-size: 30px;'><strong>Okay</strong></p>","null","neutral_feedback","1","test","32","","","","","","","","","","","","","","","","","","","","","","",""
"","","","","","","","","","","","html-button-response","204","2.0.0","650006","5f765a3c8a6ec010370c9cc1","4","47","1305","","","","","","","","","<img src= ""rock_img/I_Pumice_06.jpg"" style=""width:8cm; height:6.9399999999999995cm;""><p>What type of rock is this?</p>","7","class_response","1","test","33","Pumice","Pumice","06","true","8","8","","","","","","","","","","","","","","","","",""
"","","","","","","","","","","","html-keyboard-response","205","2.0.0","650521","5f765a3c8a6ec010370c9cc1","4","47","null","","","","","","","","","<p style='font-size: 30px;'><strong>Okay</strong></p>","null","neutral_feedback","1","test","33","","","","","","","","","","","","","","","","","","","","","","",""
"","","","","","","","","","","","html-button-response","206","2.0.0","651395","5f765a3c8a6ec010370c9cc1","4","47","873","","","","","","","","","<img src= ""rock_img/I_Pumice_08.jpg"" style=""width:8cm; height:6.67cm;""><p>What type of rock is this?</p>","7","class_response","1","test","34","Pumice","Pumice","08","true","8","8","","","","","","","","","","","","","","","","",""
"","","","","","","","","","","","html-keyboard-response","207","2.0.0","651911","5f765a3c8a6ec010370c9cc1","4","47","null","","","","","","","","","<p style='font-size: 30px;'><strong>Okay</strong></p>","null","neutral_feedback","1","test","34","","","","","","","","","","","","","","","","","","","","","","",""
"","","","","","","","","","","","html-button-response","208","2.0.0","655364","5f765a3c8a6ec010370c9cc1","4","47","3453","","","","","","","","","<img src= ""rock_img/I_Pegmatite_03.jpg"" style=""width:8cm; height:5.239999999999999cm;""><p>What type of rock is this?</p>","5","class_response","1","test","35","Pegmatite","Pegmatite","03","true","6","6","","","","","","","","","","","","","","","","",""
"","","","","","","","","","","","html-keyboard-response","209","2.0.0","655867","5f765a3c8a6ec010370c9cc1","4","47","null","","","","","","","","","<p style='font-size: 30px;'><strong>Okay</strong></p>","null","neutral_feedback","1","test","35","","","","","","","","","","","","","","","","","","","","","","",""
"","","","","","","","","","","","html-button-response","210","2.0.0","659415","5f765a3c8a6ec010370c9cc1","4","47","3547","","","","","","","","","<img src= ""rock_img/I_Diorite_08.jpg"" style=""width:8cm; height:6.37cm;""><p>What type of rock is this?</p>","2","class_response","1","test","36","Diorite","Diorite","08","true","3","3","","","","","","","","","","","","","","","","",""
"","","","","","","","","","","","html-keyboard-response","211","2.0.0","659926","5f765a3c8a6ec010370c9cc1","4","47","null","","","","","","","","","<p style='font-size: 30px;'><strong>Okay</strong></p>","null","neutral_feedback","1","test","36","","","","","","","","","","","","","","","","","","","","","","",""
"","","","","","","","","","","","html-button-response","212","2.0.0","663188","5f765a3c8a6ec010370c9cc1","4","47","3262","","","","","","","","","<img src= ""rock_img/I_Peridotite_07.jpg"" style=""width:8cm; height:4.83cm;""><p>What type of rock is this?</p>","6","class_response","1","test","37","Peridotite","Peridotite","07","true","7","7","","","","","","","","","","","","","","","","",""
"","","","","","","","","","","","html-keyboard-response","213","2.0.0","663692","5f765a3c8a6ec010370c9cc1","4","47","null","","","","","","","","","<p style='font-size: 30px;'><strong>Okay</strong></p>","null","neutral_feedback","1","test","37","","","","","","","","","","","","","","","","","","","","","","",""
"","","","","","","","","","","","html-button-response","214","2.0.0","666818","5f765a3c8a6ec010370c9cc1","4","47","3125","","","","","","","","","<img src= ""rock_img/I_Pumice_13.jpg"" style=""width:8cm; height:8.200000000000001cm;""><p>What type of rock is this?</p>","7","class_response","1","test","38","Pumice","Pumice","13","true","8","8","","","","","","","","","","","","","","","","",""
"","","","","","","","","","","","html-keyboard-response","215","2.0.0","667325","5f765a3c8a6ec010370c9cc1","4","47","null","","","","","","","","","<p style='font-size: 30px;'><strong>Okay</strong></p>","null","neutral_feedback","1","test","38","","","","","","","","","","","","","","","","","","","","","","",""
"","","","","","","","","","","","html-button-response","216","2.0.0","669277","5f765a3c8a6ec010370c9cc1","4","47","1951","","","","","","","","","<img src= ""rock_img/I_Diorite_10.jpg"" style=""width:8cm; height:5.949999999999999cm;""><p>What type of rock is this?</p>","6","class_response","1","test","39","Peridotite","Diorite","10","false","7","3","","","","","","","","","","","","","","","","",""
"","","","","","","","","","","","html-keyboard-response","217","2.0.0","669786","5f765a3c8a6ec010370c9cc1","4","47","null","","","","","","","","","<p style='font-size: 30px;'><strong>Okay</strong></p>","null","neutral_feedback","1","test","39","","","","","","","","","","","","","","","","","","","","","","",""
"","","","","","","","","","","","html-button-response","218","2.0.0","672882","5f765a3c8a6ec010370c9cc1","4","47","3095","","","","","","","","","<img src= ""rock_img/I_Pumice_16.jpg"" style=""width:8cm; height:6.79cm;""><p>What type of rock is this?</p>","7","class_response","1","test","40","Pumice","Pumice","16","true","8","8","","","","","","","","","","","","","","","","",""
"","","","","","","","","","","","html-keyboard-response","219","2.0.0","673397","5f765a3c8a6ec010370c9cc1","4","47","null","","","","","","","","","<p style='font-size: 30px;'><strong>Okay</strong></p>","null","neutral_feedback","1","test","40","","","","","","","","","","","","","","","","","","","","","","",""
"","","","","","","","","","","","html-button-response","220","2.0.0","676982","5f765a3c8a6ec010370c9cc1","4","47","3584","","","","","","","","","<img src= ""rock_img/I_Diorite_14.jpg"" style=""width:8cm; height:5.71cm;""><p>What type of rock is this?</p>","2","class_response","1","test","41","Diorite","Diorite","14","true","3","3","","","","","","","","","","","","","","","","",""
"","","","","","","","","","","","html-keyboard-response","221","2.0.0","677483","5f765a3c8a6ec010370c9cc1","4","47","null","","","","","","","","","<p style='font-size: 30px;'><strong>Okay</strong></p>","null","neutral_feedback","1","test","41","","","","","","","","","","","","","","","","","","","","","","",""
"","","","","","","","","","","","html-button-response","222","2.0.0","680347","5f765a3c8a6ec010370c9cc1","4","47","2864","","","","","","","","","<img src= ""rock_img/I_Peridotite_06.jpg"" style=""width:8cm; height:7.53cm;""><p>What type of rock is this?</p>","6","class_response","1","test","42","Peridotite","Peridotite","06","true","7","7","","","","","","","","","","","","","","","","",""
"","","","","","","","","","","","html-keyboard-response","223","2.0.0","680849","5f765a3c8a6ec010370c9cc1","4","47","null","","","","","","","","","<p style='font-size: 30px;'><strong>Okay</strong></p>","null","neutral_feedback","1","test","42","","","","","","","","","","","","","","","","","","","","","","",""
"","","","","","","","","","","","html-button-response","224","2.0.0","686485","5f765a3c8a6ec010370c9cc1","4","47","5635","","","","","","","","","<img src= ""rock_img/I_Andesite_10.jpg"" style=""width:8cm; height:4.16cm;""><p>What type of rock is this?</p>","1","class_response","1","test","43","Basalt","Andesite","10","false","2","1","","","","","","","","","","","","","","","","",""
"","","","","","","","","","","","html-keyboard-response","225","2.0.0","686986","5f765a3c8a6ec010370c9cc1","4","47","null","","","","","","","","","<p style='font-size: 30px;'><strong>Okay</strong></p>","null","neutral_feedback","1","test","43","","","","","","","","","","","","","","","","","","","","","","",""
"","","","","","","","","","","","html-button-response","226","2.0.0","690834","5f765a3c8a6ec010370c9cc1","4","47","3847","","","","","","","","","<img src= ""rock_img/I_Peridotite_04.jpg"" style=""width:8cm; height:6.680000000000001cm;""><p>What type of rock is this?</p>","6","class_response","1","test","44","Peridotite","Peridotite","04","true","7","7","","","","","","","","","","","","","","","","",""
"","","","","","","","","","","","html-keyboard-response","227","2.0.0","691343","5f765a3c8a6ec010370c9cc1","4","47","null","","","","","","","","","<p style='font-size: 30px;'><strong>Okay</strong></p>","null","neutral_feedback","1","test","44","","","","","","","","","","","","","","","","","","","","","","",""
"","","","","","","","","","","","html-button-response","228","2.0.0","696184","5f765a3c8a6ec010370c9cc1","4","47","4840","","","","","","","","","<img src= ""rock_img/I_Peridotite_14.jpg"" style=""width:8cm; height:5.3cm;""><p>What type of rock is this?</p>","6","class_response","1","test","45","Peridotite","Peridotite","14","true","7","7","","","","","","","","","","","","","","","","",""
"","","","","","","","","","","","html-keyboard-response","229","2.0.0","696687","5f765a3c8a6ec010370c9cc1","4","47","null","","","","","","","","","<p style='font-size: 30px;'><strong>Okay</strong></p>","null","neutral_feedback","1","test","45","","","","","","","","","","","","","","","","","","","","","","",""
"","","","","","","","","","","","html-button-response","230","2.0.0","700627","5f765a3c8a6ec010370c9cc1","4","47","3939","","","","","","","","","<img src= ""rock_img/I_Diorite_16.jpg"" style=""width:8cm; height:6.74cm;""><p>What type of rock is this?</p>","2","class_response","1","test","46","Diorite","Diorite","16","true","3","3","","","","","","","","","","","","","","","","",""
"","","","","","","","","","","","html-keyboard-response","231","2.0.0","701143","5f765a3c8a6ec010370c9cc1","4","47","null","","","","","","","","","<p style='font-size: 30px;'><strong>Okay</strong></p>","null","neutral_feedback","1","test","46","","","","","","","","","","","","","","","","","","","","","","",""
"","","","","","","","","","","","html-button-response","232","2.0.0","702168","5f765a3c8a6ec010370c9cc1","4","47","1024","","","","","","","","","<img src= ""rock_img/I_Basalt_09.jpg"" style=""width:8cm; height:6.2cm;""><p>What type of rock is this?</p>","1","class_response","1","test","47","Basalt","Basalt","09","true","2","2","","","","","","","","","","","","","","","","",""
"","","","","","","","","","","","html-keyboard-response","233","2.0.0","702683","5f765a3c8a6ec010370c9cc1","4","47","null","","","","","","","","","<p style='font-size: 30px;'><strong>Okay</strong></p>","null","neutral_feedback","1","test","47","","","","","","","","","","","","","","","","","","","","","","",""
"","","","","","","","","","","","html-button-response","234","2.0.0","706252","5f765a3c8a6ec010370c9cc1","4","47","3568","","","","","","","","","<img src= ""rock_img/I_Peridotite_15.jpg"" style=""width:8cm; height:6cm;""><p>What type of rock is this?</p>","6","class_response","1","test","48","Peridotite","Peridotite","15","true","7","7","","","","","","","","","","","","","","","","",""
"","","","","","","","","","","","html-keyboard-response","235","2.0.0","706754","5f765a3c8a6ec010370c9cc1","4","47","null","","","","","","","","","<p style='font-size: 30px;'><strong>Okay</strong></p>","null","neutral_feedback","1","test","48","","","","","","","","","","","","","","","","","","","","","","",""
"","","","","","","","","","","","html-button-response","236","2.0.0","723169","5f765a3c8a6ec010370c9cc1","4","47","","","","","","","","","","","","cycle_feedback","","","","","","","","","","","","","","","","","","","","","","10200.10000000149","6212.39999999851","","",""
"","","","","","","","","","","","html-button-response","238","2.0.0","724836","5f765a3c8a6ec010370c9cc1","4","47","1665","","","","","","","","","","0","start_train","","","","","","","","","","","","","","","","","","","","","","","","","",""
"","","","","","","","","","","","html-button-response","240","2.0.0","728916","5f765a3c8a6ec010370c9cc1","4","47","4079","","","","","","","","","<img src= ""rock_img/I_Gabbro_03.jpg"" style=""width:8cm; height:8.52cm;""><p>What type of rock is this?</p>","3","class_response","2","train","1","Gabbro","Gabbro","03","true","4","4","","","","","","","","","","","","","","","","",""
"","","","","","","","","","","","html-button-response","241","2.0.0","729847","5f765a3c8a6ec010370c9cc1","4","47","930","","","","","","","","","<img src= rock_img/I_Gabbro_03.jpg style=""width:8cm; height:8.52cm;""><p style='font-size: 30px; color: green;'><strong>Correct!</strong></p><p style='font-size: 30px;'><strong>This rock is gabbro</strong></p>","0","corr_feedback","2","train","1","","","","","","","","","","","","","","","","","","","","","","",""
"","","","","","","","","","","","html-button-response","242","2.0.0","730875","5f765a3c8a6ec010370c9cc1","4","47","1027","","","","","","","","","<img src= ""rock_img/I_Obsidian_02.jpg"" style=""width:8cm; height:7.51cm;""><p>What type of rock is this?</p>","4","class_response","2","train","2","Obsidian","Obsidian","02","true","5","5","","","","","","","","","","","","","","","","",""
"","","","","","","","","","","","html-button-response","243","2.0.0","731337","5f765a3c8a6ec010370c9cc1","4","47","461","","","","","","","","","<img src= rock_img/I_Obsidian_02.jpg style=""width:8cm; height:7.51cm;""><p style='font-size: 30px; color: green;'><strong>Correct!</strong></p><p style='font-size: 30px;'><strong>This rock is obsidian</strong></p>","0","corr_feedback","2","train","2","","","","","","","","","","","","","","","","","","","","","","",""
"","","","","","","","","","","","html-button-response","244","2.0.0","732702","5f765a3c8a6ec010370c9cc1","4","47","1363","","","","","","","","","<img src= ""rock_img/I_Basalt_16.jpg"" style=""width:8cm; height:7.659999999999999cm;""><p>What type of rock is this?</p>","1","class_response","2","train","3","Basalt","Basalt","16","true","2","2","","","","","","","","","","","","","","","","",""
"","","","","","","","","","","","html-button-response","245","2.0.0","733253","5f765a3c8a6ec010370c9cc1","4","47","550","","","","","","","","","<img src= rock_img/I_Basalt_16.jpg style=""width:8cm; height:7.659999999999999cm;""><p style='font-size: 30px; color: green;'><strong>Correct!</strong></p><p style='font-size: 30px;'><strong>This rock is basalt</strong></p>","0","corr_feedback","2","train","3","","","","","","","","","","","","","","","","","","","","","","",""
"","","","","","","","","","","","html-button-response","246","2.0.0","734888","5f765a3c8a6ec010370c9cc1","4","47","1634","","","","","","","","","<img src= ""rock_img/I_Diorite_09.jpg"" style=""width:8cm; height:5.27cm;""><p>What type of rock is this?</p>","2","class_response","2","train","4","Diorite","Diorite","09","true","3","3","","","","","","","","","","","","","","","","",""
"","","","","","","","","","","","html-button-response","247","2.0.0","735338","5f765a3c8a6ec010370c9cc1","4","47","449","","","","","","","","","<img src= rock_img/I_Diorite_09.jpg style=""width:8cm; height:5.27cm;""><p style='font-size: 30px; color: green;'><strong>Correct!</strong></p><p style='font-size: 30px;'><strong>This rock is diorite</strong></p>","0","corr_feedback","2","train","4","","","","","","","","","","","","","","","","","","","","","","",""
"","","","","","","","","","","","html-button-response","248","2.0.0","736718","5f765a3c8a6ec010370c9cc1","4","47","1379","","","","","","","","","<img src= ""rock_img/I_Pegmatite_08.jpg"" style=""width:8cm; height:7.68cm;""><p>What type of rock is this?</p>","5","class_response","2","train","5","Pegmatite","Pegmatite","08","true","6","6","","","","","","","","","","","","","","","","",""
"","","","","","","","","","","","html-button-response","249","2.0.0","737117","5f765a3c8a6ec010370c9cc1","4","47","398","","","","","","","","","<img src= rock_img/I_Pegmatite_08.jpg style=""width:8cm; height:7.68cm;""><p style='font-size: 30px; color: green;'><strong>Correct!</strong></p><p style='font-size: 30px;'><strong>This rock is pegmatite</strong></p>","0","corr_feedback","2","train","5","","","","","","","","","","","","","","","","","","","","","","",""
"","","","","","","","","","","","html-button-response","250","2.0.0","738107","5f765a3c8a6ec010370c9cc1","4","47","988","","","","","","","","","<img src= ""rock_img/I_Obsidian_16.jpg"" style=""width:8cm; height:9.3cm;""><p>What type of rock is this?</p>","4","class_response","2","train","6","Obsidian","Obsidian","16","true","5","5","","","","","","","","","","","","","","","","",""
"","","","","","","","","","","","html-button-response","251","2.0.0","738499","5f765a3c8a6ec010370c9cc1","4","47","392","","","","","","","","","<img src= rock_img/I_Obsidian_16.jpg style=""width:8cm; height:9.3cm;""><p style='font-size: 30px; color: green;'><strong>Correct!</strong></p><p style='font-size: 30px;'><strong>This rock is obsidian</strong></p>","0","corr_feedback","2","train","6","","","","","","","","","","","","","","","","","","","","","","",""
"","","","","","","","","","","","html-button-response","252","2.0.0","739362","5f765a3c8a6ec010370c9cc1","4","47","861","","","","","","","","","<img src= ""rock_img/I_Pumice_04.jpg"" style=""width:8cm; height:6.819999999999999cm;""><p>What type of rock is this?</p>","7","class_response","2","train","7","Pumice","Pumice","04","true","8","8","","","","","","","","","","","","","","","","",""
"","","","","","","","","","","","html-button-response","253","2.0.0","739786","5f765a3c8a6ec010370c9cc1","4","47","424","","","","","","","","","<img src= rock_img/I_Pumice_04.jpg style=""width:8cm; height:6.819999999999999cm;""><p style='font-size: 30px; color: green;'><strong>Correct!</strong></p><p style='font-size: 30px;'><strong>This rock is pumice</strong></p>","0","corr_feedback","2","train","7","","","","","","","","","","","","","","","","","","","","","","",""
"","","","","","","","","","","","html-button-response","254","2.0.0","740636","5f765a3c8a6ec010370c9cc1","4","47","848","","","","","","","","","<img src= ""rock_img/I_Pumice_09.jpg"" style=""width:8cm; height:6.44cm;""><p>What type of rock is this?</p>","7","class_response","2","train","8","Pumice","Pumice","09","true","8","8","","","","","","","","","","","","","","","","",""
"","","","","","","","","","","","html-button-response","255","2.0.0","741026","5f765a3c8a6ec010370c9cc1","4","47","389","","","","","","","","","<img src= rock_img/I_Pumice_09.jpg style=""width:8cm; height:6.44cm;""><p style='font-size: 30px; color: green;'><strong>Correct!</strong></p><p style='font-size: 30px;'><strong>This rock is pumice</strong></p>","0","corr_feedback","2","train","8","","","","","","","","","","","","","","","","","","","","","","",""
"","","","","","","","","","","","html-button-response","256","2.0.0","742736","5f765a3c8a6ec010370c9cc1","4","47","1709","","","","","","","","","<img src= ""rock_img/I_Gabbro_01.jpg"" style=""width:8cm; height:5.21cm;""><p>What type of rock is this?</p>","5","class_response","2","train","9","Pegmatite","Gabbro","01","false","6","4","","","","","","","","","","","","","","","","",""
"","","","","","","","","","","","html-button-response","257","2.0.0","743575","5f765a3c8a6ec010370c9cc1","4","47","838","","","","","","","","","<img src= rock_img/I_Gabbro_01.jpg style=""width:8cm; height:5.21cm;""><p style='font-size: 30px; color: red;'><strong>Incorrect!</strong></p><p style='font-size: 30px;'><strong>This rock is gabbro</strong></p>","0","corr_feedback","2","train","9","","","","","","","","","","","","","","","","","","","","","","",""
"","","","","","","","","","","","html-button-response","258","2.0.0","745263","5f765a3c8a6ec010370c9cc1","4","47","1687","","","","","","","","","<img src= ""rock_img/I_Diorite_13.jpg"" style=""width:8cm; height:6.29cm;""><p>What type of rock is this?</p>","2","class_response","2","train","10","Diorite","Diorite","13","true","3","3","","","","","","","","","","","","","","","","",""
"","","","","","","","","","","","html-button-response","259","2.0.0","745685","5f765a3c8a6ec010370c9cc1","4","47","421","","","","","","","","","<img src= rock_img/I_Diorite_13.jpg style=""width:8cm; height:6.29cm;""><p style='font-size: 30px; color: green;'><strong>Correct!</strong></p><p style='font-size: 30px;'><strong>This rock is diorite</strong></p>","0","corr_feedback","2","train","10","","","","","","","","","","","","","","","","","","","","","","",""
"","","","","","","","","","","","html-button-response","260","2.0.0","746644","5f765a3c8a6ec010370c9cc1","4","47","958","","","","","","","","","<img src= ""rock_img/I_Peridotite_08.jpg"" style=""width:8cm; height:6.7cm;""><p>What type of rock is this?</p>","6","class_response","2","train","11","Peridotite","Peridotite","08","true","7","7","","","","","","","","","","","","","","","","",""
"","","","","","","","","","","","html-button-response","261","2.0.0","747033","5f765a3c8a6ec010370c9cc1","4","47","388","","","","","","","","","<img src= rock_img/I_Peridotite_08.jpg style=""width:8cm; height:6.7cm;""><p style='font-size: 30px; color: green;'><strong>Correct!</strong></p><p style='font-size: 30px;'><strong>This rock is peridotite</strong></p>","0","corr_feedback","2","train","11","","","","","","","","","","","","","","","","","","","","","","",""
"","","","","","","","","","","","html-button-response","262","2.0.0","749354","5f765a3c8a6ec010370c9cc1","4","47","2320","","","","","","","","","<img src= ""rock_img/I_Andesite_16.jpg"" style=""width:8cm; height:6.010000000000001cm;""><p>What type of rock is this?</p>","5","class_response","2","train","12","Pegmatite","Andesite","16","false","6","1","","","","","","","","","","","","","","","","",""
"","","","","","","","","","","","html-button-response","263","2.0.0","750303","5f765a3c8a6ec010370c9cc1","4","47","947","","","","","","","","","<img src= rock_img/I_Andesite_16.jpg style=""width:8cm; height:6.010000000000001cm;""><p style='font-size: 30px; color: red;'><strong>Incorrect!</strong></p><p style='font-size: 30px;'><strong>This rock is andesite</strong></p>","0","corr_feedback","2","train","12","","","","","","","","","","","","","","","","","","","","","","",""
"","","","","","","","","","","","html-button-response","265","2.0.0","751281","5f765a3c8a6ec010370c9cc1","4","47","977","","","","","","","","","","0","start_train","","","","","","","","","","","","","","","","","","","","","","","","","",""
"","","","","","","","","","","","html-button-response","266","2.0.0","756942","5f765a3c8a6ec010370c9cc1","4","47","","","","","","","","","","","","cat_selection","2","train","1","","","","","","","2695.699999999255","2964.300000000745","4","7","Gabbro","Peridotite","","","","","","","","","","",""
"","","","","","","","","","","","paired-cat-display","267","1.0.0","792308","5f765a3c8a6ec010370c9cc1","4","47","","","","","","","","","","","","paired_cat_display","2","train","1","","","","","","","","","","","","","white with green","","5902.20000000298","29461.699999999255","mainly brown and gray with some black speckled in","","","","","",""
"","","","","","","","","","","","html-button-response","268","2.0.0","796632","5f765a3c8a6ec010370c9cc1","4","47","","","","","","","","","","","","cat_selection","2","train","2","","","","","","","3819.5","503.3999999985099","1","3","Andesite","Diorite","","","","","","","","","","",""
"","","","","","","","","","","","paired-cat-display","269","1.0.0","822957","5f765a3c8a6ec010370c9cc1","4","47","","","","","","","","","","","","paired_cat_display","2","train","2","","","","","","","","","","","","","","","7726.199999999255","18597.199999999255","","","","","white speckles throughout","black speckles throughout",""
"","","","","","","","","","","","html-button-response","270","2.0.0","828341","5f765a3c8a6ec010370c9cc1","4","47","","","","","","","","","","","","cat_selection","2","train","3","","","","","","","3864","1519.1000000014901","7","6","Peridotite","Pegmatite","","","","","","","","","","",""
"","","","","","","","","","","","paired-cat-display","271","1.0.0","845379","5f765a3c8a6ec010370c9cc1","4","47","","","","","","","","","","","","paired_cat_display","2","train","3","","","","","","","","","","","","","green speckles with gray","black chunks with white ","5931.599999997765","11104.800000000745","","","","","","",""
"","","","","","","","","","","","html-button-response","273","2.0.0","846528","5f765a3c8a6ec010370c9cc1","4","47","1148","","","","","","","","","","0","start_test","","","","","","","","","","","","","","","","","","","","","","","","","",""
"","","","","","","","","","","","html-button-response","274","2.0.0","851460","5f765a3c8a6ec010370c9cc1","4","47","4931","","","","","","","","","<img src= ""rock_img/I_Peridotite_15.jpg"" style=""width:8cm; height:6cm;""><p>What type of rock is this?</p>","6","class_response","2","test","1","Peridotite","Peridotite","15","true","7","7","","","","","","","","","","","","","","","","",""
"","","","","","","","","","","","html-keyboard-response","275","2.0.0","851961","5f765a3c8a6ec010370c9cc1","4","47","null","","","","","","","","","<p style='font-size: 30px;'><strong>Okay</strong></p>","null","neutral_feedback","2","test","1","","","","","","","","","","","","","","","","","","","","","","",""
"","","","","","","","","","","","html-button-response","276","2.0.0","852999","5f765a3c8a6ec010370c9cc1","4","47","1037","","","","","","","","","<img src= ""rock_img/I_Pumice_08.jpg"" style=""width:8cm; height:6.67cm;""><p>What type of rock is this?</p>","7","class_response","2","test","2","Pumice","Pumice","08","true","8","8","","","","","","","","","","","","","","","","",""
"","","","","","","","","","","","html-keyboard-response","277","2.0.0","853514","5f765a3c8a6ec010370c9cc1","4","47","null","","","","","","","","","<p style='font-size: 30px;'><strong>Okay</strong></p>","null","neutral_feedback","2","test","2","","","","","","","","","","","","","","","","","","","","","","",""
"","","","","","","","","","","","html-button-response","278","2.0.0","858434","5f765a3c8a6ec010370c9cc1","4","47","4918","","","","","","","","","<img src= ""rock_img/I_Andesite_06.jpg"" style=""width:8cm; height:6.840000000000001cm;""><p>What type of rock is this?</p>","0","class_response","2","test","3","Andesite","Andesite","06","true","1","1","","","","","","","","","","","","","","","","",""
"","","","","","","","","","","","html-keyboard-response","279","2.0.0","858944","5f765a3c8a6ec010370c9cc1","4","47","null","","","","","","","","","<p style='font-size: 30px;'><strong>Okay</strong></p>","null","neutral_feedback","2","test","3","","","","","","","","","","","","","","","","","","","","","","",""
"","","","","","","","","","","","html-button-response","280","2.0.0","863161","5f765a3c8a6ec010370c9cc1","4","47","4215","","","","","","","","","<img src= ""rock_img/I_Diorite_10.jpg"" style=""width:8cm; height:5.949999999999999cm;""><p>What type of rock is this?</p>","2","class_response","2","test","4","Diorite","Diorite","10","true","3","3","","","","","","","","","","","","","","","","",""
