"width","height","webaudio","browser","browser_version","mobile","os","fullscreen","vsync_rate","webcam","microphone","trial_type","trial_index","plugin_version","time_elapsed","subjID","condition","stimID","rt","url","success","value","timeout","failed_images","failed_audio","failed_video","view_history","stimulus","response","trialType","cycle","phase","trial","resp","cat","token","corr","resp_num","cat_num","rt_ref","rt_paired","ref_cat_num","paired_cat_num","ref_cat","paired_cat","text_Pegmatite","text_Andesite","time_obs","time_resp","text_Diorite","text_Peridotite","time_fb1","time_fb2","text_Obsidian","text_Gabbro","text_Basalt","text_Pumice"
"1366","633","true","chrome","130.0.0","false","Windows 10","true","58.82","true","true","browser-check","0","2.0.0","1032","5b0fa626bd9c310001568d6c","4","9","","","","","","","","","","","","","","","","","","","","","","","","","","","","","","","","","","","","","","",""
"","","","","","","","","","","","external-html","1","2.0.0","23278","5b0fa626bd9c310001568d6c","4","9","22162","consent_form.html","","","","","","","","","","","","","","","","","","","","","","","","","","","","","","","","","","","","",""
"","","","","","","","","","","","fullscreen","2","2.0.0","25835","5b0fa626bd9c310001568d6c","4","9","1554","","true","","","","","","","","","","","","","","","","","","","","","","","","","","","","","","","","","","","",""
"","","","","","","","","","","","call-function","3","2.0.0","25839","5b0fa626bd9c310001568d6c","4","9","","","","{}","","","","","","","","","","","","","","","","","","","","","","","","","","","","","","","","","","",""
"","","","","","","","","","","","preload","4","2.0.0","29266","5b0fa626bd9c310001568d6c","4","9","","","true","","false","[]","[]","[]","","","","","","","","","","","","","","","","","","","","","","","","","","","","","","",""
"","","","","","","","","","","","instructions","5","2.0.0","69586","5b0fa626bd9c310001568d6c","4","9","40319","","","","","","","","[{""page_index"":0,""viewing_time"":8426},{""page_index"":1,""viewing_time"":19095},{""page_index"":2,""viewing_time"":12798}]","","","","","","","","","","","","","","","","","","","","","","","","","","","","","",""
"","","","","","","","","","","","html-button-response","6","2.0.0","73941","5b0fa626bd9c310001568d6c","4","9","4354","","","","","","","","","","0","start_test","","","","","","","","","","","","","","","","","","","","","","","","","","",""
"","","","","","","","","","","","html-button-response","7","2.0.0","118693","5b0fa626bd9c310001568d6c","4","9","44748","","","","","","","","","<img src= ""rock_img/I_Peridotite_10.jpg"" style=""width:8cm; height:5.390000000000001cm;""><p>What type of rock is this?</p>","1","class_response","0","test","1","Basalt","Peridotite","10","false","2","7","","","","","","","","","","","","","","","","","",""
"","","","","","","","","","","","html-keyboard-response","8","2.0.0","119199","5b0fa626bd9c310001568d6c","4","9","null","","","","","","","","","<p style='font-size: 30px;'><strong>Okay</strong></p>","null","neutral_feedback","0","test","1","","","","","","","","","","","","","","","","","","","","","","","",""
"","","","","","","","","","","","html-button-response","9","2.0.0","123873","5b0fa626bd9c310001568d6c","4","9","4671","","","","","","","","","<img src= ""rock_img/I_Gabbro_01.jpg"" style=""width:8cm; height:5.21cm;""><p>What type of rock is this?</p>","5","class_response","0","test","2","Pegmatite","Gabbro","01","false","6","4","","","","","","","","","","","","","","","","","",""
"","","","","","","","","","","","html-keyboard-response","10","2.0.0","124387","5b0fa626bd9c310001568d6c","4","9","null","","","","","","","","","<p style='font-size: 30px;'><strong>Okay</strong></p>","null","neutral_feedback","0","test","2","","","","","","","","","","","","","","","","","","","","","","","",""
"","","","","","","","","","","","html-button-response","11","2.0.0","128175","5b0fa626bd9c310001568d6c","4","9","3785","","","","","","","","","<img src= ""rock_img/I_Gabbro_16.jpg"" style=""width:8cm; height:6.44cm;""><p>What type of rock is this?</p>","3","class_response","0","test","3","Gabbro","Gabbro","16","true","4","4","","","","","","","","","","","","","","","","","",""
"","","","","","","","","","","","html-keyboard-response","12","2.0.0","128677","5b0fa626bd9c310001568d6c","4","9","null","","","","","","","","","<p style='font-size: 30px;'><strong>Okay</strong></p>","null","neutral_feedback","0","test","3","","","","","","","","","","","","","","","","","","","","","","","",""
"","","","","","","","","","","","html-button-response","13","2.0.0","131367","5b0fa626bd9c310001568d6c","4","9","2688","","","","","","","","","<img src= ""rock_img/I_Pumice_08.jpg"" style=""width:8cm; height:6.67cm;""><p>What type of rock is this?</p>","0","class_response","0","test","4","Andesite","Pumice","08","false","1","8","","","","","","","","","","","","","","","","","",""
"","","","","","","","","","","","html-keyboard-response","14","2.0.0","131868","5b0fa626bd9c310001568d6c","4","9","null","","","","","","","","","<p style='font-size: 30px;'><strong>Okay</strong></p>","null","neutral_feedback","0","test","4","","","","","","","","","","","","","","","","","","","","","","","",""
"","","","","","","","","","","","html-button-response","15","2.0.0","141156","5b0fa626bd9c310001568d6c","4","9","9286","","","","","","","","","<img src= ""rock_img/I_Pegmatite_13.jpg"" style=""width:8cm; height:4.95cm;""><p>What type of rock is this?</p>","6","class_response","0","test","5","Peridotite","Pegmatite","13","false","7","6","","","","","","","","","","","","","","","","","",""
"","","","","","","","","","","","html-keyboard-response","16","2.0.0","141659","5b0fa626bd9c310001568d6c","4","9","null","","","","","","","","","<p style='font-size: 30px;'><strong>Okay</strong></p>","null","neutral_feedback","0","test","5","","","","","","","","","","","","","","","","","","","","","","","",""
"","","","","","","","","","","","html-button-response","17","2.0.0","143717","5b0fa626bd9c310001568d6c","4","9","2055","","","","","","","","","<img src= ""rock_img/I_Diorite_08.jpg"" style=""width:8cm; height:6.37cm;""><p>What type of rock is this?</p>","7","class_response","0","test","6","Pumice","Diorite","08","false","8","3","","","","","","","","","","","","","","","","","",""
"","","","","","","","","","","","html-keyboard-response","18","2.0.0","144219","5b0fa626bd9c310001568d6c","4","9","null","","","","","","","","","<p style='font-size: 30px;'><strong>Okay</strong></p>","null","neutral_feedback","0","test","6","","","","","","","","","","","","","","","","","","","","","","","",""
"","","","","","","","","","","","html-button-response","19","2.0.0","148548","5b0fa626bd9c310001568d6c","4","9","4327","","","","","","","","","<img src= ""rock_img/I_Andesite_03.jpg"" style=""width:8cm; height:5.73cm;""><p>What type of rock is this?</p>","5","class_response","0","test","7","Pegmatite","Andesite","03","false","6","1","","","","","","","","","","","","","","","","","",""
"","","","","","","","","","","","html-keyboard-response","20","2.0.0","149051","5b0fa626bd9c310001568d6c","4","9","null","","","","","","","","","<p style='font-size: 30px;'><strong>Okay</strong></p>","null","neutral_feedback","0","test","7","","","","","","","","","","","","","","","","","","","","","","","",""
"","","","","","","","","","","","html-button-response","21","2.0.0","151326","5b0fa626bd9c310001568d6c","4","9","2273","","","","","","","","","<img src= ""rock_img/I_Gabbro_13.jpg"" style=""width:8cm; height:5.08cm;""><p>What type of rock is this?</p>","2","class_response","0","test","8","Diorite","Gabbro","13","false","3","4","","","","","","","","","","","","","","","","","",""
"","","","","","","","","","","","html-keyboard-response","22","2.0.0","151828","5b0fa626bd9c310001568d6c","4","9","null","","","","","","","","","<p style='font-size: 30px;'><strong>Okay</strong></p>","null","neutral_feedback","0","test","8","","","","","","","","","","","","","","","","","","","","","","","",""
"","","","","","","","","","","","html-button-response","23","2.0.0","154422","5b0fa626bd9c310001568d6c","4","9","2592","","","","","","","","","<img src= ""rock_img/I_Peridotite_14.jpg"" style=""width:8cm; height:5.3cm;""><p>What type of rock is this?</p>","3","class_response","0","test","9","Gabbro","Peridotite","14","false","4","7","","","","","","","","","","","","","","","","","",""
"","","","","","","","","","","","html-keyboard-response","24","2.0.0","154924","5b0fa626bd9c310001568d6c","4","9","null","","","","","","","","","<p style='font-size: 30px;'><strong>Okay</strong></p>","null","neutral_feedback","0","test","9","","","","","","","","","","","","","","","","","","","","","","","",""
"","","","","","","","","","","","html-button-response","25","2.0.0","157478","5b0fa626bd9c310001568d6c","4","9","2553","","","","","","","","","<img src= ""rock_img/I_Diorite_09.jpg"" style=""width:8cm; height:5.27cm;""><p>What type of rock is this?</p>","4","class_response","0","test","10","Obsidian","Diorite","09","false","5","3","","","","","","","","","","","","","","","","","",""
"","","","","","","","","","","","html-keyboard-response","26","2.0.0","157981","5b0fa626bd9c310001568d6c","4","9","null","","","","","","","","","<p style='font-size: 30px;'><strong>Okay</strong></p>","null","neutral_feedback","0","test","10","","","","","","","","","","","","","","","","","","","","","","","",""
"","","","","","","","","","","","html-button-response","27","2.0.0","160104","5b0fa626bd9c310001568d6c","4","9","2122","","","","","","","","","<img src= ""rock_img/I_Peridotite_07.jpg"" style=""width:8cm; height:4.83cm;""><p>What type of rock is this?</p>","7","class_response","0","test","11","Pumice","Peridotite","07","false","8","7","","","","","","","","","","","","","","","","","",""
"","","","","","","","","","","","html-keyboard-response","28","2.0.0","160606","5b0fa626bd9c310001568d6c","4","9","null","","","","","","","","","<p style='font-size: 30px;'><strong>Okay</strong></p>","null","neutral_feedback","0","test","11","","","","","","","","","","","","","","","","","","","","","","","",""
"","","","","","","","","","","","html-button-response","29","2.0.0","165633","5b0fa626bd9c310001568d6c","4","9","5025","","","","","","","","","<img src= ""rock_img/I_Obsidian_14.jpg"" style=""width:8cm; height:7.64cm;""><p>What type of rock is this?</p>","1","class_response","0","test","12","Basalt","Obsidian","14","false","2","5","","","","","","","","","","","","","","","","","",""
"","","","","","","","","","","","html-keyboard-response","30","2.0.0","166141","5b0fa626bd9c310001568d6c","4","9","null","","","","","","","","","<p style='font-size: 30px;'><strong>Okay</strong></p>","null","neutral_feedback","0","test","12","","","","","","","","","","","","","","","","","","","","","","","",""
"","","","","","","","","","","","html-button-response","31","2.0.0","170974","5b0fa626bd9c310001568d6c","4","9","4830","","","","","","","","","<img src= ""rock_img/I_Andesite_09.jpg"" style=""width:8cm; height:6cm;""><p>What type of rock is this?</p>","4","class_response","0","test","13","Obsidian","Andesite","09","false","5","1","","","","","","","","","","","","","","","","","",""
"","","","","","","","","","","","html-keyboard-response","32","2.0.0","171475","5b0fa626bd9c310001568d6c","4","9","null","","","","","","","","","<p style='font-size: 30px;'><strong>Okay</strong></p>","null","neutral_feedback","0","test","13","","","","","","","","","","","","","","","","","","","","","","","",""
"","","","","","","","","","","","html-button-response","33","2.0.0","173728","5b0fa626bd9c310001568d6c","4","9","2251","","","","","","","","","<img src= ""rock_img/I_Basalt_14.jpg"" style=""width:8cm; height:5.82cm;""><p>What type of rock is this?</p>","5","class_response","0","test","14","Pegmatite","Basalt","14","false","6","2","","","","","","","","","","","","","","","","","",""
"","","","","","","","","","","","html-keyboard-response","34","2.0.0","174243","5b0fa626bd9c310001568d6c","4","9","null","","","","","","","","","<p style='font-size: 30px;'><strong>Okay</strong></p>","null","neutral_feedback","0","test","14","","","","","","","","","","","","","","","","","","","","","","","",""
"","","","","","","","","","","","html-button-response","35","2.0.0","178126","5b0fa626bd9c310001568d6c","4","9","3881","","","","","","","","","<img src= ""rock_img/I_Pegmatite_05.jpg"" style=""width:8cm; height:7.300000000000001cm;""><p>What type of rock is this?</p>","0","class_response","0","test","15","Andesite","Pegmatite","05","false","1","6","","","","","","","","","","","","","","","","","",""
"","","","","","","","","","","","html-keyboard-response","36","2.0.0","178627","5b0fa626bd9c310001568d6c","4","9","null","","","","","","","","","<p style='font-size: 30px;'><strong>Okay</strong></p>","null","neutral_feedback","0","test","15","","","","","","","","","","","","","","","","","","","","","","","",""
"","","","","","","","","","","","html-button-response","37","2.0.0","180239","5b0fa626bd9c310001568d6c","4","9","1611","","","","","","","","","<img src= ""rock_img/I_Diorite_10.jpg"" style=""width:8cm; height:5.949999999999999cm;""><p>What type of rock is this?</p>","7","class_response","0","test","16","Pumice","Diorite","10","false","8","3","","","","","","","","","","","","","","","","","",""
"","","","","","","","","","","","html-keyboard-response","38","2.0.0","180741","5b0fa626bd9c310001568d6c","4","9","null","","","","","","","","","<p style='font-size: 30px;'><strong>Okay</strong></p>","null","neutral_feedback","0","test","16","","","","","","","","","","","","","","","","","","","","","","","",""
"","","","","","","","","","","","html-button-response","39","2.0.0","182597","5b0fa626bd9c310001568d6c","4","9","1854","","","","","","","","","<img src= ""rock_img/I_Obsidian_11.jpg"" style=""width:8cm; height:6.05cm;""><p>What type of rock is this?</p>","4","class_response","0","test","17","Obsidian","Obsidian","11","true","5","5","","","","","","","","","","","","","","","","","",""
"","","","","","","","","","","","html-keyboard-response","40","2.0.0","183100","5b0fa626bd9c310001568d6c","4","9","null","","","","","","","","","<p style='font-size: 30px;'><strong>Okay</strong></p>","null","neutral_feedback","0","test","17","","","","","","","","","","","","","","","","","","","","","","","",""
"","","","","","","","","","","","html-button-response","41","2.0.0","185787","5b0fa626bd9c310001568d6c","4","9","2685","","","","","","","","","<img src= ""rock_img/I_Gabbro_12.jpg"" style=""width:8cm; height:7.800000000000001cm;""><p>What type of rock is this?</p>","5","class_response","0","test","18","Pegmatite","Gabbro","12","false","6","4","","","","","","","","","","","","","","","","","",""
"","","","","","","","","","","","html-keyboard-response","42","2.0.0","186289","5b0fa626bd9c310001568d6c","4","9","null","","","","","","","","","<p style='font-size: 30px;'><strong>Okay</strong></p>","null","neutral_feedback","0","test","18","","","","","","","","","","","","","","","","","","","","","","","",""
"","","","","","","","","","","","html-button-response","43","2.0.0","187791","5b0fa626bd9c310001568d6c","4","9","1500","","","","","","","","","<img src= ""rock_img/I_Pumice_10.jpg"" style=""width:8cm; height:7.609999999999999cm;""><p>What type of rock is this?</p>","7","class_response","0","test","19","Pumice","Pumice","10","true","8","8","","","","","","","","","","","","","","","","","",""
"","","","","","","","","","","","html-keyboard-response","44","2.0.0","188295","5b0fa626bd9c310001568d6c","4","9","null","","","","","","","","","<p style='font-size: 30px;'><strong>Okay</strong></p>","null","neutral_feedback","0","test","19","","","","","","","","","","","","","","","","","","","","","","","",""
"","","","","","","","","","","","html-button-response","45","2.0.0","190107","5b0fa626bd9c310001568d6c","4","9","1811","","","","","","","","","<img src= ""rock_img/I_Peridotite_12.jpg"" style=""width:8cm; height:4.54cm;""><p>What type of rock is this?</p>","3","class_response","0","test","20","Gabbro","Peridotite","12","false","4","7","","","","","","","","","","","","","","","","","",""
"","","","","","","","","","","","html-keyboard-response","46","2.0.0","190610","5b0fa626bd9c310001568d6c","4","9","null","","","","","","","","","<p style='font-size: 30px;'><strong>Okay</strong></p>","null","neutral_feedback","0","test","20","","","","","","","","","","","","","","","","","","","","","","","",""
"","","","","","","","","","","","html-button-response","47","2.0.0","192633","5b0fa626bd9c310001568d6c","4","9","2020","","","","","","","","","<img src= ""rock_img/I_Pegmatite_15.jpg"" style=""width:8cm; height:6cm;""><p>What type of rock is this?</p>","5","class_response","0","test","21","Pegmatite","Pegmatite","15","true","6","6","","","","","","","","","","","","","","","","","",""
"","","","","","","","","","","","html-keyboard-response","48","2.0.0","193134","5b0fa626bd9c310001568d6c","4","9","null","","","","","","","","","<p style='font-size: 30px;'><strong>Okay</strong></p>","null","neutral_feedback","0","test","21","","","","","","","","","","","","","","","","","","","","","","","",""
"","","","","","","","","","","","html-button-response","49","2.0.0","195449","5b0fa626bd9c310001568d6c","4","9","2312","","","","","","","","","<img src= ""rock_img/I_Obsidian_06.jpg"" style=""width:8cm; height:6.8cm;""><p>What type of rock is this?</p>","4","class_response","0","test","22","Obsidian","Obsidian","06","true","5","5","","","","","","","","","","","","","","","","","",""
"","","","","","","","","","","","html-keyboard-response","50","2.0.0","195951","5b0fa626bd9c310001568d6c","4","9","null","","","","","","","","","<p style='font-size: 30px;'><strong>Okay</strong></p>","null","neutral_feedback","0","test","22","","","","","","","","","","","","","","","","","","","","","","","",""
"","","","","","","","","","","","html-button-response","51","2.0.0","197687","5b0fa626bd9c310001568d6c","4","9","1735","","","","","","","","","<img src= ""rock_img/I_Andesite_05.jpg"" style=""width:8cm; height:4.12cm;""><p>What type of rock is this?</p>","7","class_response","0","test","23","Pumice","Andesite","05","false","8","1","","","","","","","","","","","","","","","","","",""
"","","","","","","","","","","","html-keyboard-response","52","2.0.0","198189","5b0fa626bd9c310001568d6c","4","9","null","","","","","","","","","<p style='font-size: 30px;'><strong>Okay</strong></p>","null","neutral_feedback","0","test","23","","","","","","","","","","","","","","","","","","","","","","","",""
"","","","","","","","","","","","html-button-response","53","2.0.0","200135","5b0fa626bd9c310001568d6c","4","9","1944","","","","","","","","","<img src= ""rock_img/I_Pumice_15.jpg"" style=""width:8cm; height:7.86cm;""><p>What type of rock is this?</p>","7","class_response","0","test","24","Pumice","Pumice","15","true","8","8","","","","","","","","","","","","","","","","","",""
"","","","","","","","","","","","html-keyboard-response","54","2.0.0","200637","5b0fa626bd9c310001568d6c","4","9","null","","","","","","","","","<p style='font-size: 30px;'><strong>Okay</strong></p>","null","neutral_feedback","0","test","24","","","","","","","","","","","","","","","","","","","","","","","",""
"","","","","","","","","","","","html-button-response","55","2.0.0","203651","5b0fa626bd9c310001568d6c","4","9","3013","","","","","","","","","<img src= ""rock_img/I_Andesite_07.jpg"" style=""width:8cm; height:5.93cm;""><p>What type of rock is this?</p>","1","class_response","0","test","25","Basalt","Andesite","07","false","2","1","","","","","","","","","","","","","","","","","",""
"","","","","","","","","","","","html-keyboard-response","56","2.0.0","204167","5b0fa626bd9c310001568d6c","4","9","null","","","","","","","","","<p style='font-size: 30px;'><strong>Okay</strong></p>","null","neutral_feedback","0","test","25","","","","","","","","","","","","","","","","","","","","","","","",""
"","","","","","","","","","","","html-button-response","57","2.0.0","206083","5b0fa626bd9c310001568d6c","4","9","1914","","","","","","","","","<img src= ""rock_img/I_Basalt_08.jpg"" style=""width:8cm; height:10.44cm;""><p>What type of rock is this?</p>","2","class_response","0","test","26","Diorite","Basalt","08","false","3","2","","","","","","","","","","","","","","","","","",""
"","","","","","","","","","","","html-keyboard-response","58","2.0.0","206601","5b0fa626bd9c310001568d6c","4","9","null","","","","","","","","","<p style='font-size: 30px;'><strong>Okay</strong></p>","null","neutral_feedback","0","test","26","","","","","","","","","","","","","","","","","","","","","","","",""
"","","","","","","","","","","","html-button-response","59","2.0.0","207939","5b0fa626bd9c310001568d6c","4","9","1336","","","","","","","","","<img src= ""rock_img/I_Basalt_06.jpg"" style=""width:8cm; height:7.06cm;""><p>What type of rock is this?</p>","2","class_response","0","test","27","Diorite","Basalt","06","false","3","2","","","","","","","","","","","","","","","","","",""
"","","","","","","","","","","","html-keyboard-response","60","2.0.0","208441","5b0fa626bd9c310001568d6c","4","9","null","","","","","","","","","<p style='font-size: 30px;'><strong>Okay</strong></p>","null","neutral_feedback","0","test","27","","","","","","","","","","","","","","","","","","","","","","","",""
"","","","","","","","","","","","html-button-response","61","2.0.0","210095","5b0fa626bd9c310001568d6c","4","9","1653","","","","","","","","","<img src= ""rock_img/I_Pumice_13.jpg"" style=""width:8cm; height:8.200000000000001cm;""><p>What type of rock is this?</p>","7","class_response","0","test","28","Pumice","Pumice","13","true","8","8","","","","","","","","","","","","","","","","","",""
"","","","","","","","","","","","html-keyboard-response","62","2.0.0","210598","5b0fa626bd9c310001568d6c","4","9","null","","","","","","","","","<p style='font-size: 30px;'><strong>Okay</strong></p>","null","neutral_feedback","0","test","28","","","","","","","","","","","","","","","","","","","","","","","",""
"","","","","","","","","","","","html-button-response","63","2.0.0","213823","5b0fa626bd9c310001568d6c","4","9","3223","","","","","","","","","<img src= ""rock_img/I_Peridotite_16.jpg"" style=""width:8cm; height:6.989999999999999cm;""><p>What type of rock is this?</p>","0","class_response","0","test","29","Andesite","Peridotite","16","false","1","7","","","","","","","","","","","","","","","","","",""
"","","","","","","","","","","","html-keyboard-response","64","2.0.0","214328","5b0fa626bd9c310001568d6c","4","9","null","","","","","","","","","<p style='font-size: 30px;'><strong>Okay</strong></p>","null","neutral_feedback","0","test","29","","","","","","","","","","","","","","","","","","","","","","","",""
"","","","","","","","","","","","html-button-response","65","2.0.0","216041","5b0fa626bd9c310001568d6c","4","9","1711","","","","","","","","","<img src= ""rock_img/I_Pegmatite_11.jpg"" style=""width:8cm; height:8.14cm;""><p>What type of rock is this?</p>","3","class_response","0","test","30","Gabbro","Pegmatite","11","false","4","6","","","","","","","","","","","","","","","","","",""
"","","","","","","","","","","","html-keyboard-response","66","2.0.0","216547","5b0fa626bd9c310001568d6c","4","9","null","","","","","","","","","<p style='font-size: 30px;'><strong>Okay</strong></p>","null","neutral_feedback","0","test","30","","","","","","","","","","","","","","","","","","","","","","","",""
"","","","","","","","","","","","html-button-response","67","2.0.0","218359","5b0fa626bd9c310001568d6c","4","9","1810","","","","","","","","","<img src= ""rock_img/I_Andesite_11.jpg"" style=""width:8cm; height:4.92cm;""><p>What type of rock is this?</p>","2","class_response","0","test","31","Diorite","Andesite","11","false","3","1","","","","","","","","","","","","","","","","","",""
"","","","","","","","","","","","html-keyboard-response","68","2.0.0","218866","5b0fa626bd9c310001568d6c","4","9","null","","","","","","","","","<p style='font-size: 30px;'><strong>Okay</strong></p>","null","neutral_feedback","0","test","31","","","","","","","","","","","","","","","","","","","","","","","",""
"","","","","","","","","","","","html-button-response","69","2.0.0","220399","5b0fa626bd9c310001568d6c","4","9","1531","","","","","","","","","<img src= ""rock_img/I_Peridotite_02.jpg"" style=""width:8cm; height:5.859999999999999cm;""><p>What type of rock is this?</p>","6","class_response","0","test","32","Peridotite","Peridotite","02","true","7","7","","","","","","","","","","","","","","","","","",""
"","","","","","","","","","","","html-keyboard-response","70","2.0.0","220906","5b0fa626bd9c310001568d6c","4","9","null","","","","","","","","","<p style='font-size: 30px;'><strong>Okay</strong></p>","null","neutral_feedback","0","test","32","","","","","","","","","","","","","","","","","","","","","","","",""
"","","","","","","","","","","","html-button-response","71","2.0.0","226111","5b0fa626bd9c310001568d6c","4","9","5202","","","","","","","","","<img src= ""rock_img/I_Diorite_07.jpg"" style=""width:8cm; height:5.239999999999999cm;""><p>What type of rock is this?</p>","1","class_response","0","test","33","Basalt","Diorite","07","false","2","3","","","","","","","","","","","","","","","","","",""
"","","","","","","","","","","","html-keyboard-response","72","2.0.0","226626","5b0fa626bd9c310001568d6c","4","9","null","","","","","","","","","<p style='font-size: 30px;'><strong>Okay</strong></p>","null","neutral_feedback","0","test","33","","","","","","","","","","","","","","","","","","","","","","","",""
"","","","","","","","","","","","html-button-response","73","2.0.0","228271","5b0fa626bd9c310001568d6c","4","9","1643","","","","","","","","","<img src= ""rock_img/I_Gabbro_15.jpg"" style=""width:8cm; height:6.29cm;""><p>What type of rock is this?</p>","7","class_response","0","test","34","Pumice","Gabbro","15","false","8","4","","","","","","","","","","","","","","","","","",""
"","","","","","","","","","","","html-keyboard-response","74","2.0.0","228778","5b0fa626bd9c310001568d6c","4","9","null","","","","","","","","","<p style='font-size: 30px;'><strong>Okay</strong></p>","null","neutral_feedback","0","test","34","","","","","","","","","","","","","","","","","","","","","","","",""
"","","","","","","","","","","","html-button-response","75","2.0.0","230323","5b0fa626bd9c310001568d6c","4","9","1542","","","","","","","","","<img src= ""rock_img/I_Diorite_13.jpg"" style=""width:8cm; height:6.29cm;""><p>What type of rock is this?</p>","1","class_response","0","test","35","Basalt","Diorite","13","false","2","3","","","","","","","","","","","","","","","","","",""
"","","","","","","","","","","","html-keyboard-response","76","2.0.0","230836","5b0fa626bd9c310001568d6c","4","9","null","","","","","","","","","<p style='font-size: 30px;'><strong>Okay</strong></p>","null","neutral_feedback","0","test","35","","","","","","","","","","","","","","","","","","","","","","","",""
"","","","","","","","","","","","html-button-response","77","2.0.0","232119","5b0fa626bd9c310001568d6c","4","9","1280","","","","","","","","","<img src= ""rock_img/I_Pumice_06.jpg"" style=""width:8cm; height:6.9399999999999995cm;""><p>What type of rock is this?</p>","7","class_response","0","test","36","Pumice","Pumice","06","true","8","8","","","","","","","","","","","","","","","","","",""
"","","","","","","","","","","","html-keyboard-response","78","2.0.0","232626","5b0fa626bd9c310001568d6c","4","9","null","","","","","","","","","<p style='font-size: 30px;'><strong>Okay</strong></p>","null","neutral_feedback","0","test","36","","","","","","","","","","","","","","","","","","","","","","","",""
"","","","","","","","","","","","html-button-response","79","2.0.0","234483","5b0fa626bd9c310001568d6c","4","9","1854","","","","","","","","","<img src= ""rock_img/I_Obsidian_05.jpg"" style=""width:8cm; height:6.33cm;""><p>What type of rock is this?</p>","0","class_response","0","test","37","Andesite","Obsidian","05","false","1","5","","","","","","","","","","","","","","","","","",""
"","","","","","","","","","","","html-keyboard-response","80","2.0.0","234991","5b0fa626bd9c310001568d6c","4","9","null","","","","","","","","","<p style='font-size: 30px;'><strong>Okay</strong></p>","null","neutral_feedback","0","test","37","","","","","","","","","","","","","","","","","","","","","","","",""
"","","","","","","","","","","","html-button-response","81","2.0.0","237607","5b0fa626bd9c310001568d6c","4","9","2613","","","","","","","","","<img src= ""rock_img/I_Basalt_02.jpg"" style=""width:8cm; height:6.45cm;""><p>What type of rock is this?</p>","2","class_response","0","test","38","Diorite","Basalt","02","false","3","2","","","","","","","","","","","","","","","","","",""
"","","","","","","","","","","","html-keyboard-response","82","2.0.0","238123","5b0fa626bd9c310001568d6c","4","9","null","","","","","","","","","<p style='font-size: 30px;'><strong>Okay</strong></p>","null","neutral_feedback","0","test","38","","","","","","","","","","","","","","","","","","","","","","","",""
"","","","","","","","","","","","html-button-response","83","2.0.0","240138","5b0fa626bd9c310001568d6c","4","9","2012","","","","","","","","","<img src= ""rock_img/I_Gabbro_10.jpg"" style=""width:8cm; height:5.680000000000001cm;""><p>What type of rock is this?</p>","7","class_response","0","test","39","Pumice","Gabbro","10","false","8","4","","","","","","","","","","","","","","","","","",""
"","","","","","","","","","","","html-keyboard-response","84","2.0.0","240639","5b0fa626bd9c310001568d6c","4","9","null","","","","","","","","","<p style='font-size: 30px;'><strong>Okay</strong></p>","null","neutral_feedback","0","test","39","","","","","","","","","","","","","","","","","","","","","","","",""
"","","","","","","","","","","","html-button-response","85","2.0.0","242353","5b0fa626bd9c310001568d6c","4","9","1712","","","","","","","","","<img src= ""rock_img/I_Pumice_03.jpg"" style=""width:8cm; height:6.64cm;""><p>What type of rock is this?</p>","7","class_response","0","test","40","Pumice","Pumice","03","true","8","8","","","","","","","","","","","","","","","","","",""
"","","","","","","","","","","","html-keyboard-response","86","2.0.0","242858","5b0fa626bd9c310001568d6c","4","9","null","","","","","","","","","<p style='font-size: 30px;'><strong>Okay</strong></p>","null","neutral_feedback","0","test","40","","","","","","","","","","","","","","","","","","","","","","","",""
"","","","","","","","","","","","html-button-response","87","2.0.0","244491","5b0fa626bd9c310001568d6c","4","9","1631","","","","","","","","","<img src= ""rock_img/I_Basalt_04.jpg"" style=""width:8cm; height:7.53cm;""><p>What type of rock is this?</p>","3","class_response","0","test","41","Gabbro","Basalt","04","false","4","2","","","","","","","","","","","","","","","","","",""
"","","","","","","","","","","","html-keyboard-response","88","2.0.0","244992","5b0fa626bd9c310001568d6c","4","9","null","","","","","","","","","<p style='font-size: 30px;'><strong>Okay</strong></p>","null","neutral_feedback","0","test","41","","","","","","","","","","","","","","","","","","","","","","","",""
"","","","","","","","","","","","html-button-response","89","2.0.0","246989","5b0fa626bd9c310001568d6c","4","9","1996","","","","","","","","","<img src= ""rock_img/I_Obsidian_08.jpg"" style=""width:8cm; height:7.39cm;""><p>What type of rock is this?</p>","0","class_response","0","test","42","Andesite","Obsidian","08","false","1","5","","","","","","","","","","","","","","","","","",""
"","","","","","","","","","","","html-keyboard-response","90","2.0.0","247499","5b0fa626bd9c310001568d6c","4","9","null","","","","","","","","","<p style='font-size: 30px;'><strong>Okay</strong></p>","null","neutral_feedback","0","test","42","","","","","","","","","","","","","","","","","","","","","","","",""
"","","","","","","","","","","","html-button-response","91","2.0.0","250598","5b0fa626bd9c310001568d6c","4","9","3097","","","","","","","","","<img src= ""rock_img/I_Pegmatite_10.jpg"" style=""width:8cm; height:4.16cm;""><p>What type of rock is this?</p>","5","class_response","0","test","43","Pegmatite","Pegmatite","10","true","6","6","","","","","","","","","","","","","","","","","",""
"","","","","","","","","","","","html-keyboard-response","92","2.0.0","251108","5b0fa626bd9c310001568d6c","4","9","null","","","","","","","","","<p style='font-size: 30px;'><strong>Okay</strong></p>","null","neutral_feedback","0","test","43","","","","","","","","","","","","","","","","","","","","","","","",""
"","","","","","","","","","","","html-button-response","93","2.0.0","252591","5b0fa626bd9c310001568d6c","4","9","1480","","","","","","","","","<img src= ""rock_img/I_Obsidian_04.jpg"" style=""width:8cm; height:6.930000000000001cm;""><p>What type of rock is this?</p>","0","class_response","0","test","44","Andesite","Obsidian","04","false","1","5","","","","","","","","","","","","","","","","","",""
"","","","","","","","","","","","html-keyboard-response","94","2.0.0","253101","5b0fa626bd9c310001568d6c","4","9","null","","","","","","","","","<p style='font-size: 30px;'><strong>Okay</strong></p>","null","neutral_feedback","0","test","44","","","","","","","","","","","","","","","","","","","","","","","",""
"","","","","","","","","","","","html-button-response","95","2.0.0","256307","5b0fa626bd9c310001568d6c","4","9","3204","","","","","","","","","<img src= ""rock_img/I_Pegmatite_06.jpg"" style=""width:8cm; height:5.17cm;""><p>What type of rock is this?</p>","4","class_response","0","test","45","Obsidian","Pegmatite","06","false","5","6","","","","","","","","","","","","","","","","","",""
"","","","","","","","","","","","html-keyboard-response","96","2.0.0","256810","5b0fa626bd9c310001568d6c","4","9","null","","","","","","","","","<p style='font-size: 30px;'><strong>Okay</strong></p>","null","neutral_feedback","0","test","45","","","","","","","","","","","","","","","","","","","","","","","",""
"","","","","","","","","","","","html-button-response","97","2.0.0","259590","5b0fa626bd9c310001568d6c","4","9","2778","","","","","","","","","<img src= ""rock_img/I_Diorite_11.jpg"" style=""width:8cm; height:7.11cm;""><p>What type of rock is this?</p>","5","class_response","0","test","46","Pegmatite","Diorite","11","false","6","3","","","","","","","","","","","","","","","","","",""
"","","","","","","","","","","","html-keyboard-response","98","2.0.0","260103","5b0fa626bd9c310001568d6c","4","9","null","","","","","","","","","<p style='font-size: 30px;'><strong>Okay</strong></p>","null","neutral_feedback","0","test","46","","","","","","","","","","","","","","","","","","","","","","","",""
"","","","","","","","","","","","html-button-response","99","2.0.0","261488","5b0fa626bd9c310001568d6c","4","9","1383","","","","","","","","","<img src= ""rock_img/I_Basalt_12.jpg"" style=""width:8cm; height:6.010000000000001cm;""><p>What type of rock is this?</p>","7","class_response","0","test","47","Pumice","Basalt","12","false","8","2","","","","","","","","","","","","","","","","","",""
"","","","","","","","","","","","html-keyboard-response","100","2.0.0","261989","5b0fa626bd9c310001568d6c","4","9","null","","","","","","","","","<p style='font-size: 30px;'><strong>Okay</strong></p>","null","neutral_feedback","0","test","47","","","","","","","","","","","","","","","","","","","","","","","",""
"","","","","","","","","","","","html-button-response","101","2.0.0","265238","5b0fa626bd9c310001568d6c","4","9","3246","","","","","","","","","<img src= ""rock_img/I_Andesite_14.jpg"" style=""width:8cm; height:5.449999999999999cm;""><p>What type of rock is this?</p>","1","class_response","0","test","48","Basalt","Andesite","14","false","2","1","","","","","","","","","","","","","","","","","",""
"","","","","","","","","","","","html-keyboard-response","102","2.0.0","265740","5b0fa626bd9c310001568d6c","4","9","null","","","","","","","","","<p style='font-size: 30px;'><strong>Okay</strong></p>","null","neutral_feedback","0","test","48","","","","","","","","","","","","","","","","","","","","","","","",""
"","","","","","","","","","","","instructions","103","2.0.0","293937","5b0fa626bd9c310001568d6c","4","9","28177","","","","","","","","[{""page_index"":0,""viewing_time"":18501},{""page_index"":1,""viewing_time"":9676}]","","","","","","","","","","","","","","","","","","","","","","","","","","","","","",""
"","","","","","","","","","","","html-button-response","104","2.0.0","298296","5b0fa626bd9c310001568d6c","4","9","4357","","","","","","","","","","0","start_train","","","","","","","","","","","","","","","","","","","","","","","","","","",""
"","","","","","","","","","","","html-button-response","106","2.0.0","303579","5b0fa626bd9c310001568d6c","4","9","5281","","","","","","","","","<img src= ""rock_img/I_Gabbro_08.jpg"" style=""width:8cm; height:5.15cm;""><p>What type of rock is this?</p>","7","class_response","1","train","1","Pumice","Gabbro","08","false","8","4","","","","","","","","","","","","","","","","","",""
"","","","","","","","","","","","html-button-response","107","2.0.0","314549","5b0fa626bd9c310001568d6c","4","9","10968","","","","","","","","","<img src= rock_img/I_Gabbro_08.jpg style=""width:8cm; height:5.15cm;""><p style='font-size: 30px; color: red;'><strong>Incorrect!</strong></p><p style='font-size: 30px;'><strong>This rock is gabbro</strong></p>","0","corr_feedback","1","train","1","","","","","","","","","","","","","","","","","","","","","","","",""
"","","","","","","","","","","","html-button-response","108","2.0.0","316324","5b0fa626bd9c310001568d6c","4","9","1773","","","","","","","","","<img src= ""rock_img/I_Diorite_15.jpg"" style=""width:8cm; height:5.54cm;""><p>What type of rock is this?</p>","7","class_response","1","train","2","Pumice","Diorite","15","false","8","3","","","","","","","","","","","","","","","","","",""
"","","","","","","","","","","","html-button-response","109","2.0.0","320894","5b0fa626bd9c310001568d6c","4","9","4568","","","","","","","","","<img src= rock_img/I_Diorite_15.jpg style=""width:8cm; height:5.54cm;""><p style='font-size: 30px; color: red;'><strong>Incorrect!</strong></p><p style='font-size: 30px;'><strong>This rock is diorite</strong></p>","0","corr_feedback","1","train","2","","","","","","","","","","","","","","","","","","","","","","","",""
"","","","","","","","","","","","html-button-response","110","2.0.0","322640","5b0fa626bd9c310001568d6c","4","9","1744","","","","","","","","","<img src= ""rock_img/I_Pumice_14.jpg"" style=""width:8cm; height:6.39cm;""><p>What type of rock is this?</p>","7","class_response","1","train","3","Pumice","Pumice","14","true","8","8","","","","","","","","","","","","","","","","","",""
"","","","","","","","","","","","html-button-response","111","2.0.0","326419","5b0fa626bd9c310001568d6c","4","9","3777","","","","","","","","","<img src= rock_img/I_Pumice_14.jpg style=""width:8cm; height:6.39cm;""><p style='font-size: 30px; color: green;'><strong>Correct!</strong></p><p style='font-size: 30px;'><strong>This rock is pumice</strong></p>","0","corr_feedback","1","train","3","","","","","","","","","","","","","","","","","","","","","","","",""
"","","","","","","","","","","","html-button-response","112","2.0.0","338601","5b0fa626bd9c310001568d6c","4","9","12181","","","","","","","","","<img src= ""rock_img/I_Andesite_10.jpg"" style=""width:8cm; height:4.16cm;""><p>What type of rock is this?</p>","3","class_response","1","train","4","Gabbro","Andesite","10","false","4","1","","","","","","","","","","","","","","","","","",""
"","","","","","","","","","","","html-button-response","113","2.0.0","347848","5b0fa626bd9c310001568d6c","4","9","9245","","","","","","","","","<img src= rock_img/I_Andesite_10.jpg style=""width:8cm; height:4.16cm;""><p style='font-size: 30px; color: red;'><strong>Incorrect!</strong></p><p style='font-size: 30px;'><strong>This rock is andesite</strong></p>","0","corr_feedback","1","train","4","","","","","","","","","","","","","","","","","","","","","","","",""
"","","","","","","","","","","","html-button-response","114","2.0.0","350652","5b0fa626bd9c310001568d6c","4","9","2802","","","","","","","","","<img src= ""rock_img/I_Obsidian_16.jpg"" style=""width:8cm; height:9.3cm;""><p>What type of rock is this?</p>","0","class_response","1","train","5","Andesite","Obsidian","16","false","1","5","","","","","","","","","","","","","","","","","",""
"","","","","","","","","","","","html-button-response","115","2.0.0","355306","5b0fa626bd9c310001568d6c","4","9","4653","","","","","","","","","<img src= rock_img/I_Obsidian_16.jpg style=""width:8cm; height:9.3cm;""><p style='font-size: 30px; color: red;'><strong>Incorrect!</strong></p><p style='font-size: 30px;'><strong>This rock is obsidian</strong></p>","0","corr_feedback","1","train","5","","","","","","","","","","","","","","","","","","","","","","","",""
"","","","","","","","","","","","html-button-response","116","2.0.0","358356","5b0fa626bd9c310001568d6c","4","9","3049","","","","","","","","","<img src= ""rock_img/I_Basalt_01.jpg"" style=""width:8cm; height:7.880000000000001cm;""><p>What type of rock is this?</p>","1","class_response","1","train","6","Basalt","Basalt","01","true","2","2","","","","","","","","","","","","","","","","","",""
"","","","","","","","","","","","html-button-response","117","2.0.0","362506","5b0fa626bd9c310001568d6c","4","9","4148","","","","","","","","","<img src= rock_img/I_Basalt_01.jpg style=""width:8cm; height:7.880000000000001cm;""><p style='font-size: 30px; color: green;'><strong>Correct!</strong></p><p style='font-size: 30px;'><strong>This rock is basalt</strong></p>","0","corr_feedback","1","train","6","","","","","","","","","","","","","","","","","","","","","","","",""
"","","","","","","","","","","","html-button-response","118","2.0.0","364604","5b0fa626bd9c310001568d6c","4","9","2096","","","","","","","","","<img src= ""rock_img/I_Andesite_02.jpg"" style=""width:8cm; height:8.5cm;""><p>What type of rock is this?</p>","2","class_response","1","train","7","Diorite","Andesite","02","false","3","1","","","","","","","","","","","","","","","","","",""
"","","","","","","","","","","","html-button-response","119","2.0.0","369358","5b0fa626bd9c310001568d6c","4","9","4753","","","","","","","","","<img src= rock_img/I_Andesite_02.jpg style=""width:8cm; height:8.5cm;""><p style='font-size: 30px; color: red;'><strong>Incorrect!</strong></p><p style='font-size: 30px;'><strong>This rock is andesite</strong></p>","0","corr_feedback","1","train","7","","","","","","","","","","","","","","","","","","","","","","","",""
"","","","","","","","","","","","html-button-response","120","2.0.0","371242","5b0fa626bd9c310001568d6c","4","9","1882","","","","","","","","","<img src= ""rock_img/I_Diorite_12.jpg"" style=""width:8cm; height:4.88cm;""><p>What type of rock is this?</p>","0","class_response","1","train","8","Andesite","Diorite","12","false","1","3","","","","","","","","","","","","","","","","","",""
"","","","","","","","","","","","html-button-response","121","2.0.0","375414","5b0fa626bd9c310001568d6c","4","9","4171","","","","","","","","","<img src= rock_img/I_Diorite_12.jpg style=""width:8cm; height:4.88cm;""><p style='font-size: 30px; color: red;'><strong>Incorrect!</strong></p><p style='font-size: 30px;'><strong>This rock is diorite</strong></p>","0","corr_feedback","1","train","8","","","","","","","","","","","","","","","","","","","","","","","",""
"","","","","","","","","","","","html-button-response","122","2.0.0","377920","5b0fa626bd9c310001568d6c","4","9","2504","","","","","","","","","<img src= ""rock_img/I_Gabbro_14.jpg"" style=""width:8cm; height:8.48cm;""><p>What type of rock is this?</p>","5","class_response","1","train","9","Pegmatite","Gabbro","14","false","6","4","","","","","","","","","","","","","","","","","",""
"","","","","","","","","","","","html-button-response","123","2.0.0","382160","5b0fa626bd9c310001568d6c","4","9","4238","","","","","","","","","<img src= rock_img/I_Gabbro_14.jpg style=""width:8cm; height:8.48cm;""><p style='font-size: 30px; color: red;'><strong>Incorrect!</strong></p><p style='font-size: 30px;'><strong>This rock is gabbro</strong></p>","0","corr_feedback","1","train","9","","","","","","","","","","","","","","","","","","","","","","","",""
"","","","","","","","","","","","html-button-response","124","2.0.0","386990","5b0fa626bd9c310001568d6c","4","9","4829","","","","","","","","","<img src= ""rock_img/I_Pegmatite_09.jpg"" style=""width:8cm; height:4.03cm;""><p>What type of rock is this?</p>","5","class_response","1","train","10","Pegmatite","Pegmatite","09","true","6","6","","","","","","","","","","","","","","","","","",""
"","","","","","","","","","","","html-button-response","125","2.0.0","391028","5b0fa626bd9c310001568d6c","4","9","4036","","","","","","","","","<img src= rock_img/I_Pegmatite_09.jpg style=""width:8cm; height:4.03cm;""><p style='font-size: 30px; color: green;'><strong>Correct!</strong></p><p style='font-size: 30px;'><strong>This rock is pegmatite</strong></p>","0","corr_feedback","1","train","10","","","","","","","","","","","","","","","","","","","","","","","",""
"","","","","","","","","","","","html-button-response","126","2.0.0","392812","5b0fa626bd9c310001568d6c","4","9","1782","","","","","","","","","<img src= ""rock_img/I_Pumice_16.jpg"" style=""width:8cm; height:6.79cm;""><p>What type of rock is this?</p>","7","class_response","1","train","11","Pumice","Pumice","16","true","8","8","","","","","","","","","","","","","","","","","",""
"","","","","","","","","","","","html-button-response","127","2.0.0","394424","5b0fa626bd9c310001568d6c","4","9","1611","","","","","","","","","<img src= rock_img/I_Pumice_16.jpg style=""width:8cm; height:6.79cm;""><p style='font-size: 30px; color: green;'><strong>Correct!</strong></p><p style='font-size: 30px;'><strong>This rock is pumice</strong></p>","0","corr_feedback","1","train","11","","","","","","","","","","","","","","","","","","","","","","","",""
"","","","","","","","","","","","html-button-response","128","2.0.0","397581","5b0fa626bd9c310001568d6c","4","9","3155","","","","","","","","","<img src= ""rock_img/I_Peridotite_15.jpg"" style=""width:8cm; height:6cm;""><p>What type of rock is this?</p>","5","class_response","1","train","12","Pegmatite","Peridotite","15","false","6","7","","","","","","","","","","","","","","","","","",""
"","","","","","","","","","","","html-button-response","129","2.0.0","401993","5b0fa626bd9c310001568d6c","4","9","4410","","","","","","","","","<img src= rock_img/I_Peridotite_15.jpg style=""width:8cm; height:6cm;""><p style='font-size: 30px; color: red;'><strong>Incorrect!</strong></p><p style='font-size: 30px;'><strong>This rock is peridotite</strong></p>","0","corr_feedback","1","train","12","","","","","","","","","","","","","","","","","","","","","","","",""
"","","","","","","","","","","","instructions","130","2.0.0","451130","5b0fa626bd9c310001568d6c","4","9","49136","","","","","","","","[{""page_index"":0,""viewing_time"":10990},{""page_index"":1,""viewing_time"":12626},{""page_index"":2,""viewing_time"":16500},{""page_index"":3,""viewing_time"":9020}]","","","","","","","","","","","","","","","","","","","","","","","","","","","","","",""
"","","","","","","","","","","","html-button-response","131","2.0.0","452776","5b0fa626bd9c310001568d6c","4","9","1645","","","","","","","","","","0","start_train","","","","","","","","","","","","","","","","","","","","","","","","","","",""
"","","","","","","","","","","","html-button-response","132","2.0.0","480904","5b0fa626bd9c310001568d6c","4","9","","","","","","","","","","","","cat_selection","1","train","1","","","","","","","16498.30000001192","11627.599999964237","6","1","","","","","","","","","","","","","",""
"","","","","","","","","","","","paired-cat-display","133","1.0.0","552555","5b0fa626bd9c310001568d6c","4","9","","","","","","","","","","","","paired_cat_display","1","train","1","","","","","","","","","","","","","has bigger dots, looks rough and some almost sharp edges","is dotted all over and looks slightly smooth","8801.099999964237","62826.60000002384","","","","","","","",""
"","","","","","","","","","","","html-button-response","134","2.0.0","586760","5b0fa626bd9c310001568d6c","4","9","","","","","","","","","","","","cat_selection","1","train","2","","","","","","","28122.900000035763","6077.699999988079","3","1","Pegmatite","Andesite","","","","","","","","","","","",""
"","","","","","","","","","","","paired-cat-display","135","1.0.0","660038","5b0fa626bd9c310001568d6c","4","9","","","","","","","","","","","","paired_cat_display","1","train","2","","","","","","","","","","","","","","looks like a rougher texture than the diorite, has smaller dots","10061","63194.40000003576","looks like a smoother texture, has larger dark spots or dots","","","","","","",""
"","","","","","","","","","","","html-button-response","136","2.0.0","694184","5b0fa626bd9c310001568d6c","4","9","","","","","","","","","","","","cat_selection","1","train","3","","","","","","","33465.80000001192","677.6000000238419","7","1","Diorite","Andesite","","","","","","","","","","","",""
"","","","","","","","","","","","paired-cat-display","137","1.0.0","739820","5b0fa626bd9c310001568d6c","4","9","","","","","","","","","","","","paired_cat_display","1","train","3","","","","","","","","","","","","","","is smoother and has smaller dots","6676.900000035763","38939.59999996424","","Has some shiny areas and different colors","","","","","",""
"","","","","","","","","","","","instructions","138","2.0.0","762908","5b0fa626bd9c310001568d6c","4","9","23085","","","","","","","","[{""page_index"":0,""viewing_time"":8131},{""page_index"":1,""viewing_time"":14954}]","","","","","","","","","","","","","","","","","","","","","","","","","","","","","",""
"","","","","","","","","","","","html-button-response","139","2.0.0","765298","5b0fa626bd9c310001568d6c","4","9","2388","","","","","","","","","","0","start_test","","","","","","","","","","","","","","","","","","","","","","","","","","",""
"","","","","","","","","","","","html-button-response","140","2.0.0","773074","5b0fa626bd9c310001568d6c","4","9","7773","","","","","","","","","<img src= ""rock_img/I_Obsidian_08.jpg"" style=""width:8cm; height:7.39cm;""><p>What type of rock is this?</p>","4","class_response","1","test","1","Obsidian","Obsidian","08","true","5","5","","","","","","","","","","","","","","","","","",""
"","","","","","","","","","","","html-keyboard-response","141","2.0.0","773582","5b0fa626bd9c310001568d6c","4","9","null","","","","","","","","","<p style='font-size: 30px;'><strong>Okay</strong></p>","null","neutral_feedback","1","test","1","","","","","","","","","","","","","","","","","","","","","","","",""
"","","","","","","","","","","","html-button-response","142","2.0.0","783314","5b0fa626bd9c310001568d6c","4","9","9730","","","","","","","","","<img src= ""rock_img/I_Basalt_08.jpg"" style=""width:8cm; height:10.44cm;""><p>What type of rock is this?</p>","1","class_response","1","test","2","Basalt","Basalt","08","true","2","2","","","","","","","","","","","","","","","","","",""
"","","","","","","","","","","","html-keyboard-response","143","2.0.0","783823","5b0fa626bd9c310001568d6c","4","9","null","","","","","","","","","<p style='font-size: 30px;'><strong>Okay</strong></p>","null","neutral_feedback","1","test","2","","","","","","","","","","","","","","","","","","","","","","","",""
"","","","","","","","","","","","html-button-response","144","2.0.0","787924","5b0fa626bd9c310001568d6c","4","9","4099","","","","","","","","","<img src= ""rock_img/I_Pegmatite_06.jpg"" style=""width:8cm; height:5.17cm;""><p>What type of rock is this?</p>","5","class_response","1","test","3","Pegmatite","Pegmatite","06","true","6","6","","","","","","","","","","","","","","","","","",""
"","","","","","","","","","","","html-keyboard-response","145","2.0.0","788437","5b0fa626bd9c310001568d6c","4","9","null","","","","","","","","","<p style='font-size: 30px;'><strong>Okay</strong></p>","null","neutral_feedback","1","test","3","","","","","","","","","","","","","","","","","","","","","","","",""
"","","","","","","","","","","","html-button-response","146","2.0.0","792570","5b0fa626bd9c310001568d6c","4","9","4130","","","","","","","","","<img src= ""rock_img/I_Gabbro_16.jpg"" style=""width:8cm; height:6.44cm;""><p>What type of rock is this?</p>","0","class_response","1","test","4","Andesite","Gabbro","16","false","1","4","","","","","","","","","","","","","","","","","",""
"","","","","","","","","","","","html-keyboard-response","147","2.0.0","793074","5b0fa626bd9c310001568d6c","4","9","null","","","","","","","","","<p style='font-size: 30px;'><strong>Okay</strong></p>","null","neutral_feedback","1","test","4","","","","","","","","","","","","","","","","","","","","","","","",""
"","","","","","","","","","","","html-button-response","148","2.0.0","799590","5b0fa626bd9c310001568d6c","4","9","6513","","","","","","","","","<img src= ""rock_img/I_Andesite_03.jpg"" style=""width:8cm; height:5.73cm;""><p>What type of rock is this?</p>","0","class_response","1","test","5","Andesite","Andesite","03","true","1","1","","","","","","","","","","","","","","","","","",""
"","","","","","","","","","","","html-keyboard-response","149","2.0.0","800098","5b0fa626bd9c310001568d6c","4","9","null","","","","","","","","","<p style='font-size: 30px;'><strong>Okay</strong></p>","null","neutral_feedback","1","test","5","","","","","","","","","","","","","","","","","","","","","","","",""
"","","","","","","","","","","","html-button-response","150","2.0.0","802960","5b0fa626bd9c310001568d6c","4","9","2860","","","","","","","","","<img src= ""rock_img/I_Obsidian_06.jpg"" style=""width:8cm; height:6.8cm;""><p>What type of rock is this?</p>","1","class_response","1","test","6","Basalt","Obsidian","06","false","2","5","","","","","","","","","","","","","","","","","",""
"","","","","","","","","","","","html-keyboard-response","151","2.0.0","803475","5b0fa626bd9c310001568d6c","4","9","null","","","","","","","","","<p style='font-size: 30px;'><strong>Okay</strong></p>","null","neutral_feedback","1","test","6","","","","","","","","","","","","","","","","","","","","","","","",""
"","","","","","","","","","","","html-button-response","152","2.0.0","809820","5b0fa626bd9c310001568d6c","4","9","6343","","","","","","","","","<img src= ""rock_img/I_Gabbro_13.jpg"" style=""width:8cm; height:5.08cm;""><p>What type of rock is this?</p>","3","class_response","1","test","7","Gabbro","Gabbro","13","true","4","4","","","","","","","","","","","","","","","","","",""
"","","","","","","","","","","","html-keyboard-response","153","2.0.0","810322","5b0fa626bd9c310001568d6c","4","9","null","","","","","","","","","<p style='font-size: 30px;'><strong>Okay</strong></p>","null","neutral_feedback","1","test","7","","","","","","","","","","","","","","","","","","","","","","","",""
"","","","","","","","","","","","html-button-response","154","2.0.0","813080","5b0fa626bd9c310001568d6c","4","9","2756","","","","","","","","","<img src= ""rock_img/I_Basalt_14.jpg"" style=""width:8cm; height:5.82cm;""><p>What type of rock is this?</p>","7","class_response","1","test","8","Pumice","Basalt","14","false","8","2","","","","","","","","","","","","","","","","","",""
"","","","","","","","","","","","html-keyboard-response","155","2.0.0","813582","5b0fa626bd9c310001568d6c","4","9","null","","","","","","","","","<p style='font-size: 30px;'><strong>Okay</strong></p>","null","neutral_feedback","1","test","8","","","","","","","","","","","","","","","","","","","","","","","",""
"","","","","","","","","","","","html-button-response","156","2.0.0","817458","5b0fa626bd9c310001568d6c","4","9","3874","","","","","","","","","<img src= ""rock_img/I_Peridotite_10.jpg"" style=""width:8cm; height:5.390000000000001cm;""><p>What type of rock is this?</p>","6","class_response","1","test","9","Peridotite","Peridotite","10","true","7","7","","","","","","","","","","","","","","","","","",""
"","","","","","","","","","","","html-keyboard-response","157","2.0.0","817961","5b0fa626bd9c310001568d6c","4","9","null","","","","","","","","","<p style='font-size: 30px;'><strong>Okay</strong></p>","null","neutral_feedback","1","test","9","","","","","","","","","","","","","","","","","","","","","","","",""
"","","","","","","","","","","","html-button-response","158","2.0.0","825516","5b0fa626bd9c310001568d6c","4","9","7552","","","","","","","","","<img src= ""rock_img/I_Gabbro_12.jpg"" style=""width:8cm; height:7.800000000000001cm;""><p>What type of rock is this?</p>","0","class_response","1","test","10","Andesite","Gabbro","12","false","1","4","","","","","","","","","","","","","","","","","",""
"","","","","","","","","","","","html-keyboard-response","159","2.0.0","826026","5b0fa626bd9c310001568d6c","4","9","null","","","","","","","","","<p style='font-size: 30px;'><strong>Okay</strong></p>","null","neutral_feedback","1","test","10","","","","","","","","","","","","","","","","","","","","","","","",""
"","","","","","","","","","","","html-button-response","160","2.0.0","833594","5b0fa626bd9c310001568d6c","4","9","7565","","","","","","","","","<img src= ""rock_img/I_Basalt_06.jpg"" style=""width:8cm; height:7.06cm;""><p>What type of rock is this?</p>","1","class_response","1","test","11","Basalt","Basalt","06","true","2","2","","","","","","","","","","","","","","","","","",""
"","","","","","","","","","","","html-keyboard-response","161","2.0.0","834097","5b0fa626bd9c310001568d6c","4","9","null","","","","","","","","","<p style='font-size: 30px;'><strong>Okay</strong></p>","null","neutral_feedback","1","test","11","","","","","","","","","","","","","","","","","","","","","","","",""
"","","","","","","","","","","","html-button-response","162","2.0.0","843269","5b0fa626bd9c310001568d6c","4","9","9170","","","","","","","","","<img src= ""rock_img/I_Andesite_11.jpg"" style=""width:8cm; height:4.92cm;""><p>What type of rock is this?</p>","0","class_response","1","test","12","Andesite","Andesite","11","true","1","1","","","","","","","","","","","","","","","","","",""
"","","","","","","","","","","","html-keyboard-response","163","2.0.0","843770","5b0fa626bd9c310001568d6c","4","9","null","","","","","","","","","<p style='font-size: 30px;'><strong>Okay</strong></p>","null","neutral_feedback","1","test","12","","","","","","","","","","","","","","","","","","","","","","","",""
"","","","","","","","","","","","html-button-response","164","2.0.0","845574","5b0fa626bd9c310001568d6c","4","9","1802","","","","","","","","","<img src= ""rock_img/I_Basalt_12.jpg"" style=""width:8cm; height:6.010000000000001cm;""><p>What type of rock is this?</p>","7","class_response","1","test","13","Pumice","Basalt","12","false","8","2","","","","","","","","","","","","","","","","","",""
"","","","","","","","","","","","html-keyboard-response","165","2.0.0","846077","5b0fa626bd9c310001568d6c","4","9","null","","","","","","","","","<p style='font-size: 30px;'><strong>Okay</strong></p>","null","neutral_feedback","1","test","13","","","","","","","","","","","","","","","","","","","","","","","",""
"","","","","","","","","","","","html-button-response","166","2.0.0","847554","5b0fa626bd9c310001568d6c","4","9","1475","","","","","","","","","<img src= ""rock_img/I_Obsidian_05.jpg"" style=""width:8cm; height:6.33cm;""><p>What type of rock is this?</p>","1","class_response","1","test","14","Basalt","Obsidian","05","false","2","5","","","","","","","","","","","","","","","","","",""
"","","","","","","","","","","","html-keyboard-response","167","2.0.0","848057","5b0fa626bd9c310001568d6c","4","9","null","","","","","","","","","<p style='font-size: 30px;'><strong>Okay</strong></p>","null","neutral_feedback","1","test","14","","","","","","","","","","","","","","","","","","","","","","","",""
"","","","","","","","","","","","html-button-response","168","2.0.0","858515","5b0fa626bd9c310001568d6c","4","9","10455","","","","","","","","","<img src= ""rock_img/I_Pegmatite_13.jpg"" style=""width:8cm; height:4.95cm;""><p>What type of rock is this?</p>","2","class_response","1","test","15","Diorite","Pegmatite","13","false","3","6","","","","","","","","","","","","","","","","","",""
"","","","","","","","","","","","html-keyboard-response","169","2.0.0","859017","5b0fa626bd9c310001568d6c","4","9","null","","","","","","","","","<p style='font-size: 30px;'><strong>Okay</strong></p>","null","neutral_feedback","1","test","15","","","","","","","","","","","","","","","","","","","","","","","",""
"","","","","","","","","","","","html-button-response","170","2.0.0","860883","5b0fa626bd9c310001568d6c","4","9","1864","","","","","","","","","<img src= ""rock_img/I_Pumice_15.jpg"" style=""width:8cm; height:7.86cm;""><p>What type of rock is this?</p>","7","class_response","1","test","16","Pumice","Pumice","15","true","8","8","","","","","","","","","","","","","","","","","",""
"","","","","","","","","","","","html-keyboard-response","171","2.0.0","861384","5b0fa626bd9c310001568d6c","4","9","null","","","","","","","","","<p style='font-size: 30px;'><strong>Okay</strong></p>","null","neutral_feedback","1","test","16","","","","","","","","","","","","","","","","","","","","","","","",""
"","","","","","","","","","","","html-button-response","172","2.0.0","865080","5b0fa626bd9c310001568d6c","4","9","3695","","","","","","","","","<img src= ""rock_img/I_Peridotite_07.jpg"" style=""width:8cm; height:4.83cm;""><p>What type of rock is this?</p>","6","class_response","1","test","17","Peridotite","Peridotite","07","true","7","7","","","","","","","","","","","","","","","","","",""
"","","","","","","","","","","","html-keyboard-response","173","2.0.0","865583","5b0fa626bd9c310001568d6c","4","9","null","","","","","","","","","<p style='font-size: 30px;'><strong>Okay</strong></p>","null","neutral_feedback","1","test","17","","","","","","","","","","","","","","","","","","","","","","","",""
"","","","","","","","","","","","html-button-response","174","2.0.0","867124","5b0fa626bd9c310001568d6c","4","9","1539","","","","","","","","","<img src= ""rock_img/I_Pumice_10.jpg"" style=""width:8cm; height:7.609999999999999cm;""><p>What type of rock is this?</p>","7","class_response","1","test","18","Pumice","Pumice","10","true","8","8","","","","","","","","","","","","","","","","","",""
"","","","","","","","","","","","html-keyboard-response","175","2.0.0","867627","5b0fa626bd9c310001568d6c","4","9","null","","","","","","","","","<p style='font-size: 30px;'><strong>Okay</strong></p>","null","neutral_feedback","1","test","18","","","","","","","","","","","","","","","","","","","","","","","",""
"","","","","","","","","","","","html-button-response","176","2.0.0","872871","5b0fa626bd9c310001568d6c","4","9","5242","","","","","","","","","<img src= ""rock_img/I_Diorite_09.jpg"" style=""width:8cm; height:5.27cm;""><p>What type of rock is this?</p>","0","class_response","1","test","19","Andesite","Diorite","09","false","1","3","","","","","","","","","","","","","","","","","",""
"","","","","","","","","","","","html-keyboard-response","177","2.0.0","873373","5b0fa626bd9c310001568d6c","4","9","null","","","","","","","","","<p style='font-size: 30px;'><strong>Okay</strong></p>","null","neutral_feedback","1","test","19","","","","","","","","","","","","","","","","","","","","","","","",""
"","","","","","","","","","","","html-button-response","178","2.0.0","874948","5b0fa626bd9c310001568d6c","4","9","1573","","","","","","","","","<img src= ""rock_img/I_Pegmatite_11.jpg"" style=""width:8cm; height:8.14cm;""><p>What type of rock is this?</p>","1","class_response","1","test","20","Basalt","Pegmatite","11","false","2","6","","","","","","","","","","","","","","","","","",""
"","","","","","","","","","","","html-keyboard-response","179","2.0.0","875457","5b0fa626bd9c310001568d6c","4","9","null","","","","","","","","","<p style='font-size: 30px;'><strong>Okay</strong></p>","null","neutral_feedback","1","test","20","","","","","","","","","","","","","","","","","","","","","","","",""
"","","","","","","","","","","","html-button-response","180","2.0.0","885087","5b0fa626bd9c310001568d6c","4","9","9628","","","","","","","","","<img src= ""rock_img/I_Andesite_09.jpg"" style=""width:8cm; height:6cm;""><p>What type of rock is this?</p>","0","class_response","1","test","21","Andesite","Andesite","09","true","1","1","","","","","","","","","","","","","","","","","",""
"","","","","","","","","","","","html-keyboard-response","181","2.0.0","885589","5b0fa626bd9c310001568d6c","4","9","null","","","","","","","","","<p style='font-size: 30px;'><strong>Okay</strong></p>","null","neutral_feedback","1","test","21","","","","","","","","","","","","","","","","","","","","","","","",""
"","","","","","","","","","","","html-button-response","182","2.0.0","894734","5b0fa626bd9c310001568d6c","4","9","9143","","","","","","","","","<img src= ""rock_img/I_Basalt_04.jpg"" style=""width:8cm; height:7.53cm;""><p>What type of rock is this?</p>","1","class_response","1","test","22","Basalt","Basalt","04","true","2","2","","","","","","","","","","","","","","","","","",""
"","","","","","","","","","","","html-keyboard-response","183","2.0.0","895244","5b0fa626bd9c310001568d6c","4","9","null","","","","","","","","","<p style='font-size: 30px;'><strong>Okay</strong></p>","null","neutral_feedback","1","test","22","","","","","","","","","","","","","","","","","","","","","","","",""
"","","","","","","","","","","","html-button-response","184","2.0.0","900065","5b0fa626bd9c310001568d6c","4","9","4819","","","","","","","","","<img src= ""rock_img/I_Peridotite_14.jpg"" style=""width:8cm; height:5.3cm;""><p>What type of rock is this?</p>","6","class_response","1","test","23","Peridotite","Peridotite","14","true","7","7","","","","","","","","","","","","","","","","","",""
"","","","","","","","","","","","html-keyboard-response","185","2.0.0","900567","5b0fa626bd9c310001568d6c","4","9","null","","","","","","","","","<p style='font-size: 30px;'><strong>Okay</strong></p>","null","neutral_feedback","1","test","23","","","","","","","","","","","","","","","","","","","","","","","",""
"","","","","","","","","","","","html-button-response","186","2.0.0","902710","5b0fa626bd9c310001568d6c","4","9","2141","","","","","","","","","<img src= ""rock_img/I_Gabbro_10.jpg"" style=""width:8cm; height:5.680000000000001cm;""><p>What type of rock is this?</p>","7","class_response","1","test","24","Pumice","Gabbro","10","false","8","4","","","","","","","","","","","","","","","","","",""
"","","","","","","","","","","","html-keyboard-response","187","2.0.0","903212","5b0fa626bd9c310001568d6c","4","9","null","","","","","","","","","<p style='font-size: 30px;'><strong>Okay</strong></p>","null","neutral_feedback","1","test","24","","","","","","","","","","","","","","","","","","","","","","","",""
"","","","","","","","","","","","html-button-response","188","2.0.0","908118","5b0fa626bd9c310001568d6c","4","9","4904","","","","","","","","","<img src= ""rock_img/I_Diorite_11.jpg"" style=""width:8cm; height:7.11cm;""><p>What type of rock is this?</p>","2","class_response","1","test","25","Diorite","Diorite","11","true","3","3","","","","","","","","","","","","","","","","","",""
"","","","","","","","","","","","html-keyboard-response","189","2.0.0","908622","5b0fa626bd9c310001568d6c","4","9","null","","","","","","","","","<p style='font-size: 30px;'><strong>Okay</strong></p>","null","neutral_feedback","1","test","25","","","","","","","","","","","","","","","","","","","","","","","",""
"","","","","","","","","","","","html-button-response","190","2.0.0","913645","5b0fa626bd9c310001568d6c","4","9","5021","","","","","","","","","<img src= ""rock_img/I_Peridotite_16.jpg"" style=""width:8cm; height:6.989999999999999cm;""><p>What type of rock is this?</p>","3","class_response","1","test","26","Gabbro","Peridotite","16","false","4","7","","","","","","","","","","","","","","","","","",""
"","","","","","","","","","","","html-keyboard-response","191","2.0.0","914147","5b0fa626bd9c310001568d6c","4","9","null","","","","","","","","","<p style='font-size: 30px;'><strong>Okay</strong></p>","null","neutral_feedback","1","test","26","","","","","","","","","","","","","","","","","","","","","","","",""
"","","","","","","","","","","","html-button-response","192","2.0.0","919846","5b0fa626bd9c310001568d6c","4","9","5696","","","","","","","","","<img src= ""rock_img/I_Gabbro_01.jpg"" style=""width:8cm; height:5.21cm;""><p>What type of rock is this?</p>","5","class_response","1","test","27","Pegmatite","Gabbro","01","false","6","4","","","","","","","","","","","","","","","","","",""
"","","","","","","","","","","","html-keyboard-response","193","2.0.0","920348","5b0fa626bd9c310001568d6c","4","9","null","","","","","","","","","<p style='font-size: 30px;'><strong>Okay</strong></p>","null","neutral_feedback","1","test","27","","","","","","","","","","","","","","","","","","","","","","","",""
"","","","","","","","","","","","html-button-response","194","2.0.0","926328","5b0fa626bd9c310001568d6c","4","9","5977","","","","","","","","","<img src= ""rock_img/I_Obsidian_11.jpg"" style=""width:8cm; height:6.05cm;""><p>What type of rock is this?</p>","4","class_response","1","test","28","Obsidian","Obsidian","11","true","5","5","","","","","","","","","","","","","","","","","",""
"","","","","","","","","","","","html-keyboard-response","195","2.0.0","926830","5b0fa626bd9c310001568d6c","4","9","null","","","","","","","","","<p style='font-size: 30px;'><strong>Okay</strong></p>","null","neutral_feedback","1","test","28","","","","","","","","","","","","","","","","","","","","","","","",""
"","","","","","","","","","","","html-button-response","196","2.0.0","931586","5b0fa626bd9c310001568d6c","4","9","4754","","","","","","","","","<img src= ""rock_img/I_Andesite_14.jpg"" style=""width:8cm; height:5.449999999999999cm;""><p>What type of rock is this?</p>","6","class_response","1","test","29","Peridotite","Andesite","14","false","7","1","","","","","","","","","","","","","","","","","",""
"","","","","","","","","","","","html-keyboard-response","197","2.0.0","932099","5b0fa626bd9c310001568d6c","4","9","null","","","","","","","","","<p style='font-size: 30px;'><strong>Okay</strong></p>","null","neutral_feedback","1","test","29","","","","","","","","","","","","","","","","","","","","","","","",""
"","","","","","","","","","","","html-button-response","198","2.0.0","933802","5b0fa626bd9c310001568d6c","4","9","1701","","","","","","","","","<img src= ""rock_img/I_Pumice_06.jpg"" style=""width:8cm; height:6.9399999999999995cm;""><p>What type of rock is this?</p>","7","class_response","1","test","30","Pumice","Pumice","06","true","8","8","","","","","","","","","","","","","","","","","",""
"","","","","","","","","","","","html-keyboard-response","199","2.0.0","934304","5b0fa626bd9c310001568d6c","4","9","null","","","","","","","","","<p style='font-size: 30px;'><strong>Okay</strong></p>","null","neutral_feedback","1","test","30","","","","","","","","","","","","","","","","","","","","","","","",""
"","","","","","","","","","","","html-button-response","200","2.0.0","937952","5b0fa626bd9c310001568d6c","4","9","3646","","","","","","","","","<img src= ""rock_img/I_Peridotite_02.jpg"" style=""width:8cm; height:5.859999999999999cm;""><p>What type of rock is this?</p>","6","class_response","1","test","31","Peridotite","Peridotite","02","true","7","7","","","","","","","","","","","","","","","","","",""
"","","","","","","","","","","","html-keyboard-response","201","2.0.0","938453","5b0fa626bd9c310001568d6c","4","9","null","","","","","","","","","<p style='font-size: 30px;'><strong>Okay</strong></p>","null","neutral_feedback","1","test","31","","","","","","","","","","","","","","","","","","","","","","","",""
"","","","","","","","","","","","html-button-response","202","2.0.0","942718","5b0fa626bd9c310001568d6c","4","9","4263","","","","","","","","","<img src= ""rock_img/I_Andesite_07.jpg"" style=""width:8cm; height:5.93cm;""><p>What type of rock is this?</p>","2","class_response","1","test","32","Diorite","Andesite","07","false","3","1","","","","","","","","","","","","","","","","","",""
"","","","","","","","","","","","html-keyboard-response","203","2.0.0","943223","5b0fa626bd9c310001568d6c","4","9","null","","","","","","","","","<p style='font-size: 30px;'><strong>Okay</strong></p>","null","neutral_feedback","1","test","32","","","","","","","","","","","","","","","","","","","","","","","",""
"","","","","","","","","","","","html-button-response","204","2.0.0","948485","5b0fa626bd9c310001568d6c","4","9","5261","","","","","","","","","<img src= ""rock_img/I_Diorite_13.jpg"" style=""width:8cm; height:6.29cm;""><p>What type of rock is this?</p>","0","class_response","1","test","33","Andesite","Diorite","13","false","1","3","","","","","","","","","","","","","","","","","",""
"","","","","","","","","","","","html-keyboard-response","205","2.0.0","948995","5b0fa626bd9c310001568d6c","4","9","null","","","","","","","","","<p style='font-size: 30px;'><strong>Okay</strong></p>","null","neutral_feedback","1","test","33","","","","","","","","","","","","","","","","","","","","","","","",""
"","","","","","","","","","","","html-button-response","206","2.0.0","954972","5b0fa626bd9c310001568d6c","4","9","5974","","","","","","","","","<img src= ""rock_img/I_Pumice_08.jpg"" style=""width:8cm; height:6.67cm;""><p>What type of rock is this?</p>","0","class_response","1","test","34","Andesite","Pumice","08","false","1","8","","","","","","","","","","","","","","","","","",""
"","","","","","","","","","","","html-keyboard-response","207","2.0.0","955477","5b0fa626bd9c310001568d6c","4","9","null","","","","","","","","","<p style='font-size: 30px;'><strong>Okay</strong></p>","null","neutral_feedback","1","test","34","","","","","","","","","","","","","","","","","","","","","","","",""
"","","","","","","","","","","","html-button-response","208","2.0.0","959217","5b0fa626bd9c310001568d6c","4","9","3738","","","","","","","","","<img src= ""rock_img/I_Gabbro_15.jpg"" style=""width:8cm; height:6.29cm;""><p>What type of rock is this?</p>","3","class_response","1","test","35","Gabbro","Gabbro","15","true","4","4","","","","","","","","","","","","","","","","","",""
"","","","","","","","","","","","html-keyboard-response","209","2.0.0","959725","5b0fa626bd9c310001568d6c","4","9","null","","","","","","","","","<p style='font-size: 30px;'><strong>Okay</strong></p>","null","neutral_feedback","1","test","35","","","","","","","","","","","","","","","","","","","","","","","",""
"","","","","","","","","","","","html-button-response","210","2.0.0","965419","5b0fa626bd9c310001568d6c","4","9","5692","","","","","","","","","<img src= ""rock_img/I_Pegmatite_15.jpg"" style=""width:8cm; height:6cm;""><p>What type of rock is this?</p>","4","class_response","1","test","36","Obsidian","Pegmatite","15","false","5","6","","","","","","","","","","","","","","","","","",""
"","","","","","","","","","","","html-keyboard-response","211","2.0.0","965921","5b0fa626bd9c310001568d6c","4","9","null","","","","","","","","","<p style='font-size: 30px;'><strong>Okay</strong></p>","null","neutral_feedback","1","test","36","","","","","","","","","","","","","","","","","","","","","","","",""
"","","","","","","","","","","","html-button-response","212","2.0.0","967238","5b0fa626bd9c310001568d6c","4","9","1315","","","","","","","","","<img src= ""rock_img/I_Obsidian_04.jpg"" style=""width:8cm; height:6.930000000000001cm;""><p>What type of rock is this?</p>","4","class_response","1","test","37","Obsidian","Obsidian","04","true","5","5","","","","","","","","","","","","","","","","","",""
"","","","","","","","","","","","html-keyboard-response","213","2.0.0","967740","5b0fa626bd9c310001568d6c","4","9","null","","","","","","","","","<p style='font-size: 30px;'><strong>Okay</strong></p>","null","neutral_feedback","1","test","37","","","","","","","","","","","","","","","","","","","","","","","",""
"","","","","","","","","","","","html-button-response","214","2.0.0","969345","5b0fa626bd9c310001568d6c","4","9","1603","","","","","","","","","<img src= ""rock_img/I_Pumice_03.jpg"" style=""width:8cm; height:6.64cm;""><p>What type of rock is this?</p>","7","class_response","1","test","38","Pumice","Pumice","03","true","8","8","","","","","","","","","","","","","","","","","",""
"","","","","","","","","","","","html-keyboard-response","215","2.0.0","969855","5b0fa626bd9c310001568d6c","4","9","null","","","","","","","","","<p style='font-size: 30px;'><strong>Okay</strong></p>","null","neutral_feedback","1","test","38","","","","","","","","","","","","","","","","","","","","","","","",""
"","","","","","","","","","","","html-button-response","216","2.0.0","976007","5b0fa626bd9c310001568d6c","4","9","6150","","","","","","","","","<img src= ""rock_img/I_Diorite_07.jpg"" style=""width:8cm; height:5.239999999999999cm;""><p>What type of rock is this?</p>","2","class_response","1","test","39","Diorite","Diorite","07","true","3","3","","","","","","","","","","","","","","","","","",""
"","","","","","","","","","","","html-keyboard-response","217","2.0.0","976513","5b0fa626bd9c310001568d6c","4","9","null","","","","","","","","","<p style='font-size: 30px;'><strong>Okay</strong></p>","null","neutral_feedback","1","test","39","","","","","","","","","","","","","","","","","","","","","","","",""
"","","","","","","","","","","","html-button-response","218","2.0.0","979310","5b0fa626bd9c310001568d6c","4","9","2795","","","","","","","","","<img src= ""rock_img/I_Pegmatite_05.jpg"" style=""width:8cm; height:7.300000000000001cm;""><p>What type of rock is this?</p>","4","class_response","1","test","40","Obsidian","Pegmatite","05","false","5","6","","","","","","","","","","","","","","","","","",""
"","","","","","","","","","","","html-keyboard-response","219","2.0.0","979813","5b0fa626bd9c310001568d6c","4","9","null","","","","","","","","","<p style='font-size: 30px;'><strong>Okay</strong></p>","null","neutral_feedback","1","test","40","","","","","","","","","","","","","","","","","","","","","","","",""
"","","","","","","","","","","","html-button-response","220","2.0.0","989389","5b0fa626bd9c310001568d6c","4","9","9574","","","","","","","","","<img src= ""rock_img/I_Diorite_08.jpg"" style=""width:8cm; height:6.37cm;""><p>What type of rock is this?</p>","6","class_response","1","test","41","Peridotite","Diorite","08","false","7","3","","","","","","","","","","","","","","","","","",""
"","","","","","","","","","","","html-keyboard-response","221","2.0.0","989892","5b0fa626bd9c310001568d6c","4","9","null","","","","","","","","","<p style='font-size: 30px;'><strong>Okay</strong></p>","null","neutral_feedback","1","test","41","","","","","","","","","","","","","","","","","","","","","","","",""
"","","","","","","","","","","","html-button-response","222","2.0.0","991443","5b0fa626bd9c310001568d6c","4","9","1549","","","","","","","","","<img src= ""rock_img/I_Peridotite_12.jpg"" style=""width:8cm; height:4.54cm;""><p>What type of rock is this?</p>","6","class_response","1","test","42","Peridotite","Peridotite","12","true","7","7","","","","","","","","","","","","","","","","","",""
"","","","","","","","","","","","html-keyboard-response","223","2.0.0","991952","5b0fa626bd9c310001568d6c","4","9","null","","","","","","","","","<p style='font-size: 30px;'><strong>Okay</strong></p>","null","neutral_feedback","1","test","42","","","","","","","","","","","","","","","","","","","","","","","",""
"","","","","","","","","","","","html-button-response","224","2.0.0","993431","5b0fa626bd9c310001568d6c","4","9","1477","","","","","","","","","<img src= ""rock_img/I_Obsidian_14.jpg"" style=""width:8cm; height:7.64cm;""><p>What type of rock is this?</p>","4","class_response","1","test","43","Obsidian","Obsidian","14","true","5","5","","","","","","","","","","","","","","","","","",""
"","","","","","","","","","","","html-keyboard-response","225","2.0.0","993933","5b0fa626bd9c310001568d6c","4","9","null","","","","","","","","","<p style='font-size: 30px;'><strong>Okay</strong></p>","null","neutral_feedback","1","test","43","","","","","","","","","","","","","","","","","","","","","","","",""
"","","","","","","","","","","","html-button-response","226","2.0.0","1000091","5b0fa626bd9c310001568d6c","4","9","6157","","","","","","","","","<img src= ""rock_img/I_Pegmatite_10.jpg"" style=""width:8cm; height:4.16cm;""><p>What type of rock is this?</p>","5","class_response","1","test","44","Pegmatite","Pegmatite","10","true","6","6","","","","","","","","","","","","","","","","","",""
"","","","","","","","","","","","html-keyboard-response","227","2.0.0","1000608","5b0fa626bd9c310001568d6c","4","9","null","","","","","","","","","<p style='font-size: 30px;'><strong>Okay</strong></p>","null","neutral_feedback","1","test","44","","","","","","","","","","","","","","","","","","","","","","","",""
"","","","","","","","","","","","html-button-response","228","2.0.0","1007808","5b0fa626bd9c310001568d6c","4","9","7198","","","","","","","","","<img src= ""rock_img/I_Basalt_02.jpg"" style=""width:8cm; height:6.45cm;""><p>What type of rock is this?</p>","1","class_response","1","test","45","Basalt","Basalt","02","true","2","2","","","","","","","","","","","","","","","","","",""
"","","","","","","","","","","","html-keyboard-response","229","2.0.0","1008325","5b0fa626bd9c310001568d6c","4","9","null","","","","","","","","","<p style='font-size: 30px;'><strong>Okay</strong></p>","null","neutral_feedback","1","test","45","","","","","","","","","","","","","","","","","","","","","","","",""
"","","","","","","","","","","","html-button-response","230","2.0.0","1012289","5b0fa626bd9c310001568d6c","4","9","3962","","","","","","","","","<img src= ""rock_img/I_Diorite_10.jpg"" style=""width:8cm; height:5.949999999999999cm;""><p>What type of rock is this?</p>","2","class_response","1","test","46","Diorite","Diorite","10","true","3","3","","","","","","","","","","","","","","","","","",""
"","","","","","","","","","","","html-keyboard-response","231","2.0.0","1012801","5b0fa626bd9c310001568d6c","4","9","null","","","","","","","","","<p style='font-size: 30px;'><strong>Okay</strong></p>","null","neutral_feedback","1","test","46","","","","","","","","","","","","","","","","","","","","","","","",""
"","","","","","","","","","","","html-button-response","232","2.0.0","1018335","5b0fa626bd9c310001568d6c","4","9","5531","","","","","","","","","<img src= ""rock_img/I_Andesite_05.jpg"" style=""width:8cm; height:4.12cm;""><p>What type of rock is this?</p>","3","class_response","1","test","47","Gabbro","Andesite","05","false","4","1","","","","","","","","","","","","","","","","","",""
"","","","","","","","","","","","html-keyboard-response","233","2.0.0","1018836","5b0fa626bd9c310001568d6c","4","9","null","","","","","","","","","<p style='font-size: 30px;'><strong>Okay</strong></p>","null","neutral_feedback","1","test","47","","","","","","","","","","","","","","","","","","","","","","","",""
"","","","","","","","","","","","html-button-response","234","2.0.0","1023029","5b0fa626bd9c310001568d6c","4","9","4191","","","","","","","","","<img src= ""rock_img/I_Pumice_13.jpg"" style=""width:8cm; height:8.200000000000001cm;""><p>What type of rock is this?</p>","7","class_response","1","test","48","Pumice","Pumice","13","true","8","8","","","","","","","","","","","","","","","","","",""
"","","","","","","","","","","","html-keyboard-response","235","2.0.0","1023530","5b0fa626bd9c310001568d6c","4","9","null","","","","","","","","","<p style='font-size: 30px;'><strong>Okay</strong></p>","null","neutral_feedback","1","test","48","","","","","","","","","","","","","","","","","","","","","","","",""
"","","","","","","","","","","","html-button-response","236","2.0.0","1050696","5b0fa626bd9c310001568d6c","4","9","","","","","","","","","","","","cycle_feedback","","","","","","","","","","","","","","","","","","","","","","9140.399999976158","18021.69999998808","","","",""
"","","","","","","","","","","","html-button-response","238","2.0.0","1054084","5b0fa626bd9c310001568d6c","4","9","3386","","","","","","","","","","0","start_train","","","","","","","","","","","","","","","","","","","","","","","","","","",""
"","","","","","","","","","","","html-button-response","240","2.0.0","1060970","5b0fa626bd9c310001568d6c","4","9","6883","","","","","","","","","<img src= ""rock_img/I_Pumice_14.jpg"" style=""width:8cm; height:6.39cm;""><p>What type of rock is this?</p>","7","class_response","2","train","1","Pumice","Pumice","14","true","8","8","","","","","","","","","","","","","","","","","",""
"","","","","","","","","","","","html-button-response","241","2.0.0","1062574","5b0fa626bd9c310001568d6c","4","9","1602","","","","","","","","","<img src= rock_img/I_Pumice_14.jpg style=""width:8cm; height:6.39cm;""><p style='font-size: 30px; color: green;'><strong>Correct!</strong></p><p style='font-size: 30px;'><strong>This rock is pumice</strong></p>","0","corr_feedback","2","train","1","","","","","","","","","","","","","","","","","","","","","","","",""
"","","","","","","","","","","","html-button-response","242","2.0.0","1066354","5b0fa626bd9c310001568d6c","4","9","3777","","","","","","","","","<img src= ""rock_img/I_Pegmatite_09.jpg"" style=""width:8cm; height:4.03cm;""><p>What type of rock is this?</p>","5","class_response","2","train","2","Pegmatite","Pegmatite","09","true","6","6","","","","","","","","","","","","","","","","","",""
"","","","","","","","","","","","html-button-response","243","2.0.0","1067408","5b0fa626bd9c310001568d6c","4","9","1052","","","","","","","","","<img src= rock_img/I_Pegmatite_09.jpg style=""width:8cm; height:4.03cm;""><p style='font-size: 30px; color: green;'><strong>Correct!</strong></p><p style='font-size: 30px;'><strong>This rock is pegmatite</strong></p>","0","corr_feedback","2","train","2","","","","","","","","","","","","","","","","","","","","","","","",""
"","","","","","","","","","","","html-button-response","244","2.0.0","1069371","5b0fa626bd9c310001568d6c","4","9","1962","","","","","","","","","<img src= ""rock_img/I_Obsidian_16.jpg"" style=""width:8cm; height:9.3cm;""><p>What type of rock is this?</p>","4","class_response","2","train","3","Obsidian","Obsidian","16","true","5","5","","","","","","","","","","","","","","","","","",""
"","","","","","","","","","","","html-button-response","245","2.0.0","1070286","5b0fa626bd9c310001568d6c","4","9","913","","","","","","","","","<img src= rock_img/I_Obsidian_16.jpg style=""width:8cm; height:9.3cm;""><p style='font-size: 30px; color: green;'><strong>Correct!</strong></p><p style='font-size: 30px;'><strong>This rock is obsidian</strong></p>","0","corr_feedback","2","train","3","","","","","","","","","","","","","","","","","","","","","","","",""
"","","","","","","","","","","","html-button-response","246","2.0.0","1074280","5b0fa626bd9c310001568d6c","4","9","3992","","","","","","","","","<img src= ""rock_img/I_Diorite_15.jpg"" style=""width:8cm; height:5.54cm;""><p>What type of rock is this?</p>","2","class_response","2","train","4","Diorite","Diorite","15","true","3","3","","","","","","","","","","","","","","","","","",""
"","","","","","","","","","","","html-button-response","247","2.0.0","1075197","5b0fa626bd9c310001568d6c","4","9","916","","","","","","","","","<img src= rock_img/I_Diorite_15.jpg style=""width:8cm; height:5.54cm;""><p style='font-size: 30px; color: green;'><strong>Correct!</strong></p><p style='font-size: 30px;'><strong>This rock is diorite</strong></p>","0","corr_feedback","2","train","4","","","","","","","","","","","","","","","","","","","","","","","",""
"","","","","","","","","","","","html-button-response","248","2.0.0","1078906","5b0fa626bd9c310001568d6c","4","9","3707","","","","","","","","","<img src= ""rock_img/I_Peridotite_08.jpg"" style=""width:8cm; height:6.7cm;""><p>What type of rock is this?</p>","6","class_response","2","train","5","Peridotite","Peridotite","08","true","7","7","","","","","","","","","","","","","","","","","",""
"","","","","","","","","","","","html-button-response","249","2.0.0","1079850","5b0fa626bd9c310001568d6c","4","9","942","","","","","","","","","<img src= rock_img/I_Peridotite_08.jpg style=""width:8cm; height:6.7cm;""><p style='font-size: 30px; color: green;'><strong>Correct!</strong></p><p style='font-size: 30px;'><strong>This rock is peridotite</strong></p>","0","corr_feedback","2","train","5","","","","","","","","","","","","","","","","","","","","","","","",""
"","","","","","","","","","","","html-button-response","250","2.0.0","1083002","5b0fa626bd9c310001568d6c","4","9","3150","","","","","","","","","<img src= ""rock_img/I_Peridotite_15.jpg"" style=""width:8cm; height:6cm;""><p>What type of rock is this?</p>","6","class_response","2","train","6","Peridotite","Peridotite","15","true","7","7","","","","","","","","","","","","","","","","","",""
"","","","","","","","","","","","html-button-response","251","2.0.0","1083888","5b0fa626bd9c310001568d6c","4","9","884","","","","","","","","","<img src= rock_img/I_Peridotite_15.jpg style=""width:8cm; height:6cm;""><p style='font-size: 30px; color: green;'><strong>Correct!</strong></p><p style='font-size: 30px;'><strong>This rock is peridotite</strong></p>","0","corr_feedback","2","train","6","","","","","","","","","","","","","","","","","","","","","","","",""
"","","","","","","","","","","","html-button-response","252","2.0.0","1085410","5b0fa626bd9c310001568d6c","4","9","1521","","","","","","","","","<img src= ""rock_img/I_Obsidian_12.jpg"" style=""width:8cm; height:6.53cm;""><p>What type of rock is this?</p>","4","class_response","2","train","7","Obsidian","Obsidian","12","true","5","5","","","","","","","","","","","","","","","","","",""
"","","","","","","","","","","","html-button-response","253","2.0.0","1086368","5b0fa626bd9c310001568d6c","4","9","956","","","","","","","","","<img src= rock_img/I_Obsidian_12.jpg style=""width:8cm; height:6.53cm;""><p style='font-size: 30px; color: green;'><strong>Correct!</strong></p><p style='font-size: 30px;'><strong>This rock is obsidian</strong></p>","0","corr_feedback","2","train","7","","","","","","","","","","","","","","","","","","","","","","","",""
"","","","","","","","","","","","html-button-response","254","2.0.0","1088873","5b0fa626bd9c310001568d6c","4","9","2503","","","","","","","","","<img src= ""rock_img/I_Pegmatite_08.jpg"" style=""width:8cm; height:7.68cm;""><p>What type of rock is this?</p>","4","class_response","2","train","8","Obsidian","Pegmatite","08","false","5","6","","","","","","","","","","","","","","","","","",""
"","","","","","","","","","","","html-button-response","255","2.0.0","1094521","5b0fa626bd9c310001568d6c","4","9","5648","","","","","","","","","<img src= rock_img/I_Pegmatite_08.jpg style=""width:8cm; height:7.68cm;""><p style='font-size: 30px; color: red;'><strong>Incorrect!</strong></p><p style='font-size: 30px;'><strong>This rock is pegmatite</strong></p>","0","corr_feedback","2","train","8","","","","","","","","","","","","","","","","","","","","","","","",""
"","","","","","","","","","","","html-button-response","256","2.0.0","1097684","5b0fa626bd9c310001568d6c","4","9","3160","","","","","","","","","<img src= ""rock_img/I_Basalt_01.jpg"" style=""width:8cm; height:7.880000000000001cm;""><p>What type of rock is this?</p>","1","class_response","2","train","9","Basalt","Basalt","01","true","2","2","","","","","","","","","","","","","","","","","",""
"","","","","","","","","","","","html-button-response","257","2.0.0","1098510","5b0fa626bd9c310001568d6c","4","9","824","","","","","","","","","<img src= rock_img/I_Basalt_01.jpg style=""width:8cm; height:7.880000000000001cm;""><p style='font-size: 30px; color: green;'><strong>Correct!</strong></p><p style='font-size: 30px;'><strong>This rock is basalt</strong></p>","0","corr_feedback","2","train","9","","","","","","","","","","","","","","","","","","","","","","","",""
"","","","","","","","","","","","html-button-response","258","2.0.0","1103310","5b0fa626bd9c310001568d6c","4","9","4799","","","","","","","","","<img src= ""rock_img/I_Gabbro_08.jpg"" style=""width:8cm; height:5.15cm;""><p>What type of rock is this?</p>","0","class_response","2","train","10","Andesite","Gabbro","08","false","1","4","","","","","","","","","","","","","","","","","",""
"","","","","","","","","","","","html-button-response","259","2.0.0","1104897","5b0fa626bd9c310001568d6c","4","9","1586","","","","","","","","","<img src= rock_img/I_Gabbro_08.jpg style=""width:8cm; height:5.15cm;""><p style='font-size: 30px; color: red;'><strong>Incorrect!</strong></p><p style='font-size: 30px;'><strong>This rock is gabbro</strong></p>","0","corr_feedback","2","train","10","","","","","","","","","","","","","","","","","","","","","","","",""
"","","","","","","","","","","","html-button-response","260","2.0.0","1108240","5b0fa626bd9c310001568d6c","4","9","3341","","","","","","","","","<img src= ""rock_img/I_Basalt_09.jpg"" style=""width:8cm; height:6.2cm;""><p>What type of rock is this?</p>","1","class_response","2","train","11","Basalt","Basalt","09","true","2","2","","","","","","","","","","","","","","","","","",""
"","","","","","","","","","","","html-button-response","261","2.0.0","1109284","5b0fa626bd9c310001568d6c","4","9","1042","","","","","","","","","<img src= rock_img/I_Basalt_09.jpg style=""width:8cm; height:6.2cm;""><p style='font-size: 30px; color: green;'><strong>Correct!</strong></p><p style='font-size: 30px;'><strong>This rock is basalt</strong></p>","0","corr_feedback","2","train","11","","","","","","","","","","","","","","","","","","","","","","","",""
"","","","","","","","","","","","html-button-response","262","2.0.0","1111352","5b0fa626bd9c310001568d6c","4","9","2066","","","","","","","","","<img src= ""rock_img/I_Andesite_10.jpg"" style=""width:8cm; height:4.16cm;""><p>What type of rock is this?</p>","3","class_response","2","train","12","Gabbro","Andesite","10","false","4","1","","","","","","","","","","","","","","","","","",""
"","","","","","","","","","","","html-button-response","263","2.0.0","1112461","5b0fa626bd9c310001568d6c","4","9","1108","","","","","","","","","<img src= rock_img/I_Andesite_10.jpg style=""width:8cm; height:4.16cm;""><p style='font-size: 30px; color: red;'><strong>Incorrect!</strong></p><p style='font-size: 30px;'><strong>This rock is andesite</strong></p>","0","corr_feedback","2","train","12","","","","","","","","","","","","","","","","","","","","","","","",""
"","","","","","","","","","","","html-button-response","265","2.0.0","1113853","5b0fa626bd9c310001568d6c","4","9","1390","","","","","","","","","","0","start_train","","","","","","","","","","","","","","","","","","","","","","","","","","",""
"","","","","","","","","","","","html-button-response","266","2.0.0","1119531","5b0fa626bd9c310001568d6c","4","9","","","","","","","","","","","","cat_selection","2","train","1","","","","","","","5195","479.89999997615814","6","7","Peridotite","Andesite","","","","","","","","","","","",""
"","","","","","","","","","","","paired-cat-display","267","1.0.0","1198549","5b0fa626bd9c310001568d6c","4","9","","","","","","","","","","","","paired_cat_display","2","train","1","","","","","","","","","","","","","has black smooth spots, rough edges and surface","","13485.799999952316","65510.39999997616","","has mixed colors, rough surface","","","","","",""
"","","","","","","","","","","","html-button-response","268","2.0.0","1204482","5b0fa626bd9c310001568d6c","4","9","","","","","","","","","","","","cat_selection","2","train","2","","","","","","","5184.600000023842","746.1999999880791","5","1","Pegmatite","Peridotite","","","","","","","","","","","",""
"","","","","","","","","","","","paired-cat-display","269","1.0.0","1269092","5b0fa626bd9c310001568d6c","4","9","","","","","","","","","","","","paired_cat_display","2","train","2","","","","","","","","","","","","","","slightly smooth surface with small spots","6212.399999976158","58382.90000003576","","","","","black smooth shiny surface","","",""
"","","","","","","","","","","","html-button-response","270","2.0.0","1274022","5b0fa626bd9c310001568d6c","4","9","","","","","","","","","","","","cat_selection","2","train","3","","","","","","","3483","1443.9000000357628","4","3","Obsidian","Andesite","","","","","","","","","","","",""
"","","","","","","","","","","","paired-cat-display","271","1.0.0","1383096","5b0fa626bd9c310001568d6c","4","9","","","","","","","","","","","","paired_cat_display","2","train","3","","","","","","","","","","","","","","","17817.69999998808","91240","smooth surface, lighter in color","","","","","rougher surface than the diorite, gray or brown in color","",""
"","","","","","","","","","","","html-button-response","273","2.0.0","1384566","5b0fa626bd9c310001568d6c","4","9","1468","","","","","","","","","","0","start_test","","","","","","","","","","","","","","","","","","","","","","","","","","",""
"","","","","","","","","","","","html-button-response","274","2.0.0","1389788","5b0fa626bd9c310001568d6c","4","9","5219","","","","","","","","","<img src= ""rock_img/I_Peridotite_16.jpg"" style=""width:8cm; height:6.989999999999999cm;""><p>What type of rock is this?</p>","3","class_response","2","test","1","Gabbro","Peridotite","16","false","4","7","","","","","","","","","","","","","","","","","",""
"","","","","","","","","","","","html-keyboard-response","275","2.0.0","1390290","5b0fa626bd9c310001568d6c","4","9","null","","","","","","","","","<p style='font-size: 30px;'><strong>Okay</strong></p>","null","neutral_feedback","2","test","1","","","","","","","","","","","","","","","","","","","","","","","",""
"","","","","","","","","","","","html-button-response","276","2.0.0","1418500","5b0fa626bd9c310001568d6c","4","9","28209","","","","","","","","","<img src= ""rock_img/I_Peridotite_02.jpg"" style=""width:8cm; height:5.859999999999999cm;""><p>What type of rock is this?</p>","6","class_response","2","test","2","Peridotite","Peridotite","02","true","7","7","","","","","","","","","","","","","","","","","",""
"","","","","","","","","","","","html-keyboard-response","277","2.0.0","1419002","5b0fa626bd9c310001568d6c","4","9","null","","","","","","","","","<p style='font-size: 30px;'><strong>Okay</strong></p>","null","neutral_feedback","2","test","2","","","","","","","","","","","","","","","","","","","","","","","",""
"","","","","","","","","","","","html-button-response","278","2.0.0","1426876","5b0fa626bd9c310001568d6c","4","9","7872","","","","","","","","","<img src= ""rock_img/I_Andesite_14.jpg"" style=""width:8cm; height:5.449999999999999cm;""><p>What type of rock is this?</p>","0","class_response","2","test","3","Andesite","Andesite","14","true","1","1","","","","","","","","","","","","","","","","","",""
