width,height,webaudio,browser,browser_version,mobile,os,fullscreen,vsync_rate,webcam,microphone,trial_type,trial_index,plugin_version,time_elapsed,subjID,condition,stimID,rt,url,success,value,timeout,failed_images,failed_audio,failed_video,view_history,stimulus,response,trialType,cycle,phase,trial,resp,cat,token,corr,resp_num,cat_num,ref_cat_num,paired_cat_num,time_obs,ref_cat,paired_cat,ref_prob_dist,paired_prob_dist,text_Basalt,text_Gabbro,time_resp,text_Andesite,text_Obsidian,text_Diorite,text_Pegmatite,time_fb1,time_fb2,text_Peridotite
1358,642,TRUE,edge-chromium,130.0.0,FALSE,Windows 10,TRUE,41.35,TRUE,TRUE,browser-check,0,2.0.0,1499,5b233660648d5b0001b7de87,3,33,,,,,,,,,,,,,,,,,,,,,,,,,,,,,,,,,,,,,,
,,,,,,,,,,,external-html,1,2.0.0,96896,5b233660648d5b0001b7de87,3,33,95309,consent_form.html,,,,,,,,,,,,,,,,,,,,,,,,,,,,,,,,,,,,
,,,,,,,,,,,fullscreen,2,2.0.0,451937,5b233660648d5b0001b7de87,3,33,354031,,TRUE,,,,,,,,,,,,,,,,,,,,,,,,,,,,,,,,,,,
,,,,,,,,,,,call-function,3,2.0.0,451947,5b233660648d5b0001b7de87,3,33,,,,{},,,,,,,,,,,,,,,,,,,,,,,,,,,,,,,,,,
,,,,,,,,,,,preload,4,2.0.0,455989,5b233660648d5b0001b7de87,3,33,,,TRUE,,FALSE,[],[],[],,,,,,,,,,,,,,,,,,,,,,,,,,,,,,
,,,,,,,,,,,instructions,5,2.0.0,588509,5b233660648d5b0001b7de87,3,33,132517,,,,,,,,"[{""page_index"":0,""viewing_time"":5005},{""page_index"":1,""viewing_time"":18467},{""page_index"":2,""viewing_time"":109044}]",,,,,,,,,,,,,,,,,,,,,,,,,,,,,
,,,,,,,,,,,html-button-response,6,2.0.0,590827,5b233660648d5b0001b7de87,3,33,2312,,,,,,,,,,0,start_test,,,,,,,,,,,,,,,,,,,,,,,,,,
,,,,,,,,,,,html-button-response,7,2.0.0,594728,5b233660648d5b0001b7de87,3,33,3896,,,,,,,,,"<img src= ""rock_img/I_Gabbro_10.jpg"" style=""width:8cm; height:5.680000000000001cm;""><p>What type of rock is this?</p>",1,class_response,0,test,1,Basalt,Gabbro,10,FALSE,2,4,,,,,,,,,,,,,,,,,
,,,,,,,,,,,html-keyboard-response,8,2.0.0,595243,5b233660648d5b0001b7de87,3,33,null,,,,,,,,,<p style='font-size: 30px;'><strong>Okay</strong></p>,null,neutral_feedback,0,test,1,,,,,,,,,,,,,,,,,,,,,,,
,,,,,,,,,,,html-button-response,9,2.0.0,598534,5b233660648d5b0001b7de87,3,33,3281,,,,,,,,,"<img src= ""rock_img/I_Pumice_09.jpg"" style=""width:8cm; height:6.44cm;""><p>What type of rock is this?</p>",7,class_response,0,test,2,Pumice,Pumice,9,TRUE,8,8,,,,,,,,,,,,,,,,,
,,,,,,,,,,,html-keyboard-response,10,2.0.0,599045,5b233660648d5b0001b7de87,3,33,null,,,,,,,,,<p style='font-size: 30px;'><strong>Okay</strong></p>,null,neutral_feedback,0,test,2,,,,,,,,,,,,,,,,,,,,,,,
,,,,,,,,,,,html-button-response,11,2.0.0,604400,5b233660648d5b0001b7de87,3,33,5350,,,,,,,,,"<img src= ""rock_img/I_Obsidian_09.jpg"" style=""width:8cm; height:5cm;""><p>What type of rock is this?</p>",0,class_response,0,test,3,Andesite,Obsidian,9,FALSE,1,5,,,,,,,,,,,,,,,,,
,,,,,,,,,,,html-keyboard-response,12,2.0.0,604909,5b233660648d5b0001b7de87,3,33,null,,,,,,,,,<p style='font-size: 30px;'><strong>Okay</strong></p>,null,neutral_feedback,0,test,3,,,,,,,,,,,,,,,,,,,,,,,
,,,,,,,,,,,html-button-response,13,2.0.0,611688,5b233660648d5b0001b7de87,3,33,6773,,,,,,,,,"<img src= ""rock_img/I_Diorite_14.jpg"" style=""width:8cm; height:5.71cm;""><p>What type of rock is this?</p>",5,class_response,0,test,4,Pegmatite,Diorite,14,FALSE,6,3,,,,,,,,,,,,,,,,,
,,,,,,,,,,,html-keyboard-response,14,2.0.0,612199,5b233660648d5b0001b7de87,3,33,null,,,,,,,,,<p style='font-size: 30px;'><strong>Okay</strong></p>,null,neutral_feedback,0,test,4,,,,,,,,,,,,,,,,,,,,,,,
,,,,,,,,,,,html-button-response,15,2.0.0,616204,5b233660648d5b0001b7de87,3,33,3999,,,,,,,,,"<img src= ""rock_img/I_Diorite_10.jpg"" style=""width:8cm; height:5.949999999999999cm;""><p>What type of rock is this?</p>",6,class_response,0,test,5,Peridotite,Diorite,10,FALSE,7,3,,,,,,,,,,,,,,,,,
,,,,,,,,,,,html-keyboard-response,16,2.0.0,616711,5b233660648d5b0001b7de87,3,33,null,,,,,,,,,<p style='font-size: 30px;'><strong>Okay</strong></p>,null,neutral_feedback,0,test,5,,,,,,,,,,,,,,,,,,,,,,,
,,,,,,,,,,,html-button-response,17,2.0.0,619598,5b233660648d5b0001b7de87,3,33,2882,,,,,,,,,"<img src= ""rock_img/I_Gabbro_08.jpg"" style=""width:8cm; height:5.15cm;""><p>What type of rock is this?</p>",0,class_response,0,test,6,Andesite,Gabbro,8,FALSE,1,4,,,,,,,,,,,,,,,,,
,,,,,,,,,,,html-keyboard-response,18,2.0.0,620107,5b233660648d5b0001b7de87,3,33,null,,,,,,,,,<p style='font-size: 30px;'><strong>Okay</strong></p>,null,neutral_feedback,0,test,6,,,,,,,,,,,,,,,,,,,,,,,
,,,,,,,,,,,html-button-response,19,2.0.0,625124,5b233660648d5b0001b7de87,3,33,5011,,,,,,,,,"<img src= ""rock_img/I_Gabbro_16.jpg"" style=""width:8cm; height:6.44cm;""><p>What type of rock is this?</p>",7,class_response,0,test,7,Pumice,Gabbro,16,FALSE,8,4,,,,,,,,,,,,,,,,,
,,,,,,,,,,,html-keyboard-response,20,2.0.0,625634,5b233660648d5b0001b7de87,3,33,null,,,,,,,,,<p style='font-size: 30px;'><strong>Okay</strong></p>,null,neutral_feedback,0,test,7,,,,,,,,,,,,,,,,,,,,,,,
,,,,,,,,,,,html-button-response,21,2.0.0,629684,5b233660648d5b0001b7de87,3,33,4044,,,,,,,,,"<img src= ""rock_img/I_Pumice_06.jpg"" style=""width:8cm; height:6.9399999999999995cm;""><p>What type of rock is this?</p>",4,class_response,0,test,8,Obsidian,Pumice,6,FALSE,5,8,,,,,,,,,,,,,,,,,
,,,,,,,,,,,html-keyboard-response,22,2.0.0,630199,5b233660648d5b0001b7de87,3,33,null,,,,,,,,,<p style='font-size: 30px;'><strong>Okay</strong></p>,null,neutral_feedback,0,test,8,,,,,,,,,,,,,,,,,,,,,,,
,,,,,,,,,,,html-button-response,23,2.0.0,634528,5b233660648d5b0001b7de87,3,33,4324,,,,,,,,,"<img src= ""rock_img/I_Basalt_16.jpg"" style=""width:8cm; height:7.659999999999999cm;""><p>What type of rock is this?</p>",3,class_response,0,test,9,Gabbro,Basalt,16,FALSE,4,2,,,,,,,,,,,,,,,,,
,,,,,,,,,,,html-keyboard-response,24,2.0.0,635044,5b233660648d5b0001b7de87,3,33,null,,,,,,,,,<p style='font-size: 30px;'><strong>Okay</strong></p>,null,neutral_feedback,0,test,9,,,,,,,,,,,,,,,,,,,,,,,
,,,,,,,,,,,html-button-response,25,2.0.0,638010,5b233660648d5b0001b7de87,3,33,2960,,,,,,,,,"<img src= ""rock_img/I_Andesite_10.jpg"" style=""width:8cm; height:4.16cm;""><p>What type of rock is this?</p>",7,class_response,0,test,10,Pumice,Andesite,10,FALSE,8,1,,,,,,,,,,,,,,,,,
,,,,,,,,,,,html-keyboard-response,26,2.0.0,638523,5b233660648d5b0001b7de87,3,33,null,,,,,,,,,<p style='font-size: 30px;'><strong>Okay</strong></p>,null,neutral_feedback,0,test,10,,,,,,,,,,,,,,,,,,,,,,,
,,,,,,,,,,,html-button-response,27,2.0.0,643499,5b233660648d5b0001b7de87,3,33,4974,,,,,,,,,"<img src= ""rock_img/I_Diorite_09.jpg"" style=""width:8cm; height:5.27cm;""><p>What type of rock is this?</p>",1,class_response,0,test,11,Basalt,Diorite,9,FALSE,2,3,,,,,,,,,,,,,,,,,
,,,,,,,,,,,html-keyboard-response,28,2.0.0,644013,5b233660648d5b0001b7de87,3,33,null,,,,,,,,,<p style='font-size: 30px;'><strong>Okay</strong></p>,null,neutral_feedback,0,test,11,,,,,,,,,,,,,,,,,,,,,,,
,,,,,,,,,,,html-button-response,29,2.0.0,649533,5b233660648d5b0001b7de87,3,33,5513,,,,,,,,,"<img src= ""rock_img/I_Peridotite_16.jpg"" style=""width:8cm; height:6.989999999999999cm;""><p>What type of rock is this?</p>",2,class_response,0,test,12,Diorite,Peridotite,16,FALSE,3,7,,,,,,,,,,,,,,,,,
,,,,,,,,,,,html-keyboard-response,30,2.0.0,650044,5b233660648d5b0001b7de87,3,33,null,,,,,,,,,<p style='font-size: 30px;'><strong>Okay</strong></p>,null,neutral_feedback,0,test,12,,,,,,,,,,,,,,,,,,,,,,,
,,,,,,,,,,,html-button-response,31,2.0.0,652551,5b233660648d5b0001b7de87,3,33,2502,,,,,,,,,"<img src= ""rock_img/I_Peridotite_05.jpg"" style=""width:8cm; height:7.1499999999999995cm;""><p>What type of rock is this?</p>",6,class_response,0,test,13,Peridotite,Peridotite,5,TRUE,7,7,,,,,,,,,,,,,,,,,
,,,,,,,,,,,html-keyboard-response,32,2.0.0,653066,5b233660648d5b0001b7de87,3,33,null,,,,,,,,,<p style='font-size: 30px;'><strong>Okay</strong></p>,null,neutral_feedback,0,test,13,,,,,,,,,,,,,,,,,,,,,,,
,,,,,,,,,,,html-button-response,33,2.0.0,654774,5b233660648d5b0001b7de87,3,33,1706,,,,,,,,,"<img src= ""rock_img/I_Peridotite_08.jpg"" style=""width:8cm; height:6.7cm;""><p>What type of rock is this?</p>",1,class_response,0,test,14,Basalt,Peridotite,8,FALSE,2,7,,,,,,,,,,,,,,,,,
,,,,,,,,,,,html-keyboard-response,34,2.0.0,655279,5b233660648d5b0001b7de87,3,33,null,,,,,,,,,<p style='font-size: 30px;'><strong>Okay</strong></p>,null,neutral_feedback,0,test,14,,,,,,,,,,,,,,,,,,,,,,,
,,,,,,,,,,,html-button-response,35,2.0.0,659755,5b233660648d5b0001b7de87,3,33,4473,,,,,,,,,"<img src= ""rock_img/I_Basalt_06.jpg"" style=""width:8cm; height:7.06cm;""><p>What type of rock is this?</p>",4,class_response,0,test,15,Obsidian,Basalt,6,FALSE,5,2,,,,,,,,,,,,,,,,,
,,,,,,,,,,,html-keyboard-response,36,2.0.0,660266,5b233660648d5b0001b7de87,3,33,null,,,,,,,,,<p style='font-size: 30px;'><strong>Okay</strong></p>,null,neutral_feedback,0,test,15,,,,,,,,,,,,,,,,,,,,,,,
,,,,,,,,,,,html-button-response,37,2.0.0,668322,5b233660648d5b0001b7de87,3,33,8048,,,,,,,,,"<img src= ""rock_img/I_Obsidian_08.jpg"" style=""width:8cm; height:7.39cm;""><p>What type of rock is this?</p>",2,class_response,0,test,16,Diorite,Obsidian,8,FALSE,3,5,,,,,,,,,,,,,,,,,
,,,,,,,,,,,html-keyboard-response,38,2.0.0,668842,5b233660648d5b0001b7de87,3,33,null,,,,,,,,,<p style='font-size: 30px;'><strong>Okay</strong></p>,null,neutral_feedback,0,test,16,,,,,,,,,,,,,,,,,,,,,,,
,,,,,,,,,,,html-button-response,39,2.0.0,670751,5b233660648d5b0001b7de87,3,33,1904,,,,,,,,,"<img src= ""rock_img/I_Pegmatite_05.jpg"" style=""width:8cm; height:7.300000000000001cm;""><p>What type of rock is this?</p>",5,class_response,0,test,17,Pegmatite,Pegmatite,5,TRUE,6,6,,,,,,,,,,,,,,,,,
,,,,,,,,,,,html-keyboard-response,40,2.0.0,671256,5b233660648d5b0001b7de87,3,33,null,,,,,,,,,<p style='font-size: 30px;'><strong>Okay</strong></p>,null,neutral_feedback,0,test,17,,,,,,,,,,,,,,,,,,,,,,,
,,,,,,,,,,,html-button-response,41,2.0.0,673812,5b233660648d5b0001b7de87,3,33,2552,,,,,,,,,"<img src= ""rock_img/I_Obsidian_16.jpg"" style=""width:8cm; height:9.3cm;""><p>What type of rock is this?</p>",3,class_response,0,test,18,Gabbro,Obsidian,16,FALSE,4,5,,,,,,,,,,,,,,,,,
,,,,,,,,,,,html-keyboard-response,42,2.0.0,674320,5b233660648d5b0001b7de87,3,33,null,,,,,,,,,<p style='font-size: 30px;'><strong>Okay</strong></p>,null,neutral_feedback,0,test,18,,,,,,,,,,,,,,,,,,,,,,,
,,,,,,,,,,,html-button-response,43,2.0.0,675669,5b233660648d5b0001b7de87,3,33,1345,,,,,,,,,"<img src= ""rock_img/I_Peridotite_07.jpg"" style=""width:8cm; height:4.83cm;""><p>What type of rock is this?</p>",7,class_response,0,test,19,Pumice,Peridotite,7,FALSE,8,7,,,,,,,,,,,,,,,,,
,,,,,,,,,,,html-keyboard-response,44,2.0.0,676187,5b233660648d5b0001b7de87,3,33,null,,,,,,,,,<p style='font-size: 30px;'><strong>Okay</strong></p>,null,neutral_feedback,0,test,19,,,,,,,,,,,,,,,,,,,,,,,
,,,,,,,,,,,html-button-response,45,2.0.0,679671,5b233660648d5b0001b7de87,3,33,3479,,,,,,,,,"<img src= ""rock_img/I_Gabbro_13.jpg"" style=""width:8cm; height:5.08cm;""><p>What type of rock is this?</p>",4,class_response,0,test,20,Obsidian,Gabbro,13,FALSE,5,4,,,,,,,,,,,,,,,,,
,,,,,,,,,,,html-keyboard-response,46,2.0.0,680182,5b233660648d5b0001b7de87,3,33,null,,,,,,,,,<p style='font-size: 30px;'><strong>Okay</strong></p>,null,neutral_feedback,0,test,20,,,,,,,,,,,,,,,,,,,,,,,
,,,,,,,,,,,html-button-response,47,2.0.0,683508,5b233660648d5b0001b7de87,3,33,3321,,,,,,,,,"<img src= ""rock_img/I_Pegmatite_03.jpg"" style=""width:8cm; height:5.239999999999999cm;""><p>What type of rock is this?</p>",5,class_response,0,test,21,Pegmatite,Pegmatite,3,TRUE,6,6,,,,,,,,,,,,,,,,,
,,,,,,,,,,,html-keyboard-response,48,2.0.0,684012,5b233660648d5b0001b7de87,3,33,null,,,,,,,,,<p style='font-size: 30px;'><strong>Okay</strong></p>,null,neutral_feedback,0,test,21,,,,,,,,,,,,,,,,,,,,,,,
,,,,,,,,,,,html-button-response,49,2.0.0,686374,5b233660648d5b0001b7de87,3,33,2356,,,,,,,,,"<img src= ""rock_img/I_Andesite_01.jpg"" style=""width:8cm; height:5.87cm;""><p>What type of rock is this?</p>",2,class_response,0,test,22,Diorite,Andesite,1,FALSE,3,1,,,,,,,,,,,,,,,,,
,,,,,,,,,,,html-keyboard-response,50,2.0.0,686892,5b233660648d5b0001b7de87,3,33,null,,,,,,,,,<p style='font-size: 30px;'><strong>Okay</strong></p>,null,neutral_feedback,0,test,22,,,,,,,,,,,,,,,,,,,,,,,
,,,,,,,,,,,html-button-response,51,2.0.0,690375,5b233660648d5b0001b7de87,3,33,3478,,,,,,,,,"<img src= ""rock_img/I_Andesite_16.jpg"" style=""width:8cm; height:6.010000000000001cm;""><p>What type of rock is this?</p>",5,class_response,0,test,23,Pegmatite,Andesite,16,FALSE,6,1,,,,,,,,,,,,,,,,,
,,,,,,,,,,,html-keyboard-response,52,2.0.0,690878,5b233660648d5b0001b7de87,3,33,null,,,,,,,,,<p style='font-size: 30px;'><strong>Okay</strong></p>,null,neutral_feedback,0,test,23,,,,,,,,,,,,,,,,,,,,,,,
,,,,,,,,,,,html-button-response,53,2.0.0,694776,5b233660648d5b0001b7de87,3,33,3896,,,,,,,,,"<img src= ""rock_img/I_Gabbro_03.jpg"" style=""width:8cm; height:8.52cm;""><p>What type of rock is this?</p>",1,class_response,0,test,24,Basalt,Gabbro,3,FALSE,2,4,,,,,,,,,,,,,,,,,
,,,,,,,,,,,html-keyboard-response,54,2.0.0,695292,5b233660648d5b0001b7de87,3,33,null,,,,,,,,,<p style='font-size: 30px;'><strong>Okay</strong></p>,null,neutral_feedback,0,test,24,,,,,,,,,,,,,,,,,,,,,,,
,,,,,,,,,,,html-button-response,55,2.0.0,701087,5b233660648d5b0001b7de87,3,33,5794,,,,,,,,,"<img src= ""rock_img/I_Obsidian_12.jpg"" style=""width:8cm; height:6.53cm;""><p>What type of rock is this?</p>",0,class_response,0,test,25,Andesite,Obsidian,12,FALSE,1,5,,,,,,,,,,,,,,,,,
,,,,,,,,,,,html-keyboard-response,56,2.0.0,701602,5b233660648d5b0001b7de87,3,33,null,,,,,,,,,<p style='font-size: 30px;'><strong>Okay</strong></p>,null,neutral_feedback,0,test,25,,,,,,,,,,,,,,,,,,,,,,,
,,,,,,,,,,,html-button-response,57,2.0.0,705016,5b233660648d5b0001b7de87,3,33,3411,,,,,,,,,"<img src= ""rock_img/I_Basalt_04.jpg"" style=""width:8cm; height:7.53cm;""><p>What type of rock is this?</p>",3,class_response,0,test,26,Gabbro,Basalt,4,FALSE,4,2,,,,,,,,,,,,,,,,,
,,,,,,,,,,,html-keyboard-response,58,2.0.0,705528,5b233660648d5b0001b7de87,3,33,null,,,,,,,,,<p style='font-size: 30px;'><strong>Okay</strong></p>,null,neutral_feedback,0,test,26,,,,,,,,,,,,,,,,,,,,,,,
,,,,,,,,,,,html-button-response,59,2.0.0,708162,5b233660648d5b0001b7de87,3,33,2629,,,,,,,,,"<img src= ""rock_img/I_Andesite_09.jpg"" style=""width:8cm; height:6cm;""><p>What type of rock is this?</p>",5,class_response,0,test,27,Pegmatite,Andesite,9,FALSE,6,1,,,,,,,,,,,,,,,,,
,,,,,,,,,,,html-keyboard-response,60,2.0.0,708670,5b233660648d5b0001b7de87,3,33,null,,,,,,,,,<p style='font-size: 30px;'><strong>Okay</strong></p>,null,neutral_feedback,0,test,27,,,,,,,,,,,,,,,,,,,,,,,
,,,,,,,,,,,html-button-response,61,2.0.0,711951,5b233660648d5b0001b7de87,3,33,3277,,,,,,,,,"<img src= ""rock_img/I_Pegmatite_15.jpg"" style=""width:8cm; height:6cm;""><p>What type of rock is this?</p>",6,class_response,0,test,28,Peridotite,Pegmatite,15,FALSE,7,6,,,,,,,,,,,,,,,,,
,,,,,,,,,,,html-keyboard-response,62,2.0.0,712467,5b233660648d5b0001b7de87,3,33,null,,,,,,,,,<p style='font-size: 30px;'><strong>Okay</strong></p>,null,neutral_feedback,0,test,28,,,,,,,,,,,,,,,,,,,,,,,
,,,,,,,,,,,html-button-response,63,2.0.0,714333,5b233660648d5b0001b7de87,3,33,1859,,,,,,,,,"<img src= ""rock_img/I_Andesite_02.jpg"" style=""width:8cm; height:8.5cm;""><p>What type of rock is this?</p>",4,class_response,0,test,29,Obsidian,Andesite,2,FALSE,5,1,,,,,,,,,,,,,,,,,
,,,,,,,,,,,html-keyboard-response,64,2.0.0,714847,5b233660648d5b0001b7de87,3,33,null,,,,,,,,,<p style='font-size: 30px;'><strong>Okay</strong></p>,null,neutral_feedback,0,test,29,,,,,,,,,,,,,,,,,,,,,,,
,,,,,,,,,,,html-button-response,65,2.0.0,718802,5b233660648d5b0001b7de87,3,33,3950,,,,,,,,,"<img src= ""rock_img/I_Gabbro_14.jpg"" style=""width:8cm; height:8.48cm;""><p>What type of rock is this?</p>",5,class_response,0,test,30,Pegmatite,Gabbro,14,FALSE,6,4,,,,,,,,,,,,,,,,,
,,,,,,,,,,,html-keyboard-response,66,2.0.0,719317,5b233660648d5b0001b7de87,3,33,null,,,,,,,,,<p style='font-size: 30px;'><strong>Okay</strong></p>,null,neutral_feedback,0,test,30,,,,,,,,,,,,,,,,,,,,,,,
,,,,,,,,,,,html-button-response,67,2.0.0,726144,5b233660648d5b0001b7de87,3,33,6824,,,,,,,,,"<img src= ""rock_img/I_Pumice_05.jpg"" style=""width:8cm; height:7.25cm;""><p>What type of rock is this?</p>",3,class_response,0,test,31,Gabbro,Pumice,5,FALSE,4,8,,,,,,,,,,,,,,,,,
,,,,,,,,,,,html-keyboard-response,68,2.0.0,726652,5b233660648d5b0001b7de87,3,33,null,,,,,,,,,<p style='font-size: 30px;'><strong>Okay</strong></p>,null,neutral_feedback,0,test,31,,,,,,,,,,,,,,,,,,,,,,,
,,,,,,,,,,,html-button-response,69,2.0.0,729447,5b233660648d5b0001b7de87,3,33,2790,,,,,,,,,"<img src= ""rock_img/I_Diorite_02.jpg"" style=""width:8cm; height:6.27cm;""><p>What type of rock is this?</p>",5,class_response,0,test,32,Pegmatite,Diorite,2,FALSE,6,3,,,,,,,,,,,,,,,,,
,,,,,,,,,,,html-keyboard-response,70,2.0.0,729949,5b233660648d5b0001b7de87,3,33,null,,,,,,,,,<p style='font-size: 30px;'><strong>Okay</strong></p>,null,neutral_feedback,0,test,32,,,,,,,,,,,,,,,,,,,,,,,
,,,,,,,,,,,html-button-response,71,2.0.0,731481,5b233660648d5b0001b7de87,3,33,1529,,,,,,,,,"<img src= ""rock_img/I_Basalt_11.jpg"" style=""width:8cm; height:5.359999999999999cm;""><p>What type of rock is this?</p>",2,class_response,0,test,33,Diorite,Basalt,11,FALSE,3,2,,,,,,,,,,,,,,,,,
,,,,,,,,,,,html-keyboard-response,72,2.0.0,731989,5b233660648d5b0001b7de87,3,33,null,,,,,,,,,<p style='font-size: 30px;'><strong>Okay</strong></p>,null,neutral_feedback,0,test,33,,,,,,,,,,,,,,,,,,,,,,,
,,,,,,,,,,,html-button-response,73,2.0.0,735660,5b233660648d5b0001b7de87,3,33,3669,,,,,,,,,"<img src= ""rock_img/I_Pumice_03.jpg"" style=""width:8cm; height:6.64cm;""><p>What type of rock is this?</p>",6,class_response,0,test,34,Peridotite,Pumice,3,FALSE,7,8,,,,,,,,,,,,,,,,,
,,,,,,,,,,,html-keyboard-response,74,2.0.0,736178,5b233660648d5b0001b7de87,3,33,null,,,,,,,,,<p style='font-size: 30px;'><strong>Okay</strong></p>,null,neutral_feedback,0,test,34,,,,,,,,,,,,,,,,,,,,,,,
,,,,,,,,,,,html-button-response,75,2.0.0,738817,5b233660648d5b0001b7de87,3,33,2634,,,,,,,,,"<img src= ""rock_img/I_Pegmatite_06.jpg"" style=""width:8cm; height:5.17cm;""><p>What type of rock is this?</p>",3,class_response,0,test,35,Gabbro,Pegmatite,6,FALSE,4,6,,,,,,,,,,,,,,,,,
,,,,,,,,,,,html-keyboard-response,76,2.0.0,739322,5b233660648d5b0001b7de87,3,33,null,,,,,,,,,<p style='font-size: 30px;'><strong>Okay</strong></p>,null,neutral_feedback,0,test,35,,,,,,,,,,,,,,,,,,,,,,,
,,,,,,,,,,,html-button-response,77,2.0.0,740709,5b233660648d5b0001b7de87,3,33,1382,,,,,,,,,"<img src= ""rock_img/I_Pumice_14.jpg"" style=""width:8cm; height:6.39cm;""><p>What type of rock is this?</p>",5,class_response,0,test,36,Pegmatite,Pumice,14,FALSE,6,8,,,,,,,,,,,,,,,,,
,,,,,,,,,,,html-keyboard-response,78,2.0.0,741213,5b233660648d5b0001b7de87,3,33,null,,,,,,,,,<p style='font-size: 30px;'><strong>Okay</strong></p>,null,neutral_feedback,0,test,36,,,,,,,,,,,,,,,,,,,,,,,
,,,,,,,,,,,html-button-response,79,2.0.0,744103,5b233660648d5b0001b7de87,3,33,2888,,,,,,,,,"<img src= ""rock_img/I_Basalt_08.jpg"" style=""width:8cm; height:10.44cm;""><p>What type of rock is this?</p>",6,class_response,0,test,37,Peridotite,Basalt,8,FALSE,7,2,,,,,,,,,,,,,,,,,
,,,,,,,,,,,html-keyboard-response,80,2.0.0,744610,5b233660648d5b0001b7de87,3,33,null,,,,,,,,,<p style='font-size: 30px;'><strong>Okay</strong></p>,null,neutral_feedback,0,test,37,,,,,,,,,,,,,,,,,,,,,,,
,,,,,,,,,,,html-button-response,81,2.0.0,745940,5b233660648d5b0001b7de87,3,33,1328,,,,,,,,,"<img src= ""rock_img/I_Diorite_15.jpg"" style=""width:8cm; height:5.54cm;""><p>What type of rock is this?</p>",0,class_response,0,test,38,Andesite,Diorite,15,FALSE,1,3,,,,,,,,,,,,,,,,,
,,,,,,,,,,,html-keyboard-response,82,2.0.0,746448,5b233660648d5b0001b7de87,3,33,null,,,,,,,,,<p style='font-size: 30px;'><strong>Okay</strong></p>,null,neutral_feedback,0,test,38,,,,,,,,,,,,,,,,,,,,,,,
,,,,,,,,,,,html-button-response,83,2.0.0,748417,5b233660648d5b0001b7de87,3,33,1965,,,,,,,,,"<img src= ""rock_img/I_Diorite_16.jpg"" style=""width:8cm; height:6.74cm;""><p>What type of rock is this?</p>",4,class_response,0,test,39,Obsidian,Diorite,16,FALSE,5,3,,,,,,,,,,,,,,,,,
,,,,,,,,,,,html-keyboard-response,84,2.0.0,748931,5b233660648d5b0001b7de87,3,33,null,,,,,,,,,<p style='font-size: 30px;'><strong>Okay</strong></p>,null,neutral_feedback,0,test,39,,,,,,,,,,,,,,,,,,,,,,,
,,,,,,,,,,,html-button-response,85,2.0.0,756625,5b233660648d5b0001b7de87,3,33,7688,,,,,,,,,"<img src= ""rock_img/I_Pegmatite_10.jpg"" style=""width:8cm; height:4.16cm;""><p>What type of rock is this?</p>",2,class_response,0,test,40,Diorite,Pegmatite,10,FALSE,3,6,,,,,,,,,,,,,,,,,
,,,,,,,,,,,html-keyboard-response,86,2.0.0,757138,5b233660648d5b0001b7de87,3,33,null,,,,,,,,,<p style='font-size: 30px;'><strong>Okay</strong></p>,null,neutral_feedback,0,test,40,,,,,,,,,,,,,,,,,,,,,,,
,,,,,,,,,,,html-button-response,87,2.0.0,764710,5b233660648d5b0001b7de87,3,33,7566,,,,,,,,,"<img src= ""rock_img/I_Peridotite_04.jpg"" style=""width:8cm; height:6.680000000000001cm;""><p>What type of rock is this?</p>",4,class_response,0,test,41,Obsidian,Peridotite,4,FALSE,5,7,,,,,,,,,,,,,,,,,
,,,,,,,,,,,html-keyboard-response,88,2.0.0,765218,5b233660648d5b0001b7de87,3,33,null,,,,,,,,,<p style='font-size: 30px;'><strong>Okay</strong></p>,null,neutral_feedback,0,test,41,,,,,,,,,,,,,,,,,,,,,,,
,,,,,,,,,,,html-button-response,89,2.0.0,767494,5b233660648d5b0001b7de87,3,33,2271,,,,,,,,,"<img src= ""rock_img/I_Obsidian_06.jpg"" style=""width:8cm; height:6.8cm;""><p>What type of rock is this?</p>",1,class_response,0,test,42,Basalt,Obsidian,6,FALSE,2,5,,,,,,,,,,,,,,,,,
,,,,,,,,,,,html-keyboard-response,90,2.0.0,767998,5b233660648d5b0001b7de87,3,33,null,,,,,,,,,<p style='font-size: 30px;'><strong>Okay</strong></p>,null,neutral_feedback,0,test,42,,,,,,,,,,,,,,,,,,,,,,,
,,,,,,,,,,,html-button-response,91,2.0.0,769561,5b233660648d5b0001b7de87,3,33,1555,,,,,,,,,"<img src= ""rock_img/I_Peridotite_13.jpg"" style=""width:8cm; height:7.58cm;""><p>What type of rock is this?</p>",2,class_response,0,test,43,Diorite,Peridotite,13,FALSE,3,7,,,,,,,,,,,,,,,,,
,,,,,,,,,,,html-keyboard-response,92,2.0.0,770078,5b233660648d5b0001b7de87,3,33,null,,,,,,,,,<p style='font-size: 30px;'><strong>Okay</strong></p>,null,neutral_feedback,0,test,43,,,,,,,,,,,,,,,,,,,,,,,
,,,,,,,,,,,html-button-response,93,2.0.0,772696,5b233660648d5b0001b7de87,3,33,2613,,,,,,,,,"<img src= ""rock_img/I_Basalt_10.jpg"" style=""width:8cm; height:5.85cm;""><p>What type of rock is this?</p>",6,class_response,0,test,44,Peridotite,Basalt,10,FALSE,7,2,,,,,,,,,,,,,,,,,
,,,,,,,,,,,html-keyboard-response,94,2.0.0,773209,5b233660648d5b0001b7de87,3,33,null,,,,,,,,,<p style='font-size: 30px;'><strong>Okay</strong></p>,null,neutral_feedback,0,test,44,,,,,,,,,,,,,,,,,,,,,,,
,,,,,,,,,,,html-button-response,95,2.0.0,775855,5b233660648d5b0001b7de87,3,33,2638,,,,,,,,,"<img src= ""rock_img/I_Pumice_02.jpg"" style=""width:8cm; height:7.3999999999999995cm;""><p>What type of rock is this?</p>",3,class_response,0,test,45,Gabbro,Pumice,2,FALSE,4,8,,,,,,,,,,,,,,,,,
,,,,,,,,,,,html-keyboard-response,96,2.0.0,776371,5b233660648d5b0001b7de87,3,33,null,,,,,,,,,<p style='font-size: 30px;'><strong>Okay</strong></p>,null,neutral_feedback,0,test,45,,,,,,,,,,,,,,,,,,,,,,,
,,,,,,,,,,,html-button-response,97,2.0.0,778562,5b233660648d5b0001b7de87,3,33,2186,,,,,,,,,"<img src= ""rock_img/I_Pegmatite_12.jpg"" style=""width:8cm; height:5.7cm;""><p>What type of rock is this?</p>",5,class_response,0,test,46,Pegmatite,Pegmatite,12,TRUE,6,6,,,,,,,,,,,,,,,,,
,,,,,,,,,,,html-keyboard-response,98,2.0.0,779065,5b233660648d5b0001b7de87,3,33,null,,,,,,,,,<p style='font-size: 30px;'><strong>Okay</strong></p>,null,neutral_feedback,0,test,46,,,,,,,,,,,,,,,,,,,,,,,
,,,,,,,,,,,html-button-response,99,2.0.0,782194,5b233660648d5b0001b7de87,3,33,3127,,,,,,,,,"<img src= ""rock_img/I_Andesite_06.jpg"" style=""width:8cm; height:6.840000000000001cm;""><p>What type of rock is this?</p>",2,class_response,0,test,47,Diorite,Andesite,6,FALSE,3,1,,,,,,,,,,,,,,,,,
,,,,,,,,,,,html-keyboard-response,100,2.0.0,782707,5b233660648d5b0001b7de87,3,33,null,,,,,,,,,<p style='font-size: 30px;'><strong>Okay</strong></p>,null,neutral_feedback,0,test,47,,,,,,,,,,,,,,,,,,,,,,,
,,,,,,,,,,,html-button-response,101,2.0.0,784640,5b233660648d5b0001b7de87,3,33,1930,,,,,,,,,"<img src= ""rock_img/I_Obsidian_05.jpg"" style=""width:8cm; height:6.33cm;""><p>What type of rock is this?</p>",5,class_response,0,test,48,Pegmatite,Obsidian,5,FALSE,6,5,,,,,,,,,,,,,,,,,
,,,,,,,,,,,html-keyboard-response,102,2.0.0,785155,5b233660648d5b0001b7de87,3,33,null,,,,,,,,,<p style='font-size: 30px;'><strong>Okay</strong></p>,null,neutral_feedback,0,test,48,,,,,,,,,,,,,,,,,,,,,,,
,,,,,,,,,,,instructions,103,2.0.0,843711,5b233660648d5b0001b7de87,3,33,58508,,,,,,,,"[{""page_index"":0,""viewing_time"":55941},{""page_index"":1,""viewing_time"":2567}]",,,,,,,,,,,,,,,,,,,,,,,,,,,,,
,,,,,,,,,,,html-button-response,104,2.0.0,847036,5b233660648d5b0001b7de87,3,33,3319,,,,,,,,,,0,start_train,,,,,,,,,,,,,,,,,,,,,,,,,,
,,,,,,,,,,,html-button-response,106,2.0.0,850379,5b233660648d5b0001b7de87,3,33,3336,,,,,,,,,"<img src= ""rock_img/I_Basalt_02.jpg"" style=""width:8cm; height:6.45cm;""><p>What type of rock is this?</p>",1,class_response,1,train,1,Basalt,Basalt,2,TRUE,2,2,,,,,,,,,,,,,,,,,
,,,,,,,,,,,html-button-response,107,2.0.0,853233,5b233660648d5b0001b7de87,3,33,2850,,,,,,,,,"<img src= rock_img/I_Basalt_02.jpg style=""width:8cm; height:6.45cm;""><p style='font-size: 30px; color: green;'><strong>Correct!</strong></p><p style='font-size: 30px;'><strong>This rock is basalt</strong></p>",0,corr_feedback,1,train,1,,,,,,,,,,,,,,,,,,,,,,,
,,,,,,,,,,,html-button-response,108,2.0.0,861838,5b233660648d5b0001b7de87,3,33,8598,,,,,,,,,"<img src= ""rock_img/I_Gabbro_01.jpg"" style=""width:8cm; height:5.21cm;""><p>What type of rock is this?</p>",5,class_response,1,train,2,Pegmatite,Gabbro,1,FALSE,6,4,,,,,,,,,,,,,,,,,
,,,,,,,,,,,html-button-response,109,2.0.0,863950,5b233660648d5b0001b7de87,3,33,2107,,,,,,,,,"<img src= rock_img/I_Gabbro_01.jpg style=""width:8cm; height:5.21cm;""><p style='font-size: 30px; color: red;'><strong>Incorrect!</strong></p><p style='font-size: 30px;'><strong>This rock is gabbro</strong></p>",0,corr_feedback,1,train,2,,,,,,,,,,,,,,,,,,,,,,,
,,,,,,,,,,,html-button-response,110,2.0.0,869818,5b233660648d5b0001b7de87,3,33,5865,,,,,,,,,"<img src= ""rock_img/I_Obsidian_14.jpg"" style=""width:8cm; height:7.64cm;""><p>What type of rock is this?</p>",4,class_response,1,train,3,Obsidian,Obsidian,14,TRUE,5,5,,,,,,,,,,,,,,,,,
,,,,,,,,,,,html-button-response,111,2.0.0,873246,5b233660648d5b0001b7de87,3,33,3425,,,,,,,,,"<img src= rock_img/I_Obsidian_14.jpg style=""width:8cm; height:7.64cm;""><p style='font-size: 30px; color: green;'><strong>Correct!</strong></p><p style='font-size: 30px;'><strong>This rock is obsidian</strong></p>",0,corr_feedback,1,train,3,,,,,,,,,,,,,,,,,,,,,,,
,,,,,,,,,,,html-button-response,112,2.0.0,879670,5b233660648d5b0001b7de87,3,33,6421,,,,,,,,,"<img src= ""rock_img/I_Diorite_07.jpg"" style=""width:8cm; height:5.239999999999999cm;""><p>What type of rock is this?</p>",0,class_response,1,train,4,Andesite,Diorite,7,FALSE,1,3,,,,,,,,,,,,,,,,,
,,,,,,,,,,,html-button-response,113,2.0.0,881651,5b233660648d5b0001b7de87,3,33,1976,,,,,,,,,"<img src= rock_img/I_Diorite_07.jpg style=""width:8cm; height:5.239999999999999cm;""><p style='font-size: 30px; color: red;'><strong>Incorrect!</strong></p><p style='font-size: 30px;'><strong>This rock is diorite</strong></p>",0,corr_feedback,1,train,4,,,,,,,,,,,,,,,,,,,,,,,
,,,,,,,,,,,html-button-response,114,2.0.0,884234,5b233660648d5b0001b7de87,3,33,2578,,,,,,,,,"<img src= ""rock_img/I_Peridotite_12.jpg"" style=""width:8cm; height:4.54cm;""><p>What type of rock is this?</p>",6,class_response,1,train,5,Peridotite,Peridotite,12,TRUE,7,7,,,,,,,,,,,,,,,,,
,,,,,,,,,,,html-button-response,115,2.0.0,888463,5b233660648d5b0001b7de87,3,33,4226,,,,,,,,,"<img src= rock_img/I_Peridotite_12.jpg style=""width:8cm; height:4.54cm;""><p style='font-size: 30px; color: green;'><strong>Correct!</strong></p><p style='font-size: 30px;'><strong>This rock is peridotite</strong></p>",0,corr_feedback,1,train,5,,,,,,,,,,,,,,,,,,,,,,,
,,,,,,,,,,,html-button-response,116,2.0.0,891277,5b233660648d5b0001b7de87,3,33,2811,,,,,,,,,"<img src= ""rock_img/I_Pumice_16.jpg"" style=""width:8cm; height:6.79cm;""><p>What type of rock is this?</p>",3,class_response,1,train,6,Gabbro,Pumice,16,FALSE,4,8,,,,,,,,,,,,,,,,,
,,,,,,,,,,,html-button-response,117,2.0.0,893036,5b233660648d5b0001b7de87,3,33,1757,,,,,,,,,"<img src= rock_img/I_Pumice_16.jpg style=""width:8cm; height:6.79cm;""><p style='font-size: 30px; color: red;'><strong>Incorrect!</strong></p><p style='font-size: 30px;'><strong>This rock is pumice</strong></p>",0,corr_feedback,1,train,6,,,,,,,,,,,,,,,,,,,,,,,
,,,,,,,,,,,html-button-response,118,2.0.0,895994,5b233660648d5b0001b7de87,3,33,2951,,,,,,,,,"<img src= ""rock_img/I_Pegmatite_11.jpg"" style=""width:8cm; height:8.14cm;""><p>What type of rock is this?</p>",6,class_response,1,train,7,Peridotite,Pegmatite,11,FALSE,7,6,,,,,,,,,,,,,,,,,
,,,,,,,,,,,html-button-response,119,2.0.0,897542,5b233660648d5b0001b7de87,3,33,1543,,,,,,,,,"<img src= rock_img/I_Pegmatite_11.jpg style=""width:8cm; height:8.14cm;""><p style='font-size: 30px; color: red;'><strong>Incorrect!</strong></p><p style='font-size: 30px;'><strong>This rock is pegmatite</strong></p>",0,corr_feedback,1,train,7,,,,,,,,,,,,,,,,,,,,,,,
,,,,,,,,,,,html-button-response,120,2.0.0,900404,5b233660648d5b0001b7de87,3,33,2855,,,,,,,,,"<img src= ""rock_img/I_Obsidian_04.jpg"" style=""width:8cm; height:6.930000000000001cm;""><p>What type of rock is this?</p>",5,class_response,1,train,8,Pegmatite,Obsidian,4,FALSE,6,5,,,,,,,,,,,,,,,,,
,,,,,,,,,,,html-button-response,121,2.0.0,901585,5b233660648d5b0001b7de87,3,33,1176,,,,,,,,,"<img src= rock_img/I_Obsidian_04.jpg style=""width:8cm; height:6.930000000000001cm;""><p style='font-size: 30px; color: red;'><strong>Incorrect!</strong></p><p style='font-size: 30px;'><strong>This rock is obsidian</strong></p>",0,corr_feedback,1,train,8,,,,,,,,,,,,,,,,,,,,,,,
,,,,,,,,,,,html-button-response,122,2.0.0,908838,5b233660648d5b0001b7de87,3,33,7250,,,,,,,,,"<img src= ""rock_img/I_Pumice_08.jpg"" style=""width:8cm; height:6.67cm;""><p>What type of rock is this?</p>",0,class_response,1,train,9,Andesite,Pumice,8,FALSE,1,8,,,,,,,,,,,,,,,,,
,,,,,,,,,,,html-button-response,123,2.0.0,911086,5b233660648d5b0001b7de87,3,33,2243,,,,,,,,,"<img src= rock_img/I_Pumice_08.jpg style=""width:8cm; height:6.67cm;""><p style='font-size: 30px; color: red;'><strong>Incorrect!</strong></p><p style='font-size: 30px;'><strong>This rock is pumice</strong></p>",0,corr_feedback,1,train,9,,,,,,,,,,,,,,,,,,,,,,,
,,,,,,,,,,,html-button-response,124,2.0.0,912941,5b233660648d5b0001b7de87,3,33,1849,,,,,,,,,"<img src= ""rock_img/I_Andesite_04.jpg"" style=""width:8cm; height:5.96cm;""><p>What type of rock is this?</p>",2,class_response,1,train,10,Diorite,Andesite,4,FALSE,3,1,,,,,,,,,,,,,,,,,
,,,,,,,,,,,html-button-response,125,2.0.0,914586,5b233660648d5b0001b7de87,3,33,1641,,,,,,,,,"<img src= rock_img/I_Andesite_04.jpg style=""width:8cm; height:5.96cm;""><p style='font-size: 30px; color: red;'><strong>Incorrect!</strong></p><p style='font-size: 30px;'><strong>This rock is andesite</strong></p>",0,corr_feedback,1,train,10,,,,,,,,,,,,,,,,,,,,,,,
,,,,,,,,,,,html-button-response,126,2.0.0,918508,5b233660648d5b0001b7de87,3,33,3915,,,,,,,,,"<img src= ""rock_img/I_Pegmatite_07.jpg"" style=""width:8cm; height:6.7cm;""><p>What type of rock is this?</p>",3,class_response,1,train,11,Gabbro,Pegmatite,7,FALSE,4,6,,,,,,,,,,,,,,,,,
,,,,,,,,,,,html-button-response,127,2.0.0,920340,5b233660648d5b0001b7de87,3,33,1829,,,,,,,,,"<img src= rock_img/I_Pegmatite_07.jpg style=""width:8cm; height:6.7cm;""><p style='font-size: 30px; color: red;'><strong>Incorrect!</strong></p><p style='font-size: 30px;'><strong>This rock is pegmatite</strong></p>",0,corr_feedback,1,train,11,,,,,,,,,,,,,,,,,,,,,,,
,,,,,,,,,,,html-button-response,128,2.0.0,926902,5b233660648d5b0001b7de87,3,33,6560,,,,,,,,,"<img src= ""rock_img/I_Basalt_09.jpg"" style=""width:8cm; height:6.2cm;""><p>What type of rock is this?</p>",4,class_response,1,train,12,Obsidian,Basalt,9,FALSE,5,2,,,,,,,,,,,,,,,,,
,,,,,,,,,,,html-button-response,129,2.0.0,928354,5b233660648d5b0001b7de87,3,33,1449,,,,,,,,,"<img src= rock_img/I_Basalt_09.jpg style=""width:8cm; height:6.2cm;""><p style='font-size: 30px; color: red;'><strong>Incorrect!</strong></p><p style='font-size: 30px;'><strong>This rock is basalt</strong></p>",0,corr_feedback,1,train,12,,,,,,,,,,,,,,,,,,,,,,,
,,,,,,,,,,,instructions,130,2.0.0,966096,5b233660648d5b0001b7de87,3,33,37740,,,,,,,,"[{""page_index"":0,""viewing_time"":3952},{""page_index"":1,""viewing_time"":2903},{""page_index"":2,""viewing_time"":9636},{""page_index"":3,""viewing_time"":21248}]",,,,,,,,,,,,,,,,,,,,,,,,,,,,,
,,,,,,,,,,,html-button-response,131,2.0.0,970199,5b233660648d5b0001b7de87,3,33,4095,,,,,,,,,,0,start_train,,,,,,,,,,,,,,,,,,,,,,,,,,
,,,,,,,,,,,html-button-response,132,2.0.0,972149,5b233660648d5b0001b7de87,3,33,,,,,,,,,,,,cat_selection,1,train,1,,,,,,,2,4,1943.4,Basalt,Gabbro,"[0.13775510204081634,0.13775510204081634,0.13775510204081634,0.13775510204081634,0.13775510204081634,0.07653061224489796,0.11734693877551022,0.11734693877551022]","[0.057101617649150824,null,0.1492214880124328,0.2629536861935,0.16323041820902445,0.04470675984477516,0.26533926488639786,0.057446765204719016]",,,,,,,,,,
,,,,,,,,,,,paired-cat-display,133,1.0.0,1219521,5b233660648d5b0001b7de87,3,33,,,,,,,,,,,,paired_cat_display,1,train,1,,,,,,,,,8226,,,,,rough square Dark,"bumpy, rough chippy ",239125.4,,,,,,,
,,,,,,,,,,,html-button-response,134,2.0.0,1224892,5b233660648d5b0001b7de87,3,33,,,,,,,,,,,,cat_selection,1,train,2,,,,,,,1,5,5368.3,Andesite,Obsidian,"[0.13775510204081634,0.13775510204081634,0.13775510204081634,0.13775510204081634,0.13775510204081634,0.07653061224489796,0.11734693877551022,0.11734693877551022]","[null,0.05496030698730767,0.2516501037486414,0.05448154164644045,0.1632957678381118,0.25226565918689925,0.05783289903251094,0.16551372156008848]",,,,,,,,,,
,,,,,,,,,,,paired-cat-display,135,1.0.0,1338038,5b233660648d5b0001b7de87,3,33,,,,,,,,,,,,paired_cat_display,1,train,2,,,,,,,,,10022.5,,,,,,,103116.8,bumpy grey chippy,shinny dark trapazoid,,,,,
,,,,,,,,,,,html-button-response,136,2.0.0,1341628,5b233660648d5b0001b7de87,3,33,,,,,,,,,,,,cat_selection,1,train,3,,,,,,,3,6,3586.8,Diorite,Pegmatite,"[0.13775510204081634,0.13775510204081634,0.13775510204081634,0.13775510204081634,0.13775510204081634,0.07653061224489796,0.11734693877551022,0.11734693877551022]","[0.15355011647229994,0.15310934749349178,null,0.06449552082410677,0.16264097666021862,0.27205909912934967,0.1549385387555457,0.03920640066498749]",,,,,,,,,,
,,,,,,,,,,,paired-cat-display,137,1.0.0,1561031,5b233660648d5b0001b7de87,3,33,,,,,,,,,,,,paired_cat_display,1,train,3,,,,,,,,,11923.1,,,,,,,207474.3,,,rough grey chips,round rough two tone,,,
,,,,,,,,,,,instructions,138,2.0.0,1680791,5b233660648d5b0001b7de87,3,33,119755,,,,,,,,"[{""page_index"":0,""viewing_time"":46961},{""page_index"":1,""viewing_time"":72794}]",,,,,,,,,,,,,,,,,,,,,,,,,,,,,
,,,,,,,,,,,html-button-response,139,2.0.0,1698372,5b233660648d5b0001b7de87,3,33,17574,,,,,,,,,,0,start_test,,,,,,,,,,,,,,,,,,,,,,,,,,
,,,,,,,,,,,html-button-response,140,2.0.0,1701320,5b233660648d5b0001b7de87,3,33,2943,,,,,,,,,"<img src= ""rock_img/I_Obsidian_05.jpg"" style=""width:8cm; height:6.33cm;""><p>What type of rock is this?</p>",1,class_response,1,test,1,Basalt,Obsidian,5,FALSE,2,5,,,,,,,,,,,,,,,,,
,,,,,,,,,,,html-keyboard-response,141,2.0.0,1701834,5b233660648d5b0001b7de87,3,33,null,,,,,,,,,<p style='font-size: 30px;'><strong>Okay</strong></p>,null,neutral_feedback,1,test,1,,,,,,,,,,,,,,,,,,,,,,,
,,,,,,,,,,,html-button-response,142,2.0.0,1718081,5b233660648d5b0001b7de87,3,33,16238,,,,,,,,,"<img src= ""rock_img/I_Basalt_06.jpg"" style=""width:8cm; height:7.06cm;""><p>What type of rock is this?</p>",6,class_response,1,test,2,Peridotite,Basalt,6,FALSE,7,2,,,,,,,,,,,,,,,,,
,,,,,,,,,,,html-keyboard-response,143,2.0.0,1718599,5b233660648d5b0001b7de87,3,33,null,,,,,,,,,<p style='font-size: 30px;'><strong>Okay</strong></p>,null,neutral_feedback,1,test,2,,,,,,,,,,,,,,,,,,,,,,,
,,,,,,,,,,,html-button-response,144,2.0.0,1724993,5b233660648d5b0001b7de87,3,33,6389,,,,,,,,,"<img src= ""rock_img/I_Diorite_14.jpg"" style=""width:8cm; height:5.71cm;""><p>What type of rock is this?</p>",2,class_response,1,test,3,Diorite,Diorite,14,TRUE,3,3,,,,,,,,,,,,,,,,,
,,,,,,,,,,,html-keyboard-response,145,2.0.0,1725508,5b233660648d5b0001b7de87,3,33,null,,,,,,,,,<p style='font-size: 30px;'><strong>Okay</strong></p>,null,neutral_feedback,1,test,3,,,,,,,,,,,,,,,,,,,,,,,
,,,,,,,,,,,html-button-response,146,2.0.0,1728679,5b233660648d5b0001b7de87,3,33,3166,,,,,,,,,"<img src= ""rock_img/I_Peridotite_13.jpg"" style=""width:8cm; height:7.58cm;""><p>What type of rock is this?</p>",7,class_response,1,test,4,Pumice,Peridotite,13,FALSE,8,7,,,,,,,,,,,,,,,,,
,,,,,,,,,,,html-keyboard-response,147,2.0.0,1729191,5b233660648d5b0001b7de87,3,33,null,,,,,,,,,<p style='font-size: 30px;'><strong>Okay</strong></p>,null,neutral_feedback,1,test,4,,,,,,,,,,,,,,,,,,,,,,,
,,,,,,,,,,,html-button-response,148,2.0.0,1731649,5b233660648d5b0001b7de87,3,33,2450,,,,,,,,,"<img src= ""rock_img/I_Basalt_10.jpg"" style=""width:8cm; height:5.85cm;""><p>What type of rock is this?</p>",4,class_response,1,test,5,Obsidian,Basalt,10,FALSE,5,2,,,,,,,,,,,,,,,,,
,,,,,,,,,,,html-keyboard-response,149,2.0.0,1732168,5b233660648d5b0001b7de87,3,33,null,,,,,,,,,<p style='font-size: 30px;'><strong>Okay</strong></p>,null,neutral_feedback,1,test,5,,,,,,,,,,,,,,,,,,,,,,,
,,,,,,,,,,,html-button-response,150,2.0.0,1737995,5b233660648d5b0001b7de87,3,33,5822,,,,,,,,,"<img src= ""rock_img/I_Pegmatite_06.jpg"" style=""width:8cm; height:5.17cm;""><p>What type of rock is this?</p>",0,class_response,1,test,6,Andesite,Pegmatite,6,FALSE,1,6,,,,,,,,,,,,,,,,,
,,,,,,,,,,,html-keyboard-response,151,2.0.0,1738499,5b233660648d5b0001b7de87,3,33,null,,,,,,,,,<p style='font-size: 30px;'><strong>Okay</strong></p>,null,neutral_feedback,1,test,6,,,,,,,,,,,,,,,,,,,,,,,
,,,,,,,,,,,html-button-response,152,2.0.0,1740281,5b233660648d5b0001b7de87,3,33,1777,,,,,,,,,"<img src= ""rock_img/I_Gabbro_03.jpg"" style=""width:8cm; height:8.52cm;""><p>What type of rock is this?</p>",6,class_response,1,test,7,Peridotite,Gabbro,3,FALSE,7,4,,,,,,,,,,,,,,,,,
,,,,,,,,,,,html-keyboard-response,153,2.0.0,1740795,5b233660648d5b0001b7de87,3,33,null,,,,,,,,,<p style='font-size: 30px;'><strong>Okay</strong></p>,null,neutral_feedback,1,test,7,,,,,,,,,,,,,,,,,,,,,,,
,,,,,,,,,,,html-button-response,154,2.0.0,1746786,5b233660648d5b0001b7de87,3,33,5993,,,,,,,,,"<img src= ""rock_img/I_Pumice_03.jpg"" style=""width:8cm; height:6.64cm;""><p>What type of rock is this?</p>",7,class_response,1,test,8,Pumice,Pumice,3,TRUE,8,8,,,,,,,,,,,,,,,,,
,,,,,,,,,,,html-keyboard-response,155,2.0.0,1747290,5b233660648d5b0001b7de87,3,33,null,,,,,,,,,<p style='font-size: 30px;'><strong>Okay</strong></p>,null,neutral_feedback,1,test,8,,,,,,,,,,,,,,,,,,,,,,,
,,,,,,,,,,,html-button-response,156,2.0.0,1749771,5b233660648d5b0001b7de87,3,33,2476,,,,,,,,,"<img src= ""rock_img/I_Diorite_15.jpg"" style=""width:8cm; height:5.54cm;""><p>What type of rock is this?</p>",1,class_response,1,test,9,Basalt,Diorite,15,FALSE,2,3,,,,,,,,,,,,,,,,,
,,,,,,,,,,,html-keyboard-response,157,2.0.0,1750276,5b233660648d5b0001b7de87,3,33,null,,,,,,,,,<p style='font-size: 30px;'><strong>Okay</strong></p>,null,neutral_feedback,1,test,9,,,,,,,,,,,,,,,,,,,,,,,
,,,,,,,,,,,html-button-response,158,2.0.0,1755559,5b233660648d5b0001b7de87,3,33,5277,,,,,,,,,"<img src= ""rock_img/I_Obsidian_06.jpg"" style=""width:8cm; height:6.8cm;""><p>What type of rock is this?</p>",0,class_response,1,test,10,Andesite,Obsidian,6,FALSE,1,5,,,,,,,,,,,,,,,,,
,,,,,,,,,,,html-keyboard-response,159,2.0.0,1756074,5b233660648d5b0001b7de87,3,33,null,,,,,,,,,<p style='font-size: 30px;'><strong>Okay</strong></p>,null,neutral_feedback,1,test,10,,,,,,,,,,,,,,,,,,,,,,,
,,,,,,,,,,,html-button-response,160,2.0.0,1757905,5b233660648d5b0001b7de87,3,33,1826,,,,,,,,,"<img src= ""rock_img/I_Obsidian_16.jpg"" style=""width:8cm; height:9.3cm;""><p>What type of rock is this?</p>",0,class_response,1,test,11,Andesite,Obsidian,16,FALSE,1,5,,,,,,,,,,,,,,,,,
,,,,,,,,,,,html-keyboard-response,161,2.0.0,1758421,5b233660648d5b0001b7de87,3,33,null,,,,,,,,,<p style='font-size: 30px;'><strong>Okay</strong></p>,null,neutral_feedback,1,test,11,,,,,,,,,,,,,,,,,,,,,,,
,,,,,,,,,,,html-button-response,162,2.0.0,1760127,5b233660648d5b0001b7de87,3,33,1702,,,,,,,,,"<img src= ""rock_img/I_Peridotite_04.jpg"" style=""width:8cm; height:6.680000000000001cm;""><p>What type of rock is this?</p>",5,class_response,1,test,12,Pegmatite,Peridotite,4,FALSE,6,7,,,,,,,,,,,,,,,,,
,,,,,,,,,,,html-keyboard-response,163,2.0.0,1760637,5b233660648d5b0001b7de87,3,33,null,,,,,,,,,<p style='font-size: 30px;'><strong>Okay</strong></p>,null,neutral_feedback,1,test,12,,,,,,,,,,,,,,,,,,,,,,,
,,,,,,,,,,,html-button-response,164,2.0.0,1762727,5b233660648d5b0001b7de87,3,33,2085,,,,,,,,,"<img src= ""rock_img/I_Obsidian_09.jpg"" style=""width:8cm; height:5cm;""><p>What type of rock is this?</p>",0,class_response,1,test,13,Andesite,Obsidian,9,FALSE,1,5,,,,,,,,,,,,,,,,,
,,,,,,,,,,,html-keyboard-response,165,2.0.0,1763234,5b233660648d5b0001b7de87,3,33,null,,,,,,,,,<p style='font-size: 30px;'><strong>Okay</strong></p>,null,neutral_feedback,1,test,13,,,,,,,,,,,,,,,,,,,,,,,
,,,,,,,,,,,html-button-response,166,2.0.0,1768417,5b233660648d5b0001b7de87,3,33,5175,,,,,,,,,"<img src= ""rock_img/I_Pegmatite_03.jpg"" style=""width:8cm; height:5.239999999999999cm;""><p>What type of rock is this?</p>",6,class_response,1,test,14,Peridotite,Pegmatite,3,FALSE,7,6,,,,,,,,,,,,,,,,,
,,,,,,,,,,,html-keyboard-response,167,2.0.0,1768923,5b233660648d5b0001b7de87,3,33,null,,,,,,,,,<p style='font-size: 30px;'><strong>Okay</strong></p>,null,neutral_feedback,1,test,14,,,,,,,,,,,,,,,,,,,,,,,
,,,,,,,,,,,html-button-response,168,2.0.0,1772100,5b233660648d5b0001b7de87,3,33,3174,,,,,,,,,"<img src= ""rock_img/I_Basalt_08.jpg"" style=""width:8cm; height:10.44cm;""><p>What type of rock is this?</p>",5,class_response,1,test,15,Pegmatite,Basalt,8,FALSE,6,2,,,,,,,,,,,,,,,,,
,,,,,,,,,,,html-keyboard-response,169,2.0.0,1772603,5b233660648d5b0001b7de87,3,33,null,,,,,,,,,<p style='font-size: 30px;'><strong>Okay</strong></p>,null,neutral_feedback,1,test,15,,,,,,,,,,,,,,,,,,,,,,,
,,,,,,,,,,,html-button-response,170,2.0.0,1776187,5b233660648d5b0001b7de87,3,33,3582,,,,,,,,,"<img src= ""rock_img/I_Pumice_14.jpg"" style=""width:8cm; height:6.39cm;""><p>What type of rock is this?</p>",7,class_response,1,test,16,Pumice,Pumice,14,TRUE,8,8,,,,,,,,,,,,,,,,,
,,,,,,,,,,,html-keyboard-response,171,2.0.0,1776697,5b233660648d5b0001b7de87,3,33,null,,,,,,,,,<p style='font-size: 30px;'><strong>Okay</strong></p>,null,neutral_feedback,1,test,16,,,,,,,,,,,,,,,,,,,,,,,
,,,,,,,,,,,html-button-response,172,2.0.0,1778612,5b233660648d5b0001b7de87,3,33,1912,,,,,,,,,"<img src= ""rock_img/I_Peridotite_05.jpg"" style=""width:8cm; height:7.1499999999999995cm;""><p>What type of rock is this?</p>",5,class_response,1,test,17,Pegmatite,Peridotite,5,FALSE,6,7,,,,,,,,,,,,,,,,,
,,,,,,,,,,,html-keyboard-response,173,2.0.0,1779123,5b233660648d5b0001b7de87,3,33,null,,,,,,,,,<p style='font-size: 30px;'><strong>Okay</strong></p>,null,neutral_feedback,1,test,17,,,,,,,,,,,,,,,,,,,,,,,
,,,,,,,,,,,html-button-response,174,2.0.0,1786246,5b233660648d5b0001b7de87,3,33,7117,,,,,,,,,"<img src= ""rock_img/I_Pumice_06.jpg"" style=""width:8cm; height:6.9399999999999995cm;""><p>What type of rock is this?</p>",7,class_response,1,test,18,Pumice,Pumice,6,TRUE,8,8,,,,,,,,,,,,,,,,,
,,,,,,,,,,,html-keyboard-response,175,2.0.0,1786758,5b233660648d5b0001b7de87,3,33,null,,,,,,,,,<p style='font-size: 30px;'><strong>Okay</strong></p>,null,neutral_feedback,1,test,18,,,,,,,,,,,,,,,,,,,,,,,
,,,,,,,,,,,html-button-response,176,2.0.0,1788279,5b233660648d5b0001b7de87,3,33,1516,,,,,,,,,"<img src= ""rock_img/I_Pumice_05.jpg"" style=""width:8cm; height:7.25cm;""><p>What type of rock is this?</p>",1,class_response,1,test,19,Basalt,Pumice,5,FALSE,2,8,,,,,,,,,,,,,,,,,
,,,,,,,,,,,html-keyboard-response,177,2.0.0,1788791,5b233660648d5b0001b7de87,3,33,null,,,,,,,,,<p style='font-size: 30px;'><strong>Okay</strong></p>,null,neutral_feedback,1,test,19,,,,,,,,,,,,,,,,,,,,,,,
,,,,,,,,,,,html-button-response,178,2.0.0,1792351,5b233660648d5b0001b7de87,3,33,3555,,,,,,,,,"<img src= ""rock_img/I_Basalt_16.jpg"" style=""width:8cm; height:7.659999999999999cm;""><p>What type of rock is this?</p>",5,class_response,1,test,20,Pegmatite,Basalt,16,FALSE,6,2,,,,,,,,,,,,,,,,,
,,,,,,,,,,,html-keyboard-response,179,2.0.0,1792855,5b233660648d5b0001b7de87,3,33,null,,,,,,,,,<p style='font-size: 30px;'><strong>Okay</strong></p>,null,neutral_feedback,1,test,20,,,,,,,,,,,,,,,,,,,,,,,
,,,,,,,,,,,html-button-response,180,2.0.0,1796424,5b233660648d5b0001b7de87,3,33,3564,,,,,,,,,"<img src= ""rock_img/I_Diorite_09.jpg"" style=""width:8cm; height:5.27cm;""><p>What type of rock is this?</p>",3,class_response,1,test,21,Gabbro,Diorite,9,FALSE,4,3,,,,,,,,,,,,,,,,,
,,,,,,,,,,,html-keyboard-response,181,2.0.0,1796934,5b233660648d5b0001b7de87,3,33,null,,,,,,,,,<p style='font-size: 30px;'><strong>Okay</strong></p>,null,neutral_feedback,1,test,21,,,,,,,,,,,,,,,,,,,,,,,
,,,,,,,,,,,html-button-response,182,2.0.0,1799425,5b233660648d5b0001b7de87,3,33,2485,,,,,,,,,"<img src= ""rock_img/I_Pumice_09.jpg"" style=""width:8cm; height:6.44cm;""><p>What type of rock is this?</p>",5,class_response,1,test,22,Pegmatite,Pumice,9,FALSE,6,8,,,,,,,,,,,,,,,,,
,,,,,,,,,,,html-keyboard-response,183,2.0.0,1799929,5b233660648d5b0001b7de87,3,33,null,,,,,,,,,<p style='font-size: 30px;'><strong>Okay</strong></p>,null,neutral_feedback,1,test,22,,,,,,,,,,,,,,,,,,,,,,,
,,,,,,,,,,,html-button-response,184,2.0.0,1814152,5b233660648d5b0001b7de87,3,33,14210,,,,,,,,,"<img src= ""rock_img/I_Andesite_09.jpg"" style=""width:8cm; height:6cm;""><p>What type of rock is this?</p>",6,class_response,1,test,23,Peridotite,Andesite,9,FALSE,7,1,,,,,,,,,,,,,,,,,
,,,,,,,,,,,html-keyboard-response,185,2.0.0,1814664,5b233660648d5b0001b7de87,3,33,null,,,,,,,,,<p style='font-size: 30px;'><strong>Okay</strong></p>,null,neutral_feedback,1,test,23,,,,,,,,,,,,,,,,,,,,,,,
,,,,,,,,,,,html-button-response,186,2.0.0,1818462,5b233660648d5b0001b7de87,3,33,3796,,,,,,,,,"<img src= ""rock_img/I_Gabbro_16.jpg"" style=""width:8cm; height:6.44cm;""><p>What type of rock is this?</p>",2,class_response,1,test,24,Diorite,Gabbro,16,FALSE,3,4,,,,,,,,,,,,,,,,,
,,,,,,,,,,,html-keyboard-response,187,2.0.0,1818974,5b233660648d5b0001b7de87,3,33,null,,,,,,,,,<p style='font-size: 30px;'><strong>Okay</strong></p>,null,neutral_feedback,1,test,24,,,,,,,,,,,,,,,,,,,,,,,
,,,,,,,,,,,html-button-response,188,2.0.0,1822725,5b233660648d5b0001b7de87,3,33,3749,,,,,,,,,"<img src= ""rock_img/I_Pegmatite_10.jpg"" style=""width:8cm; height:4.16cm;""><p>What type of rock is this?</p>",3,class_response,1,test,25,Gabbro,Pegmatite,10,FALSE,4,6,,,,,,,,,,,,,,,,,
,,,,,,,,,,,html-keyboard-response,189,2.0.0,1823237,5b233660648d5b0001b7de87,3,33,null,,,,,,,,,<p style='font-size: 30px;'><strong>Okay</strong></p>,null,neutral_feedback,1,test,25,,,,,,,,,,,,,,,,,,,,,,,
,,,,,,,,,,,html-button-response,190,2.0.0,1826855,5b233660648d5b0001b7de87,3,33,3613,,,,,,,,,"<img src= ""rock_img/I_Basalt_11.jpg"" style=""width:8cm; height:5.359999999999999cm;""><p>What type of rock is this?</p>",5,class_response,1,test,26,Pegmatite,Basalt,11,FALSE,6,2,,,,,,,,,,,,,,,,,
,,,,,,,,,,,html-keyboard-response,191,2.0.0,1827361,5b233660648d5b0001b7de87,3,33,null,,,,,,,,,<p style='font-size: 30px;'><strong>Okay</strong></p>,null,neutral_feedback,1,test,26,,,,,,,,,,,,,,,,,,,,,,,
,,,,,,,,,,,html-button-response,192,2.0.0,1831410,5b233660648d5b0001b7de87,3,33,4044,,,,,,,,,"<img src= ""rock_img/I_Andesite_02.jpg"" style=""width:8cm; height:8.5cm;""><p>What type of rock is this?</p>",6,class_response,1,test,27,Peridotite,Andesite,2,FALSE,7,1,,,,,,,,,,,,,,,,,
,,,,,,,,,,,html-keyboard-response,193,2.0.0,1831922,5b233660648d5b0001b7de87,3,33,null,,,,,,,,,<p style='font-size: 30px;'><strong>Okay</strong></p>,null,neutral_feedback,1,test,27,,,,,,,,,,,,,,,,,,,,,,,
,,,,,,,,,,,html-button-response,194,2.0.0,1833654,5b233660648d5b0001b7de87,3,33,1729,,,,,,,,,"<img src= ""rock_img/I_Andesite_16.jpg"" style=""width:8cm; height:6.010000000000001cm;""><p>What type of rock is this?</p>",2,class_response,1,test,28,Diorite,Andesite,16,FALSE,3,1,,,,,,,,,,,,,,,,,
,,,,,,,,,,,html-keyboard-response,195,2.0.0,1834156,5b233660648d5b0001b7de87,3,33,null,,,,,,,,,<p style='font-size: 30px;'><strong>Okay</strong></p>,null,neutral_feedback,1,test,28,,,,,,,,,,,,,,,,,,,,,,,
,,,,,,,,,,,html-button-response,196,2.0.0,1835886,5b233660648d5b0001b7de87,3,33,1728,,,,,,,,,"<img src= ""rock_img/I_Andesite_06.jpg"" style=""width:8cm; height:6.840000000000001cm;""><p>What type of rock is this?</p>",4,class_response,1,test,29,Obsidian,Andesite,6,FALSE,5,1,,,,,,,,,,,,,,,,,
,,,,,,,,,,,html-keyboard-response,197,2.0.0,1836403,5b233660648d5b0001b7de87,3,33,null,,,,,,,,,<p style='font-size: 30px;'><strong>Okay</strong></p>,null,neutral_feedback,1,test,29,,,,,,,,,,,,,,,,,,,,,,,
,,,,,,,,,,,html-button-response,198,2.0.0,1865523,5b233660648d5b0001b7de87,3,33,29112,,,,,,,,,"<img src= ""rock_img/I_Pegmatite_15.jpg"" style=""width:8cm; height:6cm;""><p>What type of rock is this?</p>",6,class_response,1,test,30,Peridotite,Pegmatite,15,FALSE,7,6,,,,,,,,,,,,,,,,,
,,,,,,,,,,,html-keyboard-response,199,2.0.0,1866042,5b233660648d5b0001b7de87,3,33,null,,,,,,,,,<p style='font-size: 30px;'><strong>Okay</strong></p>,null,neutral_feedback,1,test,30,,,,,,,,,,,,,,,,,,,,,,,
,,,,,,,,,,,html-button-response,200,2.0.0,1867084,5b233660648d5b0001b7de87,3,33,1048,,,,,,,,,"<img src= ""rock_img/I_Gabbro_10.jpg"" style=""width:8cm; height:5.680000000000001cm;""><p>What type of rock is this?</p>",2,class_response,1,test,31,Diorite,Gabbro,10,FALSE,3,4,,,,,,,,,,,,,,,,,
,,,,,,,,,,,html-keyboard-response,201,2.0.0,1867596,5b233660648d5b0001b7de87,3,33,null,,,,,,,,,<p style='font-size: 30px;'><strong>Okay</strong></p>,null,neutral_feedback,1,test,31,,,,,,,,,,,,,,,,,,,,,,,
,,,,,,,,,,,html-button-response,202,2.0.0,1868389,5b233660648d5b0001b7de87,3,33,788,,,,,,,,,"<img src= ""rock_img/I_Pegmatite_12.jpg"" style=""width:8cm; height:5.7cm;""><p>What type of rock is this?</p>",1,class_response,1,test,32,Basalt,Pegmatite,12,FALSE,2,6,,,,,,,,,,,,,,,,,
,,,,,,,,,,,html-keyboard-response,203,2.0.0,1868895,5b233660648d5b0001b7de87,3,33,null,,,,,,,,,<p style='font-size: 30px;'><strong>Okay</strong></p>,null,neutral_feedback,1,test,32,,,,,,,,,,,,,,,,,,,,,,,
,,,,,,,,,,,html-button-response,204,2.0.0,1871044,5b233660648d5b0001b7de87,3,33,2141,,,,,,,,,"<img src= ""rock_img/I_Peridotite_07.jpg"" style=""width:8cm; height:4.83cm;""><p>What type of rock is this?</p>",7,class_response,1,test,33,Pumice,Peridotite,7,FALSE,8,7,,,,,,,,,,,,,,,,,
,,,,,,,,,,,html-keyboard-response,205,2.0.0,1871560,5b233660648d5b0001b7de87,3,33,null,,,,,,,,,<p style='font-size: 30px;'><strong>Okay</strong></p>,null,neutral_feedback,1,test,33,,,,,,,,,,,,,,,,,,,,,,,
,,,,,,,,,,,html-button-response,206,2.0.0,1873607,5b233660648d5b0001b7de87,3,33,2041,,,,,,,,,"<img src= ""rock_img/I_Diorite_10.jpg"" style=""width:8cm; height:5.949999999999999cm;""><p>What type of rock is this?</p>",3,class_response,1,test,34,Gabbro,Diorite,10,FALSE,4,3,,,,,,,,,,,,,,,,,
,,,,,,,,,,,html-keyboard-response,207,2.0.0,1874120,5b233660648d5b0001b7de87,3,33,null,,,,,,,,,<p style='font-size: 30px;'><strong>Okay</strong></p>,null,neutral_feedback,1,test,34,,,,,,,,,,,,,,,,,,,,,,,
,,,,,,,,,,,html-button-response,208,2.0.0,1876914,5b233660648d5b0001b7de87,3,33,2789,,,,,,,,,"<img src= ""rock_img/I_Andesite_01.jpg"" style=""width:8cm; height:5.87cm;""><p>What type of rock is this?</p>",1,class_response,1,test,35,Basalt,Andesite,1,FALSE,2,1,,,,,,,,,,,,,,,,,
,,,,,,,,,,,html-keyboard-response,209,2.0.0,1877419,5b233660648d5b0001b7de87,3,33,null,,,,,,,,,<p style='font-size: 30px;'><strong>Okay</strong></p>,null,neutral_feedback,1,test,35,,,,,,,,,,,,,,,,,,,,,,,
,,,,,,,,,,,html-button-response,210,2.0.0,1878586,5b233660648d5b0001b7de87,3,33,1160,,,,,,,,,"<img src= ""rock_img/I_Gabbro_13.jpg"" style=""width:8cm; height:5.08cm;""><p>What type of rock is this?</p>",5,class_response,1,test,36,Pegmatite,Gabbro,13,FALSE,6,4,,,,,,,,,,,,,,,,,
,,,,,,,,,,,html-keyboard-response,211,2.0.0,1879100,5b233660648d5b0001b7de87,3,33,null,,,,,,,,,<p style='font-size: 30px;'><strong>Okay</strong></p>,null,neutral_feedback,1,test,36,,,,,,,,,,,,,,,,,,,,,,,
,,,,,,,,,,,html-button-response,212,2.0.0,1881933,5b233660648d5b0001b7de87,3,33,2827,,,,,,,,,"<img src= ""rock_img/I_Obsidian_08.jpg"" style=""width:8cm; height:7.39cm;""><p>What type of rock is this?</p>",4,class_response,1,test,37,Obsidian,Obsidian,8,TRUE,5,5,,,,,,,,,,,,,,,,,
,,,,,,,,,,,html-keyboard-response,213,2.0.0,1882446,5b233660648d5b0001b7de87,3,33,null,,,,,,,,,<p style='font-size: 30px;'><strong>Okay</strong></p>,null,neutral_feedback,1,test,37,,,,,,,,,,,,,,,,,,,,,,,
,,,,,,,,,,,html-button-response,214,2.0.0,1884089,5b233660648d5b0001b7de87,3,33,1638,,,,,,,,,"<img src= ""rock_img/I_Pegmatite_05.jpg"" style=""width:8cm; height:7.300000000000001cm;""><p>What type of rock is this?</p>",2,class_response,1,test,38,Diorite,Pegmatite,5,FALSE,3,6,,,,,,,,,,,,,,,,,
,,,,,,,,,,,html-keyboard-response,215,2.0.0,1884594,5b233660648d5b0001b7de87,3,33,null,,,,,,,,,<p style='font-size: 30px;'><strong>Okay</strong></p>,null,neutral_feedback,1,test,38,,,,,,,,,,,,,,,,,,,,,,,
,,,,,,,,,,,html-button-response,216,2.0.0,1885945,5b233660648d5b0001b7de87,3,33,1345,,,,,,,,,"<img src= ""rock_img/I_Gabbro_08.jpg"" style=""width:8cm; height:5.15cm;""><p>What type of rock is this?</p>",7,class_response,1,test,39,Pumice,Gabbro,8,FALSE,8,4,,,,,,,,,,,,,,,,,
,,,,,,,,,,,html-keyboard-response,217,2.0.0,1886456,5b233660648d5b0001b7de87,3,33,null,,,,,,,,,<p style='font-size: 30px;'><strong>Okay</strong></p>,null,neutral_feedback,1,test,39,,,,,,,,,,,,,,,,,,,,,,,
,,,,,,,,,,,html-button-response,218,2.0.0,1888252,5b233660648d5b0001b7de87,3,33,1791,,,,,,,,,"<img src= ""rock_img/I_Gabbro_14.jpg"" style=""width:8cm; height:8.48cm;""><p>What type of rock is this?</p>",5,class_response,1,test,40,Pegmatite,Gabbro,14,FALSE,6,4,,,,,,,,,,,,,,,,,
,,,,,,,,,,,html-keyboard-response,219,2.0.0,1888773,5b233660648d5b0001b7de87,3,33,null,,,,,,,,,<p style='font-size: 30px;'><strong>Okay</strong></p>,null,neutral_feedback,1,test,40,,,,,,,,,,,,,,,,,,,,,,,
,,,,,,,,,,,html-button-response,220,2.0.0,1890082,5b233660648d5b0001b7de87,3,33,1302,,,,,,,,,"<img src= ""rock_img/I_Andesite_10.jpg"" style=""width:8cm; height:4.16cm;""><p>What type of rock is this?</p>",1,class_response,1,test,41,Basalt,Andesite,10,FALSE,2,1,,,,,,,,,,,,,,,,,
,,,,,,,,,,,html-keyboard-response,221,2.0.0,1890589,5b233660648d5b0001b7de87,3,33,null,,,,,,,,,<p style='font-size: 30px;'><strong>Okay</strong></p>,null,neutral_feedback,1,test,41,,,,,,,,,,,,,,,,,,,,,,,
,,,,,,,,,,,html-button-response,222,2.0.0,1892185,5b233660648d5b0001b7de87,3,33,1589,,,,,,,,,"<img src= ""rock_img/I_Diorite_02.jpg"" style=""width:8cm; height:6.27cm;""><p>What type of rock is this?</p>",2,class_response,1,test,42,Diorite,Diorite,2,TRUE,3,3,,,,,,,,,,,,,,,,,
,,,,,,,,,,,html-keyboard-response,223,2.0.0,1892700,5b233660648d5b0001b7de87,3,33,null,,,,,,,,,<p style='font-size: 30px;'><strong>Okay</strong></p>,null,neutral_feedback,1,test,42,,,,,,,,,,,,,,,,,,,,,,,
,,,,,,,,,,,html-button-response,224,2.0.0,1895026,5b233660648d5b0001b7de87,3,33,2321,,,,,,,,,"<img src= ""rock_img/I_Basalt_04.jpg"" style=""width:8cm; height:7.53cm;""><p>What type of rock is this?</p>",0,class_response,1,test,43,Andesite,Basalt,4,FALSE,1,2,,,,,,,,,,,,,,,,,
,,,,,,,,,,,html-keyboard-response,225,2.0.0,1895539,5b233660648d5b0001b7de87,3,33,null,,,,,,,,,<p style='font-size: 30px;'><strong>Okay</strong></p>,null,neutral_feedback,1,test,43,,,,,,,,,,,,,,,,,,,,,,,
,,,,,,,,,,,html-button-response,226,2.0.0,1897641,5b233660648d5b0001b7de87,3,33,2099,,,,,,,,,"<img src= ""rock_img/I_Pumice_02.jpg"" style=""width:8cm; height:7.3999999999999995cm;""><p>What type of rock is this?</p>",7,class_response,1,test,44,Pumice,Pumice,2,TRUE,8,8,,,,,,,,,,,,,,,,,
,,,,,,,,,,,html-keyboard-response,227,2.0.0,1898155,5b233660648d5b0001b7de87,3,33,null,,,,,,,,,<p style='font-size: 30px;'><strong>Okay</strong></p>,null,neutral_feedback,1,test,44,,,,,,,,,,,,,,,,,,,,,,,
,,,,,,,,,,,html-button-response,228,2.0.0,1902427,5b233660648d5b0001b7de87,3,33,4266,,,,,,,,,"<img src= ""rock_img/I_Obsidian_12.jpg"" style=""width:8cm; height:6.53cm;""><p>What type of rock is this?</p>",5,class_response,1,test,45,Pegmatite,Obsidian,12,FALSE,6,5,,,,,,,,,,,,,,,,,
,,,,,,,,,,,html-keyboard-response,229,2.0.0,1902940,5b233660648d5b0001b7de87,3,33,null,,,,,,,,,<p style='font-size: 30px;'><strong>Okay</strong></p>,null,neutral_feedback,1,test,45,,,,,,,,,,,,,,,,,,,,,,,
,,,,,,,,,,,html-button-response,230,2.0.0,1904945,5b233660648d5b0001b7de87,3,33,2002,,,,,,,,,"<img src= ""rock_img/I_Peridotite_16.jpg"" style=""width:8cm; height:6.989999999999999cm;""><p>What type of rock is this?</p>",4,class_response,1,test,46,Obsidian,Peridotite,16,FALSE,5,7,,,,,,,,,,,,,,,,,
,,,,,,,,,,,html-keyboard-response,231,2.0.0,1905459,5b233660648d5b0001b7de87,3,33,null,,,,,,,,,<p style='font-size: 30px;'><strong>Okay</strong></p>,null,neutral_feedback,1,test,46,,,,,,,,,,,,,,,,,,,,,,,
,,,,,,,,,,,html-button-response,232,2.0.0,1906953,5b233660648d5b0001b7de87,3,33,1487,,,,,,,,,"<img src= ""rock_img/I_Peridotite_08.jpg"" style=""width:8cm; height:6.7cm;""><p>What type of rock is this?</p>",2,class_response,1,test,47,Diorite,Peridotite,8,FALSE,3,7,,,,,,,,,,,,,,,,,
,,,,,,,,,,,html-keyboard-response,233,2.0.0,1907458,5b233660648d5b0001b7de87,3,33,null,,,,,,,,,<p style='font-size: 30px;'><strong>Okay</strong></p>,null,neutral_feedback,1,test,47,,,,,,,,,,,,,,,,,,,,,,,
,,,,,,,,,,,html-button-response,234,2.0.0,1908596,5b233660648d5b0001b7de87,3,33,1130,,,,,,,,,"<img src= ""rock_img/I_Diorite_16.jpg"" style=""width:8cm; height:6.74cm;""><p>What type of rock is this?</p>",6,class_response,1,test,48,Peridotite,Diorite,16,FALSE,7,3,,,,,,,,,,,,,,,,,
,,,,,,,,,,,html-keyboard-response,235,2.0.0,1909105,5b233660648d5b0001b7de87,3,33,null,,,,,,,,,<p style='font-size: 30px;'><strong>Okay</strong></p>,null,neutral_feedback,1,test,48,,,,,,,,,,,,,,,,,,,,,,,
,,,,,,,,,,,html-button-response,236,2.0.0,2036801,5b233660648d5b0001b7de87,3,33,,,,,,,,,,,,cycle_feedback,,,,,,,,,,,,,,,,,,,,,,,,6994.6,120665.1,
,,,,,,,,,,,html-button-response,238,2.0.0,2046331,5b233660648d5b0001b7de87,3,33,9526,,,,,,,,,,0,start_train,,,,,,,,,,,,,,,,,,,,,,,,,,
,,,,,,,,,,,html-button-response,240,2.0.0,2049263,5b233660648d5b0001b7de87,3,33,2929,,,,,,,,,"<img src= ""rock_img/I_Pegmatite_07.jpg"" style=""width:8cm; height:6.7cm;""><p>What type of rock is this?</p>",0,class_response,2,train,1,Andesite,Pegmatite,7,FALSE,1,6,,,,,,,,,,,,,,,,,
,,,,,,,,,,,html-button-response,241,2.0.0,2051517,5b233660648d5b0001b7de87,3,33,2251,,,,,,,,,"<img src= rock_img/I_Pegmatite_07.jpg style=""width:8cm; height:6.7cm;""><p style='font-size: 30px; color: red;'><strong>Incorrect!</strong></p><p style='font-size: 30px;'><strong>This rock is pegmatite</strong></p>",0,corr_feedback,2,train,1,,,,,,,,,,,,,,,,,,,,,,,
,,,,,,,,,,,html-button-response,242,2.0.0,2054288,5b233660648d5b0001b7de87,3,33,2763,,,,,,,,,"<img src= ""rock_img/I_Peridotite_12.jpg"" style=""width:8cm; height:4.54cm;""><p>What type of rock is this?</p>",0,class_response,2,train,2,Andesite,Peridotite,12,FALSE,1,7,,,,,,,,,,,,,,,,,
,,,,,,,,,,,html-button-response,243,2.0.0,2055935,5b233660648d5b0001b7de87,3,33,1640,,,,,,,,,"<img src= rock_img/I_Peridotite_12.jpg style=""width:8cm; height:4.54cm;""><p style='font-size: 30px; color: red;'><strong>Incorrect!</strong></p><p style='font-size: 30px;'><strong>This rock is peridotite</strong></p>",0,corr_feedback,2,train,2,,,,,,,,,,,,,,,,,,,,,,,
,,,,,,,,,,,html-button-response,244,2.0.0,2058663,5b233660648d5b0001b7de87,3,33,2719,,,,,,,,,"<img src= ""rock_img/I_Andesite_07.jpg"" style=""width:8cm; height:5.93cm;""><p>What type of rock is this?</p>",0,class_response,2,train,3,Andesite,Andesite,7,TRUE,1,1,,,,,,,,,,,,,,,,,
,,,,,,,,,,,html-button-response,245,2.0.0,2062484,5b233660648d5b0001b7de87,3,33,3813,,,,,,,,,"<img src= rock_img/I_Andesite_07.jpg style=""width:8cm; height:5.93cm;""><p style='font-size: 30px; color: green;'><strong>Correct!</strong></p><p style='font-size: 30px;'><strong>This rock is andesite</strong></p>",0,corr_feedback,2,train,3,,,,,,,,,,,,,,,,,,,,,,,
,,,,,,,,,,,html-button-response,246,2.0.0,2065324,5b233660648d5b0001b7de87,3,33,2833,,,,,,,,,"<img src= ""rock_img/I_Gabbro_01.jpg"" style=""width:8cm; height:5.21cm;""><p>What type of rock is this?</p>",2,class_response,2,train,4,Diorite,Gabbro,1,FALSE,3,4,,,,,,,,,,,,,,,,,
,,,,,,,,,,,html-button-response,247,2.0.0,2066803,5b233660648d5b0001b7de87,3,33,1471,,,,,,,,,"<img src= rock_img/I_Gabbro_01.jpg style=""width:8cm; height:5.21cm;""><p style='font-size: 30px; color: red;'><strong>Incorrect!</strong></p><p style='font-size: 30px;'><strong>This rock is gabbro</strong></p>",0,corr_feedback,2,train,4,,,,,,,,,,,,,,,,,,,,,,,
,,,,,,,,,,,html-button-response,248,2.0.0,2069791,5b233660648d5b0001b7de87,3,33,2978,,,,,,,,,"<img src= ""rock_img/I_Basalt_09.jpg"" style=""width:8cm; height:6.2cm;""><p>What type of rock is this?</p>",7,class_response,2,train,5,Pumice,Basalt,9,FALSE,8,2,,,,,,,,,,,,,,,,,
,,,,,,,,,,,html-button-response,249,2.0.0,2071202,5b233660648d5b0001b7de87,3,33,1407,,,,,,,,,"<img src= rock_img/I_Basalt_09.jpg style=""width:8cm; height:6.2cm;""><p style='font-size: 30px; color: red;'><strong>Incorrect!</strong></p><p style='font-size: 30px;'><strong>This rock is basalt</strong></p>",0,corr_feedback,2,train,5,,,,,,,,,,,,,,,,,,,,,,,
,,,,,,,,,,,html-button-response,250,2.0.0,2074891,5b233660648d5b0001b7de87,3,33,3686,,,,,,,,,"<img src= ""rock_img/I_Peridotite_14.jpg"" style=""width:8cm; height:5.3cm;""><p>What type of rock is this?</p>",5,class_response,2,train,6,Pegmatite,Peridotite,14,FALSE,6,7,,,,,,,,,,,,,,,,,
,,,,,,,,,,,html-button-response,251,2.0.0,2076181,5b233660648d5b0001b7de87,3,33,1288,,,,,,,,,"<img src= rock_img/I_Peridotite_14.jpg style=""width:8cm; height:5.3cm;""><p style='font-size: 30px; color: red;'><strong>Incorrect!</strong></p><p style='font-size: 30px;'><strong>This rock is peridotite</strong></p>",0,corr_feedback,2,train,6,,,,,,,,,,,,,,,,,,,,,,,
,,,,,,,,,,,html-button-response,252,2.0.0,2077680,5b233660648d5b0001b7de87,3,33,1496,,,,,,,,,"<img src= ""rock_img/I_Diorite_08.jpg"" style=""width:8cm; height:6.37cm;""><p>What type of rock is this?</p>",2,class_response,2,train,7,Diorite,Diorite,8,TRUE,3,3,,,,,,,,,,,,,,,,,
,,,,,,,,,,,html-button-response,253,2.0.0,2078824,5b233660648d5b0001b7de87,3,33,1142,,,,,,,,,"<img src= rock_img/I_Diorite_08.jpg style=""width:8cm; height:6.37cm;""><p style='font-size: 30px; color: green;'><strong>Correct!</strong></p><p style='font-size: 30px;'><strong>This rock is diorite</strong></p>",0,corr_feedback,2,train,7,,,,,,,,,,,,,,,,,,,,,,,
,,,,,,,,,,,html-button-response,254,2.0.0,2085807,5b233660648d5b0001b7de87,3,33,6978,,,,,,,,,"<img src= ""rock_img/I_Obsidian_14.jpg"" style=""width:8cm; height:7.64cm;""><p>What type of rock is this?</p>",4,class_response,2,train,8,Obsidian,Obsidian,14,TRUE,5,5,,,,,,,,,,,,,,,,,
,,,,,,,,,,,html-button-response,255,2.0.0,2088293,5b233660648d5b0001b7de87,3,33,2481,,,,,,,,,"<img src= rock_img/I_Obsidian_14.jpg style=""width:8cm; height:7.64cm;""><p style='font-size: 30px; color: green;'><strong>Correct!</strong></p><p style='font-size: 30px;'><strong>This rock is obsidian</strong></p>",0,corr_feedback,2,train,8,,,,,,,,,,,,,,,,,,,,,,,
,,,,,,,,,,,html-button-response,256,2.0.0,2098833,5b233660648d5b0001b7de87,3,33,10535,,,,,,,,,"<img src= ""rock_img/I_Gabbro_11.jpg"" style=""width:8cm; height:6.2cm;""><p>What type of rock is this?</p>",6,class_response,2,train,9,Peridotite,Gabbro,11,FALSE,7,4,,,,,,,,,,,,,,,,,
,,,,,,,,,,,html-button-response,257,2.0.0,2100007,5b233660648d5b0001b7de87,3,33,1170,,,,,,,,,"<img src= rock_img/I_Gabbro_11.jpg style=""width:8cm; height:6.2cm;""><p style='font-size: 30px; color: red;'><strong>Incorrect!</strong></p><p style='font-size: 30px;'><strong>This rock is gabbro</strong></p>",0,corr_feedback,2,train,9,,,,,,,,,,,,,,,,,,,,,,,
,,,,,,,,,,,html-button-response,258,2.0.0,2101196,5b233660648d5b0001b7de87,3,33,1182,,,,,,,,,"<img src= ""rock_img/I_Pumice_16.jpg"" style=""width:8cm; height:6.79cm;""><p>What type of rock is this?</p>",3,class_response,2,train,10,Gabbro,Pumice,16,FALSE,4,8,,,,,,,,,,,,,,,,,
,,,,,,,,,,,html-button-response,259,2.0.0,2102481,5b233660648d5b0001b7de87,3,33,1282,,,,,,,,,"<img src= rock_img/I_Pumice_16.jpg style=""width:8cm; height:6.79cm;""><p style='font-size: 30px; color: red;'><strong>Incorrect!</strong></p><p style='font-size: 30px;'><strong>This rock is pumice</strong></p>",0,corr_feedback,2,train,10,,,,,,,,,,,,,,,,,,,,,,,
,,,,,,,,,,,html-button-response,260,2.0.0,2105250,5b233660648d5b0001b7de87,3,33,2763,,,,,,,,,"<img src= ""rock_img/I_Andesite_04.jpg"" style=""width:8cm; height:5.96cm;""><p>What type of rock is this?</p>",5,class_response,2,train,11,Pegmatite,Andesite,4,FALSE,6,1,,,,,,,,,,,,,,,,,
,,,,,,,,,,,html-button-response,261,2.0.0,2106277,5b233660648d5b0001b7de87,3,33,1024,,,,,,,,,"<img src= rock_img/I_Andesite_04.jpg style=""width:8cm; height:5.96cm;""><p style='font-size: 30px; color: red;'><strong>Incorrect!</strong></p><p style='font-size: 30px;'><strong>This rock is andesite</strong></p>",0,corr_feedback,2,train,11,,,,,,,,,,,,,,,,,,,,,,,
,,,,,,,,,,,html-button-response,262,2.0.0,2107639,5b233660648d5b0001b7de87,3,33,1360,,,,,,,,,"<img src= ""rock_img/I_Diorite_07.jpg"" style=""width:8cm; height:5.239999999999999cm;""><p>What type of rock is this?</p>",1,class_response,2,train,12,Basalt,Diorite,7,FALSE,2,3,,,,,,,,,,,,,,,,,
,,,,,,,,,,,html-button-response,263,2.0.0,2109345,5b233660648d5b0001b7de87,3,33,1703,,,,,,,,,"<img src= rock_img/I_Diorite_07.jpg style=""width:8cm; height:5.239999999999999cm;""><p style='font-size: 30px; color: red;'><strong>Incorrect!</strong></p><p style='font-size: 30px;'><strong>This rock is diorite</strong></p>",0,corr_feedback,2,train,12,,,,,,,,,,,,,,,,,,,,,,,
,,,,,,,,,,,html-button-response,265,2.0.0,2113850,5b233660648d5b0001b7de87,3,33,4498,,,,,,,,,,0,start_train,,,,,,,,,,,,,,,,,,,,,,,,,,
,,,,,,,,,,,html-button-response,266,2.0.0,2116491,5b233660648d5b0001b7de87,3,33,,,,,,,,,,,,cat_selection,2,train,1,,,,,,,1,5,2636,Andesite,Obsidian,"[0.14134621512383244,0.14134621512383244,0.11527739422490083,0.14134621512383244,0.12831180467436662,0.11762890641719322,0.13344044555495269,0.08130280375708948]","[null,0.19595078623038864,0.20860765930210926,0.026887709128036393,0.16500306199500733,0.12449804947200618,0.197368466733194,0.08168426713925823]",,,,,,,,,,
,,,,,,,,,,,paired-cat-display,267,1.0.0,2348043,5b233660648d5b0001b7de87,3,33,,,,,,,,,,,,paired_cat_display,2,train,1,,,,,,,,,6696.6,,,,,,,224835,"rough, bumpy trapazoid ","shiny, black, slippery",,,,,
,,,,,,,,,,,html-button-response,268,2.0.0,2358080,5b233660648d5b0001b7de87,3,33,,,,,,,,,,,,cat_selection,2,train,2,,,,,,,3,4,10028.3,Diorite,Gabbro,"[0.14134621512383244,0.14134621512383244,0.11527739422490083,0.14134621512383244,0.12831180467436662,0.11762890641719322,0.13344044555495269,0.08130280375708948]","[0.07577999343476824,0.20218256306462548,null,0.28506999974360203,0.08026651119967759,0.13426650021206768,0.20308530482095877,0.019349127524299972]",,,,,,,,,,
,,,,,,,,,,,paired-cat-display,269,1.0.0,2468402,5b233660648d5b0001b7de87,3,33,,,,,,,,,,,,paired_cat_display,2,train,2,,,,,,,,,10795.7,,,,,,rough edges dark,99519.8,,,colorful sharp edges,,,,
,,,,,,,,,,,html-button-response,270,2.0.0,2471852,5b233660648d5b0001b7de87,3,33,,,,,,,,,,,,cat_selection,2,train,3,,,,,,,4,6,3448.3,Gabbro,Pegmatite,"[0.14134621512383244,0.14134621512383244,0.11527739422490083,0.14134621512383244,0.12831180467436662,0.11762890641719322,0.13344044555495269,0.08130280375708948]","[0.07735198711296139,0.1280259966367212,0.19627866108845232,null,0.08181238737444708,0.24625382766903509,0.11198720832765048,0.15828993179073242]",,,,,,,,,,
,,,,,,,,,,,paired-cat-display,271,1.0.0,2605137,5b233660648d5b0001b7de87,3,33,,,,,,,,,,,,paired_cat_display,2,train,3,,,,,,,,,6961.3,,,,,,grey rough bumps ,126310.3,,,,colorful rough black,,,
,,,,,,,,,,,html-button-response,273,2.0.0,2608794,5b233660648d5b0001b7de87,3,33,3652,,,,,,,,,,0,start_test,,,,,,,,,,,,,,,,,,,,,,,,,,
,,,,,,,,,,,html-button-response,274,2.0.0,2639126,5b233660648d5b0001b7de87,3,33,30325,,,,,,,,,"<img src= ""rock_img/I_Pegmatite_06.jpg"" style=""width:8cm; height:5.17cm;""><p>What type of rock is this?</p>",6,class_response,2,test,1,Peridotite,Pegmatite,6,FALSE,7,6,,,,,,,,,,,,,,,,,
,,,,,,,,,,,html-keyboard-response,275,2.0.0,2639634,5b233660648d5b0001b7de87,3,33,null,,,,,,,,,<p style='font-size: 30px;'><strong>Okay</strong></p>,null,neutral_feedback,2,test,1,,,,,,,,,,,,,,,,,,,,,,,
,,,,,,,,,,,html-button-response,276,2.0.0,2645091,5b233660648d5b0001b7de87,3,33,5448,,,,,,,,,"<img src= ""rock_img/I_Andesite_10.jpg"" style=""width:8cm; height:4.16cm;""><p>What type of rock is this?</p>",7,class_response,2,test,2,Andesite,Andesite,10,TRUE,1,1,,,,,,,,,,,,,,,,,
,,,,,,,,,,,html-keyboard-response,277,2.0.0,2645596,5b233660648d5b0001b7de87,3,33,null,,,,,,,,,<p style='font-size: 30px;'><strong>Okay</strong></p>,null,neutral_feedback,2,test,2,,,,,,,,,,,,,,,,,,,,,,,
,,,,,,,,,,,html-button-response,278,2.0.0,2647707,5b233660648d5b0001b7de87,3,33,2109,,,,,,,,,"<img src= ""rock_img/I_Diorite_10.jpg"" style=""width:8cm; height:5.949999999999999cm;""><p>What type of rock is this?</p>",2,class_response,2,test,3,Diorite,Diorite,10,TRUE,3,3,,,,,,,,,,,,,,,,,
,,,,,,,,,,,html-keyboard-response,279,2.0.0,2648211,5b233660648d5b0001b7de87,3,33,null,,,,,,,,,<p style='font-size: 30px;'><strong>Okay</strong></p>,null,neutral_feedback,2,test,3,,,,,,,,,,,,,,,,,,,,,,,
,,,,,,,,,,,html-button-response,280,2.0.0,2651893,5b233660648d5b0001b7de87,3,33,3679,,,,,,,,,"<img src= ""rock_img/I_Gabbro_14.jpg"" style=""width:8cm; height:8.48cm;""><p>What type of rock is this?</p>",5,class_response,2,test,4,Gabbro,Gabbro,14,TRUE,4,4,,,,,,,,,,,,,,,,,
,,,,,,,,,,,html-keyboard-response,281,2.0.0,2652401,5b233660648d5b0001b7de87,3,33,null,,,,,,,,,<p style='font-size: 30px;'><strong>Okay</strong></p>,null,neutral_feedback,2,test,4,,,,,,,,,,,,,,,,,,,,,,,
,,,,,,,,,,,html-button-response,282,2.0.0,2656118,5b233660648d5b0001b7de87,3,33,3713,,,,,,,,,"<img src= ""rock_img/I_Diorite_16.jpg"" style=""width:8cm; height:6.74cm;""><p>What type of rock is this?</p>",2,class_response,2,test,5,Diorite,Diorite,16,TRUE,3,3,,,,,,,,,,,,,,,,,
,,,,,,,,,,,html-keyboard-response,283,2.0.0,2656623,5b233660648d5b0001b7de87,3,33,null,,,,,,,,,<p style='font-size: 30px;'><strong>Okay</strong></p>,null,neutral_feedback,2,test,5,,,,,,,,,,,,,,,,,,,,,,,
,,,,,,,,,,,html-button-response,284,2.0.0,2660427,5b233660648d5b0001b7de87,3,33,3800,,,,,,,,,"<img src= ""rock_img/I_Basalt_16.jpg"" style=""width:8cm; height:7.659999999999999cm;""><p>What type of rock is this?</p>",0,class_response,2,test,6,Basalt,Basalt,16,TRUE,2,2,,,,,,,,,,,,,,,,,
,,,,,,,,,,,html-keyboard-response,285,2.0.0,2660936,5b233660648d5b0001b7de87,3,33,null,,,,,,,,,<p style='font-size: 30px;'><strong>Okay</strong></p>,null,neutral_feedback,2,test,6,,,,,,,,,,,,,,,,,,,,,,,
,,,,,,,,,,,html-button-response,286,2.0.0,2666547,5b233660648d5b0001b7de87,3,33,5608,,,,,,,,,"<img src= ""rock_img/I_Pumice_02.jpg"" style=""width:8cm; height:7.3999999999999995cm;""><p>What type of rock is this?</p>",7,class_response,2,test,7,Pumice,Pumice,2,TRUE,8,8,,,,,,,,,,,,,,,,,
,,,,,,,,,,,html-keyboard-response,287,2.0.0,2667054,5b233660648d5b0001b7de87,3,33,null,,,,,,,,,<p style='font-size: 30px;'><strong>Okay</strong></p>,null,neutral_feedback,2,test,7,,,,,,,,,,,,,,,,,,,,,,,
,,,,,,,,,,,html-button-response,288,2.0.0,2671195,5b233660648d5b0001b7de87,3,33,4138,,,,,,,,,"<img src= ""rock_img/I_Pumice_14.jpg"" style=""width:8cm; height:6.39cm;""><p>What type of rock is this?</p>",7,class_response,2,test,8,Pumice,Pumice,14,TRUE,8,8,,,,,,,,,,,,,,,,,
,,,,,,,,,,,html-keyboard-response,289,2.0.0,2671699,5b233660648d5b0001b7de87,3,33,null,,,,,,,,,<p style='font-size: 30px;'><strong>Okay</strong></p>,null,neutral_feedback,2,test,8,,,,,,,,,,,,,,,,,,,,,,,
,,,,,,,,,,,html-button-response,290,2.0.0,2673320,5b233660648d5b0001b7de87,3,33,1619,,,,,,,,,"<img src= ""rock_img/I_Gabbro_03.jpg"" style=""width:8cm; height:8.52cm;""><p>What type of rock is this?</p>",2,class_response,2,test,9,Diorite,Gabbro,3,FALSE,3,4,,,,,,,,,,,,,,,,,
,,,,,,,,,,,html-keyboard-response,291,2.0.0,2673833,5b233660648d5b0001b7de87,3,33,null,,,,,,,,,<p style='font-size: 30px;'><strong>Okay</strong></p>,null,neutral_feedback,2,test,9,,,,,,,,,,,,,,,,,,,,,,,
,,,,,,,,,,,html-button-response,292,2.0.0,2678949,5b233660648d5b0001b7de87,3,33,5111,,,,,,,,,"<img src= ""rock_img/I_Gabbro_08.jpg"" style=""width:8cm; height:5.15cm;""><p>What type of rock is this?</p>",3,class_response,2,test,10,Gabbro,Gabbro,8,TRUE,4,4,,,,,,,,,,,,,,,,,
,,,,,,,,,,,html-keyboard-response,293,2.0.0,2679463,5b233660648d5b0001b7de87,3,33,null,,,,,,,,,<p style='font-size: 30px;'><strong>Okay</strong></p>,null,neutral_feedback,2,test,10,,,,,,,,,,,,,,,,,,,,,,,
,,,,,,,,,,,html-button-response,294,2.0.0,2683269,5b233660648d5b0001b7de87,3,33,3801,,,,,,,,,"<img src= ""rock_img/I_Andesite_01.jpg"" style=""width:8cm; height:5.87cm;""><p>What type of rock is this?</p>",2,class_response,2,test,11,Diorite,Andesite,1,FALSE,3,1,,,,,,,,,,,,,,,,,
,,,,,,,,,,,html-keyboard-response,295,2.0.0,2683774,5b233660648d5b0001b7de87,3,33,null,,,,,,,,,<p style='font-size: 30px;'><strong>Okay</strong></p>,null,neutral_feedback,2,test,11,,,,,,,,,,,,,,,,,,,,,,,
,,,,,,,,,,,html-button-response,296,2.0.0,2687300,5b233660648d5b0001b7de87,3,33,3521,,,,,,,,,"<img src= ""rock_img/I_Andesite_09.jpg"" style=""width:8cm; height:6cm;""><p>What type of rock is this?</p>",4,class_response,2,test,12,Obsidian,Andesite,9,FALSE,5,1,,,,,,,,,,,,,,,,,
,,,,,,,,,,,html-keyboard-response,297,2.0.0,2687818,5b233660648d5b0001b7de87,3,33,null,,,,,,,,,<p style='font-size: 30px;'><strong>Okay</strong></p>,null,neutral_feedback,2,test,12,,,,,,,,,,,,,,,,,,,,,,,
,,,,,,,,,,,html-button-response,298,2.0.0,2691246,5b233660648d5b0001b7de87,3,33,3423,,,,,,,,,"<img src= ""rock_img/I_Obsidian_12.jpg"" style=""width:8cm; height:6.53cm;""><p>What type of rock is this?</p>",2,class_response,2,test,13,Obsidian,Obsidian,12,TRUE,5,5,,,,,,,,,,,,,,,,,
,,,,,,,,,,,html-keyboard-response,299,2.0.0,2691764,5b233660648d5b0001b7de87,3,33,null,,,,,,,,,<p style='font-size: 30px;'><strong>Okay</strong></p>,null,neutral_feedback,2,test,13,,,,,,,,,,,,,,,,,,,,,,,
,,,,,,,,,,,html-button-response,300,2.0.0,2694148,5b233660648d5b0001b7de87,3,33,2376,,,,,,,,,"<img src= ""rock_img/I_Basalt_06.jpg"" style=""width:8cm; height:7.06cm;""><p>What type of rock is this?</p>",6,class_response,2,test,14,Basalt,Basalt,6,TRUE,2,2,,,,,,,,,,,,,,,,,
,,,,,,,,,,,html-keyboard-response,301,2.0.0,2694659,5b233660648d5b0001b7de87,3,33,null,,,,,,,,,<p style='font-size: 30px;'><strong>Okay</strong></p>,null,neutral_feedback,2,test,14,,,,,,,,,,,,,,,,,,,,,,,
,,,,,,,,,,,html-button-response,302,2.0.0,2698016,5b233660648d5b0001b7de87,3,33,3350,,,,,,,,,"<img src= ""rock_img/I_Basalt_04.jpg"" style=""width:8cm; height:7.53cm;""><p>What type of rock is this?</p>",1,class_response,2,test,15,Basalt,Basalt,4,TRUE,2,2,,,,,,,,,,,,,,,,,
,,,,,,,,,,,html-keyboard-response,303,2.0.0,2698524,5b233660648d5b0001b7de87,3,33,null,,,,,,,,,<p style='font-size: 30px;'><strong>Okay</strong></p>,null,neutral_feedback,2,test,15,,,,,,,,,,,,,,,,,,,,,,,
,,,,,,,,,,,html-button-response,304,2.0.0,2705451,5b233660648d5b0001b7de87,3,33,6922,,,,,,,,,"<img src= ""rock_img/I_Pegmatite_10.jpg"" style=""width:8cm; height:4.16cm;""><p>What type of rock is this?</p>",3,class_response,2,test,16,Gabbro,Pegmatite,10,FALSE,4,6,,,,,,,,,,,,,,,,,
,,,,,,,,,,,html-keyboard-response,305,2.0.0,2705959,5b233660648d5b0001b7de87,3,33,null,,,,,,,,,<p style='font-size: 30px;'><strong>Okay</strong></p>,null,neutral_feedback,2,test,16,,,,,,,,,,,,,,,,,,,,,,,
,,,,,,,,,,,html-button-response,306,2.0.0,2709363,5b233660648d5b0001b7de87,3,33,3400,,,,,,,,,"<img src= ""rock_img/I_Peridotite_13.jpg"" style=""width:8cm; height:7.58cm;""><p>What type of rock is this?</p>",7,class_response,2,test,17,Pumice,Peridotite,13,FALSE,8,7,,,,,,,,,,,,,,,,,
,,,,,,,,,,,html-keyboard-response,307,2.0.0,2709872,5b233660648d5b0001b7de87,3,33,null,,,,,,,,,<p style='font-size: 30px;'><strong>Okay</strong></p>,null,neutral_feedback,2,test,17,,,,,,,,,,,,,,,,,,,,,,,
,,,,,,,,,,,html-button-response,308,2.0.0,2712271,5b233660648d5b0001b7de87,3,33,2397,,,,,,,,,"<img src= ""rock_img/I_Pumice_05.jpg"" style=""width:8cm; height:7.25cm;""><p>What type of rock is this?</p>",4,class_response,2,test,18,Pumice,Pumice,5,TRUE,8,8,,,,,,,,,,,,,,,,,
,,,,,,,,,,,html-keyboard-response,309,2.0.0,2712778,5b233660648d5b0001b7de87,3,33,null,,,,,,,,,<p style='font-size: 30px;'><strong>Okay</strong></p>,null,neutral_feedback,2,test,18,,,,,,,,,,,,,,,,,,,,,,,
,,,,,,,,,,,html-button-response,310,2.0.0,2714440,5b233660648d5b0001b7de87,3,33,1657,,,,,,,,,"<img src= ""rock_img/I_Basalt_08.jpg"" style=""width:8cm; height:10.44cm;""><p>What type of rock is this?</p>",1,class_response,2,test,19,Basalt,Basalt,8,TRUE,2,2,,,,,,,,,,,,,,,,,
,,,,,,,,,,,html-keyboard-response,311,2.0.0,2714962,5b233660648d5b0001b7de87,3,33,null,,,,,,,,,<p style='font-size: 30px;'><strong>Okay</strong></p>,null,neutral_feedback,2,test,19,,,,,,,,,,,,,,,,,,,,,,,
,,,,,,,,,,,html-button-response,312,2.0.0,2716766,5b233660648d5b0001b7de87,3,33,1800,,,,,,,,,"<img src= ""rock_img/I_Basalt_11.jpg"" style=""width:8cm; height:5.359999999999999cm;""><p>What type of rock is this?</p>",7,class_response,2,test,20,Pumice,Basalt,11,FALSE,8,2,,,,,,,,,,,,,,,,,
,,,,,,,,,,,html-keyboard-response,313,2.0.0,2717274,5b233660648d5b0001b7de87,3,33,null,,,,,,,,,<p style='font-size: 30px;'><strong>Okay</strong></p>,null,neutral_feedback,2,test,20,,,,,,,,,,,,,,,,,,,,,,,
,,,,,,,,,,,html-button-response,314,2.0.0,2722068,5b233660648d5b0001b7de87,3,33,4787,,,,,,,,,"<img src= ""rock_img/I_Peridotite_16.jpg"" style=""width:8cm; height:6.989999999999999cm;""><p>What type of rock is this?</p>",2,class_response,2,test,21,Peridotite,Peridotite,16,TRUE,7,7,,,,,,,,,,,,,,,,,
,,,,,,,,,,,html-keyboard-response,315,2.0.0,2722571,5b233660648d5b0001b7de87,3,33,null,,,,,,,,,<p style='font-size: 30px;'><strong>Okay</strong></p>,null,neutral_feedback,2,test,21,,,,,,,,,,,,,,,,,,,,,,,
,,,,,,,,,,,html-button-response,316,2.0.0,2724603,5b233660648d5b0001b7de87,3,33,2028,,,,,,,,,"<img src= ""rock_img/I_Pegmatite_12.jpg"" style=""width:8cm; height:5.7cm;""><p>What type of rock is this?</p>",6,class_response,2,test,22,Pegmatite,Pegmatite,12,TRUE,6,6,,,,,,,,,,,,,,,,,
,,,,,,,,,,,html-keyboard-response,317,2.0.0,2725114,5b233660648d5b0001b7de87,3,33,null,,,,,,,,,<p style='font-size: 30px;'><strong>Okay</strong></p>,null,neutral_feedback,2,test,22,,,,,,,,,,,,,,,,,,,,,,,
,,,,,,,,,,,html-button-response,318,2.0.0,2726223,5b233660648d5b0001b7de87,3,33,1105,,,,,,,,,"<img src= ""rock_img/I_Diorite_09.jpg"" style=""width:8cm; height:5.27cm;""><p>What type of rock is this?</p>",5,class_response,2,test,23,Pegmatite,Diorite,9,FALSE,6,3,,,,,,,,,,,,,,,,,
,,,,,,,,,,,html-keyboard-response,319,2.0.0,2726731,5b233660648d5b0001b7de87,3,33,null,,,,,,,,,<p style='font-size: 30px;'><strong>Okay</strong></p>,null,neutral_feedback,2,test,23,,,,,,,,,,,,,,,,,,,,,,,
,,,,,,,,,,,html-button-response,320,2.0.0,2730062,5b233660648d5b0001b7de87,3,33,3325,,,,,,,,,"<img src= ""rock_img/I_Obsidian_08.jpg"" style=""width:8cm; height:7.39cm;""><p>What type of rock is this?</p>",2,class_response,2,test,24,Diorite,Obsidian,8,FALSE,3,5,,,,,,,,,,,,,,,,,
,,,,,,,,,,,html-keyboard-response,321,2.0.0,2730578,5b233660648d5b0001b7de87,3,33,null,,,,,,,,,<p style='font-size: 30px;'><strong>Okay</strong></p>,null,neutral_feedback,2,test,24,,,,,,,,,,,,,,,,,,,,,,,
,,,,,,,,,,,html-button-response,322,2.0.0,2733023,5b233660648d5b0001b7de87,3,33,2441,,,,,,,,,"<img src= ""rock_img/I_Gabbro_13.jpg"" style=""width:8cm; height:5.08cm;""><p>What type of rock is this?</p>",4,class_response,2,test,25,Gabbro,Gabbro,13,TRUE,4,4,,,,,,,,,,,,,,,,,
,,,,,,,,,,,html-keyboard-response,323,2.0.0,2733537,5b233660648d5b0001b7de87,3,33,null,,,,,,,,,<p style='font-size: 30px;'><strong>Okay</strong></p>,null,neutral_feedback,2,test,25,,,,,,,,,,,,,,,,,,,,,,,
,,,,,,,,,,,html-button-response,324,2.0.0,2736043,5b233660648d5b0001b7de87,3,33,2499,,,,,,,,,"<img src= ""rock_img/I_Diorite_15.jpg"" style=""width:8cm; height:5.54cm;""><p>What type of rock is this?</p>",1,class_response,2,test,26,Diorite,Diorite,15,TRUE,3,3,,,,,,,,,,,,,,,,,
,,,,,,,,,,,html-keyboard-response,325,2.0.0,2736554,5b233660648d5b0001b7de87,3,33,null,,,,,,,,,<p style='font-size: 30px;'><strong>Okay</strong></p>,null,neutral_feedback,2,test,26,,,,,,,,,,,,,,,,,,,,,,,
,,,,,,,,,,,html-button-response,326,2.0.0,2738324,5b233660648d5b0001b7de87,3,33,1767,,,,,,,,,"<img src= ""rock_img/I_Andesite_02.jpg"" style=""width:8cm; height:8.5cm;""><p>What type of rock is this?</p>",7,class_response,2,test,27,Andesite,Andesite,2,TRUE,1,1,,,,,,,,,,,,,,,,,
,,,,,,,,,,,html-keyboard-response,327,2.0.0,2738827,5b233660648d5b0001b7de87,3,33,null,,,,,,,,,<p style='font-size: 30px;'><strong>Okay</strong></p>,null,neutral_feedback,2,test,27,,,,,,,,,,,,,,,,,,,,,,,
,,,,,,,,,,,html-button-response,328,2.0.0,2741423,5b233660648d5b0001b7de87,3,33,2594,,,,,,,,,"<img src= ""rock_img/I_Basalt_10.jpg"" style=""width:8cm; height:5.85cm;""><p>What type of rock is this?</p>",4,class_response,2,test,28,Obsidian,Basalt,10,FALSE,5,2,,,,,,,,,,,,,,,,,
,,,,,,,,,,,html-keyboard-response,329,2.0.0,2741935,5b233660648d5b0001b7de87,3,33,null,,,,,,,,,<p style='font-size: 30px;'><strong>Okay</strong></p>,null,neutral_feedback,2,test,28,,,,,,,,,,,,,,,,,,,,,,,
,,,,,,,,,,,html-button-response,330,2.0.0,2745719,5b233660648d5b0001b7de87,3,33,3780,,,,,,,,,"<img src= ""rock_img/I_Obsidian_06.jpg"" style=""width:8cm; height:6.8cm;""><p>What type of rock is this?</p>",2,class_response,2,test,29,Diorite,Obsidian,6,FALSE,3,5,,,,,,,,,,,,,,,,,
,,,,,,,,,,,html-keyboard-response,331,2.0.0,2746225,5b233660648d5b0001b7de87,3,33,null,,,,,,,,,<p style='font-size: 30px;'><strong>Okay</strong></p>,null,neutral_feedback,2,test,29,,,,,,,,,,,,,,,,,,,,,,,
,,,,,,,,,,,html-button-response,332,2.0.0,2748076,5b233660648d5b0001b7de87,3,33,1846,,,,,,,,,"<img src= ""rock_img/I_Gabbro_16.jpg"" style=""width:8cm; height:6.44cm;""><p>What type of rock is this?</p>",5,class_response,2,test,30,Pegmatite,Gabbro,16,FALSE,6,4,,,,,,,,,,,,,,,,,
,,,,,,,,,,,html-keyboard-response,333,2.0.0,2748593,5b233660648d5b0001b7de87,3,33,null,,,,,,,,,<p style='font-size: 30px;'><strong>Okay</strong></p>,null,neutral_feedback,2,test,30,,,,,,,,,,,,,,,,,,,,,,,
,,,,,,,,,,,html-button-response,334,2.0.0,2751026,5b233660648d5b0001b7de87,3,33,2425,,,,,,,,,"<img src= ""rock_img/I_Peridotite_07.jpg"" style=""width:8cm; height:4.83cm;""><p>What type of rock is this?</p>",3,class_response,2,test,31,Gabbro,Peridotite,7,FALSE,4,7,,,,,,,,,,,,,,,,,
,,,,,,,,,,,html-keyboard-response,335,2.0.0,2751542,5b233660648d5b0001b7de87,3,33,null,,,,,,,,,<p style='font-size: 30px;'><strong>Okay</strong></p>,null,neutral_feedback,2,test,31,,,,,,,,,,,,,,,,,,,,,,,
,,,,,,,,,,,html-button-response,336,2.0.0,2755247,5b233660648d5b0001b7de87,3,33,3700,,,,,,,,,"<img src= ""rock_img/I_Pumice_06.jpg"" style=""width:8cm; height:6.9399999999999995cm;""><p>What type of rock is this?</p>",7,class_response,2,test,32,Pumice,Pumice,6,TRUE,8,8,,,,,,,,,,,,,,,,,
,,,,,,,,,,,html-keyboard-response,337,2.0.0,2755767,5b233660648d5b0001b7de87,3,33,null,,,,,,,,,<p style='font-size: 30px;'><strong>Okay</strong></p>,null,neutral_feedback,2,test,32,,,,,,,,,,,,,,,,,,,,,,,
,,,,,,,,,,,html-button-response,338,2.0.0,2757875,5b233660648d5b0001b7de87,3,33,2103,,,,,,,,,"<img src= ""rock_img/I_Pumice_09.jpg"" style=""width:8cm; height:6.44cm;""><p>What type of rock is this?</p>",1,class_response,2,test,33,Basalt,Pumice,9,FALSE,2,8,,,,,,,,,,,,,,,,,
,,,,,,,,,,,html-keyboard-response,339,2.0.0,2758383,5b233660648d5b0001b7de87,3,33,null,,,,,,,,,<p style='font-size: 30px;'><strong>Okay</strong></p>,null,neutral_feedback,2,test,33,,,,,,,,,,,,,,,,,,,,,,,
,,,,,,,,,,,html-button-response,340,2.0.0,2761313,5b233660648d5b0001b7de87,3,33,2923,,,,,,,,,"<img src= ""rock_img/I_Andesite_06.jpg"" style=""width:8cm; height:6.840000000000001cm;""><p>What type of rock is this?</p>",5,class_response,2,test,34,Pegmatite,Andesite,6,FALSE,6,1,,,,,,,,,,,,,,,,,
,,,,,,,,,,,html-keyboard-response,341,2.0.0,2761815,5b233660648d5b0001b7de87,3,33,null,,,,,,,,,<p style='font-size: 30px;'><strong>Okay</strong></p>,null,neutral_feedback,2,test,34,,,,,,,,,,,,,,,,,,,,,,,
,,,,,,,,,,,html-button-response,342,2.0.0,2765025,5b233660648d5b0001b7de87,3,33,3206,,,,,,,,,"<img src= ""rock_img/I_Obsidian_05.jpg"" style=""width:8cm; height:6.33cm;""><p>What type of rock is this?</p>",1,class_response,2,test,35,Basalt,Obsidian,5,FALSE,2,5,,,,,,,,,,,,,,,,,
,,,,,,,,,,,html-keyboard-response,343,2.0.0,2765540,5b233660648d5b0001b7de87,3,33,null,,,,,,,,,<p style='font-size: 30px;'><strong>Okay</strong></p>,null,neutral_feedback,2,test,35,,,,,,,,,,,,,,,,,,,,,,,
,,,,,,,,,,,html-button-response,344,2.0.0,2767542,5b233660648d5b0001b7de87,3,33,1999,,,,,,,,,"<img src= ""rock_img/I_Obsidian_09.jpg"" style=""width:8cm; height:5cm;""><p>What type of rock is this?</p>",2,class_response,2,test,36,Obsidian,Obsidian,9,TRUE,5,5,,,,,,,,,,,,,,,,,
,,,,,,,,,,,html-keyboard-response,345,2.0.0,2768044,5b233660648d5b0001b7de87,3,33,null,,,,,,,,,<p style='font-size: 30px;'><strong>Okay</strong></p>,null,neutral_feedback,2,test,36,,,,,,,,,,,,,,,,,,,,,,,
,,,,,,,,,,,html-button-response,346,2.0.0,2769708,5b233660648d5b0001b7de87,3,33,1662,,,,,,,,,"<img src= ""rock_img/I_Peridotite_05.jpg"" style=""width:8cm; height:7.1499999999999995cm;""><p>What type of rock is this?</p>",5,class_response,2,test,37,Pegmatite,Peridotite,5,FALSE,6,7,,,,,,,,,,,,,,,,,
,,,,,,,,,,,html-keyboard-response,347,2.0.0,2770215,5b233660648d5b0001b7de87,3,33,null,,,,,,,,,<p style='font-size: 30px;'><strong>Okay</strong></p>,null,neutral_feedback,2,test,37,,,,,,,,,,,,,,,,,,,,,,,
,,,,,,,,,,,html-button-response,348,2.0.0,2771252,5b233660648d5b0001b7de87,3,33,1034,,,,,,,,,"<img src= ""rock_img/I_Peridotite_04.jpg"" style=""width:8cm; height:6.680000000000001cm;""><p>What type of rock is this?</p>",4,class_response,2,test,38,Peridotite,Peridotite,4,TRUE,7,7,,,,,,,,,,,,,,,,,
,,,,,,,,,,,html-keyboard-response,349,2.0.0,2771761,5b233660648d5b0001b7de87,3,33,null,,,,,,,,,<p style='font-size: 30px;'><strong>Okay</strong></p>,null,neutral_feedback,2,test,38,,,,,,,,,,,,,,,,,,,,,,,
,,,,,,,,,,,html-button-response,350,2.0.0,2773204,5b233660648d5b0001b7de87,3,33,1439,,,,,,,,,"<img src= ""rock_img/I_Diorite_02.jpg"" style=""width:8cm; height:6.27cm;""><p>What type of rock is this?</p>",2,class_response,2,test,39,Diorite,Diorite,2,TRUE,3,3,,,,,,,,,,,,,,,,,
,,,,,,,,,,,html-keyboard-response,351,2.0.0,2773717,5b233660648d5b0001b7de87,3,33,null,,,,,,,,,<p style='font-size: 30px;'><strong>Okay</strong></p>,null,neutral_feedback,2,test,39,,,,,,,,,,,,,,,,,,,,,,,
,,,,,,,,,,,html-button-response,352,2.0.0,2775671,5b233660648d5b0001b7de87,3,33,1950,,,,,,,,,"<img src= ""rock_img/I_Pegmatite_05.jpg"" style=""width:8cm; height:7.300000000000001cm;""><p>What type of rock is this?</p>",6,class_response,2,test,40,Peridotite,Pegmatite,5,FALSE,7,6,,,,,,,,,,,,,,,,,
,,,,,,,,,,,html-keyboard-response,353,2.0.0,2776179,5b233660648d5b0001b7de87,3,33,null,,,,,,,,,<p style='font-size: 30px;'><strong>Okay</strong></p>,null,neutral_feedback,2,test,40,,,,,,,,,,,,,,,,,,,,,,,
,,,,,,,,,,,html-button-response,354,2.0.0,2778179,5b233660648d5b0001b7de87,3,33,1998,,,,,,,,,"<img src= ""rock_img/I_Pegmatite_03.jpg"" style=""width:8cm; height:5.239999999999999cm;""><p>What type of rock is this?</p>",0,class_response,2,test,41,Andesite,Pegmatite,3,FALSE,1,6,,,,,,,,,,,,,,,,,
,,,,,,,,,,,html-keyboard-response,355,2.0.0,2778684,5b233660648d5b0001b7de87,3,33,null,,,,,,,,,<p style='font-size: 30px;'><strong>Okay</strong></p>,null,neutral_feedback,2,test,41,,,,,,,,,,,,,,,,,,,,,,,
,,,,,,,,,,,html-button-response,356,2.0.0,2780828,5b233660648d5b0001b7de87,3,33,2139,,,,,,,,,"<img src= ""rock_img/I_Pegmatite_15.jpg"" style=""width:8cm; height:6cm;""><p>What type of rock is this?</p>",2,class_response,2,test,42,Pegmatite,Pegmatite,15,TRUE,6,6,,,,,,,,,,,,,,,,,
,,,,,,,,,,,html-keyboard-response,357,2.0.0,2781340,5b233660648d5b0001b7de87,3,33,null,,,,,,,,,<p style='font-size: 30px;'><strong>Okay</strong></p>,null,neutral_feedback,2,test,42,,,,,,,,,,,,,,,,,,,,,,,
,,,,,,,,,,,html-button-response,358,2.0.0,2785641,5b233660648d5b0001b7de87,3,33,4294,,,,,,,,,"<img src= ""rock_img/I_Obsidian_16.jpg"" style=""width:8cm; height:9.3cm;""><p>What type of rock is this?</p>",2,class_response,2,test,43,Diorite,Obsidian,16,FALSE,3,5,,,,,,,,,,,,,,,,,
,,,,,,,,,,,html-keyboard-response,359,2.0.0,2786156,5b233660648d5b0001b7de87,3,33,null,,,,,,,,,<p style='font-size: 30px;'><strong>Okay</strong></p>,null,neutral_feedback,2,test,43,,,,,,,,,,,,,,,,,,,,,,,
,,,,,,,,,,,html-button-response,360,2.0.0,2788764,5b233660648d5b0001b7de87,3,33,2603,,,,,,,,,"<img src= ""rock_img/I_Gabbro_10.jpg"" style=""width:8cm; height:5.680000000000001cm;""><p>What type of rock is this?</p>",7,class_response,2,test,44,Pumice,Gabbro,10,FALSE,8,4,,,,,,,,,,,,,,,,,
,,,,,,,,,,,html-keyboard-response,361,2.0.0,2789267,5b233660648d5b0001b7de87,3,33,null,,,,,,,,,<p style='font-size: 30px;'><strong>Okay</strong></p>,null,neutral_feedback,2,test,44,,,,,,,,,,,,,,,,,,,,,,,
,,,,,,,,,,,html-button-response,362,2.0.0,2792419,5b233660648d5b0001b7de87,3,33,3146,,,,,,,,,"<img src= ""rock_img/I_Peridotite_08.jpg"" style=""width:8cm; height:6.7cm;""><p>What type of rock is this?</p>",5,class_response,2,test,45,Pegmatite,Peridotite,8,FALSE,6,7,,,,,,,,,,,,,,,,,
,,,,,,,,,,,html-keyboard-response,363,2.0.0,2792932,5b233660648d5b0001b7de87,3,33,null,,,,,,,,,<p style='font-size: 30px;'><strong>Okay</strong></p>,null,neutral_feedback,2,test,45,,,,,,,,,,,,,,,,,,,,,,,
,,,,,,,,,,,html-button-response,364,2.0.0,2794534,5b233660648d5b0001b7de87,3,33,1598,,,,,,,,,"<img src= ""rock_img/I_Andesite_16.jpg"" style=""width:8cm; height:6.010000000000001cm;""><p>What type of rock is this?</p>",1,class_response,2,test,46,Basalt,Andesite,16,FALSE,2,1,,,,,,,,,,,,,,,,,
,,,,,,,,,,,html-keyboard-response,365,2.0.0,2795049,5b233660648d5b0001b7de87,3,33,null,,,,,,,,,<p style='font-size: 30px;'><strong>Okay</strong></p>,null,neutral_feedback,2,test,46,,,,,,,,,,,,,,,,,,,,,,,
,,,,,,,,,,,html-button-response,366,2.0.0,2795924,5b233660648d5b0001b7de87,3,33,870,,,,,,,,,"<img src= ""rock_img/I_Pumice_03.jpg"" style=""width:8cm; height:6.64cm;""><p>What type of rock is this?</p>",1,class_response,2,test,47,Pumice,Pumice,3,TRUE,8,8,,,,,,,,,,,,,,,,,
,,,,,,,,,,,html-keyboard-response,367,2.0.0,2796432,5b233660648d5b0001b7de87,3,33,null,,,,,,,,,<p style='font-size: 30px;'><strong>Okay</strong></p>,null,neutral_feedback,2,test,47,,,,,,,,,,,,,,,,,,,,,,,
,,,,,,,,,,,html-button-response,368,2.0.0,2797840,5b233660648d5b0001b7de87,3,33,1403,,,,,,,,,"<img src= ""rock_img/I_Diorite_14.jpg"" style=""width:8cm; height:5.71cm;""><p>What type of rock is this?</p>",5,class_response,2,test,48,Diorite,Diorite,14,TRUE,3,3,,,,,,,,,,,,,,,,,
,,,,,,,,,,,html-keyboard-response,369,2.0.0,2798352,5b233660648d5b0001b7de87,3,33,null,,,,,,,,,<p style='font-size: 30px;'><strong>Okay</strong></p>,null,neutral_feedback,2,test,48,,,,,,,,,,,,,,,,,,,,,,,
,,,,,,,,,,,html-button-response,370,2.0.0,2806076,5b233660648d5b0001b7de87,3,33,,,,,,,,,,,,cycle_feedback,,,,,,,,,,,,,,,,,,,,,,,,6312.4,1386.6,
,,,,,,,,,,,html-button-response,372,2.0.0,2808057,5b233660648d5b0001b7de87,3,33,1977,,,,,,,,,,0,start_train,,,,,,,,,,,,,,,,,,,,,,,,,,
,,,,,,,,,,,html-button-response,374,2.0.0,2813223,5b233660648d5b0001b7de87,3,33,5162,,,,,,,,,"<img src= ""rock_img/I_Diorite_08.jpg"" style=""width:8cm; height:6.37cm;""><p>What type of rock is this?</p>",5,class_response,3,train,1,Pegmatite,Diorite,8,FALSE,6,3,,,,,,,,,,,,,,,,,
,,,,,,,,,,,html-button-response,375,2.0.0,2814320,5b233660648d5b0001b7de87,3,33,1094,,,,,,,,,"<img src= rock_img/I_Diorite_08.jpg style=""width:8cm; height:6.37cm;""><p style='font-size: 30px; color: red;'><strong>Incorrect!</strong></p><p style='font-size: 30px;'><strong>This rock is diorite</strong></p>",0,corr_feedback,3,train,1,,,,,,,,,,,,,,,,,,,,,,,
,,,,,,,,,,,html-button-response,376,2.0.0,2817627,5b233660648d5b0001b7de87,3,33,3300,,,,,,,,,"<img src= ""rock_img/I_Pumice_08.jpg"" style=""width:8cm; height:6.67cm;""><p>What type of rock is this?</p>",7,class_response,3,train,2,Pumice,Pumice,8,TRUE,8,8,,,,,,,,,,,,,,,,,
,,,,,,,,,,,html-button-response,377,2.0.0,2818818,5b233660648d5b0001b7de87,3,33,1189,,,,,,,,,"<img src= rock_img/I_Pumice_08.jpg style=""width:8cm; height:6.67cm;""><p style='font-size: 30px; color: green;'><strong>Correct!</strong></p><p style='font-size: 30px;'><strong>This rock is pumice</strong></p>",0,corr_feedback,3,train,2,,,,,,,,,,,,,,,,,,,,,,,
,,,,,,,,,,,html-button-response,378,2.0.0,2822050,5b233660648d5b0001b7de87,3,33,3229,,,,,,,,,"<img src= ""rock_img/I_Obsidian_14.jpg"" style=""width:8cm; height:7.64cm;""><p>What type of rock is this?</p>",2,class_response,3,train,3,Diorite,Obsidian,14,FALSE,3,5,,,,,,,,,,,,,,,,,
,,,,,,,,,,,html-button-response,379,2.0.0,2824215,5b233660648d5b0001b7de87,3,33,2161,,,,,,,,,"<img src= rock_img/I_Obsidian_14.jpg style=""width:8cm; height:7.64cm;""><p style='font-size: 30px; color: red;'><strong>Incorrect!</strong></p><p style='font-size: 30px;'><strong>This rock is obsidian</strong></p>",0,corr_feedback,3,train,3,,,,,,,,,,,,,,,,,,,,,,,
,,,,,,,,,,,html-button-response,380,2.0.0,2831373,5b233660648d5b0001b7de87,3,33,7155,,,,,,,,,"<img src= ""rock_img/I_Andesite_04.jpg"" style=""width:8cm; height:5.96cm;""><p>What type of rock is this?</p>",6,class_response,3,train,4,Peridotite,Andesite,4,FALSE,7,1,,,,,,,,,,,,,,,,,
,,,,,,,,,,,html-button-response,381,2.0.0,2832323,5b233660648d5b0001b7de87,3,33,946,,,,,,,,,"<img src= rock_img/I_Andesite_04.jpg style=""width:8cm; height:5.96cm;""><p style='font-size: 30px; color: red;'><strong>Incorrect!</strong></p><p style='font-size: 30px;'><strong>This rock is andesite</strong></p>",0,corr_feedback,3,train,4,,,,,,,,,,,,,,,,,,,,,,,
,,,,,,,,,,,html-button-response,382,2.0.0,2833349,5b233660648d5b0001b7de87,3,33,1019,,,,,,,,,"<img src= ""rock_img/I_Peridotite_12.jpg"" style=""width:8cm; height:4.54cm;""><p>What type of rock is this?</p>",5,class_response,3,train,5,Pegmatite,Peridotite,12,FALSE,6,7,,,,,,,,,,,,,,,,,
,,,,,,,,,,,html-button-response,383,2.0.0,2834258,5b233660648d5b0001b7de87,3,33,905,,,,,,,,,"<img src= rock_img/I_Peridotite_12.jpg style=""width:8cm; height:4.54cm;""><p style='font-size: 30px; color: red;'><strong>Incorrect!</strong></p><p style='font-size: 30px;'><strong>This rock is peridotite</strong></p>",0,corr_feedback,3,train,5,,,,,,,,,,,,,,,,,,,,,,,
,,,,,,,,,,,html-button-response,384,2.0.0,2837161,5b233660648d5b0001b7de87,3,33,2894,,,,,,,,,"<img src= ""rock_img/I_Diorite_07.jpg"" style=""width:8cm; height:5.239999999999999cm;""><p>What type of rock is this?</p>",4,class_response,3,train,6,Obsidian,Diorite,7,FALSE,5,3,,,,,,,,,,,,,,,,,
,,,,,,,,,,,html-button-response,385,2.0.0,2838414,5b233660648d5b0001b7de87,3,33,1247,,,,,,,,,"<img src= rock_img/I_Diorite_07.jpg style=""width:8cm; height:5.239999999999999cm;""><p style='font-size: 30px; color: red;'><strong>Incorrect!</strong></p><p style='font-size: 30px;'><strong>This rock is diorite</strong></p>",0,corr_feedback,3,train,6,,,,,,,,,,,,,,,,,,,,,,,
,,,,,,,,,,,html-button-response,386,2.0.0,2842766,5b233660648d5b0001b7de87,3,33,4343,,,,,,,,,"<img src= ""rock_img/I_Pegmatite_07.jpg"" style=""width:8cm; height:6.7cm;""><p>What type of rock is this?</p>",7,class_response,3,train,7,Pumice,Pegmatite,7,FALSE,8,6,,,,,,,,,,,,,,,,,
,,,,,,,,,,,html-button-response,387,2.0.0,2843998,5b233660648d5b0001b7de87,3,33,1229,,,,,,,,,"<img src= rock_img/I_Pegmatite_07.jpg style=""width:8cm; height:6.7cm;""><p style='font-size: 30px; color: red;'><strong>Incorrect!</strong></p><p style='font-size: 30px;'><strong>This rock is pegmatite</strong></p>",0,corr_feedback,3,train,7,,,,,,,,,,,,,,,,,,,,,,,
,,,,,,,,,,,html-button-response,388,2.0.0,2846206,5b233660648d5b0001b7de87,3,33,2206,,,,,,,,,"<img src= ""rock_img/I_Basalt_09.jpg"" style=""width:8cm; height:6.2cm;""><p>What type of rock is this?</p>",3,class_response,3,train,8,Gabbro,Basalt,9,FALSE,4,2,,,,,,,,,,,,,,,,,
,,,,,,,,,,,html-button-response,389,2.0.0,2847436,5b233660648d5b0001b7de87,3,33,1226,,,,,,,,,"<img src= rock_img/I_Basalt_09.jpg style=""width:8cm; height:6.2cm;""><p style='font-size: 30px; color: red;'><strong>Incorrect!</strong></p><p style='font-size: 30px;'><strong>This rock is basalt</strong></p>",0,corr_feedback,3,train,8,,,,,,,,,,,,,,,,,,,,,,,
,,,,,,,,,,,html-button-response,390,2.0.0,2849704,5b233660648d5b0001b7de87,3,33,2262,,,,,,,,,"<img src= ""rock_img/I_Gabbro_01.jpg"" style=""width:8cm; height:5.21cm;""><p>What type of rock is this?</p>",0,class_response,3,train,9,Andesite,Gabbro,1,FALSE,1,4,,,,,,,,,,,,,,,,,
,,,,,,,,,,,html-button-response,391,2.0.0,2851277,5b233660648d5b0001b7de87,3,33,1569,,,,,,,,,"<img src= rock_img/I_Gabbro_01.jpg style=""width:8cm; height:5.21cm;""><p style='font-size: 30px; color: red;'><strong>Incorrect!</strong></p><p style='font-size: 30px;'><strong>This rock is gabbro</strong></p>",0,corr_feedback,3,train,9,,,,,,,,,,,,,,,,,,,,,,,
,,,,,,,,,,,html-button-response,392,2.0.0,2851696,5b233660648d5b0001b7de87,3,33,411,,,,,,,,,"<img src= ""rock_img/I_Peridotite_14.jpg"" style=""width:8cm; height:5.3cm;""><p>What type of rock is this?</p>",5,class_response,3,train,10,Pegmatite,Peridotite,14,FALSE,6,7,,,,,,,,,,,,,,,,,
,,,,,,,,,,,html-button-response,393,2.0.0,2853805,5b233660648d5b0001b7de87,3,33,2105,,,,,,,,,"<img src= rock_img/I_Peridotite_14.jpg style=""width:8cm; height:5.3cm;""><p style='font-size: 30px; color: red;'><strong>Incorrect!</strong></p><p style='font-size: 30px;'><strong>This rock is peridotite</strong></p>",0,corr_feedback,3,train,10,,,,,,,,,,,,,,,,,,,,,,,
,,,,,,,,,,,html-button-response,394,2.0.0,2858139,5b233660648d5b0001b7de87,3,33,4332,,,,,,,,,"<img src= ""rock_img/I_Pumice_16.jpg"" style=""width:8cm; height:6.79cm;""><p>What type of rock is this?</p>",1,class_response,3,train,11,Basalt,Pumice,16,FALSE,2,8,,,,,,,,,,,,,,,,,
,,,,,,,,,,,html-button-response,395,2.0.0,2859866,5b233660648d5b0001b7de87,3,33,1725,,,,,,,,,"<img src= rock_img/I_Pumice_16.jpg style=""width:8cm; height:6.79cm;""><p style='font-size: 30px; color: red;'><strong>Incorrect!</strong></p><p style='font-size: 30px;'><strong>This rock is pumice</strong></p>",0,corr_feedback,3,train,11,,,,,,,,,,,,,,,,,,,,,,,
,,,,,,,,,,,html-button-response,396,2.0.0,2864491,5b233660648d5b0001b7de87,3,33,4620,,,,,,,,,"<img src= ""rock_img/I_Andesite_07.jpg"" style=""width:8cm; height:5.93cm;""><p>What type of rock is this?</p>",3,class_response,3,train,12,Gabbro,Andesite,7,FALSE,4,1,,,,,,,,,,,,,,,,,
