width,height,webaudio,browser,browser_version,mobile,os,fullscreen,vsync_rate,webcam,microphone,trial_type,trial_index,plugin_version,time_elapsed,subjID,condition,stimID,rt,url,success,value,timeout,failed_images,failed_audio,failed_video,view_history,stimulus,response,trialType,cycle,phase,trial,resp,cat,token,corr,resp_num,cat_num,rt_ref,rt_paired,ref_cat_num,paired_cat_num,ref_cat,paired_cat,text_Diorite,text_Andesite,time_obs,time_resp,text_Pumice,text_Gabbro,text_Basalt,time_fb1,time_fb2,text_Peridotite,text_Obsidian,text_Pegmatite
1470,832,TRUE,chrome,129.0.0,FALSE,Mac OS,TRUE,61.79,TRUE,TRUE,browser-check,0,2.0.0,1010,664521e03117b782ed4fff45,4,24,,,,,,,,,,,,,,,,,,,,,,,,,,,,,,,,,,,,,,,
,,,,,,,,,,,external-html,1,2.0.0,7774,664521e03117b782ed4fff45,4,24,6649,consent_form.html,,,,,,,,,,,,,,,,,,,,,,,,,,,,,,,,,,,,,
,,,,,,,,,,,fullscreen,2,2.0.0,10179,664521e03117b782ed4fff45,4,24,1399,,TRUE,,,,,,,,,,,,,,,,,,,,,,,,,,,,,,,,,,,,
,,,,,,,,,,,call-function,3,2.0.0,10183,664521e03117b782ed4fff45,4,24,,,,{},,,,,,,,,,,,,,,,,,,,,,,,,,,,,,,,,,,
,,,,,,,,,,,preload,4,2.0.0,13432,664521e03117b782ed4fff45,4,24,,,TRUE,,FALSE,[],[],[],,,,,,,,,,,,,,,,,,,,,,,,,,,,,,,
,,,,,,,,,,,instructions,5,2.0.0,61960,664521e03117b782ed4fff45,4,24,48527,,,,,,,,"[{""page_index"":0,""viewing_time"":9963},{""page_index"":1,""viewing_time"":14812},{""page_index"":2,""viewing_time"":23752}]",,,,,,,,,,,,,,,,,,,,,,,,,,,,,,
,,,,,,,,,,,html-button-response,6,2.0.0,63844,664521e03117b782ed4fff45,4,24,1881,,,,,,,,,,0,start_test,,,,,,,,,,,,,,,,,,,,,,,,,,,
,,,,,,,,,,,html-button-response,7,2.0.0,66721,664521e03117b782ed4fff45,4,24,2875,,,,,,,,,"<img src= ""rock_img/I_Obsidian_08.jpg"" style=""width:8cm; height:7.39cm;""><p>What type of rock is this?</p>",6,class_response,0,test,1,Peridotite,Obsidian,8,FALSE,7,5,,,,,,,,,,,,,,,,,,
,,,,,,,,,,,html-keyboard-response,8,2.0.0,67223,664521e03117b782ed4fff45,4,24,null,,,,,,,,,<p style='font-size: 30px;'><strong>Okay</strong></p>,null,neutral_feedback,0,test,1,,,,,,,,,,,,,,,,,,,,,,,,
,,,,,,,,,,,html-button-response,9,2.0.0,70501,664521e03117b782ed4fff45,4,24,3275,,,,,,,,,"<img src= ""rock_img/I_Andesite_02.jpg"" style=""width:8cm; height:8.5cm;""><p>What type of rock is this?</p>",1,class_response,0,test,2,Basalt,Andesite,2,FALSE,2,1,,,,,,,,,,,,,,,,,,
,,,,,,,,,,,html-keyboard-response,10,2.0.0,71003,664521e03117b782ed4fff45,4,24,null,,,,,,,,,<p style='font-size: 30px;'><strong>Okay</strong></p>,null,neutral_feedback,0,test,2,,,,,,,,,,,,,,,,,,,,,,,,
,,,,,,,,,,,html-button-response,11,2.0.0,73367,664521e03117b782ed4fff45,4,24,2361,,,,,,,,,"<img src= ""rock_img/I_Pegmatite_13.jpg"" style=""width:8cm; height:4.95cm;""><p>What type of rock is this?</p>",3,class_response,0,test,3,Gabbro,Pegmatite,13,FALSE,4,6,,,,,,,,,,,,,,,,,,
,,,,,,,,,,,html-keyboard-response,12,2.0.0,73870,664521e03117b782ed4fff45,4,24,null,,,,,,,,,<p style='font-size: 30px;'><strong>Okay</strong></p>,null,neutral_feedback,0,test,3,,,,,,,,,,,,,,,,,,,,,,,,
,,,,,,,,,,,html-button-response,13,2.0.0,75780,664521e03117b782ed4fff45,4,24,1909,,,,,,,,,"<img src= ""rock_img/I_Andesite_07.jpg"" style=""width:8cm; height:5.93cm;""><p>What type of rock is this?</p>",0,class_response,0,test,4,Andesite,Andesite,7,TRUE,1,1,,,,,,,,,,,,,,,,,,
,,,,,,,,,,,html-keyboard-response,14,2.0.0,76281,664521e03117b782ed4fff45,4,24,null,,,,,,,,,<p style='font-size: 30px;'><strong>Okay</strong></p>,null,neutral_feedback,0,test,4,,,,,,,,,,,,,,,,,,,,,,,,
,,,,,,,,,,,html-button-response,15,2.0.0,79814,664521e03117b782ed4fff45,4,24,3530,,,,,,,,,"<img src= ""rock_img/I_Pumice_02.jpg"" style=""width:8cm; height:7.3999999999999995cm;""><p>What type of rock is this?</p>",1,class_response,0,test,5,Basalt,Pumice,2,FALSE,2,8,,,,,,,,,,,,,,,,,,
,,,,,,,,,,,html-keyboard-response,16,2.0.0,80317,664521e03117b782ed4fff45,4,24,null,,,,,,,,,<p style='font-size: 30px;'><strong>Okay</strong></p>,null,neutral_feedback,0,test,5,,,,,,,,,,,,,,,,,,,,,,,,
,,,,,,,,,,,html-button-response,17,2.0.0,81568,664521e03117b782ed4fff45,4,24,1250,,,,,,,,,"<img src= ""rock_img/I_Obsidian_07.jpg"" style=""width:8cm; height:4.76cm;""><p>What type of rock is this?</p>",4,class_response,0,test,6,Obsidian,Obsidian,7,TRUE,5,5,,,,,,,,,,,,,,,,,,
,,,,,,,,,,,html-keyboard-response,18,2.0.0,82070,664521e03117b782ed4fff45,4,24,null,,,,,,,,,<p style='font-size: 30px;'><strong>Okay</strong></p>,null,neutral_feedback,0,test,6,,,,,,,,,,,,,,,,,,,,,,,,
,,,,,,,,,,,html-button-response,19,2.0.0,84192,664521e03117b782ed4fff45,4,24,2119,,,,,,,,,"<img src= ""rock_img/I_Pegmatite_05.jpg"" style=""width:8cm; height:7.300000000000001cm;""><p>What type of rock is this?</p>",5,class_response,0,test,7,Pegmatite,Pegmatite,5,TRUE,6,6,,,,,,,,,,,,,,,,,,
,,,,,,,,,,,html-keyboard-response,20,2.0.0,84694,664521e03117b782ed4fff45,4,24,null,,,,,,,,,<p style='font-size: 30px;'><strong>Okay</strong></p>,null,neutral_feedback,0,test,7,,,,,,,,,,,,,,,,,,,,,,,,
,,,,,,,,,,,html-button-response,21,2.0.0,85968,664521e03117b782ed4fff45,4,24,1272,,,,,,,,,"<img src= ""rock_img/I_Andesite_11.jpg"" style=""width:8cm; height:4.92cm;""><p>What type of rock is this?</p>",3,class_response,0,test,8,Gabbro,Andesite,11,FALSE,4,1,,,,,,,,,,,,,,,,,,
,,,,,,,,,,,html-keyboard-response,22,2.0.0,86470,664521e03117b782ed4fff45,4,24,null,,,,,,,,,<p style='font-size: 30px;'><strong>Okay</strong></p>,null,neutral_feedback,0,test,8,,,,,,,,,,,,,,,,,,,,,,,,
,,,,,,,,,,,html-button-response,23,2.0.0,87448,664521e03117b782ed4fff45,4,24,976,,,,,,,,,"<img src= ""rock_img/I_Obsidian_06.jpg"" style=""width:8cm; height:6.8cm;""><p>What type of rock is this?</p>",7,class_response,0,test,9,Pumice,Obsidian,6,FALSE,8,5,,,,,,,,,,,,,,,,,,
,,,,,,,,,,,html-keyboard-response,24,2.0.0,87949,664521e03117b782ed4fff45,4,24,null,,,,,,,,,<p style='font-size: 30px;'><strong>Okay</strong></p>,null,neutral_feedback,0,test,9,,,,,,,,,,,,,,,,,,,,,,,,
,,,,,,,,,,,html-button-response,25,2.0.0,89038,664521e03117b782ed4fff45,4,24,1087,,,,,,,,,"<img src= ""rock_img/I_Pumice_09.jpg"" style=""width:8cm; height:6.44cm;""><p>What type of rock is this?</p>",1,class_response,0,test,10,Basalt,Pumice,9,FALSE,2,8,,,,,,,,,,,,,,,,,,
,,,,,,,,,,,html-keyboard-response,26,2.0.0,89540,664521e03117b782ed4fff45,4,24,null,,,,,,,,,<p style='font-size: 30px;'><strong>Okay</strong></p>,null,neutral_feedback,0,test,10,,,,,,,,,,,,,,,,,,,,,,,,
,,,,,,,,,,,html-button-response,27,2.0.0,91734,664521e03117b782ed4fff45,4,24,2191,,,,,,,,,"<img src= ""rock_img/I_Basalt_06.jpg"" style=""width:8cm; height:7.06cm;""><p>What type of rock is this?</p>",4,class_response,0,test,11,Obsidian,Basalt,6,FALSE,5,2,,,,,,,,,,,,,,,,,,
,,,,,,,,,,,html-keyboard-response,28,2.0.0,92235,664521e03117b782ed4fff45,4,24,null,,,,,,,,,<p style='font-size: 30px;'><strong>Okay</strong></p>,null,neutral_feedback,0,test,11,,,,,,,,,,,,,,,,,,,,,,,,
,,,,,,,,,,,html-button-response,29,2.0.0,93083,664521e03117b782ed4fff45,4,24,845,,,,,,,,,"<img src= ""rock_img/I_Gabbro_09.jpg"" style=""width:8cm; height:7.279999999999999cm;""><p>What type of rock is this?</p>",4,class_response,0,test,12,Obsidian,Gabbro,9,FALSE,5,4,,,,,,,,,,,,,,,,,,
,,,,,,,,,,,html-keyboard-response,30,2.0.0,93585,664521e03117b782ed4fff45,4,24,null,,,,,,,,,<p style='font-size: 30px;'><strong>Okay</strong></p>,null,neutral_feedback,0,test,12,,,,,,,,,,,,,,,,,,,,,,,,
,,,,,,,,,,,html-button-response,31,2.0.0,94649,664521e03117b782ed4fff45,4,24,1061,,,,,,,,,"<img src= ""rock_img/I_Gabbro_14.jpg"" style=""width:8cm; height:8.48cm;""><p>What type of rock is this?</p>",1,class_response,0,test,13,Basalt,Gabbro,14,FALSE,2,4,,,,,,,,,,,,,,,,,,
,,,,,,,,,,,html-keyboard-response,32,2.0.0,95150,664521e03117b782ed4fff45,4,24,null,,,,,,,,,<p style='font-size: 30px;'><strong>Okay</strong></p>,null,neutral_feedback,0,test,13,,,,,,,,,,,,,,,,,,,,,,,,
,,,,,,,,,,,html-button-response,33,2.0.0,96054,664521e03117b782ed4fff45,4,24,903,,,,,,,,,"<img src= ""rock_img/I_Basalt_01.jpg"" style=""width:8cm; height:7.880000000000001cm;""><p>What type of rock is this?</p>",0,class_response,0,test,14,Andesite,Basalt,1,FALSE,1,2,,,,,,,,,,,,,,,,,,
,,,,,,,,,,,html-keyboard-response,34,2.0.0,96556,664521e03117b782ed4fff45,4,24,null,,,,,,,,,<p style='font-size: 30px;'><strong>Okay</strong></p>,null,neutral_feedback,0,test,14,,,,,,,,,,,,,,,,,,,,,,,,
,,,,,,,,,,,html-button-response,35,2.0.0,97279,664521e03117b782ed4fff45,4,24,722,,,,,,,,,"<img src= ""rock_img/I_Basalt_10.jpg"" style=""width:8cm; height:5.85cm;""><p>What type of rock is this?</p>",5,class_response,0,test,15,Pegmatite,Basalt,10,FALSE,6,2,,,,,,,,,,,,,,,,,,
,,,,,,,,,,,html-keyboard-response,36,2.0.0,97781,664521e03117b782ed4fff45,4,24,null,,,,,,,,,<p style='font-size: 30px;'><strong>Okay</strong></p>,null,neutral_feedback,0,test,15,,,,,,,,,,,,,,,,,,,,,,,,
,,,,,,,,,,,html-button-response,37,2.0.0,99016,664521e03117b782ed4fff45,4,24,1234,,,,,,,,,"<img src= ""rock_img/I_Diorite_13.jpg"" style=""width:8cm; height:6.29cm;""><p>What type of rock is this?</p>",2,class_response,0,test,16,Diorite,Diorite,13,TRUE,3,3,,,,,,,,,,,,,,,,,,
,,,,,,,,,,,html-keyboard-response,38,2.0.0,99518,664521e03117b782ed4fff45,4,24,null,,,,,,,,,<p style='font-size: 30px;'><strong>Okay</strong></p>,null,neutral_feedback,0,test,16,,,,,,,,,,,,,,,,,,,,,,,,
,,,,,,,,,,,html-button-response,39,2.0.0,100373,664521e03117b782ed4fff45,4,24,852,,,,,,,,,"<img src= ""rock_img/I_Peridotite_06.jpg"" style=""width:8cm; height:7.53cm;""><p>What type of rock is this?</p>",1,class_response,0,test,17,Basalt,Peridotite,6,FALSE,2,7,,,,,,,,,,,,,,,,,,
,,,,,,,,,,,html-keyboard-response,40,2.0.0,100875,664521e03117b782ed4fff45,4,24,null,,,,,,,,,<p style='font-size: 30px;'><strong>Okay</strong></p>,null,neutral_feedback,0,test,17,,,,,,,,,,,,,,,,,,,,,,,,
,,,,,,,,,,,html-button-response,41,2.0.0,101988,664521e03117b782ed4fff45,4,24,1111,,,,,,,,,"<img src= ""rock_img/I_Obsidian_16.jpg"" style=""width:8cm; height:9.3cm;""><p>What type of rock is this?</p>",5,class_response,0,test,18,Pegmatite,Obsidian,16,FALSE,6,5,,,,,,,,,,,,,,,,,,
,,,,,,,,,,,html-keyboard-response,42,2.0.0,102489,664521e03117b782ed4fff45,4,24,null,,,,,,,,,<p style='font-size: 30px;'><strong>Okay</strong></p>,null,neutral_feedback,0,test,18,,,,,,,,,,,,,,,,,,,,,,,,
,,,,,,,,,,,html-button-response,43,2.0.0,103330,664521e03117b782ed4fff45,4,24,839,,,,,,,,,"<img src= ""rock_img/I_Pegmatite_03.jpg"" style=""width:8cm; height:5.239999999999999cm;""><p>What type of rock is this?</p>",6,class_response,0,test,19,Peridotite,Pegmatite,3,FALSE,7,6,,,,,,,,,,,,,,,,,,
,,,,,,,,,,,html-keyboard-response,44,2.0.0,103831,664521e03117b782ed4fff45,4,24,null,,,,,,,,,<p style='font-size: 30px;'><strong>Okay</strong></p>,null,neutral_feedback,0,test,19,,,,,,,,,,,,,,,,,,,,,,,,
,,,,,,,,,,,html-button-response,45,2.0.0,104440,664521e03117b782ed4fff45,4,24,607,,,,,,,,,"<img src= ""rock_img/I_Pegmatite_08.jpg"" style=""width:8cm; height:7.68cm;""><p>What type of rock is this?</p>",3,class_response,0,test,20,Gabbro,Pegmatite,8,FALSE,4,6,,,,,,,,,,,,,,,,,,
,,,,,,,,,,,html-keyboard-response,46,2.0.0,104941,664521e03117b782ed4fff45,4,24,null,,,,,,,,,<p style='font-size: 30px;'><strong>Okay</strong></p>,null,neutral_feedback,0,test,20,,,,,,,,,,,,,,,,,,,,,,,,
,,,,,,,,,,,html-button-response,47,2.0.0,105471,664521e03117b782ed4fff45,4,24,529,,,,,,,,,"<img src= ""rock_img/I_Pumice_08.jpg"" style=""width:8cm; height:6.67cm;""><p>What type of rock is this?</p>",7,class_response,0,test,21,Pumice,Pumice,8,TRUE,8,8,,,,,,,,,,,,,,,,,,
,,,,,,,,,,,html-keyboard-response,48,2.0.0,105972,664521e03117b782ed4fff45,4,24,null,,,,,,,,,<p style='font-size: 30px;'><strong>Okay</strong></p>,null,neutral_feedback,0,test,21,,,,,,,,,,,,,,,,,,,,,,,,
,,,,,,,,,,,html-button-response,49,2.0.0,107039,664521e03117b782ed4fff45,4,24,1065,,,,,,,,,"<img src= ""rock_img/I_Basalt_04.jpg"" style=""width:8cm; height:7.53cm;""><p>What type of rock is this?</p>",4,class_response,0,test,22,Obsidian,Basalt,4,FALSE,5,2,,,,,,,,,,,,,,,,,,
,,,,,,,,,,,html-keyboard-response,50,2.0.0,107540,664521e03117b782ed4fff45,4,24,null,,,,,,,,,<p style='font-size: 30px;'><strong>Okay</strong></p>,null,neutral_feedback,0,test,22,,,,,,,,,,,,,,,,,,,,,,,,
,,,,,,,,,,,html-button-response,51,2.0.0,108914,664521e03117b782ed4fff45,4,24,1372,,,,,,,,,"<img src= ""rock_img/I_Peridotite_12.jpg"" style=""width:8cm; height:4.54cm;""><p>What type of rock is this?</p>",5,class_response,0,test,23,Pegmatite,Peridotite,12,FALSE,6,7,,,,,,,,,,,,,,,,,,
,,,,,,,,,,,html-keyboard-response,52,2.0.0,109415,664521e03117b782ed4fff45,4,24,null,,,,,,,,,<p style='font-size: 30px;'><strong>Okay</strong></p>,null,neutral_feedback,0,test,23,,,,,,,,,,,,,,,,,,,,,,,,
,,,,,,,,,,,html-button-response,53,2.0.0,110053,664521e03117b782ed4fff45,4,24,637,,,,,,,,,"<img src= ""rock_img/I_Diorite_10.jpg"" style=""width:8cm; height:5.949999999999999cm;""><p>What type of rock is this?</p>",1,class_response,0,test,24,Basalt,Diorite,10,FALSE,2,3,,,,,,,,,,,,,,,,,,
,,,,,,,,,,,html-keyboard-response,54,2.0.0,110555,664521e03117b782ed4fff45,4,24,null,,,,,,,,,<p style='font-size: 30px;'><strong>Okay</strong></p>,null,neutral_feedback,0,test,24,,,,,,,,,,,,,,,,,,,,,,,,
,,,,,,,,,,,html-button-response,55,2.0.0,111017,664521e03117b782ed4fff45,4,24,461,,,,,,,,,"<img src= ""rock_img/I_Gabbro_10.jpg"" style=""width:8cm; height:5.680000000000001cm;""><p>What type of rock is this?</p>",0,class_response,0,test,25,Andesite,Gabbro,10,FALSE,1,4,,,,,,,,,,,,,,,,,,
,,,,,,,,,,,html-keyboard-response,56,2.0.0,111518,664521e03117b782ed4fff45,4,24,null,,,,,,,,,<p style='font-size: 30px;'><strong>Okay</strong></p>,null,neutral_feedback,0,test,25,,,,,,,,,,,,,,,,,,,,,,,,
,,,,,,,,,,,html-button-response,57,2.0.0,112495,664521e03117b782ed4fff45,4,24,976,,,,,,,,,"<img src= ""rock_img/I_Andesite_04.jpg"" style=""width:8cm; height:5.96cm;""><p>What type of rock is this?</p>",5,class_response,0,test,26,Pegmatite,Andesite,4,FALSE,6,1,,,,,,,,,,,,,,,,,,
,,,,,,,,,,,html-keyboard-response,58,2.0.0,112996,664521e03117b782ed4fff45,4,24,null,,,,,,,,,<p style='font-size: 30px;'><strong>Okay</strong></p>,null,neutral_feedback,0,test,26,,,,,,,,,,,,,,,,,,,,,,,,
,,,,,,,,,,,html-button-response,59,2.0.0,113843,664521e03117b782ed4fff45,4,24,845,,,,,,,,,"<img src= ""rock_img/I_Obsidian_04.jpg"" style=""width:8cm; height:6.930000000000001cm;""><p>What type of rock is this?</p>",6,class_response,0,test,27,Peridotite,Obsidian,4,FALSE,7,5,,,,,,,,,,,,,,,,,,
,,,,,,,,,,,html-keyboard-response,60,2.0.0,114344,664521e03117b782ed4fff45,4,24,null,,,,,,,,,<p style='font-size: 30px;'><strong>Okay</strong></p>,null,neutral_feedback,0,test,27,,,,,,,,,,,,,,,,,,,,,,,,
,,,,,,,,,,,html-button-response,61,2.0.0,115231,664521e03117b782ed4fff45,4,24,885,,,,,,,,,"<img src= ""rock_img/I_Andesite_10.jpg"" style=""width:8cm; height:4.16cm;""><p>What type of rock is this?</p>",2,class_response,0,test,28,Diorite,Andesite,10,FALSE,3,1,,,,,,,,,,,,,,,,,,
,,,,,,,,,,,html-keyboard-response,62,2.0.0,115732,664521e03117b782ed4fff45,4,24,null,,,,,,,,,<p style='font-size: 30px;'><strong>Okay</strong></p>,null,neutral_feedback,0,test,28,,,,,,,,,,,,,,,,,,,,,,,,
,,,,,,,,,,,html-button-response,63,2.0.0,116408,664521e03117b782ed4fff45,4,24,674,,,,,,,,,"<img src= ""rock_img/I_Peridotite_07.jpg"" style=""width:8cm; height:4.83cm;""><p>What type of rock is this?</p>",6,class_response,0,test,29,Peridotite,Peridotite,7,TRUE,7,7,,,,,,,,,,,,,,,,,,
,,,,,,,,,,,html-keyboard-response,64,2.0.0,116910,664521e03117b782ed4fff45,4,24,null,,,,,,,,,<p style='font-size: 30px;'><strong>Okay</strong></p>,null,neutral_feedback,0,test,29,,,,,,,,,,,,,,,,,,,,,,,,
,,,,,,,,,,,html-button-response,65,2.0.0,117407,664521e03117b782ed4fff45,4,24,497,,,,,,,,,"<img src= ""rock_img/I_Diorite_12.jpg"" style=""width:8cm; height:4.88cm;""><p>What type of rock is this?</p>",1,class_response,0,test,30,Basalt,Diorite,12,FALSE,2,3,,,,,,,,,,,,,,,,,,
,,,,,,,,,,,html-keyboard-response,66,2.0.0,117909,664521e03117b782ed4fff45,4,24,null,,,,,,,,,<p style='font-size: 30px;'><strong>Okay</strong></p>,null,neutral_feedback,0,test,30,,,,,,,,,,,,,,,,,,,,,,,,
,,,,,,,,,,,html-button-response,67,2.0.0,118324,664521e03117b782ed4fff45,4,24,413,,,,,,,,,"<img src= ""rock_img/I_Pegmatite_10.jpg"" style=""width:8cm; height:4.16cm;""><p>What type of rock is this?</p>",5,class_response,0,test,31,Pegmatite,Pegmatite,10,TRUE,6,6,,,,,,,,,,,,,,,,,,
,,,,,,,,,,,html-keyboard-response,68,2.0.0,118825,664521e03117b782ed4fff45,4,24,null,,,,,,,,,<p style='font-size: 30px;'><strong>Okay</strong></p>,null,neutral_feedback,0,test,31,,,,,,,,,,,,,,,,,,,,,,,,
,,,,,,,,,,,html-button-response,69,2.0.0,119583,664521e03117b782ed4fff45,4,24,757,,,,,,,,,"<img src= ""rock_img/I_Diorite_16.jpg"" style=""width:8cm; height:6.74cm;""><p>What type of rock is this?</p>",1,class_response,0,test,32,Basalt,Diorite,16,FALSE,2,3,,,,,,,,,,,,,,,,,,
,,,,,,,,,,,html-keyboard-response,70,2.0.0,120084,664521e03117b782ed4fff45,4,24,null,,,,,,,,,<p style='font-size: 30px;'><strong>Okay</strong></p>,null,neutral_feedback,0,test,32,,,,,,,,,,,,,,,,,,,,,,,,
,,,,,,,,,,,html-button-response,71,2.0.0,120557,664521e03117b782ed4fff45,4,24,472,,,,,,,,,"<img src= ""rock_img/I_Gabbro_01.jpg"" style=""width:8cm; height:5.21cm;""><p>What type of rock is this?</p>",4,class_response,0,test,33,Obsidian,Gabbro,1,FALSE,5,4,,,,,,,,,,,,,,,,,,
,,,,,,,,,,,html-keyboard-response,72,2.0.0,121058,664521e03117b782ed4fff45,4,24,null,,,,,,,,,<p style='font-size: 30px;'><strong>Okay</strong></p>,null,neutral_feedback,0,test,33,,,,,,,,,,,,,,,,,,,,,,,,
,,,,,,,,,,,html-button-response,73,2.0.0,121896,664521e03117b782ed4fff45,4,24,837,,,,,,,,,"<img src= ""rock_img/I_Basalt_14.jpg"" style=""width:8cm; height:5.82cm;""><p>What type of rock is this?</p>",3,class_response,0,test,34,Gabbro,Basalt,14,FALSE,4,2,,,,,,,,,,,,,,,,,,
,,,,,,,,,,,html-keyboard-response,74,2.0.0,122398,664521e03117b782ed4fff45,4,24,null,,,,,,,,,<p style='font-size: 30px;'><strong>Okay</strong></p>,null,neutral_feedback,0,test,34,,,,,,,,,,,,,,,,,,,,,,,,
,,,,,,,,,,,html-button-response,75,2.0.0,123050,664521e03117b782ed4fff45,4,24,650,,,,,,,,,"<img src= ""rock_img/I_Peridotite_05.jpg"" style=""width:8cm; height:7.1499999999999995cm;""><p>What type of rock is this?</p>",7,class_response,0,test,35,Pumice,Peridotite,5,FALSE,8,7,,,,,,,,,,,,,,,,,,
,,,,,,,,,,,html-keyboard-response,76,2.0.0,123551,664521e03117b782ed4fff45,4,24,null,,,,,,,,,<p style='font-size: 30px;'><strong>Okay</strong></p>,null,neutral_feedback,0,test,35,,,,,,,,,,,,,,,,,,,,,,,,
,,,,,,,,,,,html-button-response,77,2.0.0,124527,664521e03117b782ed4fff45,4,24,975,,,,,,,,,"<img src= ""rock_img/I_Obsidian_11.jpg"" style=""width:8cm; height:6.05cm;""><p>What type of rock is this?</p>",0,class_response,0,test,36,Andesite,Obsidian,11,FALSE,1,5,,,,,,,,,,,,,,,,,,
,,,,,,,,,,,html-keyboard-response,78,2.0.0,125029,664521e03117b782ed4fff45,4,24,null,,,,,,,,,<p style='font-size: 30px;'><strong>Okay</strong></p>,null,neutral_feedback,0,test,36,,,,,,,,,,,,,,,,,,,,,,,,
,,,,,,,,,,,html-button-response,79,2.0.0,125607,664521e03117b782ed4fff45,4,24,578,,,,,,,,,"<img src= ""rock_img/I_Gabbro_13.jpg"" style=""width:8cm; height:5.08cm;""><p>What type of rock is this?</p>",1,class_response,0,test,37,Basalt,Gabbro,13,FALSE,2,4,,,,,,,,,,,,,,,,,,
,,,,,,,,,,,html-keyboard-response,80,2.0.0,126108,664521e03117b782ed4fff45,4,24,null,,,,,,,,,<p style='font-size: 30px;'><strong>Okay</strong></p>,null,neutral_feedback,0,test,37,,,,,,,,,,,,,,,,,,,,,,,,
,,,,,,,,,,,html-button-response,81,2.0.0,126727,664521e03117b782ed4fff45,4,24,618,,,,,,,,,"<img src= ""rock_img/I_Pumice_05.jpg"" style=""width:8cm; height:7.25cm;""><p>What type of rock is this?</p>",2,class_response,0,test,38,Diorite,Pumice,5,FALSE,3,8,,,,,,,,,,,,,,,,,,
,,,,,,,,,,,html-keyboard-response,82,2.0.0,127228,664521e03117b782ed4fff45,4,24,null,,,,,,,,,<p style='font-size: 30px;'><strong>Okay</strong></p>,null,neutral_feedback,0,test,38,,,,,,,,,,,,,,,,,,,,,,,,
,,,,,,,,,,,html-button-response,83,2.0.0,127913,664521e03117b782ed4fff45,4,24,684,,,,,,,,,"<img src= ""rock_img/I_Diorite_09.jpg"" style=""width:8cm; height:5.27cm;""><p>What type of rock is this?</p>",6,class_response,0,test,39,Peridotite,Diorite,9,FALSE,7,3,,,,,,,,,,,,,,,,,,
,,,,,,,,,,,html-keyboard-response,84,2.0.0,128415,664521e03117b782ed4fff45,4,24,null,,,,,,,,,<p style='font-size: 30px;'><strong>Okay</strong></p>,null,neutral_feedback,0,test,39,,,,,,,,,,,,,,,,,,,,,,,,
,,,,,,,,,,,html-button-response,85,2.0.0,128833,664521e03117b782ed4fff45,4,24,417,,,,,,,,,"<img src= ""rock_img/I_Pegmatite_15.jpg"" style=""width:8cm; height:6cm;""><p>What type of rock is this?</p>",5,class_response,0,test,40,Pegmatite,Pegmatite,15,TRUE,6,6,,,,,,,,,,,,,,,,,,
,,,,,,,,,,,html-keyboard-response,86,2.0.0,129334,664521e03117b782ed4fff45,4,24,null,,,,,,,,,<p style='font-size: 30px;'><strong>Okay</strong></p>,null,neutral_feedback,0,test,40,,,,,,,,,,,,,,,,,,,,,,,,
,,,,,,,,,,,html-button-response,87,2.0.0,129937,664521e03117b782ed4fff45,4,24,601,,,,,,,,,"<img src= ""rock_img/I_Pumice_13.jpg"" style=""width:8cm; height:8.200000000000001cm;""><p>What type of rock is this?</p>",0,class_response,0,test,41,Andesite,Pumice,13,FALSE,1,8,,,,,,,,,,,,,,,,,,
,,,,,,,,,,,html-keyboard-response,88,2.0.0,130439,664521e03117b782ed4fff45,4,24,null,,,,,,,,,<p style='font-size: 30px;'><strong>Okay</strong></p>,null,neutral_feedback,0,test,41,,,,,,,,,,,,,,,,,,,,,,,,
,,,,,,,,,,,html-button-response,89,2.0.0,131283,664521e03117b782ed4fff45,4,24,841,,,,,,,,,"<img src= ""rock_img/I_Gabbro_03.jpg"" style=""width:8cm; height:8.52cm;""><p>What type of rock is this?</p>",1,class_response,0,test,42,Basalt,Gabbro,3,FALSE,2,4,,,,,,,,,,,,,,,,,,
,,,,,,,,,,,html-keyboard-response,90,2.0.0,131784,664521e03117b782ed4fff45,4,24,null,,,,,,,,,<p style='font-size: 30px;'><strong>Okay</strong></p>,null,neutral_feedback,0,test,42,,,,,,,,,,,,,,,,,,,,,,,,
,,,,,,,,,,,html-button-response,91,2.0.0,132598,664521e03117b782ed4fff45,4,24,812,,,,,,,,,"<img src= ""rock_img/I_Peridotite_08.jpg"" style=""width:8cm; height:6.7cm;""><p>What type of rock is this?</p>",2,class_response,0,test,43,Diorite,Peridotite,8,FALSE,3,7,,,,,,,,,,,,,,,,,,
,,,,,,,,,,,html-keyboard-response,92,2.0.0,133100,664521e03117b782ed4fff45,4,24,null,,,,,,,,,<p style='font-size: 30px;'><strong>Okay</strong></p>,null,neutral_feedback,0,test,43,,,,,,,,,,,,,,,,,,,,,,,,
,,,,,,,,,,,html-button-response,93,2.0.0,133823,664521e03117b782ed4fff45,4,24,721,,,,,,,,,"<img src= ""rock_img/I_Diorite_08.jpg"" style=""width:8cm; height:6.37cm;""><p>What type of rock is this?</p>",3,class_response,0,test,44,Gabbro,Diorite,8,FALSE,4,3,,,,,,,,,,,,,,,,,,
,,,,,,,,,,,html-keyboard-response,94,2.0.0,134325,664521e03117b782ed4fff45,4,24,null,,,,,,,,,<p style='font-size: 30px;'><strong>Okay</strong></p>,null,neutral_feedback,0,test,44,,,,,,,,,,,,,,,,,,,,,,,,
,,,,,,,,,,,html-button-response,95,2.0.0,134921,664521e03117b782ed4fff45,4,24,593,,,,,,,,,"<img src= ""rock_img/I_Andesite_14.jpg"" style=""width:8cm; height:5.449999999999999cm;""><p>What type of rock is this?</p>",7,class_response,0,test,45,Pumice,Andesite,14,FALSE,8,1,,,,,,,,,,,,,,,,,,
,,,,,,,,,,,html-keyboard-response,96,2.0.0,135422,664521e03117b782ed4fff45,4,24,null,,,,,,,,,<p style='font-size: 30px;'><strong>Okay</strong></p>,null,neutral_feedback,0,test,45,,,,,,,,,,,,,,,,,,,,,,,,
,,,,,,,,,,,html-button-response,97,2.0.0,136138,664521e03117b782ed4fff45,4,24,715,,,,,,,,,"<img src= ""rock_img/I_Basalt_09.jpg"" style=""width:8cm; height:6.2cm;""><p>What type of rock is this?</p>",0,class_response,0,test,46,Andesite,Basalt,9,FALSE,1,2,,,,,,,,,,,,,,,,,,
,,,,,,,,,,,html-keyboard-response,98,2.0.0,136640,664521e03117b782ed4fff45,4,24,null,,,,,,,,,<p style='font-size: 30px;'><strong>Okay</strong></p>,null,neutral_feedback,0,test,46,,,,,,,,,,,,,,,,,,,,,,,,
,,,,,,,,,,,html-button-response,99,2.0.0,137072,664521e03117b782ed4fff45,4,24,431,,,,,,,,,"<img src= ""rock_img/I_Pumice_15.jpg"" style=""width:8cm; height:7.86cm;""><p>What type of rock is this?</p>",1,class_response,0,test,47,Basalt,Pumice,15,FALSE,2,8,,,,,,,,,,,,,,,,,,
,,,,,,,,,,,html-keyboard-response,100,2.0.0,137574,664521e03117b782ed4fff45,4,24,null,,,,,,,,,<p style='font-size: 30px;'><strong>Okay</strong></p>,null,neutral_feedback,0,test,47,,,,,,,,,,,,,,,,,,,,,,,,
,,,,,,,,,,,html-button-response,101,2.0.0,138249,664521e03117b782ed4fff45,4,24,673,,,,,,,,,"<img src= ""rock_img/I_Peridotite_16.jpg"" style=""width:8cm; height:6.989999999999999cm;""><p>What type of rock is this?</p>",6,class_response,0,test,48,Peridotite,Peridotite,16,TRUE,7,7,,,,,,,,,,,,,,,,,,
,,,,,,,,,,,html-keyboard-response,102,2.0.0,138751,664521e03117b782ed4fff45,4,24,null,,,,,,,,,<p style='font-size: 30px;'><strong>Okay</strong></p>,null,neutral_feedback,0,test,48,,,,,,,,,,,,,,,,,,,,,,,,
,,,,,,,,,,,instructions,103,2.0.0,174081,664521e03117b782ed4fff45,4,24,35307,,,,,,,,"[{""page_index"":0,""viewing_time"":33365},{""page_index"":1,""viewing_time"":1942}]",,,,,,,,,,,,,,,,,,,,,,,,,,,,,,
,,,,,,,,,,,html-button-response,104,2.0.0,177938,664521e03117b782ed4fff45,4,24,3855,,,,,,,,,,0,start_train,,,,,,,,,,,,,,,,,,,,,,,,,,,
,,,,,,,,,,,html-button-response,106,2.0.0,237336,664521e03117b782ed4fff45,4,24,59397,,,,,,,,,"<img src= ""rock_img/I_Basalt_11.jpg"" style=""width:8cm; height:5.359999999999999cm;""><p>What type of rock is this?</p>",1,class_response,1,train,1,Basalt,Basalt,11,TRUE,2,2,,,,,,,,,,,,,,,,,,
,,,,,,,,,,,html-button-response,107,2.0.0,241726,664521e03117b782ed4fff45,4,24,4389,,,,,,,,,"<img src= rock_img/I_Basalt_11.jpg style=""width:8cm; height:5.359999999999999cm;""><p style='font-size: 30px; color: green;'><strong>Correct!</strong></p><p style='font-size: 30px;'><strong>This rock is basalt</strong></p>",0,corr_feedback,1,train,1,,,,,,,,,,,,,,,,,,,,,,,,
,,,,,,,,,,,html-button-response,108,2.0.0,243295,664521e03117b782ed4fff45,4,24,1567,,,,,,,,,"<img src= ""rock_img/I_Basalt_05.jpg"" style=""width:8cm; height:8.18cm;""><p>What type of rock is this?</p>",2,class_response,1,train,2,Diorite,Basalt,5,FALSE,3,2,,,,,,,,,,,,,,,,,,
,,,,,,,,,,,html-button-response,109,2.0.0,246468,664521e03117b782ed4fff45,4,24,3172,,,,,,,,,"<img src= rock_img/I_Basalt_05.jpg style=""width:8cm; height:8.18cm;""><p style='font-size: 30px; color: red;'><strong>Incorrect!</strong></p><p style='font-size: 30px;'><strong>This rock is basalt</strong></p>",0,corr_feedback,1,train,2,,,,,,,,,,,,,,,,,,,,,,,,
,,,,,,,,,,,html-button-response,110,2.0.0,247882,664521e03117b782ed4fff45,4,24,1412,,,,,,,,,"<img src= ""rock_img/I_Andesite_03.jpg"" style=""width:8cm; height:5.73cm;""><p>What type of rock is this?</p>",0,class_response,1,train,3,Andesite,Andesite,3,TRUE,1,1,,,,,,,,,,,,,,,,,,
,,,,,,,,,,,html-button-response,111,2.0.0,251342,664521e03117b782ed4fff45,4,24,3459,,,,,,,,,"<img src= rock_img/I_Andesite_03.jpg style=""width:8cm; height:5.73cm;""><p style='font-size: 30px; color: green;'><strong>Correct!</strong></p><p style='font-size: 30px;'><strong>This rock is andesite</strong></p>",0,corr_feedback,1,train,3,,,,,,,,,,,,,,,,,,,,,,,,
,,,,,,,,,,,html-button-response,112,2.0.0,252918,664521e03117b782ed4fff45,4,24,1575,,,,,,,,,"<img src= ""rock_img/I_Peridotite_14.jpg"" style=""width:8cm; height:5.3cm;""><p>What type of rock is this?</p>",3,class_response,1,train,4,Gabbro,Peridotite,14,FALSE,4,7,,,,,,,,,,,,,,,,,,
,,,,,,,,,,,html-button-response,113,2.0.0,258320,664521e03117b782ed4fff45,4,24,5400,,,,,,,,,"<img src= rock_img/I_Peridotite_14.jpg style=""width:8cm; height:5.3cm;""><p style='font-size: 30px; color: red;'><strong>Incorrect!</strong></p><p style='font-size: 30px;'><strong>This rock is peridotite</strong></p>",0,corr_feedback,1,train,4,,,,,,,,,,,,,,,,,,,,,,,,
,,,,,,,,,,,html-button-response,114,2.0.0,260984,664521e03117b782ed4fff45,4,24,2663,,,,,,,,,"<img src= ""rock_img/I_Diorite_02.jpg"" style=""width:8cm; height:6.27cm;""><p>What type of rock is this?</p>",5,class_response,1,train,5,Pegmatite,Diorite,2,FALSE,6,3,,,,,,,,,,,,,,,,,,
,,,,,,,,,,,html-button-response,115,2.0.0,263208,664521e03117b782ed4fff45,4,24,2222,,,,,,,,,"<img src= rock_img/I_Diorite_02.jpg style=""width:8cm; height:6.27cm;""><p style='font-size: 30px; color: red;'><strong>Incorrect!</strong></p><p style='font-size: 30px;'><strong>This rock is diorite</strong></p>",0,corr_feedback,1,train,5,,,,,,,,,,,,,,,,,,,,,,,,
,,,,,,,,,,,html-button-response,116,2.0.0,264803,664521e03117b782ed4fff45,4,24,1594,,,,,,,,,"<img src= ""rock_img/I_Andesite_01.jpg"" style=""width:8cm; height:5.87cm;""><p>What type of rock is this?</p>",7,class_response,1,train,6,Pumice,Andesite,1,FALSE,8,1,,,,,,,,,,,,,,,,,,
,,,,,,,,,,,html-button-response,117,2.0.0,273723,664521e03117b782ed4fff45,4,24,8918,,,,,,,,,"<img src= rock_img/I_Andesite_01.jpg style=""width:8cm; height:5.87cm;""><p style='font-size: 30px; color: red;'><strong>Incorrect!</strong></p><p style='font-size: 30px;'><strong>This rock is andesite</strong></p>",0,corr_feedback,1,train,6,,,,,,,,,,,,,,,,,,,,,,,,
,,,,,,,,,,,html-button-response,118,2.0.0,275973,664521e03117b782ed4fff45,4,24,2248,,,,,,,,,"<img src= ""rock_img/I_Gabbro_05.jpg"" style=""width:8cm; height:6cm;""><p>What type of rock is this?</p>",1,class_response,1,train,7,Basalt,Gabbro,5,FALSE,2,4,,,,,,,,,,,,,,,,,,
,,,,,,,,,,,html-button-response,119,2.0.0,280493,664521e03117b782ed4fff45,4,24,4519,,,,,,,,,"<img src= rock_img/I_Gabbro_05.jpg style=""width:8cm; height:6cm;""><p style='font-size: 30px; color: red;'><strong>Incorrect!</strong></p><p style='font-size: 30px;'><strong>This rock is gabbro</strong></p>",0,corr_feedback,1,train,7,,,,,,,,,,,,,,,,,,,,,,,,
,,,,,,,,,,,html-button-response,120,2.0.0,286932,664521e03117b782ed4fff45,4,24,6438,,,,,,,,,"<img src= ""rock_img/I_Obsidian_12.jpg"" style=""width:8cm; height:6.53cm;""><p>What type of rock is this?</p>",7,class_response,1,train,8,Pumice,Obsidian,12,FALSE,8,5,,,,,,,,,,,,,,,,,,
,,,,,,,,,,,html-button-response,121,2.0.0,289744,664521e03117b782ed4fff45,4,24,2811,,,,,,,,,"<img src= rock_img/I_Obsidian_12.jpg style=""width:8cm; height:6.53cm;""><p style='font-size: 30px; color: red;'><strong>Incorrect!</strong></p><p style='font-size: 30px;'><strong>This rock is obsidian</strong></p>",0,corr_feedback,1,train,8,,,,,,,,,,,,,,,,,,,,,,,,
,,,,,,,,,,,html-button-response,122,2.0.0,292083,664521e03117b782ed4fff45,4,24,2337,,,,,,,,,"<img src= ""rock_img/I_Pumice_16.jpg"" style=""width:8cm; height:6.79cm;""><p>What type of rock is this?</p>",5,class_response,1,train,9,Pegmatite,Pumice,16,FALSE,6,8,,,,,,,,,,,,,,,,,,
,,,,,,,,,,,html-button-response,123,2.0.0,304061,664521e03117b782ed4fff45,4,24,11977,,,,,,,,,"<img src= rock_img/I_Pumice_16.jpg style=""width:8cm; height:6.79cm;""><p style='font-size: 30px; color: red;'><strong>Incorrect!</strong></p><p style='font-size: 30px;'><strong>This rock is pumice</strong></p>",0,corr_feedback,1,train,9,,,,,,,,,,,,,,,,,,,,,,,,
,,,,,,,,,,,html-button-response,124,2.0.0,315726,664521e03117b782ed4fff45,4,24,11663,,,,,,,,,"<img src= ""rock_img/I_Diorite_06.jpg"" style=""width:8cm; height:6.03cm;""><p>What type of rock is this?</p>",2,class_response,1,train,10,Diorite,Diorite,6,TRUE,3,3,,,,,,,,,,,,,,,,,,
,,,,,,,,,,,html-button-response,125,2.0.0,319320,664521e03117b782ed4fff45,4,24,3593,,,,,,,,,"<img src= rock_img/I_Diorite_06.jpg style=""width:8cm; height:6.03cm;""><p style='font-size: 30px; color: green;'><strong>Correct!</strong></p><p style='font-size: 30px;'><strong>This rock is diorite</strong></p>",0,corr_feedback,1,train,10,,,,,,,,,,,,,,,,,,,,,,,,
,,,,,,,,,,,html-button-response,126,2.0.0,323160,664521e03117b782ed4fff45,4,24,3839,,,,,,,,,"<img src= ""rock_img/I_Pegmatite_11.jpg"" style=""width:8cm; height:8.14cm;""><p>What type of rock is this?</p>",3,class_response,1,train,11,Gabbro,Pegmatite,11,FALSE,4,6,,,,,,,,,,,,,,,,,,
,,,,,,,,,,,html-button-response,127,2.0.0,335093,664521e03117b782ed4fff45,4,24,11932,,,,,,,,,"<img src= rock_img/I_Pegmatite_11.jpg style=""width:8cm; height:8.14cm;""><p style='font-size: 30px; color: red;'><strong>Incorrect!</strong></p><p style='font-size: 30px;'><strong>This rock is pegmatite</strong></p>",0,corr_feedback,1,train,11,,,,,,,,,,,,,,,,,,,,,,,,
,,,,,,,,,,,html-button-response,128,2.0.0,336571,664521e03117b782ed4fff45,4,24,1476,,,,,,,,,"<img src= ""rock_img/I_Obsidian_10.jpg"" style=""width:8cm; height:6.260000000000001cm;""><p>What type of rock is this?</p>",4,class_response,1,train,12,Obsidian,Obsidian,10,TRUE,5,5,,,,,,,,,,,,,,,,,,
,,,,,,,,,,,html-button-response,129,2.0.0,338755,664521e03117b782ed4fff45,4,24,2182,,,,,,,,,"<img src= rock_img/I_Obsidian_10.jpg style=""width:8cm; height:6.260000000000001cm;""><p style='font-size: 30px; color: green;'><strong>Correct!</strong></p><p style='font-size: 30px;'><strong>This rock is obsidian</strong></p>",0,corr_feedback,1,train,12,,,,,,,,,,,,,,,,,,,,,,,,
,,,,,,,,,,,instructions,130,2.0.0,370283,664521e03117b782ed4fff45,4,24,31527,,,,,,,,"[{""page_index"":0,""viewing_time"":8498},{""page_index"":1,""viewing_time"":8222},{""page_index"":2,""viewing_time"":10072},{""page_index"":3,""viewing_time"":4735}]",,,,,,,,,,,,,,,,,,,,,,,,,,,,,,
,,,,,,,,,,,html-button-response,131,2.0.0,371257,664521e03117b782ed4fff45,4,24,973,,,,,,,,,,0,start_train,,,,,,,,,,,,,,,,,,,,,,,,,,,
,,,,,,,,,,,html-button-response,132,2.0.0,383907,664521e03117b782ed4fff45,4,24,,,,,,,,,,,,cat_selection,1,train,1,,,,,,,12049,599.5,3,1,Diorite,Andesite,,,,,,,,,,,,
,,,,,,,,,,,paired-cat-display,133,1.0.0,420265,664521e03117b782ed4fff45,4,24,,,,,,,,,,,,paired_cat_display,1,train,1,,,,,,,,,,,,,This has pretty contrasting colors and seems brighter,This looks more dull and does not have as much contrast,6088.4,30265.9,,,,,,,,
,,,,,,,,,,,html-button-response,134,2.0.0,433208,664521e03117b782ed4fff45,4,24,,,,,,,,,,,,cat_selection,1,train,2,,,,,,,12154.6,787.7,8,4,Pumice,Gabbro,,,,,,,,,,,,
,,,,,,,,,,,paired-cat-display,135,1.0.0,472912,664521e03117b782ed4fff45,4,24,,,,,,,,,,,,paired_cat_display,1,train,2,,,,,,,,,,,,,,,5866.2,33833.9,Pumice has more holes in it and seems to be more orangey in color,Seems to be darker in color and does not have texture,,,,,,
,,,,,,,,,,,html-button-response,136,2.0.0,522300,664521e03117b782ed4fff45,4,24,,,,,,,,,,,,cat_selection,1,train,3,,,,,,,48916.2,470.7,2,1,Basalt,Andesite,,,,,,,,,,,,
,,,,,,,,,,,paired-cat-display,137,1.0.0,556341,664521e03117b782ed4fff45,4,24,,,,,,,,,,,,paired_cat_display,1,train,3,,,,,,,,,,,,,,Has specks of color and has more texture,6073.5,27965,,,Is more dull in color and does not have as much texture,,,,,
,,,,,,,,,,,instructions,138,2.0.0,689911,664521e03117b782ed4fff45,4,24,133569,,,,,,,,"[{""page_index"":0,""viewing_time"":122566},{""page_index"":1,""viewing_time"":11003}]",,,,,,,,,,,,,,,,,,,,,,,,,,,,,,
,,,,,,,,,,,html-button-response,139,2.0.0,691608,664521e03117b782ed4fff45,4,24,1696,,,,,,,,,,0,start_test,,,,,,,,,,,,,,,,,,,,,,,,,,,
,,,,,,,,,,,html-button-response,140,2.0.0,705895,664521e03117b782ed4fff45,4,24,14285,,,,,,,,,"<img src= ""rock_img/I_Andesite_04.jpg"" style=""width:8cm; height:5.96cm;""><p>What type of rock is this?</p>",0,class_response,1,test,1,Andesite,Andesite,4,TRUE,1,1,,,,,,,,,,,,,,,,,,
,,,,,,,,,,,html-keyboard-response,141,2.0.0,706396,664521e03117b782ed4fff45,4,24,null,,,,,,,,,<p style='font-size: 30px;'><strong>Okay</strong></p>,null,neutral_feedback,1,test,1,,,,,,,,,,,,,,,,,,,,,,,,
,,,,,,,,,,,html-button-response,142,2.0.0,715943,664521e03117b782ed4fff45,4,24,9544,,,,,,,,,"<img src= ""rock_img/I_Pumice_08.jpg"" style=""width:8cm; height:6.67cm;""><p>What type of rock is this?</p>",7,class_response,1,test,2,Pumice,Pumice,8,TRUE,8,8,,,,,,,,,,,,,,,,,,
,,,,,,,,,,,html-keyboard-response,143,2.0.0,716444,664521e03117b782ed4fff45,4,24,null,,,,,,,,,<p style='font-size: 30px;'><strong>Okay</strong></p>,null,neutral_feedback,1,test,2,,,,,,,,,,,,,,,,,,,,,,,,
,,,,,,,,,,,html-button-response,144,2.0.0,725136,664521e03117b782ed4fff45,4,24,8689,,,,,,,,,"<img src= ""rock_img/I_Basalt_04.jpg"" style=""width:8cm; height:7.53cm;""><p>What type of rock is this?</p>",1,class_response,1,test,3,Basalt,Basalt,4,TRUE,2,2,,,,,,,,,,,,,,,,,,
,,,,,,,,,,,html-keyboard-response,145,2.0.0,725638,664521e03117b782ed4fff45,4,24,null,,,,,,,,,<p style='font-size: 30px;'><strong>Okay</strong></p>,null,neutral_feedback,1,test,3,,,,,,,,,,,,,,,,,,,,,,,,
,,,,,,,,,,,html-button-response,146,2.0.0,749857,664521e03117b782ed4fff45,4,24,24217,,,,,,,,,"<img src= ""rock_img/I_Gabbro_14.jpg"" style=""width:8cm; height:8.48cm;""><p>What type of rock is this?</p>",6,class_response,1,test,4,Peridotite,Gabbro,14,FALSE,7,4,,,,,,,,,,,,,,,,,,
,,,,,,,,,,,html-keyboard-response,147,2.0.0,750359,664521e03117b782ed4fff45,4,24,null,,,,,,,,,<p style='font-size: 30px;'><strong>Okay</strong></p>,null,neutral_feedback,1,test,4,,,,,,,,,,,,,,,,,,,,,,,,
,,,,,,,,,,,html-button-response,148,2.0.0,757108,664521e03117b782ed4fff45,4,24,6747,,,,,,,,,"<img src= ""rock_img/I_Basalt_01.jpg"" style=""width:8cm; height:7.880000000000001cm;""><p>What type of rock is this?</p>",1,class_response,1,test,5,Basalt,Basalt,1,TRUE,2,2,,,,,,,,,,,,,,,,,,
,,,,,,,,,,,html-keyboard-response,149,2.0.0,757610,664521e03117b782ed4fff45,4,24,null,,,,,,,,,<p style='font-size: 30px;'><strong>Okay</strong></p>,null,neutral_feedback,1,test,5,,,,,,,,,,,,,,,,,,,,,,,,
,,,,,,,,,,,html-button-response,150,2.0.0,762171,664521e03117b782ed4fff45,4,24,4558,,,,,,,,,"<img src= ""rock_img/I_Diorite_12.jpg"" style=""width:8cm; height:4.88cm;""><p>What type of rock is this?</p>",2,class_response,1,test,6,Diorite,Diorite,12,TRUE,3,3,,,,,,,,,,,,,,,,,,
,,,,,,,,,,,html-keyboard-response,151,2.0.0,762673,664521e03117b782ed4fff45,4,24,null,,,,,,,,,<p style='font-size: 30px;'><strong>Okay</strong></p>,null,neutral_feedback,1,test,6,,,,,,,,,,,,,,,,,,,,,,,,
,,,,,,,,,,,html-button-response,152,2.0.0,777165,664521e03117b782ed4fff45,4,24,14490,,,,,,,,,"<img src= ""rock_img/I_Andesite_11.jpg"" style=""width:8cm; height:4.92cm;""><p>What type of rock is this?</p>",3,class_response,1,test,7,Gabbro,Andesite,11,FALSE,4,1,,,,,,,,,,,,,,,,,,
,,,,,,,,,,,html-keyboard-response,153,2.0.0,777666,664521e03117b782ed4fff45,4,24,null,,,,,,,,,<p style='font-size: 30px;'><strong>Okay</strong></p>,null,neutral_feedback,1,test,7,,,,,,,,,,,,,,,,,,,,,,,,
,,,,,,,,,,,html-button-response,154,2.0.0,783401,664521e03117b782ed4fff45,4,24,5732,,,,,,,,,"<img src= ""rock_img/I_Diorite_13.jpg"" style=""width:8cm; height:6.29cm;""><p>What type of rock is this?</p>",2,class_response,1,test,8,Diorite,Diorite,13,TRUE,3,3,,,,,,,,,,,,,,,,,,
,,,,,,,,,,,html-keyboard-response,155,2.0.0,783902,664521e03117b782ed4fff45,4,24,null,,,,,,,,,<p style='font-size: 30px;'><strong>Okay</strong></p>,null,neutral_feedback,1,test,8,,,,,,,,,,,,,,,,,,,,,,,,
,,,,,,,,,,,html-button-response,156,2.0.0,785075,664521e03117b782ed4fff45,4,24,1170,,,,,,,,,"<img src= ""rock_img/I_Andesite_07.jpg"" style=""width:8cm; height:5.93cm;""><p>What type of rock is this?</p>",2,class_response,1,test,9,Diorite,Andesite,7,FALSE,3,1,,,,,,,,,,,,,,,,,,
,,,,,,,,,,,html-keyboard-response,157,2.0.0,785576,664521e03117b782ed4fff45,4,24,null,,,,,,,,,<p style='font-size: 30px;'><strong>Okay</strong></p>,null,neutral_feedback,1,test,9,,,,,,,,,,,,,,,,,,,,,,,,
,,,,,,,,,,,html-button-response,158,2.0.0,790817,664521e03117b782ed4fff45,4,24,5239,,,,,,,,,"<img src= ""rock_img/I_Pegmatite_05.jpg"" style=""width:8cm; height:7.300000000000001cm;""><p>What type of rock is this?</p>",5,class_response,1,test,10,Pegmatite,Pegmatite,5,TRUE,6,6,,,,,,,,,,,,,,,,,,
,,,,,,,,,,,html-keyboard-response,159,2.0.0,791319,664521e03117b782ed4fff45,4,24,null,,,,,,,,,<p style='font-size: 30px;'><strong>Okay</strong></p>,null,neutral_feedback,1,test,10,,,,,,,,,,,,,,,,,,,,,,,,
,,,,,,,,,,,html-button-response,160,2.0.0,798225,664521e03117b782ed4fff45,4,24,6903,,,,,,,,,"<img src= ""rock_img/I_Pumice_15.jpg"" style=""width:8cm; height:7.86cm;""><p>What type of rock is this?</p>",7,class_response,1,test,11,Pumice,Pumice,15,TRUE,8,8,,,,,,,,,,,,,,,,,,
,,,,,,,,,,,html-keyboard-response,161,2.0.0,798727,664521e03117b782ed4fff45,4,24,null,,,,,,,,,<p style='font-size: 30px;'><strong>Okay</strong></p>,null,neutral_feedback,1,test,11,,,,,,,,,,,,,,,,,,,,,,,,
,,,,,,,,,,,html-button-response,162,2.0.0,800516,664521e03117b782ed4fff45,4,24,1786,,,,,,,,,"<img src= ""rock_img/I_Diorite_08.jpg"" style=""width:8cm; height:6.37cm;""><p>What type of rock is this?</p>",2,class_response,1,test,12,Diorite,Diorite,8,TRUE,3,3,,,,,,,,,,,,,,,,,,
,,,,,,,,,,,html-keyboard-response,163,2.0.0,801018,664521e03117b782ed4fff45,4,24,null,,,,,,,,,<p style='font-size: 30px;'><strong>Okay</strong></p>,null,neutral_feedback,1,test,12,,,,,,,,,,,,,,,,,,,,,,,,
,,,,,,,,,,,html-button-response,164,2.0.0,802658,664521e03117b782ed4fff45,4,24,1638,,,,,,,,,"<img src= ""rock_img/I_Basalt_09.jpg"" style=""width:8cm; height:6.2cm;""><p>What type of rock is this?</p>",1,class_response,1,test,13,Basalt,Basalt,9,TRUE,2,2,,,,,,,,,,,,,,,,,,
,,,,,,,,,,,html-keyboard-response,165,2.0.0,803159,664521e03117b782ed4fff45,4,24,null,,,,,,,,,<p style='font-size: 30px;'><strong>Okay</strong></p>,null,neutral_feedback,1,test,13,,,,,,,,,,,,,,,,,,,,,,,,
,,,,,,,,,,,html-button-response,166,2.0.0,824254,664521e03117b782ed4fff45,4,24,21092,,,,,,,,,"<img src= ""rock_img/I_Gabbro_10.jpg"" style=""width:8cm; height:5.680000000000001cm;""><p>What type of rock is this?</p>",3,class_response,1,test,14,Gabbro,Gabbro,10,TRUE,4,4,,,,,,,,,,,,,,,,,,
,,,,,,,,,,,html-keyboard-response,167,2.0.0,824755,664521e03117b782ed4fff45,4,24,null,,,,,,,,,<p style='font-size: 30px;'><strong>Okay</strong></p>,null,neutral_feedback,1,test,14,,,,,,,,,,,,,,,,,,,,,,,,
,,,,,,,,,,,html-button-response,168,2.0.0,826193,664521e03117b782ed4fff45,4,24,1436,,,,,,,,,"<img src= ""rock_img/I_Obsidian_11.jpg"" style=""width:8cm; height:6.05cm;""><p>What type of rock is this?</p>",4,class_response,1,test,15,Obsidian,Obsidian,11,TRUE,5,5,,,,,,,,,,,,,,,,,,
,,,,,,,,,,,html-keyboard-response,169,2.0.0,826695,664521e03117b782ed4fff45,4,24,null,,,,,,,,,<p style='font-size: 30px;'><strong>Okay</strong></p>,null,neutral_feedback,1,test,15,,,,,,,,,,,,,,,,,,,,,,,,
,,,,,,,,,,,html-button-response,170,2.0.0,833662,664521e03117b782ed4fff45,4,24,6966,,,,,,,,,"<img src= ""rock_img/I_Pumice_09.jpg"" style=""width:8cm; height:6.44cm;""><p>What type of rock is this?</p>",7,class_response,1,test,16,Pumice,Pumice,9,TRUE,8,8,,,,,,,,,,,,,,,,,,
,,,,,,,,,,,html-keyboard-response,171,2.0.0,834164,664521e03117b782ed4fff45,4,24,null,,,,,,,,,<p style='font-size: 30px;'><strong>Okay</strong></p>,null,neutral_feedback,1,test,16,,,,,,,,,,,,,,,,,,,,,,,,
,,,,,,,,,,,html-button-response,172,2.0.0,837137,664521e03117b782ed4fff45,4,24,2970,,,,,,,,,"<img src= ""rock_img/I_Gabbro_01.jpg"" style=""width:8cm; height:5.21cm;""><p>What type of rock is this?</p>",0,class_response,1,test,17,Andesite,Gabbro,1,FALSE,1,4,,,,,,,,,,,,,,,,,,
,,,,,,,,,,,html-keyboard-response,173,2.0.0,837638,664521e03117b782ed4fff45,4,24,null,,,,,,,,,<p style='font-size: 30px;'><strong>Okay</strong></p>,null,neutral_feedback,1,test,17,,,,,,,,,,,,,,,,,,,,,,,,
,,,,,,,,,,,html-button-response,174,2.0.0,839356,664521e03117b782ed4fff45,4,24,1715,,,,,,,,,"<img src= ""rock_img/I_Diorite_10.jpg"" style=""width:8cm; height:5.949999999999999cm;""><p>What type of rock is this?</p>",0,class_response,1,test,18,Andesite,Diorite,10,FALSE,1,3,,,,,,,,,,,,,,,,,,
,,,,,,,,,,,html-keyboard-response,175,2.0.0,839857,664521e03117b782ed4fff45,4,24,null,,,,,,,,,<p style='font-size: 30px;'><strong>Okay</strong></p>,null,neutral_feedback,1,test,18,,,,,,,,,,,,,,,,,,,,,,,,
,,,,,,,,,,,html-button-response,176,2.0.0,841303,664521e03117b782ed4fff45,4,24,1443,,,,,,,,,"<img src= ""rock_img/I_Obsidian_16.jpg"" style=""width:8cm; height:9.3cm;""><p>What type of rock is this?</p>",4,class_response,1,test,19,Obsidian,Obsidian,16,TRUE,5,5,,,,,,,,,,,,,,,,,,
,,,,,,,,,,,html-keyboard-response,177,2.0.0,841804,664521e03117b782ed4fff45,4,24,null,,,,,,,,,<p style='font-size: 30px;'><strong>Okay</strong></p>,null,neutral_feedback,1,test,19,,,,,,,,,,,,,,,,,,,,,,,,
,,,,,,,,,,,html-button-response,178,2.0.0,866941,664521e03117b782ed4fff45,4,24,25134,,,,,,,,,"<img src= ""rock_img/I_Peridotite_08.jpg"" style=""width:8cm; height:6.7cm;""><p>What type of rock is this?</p>",3,class_response,1,test,20,Gabbro,Peridotite,8,FALSE,4,7,,,,,,,,,,,,,,,,,,
,,,,,,,,,,,html-keyboard-response,179,2.0.0,867442,664521e03117b782ed4fff45,4,24,null,,,,,,,,,<p style='font-size: 30px;'><strong>Okay</strong></p>,null,neutral_feedback,1,test,20,,,,,,,,,,,,,,,,,,,,,,,,
,,,,,,,,,,,html-button-response,180,2.0.0,869442,664521e03117b782ed4fff45,4,24,1997,,,,,,,,,"<img src= ""rock_img/I_Basalt_10.jpg"" style=""width:8cm; height:5.85cm;""><p>What type of rock is this?</p>",4,class_response,1,test,21,Obsidian,Basalt,10,FALSE,5,2,,,,,,,,,,,,,,,,,,
,,,,,,,,,,,html-keyboard-response,181,2.0.0,869943,664521e03117b782ed4fff45,4,24,null,,,,,,,,,<p style='font-size: 30px;'><strong>Okay</strong></p>,null,neutral_feedback,1,test,21,,,,,,,,,,,,,,,,,,,,,,,,
,,,,,,,,,,,html-button-response,182,2.0.0,872574,664521e03117b782ed4fff45,4,24,2629,,,,,,,,,"<img src= ""rock_img/I_Pumice_05.jpg"" style=""width:8cm; height:7.25cm;""><p>What type of rock is this?</p>",7,class_response,1,test,22,Pumice,Pumice,5,TRUE,8,8,,,,,,,,,,,,,,,,,,
,,,,,,,,,,,html-keyboard-response,183,2.0.0,873076,664521e03117b782ed4fff45,4,24,null,,,,,,,,,<p style='font-size: 30px;'><strong>Okay</strong></p>,null,neutral_feedback,1,test,22,,,,,,,,,,,,,,,,,,,,,,,,
,,,,,,,,,,,html-button-response,184,2.0.0,883336,664521e03117b782ed4fff45,4,24,10258,,,,,,,,,"<img src= ""rock_img/I_Gabbro_03.jpg"" style=""width:8cm; height:8.52cm;""><p>What type of rock is this?</p>",0,class_response,1,test,23,Andesite,Gabbro,3,FALSE,1,4,,,,,,,,,,,,,,,,,,
,,,,,,,,,,,html-keyboard-response,185,2.0.0,883838,664521e03117b782ed4fff45,4,24,null,,,,,,,,,<p style='font-size: 30px;'><strong>Okay</strong></p>,null,neutral_feedback,1,test,23,,,,,,,,,,,,,,,,,,,,,,,,
,,,,,,,,,,,html-button-response,186,2.0.0,886379,664521e03117b782ed4fff45,4,24,2538,,,,,,,,,"<img src= ""rock_img/I_Basalt_06.jpg"" style=""width:8cm; height:7.06cm;""><p>What type of rock is this?</p>",1,class_response,1,test,24,Basalt,Basalt,6,TRUE,2,2,,,,,,,,,,,,,,,,,,
,,,,,,,,,,,html-keyboard-response,187,2.0.0,886881,664521e03117b782ed4fff45,4,24,null,,,,,,,,,<p style='font-size: 30px;'><strong>Okay</strong></p>,null,neutral_feedback,1,test,24,,,,,,,,,,,,,,,,,,,,,,,,
,,,,,,,,,,,html-button-response,188,2.0.0,888223,664521e03117b782ed4fff45,4,24,1339,,,,,,,,,"<img src= ""rock_img/I_Diorite_16.jpg"" style=""width:8cm; height:6.74cm;""><p>What type of rock is this?</p>",2,class_response,1,test,25,Diorite,Diorite,16,TRUE,3,3,,,,,,,,,,,,,,,,,,
,,,,,,,,,,,html-keyboard-response,189,2.0.0,888725,664521e03117b782ed4fff45,4,24,null,,,,,,,,,<p style='font-size: 30px;'><strong>Okay</strong></p>,null,neutral_feedback,1,test,25,,,,,,,,,,,,,,,,,,,,,,,,
,,,,,,,,,,,html-button-response,190,2.0.0,894775,664521e03117b782ed4fff45,4,24,6048,,,,,,,,,"<img src= ""rock_img/I_Peridotite_12.jpg"" style=""width:8cm; height:4.54cm;""><p>What type of rock is this?</p>",6,class_response,1,test,26,Peridotite,Peridotite,12,TRUE,7,7,,,,,,,,,,,,,,,,,,
,,,,,,,,,,,html-keyboard-response,191,2.0.0,895277,664521e03117b782ed4fff45,4,24,null,,,,,,,,,<p style='font-size: 30px;'><strong>Okay</strong></p>,null,neutral_feedback,1,test,26,,,,,,,,,,,,,,,,,,,,,,,,
,,,,,,,,,,,html-button-response,192,2.0.0,897536,664521e03117b782ed4fff45,4,24,2256,,,,,,,,,"<img src= ""rock_img/I_Obsidian_07.jpg"" style=""width:8cm; height:4.76cm;""><p>What type of rock is this?</p>",4,class_response,1,test,27,Obsidian,Obsidian,7,TRUE,5,5,,,,,,,,,,,,,,,,,,
,,,,,,,,,,,html-keyboard-response,193,2.0.0,898038,664521e03117b782ed4fff45,4,24,null,,,,,,,,,<p style='font-size: 30px;'><strong>Okay</strong></p>,null,neutral_feedback,1,test,27,,,,,,,,,,,,,,,,,,,,,,,,
,,,,,,,,,,,html-button-response,194,2.0.0,899621,664521e03117b782ed4fff45,4,24,1580,,,,,,,,,"<img src= ""rock_img/I_Pumice_02.jpg"" style=""width:8cm; height:7.3999999999999995cm;""><p>What type of rock is this?</p>",7,class_response,1,test,28,Pumice,Pumice,2,TRUE,8,8,,,,,,,,,,,,,,,,,,
,,,,,,,,,,,html-keyboard-response,195,2.0.0,900122,664521e03117b782ed4fff45,4,24,null,,,,,,,,,<p style='font-size: 30px;'><strong>Okay</strong></p>,null,neutral_feedback,1,test,28,,,,,,,,,,,,,,,,,,,,,,,,
,,,,,,,,,,,html-button-response,196,2.0.0,901488,664521e03117b782ed4fff45,4,24,1363,,,,,,,,,"<img src= ""rock_img/I_Pumice_13.jpg"" style=""width:8cm; height:8.200000000000001cm;""><p>What type of rock is this?</p>",7,class_response,1,test,29,Pumice,Pumice,13,TRUE,8,8,,,,,,,,,,,,,,,,,,
,,,,,,,,,,,html-keyboard-response,197,2.0.0,901989,664521e03117b782ed4fff45,4,24,null,,,,,,,,,<p style='font-size: 30px;'><strong>Okay</strong></p>,null,neutral_feedback,1,test,29,,,,,,,,,,,,,,,,,,,,,,,,
,,,,,,,,,,,html-button-response,198,2.0.0,903136,664521e03117b782ed4fff45,4,24,1144,,,,,,,,,"<img src= ""rock_img/I_Obsidian_08.jpg"" style=""width:8cm; height:7.39cm;""><p>What type of rock is this?</p>",4,class_response,1,test,30,Obsidian,Obsidian,8,TRUE,5,5,,,,,,,,,,,,,,,,,,
,,,,,,,,,,,html-keyboard-response,199,2.0.0,903638,664521e03117b782ed4fff45,4,24,null,,,,,,,,,<p style='font-size: 30px;'><strong>Okay</strong></p>,null,neutral_feedback,1,test,30,,,,,,,,,,,,,,,,,,,,,,,,
,,,,,,,,,,,html-button-response,200,2.0.0,905890,664521e03117b782ed4fff45,4,24,2249,,,,,,,,,"<img src= ""rock_img/I_Pegmatite_15.jpg"" style=""width:8cm; height:6cm;""><p>What type of rock is this?</p>",6,class_response,1,test,31,Peridotite,Pegmatite,15,FALSE,7,6,,,,,,,,,,,,,,,,,,
,,,,,,,,,,,html-keyboard-response,201,2.0.0,906391,664521e03117b782ed4fff45,4,24,null,,,,,,,,,<p style='font-size: 30px;'><strong>Okay</strong></p>,null,neutral_feedback,1,test,31,,,,,,,,,,,,,,,,,,,,,,,,
,,,,,,,,,,,html-button-response,202,2.0.0,926932,664521e03117b782ed4fff45,4,24,20538,,,,,,,,,"<img src= ""rock_img/I_Peridotite_07.jpg"" style=""width:8cm; height:4.83cm;""><p>What type of rock is this?</p>",3,class_response,1,test,32,Gabbro,Peridotite,7,FALSE,4,7,,,,,,,,,,,,,,,,,,
,,,,,,,,,,,html-keyboard-response,203,2.0.0,927434,664521e03117b782ed4fff45,4,24,null,,,,,,,,,<p style='font-size: 30px;'><strong>Okay</strong></p>,null,neutral_feedback,1,test,32,,,,,,,,,,,,,,,,,,,,,,,,
,,,,,,,,,,,html-button-response,204,2.0.0,939803,664521e03117b782ed4fff45,4,24,12367,,,,,,,,,"<img src= ""rock_img/I_Andesite_14.jpg"" style=""width:8cm; height:5.449999999999999cm;""><p>What type of rock is this?</p>",0,class_response,1,test,33,Andesite,Andesite,14,TRUE,1,1,,,,,,,,,,,,,,,,,,
,,,,,,,,,,,html-keyboard-response,205,2.0.0,940305,664521e03117b782ed4fff45,4,24,null,,,,,,,,,<p style='font-size: 30px;'><strong>Okay</strong></p>,null,neutral_feedback,1,test,33,,,,,,,,,,,,,,,,,,,,,,,,
,,,,,,,,,,,html-button-response,206,2.0.0,942289,664521e03117b782ed4fff45,4,24,1981,,,,,,,,,"<img src= ""rock_img/I_Pegmatite_13.jpg"" style=""width:8cm; height:4.95cm;""><p>What type of rock is this?</p>",6,class_response,1,test,34,Peridotite,Pegmatite,13,FALSE,7,6,,,,,,,,,,,,,,,,,,
,,,,,,,,,,,html-keyboard-response,207,2.0.0,942791,664521e03117b782ed4fff45,4,24,null,,,,,,,,,<p style='font-size: 30px;'><strong>Okay</strong></p>,null,neutral_feedback,1,test,34,,,,,,,,,,,,,,,,,,,,,,,,
,,,,,,,,,,,html-button-response,208,2.0.0,944620,664521e03117b782ed4fff45,4,24,1827,,,,,,,,,"<img src= ""rock_img/I_Diorite_09.jpg"" style=""width:8cm; height:5.27cm;""><p>What type of rock is this?</p>",2,class_response,1,test,35,Diorite,Diorite,9,TRUE,3,3,,,,,,,,,,,,,,,,,,
,,,,,,,,,,,html-keyboard-response,209,2.0.0,945121,664521e03117b782ed4fff45,4,24,null,,,,,,,,,<p style='font-size: 30px;'><strong>Okay</strong></p>,null,neutral_feedback,1,test,35,,,,,,,,,,,,,,,,,,,,,,,,
,,,,,,,,,,,html-button-response,210,2.0.0,964901,664521e03117b782ed4fff45,4,24,19778,,,,,,,,,"<img src= ""rock_img/I_Andesite_02.jpg"" style=""width:8cm; height:8.5cm;""><p>What type of rock is this?</p>",3,class_response,1,test,36,Gabbro,Andesite,2,FALSE,4,1,,,,,,,,,,,,,,,,,,
,,,,,,,,,,,html-keyboard-response,211,2.0.0,965402,664521e03117b782ed4fff45,4,24,null,,,,,,,,,<p style='font-size: 30px;'><strong>Okay</strong></p>,null,neutral_feedback,1,test,36,,,,,,,,,,,,,,,,,,,,,,,,
,,,,,,,,,,,html-button-response,212,2.0.0,974317,664521e03117b782ed4fff45,4,24,8912,,,,,,,,,"<img src= ""rock_img/I_Gabbro_09.jpg"" style=""width:8cm; height:7.279999999999999cm;""><p>What type of rock is this?</p>",1,class_response,1,test,37,Basalt,Gabbro,9,FALSE,2,4,,,,,,,,,,,,,,,,,,
,,,,,,,,,,,html-keyboard-response,213,2.0.0,974818,664521e03117b782ed4fff45,4,24,null,,,,,,,,,<p style='font-size: 30px;'><strong>Okay</strong></p>,null,neutral_feedback,1,test,37,,,,,,,,,,,,,,,,,,,,,,,,
,,,,,,,,,,,html-button-response,214,2.0.0,976622,664521e03117b782ed4fff45,4,24,1802,,,,,,,,,"<img src= ""rock_img/I_Obsidian_04.jpg"" style=""width:8cm; height:6.930000000000001cm;""><p>What type of rock is this?</p>",4,class_response,1,test,38,Obsidian,Obsidian,4,TRUE,5,5,,,,,,,,,,,,,,,,,,
,,,,,,,,,,,html-keyboard-response,215,2.0.0,977124,664521e03117b782ed4fff45,4,24,null,,,,,,,,,<p style='font-size: 30px;'><strong>Okay</strong></p>,null,neutral_feedback,1,test,38,,,,,,,,,,,,,,,,,,,,,,,,
,,,,,,,,,,,html-button-response,216,2.0.0,989768,664521e03117b782ed4fff45,4,24,12642,,,,,,,,,"<img src= ""rock_img/I_Gabbro_13.jpg"" style=""width:8cm; height:5.08cm;""><p>What type of rock is this?</p>",0,class_response,1,test,39,Andesite,Gabbro,13,FALSE,1,4,,,,,,,,,,,,,,,,,,
,,,,,,,,,,,html-keyboard-response,217,2.0.0,990269,664521e03117b782ed4fff45,4,24,null,,,,,,,,,<p style='font-size: 30px;'><strong>Okay</strong></p>,null,neutral_feedback,1,test,39,,,,,,,,,,,,,,,,,,,,,,,,
,,,,,,,,,,,html-button-response,218,2.0.0,1014925,664521e03117b782ed4fff45,4,24,24654,,,,,,,,,"<img src= ""rock_img/I_Andesite_10.jpg"" style=""width:8cm; height:4.16cm;""><p>What type of rock is this?</p>",3,class_response,1,test,40,Gabbro,Andesite,10,FALSE,4,1,,,,,,,,,,,,,,,,,,
,,,,,,,,,,,html-keyboard-response,219,2.0.0,1015426,664521e03117b782ed4fff45,4,24,null,,,,,,,,,<p style='font-size: 30px;'><strong>Okay</strong></p>,null,neutral_feedback,1,test,40,,,,,,,,,,,,,,,,,,,,,,,,
,,,,,,,,,,,html-button-response,220,2.0.0,1022597,664521e03117b782ed4fff45,4,24,7168,,,,,,,,,"<img src= ""rock_img/I_Peridotite_06.jpg"" style=""width:8cm; height:7.53cm;""><p>What type of rock is this?</p>",5,class_response,1,test,41,Pegmatite,Peridotite,6,FALSE,6,7,,,,,,,,,,,,,,,,,,
,,,,,,,,,,,html-keyboard-response,221,2.0.0,1023098,664521e03117b782ed4fff45,4,24,null,,,,,,,,,<p style='font-size: 30px;'><strong>Okay</strong></p>,null,neutral_feedback,1,test,41,,,,,,,,,,,,,,,,,,,,,,,,
,,,,,,,,,,,html-button-response,222,2.0.0,1025760,664521e03117b782ed4fff45,4,24,2660,,,,,,,,,"<img src= ""rock_img/I_Pegmatite_08.jpg"" style=""width:8cm; height:7.68cm;""><p>What type of rock is this?</p>",5,class_response,1,test,42,Pegmatite,Pegmatite,8,TRUE,6,6,,,,,,,,,,,,,,,,,,
,,,,,,,,,,,html-keyboard-response,223,2.0.0,1026262,664521e03117b782ed4fff45,4,24,null,,,,,,,,,<p style='font-size: 30px;'><strong>Okay</strong></p>,null,neutral_feedback,1,test,42,,,,,,,,,,,,,,,,,,,,,,,,
,,,,,,,,,,,html-button-response,224,2.0.0,1027424,664521e03117b782ed4fff45,4,24,1160,,,,,,,,,"<img src= ""rock_img/I_Pegmatite_03.jpg"" style=""width:8cm; height:5.239999999999999cm;""><p>What type of rock is this?</p>",5,class_response,1,test,43,Pegmatite,Pegmatite,3,TRUE,6,6,,,,,,,,,,,,,,,,,,
,,,,,,,,,,,html-keyboard-response,225,2.0.0,1027925,664521e03117b782ed4fff45,4,24,null,,,,,,,,,<p style='font-size: 30px;'><strong>Okay</strong></p>,null,neutral_feedback,1,test,43,,,,,,,,,,,,,,,,,,,,,,,,
,,,,,,,,,,,html-button-response,226,2.0.0,1030338,664521e03117b782ed4fff45,4,24,2411,,,,,,,,,"<img src= ""rock_img/I_Obsidian_06.jpg"" style=""width:8cm; height:6.8cm;""><p>What type of rock is this?</p>",4,class_response,1,test,44,Obsidian,Obsidian,6,TRUE,5,5,,,,,,,,,,,,,,,,,,
,,,,,,,,,,,html-keyboard-response,227,2.0.0,1030840,664521e03117b782ed4fff45,4,24,null,,,,,,,,,<p style='font-size: 30px;'><strong>Okay</strong></p>,null,neutral_feedback,1,test,44,,,,,,,,,,,,,,,,,,,,,,,,
,,,,,,,,,,,html-button-response,228,2.0.0,1033958,664521e03117b782ed4fff45,4,24,3116,,,,,,,,,"<img src= ""rock_img/I_Peridotite_05.jpg"" style=""width:8cm; height:7.1499999999999995cm;""><p>What type of rock is this?</p>",3,class_response,1,test,45,Gabbro,Peridotite,5,FALSE,4,7,,,,,,,,,,,,,,,,,,
,,,,,,,,,,,html-keyboard-response,229,2.0.0,1034460,664521e03117b782ed4fff45,4,24,null,,,,,,,,,<p style='font-size: 30px;'><strong>Okay</strong></p>,null,neutral_feedback,1,test,45,,,,,,,,,,,,,,,,,,,,,,,,
,,,,,,,,,,,html-button-response,230,2.0.0,1037391,664521e03117b782ed4fff45,4,24,2930,,,,,,,,,"<img src= ""rock_img/I_Peridotite_16.jpg"" style=""width:8cm; height:6.989999999999999cm;""><p>What type of rock is this?</p>",3,class_response,1,test,46,Gabbro,Peridotite,16,FALSE,4,7,,,,,,,,,,,,,,,,,,
,,,,,,,,,,,html-keyboard-response,231,2.0.0,1037893,664521e03117b782ed4fff45,4,24,null,,,,,,,,,<p style='font-size: 30px;'><strong>Okay</strong></p>,null,neutral_feedback,1,test,46,,,,,,,,,,,,,,,,,,,,,,,,
,,,,,,,,,,,html-button-response,232,2.0.0,1040337,664521e03117b782ed4fff45,4,24,2442,,,,,,,,,"<img src= ""rock_img/I_Pegmatite_10.jpg"" style=""width:8cm; height:4.16cm;""><p>What type of rock is this?</p>",5,class_response,1,test,47,Pegmatite,Pegmatite,10,TRUE,6,6,,,,,,,,,,,,,,,,,,
,,,,,,,,,,,html-keyboard-response,233,2.0.0,1040839,664521e03117b782ed4fff45,4,24,null,,,,,,,,,<p style='font-size: 30px;'><strong>Okay</strong></p>,null,neutral_feedback,1,test,47,,,,,,,,,,,,,,,,,,,,,,,,
,,,,,,,,,,,html-button-response,234,2.0.0,1050745,664521e03117b782ed4fff45,4,24,9897,,,,,,,,,"<img src= ""rock_img/I_Basalt_14.jpg"" style=""width:8cm; height:5.82cm;""><p>What type of rock is this?</p>",3,class_response,1,test,48,Gabbro,Basalt,14,FALSE,4,2,,,,,,,,,,,,,,,,,,
,,,,,,,,,,,html-keyboard-response,235,2.0.0,1051248,664521e03117b782ed4fff45,4,24,null,,,,,,,,,<p style='font-size: 30px;'><strong>Okay</strong></p>,null,neutral_feedback,1,test,48,,,,,,,,,,,,,,,,,,,,,,,,
,,,,,,,,,,,html-button-response,236,2.0.0,1363410,664521e03117b782ed4fff45,4,24,,,,,,,,,,,,cycle_feedback,,,,,,,,,,,,,,,,,,,,,,,287371.2,24768.8,,,
,,,,,,,,,,,html-button-response,238,2.0.0,1365959,664521e03117b782ed4fff45,4,24,2548,,,,,,,,,,0,start_train,,,,,,,,,,,,,,,,,,,,,,,,,,,
,,,,,,,,,,,html-button-response,240,2.0.0,1382439,664521e03117b782ed4fff45,4,24,16478,,,,,,,,,"<img src= ""rock_img/I_Pegmatite_11.jpg"" style=""width:8cm; height:8.14cm;""><p>What type of rock is this?</p>",5,class_response,2,train,1,Pegmatite,Pegmatite,11,TRUE,6,6,,,,,,,,,,,,,,,,,,
,,,,,,,,,,,html-button-response,241,2.0.0,1383325,664521e03117b782ed4fff45,4,24,885,,,,,,,,,"<img src= rock_img/I_Pegmatite_11.jpg style=""width:8cm; height:8.14cm;""><p style='font-size: 30px; color: green;'><strong>Correct!</strong></p><p style='font-size: 30px;'><strong>This rock is pegmatite</strong></p>",0,corr_feedback,2,train,1,,,,,,,,,,,,,,,,,,,,,,,,
,,,,,,,,,,,html-button-response,242,2.0.0,1386939,664521e03117b782ed4fff45,4,24,3612,,,,,,,,,"<img src= ""rock_img/I_Gabbro_05.jpg"" style=""width:8cm; height:6cm;""><p>What type of rock is this?</p>",3,class_response,2,train,2,Gabbro,Gabbro,5,TRUE,4,4,,,,,,,,,,,,,,,,,,
,,,,,,,,,,,html-button-response,243,2.0.0,1392124,664521e03117b782ed4fff45,4,24,5184,,,,,,,,,"<img src= rock_img/I_Gabbro_05.jpg style=""width:8cm; height:6cm;""><p style='font-size: 30px; color: green;'><strong>Correct!</strong></p><p style='font-size: 30px;'><strong>This rock is gabbro</strong></p>",0,corr_feedback,2,train,2,,,,,,,,,,,,,,,,,,,,,,,,
,,,,,,,,,,,html-button-response,244,2.0.0,1393966,664521e03117b782ed4fff45,4,24,1840,,,,,,,,,"<img src= ""rock_img/I_Peridotite_15.jpg"" style=""width:8cm; height:6cm;""><p>What type of rock is this?</p>",2,class_response,2,train,3,Diorite,Peridotite,15,FALSE,3,7,,,,,,,,,,,,,,,,,,
,,,,,,,,,,,html-button-response,245,2.0.0,1397149,664521e03117b782ed4fff45,4,24,3182,,,,,,,,,"<img src= rock_img/I_Peridotite_15.jpg style=""width:8cm; height:6cm;""><p style='font-size: 30px; color: red;'><strong>Incorrect!</strong></p><p style='font-size: 30px;'><strong>This rock is peridotite</strong></p>",0,corr_feedback,2,train,3,,,,,,,,,,,,,,,,,,,,,,,,
,,,,,,,,,,,html-button-response,246,2.0.0,1399227,664521e03117b782ed4fff45,4,24,2077,,,,,,,,,"<img src= ""rock_img/I_Basalt_05.jpg"" style=""width:8cm; height:8.18cm;""><p>What type of rock is this?</p>",1,class_response,2,train,4,Basalt,Basalt,5,TRUE,2,2,,,,,,,,,,,,,,,,,,
,,,,,,,,,,,html-button-response,247,2.0.0,1399982,664521e03117b782ed4fff45,4,24,754,,,,,,,,,"<img src= rock_img/I_Basalt_05.jpg style=""width:8cm; height:8.18cm;""><p style='font-size: 30px; color: green;'><strong>Correct!</strong></p><p style='font-size: 30px;'><strong>This rock is basalt</strong></p>",0,corr_feedback,2,train,4,,,,,,,,,,,,,,,,,,,,,,,,
,,,,,,,,,,,html-button-response,248,2.0.0,1401597,664521e03117b782ed4fff45,4,24,1614,,,,,,,,,"<img src= ""rock_img/I_Andesite_01.jpg"" style=""width:8cm; height:5.87cm;""><p>What type of rock is this?</p>",0,class_response,2,train,5,Andesite,Andesite,1,TRUE,1,1,,,,,,,,,,,,,,,,,,
,,,,,,,,,,,html-button-response,249,2.0.0,1402288,664521e03117b782ed4fff45,4,24,689,,,,,,,,,"<img src= rock_img/I_Andesite_01.jpg style=""width:8cm; height:5.87cm;""><p style='font-size: 30px; color: green;'><strong>Correct!</strong></p><p style='font-size: 30px;'><strong>This rock is andesite</strong></p>",0,corr_feedback,2,train,5,,,,,,,,,,,,,,,,,,,,,,,,
,,,,,,,,,,,html-button-response,250,2.0.0,1404042,664521e03117b782ed4fff45,4,24,1753,,,,,,,,,"<img src= ""rock_img/I_Pumice_10.jpg"" style=""width:8cm; height:7.609999999999999cm;""><p>What type of rock is this?</p>",7,class_response,2,train,6,Pumice,Pumice,10,TRUE,8,8,,,,,,,,,,,,,,,,,,
,,,,,,,,,,,html-button-response,251,2.0.0,1404715,664521e03117b782ed4fff45,4,24,672,,,,,,,,,"<img src= rock_img/I_Pumice_10.jpg style=""width:8cm; height:7.609999999999999cm;""><p style='font-size: 30px; color: green;'><strong>Correct!</strong></p><p style='font-size: 30px;'><strong>This rock is pumice</strong></p>",0,corr_feedback,2,train,6,,,,,,,,,,,,,,,,,,,,,,,,
,,,,,,,,,,,html-button-response,252,2.0.0,1406786,664521e03117b782ed4fff45,4,24,2070,,,,,,,,,"<img src= ""rock_img/I_Peridotite_14.jpg"" style=""width:8cm; height:5.3cm;""><p>What type of rock is this?</p>",6,class_response,2,train,7,Peridotite,Peridotite,14,TRUE,7,7,,,,,,,,,,,,,,,,,,
,,,,,,,,,,,html-button-response,253,2.0.0,1407393,664521e03117b782ed4fff45,4,24,606,,,,,,,,,"<img src= rock_img/I_Peridotite_14.jpg style=""width:8cm; height:5.3cm;""><p style='font-size: 30px; color: green;'><strong>Correct!</strong></p><p style='font-size: 30px;'><strong>This rock is peridotite</strong></p>",0,corr_feedback,2,train,7,,,,,,,,,,,,,,,,,,,,,,,,
,,,,,,,,,,,html-button-response,254,2.0.0,1409261,664521e03117b782ed4fff45,4,24,1866,,,,,,,,,"<img src= ""rock_img/I_Pegmatite_06.jpg"" style=""width:8cm; height:5.17cm;""><p>What type of rock is this?</p>",5,class_response,2,train,8,Pegmatite,Pegmatite,6,TRUE,6,6,,,,,,,,,,,,,,,,,,
,,,,,,,,,,,html-button-response,255,2.0.0,1410033,664521e03117b782ed4fff45,4,24,771,,,,,,,,,"<img src= rock_img/I_Pegmatite_06.jpg style=""width:8cm; height:5.17cm;""><p style='font-size: 30px; color: green;'><strong>Correct!</strong></p><p style='font-size: 30px;'><strong>This rock is pegmatite</strong></p>",0,corr_feedback,2,train,8,,,,,,,,,,,,,,,,,,,,,,,,
,,,,,,,,,,,html-button-response,256,2.0.0,1411592,664521e03117b782ed4fff45,4,24,1557,,,,,,,,,"<img src= ""rock_img/I_Pumice_16.jpg"" style=""width:8cm; height:6.79cm;""><p>What type of rock is this?</p>",7,class_response,2,train,9,Pumice,Pumice,16,TRUE,8,8,,,,,,,,,,,,,,,,,,
,,,,,,,,,,,html-button-response,257,2.0.0,1412192,664521e03117b782ed4fff45,4,24,599,,,,,,,,,"<img src= rock_img/I_Pumice_16.jpg style=""width:8cm; height:6.79cm;""><p style='font-size: 30px; color: green;'><strong>Correct!</strong></p><p style='font-size: 30px;'><strong>This rock is pumice</strong></p>",0,corr_feedback,2,train,9,,,,,,,,,,,,,,,,,,,,,,,,
,,,,,,,,,,,html-button-response,258,2.0.0,1413377,664521e03117b782ed4fff45,4,24,1183,,,,,,,,,"<img src= ""rock_img/I_Obsidian_10.jpg"" style=""width:8cm; height:6.260000000000001cm;""><p>What type of rock is this?</p>",4,class_response,2,train,10,Obsidian,Obsidian,10,TRUE,5,5,,,,,,,,,,,,,,,,,,
,,,,,,,,,,,html-button-response,259,2.0.0,1413947,664521e03117b782ed4fff45,4,24,569,,,,,,,,,"<img src= rock_img/I_Obsidian_10.jpg style=""width:8cm; height:6.260000000000001cm;""><p style='font-size: 30px; color: green;'><strong>Correct!</strong></p><p style='font-size: 30px;'><strong>This rock is obsidian</strong></p>",0,corr_feedback,2,train,10,,,,,,,,,,,,,,,,,,,,,,,,
,,,,,,,,,,,html-button-response,260,2.0.0,1415571,664521e03117b782ed4fff45,4,24,1623,,,,,,,,,"<img src= ""rock_img/I_Diorite_02.jpg"" style=""width:8cm; height:6.27cm;""><p>What type of rock is this?</p>",2,class_response,2,train,11,Diorite,Diorite,2,TRUE,3,3,,,,,,,,,,,,,,,,,,
,,,,,,,,,,,html-button-response,261,2.0.0,1416115,664521e03117b782ed4fff45,4,24,543,,,,,,,,,"<img src= rock_img/I_Diorite_02.jpg style=""width:8cm; height:6.27cm;""><p style='font-size: 30px; color: green;'><strong>Correct!</strong></p><p style='font-size: 30px;'><strong>This rock is diorite</strong></p>",0,corr_feedback,2,train,11,,,,,,,,,,,,,,,,,,,,,,,,
,,,,,,,,,,,html-button-response,262,2.0.0,1421577,664521e03117b782ed4fff45,4,24,5460,,,,,,,,,"<img src= ""rock_img/I_Gabbro_15.jpg"" style=""width:8cm; height:6.29cm;""><p>What type of rock is this?</p>",6,class_response,2,train,12,Peridotite,Gabbro,15,FALSE,7,4,,,,,,,,,,,,,,,,,,
,,,,,,,,,,,html-button-response,263,2.0.0,1424336,664521e03117b782ed4fff45,4,24,2759,,,,,,,,,"<img src= rock_img/I_Gabbro_15.jpg style=""width:8cm; height:6.29cm;""><p style='font-size: 30px; color: red;'><strong>Incorrect!</strong></p><p style='font-size: 30px;'><strong>This rock is gabbro</strong></p>",0,corr_feedback,2,train,12,,,,,,,,,,,,,,,,,,,,,,,,
,,,,,,,,,,,html-button-response,265,2.0.0,1426554,664521e03117b782ed4fff45,4,24,2216,,,,,,,,,,0,start_train,,,,,,,,,,,,,,,,,,,,,,,,,,,
,,,,,,,,,,,html-button-response,266,2.0.0,1442670,664521e03117b782ed4fff45,4,24,,,,,,,,,,,,cat_selection,2,train,1,,,,,,,3212.4,12901,4,1,Gabbro,Andesite,,,,,,,,,,,,
,,,,,,,,,,,paired-cat-display,267,1.0.0,1474267,664521e03117b782ed4fff45,4,24,,,,,,,,,,,,paired_cat_display,2,train,1,,,,,,,,,,,,,,Has more uniform specks,12695.3,18898,,Does not have many specks,,,,,,
,,,,,,,,,,,html-button-response,268,2.0.0,1492266,664521e03117b782ed4fff45,4,24,,,,,,,,,,,,cat_selection,2,train,2,,,,,,,17486.2,511.2,7,4,Peridotite,Gabbro,,,,,,,,,,,,
,,,,,,,,,,,paired-cat-display,269,1.0.0,1511812,664521e03117b782ed4fff45,4,24,,,,,,,,,,,,paired_cat_display,2,train,2,,,,,,,,,,,,,,,7552.6,11990.5,,usually darkly colored,,,,is greener in color. ,,
,,,,,,,,,,,html-button-response,270,2.0.0,1555362,664521e03117b782ed4fff45,4,24,,,,,,,,,,,,cat_selection,2,train,3,,,,,,,40643.1,2906.3,5,6,Obsidian,Pegmatite,,,,,,,,,,,,
,,,,,,,,,,,paired-cat-display,271,1.0.0,1570216,664521e03117b782ed4fff45,4,24,,,,,,,,,,,,paired_cat_display,2,train,3,,,,,,,,,,,,,,,6008.1,8842.6,,,,,,,is usually shiny and dark,has different colors
,,,,,,,,,,,html-button-response,273,2.0.0,1572808,664521e03117b782ed4fff45,4,24,2590,,,,,,,,,,0,start_test,,,,,,,,,,,,,,,,,,,,,,,,,,,
,,,,,,,,,,,html-button-response,274,2.0.0,1577042,664521e03117b782ed4fff45,4,24,4232,,,,,,,,,"<img src= ""rock_img/I_Pegmatite_05.jpg"" style=""width:8cm; height:7.300000000000001cm;""><p>What type of rock is this?</p>",5,class_response,2,test,1,Pegmatite,Pegmatite,5,TRUE,6,6,,,,,,,,,,,,,,,,,,
,,,,,,,,,,,html-keyboard-response,275,2.0.0,1577544,664521e03117b782ed4fff45,4,24,null,,,,,,,,,<p style='font-size: 30px;'><strong>Okay</strong></p>,null,neutral_feedback,2,test,1,,,,,,,,,,,,,,,,,,,,,,,,
,,,,,,,,,,,html-button-response,276,2.0.0,1585565,664521e03117b782ed4fff45,4,24,8017,,,,,,,,,"<img src= ""rock_img/I_Andesite_10.jpg"" style=""width:8cm; height:4.16cm;""><p>What type of rock is this?</p>",3,class_response,2,test,2,Gabbro,Andesite,10,FALSE,4,1,,,,,,,,,,,,,,,,,,
,,,,,,,,,,,html-keyboard-response,277,2.0.0,1586067,664521e03117b782ed4fff45,4,24,null,,,,,,,,,<p style='font-size: 30px;'><strong>Okay</strong></p>,null,neutral_feedback,2,test,2,,,,,,,,,,,,,,,,,,,,,,,,
,,,,,,,,,,,html-button-response,278,2.0.0,1587356,664521e03117b782ed4fff45,4,24,1287,,,,,,,,,"<img src= ""rock_img/I_Diorite_16.jpg"" style=""width:8cm; height:6.74cm;""><p>What type of rock is this?</p>",2,class_response,2,test,3,Diorite,Diorite,16,TRUE,3,3,,,,,,,,,,,,,,,,,,
,,,,,,,,,,,html-keyboard-response,279,2.0.0,1587858,664521e03117b782ed4fff45,4,24,null,,,,,,,,,<p style='font-size: 30px;'><strong>Okay</strong></p>,null,neutral_feedback,2,test,3,,,,,,,,,,,,,,,,,,,,,,,,
,,,,,,,,,,,html-button-response,280,2.0.0,1590303,664521e03117b782ed4fff45,4,24,2442,,,,,,,,,"<img src= ""rock_img/I_Gabbro_01.jpg"" style=""width:8cm; height:5.21cm;""><p>What type of rock is this?</p>",0,class_response,2,test,4,Andesite,Gabbro,1,FALSE,1,4,,,,,,,,,,,,,,,,,,
,,,,,,,,,,,html-keyboard-response,281,2.0.0,1590804,664521e03117b782ed4fff45,4,24,null,,,,,,,,,<p style='font-size: 30px;'><strong>Okay</strong></p>,null,neutral_feedback,2,test,4,,,,,,,,,,,,,,,,,,,,,,,,
,,,,,,,,,,,html-button-response,282,2.0.0,1591837,664521e03117b782ed4fff45,4,24,1031,,,,,,,,,"<img src= ""rock_img/I_Diorite_10.jpg"" style=""width:8cm; height:5.949999999999999cm;""><p>What type of rock is this?</p>",0,class_response,2,test,5,Andesite,Diorite,10,FALSE,1,3,,,,,,,,,,,,,,,,,,
,,,,,,,,,,,html-keyboard-response,283,2.0.0,1592339,664521e03117b782ed4fff45,4,24,null,,,,,,,,,<p style='font-size: 30px;'><strong>Okay</strong></p>,null,neutral_feedback,2,test,5,,,,,,,,,,,,,,,,,,,,,,,,
,,,,,,,,,,,html-button-response,284,2.0.0,1593614,664521e03117b782ed4fff45,4,24,1273,,,,,,,,,"<img src= ""rock_img/I_Andesite_07.jpg"" style=""width:8cm; height:5.93cm;""><p>What type of rock is this?</p>",2,class_response,2,test,6,Diorite,Andesite,7,FALSE,3,1,,,,,,,,,,,,,,,,,,
,,,,,,,,,,,html-keyboard-response,285,2.0.0,1594116,664521e03117b782ed4fff45,4,24,null,,,,,,,,,<p style='font-size: 30px;'><strong>Okay</strong></p>,null,neutral_feedback,2,test,6,,,,,,,,,,,,,,,,,,,,,,,,
,,,,,,,,,,,html-button-response,286,2.0.0,1595335,664521e03117b782ed4fff45,4,24,1217,,,,,,,,,"<img src= ""rock_img/I_Basalt_01.jpg"" style=""width:8cm; height:7.880000000000001cm;""><p>What type of rock is this?</p>",1,class_response,2,test,7,Basalt,Basalt,1,TRUE,2,2,,,,,,,,,,,,,,,,,,
,,,,,,,,,,,html-keyboard-response,287,2.0.0,1595836,664521e03117b782ed4fff45,4,24,null,,,,,,,,,<p style='font-size: 30px;'><strong>Okay</strong></p>,null,neutral_feedback,2,test,7,,,,,,,,,,,,,,,,,,,,,,,,
,,,,,,,,,,,html-button-response,288,2.0.0,1601742,664521e03117b782ed4fff45,4,24,5903,,,,,,,,,"<img src= ""rock_img/I_Andesite_04.jpg"" style=""width:8cm; height:5.96cm;""><p>What type of rock is this?</p>",0,class_response,2,test,8,Andesite,Andesite,4,TRUE,1,1,,,,,,,,,,,,,,,,,,
,,,,,,,,,,,html-keyboard-response,289,2.0.0,1602244,664521e03117b782ed4fff45,4,24,null,,,,,,,,,<p style='font-size: 30px;'><strong>Okay</strong></p>,null,neutral_feedback,2,test,8,,,,,,,,,,,,,,,,,,,,,,,,
,,,,,,,,,,,html-button-response,290,2.0.0,1604073,664521e03117b782ed4fff45,4,24,1827,,,,,,,,,"<img src= ""rock_img/I_Basalt_04.jpg"" style=""width:8cm; height:7.53cm;""><p>What type of rock is this?</p>",1,class_response,2,test,9,Basalt,Basalt,4,TRUE,2,2,,,,,,,,,,,,,,,,,,
,,,,,,,,,,,html-keyboard-response,291,2.0.0,1604575,664521e03117b782ed4fff45,4,24,null,,,,,,,,,<p style='font-size: 30px;'><strong>Okay</strong></p>,null,neutral_feedback,2,test,9,,,,,,,,,,,,,,,,,,,,,,,,
,,,,,,,,,,,html-button-response,292,2.0.0,1616217,664521e03117b782ed4fff45,4,24,11640,,,,,,,,,"<img src= ""rock_img/I_Andesite_11.jpg"" style=""width:8cm; height:4.92cm;""><p>What type of rock is this?</p>",0,class_response,2,test,10,Andesite,Andesite,11,TRUE,1,1,,,,,,,,,,,,,,,,,,
,,,,,,,,,,,html-keyboard-response,293,2.0.0,1616718,664521e03117b782ed4fff45,4,24,null,,,,,,,,,<p style='font-size: 30px;'><strong>Okay</strong></p>,null,neutral_feedback,2,test,10,,,,,,,,,,,,,,,,,,,,,,,,
,,,,,,,,,,,html-button-response,294,2.0.0,1618497,664521e03117b782ed4fff45,4,24,1776,,,,,,,,,"<img src= ""rock_img/I_Pumice_02.jpg"" style=""width:8cm; height:7.3999999999999995cm;""><p>What type of rock is this?</p>",7,class_response,2,test,11,Pumice,Pumice,2,TRUE,8,8,,,,,,,,,,,,,,,,,,
,,,,,,,,,,,html-keyboard-response,295,2.0.0,1618999,664521e03117b782ed4fff45,4,24,null,,,,,,,,,<p style='font-size: 30px;'><strong>Okay</strong></p>,null,neutral_feedback,2,test,11,,,,,,,,,,,,,,,,,,,,,,,,
,,,,,,,,,,,html-button-response,296,2.0.0,1621215,664521e03117b782ed4fff45,4,24,2214,,,,,,,,,"<img src= ""rock_img/I_Andesite_14.jpg"" style=""width:8cm; height:5.449999999999999cm;""><p>What type of rock is this?</p>",0,class_response,2,test,12,Andesite,Andesite,14,TRUE,1,1,,,,,,,,,,,,,,,,,,
,,,,,,,,,,,html-keyboard-response,297,2.0.0,1621717,664521e03117b782ed4fff45,4,24,null,,,,,,,,,<p style='font-size: 30px;'><strong>Okay</strong></p>,null,neutral_feedback,2,test,12,,,,,,,,,,,,,,,,,,,,,,,,
,,,,,,,,,,,html-button-response,298,2.0.0,1627092,664521e03117b782ed4fff45,4,24,5373,,,,,,,,,"<img src= ""rock_img/I_Peridotite_12.jpg"" style=""width:8cm; height:4.54cm;""><p>What type of rock is this?</p>",2,class_response,2,test,13,Diorite,Peridotite,12,FALSE,3,7,,,,,,,,,,,,,,,,,,
,,,,,,,,,,,html-keyboard-response,299,2.0.0,1627593,664521e03117b782ed4fff45,4,24,null,,,,,,,,,<p style='font-size: 30px;'><strong>Okay</strong></p>,null,neutral_feedback,2,test,13,,,,,,,,,,,,,,,,,,,,,,,,
,,,,,,,,,,,html-button-response,300,2.0.0,1635635,664521e03117b782ed4fff45,4,24,8039,,,,,,,,,"<img src= ""rock_img/I_Peridotite_08.jpg"" style=""width:8cm; height:6.7cm;""><p>What type of rock is this?</p>",6,class_response,2,test,14,Peridotite,Peridotite,8,TRUE,7,7,,,,,,,,,,,,,,,,,,
,,,,,,,,,,,html-keyboard-response,301,2.0.0,1636137,664521e03117b782ed4fff45,4,24,null,,,,,,,,,<p style='font-size: 30px;'><strong>Okay</strong></p>,null,neutral_feedback,2,test,14,,,,,,,,,,,,,,,,,,,,,,,,
,,,,,,,,,,,html-button-response,302,2.0.0,1641138,664521e03117b782ed4fff45,4,24,4999,,,,,,,,,"<img src= ""rock_img/I_Peridotite_07.jpg"" style=""width:8cm; height:4.83cm;""><p>What type of rock is this?</p>",3,class_response,2,test,15,Gabbro,Peridotite,7,FALSE,4,7,,,,,,,,,,,,,,,,,,
,,,,,,,,,,,html-keyboard-response,303,2.0.0,1641641,664521e03117b782ed4fff45,4,24,null,,,,,,,,,<p style='font-size: 30px;'><strong>Okay</strong></p>,null,neutral_feedback,2,test,15,,,,,,,,,,,,,,,,,,,,,,,,
,,,,,,,,,,,html-button-response,304,2.0.0,1651308,664521e03117b782ed4fff45,4,24,9665,,,,,,,,,"<img src= ""rock_img/I_Pumice_13.jpg"" style=""width:8cm; height:8.200000000000001cm;""><p>What type of rock is this?</p>",7,class_response,2,test,16,Pumice,Pumice,13,TRUE,8,8,,,,,,,,,,,,,,,,,,
,,,,,,,,,,,html-keyboard-response,305,2.0.0,1651811,664521e03117b782ed4fff45,4,24,null,,,,,,,,,<p style='font-size: 30px;'><strong>Okay</strong></p>,null,neutral_feedback,2,test,16,,,,,,,,,,,,,,,,,,,,,,,,
,,,,,,,,,,,html-button-response,306,2.0.0,1653639,664521e03117b782ed4fff45,4,24,1825,,,,,,,,,"<img src= ""rock_img/I_Diorite_12.jpg"" style=""width:8cm; height:4.88cm;""><p>What type of rock is this?</p>",2,class_response,2,test,17,Diorite,Diorite,12,TRUE,3,3,,,,,,,,,,,,,,,,,,
,,,,,,,,,,,html-keyboard-response,307,2.0.0,1654141,664521e03117b782ed4fff45,4,24,null,,,,,,,,,<p style='font-size: 30px;'><strong>Okay</strong></p>,null,neutral_feedback,2,test,17,,,,,,,,,,,,,,,,,,,,,,,,
,,,,,,,,,,,html-button-response,308,2.0.0,1656218,664521e03117b782ed4fff45,4,24,2075,,,,,,,,,"<img src= ""rock_img/I_Diorite_13.jpg"" style=""width:8cm; height:6.29cm;""><p>What type of rock is this?</p>",2,class_response,2,test,18,Diorite,Diorite,13,TRUE,3,3,,,,,,,,,,,,,,,,,,
,,,,,,,,,,,html-keyboard-response,309,2.0.0,1656721,664521e03117b782ed4fff45,4,24,null,,,,,,,,,<p style='font-size: 30px;'><strong>Okay</strong></p>,null,neutral_feedback,2,test,18,,,,,,,,,,,,,,,,,,,,,,,,
,,,,,,,,,,,html-button-response,310,2.0.0,1662887,664521e03117b782ed4fff45,4,24,6164,,,,,,,,,"<img src= ""rock_img/I_Gabbro_14.jpg"" style=""width:8cm; height:8.48cm;""><p>What type of rock is this?</p>",3,class_response,2,test,19,Gabbro,Gabbro,14,TRUE,4,4,,,,,,,,,,,,,,,,,,
,,,,,,,,,,,html-keyboard-response,311,2.0.0,1663389,664521e03117b782ed4fff45,4,24,null,,,,,,,,,<p style='font-size: 30px;'><strong>Okay</strong></p>,null,neutral_feedback,2,test,19,,,,,,,,,,,,,,,,,,,,,,,,
,,,,,,,,,,,html-button-response,312,2.0.0,1664503,664521e03117b782ed4fff45,4,24,1113,,,,,,,,,"<img src= ""rock_img/I_Pumice_09.jpg"" style=""width:8cm; height:6.44cm;""><p>What type of rock is this?</p>",7,class_response,2,test,20,Pumice,Pumice,9,TRUE,8,8,,,,,,,,,,,,,,,,,,
,,,,,,,,,,,html-keyboard-response,313,2.0.0,1665005,664521e03117b782ed4fff45,4,24,null,,,,,,,,,<p style='font-size: 30px;'><strong>Okay</strong></p>,null,neutral_feedback,2,test,20,,,,,,,,,,,,,,,,,,,,,,,,
,,,,,,,,,,,html-button-response,314,2.0.0,1667595,664521e03117b782ed4fff45,4,24,2588,,,,,,,,,"<img src= ""rock_img/I_Basalt_06.jpg"" style=""width:8cm; height:7.06cm;""><p>What type of rock is this?</p>",1,class_response,2,test,21,Basalt,Basalt,6,TRUE,2,2,,,,,,,,,,,,,,,,,,
,,,,,,,,,,,html-keyboard-response,315,2.0.0,1668098,664521e03117b782ed4fff45,4,24,null,,,,,,,,,<p style='font-size: 30px;'><strong>Okay</strong></p>,null,neutral_feedback,2,test,21,,,,,,,,,,,,,,,,,,,,,,,,
,,,,,,,,,,,html-button-response,316,2.0.0,1669145,664521e03117b782ed4fff45,4,24,1045,,,,,,,,,"<img src= ""rock_img/I_Obsidian_06.jpg"" style=""width:8cm; height:6.8cm;""><p>What type of rock is this?</p>",4,class_response,2,test,22,Obsidian,Obsidian,6,TRUE,5,5,,,,,,,,,,,,,,,,,,
,,,,,,,,,,,html-keyboard-response,317,2.0.0,1669646,664521e03117b782ed4fff45,4,24,null,,,,,,,,,<p style='font-size: 30px;'><strong>Okay</strong></p>,null,neutral_feedback,2,test,22,,,,,,,,,,,,,,,,,,,,,,,,
,,,,,,,,,,,html-button-response,318,2.0.0,1671530,664521e03117b782ed4fff45,4,24,1882,,,,,,,,,"<img src= ""rock_img/I_Pumice_05.jpg"" style=""width:8cm; height:7.25cm;""><p>What type of rock is this?</p>",7,class_response,2,test,23,Pumice,Pumice,5,TRUE,8,8,,,,,,,,,,,,,,,,,,
,,,,,,,,,,,html-keyboard-response,319,2.0.0,1672031,664521e03117b782ed4fff45,4,24,null,,,,,,,,,<p style='font-size: 30px;'><strong>Okay</strong></p>,null,neutral_feedback,2,test,23,,,,,,,,,,,,,,,,,,,,,,,,
,,,,,,,,,,,html-button-response,320,2.0.0,1673527,664521e03117b782ed4fff45,4,24,1493,,,,,,,,,"<img src= ""rock_img/I_Diorite_09.jpg"" style=""width:8cm; height:5.27cm;""><p>What type of rock is this?</p>",2,class_response,2,test,24,Diorite,Diorite,9,TRUE,3,3,,,,,,,,,,,,,,,,,,
,,,,,,,,,,,html-keyboard-response,321,2.0.0,1674029,664521e03117b782ed4fff45,4,24,null,,,,,,,,,<p style='font-size: 30px;'><strong>Okay</strong></p>,null,neutral_feedback,2,test,24,,,,,,,,,,,,,,,,,,,,,,,,
,,,,,,,,,,,html-button-response,322,2.0.0,1675409,664521e03117b782ed4fff45,4,24,1378,,,,,,,,,"<img src= ""rock_img/I_Basalt_10.jpg"" style=""width:8cm; height:5.85cm;""><p>What type of rock is this?</p>",1,class_response,2,test,25,Basalt,Basalt,10,TRUE,2,2,,,,,,,,,,,,,,,,,,
,,,,,,,,,,,html-keyboard-response,323,2.0.0,1675911,664521e03117b782ed4fff45,4,24,null,,,,,,,,,<p style='font-size: 30px;'><strong>Okay</strong></p>,null,neutral_feedback,2,test,25,,,,,,,,,,,,,,,,,,,,,,,,
,,,,,,,,,,,html-button-response,324,2.0.0,1682316,664521e03117b782ed4fff45,4,24,6402,,,,,,,,,"<img src= ""rock_img/I_Diorite_08.jpg"" style=""width:8cm; height:6.37cm;""><p>What type of rock is this?</p>",2,class_response,2,test,26,Diorite,Diorite,8,TRUE,3,3,,,,,,,,,,,,,,,,,,
,,,,,,,,,,,html-keyboard-response,325,2.0.0,1682818,664521e03117b782ed4fff45,4,24,null,,,,,,,,,<p style='font-size: 30px;'><strong>Okay</strong></p>,null,neutral_feedback,2,test,26,,,,,,,,,,,,,,,,,,,,,,,,
,,,,,,,,,,,html-button-response,326,2.0.0,1684507,664521e03117b782ed4fff45,4,24,1686,,,,,,,,,"<img src= ""rock_img/I_Peridotite_06.jpg"" style=""width:8cm; height:7.53cm;""><p>What type of rock is this?</p>",6,class_response,2,test,27,Peridotite,Peridotite,6,TRUE,7,7,,,,,,,,,,,,,,,,,,
,,,,,,,,,,,html-keyboard-response,327,2.0.0,1685008,664521e03117b782ed4fff45,4,24,null,,,,,,,,,<p style='font-size: 30px;'><strong>Okay</strong></p>,null,neutral_feedback,2,test,27,,,,,,,,,,,,,,,,,,,,,,,,
,,,,,,,,,,,html-button-response,328,2.0.0,1686154,664521e03117b782ed4fff45,4,24,1144,,,,,,,,,"<img src= ""rock_img/I_Obsidian_16.jpg"" style=""width:8cm; height:9.3cm;""><p>What type of rock is this?</p>",4,class_response,2,test,28,Obsidian,Obsidian,16,TRUE,5,5,,,,,,,,,,,,,,,,,,
,,,,,,,,,,,html-keyboard-response,329,2.0.0,1686655,664521e03117b782ed4fff45,4,24,null,,,,,,,,,<p style='font-size: 30px;'><strong>Okay</strong></p>,null,neutral_feedback,2,test,28,,,,,,,,,,,,,,,,,,,,,,,,
,,,,,,,,,,,html-button-response,330,2.0.0,1688970,664521e03117b782ed4fff45,4,24,2313,,,,,,,,,"<img src= ""rock_img/I_Pegmatite_10.jpg"" style=""width:8cm; height:4.16cm;""><p>What type of rock is this?</p>",5,class_response,2,test,29,Pegmatite,Pegmatite,10,TRUE,6,6,,,,,,,,,,,,,,,,,,
,,,,,,,,,,,html-keyboard-response,331,2.0.0,1689472,664521e03117b782ed4fff45,4,24,null,,,,,,,,,<p style='font-size: 30px;'><strong>Okay</strong></p>,null,neutral_feedback,2,test,29,,,,,,,,,,,,,,,,,,,,,,,,
,,,,,,,,,,,html-button-response,332,2.0.0,1690992,664521e03117b782ed4fff45,4,24,1517,,,,,,,,,"<img src= ""rock_img/I_Pumice_15.jpg"" style=""width:8cm; height:7.86cm;""><p>What type of rock is this?</p>",7,class_response,2,test,30,Pumice,Pumice,15,TRUE,8,8,,,,,,,,,,,,,,,,,,
,,,,,,,,,,,html-keyboard-response,333,2.0.0,1691493,664521e03117b782ed4fff45,4,24,null,,,,,,,,,<p style='font-size: 30px;'><strong>Okay</strong></p>,null,neutral_feedback,2,test,30,,,,,,,,,,,,,,,,,,,,,,,,
,,,,,,,,,,,html-button-response,334,2.0.0,1702679,664521e03117b782ed4fff45,4,24,11184,,,,,,,,,"<img src= ""rock_img/I_Pegmatite_13.jpg"" style=""width:8cm; height:4.95cm;""><p>What type of rock is this?</p>",5,class_response,2,test,31,Pegmatite,Pegmatite,13,TRUE,6,6,,,,,,,,,,,,,,,,,,
,,,,,,,,,,,html-keyboard-response,335,2.0.0,1703181,664521e03117b782ed4fff45,4,24,null,,,,,,,,,<p style='font-size: 30px;'><strong>Okay</strong></p>,null,neutral_feedback,2,test,31,,,,,,,,,,,,,,,,,,,,,,,,
,,,,,,,,,,,html-button-response,336,2.0.0,1706552,664521e03117b782ed4fff45,4,24,3369,,,,,,,,,"<img src= ""rock_img/I_Gabbro_10.jpg"" style=""width:8cm; height:5.680000000000001cm;""><p>What type of rock is this?</p>",3,class_response,2,test,32,Gabbro,Gabbro,10,TRUE,4,4,,,,,,,,,,,,,,,,,,
,,,,,,,,,,,html-keyboard-response,337,2.0.0,1707053,664521e03117b782ed4fff45,4,24,null,,,,,,,,,<p style='font-size: 30px;'><strong>Okay</strong></p>,null,neutral_feedback,2,test,32,,,,,,,,,,,,,,,,,,,,,,,,
,,,,,,,,,,,html-button-response,338,2.0.0,1712356,664521e03117b782ed4fff45,4,24,5301,,,,,,,,,"<img src= ""rock_img/I_Gabbro_13.jpg"" style=""width:8cm; height:5.08cm;""><p>What type of rock is this?</p>",3,class_response,2,test,33,Gabbro,Gabbro,13,TRUE,4,4,,,,,,,,,,,,,,,,,,
,,,,,,,,,,,html-keyboard-response,339,2.0.0,1712857,664521e03117b782ed4fff45,4,24,null,,,,,,,,,<p style='font-size: 30px;'><strong>Okay</strong></p>,null,neutral_feedback,2,test,33,,,,,,,,,,,,,,,,,,,,,,,,
,,,,,,,,,,,html-button-response,340,2.0.0,1713906,664521e03117b782ed4fff45,4,24,1047,,,,,,,,,"<img src= ""rock_img/I_Obsidian_04.jpg"" style=""width:8cm; height:6.930000000000001cm;""><p>What type of rock is this?</p>",4,class_response,2,test,34,Obsidian,Obsidian,4,TRUE,5,5,,,,,,,,,,,,,,,,,,
,,,,,,,,,,,html-keyboard-response,341,2.0.0,1714408,664521e03117b782ed4fff45,4,24,null,,,,,,,,,<p style='font-size: 30px;'><strong>Okay</strong></p>,null,neutral_feedback,2,test,34,,,,,,,,,,,,,,,,,,,,,,,,
,,,,,,,,,,,html-button-response,342,2.0.0,1715564,664521e03117b782ed4fff45,4,24,1154,,,,,,,,,"<img src= ""rock_img/I_Basalt_09.jpg"" style=""width:8cm; height:6.2cm;""><p>What type of rock is this?</p>",1,class_response,2,test,35,Basalt,Basalt,9,TRUE,2,2,,,,,,,,,,,,,,,,,,
,,,,,,,,,,,html-keyboard-response,343,2.0.0,1716066,664521e03117b782ed4fff45,4,24,null,,,,,,,,,<p style='font-size: 30px;'><strong>Okay</strong></p>,null,neutral_feedback,2,test,35,,,,,,,,,,,,,,,,,,,,,,,,
,,,,,,,,,,,html-button-response,344,2.0.0,1718006,664521e03117b782ed4fff45,4,24,1938,,,,,,,,,"<img src= ""rock_img/I_Pegmatite_15.jpg"" style=""width:8cm; height:6cm;""><p>What type of rock is this?</p>",5,class_response,2,test,36,Pegmatite,Pegmatite,15,TRUE,6,6,,,,,,,,,,,,,,,,,,
,,,,,,,,,,,html-keyboard-response,345,2.0.0,1718508,664521e03117b782ed4fff45,4,24,null,,,,,,,,,<p style='font-size: 30px;'><strong>Okay</strong></p>,null,neutral_feedback,2,test,36,,,,,,,,,,,,,,,,,,,,,,,,
,,,,,,,,,,,html-button-response,346,2.0.0,1720724,664521e03117b782ed4fff45,4,24,2214,,,,,,,,,"<img src= ""rock_img/I_Gabbro_09.jpg"" style=""width:8cm; height:7.279999999999999cm;""><p>What type of rock is this?</p>",3,class_response,2,test,37,Gabbro,Gabbro,9,TRUE,4,4,,,,,,,,,,,,,,,,,,
,,,,,,,,,,,html-keyboard-response,347,2.0.0,1721226,664521e03117b782ed4fff45,4,24,null,,,,,,,,,<p style='font-size: 30px;'><strong>Okay</strong></p>,null,neutral_feedback,2,test,37,,,,,,,,,,,,,,,,,,,,,,,,
,,,,,,,,,,,html-button-response,348,2.0.0,1722875,664521e03117b782ed4fff45,4,24,1647,,,,,,,,,"<img src= ""rock_img/I_Pegmatite_08.jpg"" style=""width:8cm; height:7.68cm;""><p>What type of rock is this?</p>",5,class_response,2,test,38,Pegmatite,Pegmatite,8,TRUE,6,6,,,,,,,,,,,,,,,,,,
,,,,,,,,,,,html-keyboard-response,349,2.0.0,1723377,664521e03117b782ed4fff45,4,24,null,,,,,,,,,<p style='font-size: 30px;'><strong>Okay</strong></p>,null,neutral_feedback,2,test,38,,,,,,,,,,,,,,,,,,,,,,,,
,,,,,,,,,,,html-button-response,350,2.0.0,1724994,664521e03117b782ed4fff45,4,24,1614,,,,,,,,,"<img src= ""rock_img/I_Andesite_02.jpg"" style=""width:8cm; height:8.5cm;""><p>What type of rock is this?</p>",0,class_response,2,test,39,Andesite,Andesite,2,TRUE,1,1,,,,,,,,,,,,,,,,,,
,,,,,,,,,,,html-keyboard-response,351,2.0.0,1725495,664521e03117b782ed4fff45,4,24,null,,,,,,,,,<p style='font-size: 30px;'><strong>Okay</strong></p>,null,neutral_feedback,2,test,39,,,,,,,,,,,,,,,,,,,,,,,,
,,,,,,,,,,,html-button-response,352,2.0.0,1726682,664521e03117b782ed4fff45,4,24,1185,,,,,,,,,"<img src= ""rock_img/I_Obsidian_11.jpg"" style=""width:8cm; height:6.05cm;""><p>What type of rock is this?</p>",4,class_response,2,test,40,Obsidian,Obsidian,11,TRUE,5,5,,,,,,,,,,,,,,,,,,
,,,,,,,,,,,html-keyboard-response,353,2.0.0,1727184,664521e03117b782ed4fff45,4,24,null,,,,,,,,,<p style='font-size: 30px;'><strong>Okay</strong></p>,null,neutral_feedback,2,test,40,,,,,,,,,,,,,,,,,,,,,,,,
,,,,,,,,,,,html-button-response,354,2.0.0,1728022,664521e03117b782ed4fff45,4,24,836,,,,,,,,,"<img src= ""rock_img/I_Obsidian_08.jpg"" style=""width:8cm; height:7.39cm;""><p>What type of rock is this?</p>",4,class_response,2,test,41,Obsidian,Obsidian,8,TRUE,5,5,,,,,,,,,,,,,,,,,,
,,,,,,,,,,,html-keyboard-response,355,2.0.0,1728524,664521e03117b782ed4fff45,4,24,null,,,,,,,,,<p style='font-size: 30px;'><strong>Okay</strong></p>,null,neutral_feedback,2,test,41,,,,,,,,,,,,,,,,,,,,,,,,
,,,,,,,,,,,html-button-response,356,2.0.0,1729791,664521e03117b782ed4fff45,4,24,1265,,,,,,,,,"<img src= ""rock_img/I_Pegmatite_03.jpg"" style=""width:8cm; height:5.239999999999999cm;""><p>What type of rock is this?</p>",5,class_response,2,test,42,Pegmatite,Pegmatite,3,TRUE,6,6,,,,,,,,,,,,,,,,,,
,,,,,,,,,,,html-keyboard-response,357,2.0.0,1730293,664521e03117b782ed4fff45,4,24,null,,,,,,,,,<p style='font-size: 30px;'><strong>Okay</strong></p>,null,neutral_feedback,2,test,42,,,,,,,,,,,,,,,,,,,,,,,,
,,,,,,,,,,,html-button-response,358,2.0.0,1734256,664521e03117b782ed4fff45,4,24,3960,,,,,,,,,"<img src= ""rock_img/I_Peridotite_16.jpg"" style=""width:8cm; height:6.989999999999999cm;""><p>What type of rock is this?</p>",6,class_response,2,test,43,Peridotite,Peridotite,16,TRUE,7,7,,,,,,,,,,,,,,,,,,
,,,,,,,,,,,html-keyboard-response,359,2.0.0,1734758,664521e03117b782ed4fff45,4,24,null,,,,,,,,,<p style='font-size: 30px;'><strong>Okay</strong></p>,null,neutral_feedback,2,test,43,,,,,,,,,,,,,,,,,,,,,,,,
,,,,,,,,,,,html-button-response,360,2.0.0,1737623,664521e03117b782ed4fff45,4,24,2864,,,,,,,,,"<img src= ""rock_img/I_Gabbro_03.jpg"" style=""width:8cm; height:8.52cm;""><p>What type of rock is this?</p>",0,class_response,2,test,44,Andesite,Gabbro,3,FALSE,1,4,,,,,,,,,,,,,,,,,,
,,,,,,,,,,,html-keyboard-response,361,2.0.0,1738124,664521e03117b782ed4fff45,4,24,null,,,,,,,,,<p style='font-size: 30px;'><strong>Okay</strong></p>,null,neutral_feedback,2,test,44,,,,,,,,,,,,,,,,,,,,,,,,
,,,,,,,,,,,html-button-response,362,2.0.0,1739376,664521e03117b782ed4fff45,4,24,1251,,,,,,,,,"<img src= ""rock_img/I_Pumice_08.jpg"" style=""width:8cm; height:6.67cm;""><p>What type of rock is this?</p>",7,class_response,2,test,45,Pumice,Pumice,8,TRUE,8,8,,,,,,,,,,,,,,,,,,
,,,,,,,,,,,html-keyboard-response,363,2.0.0,1739879,664521e03117b782ed4fff45,4,24,null,,,,,,,,,<p style='font-size: 30px;'><strong>Okay</strong></p>,null,neutral_feedback,2,test,45,,,,,,,,,,,,,,,,,,,,,,,,
,,,,,,,,,,,html-button-response,364,2.0.0,1741739,664521e03117b782ed4fff45,4,24,1858,,,,,,,,,"<img src= ""rock_img/I_Basalt_14.jpg"" style=""width:8cm; height:5.82cm;""><p>What type of rock is this?</p>",3,class_response,2,test,46,Gabbro,Basalt,14,FALSE,4,2,,,,,,,,,,,,,,,,,,
,,,,,,,,,,,html-keyboard-response,365,2.0.0,1742241,664521e03117b782ed4fff45,4,24,null,,,,,,,,,<p style='font-size: 30px;'><strong>Okay</strong></p>,null,neutral_feedback,2,test,46,,,,,,,,,,,,,,,,,,,,,,,,
,,,,,,,,,,,html-button-response,366,2.0.0,1743396,664521e03117b782ed4fff45,4,24,1153,,,,,,,,,"<img src= ""rock_img/I_Obsidian_07.jpg"" style=""width:8cm; height:4.76cm;""><p>What type of rock is this?</p>",4,class_response,2,test,47,Obsidian,Obsidian,7,TRUE,5,5,,,,,,,,,,,,,,,,,,
,,,,,,,,,,,html-keyboard-response,367,2.0.0,1743897,664521e03117b782ed4fff45,4,24,null,,,,,,,,,<p style='font-size: 30px;'><strong>Okay</strong></p>,null,neutral_feedback,2,test,47,,,,,,,,,,,,,,,,,,,,,,,,
,,,,,,,,,,,html-button-response,368,2.0.0,1745910,664521e03117b782ed4fff45,4,24,2011,,,,,,,,,"<img src= ""rock_img/I_Peridotite_05.jpg"" style=""width:8cm; height:7.1499999999999995cm;""><p>What type of rock is this?</p>",6,class_response,2,test,48,Peridotite,Peridotite,5,TRUE,7,7,,,,,,,,,,,,,,,,,,
,,,,,,,,,,,html-keyboard-response,369,2.0.0,1746411,664521e03117b782ed4fff45,4,24,null,,,,,,,,,<p style='font-size: 30px;'><strong>Okay</strong></p>,null,neutral_feedback,2,test,48,,,,,,,,,,,,,,,,,,,,,,,,
,,,,,,,,,,,html-button-response,370,2.0.0,1769400,664521e03117b782ed4fff45,4,24,,,,,,,,,,,,cycle_feedback,,,,,,,,,,,,,,,,,,,,,,,14294.2,8686.9,,,
,,,,,,,,,,,html-button-response,372,2.0.0,1770910,664521e03117b782ed4fff45,4,24,1509,,,,,,,,,,0,start_train,,,,,,,,,,,,,,,,,,,,,,,,,,,
,,,,,,,,,,,html-button-response,374,2.0.0,1772981,664521e03117b782ed4fff45,4,24,2070,,,,,,,,,"<img src= ""rock_img/I_Andesite_01.jpg"" style=""width:8cm; height:5.87cm;""><p>What type of rock is this?</p>",0,class_response,3,train,1,Andesite,Andesite,1,TRUE,1,1,,,,,,,,,,,,,,,,,,
,,,,,,,,,,,html-button-response,375,2.0.0,1774359,664521e03117b782ed4fff45,4,24,1377,,,,,,,,,"<img src= rock_img/I_Andesite_01.jpg style=""width:8cm; height:5.87cm;""><p style='font-size: 30px; color: green;'><strong>Correct!</strong></p><p style='font-size: 30px;'><strong>This rock is andesite</strong></p>",0,corr_feedback,3,train,1,,,,,,,,,,,,,,,,,,,,,,,,
,,,,,,,,,,,html-button-response,376,2.0.0,1776814,664521e03117b782ed4fff45,4,24,2454,,,,,,,,,"<img src= ""rock_img/I_Peridotite_14.jpg"" style=""width:8cm; height:5.3cm;""><p>What type of rock is this?</p>",6,class_response,3,train,2,Peridotite,Peridotite,14,TRUE,7,7,,,,,,,,,,,,,,,,,,
,,,,,,,,,,,html-button-response,377,2.0.0,1777509,664521e03117b782ed4fff45,4,24,694,,,,,,,,,"<img src= rock_img/I_Peridotite_14.jpg style=""width:8cm; height:5.3cm;""><p style='font-size: 30px; color: green;'><strong>Correct!</strong></p><p style='font-size: 30px;'><strong>This rock is peridotite</strong></p>",0,corr_feedback,3,train,2,,,,,,,,,,,,,,,,,,,,,,,,
,,,,,,,,,,,html-button-response,378,2.0.0,1778840,664521e03117b782ed4fff45,4,24,1330,,,,,,,,,"<img src= ""rock_img/I_Diorite_02.jpg"" style=""width:8cm; height:6.27cm;""><p>What type of rock is this?</p>",2,class_response,3,train,3,Diorite,Diorite,2,TRUE,3,3,,,,,,,,,,,,,,,,,,
,,,,,,,,,,,html-button-response,379,2.0.0,1779320,664521e03117b782ed4fff45,4,24,478,,,,,,,,,"<img src= rock_img/I_Diorite_02.jpg style=""width:8cm; height:6.27cm;""><p style='font-size: 30px; color: green;'><strong>Correct!</strong></p><p style='font-size: 30px;'><strong>This rock is diorite</strong></p>",0,corr_feedback,3,train,3,,,,,,,,,,,,,,,,,,,,,,,,
,,,,,,,,,,,html-button-response,380,2.0.0,1781633,664521e03117b782ed4fff45,4,24,2313,,,,,,,,,"<img src= ""rock_img/I_Gabbro_05.jpg"" style=""width:8cm; height:6cm;""><p>What type of rock is this?</p>",6,class_response,3,train,4,Peridotite,Gabbro,5,FALSE,7,4,,,,,,,,,,,,,,,,,,
,,,,,,,,,,,html-button-response,381,2.0.0,1782763,664521e03117b782ed4fff45,4,24,1128,,,,,,,,,"<img src= rock_img/I_Gabbro_05.jpg style=""width:8cm; height:6cm;""><p style='font-size: 30px; color: red;'><strong>Incorrect!</strong></p><p style='font-size: 30px;'><strong>This rock is gabbro</strong></p>",0,corr_feedback,3,train,4,,,,,,,,,,,,,,,,,,,,,,,,
,,,,,,,,,,,html-button-response,382,2.0.0,1785424,664521e03117b782ed4fff45,4,24,2659,,,,,,,,,"<img src= ""rock_img/I_Basalt_05.jpg"" style=""width:8cm; height:8.18cm;""><p>What type of rock is this?</p>",1,class_response,3,train,5,Basalt,Basalt,5,TRUE,2,2,,,,,,,,,,,,,,,,,,
,,,,,,,,,,,html-button-response,383,2.0.0,1786203,664521e03117b782ed4fff45,4,24,778,,,,,,,,,"<img src= rock_img/I_Basalt_05.jpg style=""width:8cm; height:8.18cm;""><p style='font-size: 30px; color: green;'><strong>Correct!</strong></p><p style='font-size: 30px;'><strong>This rock is basalt</strong></p>",0,corr_feedback,3,train,5,,,,,,,,,,,,,,,,,,,,,,,,
,,,,,,,,,,,html-button-response,384,2.0.0,1787258,664521e03117b782ed4fff45,4,24,1054,,,,,,,,,"<img src= ""rock_img/I_Pegmatite_11.jpg"" style=""width:8cm; height:8.14cm;""><p>What type of rock is this?</p>",5,class_response,3,train,6,Pegmatite,Pegmatite,11,TRUE,6,6,,,,,,,,,,,,,,,,,,
,,,,,,,,,,,html-button-response,385,2.0.0,1787754,664521e03117b782ed4fff45,4,24,495,,,,,,,,,"<img src= rock_img/I_Pegmatite_11.jpg style=""width:8cm; height:8.14cm;""><p style='font-size: 30px; color: green;'><strong>Correct!</strong></p><p style='font-size: 30px;'><strong>This rock is pegmatite</strong></p>",0,corr_feedback,3,train,6,,,,,,,,,,,,,,,,,,,,,,,,
,,,,,,,,,,,html-button-response,386,2.0.0,1788939,664521e03117b782ed4fff45,4,24,1183,,,,,,,,,"<img src= ""rock_img/I_Pumice_10.jpg"" style=""width:8cm; height:7.609999999999999cm;""><p>What type of rock is this?</p>",7,class_response,3,train,7,Pumice,Pumice,10,TRUE,8,8,,,,,,,,,,,,,,,,,,
,,,,,,,,,,,html-button-response,387,2.0.0,1789555,664521e03117b782ed4fff45,4,24,615,,,,,,,,,"<img src= rock_img/I_Pumice_10.jpg style=""width:8cm; height:7.609999999999999cm;""><p style='font-size: 30px; color: green;'><strong>Correct!</strong></p><p style='font-size: 30px;'><strong>This rock is pumice</strong></p>",0,corr_feedback,3,train,7,,,,,,,,,,,,,,,,,,,,,,,,
,,,,,,,,,,,html-button-response,388,2.0.0,1790564,664521e03117b782ed4fff45,4,24,1008,,,,,,,,,"<img src= ""rock_img/I_Obsidian_12.jpg"" style=""width:8cm; height:6.53cm;""><p>What type of rock is this?</p>",4,class_response,3,train,8,Obsidian,Obsidian,12,TRUE,5,5,,,,,,,,,,,,,,,,,,
,,,,,,,,,,,html-button-response,389,2.0.0,1791065,664521e03117b782ed4fff45,4,24,500,,,,,,,,,"<img src= rock_img/I_Obsidian_12.jpg style=""width:8cm; height:6.53cm;""><p style='font-size: 30px; color: green;'><strong>Correct!</strong></p><p style='font-size: 30px;'><strong>This rock is obsidian</strong></p>",0,corr_feedback,3,train,8,,,,,,,,,,,,,,,,,,,,,,,,
,,,,,,,,,,,html-button-response,390,2.0.0,1792397,664521e03117b782ed4fff45,4,24,1331,,,,,,,,,"<img src= ""rock_img/I_Pumice_16.jpg"" style=""width:8cm; height:6.79cm;""><p>What type of rock is this?</p>",7,class_response,3,train,9,Pumice,Pumice,16,TRUE,8,8,,,,,,,,,,,,,,,,,,
,,,,,,,,,,,html-button-response,391,2.0.0,1792868,664521e03117b782ed4fff45,4,24,470,,,,,,,,,"<img src= rock_img/I_Pumice_16.jpg style=""width:8cm; height:6.79cm;""><p style='font-size: 30px; color: green;'><strong>Correct!</strong></p><p style='font-size: 30px;'><strong>This rock is pumice</strong></p>",0,corr_feedback,3,train,9,,,,,,,,,,,,,,,,,,,,,,,,
,,,,,,,,,,,html-button-response,392,2.0.0,1794125,664521e03117b782ed4fff45,4,24,1255,,,,,,,,,"<img src= ""rock_img/I_Obsidian_10.jpg"" style=""width:8cm; height:6.260000000000001cm;""><p>What type of rock is this?</p>",4,class_response,3,train,10,Obsidian,Obsidian,10,TRUE,5,5,,,,,,,,,,,,,,,,,,
,,,,,,,,,,,html-button-response,393,2.0.0,1794702,664521e03117b782ed4fff45,4,24,576,,,,,,,,,"<img src= rock_img/I_Obsidian_10.jpg style=""width:8cm; height:6.260000000000001cm;""><p style='font-size: 30px; color: green;'><strong>Correct!</strong></p><p style='font-size: 30px;'><strong>This rock is obsidian</strong></p>",0,corr_feedback,3,train,10,,,,,,,,,,,,,,,,,,,,,,,,
,,,,,,,,,,,html-button-response,394,2.0.0,1796868,664521e03117b782ed4fff45,4,24,2165,,,,,,,,,"<img src= ""rock_img/I_Gabbro_15.jpg"" style=""width:8cm; height:6.29cm;""><p>What type of rock is this?</p>",6,class_response,3,train,11,Peridotite,Gabbro,15,FALSE,7,4,,,,,,,,,,,,,,,,,,
,,,,,,,,,,,html-button-response,395,2.0.0,1797923,664521e03117b782ed4fff45,4,24,1054,,,,,,,,,"<img src= rock_img/I_Gabbro_15.jpg style=""width:8cm; height:6.29cm;""><p style='font-size: 30px; color: red;'><strong>Incorrect!</strong></p><p style='font-size: 30px;'><strong>This rock is gabbro</strong></p>",0,corr_feedback,3,train,11,,,,,,,,,,,,,,,,,,,,,,,,
,,,,,,,,,,,html-button-response,396,2.0.0,1799947,664521e03117b782ed4fff45,4,24,2023,,,,,,,,,"<img src= ""rock_img/I_Andesite_03.jpg"" style=""width:8cm; height:5.73cm;""><p>What type of rock is this?</p>",0,class_response,3,train,12,Andesite,Andesite,3,TRUE,1,1,,,,,,,,,,,,,,,,,,
,,,,,,,,,,,html-button-response,397,2.0.0,1800520,664521e03117b782ed4fff45,4,24,572,,,,,,,,,"<img src= rock_img/I_Andesite_03.jpg style=""width:8cm; height:5.73cm;""><p style='font-size: 30px; color: green;'><strong>Correct!</strong></p><p style='font-size: 30px;'><strong>This rock is andesite</strong></p>",0,corr_feedback,3,train,12,,,,,,,,,,,,,,,,,,,,,,,,
,,,,,,,,,,,html-button-response,399,2.0.0,1801698,664521e03117b782ed4fff45,4,24,1176,,,,,,,,,,0,start_train,,,,,,,,,,,,,,,,,,,,,,,,,,,
,,,,,,,,,,,html-button-response,400,2.0.0,1804344,664521e03117b782ed4fff45,4,24,,,,,,,,,,,,cat_selection,3,train,1,,,,,,,2150.6,494.9000001,7,4,Peridotite,Gabbro,,,,,,,,,,,,
,,,,,,,,,,,paired-cat-display,401,1.0.0,1825376,664521e03117b782ed4fff45,4,24,,,,,,,,,,,,paired_cat_display,3,train,1,,,,,,,,,,,,,,,5831.5,15197.4,,darker. minimal specks,,,,"brighter in color, greenish",,
,,,,,,,,,,,html-button-response,402,2.0.0,1837015,664521e03117b782ed4fff45,4,24,,,,,,,,,,,,cat_selection,3,train,2,,,,,,,11110.9,527.1,4,1,Gabbro,Andesite,,,,,,,,,,,,
,,,,,,,,,,,paired-cat-display,403,1.0.0,1856649,664521e03117b782ed4fff45,4,24,,,,,,,,,,,,paired_cat_display,3,train,2,,,,,,,,,,,,,,"lighter in color, white specks",5872.3,13758.9,,darker in color,,,,,,
,,,,,,,,,,,html-button-response,404,2.0.0,1889978,664521e03117b782ed4fff45,4,24,,,,,,,,,,,,cat_selection,3,train,3,,,,,,,32622.8,705.1999999,1,4,Andesite,Gabbro,,,,,,,,,,,,
,,,,,,,,,,,paired-cat-display,405,1.0.0,1910535,664521e03117b782ed4fff45,4,24,,,,,,,,,,,,paired_cat_display,3,train,3,,,,,,,,,,,,,,more uniform specks,5868,14685.8,,"darker, not many specks",,,,,,
