width,height,webaudio,browser,browser_version,mobile,os,fullscreen,vsync_rate,webcam,microphone,trial_type,trial_index,plugin_version,time_elapsed,subjID,condition,stimID,rt,url,success,value,timeout,failed_images,failed_audio,failed_video,view_history,stimulus,response,trialType,cycle,phase,trial,resp,cat,token,corr,resp_num,cat_num,rt_ref,rt_paired,ref_cat_num,paired_cat_num,ref_cat,paired_cat,text_Pumice,text_Diorite,time_obs,time_resp,text_Andesite,text_Basalt,text_Gabbro,text_Obsidian,time_fb1,time_fb2,text_Peridotite,text_Pegmatite
1366,649,TRUE,chrome,103.0.0,FALSE,Chrome OS,TRUE,61.29,TRUE,TRUE,browser-check,0,2.0.0,1067,66d74b9d2a9bfcaf3ddbe8a3,4,18,,,,,,,,,,,,,,,,,,,,,,,,,,,,,,,,,,,,,,,
,,,,,,,,,,,external-html,1,2.0.0,37369,66d74b9d2a9bfcaf3ddbe8a3,4,18,36202,consent_form.html,,,,,,,,,,,,,,,,,,,,,,,,,,,,,,,,,,,,,
,,,,,,,,,,,fullscreen,2,2.0.0,71736,66d74b9d2a9bfcaf3ddbe8a3,4,18,33328,,TRUE,,,,,,,,,,,,,,,,,,,,,,,,,,,,,,,,,,,,
,,,,,,,,,,,call-function,3,2.0.0,71747,66d74b9d2a9bfcaf3ddbe8a3,4,18,,,,{},,,,,,,,,,,,,,,,,,,,,,,,,,,,,,,,,,,
,,,,,,,,,,,preload,4,2.0.0,74837,66d74b9d2a9bfcaf3ddbe8a3,4,18,,,TRUE,,FALSE,[],[],[],,,,,,,,,,,,,,,,,,,,,,,,,,,,,,,
,,,,,,,,,,,instructions,5,2.0.0,118650,66d74b9d2a9bfcaf3ddbe8a3,4,18,43806,,,,,,,,"[{""page_index"":0,""viewing_time"":8529},{""page_index"":1,""viewing_time"":17246},{""page_index"":2,""viewing_time"":18029}]",,,,,,,,,,,,,,,,,,,,,,,,,,,,,,
,,,,,,,,,,,html-button-response,6,2.0.0,121071,66d74b9d2a9bfcaf3ddbe8a3,4,18,2411,,,,,,,,,,0,start_test,,,,,,,,,,,,,,,,,,,,,,,,,,,
,,,,,,,,,,,html-button-response,7,2.0.0,129552,66d74b9d2a9bfcaf3ddbe8a3,4,18,8470,,,,,,,,,"<img src= ""rock_img/I_Pumice_13.jpg"" style=""width:8cm; height:8.200000000000001cm;""><p>What type of rock is this?</p>",2,class_response,0,test,1,Diorite,Pumice,13,FALSE,3,8,,,,,,,,,,,,,,,,,,
,,,,,,,,,,,html-keyboard-response,8,2.0.0,130062,66d74b9d2a9bfcaf3ddbe8a3,4,18,null,,,,,,,,,<p style='font-size: 30px;'><strong>Okay</strong></p>,null,neutral_feedback,0,test,1,,,,,,,,,,,,,,,,,,,,,,,,
,,,,,,,,,,,html-button-response,9,2.0.0,140678,66d74b9d2a9bfcaf3ddbe8a3,4,18,10600,,,,,,,,,"<img src= ""rock_img/I_Gabbro_10.jpg"" style=""width:8cm; height:5.680000000000001cm;""><p>What type of rock is this?</p>",5,class_response,0,test,2,Pegmatite,Gabbro,10,FALSE,6,4,,,,,,,,,,,,,,,,,,
,,,,,,,,,,,html-keyboard-response,10,2.0.0,141185,66d74b9d2a9bfcaf3ddbe8a3,4,18,null,,,,,,,,,<p style='font-size: 30px;'><strong>Okay</strong></p>,null,neutral_feedback,0,test,2,,,,,,,,,,,,,,,,,,,,,,,,
,,,,,,,,,,,html-button-response,11,2.0.0,143484,66d74b9d2a9bfcaf3ddbe8a3,4,18,2287,,,,,,,,,"<img src= ""rock_img/I_Peridotite_07.jpg"" style=""width:8cm; height:4.83cm;""><p>What type of rock is this?</p>",6,class_response,0,test,3,Peridotite,Peridotite,7,TRUE,7,7,,,,,,,,,,,,,,,,,,
,,,,,,,,,,,html-keyboard-response,12,2.0.0,143993,66d74b9d2a9bfcaf3ddbe8a3,4,18,null,,,,,,,,,<p style='font-size: 30px;'><strong>Okay</strong></p>,null,neutral_feedback,0,test,3,,,,,,,,,,,,,,,,,,,,,,,,
,,,,,,,,,,,html-button-response,13,2.0.0,148333,66d74b9d2a9bfcaf3ddbe8a3,4,18,4325,,,,,,,,,"<img src= ""rock_img/I_Andesite_07.jpg"" style=""width:8cm; height:5.93cm;""><p>What type of rock is this?</p>",0,class_response,0,test,4,Andesite,Andesite,7,TRUE,1,1,,,,,,,,,,,,,,,,,,
,,,,,,,,,,,html-keyboard-response,14,2.0.0,148839,66d74b9d2a9bfcaf3ddbe8a3,4,18,null,,,,,,,,,<p style='font-size: 30px;'><strong>Okay</strong></p>,null,neutral_feedback,0,test,4,,,,,,,,,,,,,,,,,,,,,,,,
,,,,,,,,,,,html-button-response,15,2.0.0,151734,66d74b9d2a9bfcaf3ddbe8a3,4,18,2882,,,,,,,,,"<img src= ""rock_img/I_Obsidian_06.jpg"" style=""width:8cm; height:6.8cm;""><p>What type of rock is this?</p>",3,class_response,0,test,5,Gabbro,Obsidian,6,FALSE,4,5,,,,,,,,,,,,,,,,,,
,,,,,,,,,,,html-keyboard-response,16,2.0.0,152241,66d74b9d2a9bfcaf3ddbe8a3,4,18,null,,,,,,,,,<p style='font-size: 30px;'><strong>Okay</strong></p>,null,neutral_feedback,0,test,5,,,,,,,,,,,,,,,,,,,,,,,,
,,,,,,,,,,,html-button-response,17,2.0.0,156094,66d74b9d2a9bfcaf3ddbe8a3,4,18,3839,,,,,,,,,"<img src= ""rock_img/I_Gabbro_05.jpg"" style=""width:8cm; height:6cm;""><p>What type of rock is this?</p>",4,class_response,0,test,6,Obsidian,Gabbro,5,FALSE,5,4,,,,,,,,,,,,,,,,,,
,,,,,,,,,,,html-keyboard-response,18,2.0.0,156600,66d74b9d2a9bfcaf3ddbe8a3,4,18,null,,,,,,,,,<p style='font-size: 30px;'><strong>Okay</strong></p>,null,neutral_feedback,0,test,6,,,,,,,,,,,,,,,,,,,,,,,,
,,,,,,,,,,,html-button-response,19,2.0.0,159310,66d74b9d2a9bfcaf3ddbe8a3,4,18,2696,,,,,,,,,"<img src= ""rock_img/I_Andesite_11.jpg"" style=""width:8cm; height:4.92cm;""><p>What type of rock is this?</p>",6,class_response,0,test,7,Peridotite,Andesite,11,FALSE,7,1,,,,,,,,,,,,,,,,,,
,,,,,,,,,,,html-keyboard-response,20,2.0.0,159817,66d74b9d2a9bfcaf3ddbe8a3,4,18,null,,,,,,,,,<p style='font-size: 30px;'><strong>Okay</strong></p>,null,neutral_feedback,0,test,7,,,,,,,,,,,,,,,,,,,,,,,,
,,,,,,,,,,,html-button-response,21,2.0.0,165748,66d74b9d2a9bfcaf3ddbe8a3,4,18,5919,,,,,,,,,"<img src= ""rock_img/I_Pegmatite_11.jpg"" style=""width:8cm; height:8.14cm;""><p>What type of rock is this?</p>",2,class_response,0,test,8,Diorite,Pegmatite,11,FALSE,3,6,,,,,,,,,,,,,,,,,,
,,,,,,,,,,,html-keyboard-response,22,2.0.0,166254,66d74b9d2a9bfcaf3ddbe8a3,4,18,null,,,,,,,,,<p style='font-size: 30px;'><strong>Okay</strong></p>,null,neutral_feedback,0,test,8,,,,,,,,,,,,,,,,,,,,,,,,
,,,,,,,,,,,html-button-response,23,2.0.0,168217,66d74b9d2a9bfcaf3ddbe8a3,4,18,1951,,,,,,,,,"<img src= ""rock_img/I_Pegmatite_07.jpg"" style=""width:8cm; height:6.7cm;""><p>What type of rock is this?</p>",7,class_response,0,test,9,Pumice,Pegmatite,7,FALSE,8,6,,,,,,,,,,,,,,,,,,
,,,,,,,,,,,html-keyboard-response,24,2.0.0,168724,66d74b9d2a9bfcaf3ddbe8a3,4,18,null,,,,,,,,,<p style='font-size: 30px;'><strong>Okay</strong></p>,null,neutral_feedback,0,test,9,,,,,,,,,,,,,,,,,,,,,,,,
,,,,,,,,,,,html-button-response,25,2.0.0,172102,66d74b9d2a9bfcaf3ddbe8a3,4,18,3366,,,,,,,,,"<img src= ""rock_img/I_Peridotite_04.jpg"" style=""width:8cm; height:6.680000000000001cm;""><p>What type of rock is this?</p>",0,class_response,0,test,10,Andesite,Peridotite,4,FALSE,1,7,,,,,,,,,,,,,,,,,,
,,,,,,,,,,,html-keyboard-response,26,2.0.0,172607,66d74b9d2a9bfcaf3ddbe8a3,4,18,null,,,,,,,,,<p style='font-size: 30px;'><strong>Okay</strong></p>,null,neutral_feedback,0,test,10,,,,,,,,,,,,,,,,,,,,,,,,
,,,,,,,,,,,html-button-response,27,2.0.0,175307,66d74b9d2a9bfcaf3ddbe8a3,4,18,2689,,,,,,,,,"<img src= ""rock_img/I_Basalt_16.jpg"" style=""width:8cm; height:7.659999999999999cm;""><p>What type of rock is this?</p>",2,class_response,0,test,11,Diorite,Basalt,16,FALSE,3,2,,,,,,,,,,,,,,,,,,
,,,,,,,,,,,html-keyboard-response,28,2.0.0,175816,66d74b9d2a9bfcaf3ddbe8a3,4,18,null,,,,,,,,,<p style='font-size: 30px;'><strong>Okay</strong></p>,null,neutral_feedback,0,test,11,,,,,,,,,,,,,,,,,,,,,,,,
,,,,,,,,,,,html-button-response,29,2.0.0,177788,66d74b9d2a9bfcaf3ddbe8a3,4,18,1958,,,,,,,,,"<img src= ""rock_img/I_Gabbro_11.jpg"" style=""width:8cm; height:6.2cm;""><p>What type of rock is this?</p>",3,class_response,0,test,12,Gabbro,Gabbro,11,TRUE,4,4,,,,,,,,,,,,,,,,,,
,,,,,,,,,,,html-keyboard-response,30,2.0.0,178294,66d74b9d2a9bfcaf3ddbe8a3,4,18,null,,,,,,,,,<p style='font-size: 30px;'><strong>Okay</strong></p>,null,neutral_feedback,0,test,12,,,,,,,,,,,,,,,,,,,,,,,,
,,,,,,,,,,,html-button-response,31,2.0.0,180009,66d74b9d2a9bfcaf3ddbe8a3,4,18,1701,,,,,,,,,"<img src= ""rock_img/I_Basalt_04.jpg"" style=""width:8cm; height:7.53cm;""><p>What type of rock is this?</p>",7,class_response,0,test,13,Pumice,Basalt,4,FALSE,8,2,,,,,,,,,,,,,,,,,,
,,,,,,,,,,,html-keyboard-response,32,2.0.0,180515,66d74b9d2a9bfcaf3ddbe8a3,4,18,null,,,,,,,,,<p style='font-size: 30px;'><strong>Okay</strong></p>,null,neutral_feedback,0,test,13,,,,,,,,,,,,,,,,,,,,,,,,
,,,,,,,,,,,html-button-response,33,2.0.0,182619,66d74b9d2a9bfcaf3ddbe8a3,4,18,2093,,,,,,,,,"<img src= ""rock_img/I_Diorite_14.jpg"" style=""width:8cm; height:5.71cm;""><p>What type of rock is this?</p>",6,class_response,0,test,14,Peridotite,Diorite,14,FALSE,7,3,,,,,,,,,,,,,,,,,,
,,,,,,,,,,,html-keyboard-response,34,2.0.0,183125,66d74b9d2a9bfcaf3ddbe8a3,4,18,null,,,,,,,,,<p style='font-size: 30px;'><strong>Okay</strong></p>,null,neutral_feedback,0,test,14,,,,,,,,,,,,,,,,,,,,,,,,
,,,,,,,,,,,html-button-response,35,2.0.0,186387,66d74b9d2a9bfcaf3ddbe8a3,4,18,3248,,,,,,,,,"<img src= ""rock_img/I_Peridotite_02.jpg"" style=""width:8cm; height:5.859999999999999cm;""><p>What type of rock is this?</p>",5,class_response,0,test,15,Pegmatite,Peridotite,2,FALSE,6,7,,,,,,,,,,,,,,,,,,
,,,,,,,,,,,html-keyboard-response,36,2.0.0,186892,66d74b9d2a9bfcaf3ddbe8a3,4,18,null,,,,,,,,,<p style='font-size: 30px;'><strong>Okay</strong></p>,null,neutral_feedback,0,test,15,,,,,,,,,,,,,,,,,,,,,,,,
,,,,,,,,,,,html-button-response,37,2.0.0,188394,66d74b9d2a9bfcaf3ddbe8a3,4,18,1490,,,,,,,,,"<img src= ""rock_img/I_Andesite_16.jpg"" style=""width:8cm; height:6.010000000000001cm;""><p>What type of rock is this?</p>",4,class_response,0,test,16,Obsidian,Andesite,16,FALSE,5,1,,,,,,,,,,,,,,,,,,
,,,,,,,,,,,html-keyboard-response,38,2.0.0,188901,66d74b9d2a9bfcaf3ddbe8a3,4,18,null,,,,,,,,,<p style='font-size: 30px;'><strong>Okay</strong></p>,null,neutral_feedback,0,test,16,,,,,,,,,,,,,,,,,,,,,,,,
,,,,,,,,,,,html-button-response,39,2.0.0,190458,66d74b9d2a9bfcaf3ddbe8a3,4,18,1545,,,,,,,,,"<img src= ""rock_img/I_Andesite_02.jpg"" style=""width:8cm; height:8.5cm;""><p>What type of rock is this?</p>",1,class_response,0,test,17,Basalt,Andesite,2,FALSE,2,1,,,,,,,,,,,,,,,,,,
,,,,,,,,,,,html-keyboard-response,40,2.0.0,190965,66d74b9d2a9bfcaf3ddbe8a3,4,18,null,,,,,,,,,<p style='font-size: 30px;'><strong>Okay</strong></p>,null,neutral_feedback,0,test,17,,,,,,,,,,,,,,,,,,,,,,,,
,,,,,,,,,,,html-button-response,41,2.0.0,192405,66d74b9d2a9bfcaf3ddbe8a3,4,18,1428,,,,,,,,,"<img src= ""rock_img/I_Obsidian_14.jpg"" style=""width:8cm; height:7.64cm;""><p>What type of rock is this?</p>",7,class_response,0,test,18,Pumice,Obsidian,14,FALSE,8,5,,,,,,,,,,,,,,,,,,
,,,,,,,,,,,html-keyboard-response,42,2.0.0,192912,66d74b9d2a9bfcaf3ddbe8a3,4,18,null,,,,,,,,,<p style='font-size: 30px;'><strong>Okay</strong></p>,null,neutral_feedback,0,test,18,,,,,,,,,,,,,,,,,,,,,,,,
,,,,,,,,,,,html-button-response,43,2.0.0,194437,66d74b9d2a9bfcaf3ddbe8a3,4,18,1515,,,,,,,,,"<img src= ""rock_img/I_Diorite_09.jpg"" style=""width:8cm; height:5.27cm;""><p>What type of rock is this?</p>",6,class_response,0,test,19,Peridotite,Diorite,9,FALSE,7,3,,,,,,,,,,,,,,,,,,
,,,,,,,,,,,html-keyboard-response,44,2.0.0,194945,66d74b9d2a9bfcaf3ddbe8a3,4,18,null,,,,,,,,,<p style='font-size: 30px;'><strong>Okay</strong></p>,null,neutral_feedback,0,test,19,,,,,,,,,,,,,,,,,,,,,,,,
,,,,,,,,,,,html-button-response,45,2.0.0,196085,66d74b9d2a9bfcaf3ddbe8a3,4,18,1131,,,,,,,,,"<img src= ""rock_img/I_Diorite_08.jpg"" style=""width:8cm; height:6.37cm;""><p>What type of rock is this?</p>",2,class_response,0,test,20,Diorite,Diorite,8,TRUE,3,3,,,,,,,,,,,,,,,,,,
,,,,,,,,,,,html-keyboard-response,46,2.0.0,196592,66d74b9d2a9bfcaf3ddbe8a3,4,18,null,,,,,,,,,<p style='font-size: 30px;'><strong>Okay</strong></p>,null,neutral_feedback,0,test,20,,,,,,,,,,,,,,,,,,,,,,,,
,,,,,,,,,,,html-button-response,47,2.0.0,199254,66d74b9d2a9bfcaf3ddbe8a3,4,18,2652,,,,,,,,,"<img src= ""rock_img/I_Basalt_06.jpg"" style=""width:8cm; height:7.06cm;""><p>What type of rock is this?</p>",7,class_response,0,test,21,Pumice,Basalt,6,FALSE,8,2,,,,,,,,,,,,,,,,,,
,,,,,,,,,,,html-keyboard-response,48,2.0.0,199759,66d74b9d2a9bfcaf3ddbe8a3,4,18,null,,,,,,,,,<p style='font-size: 30px;'><strong>Okay</strong></p>,null,neutral_feedback,0,test,21,,,,,,,,,,,,,,,,,,,,,,,,
,,,,,,,,,,,html-button-response,49,2.0.0,201431,66d74b9d2a9bfcaf3ddbe8a3,4,18,1660,,,,,,,,,"<img src= ""rock_img/I_Andesite_05.jpg"" style=""width:8cm; height:4.12cm;""><p>What type of rock is this?</p>",3,class_response,0,test,22,Gabbro,Andesite,5,FALSE,4,1,,,,,,,,,,,,,,,,,,
,,,,,,,,,,,html-keyboard-response,50,2.0.0,201938,66d74b9d2a9bfcaf3ddbe8a3,4,18,null,,,,,,,,,<p style='font-size: 30px;'><strong>Okay</strong></p>,null,neutral_feedback,0,test,22,,,,,,,,,,,,,,,,,,,,,,,,
,,,,,,,,,,,html-button-response,51,2.0.0,203313,66d74b9d2a9bfcaf3ddbe8a3,4,18,1358,,,,,,,,,"<img src= ""rock_img/I_Peridotite_15.jpg"" style=""width:8cm; height:6cm;""><p>What type of rock is this?</p>",3,class_response,0,test,23,Gabbro,Peridotite,15,FALSE,4,7,,,,,,,,,,,,,,,,,,
,,,,,,,,,,,html-keyboard-response,52,2.0.0,203818,66d74b9d2a9bfcaf3ddbe8a3,4,18,null,,,,,,,,,<p style='font-size: 30px;'><strong>Okay</strong></p>,null,neutral_feedback,0,test,23,,,,,,,,,,,,,,,,,,,,,,,,
,,,,,,,,,,,html-button-response,53,2.0.0,206613,66d74b9d2a9bfcaf3ddbe8a3,4,18,2785,,,,,,,,,"<img src= ""rock_img/I_Pumice_16.jpg"" style=""width:8cm; height:6.79cm;""><p>What type of rock is this?</p>",6,class_response,0,test,24,Peridotite,Pumice,16,FALSE,7,8,,,,,,,,,,,,,,,,,,
,,,,,,,,,,,html-keyboard-response,54,2.0.0,207118,66d74b9d2a9bfcaf3ddbe8a3,4,18,null,,,,,,,,,<p style='font-size: 30px;'><strong>Okay</strong></p>,null,neutral_feedback,0,test,24,,,,,,,,,,,,,,,,,,,,,,,,
,,,,,,,,,,,html-button-response,55,2.0.0,210409,66d74b9d2a9bfcaf3ddbe8a3,4,18,3283,,,,,,,,,"<img src= ""rock_img/I_Pegmatite_09.jpg"" style=""width:8cm; height:4.03cm;""><p>What type of rock is this?</p>",0,class_response,0,test,25,Andesite,Pegmatite,9,FALSE,1,6,,,,,,,,,,,,,,,,,,
,,,,,,,,,,,html-keyboard-response,56,2.0.0,210913,66d74b9d2a9bfcaf3ddbe8a3,4,18,null,,,,,,,,,<p style='font-size: 30px;'><strong>Okay</strong></p>,null,neutral_feedback,0,test,25,,,,,,,,,,,,,,,,,,,,,,,,
,,,,,,,,,,,html-button-response,57,2.0.0,213500,66d74b9d2a9bfcaf3ddbe8a3,4,18,2576,,,,,,,,,"<img src= ""rock_img/I_Basalt_05.jpg"" style=""width:8cm; height:8.18cm;""><p>What type of rock is this?</p>",4,class_response,0,test,26,Obsidian,Basalt,5,FALSE,5,2,,,,,,,,,,,,,,,,,,
,,,,,,,,,,,html-keyboard-response,58,2.0.0,214005,66d74b9d2a9bfcaf3ddbe8a3,4,18,null,,,,,,,,,<p style='font-size: 30px;'><strong>Okay</strong></p>,null,neutral_feedback,0,test,26,,,,,,,,,,,,,,,,,,,,,,,,
,,,,,,,,,,,html-button-response,59,2.0.0,217059,66d74b9d2a9bfcaf3ddbe8a3,4,18,3043,,,,,,,,,"<img src= ""rock_img/I_Andesite_03.jpg"" style=""width:8cm; height:5.73cm;""><p>What type of rock is this?</p>",1,class_response,0,test,27,Basalt,Andesite,3,FALSE,2,1,,,,,,,,,,,,,,,,,,
,,,,,,,,,,,html-keyboard-response,60,2.0.0,217564,66d74b9d2a9bfcaf3ddbe8a3,4,18,null,,,,,,,,,<p style='font-size: 30px;'><strong>Okay</strong></p>,null,neutral_feedback,0,test,27,,,,,,,,,,,,,,,,,,,,,,,,
,,,,,,,,,,,html-button-response,61,2.0.0,219479,66d74b9d2a9bfcaf3ddbe8a3,4,18,1904,,,,,,,,,"<img src= ""rock_img/I_Pegmatite_05.jpg"" style=""width:8cm; height:7.300000000000001cm;""><p>What type of rock is this?</p>",5,class_response,0,test,28,Pegmatite,Pegmatite,5,TRUE,6,6,,,,,,,,,,,,,,,,,,
,,,,,,,,,,,html-keyboard-response,62,2.0.0,219985,66d74b9d2a9bfcaf3ddbe8a3,4,18,null,,,,,,,,,<p style='font-size: 30px;'><strong>Okay</strong></p>,null,neutral_feedback,0,test,28,,,,,,,,,,,,,,,,,,,,,,,,
,,,,,,,,,,,html-button-response,63,2.0.0,221448,66d74b9d2a9bfcaf3ddbe8a3,4,18,1451,,,,,,,,,"<img src= ""rock_img/I_Obsidian_09.jpg"" style=""width:8cm; height:5cm;""><p>What type of rock is this?</p>",7,class_response,0,test,29,Pumice,Obsidian,9,FALSE,8,5,,,,,,,,,,,,,,,,,,
,,,,,,,,,,,html-keyboard-response,64,2.0.0,221955,66d74b9d2a9bfcaf3ddbe8a3,4,18,null,,,,,,,,,<p style='font-size: 30px;'><strong>Okay</strong></p>,null,neutral_feedback,0,test,29,,,,,,,,,,,,,,,,,,,,,,,,
,,,,,,,,,,,html-button-response,65,2.0.0,224073,66d74b9d2a9bfcaf3ddbe8a3,4,18,2111,,,,,,,,,"<img src= ""rock_img/I_Obsidian_16.jpg"" style=""width:8cm; height:9.3cm;""><p>What type of rock is this?</p>",3,class_response,0,test,30,Gabbro,Obsidian,16,FALSE,4,5,,,,,,,,,,,,,,,,,,
,,,,,,,,,,,html-keyboard-response,66,2.0.0,224577,66d74b9d2a9bfcaf3ddbe8a3,4,18,null,,,,,,,,,<p style='font-size: 30px;'><strong>Okay</strong></p>,null,neutral_feedback,0,test,30,,,,,,,,,,,,,,,,,,,,,,,,
,,,,,,,,,,,html-button-response,67,2.0.0,226942,66d74b9d2a9bfcaf3ddbe8a3,4,18,2354,,,,,,,,,"<img src= ""rock_img/I_Obsidian_07.jpg"" style=""width:8cm; height:4.76cm;""><p>What type of rock is this?</p>",2,class_response,0,test,31,Diorite,Obsidian,7,FALSE,3,5,,,,,,,,,,,,,,,,,,
,,,,,,,,,,,html-keyboard-response,68,2.0.0,227447,66d74b9d2a9bfcaf3ddbe8a3,4,18,null,,,,,,,,,<p style='font-size: 30px;'><strong>Okay</strong></p>,null,neutral_feedback,0,test,31,,,,,,,,,,,,,,,,,,,,,,,,
,,,,,,,,,,,html-button-response,69,2.0.0,229013,66d74b9d2a9bfcaf3ddbe8a3,4,18,1554,,,,,,,,,"<img src= ""rock_img/I_Obsidian_02.jpg"" style=""width:8cm; height:7.51cm;""><p>What type of rock is this?</p>",7,class_response,0,test,32,Pumice,Obsidian,2,FALSE,8,5,,,,,,,,,,,,,,,,,,
,,,,,,,,,,,html-keyboard-response,70,2.0.0,229519,66d74b9d2a9bfcaf3ddbe8a3,4,18,null,,,,,,,,,<p style='font-size: 30px;'><strong>Okay</strong></p>,null,neutral_feedback,0,test,32,,,,,,,,,,,,,,,,,,,,,,,,
,,,,,,,,,,,html-button-response,71,2.0.0,232190,66d74b9d2a9bfcaf3ddbe8a3,4,18,2661,,,,,,,,,"<img src= ""rock_img/I_Diorite_16.jpg"" style=""width:8cm; height:6.74cm;""><p>What type of rock is this?</p>",0,class_response,0,test,33,Andesite,Diorite,16,FALSE,1,3,,,,,,,,,,,,,,,,,,
,,,,,,,,,,,html-keyboard-response,72,2.0.0,232695,66d74b9d2a9bfcaf3ddbe8a3,4,18,null,,,,,,,,,<p style='font-size: 30px;'><strong>Okay</strong></p>,null,neutral_feedback,0,test,33,,,,,,,,,,,,,,,,,,,,,,,,
,,,,,,,,,,,html-button-response,73,2.0.0,234002,66d74b9d2a9bfcaf3ddbe8a3,4,18,1291,,,,,,,,,"<img src= ""rock_img/I_Gabbro_09.jpg"" style=""width:8cm; height:7.279999999999999cm;""><p>What type of rock is this?</p>",1,class_response,0,test,34,Basalt,Gabbro,9,FALSE,2,4,,,,,,,,,,,,,,,,,,
,,,,,,,,,,,html-keyboard-response,74,2.0.0,234507,66d74b9d2a9bfcaf3ddbe8a3,4,18,null,,,,,,,,,<p style='font-size: 30px;'><strong>Okay</strong></p>,null,neutral_feedback,0,test,34,,,,,,,,,,,,,,,,,,,,,,,,
,,,,,,,,,,,html-button-response,75,2.0.0,235729,66d74b9d2a9bfcaf3ddbe8a3,4,18,1208,,,,,,,,,"<img src= ""rock_img/I_Basalt_09.jpg"" style=""width:8cm; height:6.2cm;""><p>What type of rock is this?</p>",5,class_response,0,test,35,Pegmatite,Basalt,9,FALSE,6,2,,,,,,,,,,,,,,,,,,
,,,,,,,,,,,html-keyboard-response,76,2.0.0,236234,66d74b9d2a9bfcaf3ddbe8a3,4,18,null,,,,,,,,,<p style='font-size: 30px;'><strong>Okay</strong></p>,null,neutral_feedback,0,test,35,,,,,,,,,,,,,,,,,,,,,,,,
,,,,,,,,,,,html-button-response,77,2.0.0,237708,66d74b9d2a9bfcaf3ddbe8a3,4,18,1460,,,,,,,,,"<img src= ""rock_img/I_Pumice_06.jpg"" style=""width:8cm; height:6.9399999999999995cm;""><p>What type of rock is this?</p>",2,class_response,0,test,36,Diorite,Pumice,6,FALSE,3,8,,,,,,,,,,,,,,,,,,
,,,,,,,,,,,html-keyboard-response,78,2.0.0,238215,66d74b9d2a9bfcaf3ddbe8a3,4,18,null,,,,,,,,,<p style='font-size: 30px;'><strong>Okay</strong></p>,null,neutral_feedback,0,test,36,,,,,,,,,,,,,,,,,,,,,,,,
,,,,,,,,,,,html-button-response,79,2.0.0,239742,66d74b9d2a9bfcaf3ddbe8a3,4,18,1514,,,,,,,,,"<img src= ""rock_img/I_Diorite_13.jpg"" style=""width:8cm; height:6.29cm;""><p>What type of rock is this?</p>",6,class_response,0,test,37,Peridotite,Diorite,13,FALSE,7,3,,,,,,,,,,,,,,,,,,
,,,,,,,,,,,html-keyboard-response,80,2.0.0,240247,66d74b9d2a9bfcaf3ddbe8a3,4,18,null,,,,,,,,,<p style='font-size: 30px;'><strong>Okay</strong></p>,null,neutral_feedback,0,test,37,,,,,,,,,,,,,,,,,,,,,,,,
,,,,,,,,,,,html-button-response,81,2.0.0,241636,66d74b9d2a9bfcaf3ddbe8a3,4,18,1376,,,,,,,,,"<img src= ""rock_img/I_Pumice_15.jpg"" style=""width:8cm; height:7.86cm;""><p>What type of rock is this?</p>",3,class_response,0,test,38,Gabbro,Pumice,15,FALSE,4,8,,,,,,,,,,,,,,,,,,
,,,,,,,,,,,html-keyboard-response,82,2.0.0,242144,66d74b9d2a9bfcaf3ddbe8a3,4,18,null,,,,,,,,,<p style='font-size: 30px;'><strong>Okay</strong></p>,null,neutral_feedback,0,test,38,,,,,,,,,,,,,,,,,,,,,,,,
,,,,,,,,,,,html-button-response,83,2.0.0,243435,66d74b9d2a9bfcaf3ddbe8a3,4,18,1280,,,,,,,,,"<img src= ""rock_img/I_Gabbro_12.jpg"" style=""width:8cm; height:7.800000000000001cm;""><p>What type of rock is this?</p>",6,class_response,0,test,39,Peridotite,Gabbro,12,FALSE,7,4,,,,,,,,,,,,,,,,,,
,,,,,,,,,,,html-keyboard-response,84,2.0.0,243939,66d74b9d2a9bfcaf3ddbe8a3,4,18,null,,,,,,,,,<p style='font-size: 30px;'><strong>Okay</strong></p>,null,neutral_feedback,0,test,39,,,,,,,,,,,,,,,,,,,,,,,,
,,,,,,,,,,,html-button-response,85,2.0.0,246302,66d74b9d2a9bfcaf3ddbe8a3,4,18,2348,,,,,,,,,"<img src= ""rock_img/I_Basalt_02.jpg"" style=""width:8cm; height:6.45cm;""><p>What type of rock is this?</p>",7,class_response,0,test,40,Pumice,Basalt,2,FALSE,8,2,,,,,,,,,,,,,,,,,,
,,,,,,,,,,,html-keyboard-response,86,2.0.0,246806,66d74b9d2a9bfcaf3ddbe8a3,4,18,null,,,,,,,,,<p style='font-size: 30px;'><strong>Okay</strong></p>,null,neutral_feedback,0,test,40,,,,,,,,,,,,,,,,,,,,,,,,
,,,,,,,,,,,html-button-response,87,2.0.0,248754,66d74b9d2a9bfcaf3ddbe8a3,4,18,1935,,,,,,,,,"<img src= ""rock_img/I_Pegmatite_06.jpg"" style=""width:8cm; height:5.17cm;""><p>What type of rock is this?</p>",4,class_response,0,test,41,Obsidian,Pegmatite,6,FALSE,5,6,,,,,,,,,,,,,,,,,,
,,,,,,,,,,,html-keyboard-response,88,2.0.0,249259,66d74b9d2a9bfcaf3ddbe8a3,4,18,null,,,,,,,,,<p style='font-size: 30px;'><strong>Okay</strong></p>,null,neutral_feedback,0,test,41,,,,,,,,,,,,,,,,,,,,,,,,
,,,,,,,,,,,html-button-response,89,2.0.0,253020,66d74b9d2a9bfcaf3ddbe8a3,4,18,3749,,,,,,,,,"<img src= ""rock_img/I_Gabbro_15.jpg"" style=""width:8cm; height:6.29cm;""><p>What type of rock is this?</p>",1,class_response,0,test,42,Basalt,Gabbro,15,FALSE,2,4,,,,,,,,,,,,,,,,,,
,,,,,,,,,,,html-keyboard-response,90,2.0.0,253524,66d74b9d2a9bfcaf3ddbe8a3,4,18,null,,,,,,,,,<p style='font-size: 30px;'><strong>Okay</strong></p>,null,neutral_feedback,0,test,42,,,,,,,,,,,,,,,,,,,,,,,,
,,,,,,,,,,,html-button-response,91,2.0.0,255291,66d74b9d2a9bfcaf3ddbe8a3,4,18,1757,,,,,,,,,"<img src= ""rock_img/I_Peridotite_05.jpg"" style=""width:8cm; height:7.1499999999999995cm;""><p>What type of rock is this?</p>",6,class_response,0,test,43,Peridotite,Peridotite,5,TRUE,7,7,,,,,,,,,,,,,,,,,,
,,,,,,,,,,,html-keyboard-response,92,2.0.0,255796,66d74b9d2a9bfcaf3ddbe8a3,4,18,null,,,,,,,,,<p style='font-size: 30px;'><strong>Okay</strong></p>,null,neutral_feedback,0,test,43,,,,,,,,,,,,,,,,,,,,,,,,
,,,,,,,,,,,html-button-response,93,2.0.0,256958,66d74b9d2a9bfcaf3ddbe8a3,4,18,1152,,,,,,,,,"<img src= ""rock_img/I_Pegmatite_15.jpg"" style=""width:8cm; height:6cm;""><p>What type of rock is this?</p>",3,class_response,0,test,44,Gabbro,Pegmatite,15,FALSE,4,6,,,,,,,,,,,,,,,,,,
,,,,,,,,,,,html-keyboard-response,94,2.0.0,257463,66d74b9d2a9bfcaf3ddbe8a3,4,18,null,,,,,,,,,<p style='font-size: 30px;'><strong>Okay</strong></p>,null,neutral_feedback,0,test,44,,,,,,,,,,,,,,,,,,,,,,,,
,,,,,,,,,,,html-button-response,95,2.0.0,259165,66d74b9d2a9bfcaf3ddbe8a3,4,18,1689,,,,,,,,,"<img src= ""rock_img/I_Pumice_02.jpg"" style=""width:8cm; height:7.3999999999999995cm;""><p>What type of rock is this?</p>",2,class_response,0,test,45,Diorite,Pumice,2,FALSE,3,8,,,,,,,,,,,,,,,,,,
,,,,,,,,,,,html-keyboard-response,96,2.0.0,259670,66d74b9d2a9bfcaf3ddbe8a3,4,18,null,,,,,,,,,<p style='font-size: 30px;'><strong>Okay</strong></p>,null,neutral_feedback,0,test,45,,,,,,,,,,,,,,,,,,,,,,,,
,,,,,,,,,,,html-button-response,97,2.0.0,261465,66d74b9d2a9bfcaf3ddbe8a3,4,18,1789,,,,,,,,,"<img src= ""rock_img/I_Peridotite_16.jpg"" style=""width:8cm; height:6.989999999999999cm;""><p>What type of rock is this?</p>",0,class_response,0,test,46,Andesite,Peridotite,16,FALSE,1,7,,,,,,,,,,,,,,,,,,
,,,,,,,,,,,html-keyboard-response,98,2.0.0,261972,66d74b9d2a9bfcaf3ddbe8a3,4,18,null,,,,,,,,,<p style='font-size: 30px;'><strong>Okay</strong></p>,null,neutral_feedback,0,test,46,,,,,,,,,,,,,,,,,,,,,,,,
,,,,,,,,,,,html-button-response,99,2.0.0,263067,66d74b9d2a9bfcaf3ddbe8a3,4,18,1086,,,,,,,,,"<img src= ""rock_img/I_Diorite_02.jpg"" style=""width:8cm; height:6.27cm;""><p>What type of rock is this?</p>",5,class_response,0,test,47,Pegmatite,Diorite,2,FALSE,6,3,,,,,,,,,,,,,,,,,,
,,,,,,,,,,,html-keyboard-response,100,2.0.0,263572,66d74b9d2a9bfcaf3ddbe8a3,4,18,null,,,,,,,,,<p style='font-size: 30px;'><strong>Okay</strong></p>,null,neutral_feedback,0,test,47,,,,,,,,,,,,,,,,,,,,,,,,
,,,,,,,,,,,html-button-response,101,2.0.0,264509,66d74b9d2a9bfcaf3ddbe8a3,4,18,926,,,,,,,,,"<img src= ""rock_img/I_Pumice_05.jpg"" style=""width:8cm; height:7.25cm;""><p>What type of rock is this?</p>",4,class_response,0,test,48,Obsidian,Pumice,5,FALSE,5,8,,,,,,,,,,,,,,,,,,
,,,,,,,,,,,html-keyboard-response,102,2.0.0,265014,66d74b9d2a9bfcaf3ddbe8a3,4,18,null,,,,,,,,,<p style='font-size: 30px;'><strong>Okay</strong></p>,null,neutral_feedback,0,test,48,,,,,,,,,,,,,,,,,,,,,,,,
,,,,,,,,,,,instructions,103,2.0.0,286637,66d74b9d2a9bfcaf3ddbe8a3,4,18,21441,,,,,,,,"[{""page_index"":0,""viewing_time"":18050},{""page_index"":1,""viewing_time"":3391}]",,,,,,,,,,,,,,,,,,,,,,,,,,,,,,
,,,,,,,,,,,html-button-response,104,2.0.0,294283,66d74b9d2a9bfcaf3ddbe8a3,4,18,7640,,,,,,,,,,0,start_train,,,,,,,,,,,,,,,,,,,,,,,,,,,
,,,,,,,,,,,html-button-response,106,2.0.0,299950,66d74b9d2a9bfcaf3ddbe8a3,4,18,5660,,,,,,,,,"<img src= ""rock_img/I_Obsidian_04.jpg"" style=""width:8cm; height:6.930000000000001cm;""><p>What type of rock is this?</p>",0,class_response,1,train,1,Andesite,Obsidian,4,FALSE,1,5,,,,,,,,,,,,,,,,,,
,,,,,,,,,,,html-button-response,107,2.0.0,306019,66d74b9d2a9bfcaf3ddbe8a3,4,18,6060,,,,,,,,,"<img src= rock_img/I_Obsidian_04.jpg style=""width:8cm; height:6.930000000000001cm;""><p style='font-size: 30px; color: red;'><strong>Incorrect!</strong></p><p style='font-size: 30px;'><strong>This rock is obsidian</strong></p>",0,corr_feedback,1,train,1,,,,,,,,,,,,,,,,,,,,,,,,
,,,,,,,,,,,html-button-response,108,2.0.0,312086,66d74b9d2a9bfcaf3ddbe8a3,4,18,6060,,,,,,,,,"<img src= ""rock_img/I_Peridotite_13.jpg"" style=""width:8cm; height:7.58cm;""><p>What type of rock is this?</p>",1,class_response,1,train,2,Basalt,Peridotite,13,FALSE,2,7,,,,,,,,,,,,,,,,,,
,,,,,,,,,,,html-button-response,109,2.0.0,316412,66d74b9d2a9bfcaf3ddbe8a3,4,18,4319,,,,,,,,,"<img src= rock_img/I_Peridotite_13.jpg style=""width:8cm; height:7.58cm;""><p style='font-size: 30px; color: red;'><strong>Incorrect!</strong></p><p style='font-size: 30px;'><strong>This rock is peridotite</strong></p>",0,corr_feedback,1,train,2,,,,,,,,,,,,,,,,,,,,,,,,
,,,,,,,,,,,html-button-response,110,2.0.0,319400,66d74b9d2a9bfcaf3ddbe8a3,4,18,2981,,,,,,,,,"<img src= ""rock_img/I_Gabbro_08.jpg"" style=""width:8cm; height:5.15cm;""><p>What type of rock is this?</p>",5,class_response,1,train,3,Pegmatite,Gabbro,8,FALSE,6,4,,,,,,,,,,,,,,,,,,
,,,,,,,,,,,html-button-response,111,2.0.0,321403,66d74b9d2a9bfcaf3ddbe8a3,4,18,1996,,,,,,,,,"<img src= rock_img/I_Gabbro_08.jpg style=""width:8cm; height:5.15cm;""><p style='font-size: 30px; color: red;'><strong>Incorrect!</strong></p><p style='font-size: 30px;'><strong>This rock is gabbro</strong></p>",0,corr_feedback,1,train,3,,,,,,,,,,,,,,,,,,,,,,,,
,,,,,,,,,,,html-button-response,112,2.0.0,325144,66d74b9d2a9bfcaf3ddbe8a3,4,18,3733,,,,,,,,,"<img src= ""rock_img/I_Andesite_06.jpg"" style=""width:8cm; height:6.840000000000001cm;""><p>What type of rock is this?</p>",5,class_response,1,train,4,Pegmatite,Andesite,6,FALSE,6,1,,,,,,,,,,,,,,,,,,
,,,,,,,,,,,html-button-response,113,2.0.0,327739,66d74b9d2a9bfcaf3ddbe8a3,4,18,2588,,,,,,,,,"<img src= rock_img/I_Andesite_06.jpg style=""width:8cm; height:6.840000000000001cm;""><p style='font-size: 30px; color: red;'><strong>Incorrect!</strong></p><p style='font-size: 30px;'><strong>This rock is andesite</strong></p>",0,corr_feedback,1,train,4,,,,,,,,,,,,,,,,,,,,,,,,
,,,,,,,,,,,html-button-response,114,2.0.0,331081,66d74b9d2a9bfcaf3ddbe8a3,4,18,3334,,,,,,,,,"<img src= ""rock_img/I_Gabbro_13.jpg"" style=""width:8cm; height:5.08cm;""><p>What type of rock is this?</p>",4,class_response,1,train,5,Obsidian,Gabbro,13,FALSE,5,4,,,,,,,,,,,,,,,,,,
,,,,,,,,,,,html-button-response,115,2.0.0,332556,66d74b9d2a9bfcaf3ddbe8a3,4,18,1469,,,,,,,,,"<img src= rock_img/I_Gabbro_13.jpg style=""width:8cm; height:5.08cm;""><p style='font-size: 30px; color: red;'><strong>Incorrect!</strong></p><p style='font-size: 30px;'><strong>This rock is gabbro</strong></p>",0,corr_feedback,1,train,5,,,,,,,,,,,,,,,,,,,,,,,,
,,,,,,,,,,,html-button-response,116,2.0.0,335563,66d74b9d2a9bfcaf3ddbe8a3,4,18,2998,,,,,,,,,"<img src= ""rock_img/I_Pumice_09.jpg"" style=""width:8cm; height:6.44cm;""><p>What type of rock is this?</p>",4,class_response,1,train,6,Obsidian,Pumice,9,FALSE,5,8,,,,,,,,,,,,,,,,,,
,,,,,,,,,,,html-button-response,117,2.0.0,337619,66d74b9d2a9bfcaf3ddbe8a3,4,18,2050,,,,,,,,,"<img src= rock_img/I_Pumice_09.jpg style=""width:8cm; height:6.44cm;""><p style='font-size: 30px; color: red;'><strong>Incorrect!</strong></p><p style='font-size: 30px;'><strong>This rock is pumice</strong></p>",0,corr_feedback,1,train,6,,,,,,,,,,,,,,,,,,,,,,,,
,,,,,,,,,,,html-button-response,118,2.0.0,341959,66d74b9d2a9bfcaf3ddbe8a3,4,18,4334,,,,,,,,,"<img src= ""rock_img/I_Pumice_10.jpg"" style=""width:8cm; height:7.609999999999999cm;""><p>What type of rock is this?</p>",7,class_response,1,train,7,Pumice,Pumice,10,TRUE,8,8,,,,,,,,,,,,,,,,,,
,,,,,,,,,,,html-button-response,119,2.0.0,343384,66d74b9d2a9bfcaf3ddbe8a3,4,18,1420,,,,,,,,,"<img src= rock_img/I_Pumice_10.jpg style=""width:8cm; height:7.609999999999999cm;""><p style='font-size: 30px; color: green;'><strong>Correct!</strong></p><p style='font-size: 30px;'><strong>This rock is pumice</strong></p>",0,corr_feedback,1,train,7,,,,,,,,,,,,,,,,,,,,,,,,
,,,,,,,,,,,html-button-response,120,2.0.0,346169,66d74b9d2a9bfcaf3ddbe8a3,4,18,2776,,,,,,,,,"<img src= ""rock_img/I_Andesite_04.jpg"" style=""width:8cm; height:5.96cm;""><p>What type of rock is this?</p>",3,class_response,1,train,8,Gabbro,Andesite,4,FALSE,4,1,,,,,,,,,,,,,,,,,,
,,,,,,,,,,,html-button-response,121,2.0.0,347521,66d74b9d2a9bfcaf3ddbe8a3,4,18,1346,,,,,,,,,"<img src= rock_img/I_Andesite_04.jpg style=""width:8cm; height:5.96cm;""><p style='font-size: 30px; color: red;'><strong>Incorrect!</strong></p><p style='font-size: 30px;'><strong>This rock is andesite</strong></p>",0,corr_feedback,1,train,8,,,,,,,,,,,,,,,,,,,,,,,,
,,,,,,,,,,,html-button-response,122,2.0.0,349737,66d74b9d2a9bfcaf3ddbe8a3,4,18,2209,,,,,,,,,"<img src= ""rock_img/I_Basalt_12.jpg"" style=""width:8cm; height:6.010000000000001cm;""><p>What type of rock is this?</p>",0,class_response,1,train,9,Andesite,Basalt,12,FALSE,1,2,,,,,,,,,,,,,,,,,,
,,,,,,,,,,,html-button-response,123,2.0.0,351338,66d74b9d2a9bfcaf3ddbe8a3,4,18,1594,,,,,,,,,"<img src= rock_img/I_Basalt_12.jpg style=""width:8cm; height:6.010000000000001cm;""><p style='font-size: 30px; color: red;'><strong>Incorrect!</strong></p><p style='font-size: 30px;'><strong>This rock is basalt</strong></p>",0,corr_feedback,1,train,9,,,,,,,,,,,,,,,,,,,,,,,,
,,,,,,,,,,,html-button-response,124,2.0.0,354197,66d74b9d2a9bfcaf3ddbe8a3,4,18,2850,,,,,,,,,"<img src= ""rock_img/I_Diorite_11.jpg"" style=""width:8cm; height:7.11cm;""><p>What type of rock is this?</p>",3,class_response,1,train,10,Gabbro,Diorite,11,FALSE,4,3,,,,,,,,,,,,,,,,,,
,,,,,,,,,,,html-button-response,125,2.0.0,355445,66d74b9d2a9bfcaf3ddbe8a3,4,18,1243,,,,,,,,,"<img src= rock_img/I_Diorite_11.jpg style=""width:8cm; height:7.11cm;""><p style='font-size: 30px; color: red;'><strong>Incorrect!</strong></p><p style='font-size: 30px;'><strong>This rock is diorite</strong></p>",0,corr_feedback,1,train,10,,,,,,,,,,,,,,,,,,,,,,,,
,,,,,,,,,,,html-button-response,126,2.0.0,359199,66d74b9d2a9bfcaf3ddbe8a3,4,18,3747,,,,,,,,,"<img src= ""rock_img/I_Pegmatite_16.jpg"" style=""width:8cm; height:5.8cm;""><p>What type of rock is this?</p>",5,class_response,1,train,11,Pegmatite,Pegmatite,16,TRUE,6,6,,,,,,,,,,,,,,,,,,
,,,,,,,,,,,html-button-response,127,2.0.0,363184,66d74b9d2a9bfcaf3ddbe8a3,4,18,3979,,,,,,,,,"<img src= rock_img/I_Pegmatite_16.jpg style=""width:8cm; height:5.8cm;""><p style='font-size: 30px; color: green;'><strong>Correct!</strong></p><p style='font-size: 30px;'><strong>This rock is pegmatite</strong></p>",0,corr_feedback,1,train,11,,,,,,,,,,,,,,,,,,,,,,,,
,,,,,,,,,,,html-button-response,128,2.0.0,365471,66d74b9d2a9bfcaf3ddbe8a3,4,18,2281,,,,,,,,,"<img src= ""rock_img/I_Diorite_06.jpg"" style=""width:8cm; height:6.03cm;""><p>What type of rock is this?</p>",4,class_response,1,train,12,Obsidian,Diorite,6,FALSE,5,3,,,,,,,,,,,,,,,,,,
,,,,,,,,,,,html-button-response,129,2.0.0,366813,66d74b9d2a9bfcaf3ddbe8a3,4,18,1337,,,,,,,,,"<img src= rock_img/I_Diorite_06.jpg style=""width:8cm; height:6.03cm;""><p style='font-size: 30px; color: red;'><strong>Incorrect!</strong></p><p style='font-size: 30px;'><strong>This rock is diorite</strong></p>",0,corr_feedback,1,train,12,,,,,,,,,,,,,,,,,,,,,,,,
,,,,,,,,,,,instructions,130,2.0.0,411368,66d74b9d2a9bfcaf3ddbe8a3,4,18,44548,,,,,,,,"[{""page_index"":0,""viewing_time"":10108},{""page_index"":1,""viewing_time"":7707},{""page_index"":2,""viewing_time"":22835},{""page_index"":3,""viewing_time"":3899}]",,,,,,,,,,,,,,,,,,,,,,,,,,,,,,
,,,,,,,,,,,html-button-response,131,2.0.0,412450,66d74b9d2a9bfcaf3ddbe8a3,4,18,1074,,,,,,,,,,0,start_train,,,,,,,,,,,,,,,,,,,,,,,,,,,
,,,,,,,,,,,html-button-response,132,2.0.0,431653,66d74b9d2a9bfcaf3ddbe8a3,4,18,,,,,,,,,,,,cat_selection,1,train,1,,,,,,,9244.5,9949.1,8,3,Pumice,Diorite,,,,,,,,,,,,
,,,,,,,,,,,paired-cat-display,133,1.0.0,513688,66d74b9d2a9bfcaf3ddbe8a3,4,18,,,,,,,,,,,,paired_cat_display,1,train,1,,,,,,,,,,,,,"tiny holes, light color",look like street asphalt,12910.5,69108,,,,,,,,
,,,,,,,,,,,html-button-response,134,2.0.0,517427,66d74b9d2a9bfcaf3ddbe8a3,4,18,,,,,,,,,,,,cat_selection,1,train,2,,,,,,,2466.3,1265.8,1,2,Andesite,Basalt,,,,,,,,,,,,
,,,,,,,,,,,paired-cat-display,135,1.0.0,591272,66d74b9d2a9bfcaf3ddbe8a3,4,18,,,,,,,,,,,,paired_cat_display,1,train,2,,,,,,,,,,,,,,,18646,55180.9,look like mountain rocks,"look like stones, fossils, smooth",,,,,,
,,,,,,,,,,,html-button-response,136,2.0.0,599321,66d74b9d2a9bfcaf3ddbe8a3,4,18,,,,,,,,,,,,cat_selection,1,train,3,,,,,,,2018.3,6023.7,4,5,Gabbro,Obsidian,,,,,,,,,,,,
,,,,,,,,,,,paired-cat-display,137,1.0.0,714733,66d74b9d2a9bfcaf3ddbe8a3,4,18,,,,,,,,,,,,paired_cat_display,1,train,3,,,,,,,,,,,,,,,6468.2,108928.3,,,"rocks on beach, build with.","smooth,collectable, pretty. ",,,,
,,,,,,,,,,,instructions,138,2.0.0,726471,66d74b9d2a9bfcaf3ddbe8a3,4,18,11730,,,,,,,,"[{""page_index"":0,""viewing_time"":2311},{""page_index"":1,""viewing_time"":9419}]",,,,,,,,,,,,,,,,,,,,,,,,,,,,,,
,,,,,,,,,,,html-button-response,139,2.0.0,728395,66d74b9d2a9bfcaf3ddbe8a3,4,18,1916,,,,,,,,,,0,start_test,,,,,,,,,,,,,,,,,,,,,,,,,,,
,,,,,,,,,,,html-button-response,140,2.0.0,756268,66d74b9d2a9bfcaf3ddbe8a3,4,18,27864,,,,,,,,,"<img src= ""rock_img/I_Gabbro_11.jpg"" style=""width:8cm; height:6.2cm;""><p>What type of rock is this?</p>",1,class_response,1,test,1,Basalt,Gabbro,11,FALSE,2,4,,,,,,,,,,,,,,,,,,
,,,,,,,,,,,html-keyboard-response,141,2.0.0,756775,66d74b9d2a9bfcaf3ddbe8a3,4,18,null,,,,,,,,,<p style='font-size: 30px;'><strong>Okay</strong></p>,null,neutral_feedback,1,test,1,,,,,,,,,,,,,,,,,,,,,,,,
,,,,,,,,,,,html-button-response,142,2.0.0,768492,66d74b9d2a9bfcaf3ddbe8a3,4,18,11703,,,,,,,,,"<img src= ""rock_img/I_Pegmatite_07.jpg"" style=""width:8cm; height:6.7cm;""><p>What type of rock is this?</p>",3,class_response,1,test,2,Gabbro,Pegmatite,7,FALSE,4,6,,,,,,,,,,,,,,,,,,
,,,,,,,,,,,html-keyboard-response,143,2.0.0,769000,66d74b9d2a9bfcaf3ddbe8a3,4,18,null,,,,,,,,,<p style='font-size: 30px;'><strong>Okay</strong></p>,null,neutral_feedback,1,test,2,,,,,,,,,,,,,,,,,,,,,,,,
,,,,,,,,,,,html-button-response,144,2.0.0,787033,66d74b9d2a9bfcaf3ddbe8a3,4,18,18019,,,,,,,,,"<img src= ""rock_img/I_Pumice_13.jpg"" style=""width:8cm; height:8.200000000000001cm;""><p>What type of rock is this?</p>",5,class_response,1,test,3,Pegmatite,Pumice,13,FALSE,6,8,,,,,,,,,,,,,,,,,,
,,,,,,,,,,,html-keyboard-response,145,2.0.0,787540,66d74b9d2a9bfcaf3ddbe8a3,4,18,null,,,,,,,,,<p style='font-size: 30px;'><strong>Okay</strong></p>,null,neutral_feedback,1,test,3,,,,,,,,,,,,,,,,,,,,,,,,
,,,,,,,,,,,html-button-response,146,2.0.0,795965,66d74b9d2a9bfcaf3ddbe8a3,4,18,8409,,,,,,,,,"<img src= ""rock_img/I_Andesite_11.jpg"" style=""width:8cm; height:4.92cm;""><p>What type of rock is this?</p>",2,class_response,1,test,4,Diorite,Andesite,11,FALSE,3,1,,,,,,,,,,,,,,,,,,
,,,,,,,,,,,html-keyboard-response,147,2.0.0,796472,66d74b9d2a9bfcaf3ddbe8a3,4,18,null,,,,,,,,,<p style='font-size: 30px;'><strong>Okay</strong></p>,null,neutral_feedback,1,test,4,,,,,,,,,,,,,,,,,,,,,,,,
,,,,,,,,,,,html-button-response,148,2.0.0,804550,66d74b9d2a9bfcaf3ddbe8a3,4,18,8067,,,,,,,,,"<img src= ""rock_img/I_Diorite_16.jpg"" style=""width:8cm; height:6.74cm;""><p>What type of rock is this?</p>",6,class_response,1,test,5,Peridotite,Diorite,16,FALSE,7,3,,,,,,,,,,,,,,,,,,
,,,,,,,,,,,html-keyboard-response,149,2.0.0,805058,66d74b9d2a9bfcaf3ddbe8a3,4,18,null,,,,,,,,,<p style='font-size: 30px;'><strong>Okay</strong></p>,null,neutral_feedback,1,test,5,,,,,,,,,,,,,,,,,,,,,,,,
,,,,,,,,,,,html-button-response,150,2.0.0,806517,66d74b9d2a9bfcaf3ddbe8a3,4,18,1447,,,,,,,,,"<img src= ""rock_img/I_Pumice_05.jpg"" style=""width:8cm; height:7.25cm;""><p>What type of rock is this?</p>",7,class_response,1,test,6,Pumice,Pumice,5,TRUE,8,8,,,,,,,,,,,,,,,,,,
,,,,,,,,,,,html-keyboard-response,151,2.0.0,807023,66d74b9d2a9bfcaf3ddbe8a3,4,18,null,,,,,,,,,<p style='font-size: 30px;'><strong>Okay</strong></p>,null,neutral_feedback,1,test,6,,,,,,,,,,,,,,,,,,,,,,,,
,,,,,,,,,,,html-button-response,152,2.0.0,814146,66d74b9d2a9bfcaf3ddbe8a3,4,18,7112,,,,,,,,,"<img src= ""rock_img/I_Diorite_13.jpg"" style=""width:8cm; height:6.29cm;""><p>What type of rock is this?</p>",3,class_response,1,test,7,Gabbro,Diorite,13,FALSE,4,3,,,,,,,,,,,,,,,,,,
,,,,,,,,,,,html-keyboard-response,153,2.0.0,814652,66d74b9d2a9bfcaf3ddbe8a3,4,18,null,,,,,,,,,<p style='font-size: 30px;'><strong>Okay</strong></p>,null,neutral_feedback,1,test,7,,,,,,,,,,,,,,,,,,,,,,,,
,,,,,,,,,,,html-button-response,154,2.0.0,817967,66d74b9d2a9bfcaf3ddbe8a3,4,18,3299,,,,,,,,,"<img src= ""rock_img/I_Obsidian_02.jpg"" style=""width:8cm; height:7.51cm;""><p>What type of rock is this?</p>",4,class_response,1,test,8,Obsidian,Obsidian,2,TRUE,5,5,,,,,,,,,,,,,,,,,,
,,,,,,,,,,,html-keyboard-response,155,2.0.0,818473,66d74b9d2a9bfcaf3ddbe8a3,4,18,null,,,,,,,,,<p style='font-size: 30px;'><strong>Okay</strong></p>,null,neutral_feedback,1,test,8,,,,,,,,,,,,,,,,,,,,,,,,
,,,,,,,,,,,html-button-response,156,2.0.0,827058,66d74b9d2a9bfcaf3ddbe8a3,4,18,8573,,,,,,,,,"<img src= ""rock_img/I_Pumice_06.jpg"" style=""width:8cm; height:6.9399999999999995cm;""><p>What type of rock is this?</p>",0,class_response,1,test,9,Andesite,Pumice,6,FALSE,1,8,,,,,,,,,,,,,,,,,,
,,,,,,,,,,,html-keyboard-response,157,2.0.0,827565,66d74b9d2a9bfcaf3ddbe8a3,4,18,null,,,,,,,,,<p style='font-size: 30px;'><strong>Okay</strong></p>,null,neutral_feedback,1,test,9,,,,,,,,,,,,,,,,,,,,,,,,
,,,,,,,,,,,html-button-response,158,2.0.0,832992,66d74b9d2a9bfcaf3ddbe8a3,4,18,5418,,,,,,,,,"<img src= ""rock_img/I_Obsidian_16.jpg"" style=""width:8cm; height:9.3cm;""><p>What type of rock is this?</p>",4,class_response,1,test,10,Obsidian,Obsidian,16,TRUE,5,5,,,,,,,,,,,,,,,,,,
,,,,,,,,,,,html-keyboard-response,159,2.0.0,833504,66d74b9d2a9bfcaf3ddbe8a3,4,18,null,,,,,,,,,<p style='font-size: 30px;'><strong>Okay</strong></p>,null,neutral_feedback,1,test,10,,,,,,,,,,,,,,,,,,,,,,,,
,,,,,,,,,,,html-button-response,160,2.0.0,837134,66d74b9d2a9bfcaf3ddbe8a3,4,18,3619,,,,,,,,,"<img src= ""rock_img/I_Diorite_08.jpg"" style=""width:8cm; height:6.37cm;""><p>What type of rock is this?</p>",5,class_response,1,test,11,Pegmatite,Diorite,8,FALSE,6,3,,,,,,,,,,,,,,,,,,
,,,,,,,,,,,html-keyboard-response,161,2.0.0,837639,66d74b9d2a9bfcaf3ddbe8a3,4,18,null,,,,,,,,,<p style='font-size: 30px;'><strong>Okay</strong></p>,null,neutral_feedback,1,test,11,,,,,,,,,,,,,,,,,,,,,,,,
,,,,,,,,,,,html-button-response,162,2.0.0,842015,66d74b9d2a9bfcaf3ddbe8a3,4,18,4369,,,,,,,,,"<img src= ""rock_img/I_Peridotite_04.jpg"" style=""width:8cm; height:6.680000000000001cm;""><p>What type of rock is this?</p>",6,class_response,1,test,12,Peridotite,Peridotite,4,TRUE,7,7,,,,,,,,,,,,,,,,,,
,,,,,,,,,,,html-keyboard-response,163,2.0.0,842521,66d74b9d2a9bfcaf3ddbe8a3,4,18,null,,,,,,,,,<p style='font-size: 30px;'><strong>Okay</strong></p>,null,neutral_feedback,1,test,12,,,,,,,,,,,,,,,,,,,,,,,,
,,,,,,,,,,,html-button-response,164,2.0.0,845921,66d74b9d2a9bfcaf3ddbe8a3,4,18,3388,,,,,,,,,"<img src= ""rock_img/I_Obsidian_07.jpg"" style=""width:8cm; height:4.76cm;""><p>What type of rock is this?</p>",3,class_response,1,test,13,Gabbro,Obsidian,7,FALSE,4,5,,,,,,,,,,,,,,,,,,
,,,,,,,,,,,html-keyboard-response,165,2.0.0,846428,66d74b9d2a9bfcaf3ddbe8a3,4,18,null,,,,,,,,,<p style='font-size: 30px;'><strong>Okay</strong></p>,null,neutral_feedback,1,test,13,,,,,,,,,,,,,,,,,,,,,,,,
,,,,,,,,,,,html-button-response,166,2.0.0,848544,66d74b9d2a9bfcaf3ddbe8a3,4,18,2111,,,,,,,,,"<img src= ""rock_img/I_Andesite_05.jpg"" style=""width:8cm; height:4.12cm;""><p>What type of rock is this?</p>",1,class_response,1,test,14,Basalt,Andesite,5,FALSE,2,1,,,,,,,,,,,,,,,,,,
,,,,,,,,,,,html-keyboard-response,167,2.0.0,849050,66d74b9d2a9bfcaf3ddbe8a3,4,18,null,,,,,,,,,<p style='font-size: 30px;'><strong>Okay</strong></p>,null,neutral_feedback,1,test,14,,,,,,,,,,,,,,,,,,,,,,,,
,,,,,,,,,,,html-button-response,168,2.0.0,851198,66d74b9d2a9bfcaf3ddbe8a3,4,18,2134,,,,,,,,,"<img src= ""rock_img/I_Peridotite_15.jpg"" style=""width:8cm; height:6cm;""><p>What type of rock is this?</p>",2,class_response,1,test,15,Diorite,Peridotite,15,FALSE,3,7,,,,,,,,,,,,,,,,,,
,,,,,,,,,,,html-keyboard-response,169,2.0.0,851705,66d74b9d2a9bfcaf3ddbe8a3,4,18,null,,,,,,,,,<p style='font-size: 30px;'><strong>Okay</strong></p>,null,neutral_feedback,1,test,15,,,,,,,,,,,,,,,,,,,,,,,,
,,,,,,,,,,,html-button-response,170,2.0.0,857560,66d74b9d2a9bfcaf3ddbe8a3,4,18,5844,,,,,,,,,"<img src= ""rock_img/I_Peridotite_16.jpg"" style=""width:8cm; height:6.989999999999999cm;""><p>What type of rock is this?</p>",3,class_response,1,test,16,Gabbro,Peridotite,16,FALSE,4,7,,,,,,,,,,,,,,,,,,
,,,,,,,,,,,html-keyboard-response,171,2.0.0,858066,66d74b9d2a9bfcaf3ddbe8a3,4,18,null,,,,,,,,,<p style='font-size: 30px;'><strong>Okay</strong></p>,null,neutral_feedback,1,test,16,,,,,,,,,,,,,,,,,,,,,,,,
,,,,,,,,,,,html-button-response,172,2.0.0,859975,66d74b9d2a9bfcaf3ddbe8a3,4,18,1896,,,,,,,,,"<img src= ""rock_img/I_Obsidian_14.jpg"" style=""width:8cm; height:7.64cm;""><p>What type of rock is this?</p>",4,class_response,1,test,17,Obsidian,Obsidian,14,TRUE,5,5,,,,,,,,,,,,,,,,,,
,,,,,,,,,,,html-keyboard-response,173,2.0.0,860481,66d74b9d2a9bfcaf3ddbe8a3,4,18,null,,,,,,,,,<p style='font-size: 30px;'><strong>Okay</strong></p>,null,neutral_feedback,1,test,17,,,,,,,,,,,,,,,,,,,,,,,,
,,,,,,,,,,,html-button-response,174,2.0.0,862154,66d74b9d2a9bfcaf3ddbe8a3,4,18,1661,,,,,,,,,"<img src= ""rock_img/I_Pumice_02.jpg"" style=""width:8cm; height:7.3999999999999995cm;""><p>What type of rock is this?</p>",7,class_response,1,test,18,Pumice,Pumice,2,TRUE,8,8,,,,,,,,,,,,,,,,,,
,,,,,,,,,,,html-keyboard-response,175,2.0.0,862660,66d74b9d2a9bfcaf3ddbe8a3,4,18,null,,,,,,,,,<p style='font-size: 30px;'><strong>Okay</strong></p>,null,neutral_feedback,1,test,18,,,,,,,,,,,,,,,,,,,,,,,,
,,,,,,,,,,,html-button-response,176,2.0.0,865561,66d74b9d2a9bfcaf3ddbe8a3,4,18,2886,,,,,,,,,"<img src= ""rock_img/I_Pumice_16.jpg"" style=""width:8cm; height:6.79cm;""><p>What type of rock is this?</p>",7,class_response,1,test,19,Pumice,Pumice,16,TRUE,8,8,,,,,,,,,,,,,,,,,,
,,,,,,,,,,,html-keyboard-response,177,2.0.0,866066,66d74b9d2a9bfcaf3ddbe8a3,4,18,null,,,,,,,,,<p style='font-size: 30px;'><strong>Okay</strong></p>,null,neutral_feedback,1,test,19,,,,,,,,,,,,,,,,,,,,,,,,
,,,,,,,,,,,html-button-response,178,2.0.0,870128,66d74b9d2a9bfcaf3ddbe8a3,4,18,4051,,,,,,,,,"<img src= ""rock_img/I_Andesite_02.jpg"" style=""width:8cm; height:8.5cm;""><p>What type of rock is this?</p>",6,class_response,1,test,20,Peridotite,Andesite,2,FALSE,7,1,,,,,,,,,,,,,,,,,,
,,,,,,,,,,,html-keyboard-response,179,2.0.0,870633,66d74b9d2a9bfcaf3ddbe8a3,4,18,null,,,,,,,,,<p style='font-size: 30px;'><strong>Okay</strong></p>,null,neutral_feedback,1,test,20,,,,,,,,,,,,,,,,,,,,,,,,
,,,,,,,,,,,html-button-response,180,2.0.0,877532,66d74b9d2a9bfcaf3ddbe8a3,4,18,6885,,,,,,,,,"<img src= ""rock_img/I_Basalt_05.jpg"" style=""width:8cm; height:8.18cm;""><p>What type of rock is this?</p>",2,class_response,1,test,21,Diorite,Basalt,5,FALSE,3,2,,,,,,,,,,,,,,,,,,
,,,,,,,,,,,html-keyboard-response,181,2.0.0,878037,66d74b9d2a9bfcaf3ddbe8a3,4,18,null,,,,,,,,,<p style='font-size: 30px;'><strong>Okay</strong></p>,null,neutral_feedback,1,test,21,,,,,,,,,,,,,,,,,,,,,,,,
,,,,,,,,,,,html-button-response,182,2.0.0,880393,66d74b9d2a9bfcaf3ddbe8a3,4,18,2348,,,,,,,,,"<img src= ""rock_img/I_Gabbro_12.jpg"" style=""width:8cm; height:7.800000000000001cm;""><p>What type of rock is this?</p>",1,class_response,1,test,22,Basalt,Gabbro,12,FALSE,2,4,,,,,,,,,,,,,,,,,,
,,,,,,,,,,,html-keyboard-response,183,2.0.0,880900,66d74b9d2a9bfcaf3ddbe8a3,4,18,null,,,,,,,,,<p style='font-size: 30px;'><strong>Okay</strong></p>,null,neutral_feedback,1,test,22,,,,,,,,,,,,,,,,,,,,,,,,
,,,,,,,,,,,html-button-response,184,2.0.0,884712,66d74b9d2a9bfcaf3ddbe8a3,4,18,3801,,,,,,,,,"<img src= ""rock_img/I_Pegmatite_15.jpg"" style=""width:8cm; height:6cm;""><p>What type of rock is this?</p>",3,class_response,1,test,23,Gabbro,Pegmatite,15,FALSE,4,6,,,,,,,,,,,,,,,,,,
,,,,,,,,,,,html-keyboard-response,185,2.0.0,885218,66d74b9d2a9bfcaf3ddbe8a3,4,18,null,,,,,,,,,<p style='font-size: 30px;'><strong>Okay</strong></p>,null,neutral_feedback,1,test,23,,,,,,,,,,,,,,,,,,,,,,,,
,,,,,,,,,,,html-button-response,186,2.0.0,886843,66d74b9d2a9bfcaf3ddbe8a3,4,18,1613,,,,,,,,,"<img src= ""rock_img/I_Basalt_04.jpg"" style=""width:8cm; height:7.53cm;""><p>What type of rock is this?</p>",4,class_response,1,test,24,Obsidian,Basalt,4,FALSE,5,2,,,,,,,,,,,,,,,,,,
,,,,,,,,,,,html-keyboard-response,187,2.0.0,887349,66d74b9d2a9bfcaf3ddbe8a3,4,18,null,,,,,,,,,<p style='font-size: 30px;'><strong>Okay</strong></p>,null,neutral_feedback,1,test,24,,,,,,,,,,,,,,,,,,,,,,,,
,,,,,,,,,,,html-button-response,188,2.0.0,890572,66d74b9d2a9bfcaf3ddbe8a3,4,18,3215,,,,,,,,,"<img src= ""rock_img/I_Andesite_07.jpg"" style=""width:8cm; height:5.93cm;""><p>What type of rock is this?</p>",1,class_response,1,test,25,Basalt,Andesite,7,FALSE,2,1,,,,,,,,,,,,,,,,,,
,,,,,,,,,,,html-keyboard-response,189,2.0.0,891077,66d74b9d2a9bfcaf3ddbe8a3,4,18,null,,,,,,,,,<p style='font-size: 30px;'><strong>Okay</strong></p>,null,neutral_feedback,1,test,25,,,,,,,,,,,,,,,,,,,,,,,,
,,,,,,,,,,,html-button-response,190,2.0.0,892491,66d74b9d2a9bfcaf3ddbe8a3,4,18,1402,,,,,,,,,"<img src= ""rock_img/I_Basalt_06.jpg"" style=""width:8cm; height:7.06cm;""><p>What type of rock is this?</p>",4,class_response,1,test,26,Obsidian,Basalt,6,FALSE,5,2,,,,,,,,,,,,,,,,,,
,,,,,,,,,,,html-keyboard-response,191,2.0.0,892997,66d74b9d2a9bfcaf3ddbe8a3,4,18,null,,,,,,,,,<p style='font-size: 30px;'><strong>Okay</strong></p>,null,neutral_feedback,1,test,26,,,,,,,,,,,,,,,,,,,,,,,,
,,,,,,,,,,,html-button-response,192,2.0.0,896799,66d74b9d2a9bfcaf3ddbe8a3,4,18,3793,,,,,,,,,"<img src= ""rock_img/I_Basalt_09.jpg"" style=""width:8cm; height:6.2cm;""><p>What type of rock is this?</p>",3,class_response,1,test,27,Gabbro,Basalt,9,FALSE,4,2,,,,,,,,,,,,,,,,,,
,,,,,,,,,,,html-keyboard-response,193,2.0.0,897305,66d74b9d2a9bfcaf3ddbe8a3,4,18,null,,,,,,,,,<p style='font-size: 30px;'><strong>Okay</strong></p>,null,neutral_feedback,1,test,27,,,,,,,,,,,,,,,,,,,,,,,,
,,,,,,,,,,,html-button-response,194,2.0.0,900235,66d74b9d2a9bfcaf3ddbe8a3,4,18,2919,,,,,,,,,"<img src= ""rock_img/I_Peridotite_05.jpg"" style=""width:8cm; height:7.1499999999999995cm;""><p>What type of rock is this?</p>",0,class_response,1,test,28,Andesite,Peridotite,5,FALSE,1,7,,,,,,,,,,,,,,,,,,
,,,,,,,,,,,html-keyboard-response,195,2.0.0,900740,66d74b9d2a9bfcaf3ddbe8a3,4,18,null,,,,,,,,,<p style='font-size: 30px;'><strong>Okay</strong></p>,null,neutral_feedback,1,test,28,,,,,,,,,,,,,,,,,,,,,,,,
,,,,,,,,,,,html-button-response,196,2.0.0,903094,66d74b9d2a9bfcaf3ddbe8a3,4,18,2348,,,,,,,,,"<img src= ""rock_img/I_Basalt_02.jpg"" style=""width:8cm; height:6.45cm;""><p>What type of rock is this?</p>",2,class_response,1,test,29,Diorite,Basalt,2,FALSE,3,2,,,,,,,,,,,,,,,,,,
,,,,,,,,,,,html-keyboard-response,197,2.0.0,903599,66d74b9d2a9bfcaf3ddbe8a3,4,18,null,,,,,,,,,<p style='font-size: 30px;'><strong>Okay</strong></p>,null,neutral_feedback,1,test,29,,,,,,,,,,,,,,,,,,,,,,,,
,,,,,,,,,,,html-button-response,198,2.0.0,906642,66d74b9d2a9bfcaf3ddbe8a3,4,18,3034,,,,,,,,,"<img src= ""rock_img/I_Pumice_15.jpg"" style=""width:8cm; height:7.86cm;""><p>What type of rock is this?</p>",1,class_response,1,test,30,Basalt,Pumice,15,FALSE,2,8,,,,,,,,,,,,,,,,,,
,,,,,,,,,,,html-keyboard-response,199,2.0.0,907145,66d74b9d2a9bfcaf3ddbe8a3,4,18,null,,,,,,,,,<p style='font-size: 30px;'><strong>Okay</strong></p>,null,neutral_feedback,1,test,30,,,,,,,,,,,,,,,,,,,,,,,,
,,,,,,,,,,,html-button-response,200,2.0.0,909407,66d74b9d2a9bfcaf3ddbe8a3,4,18,2254,,,,,,,,,"<img src= ""rock_img/I_Gabbro_05.jpg"" style=""width:8cm; height:6cm;""><p>What type of rock is this?</p>",2,class_response,1,test,31,Diorite,Gabbro,5,FALSE,3,4,,,,,,,,,,,,,,,,,,
,,,,,,,,,,,html-keyboard-response,201,2.0.0,909912,66d74b9d2a9bfcaf3ddbe8a3,4,18,null,,,,,,,,,<p style='font-size: 30px;'><strong>Okay</strong></p>,null,neutral_feedback,1,test,31,,,,,,,,,,,,,,,,,,,,,,,,
,,,,,,,,,,,html-button-response,202,2.0.0,910860,66d74b9d2a9bfcaf3ddbe8a3,4,18,936,,,,,,,,,"<img src= ""rock_img/I_Andesite_16.jpg"" style=""width:8cm; height:6.010000000000001cm;""><p>What type of rock is this?</p>",2,class_response,1,test,32,Diorite,Andesite,16,FALSE,3,1,,,,,,,,,,,,,,,,,,
,,,,,,,,,,,html-keyboard-response,203,2.0.0,911367,66d74b9d2a9bfcaf3ddbe8a3,4,18,null,,,,,,,,,<p style='font-size: 30px;'><strong>Okay</strong></p>,null,neutral_feedback,1,test,32,,,,,,,,,,,,,,,,,,,,,,,,
,,,,,,,,,,,html-button-response,204,2.0.0,913968,66d74b9d2a9bfcaf3ddbe8a3,4,18,2588,,,,,,,,,"<img src= ""rock_img/I_Gabbro_09.jpg"" style=""width:8cm; height:7.279999999999999cm;""><p>What type of rock is this?</p>",3,class_response,1,test,33,Gabbro,Gabbro,9,TRUE,4,4,,,,,,,,,,,,,,,,,,
,,,,,,,,,,,html-keyboard-response,205,2.0.0,914474,66d74b9d2a9bfcaf3ddbe8a3,4,18,null,,,,,,,,,<p style='font-size: 30px;'><strong>Okay</strong></p>,null,neutral_feedback,1,test,33,,,,,,,,,,,,,,,,,,,,,,,,
,,,,,,,,,,,html-button-response,206,2.0.0,916103,66d74b9d2a9bfcaf3ddbe8a3,4,18,1616,,,,,,,,,"<img src= ""rock_img/I_Obsidian_06.jpg"" style=""width:8cm; height:6.8cm;""><p>What type of rock is this?</p>",4,class_response,1,test,34,Obsidian,Obsidian,6,TRUE,5,5,,,,,,,,,,,,,,,,,,
,,,,,,,,,,,html-keyboard-response,207,2.0.0,916609,66d74b9d2a9bfcaf3ddbe8a3,4,18,null,,,,,,,,,<p style='font-size: 30px;'><strong>Okay</strong></p>,null,neutral_feedback,1,test,34,,,,,,,,,,,,,,,,,,,,,,,,
,,,,,,,,,,,html-button-response,208,2.0.0,919771,66d74b9d2a9bfcaf3ddbe8a3,4,18,3148,,,,,,,,,"<img src= ""rock_img/I_Pegmatite_05.jpg"" style=""width:8cm; height:7.300000000000001cm;""><p>What type of rock is this?</p>",3,class_response,1,test,35,Gabbro,Pegmatite,5,FALSE,4,6,,,,,,,,,,,,,,,,,,
,,,,,,,,,,,html-keyboard-response,209,2.0.0,920278,66d74b9d2a9bfcaf3ddbe8a3,4,18,null,,,,,,,,,<p style='font-size: 30px;'><strong>Okay</strong></p>,null,neutral_feedback,1,test,35,,,,,,,,,,,,,,,,,,,,,,,,
,,,,,,,,,,,html-button-response,210,2.0.0,921734,66d74b9d2a9bfcaf3ddbe8a3,4,18,1450,,,,,,,,,"<img src= ""rock_img/I_Obsidian_09.jpg"" style=""width:8cm; height:5cm;""><p>What type of rock is this?</p>",4,class_response,1,test,36,Obsidian,Obsidian,9,TRUE,5,5,,,,,,,,,,,,,,,,,,
,,,,,,,,,,,html-keyboard-response,211,2.0.0,922238,66d74b9d2a9bfcaf3ddbe8a3,4,18,null,,,,,,,,,<p style='font-size: 30px;'><strong>Okay</strong></p>,null,neutral_feedback,1,test,36,,,,,,,,,,,,,,,,,,,,,,,,
,,,,,,,,,,,html-button-response,212,2.0.0,923827,66d74b9d2a9bfcaf3ddbe8a3,4,18,1576,,,,,,,,,"<img src= ""rock_img/I_Diorite_14.jpg"" style=""width:8cm; height:5.71cm;""><p>What type of rock is this?</p>",0,class_response,1,test,37,Andesite,Diorite,14,FALSE,1,3,,,,,,,,,,,,,,,,,,
,,,,,,,,,,,html-keyboard-response,213,2.0.0,924333,66d74b9d2a9bfcaf3ddbe8a3,4,18,null,,,,,,,,,<p style='font-size: 30px;'><strong>Okay</strong></p>,null,neutral_feedback,1,test,37,,,,,,,,,,,,,,,,,,,,,,,,
,,,,,,,,,,,html-button-response,214,2.0.0,925731,66d74b9d2a9bfcaf3ddbe8a3,4,18,1386,,,,,,,,,"<img src= ""rock_img/I_Peridotite_07.jpg"" style=""width:8cm; height:4.83cm;""><p>What type of rock is this?</p>",1,class_response,1,test,38,Basalt,Peridotite,7,FALSE,2,7,,,,,,,,,,,,,,,,,,
,,,,,,,,,,,html-keyboard-response,215,2.0.0,926237,66d74b9d2a9bfcaf3ddbe8a3,4,18,null,,,,,,,,,<p style='font-size: 30px;'><strong>Okay</strong></p>,null,neutral_feedback,1,test,38,,,,,,,,,,,,,,,,,,,,,,,,
,,,,,,,,,,,html-button-response,216,2.0.0,927240,66d74b9d2a9bfcaf3ddbe8a3,4,18,991,,,,,,,,,"<img src= ""rock_img/I_Gabbro_10.jpg"" style=""width:8cm; height:5.680000000000001cm;""><p>What type of rock is this?</p>",1,class_response,1,test,39,Basalt,Gabbro,10,FALSE,2,4,,,,,,,,,,,,,,,,,,
,,,,,,,,,,,html-keyboard-response,217,2.0.0,927744,66d74b9d2a9bfcaf3ddbe8a3,4,18,null,,,,,,,,,<p style='font-size: 30px;'><strong>Okay</strong></p>,null,neutral_feedback,1,test,39,,,,,,,,,,,,,,,,,,,,,,,,
,,,,,,,,,,,html-button-response,218,2.0.0,929254,66d74b9d2a9bfcaf3ddbe8a3,4,18,1494,,,,,,,,,"<img src= ""rock_img/I_Gabbro_15.jpg"" style=""width:8cm; height:6.29cm;""><p>What type of rock is this?</p>",5,class_response,1,test,40,Pegmatite,Gabbro,15,FALSE,6,4,,,,,,,,,,,,,,,,,,
,,,,,,,,,,,html-keyboard-response,219,2.0.0,929759,66d74b9d2a9bfcaf3ddbe8a3,4,18,null,,,,,,,,,<p style='font-size: 30px;'><strong>Okay</strong></p>,null,neutral_feedback,1,test,40,,,,,,,,,,,,,,,,,,,,,,,,
,,,,,,,,,,,html-button-response,220,2.0.0,931618,66d74b9d2a9bfcaf3ddbe8a3,4,18,1843,,,,,,,,,"<img src= ""rock_img/I_Pegmatite_09.jpg"" style=""width:8cm; height:4.03cm;""><p>What type of rock is this?</p>",3,class_response,1,test,41,Gabbro,Pegmatite,9,FALSE,4,6,,,,,,,,,,,,,,,,,,
,,,,,,,,,,,html-keyboard-response,221,2.0.0,932123,66d74b9d2a9bfcaf3ddbe8a3,4,18,null,,,,,,,,,<p style='font-size: 30px;'><strong>Okay</strong></p>,null,neutral_feedback,1,test,41,,,,,,,,,,,,,,,,,,,,,,,,
,,,,,,,,,,,html-button-response,222,2.0.0,934390,66d74b9d2a9bfcaf3ddbe8a3,4,18,2253,,,,,,,,,"<img src= ""rock_img/I_Pegmatite_06.jpg"" style=""width:8cm; height:5.17cm;""><p>What type of rock is this?</p>",2,class_response,1,test,42,Diorite,Pegmatite,6,FALSE,3,6,,,,,,,,,,,,,,,,,,
,,,,,,,,,,,html-keyboard-response,223,2.0.0,934896,66d74b9d2a9bfcaf3ddbe8a3,4,18,null,,,,,,,,,<p style='font-size: 30px;'><strong>Okay</strong></p>,null,neutral_feedback,1,test,42,,,,,,,,,,,,,,,,,,,,,,,,
,,,,,,,,,,,html-button-response,224,2.0.0,936713,66d74b9d2a9bfcaf3ddbe8a3,4,18,1804,,,,,,,,,"<img src= ""rock_img/I_Diorite_02.jpg"" style=""width:8cm; height:6.27cm;""><p>What type of rock is this?</p>",1,class_response,1,test,43,Basalt,Diorite,2,FALSE,2,3,,,,,,,,,,,,,,,,,,
,,,,,,,,,,,html-keyboard-response,225,2.0.0,937219,66d74b9d2a9bfcaf3ddbe8a3,4,18,null,,,,,,,,,<p style='font-size: 30px;'><strong>Okay</strong></p>,null,neutral_feedback,1,test,43,,,,,,,,,,,,,,,,,,,,,,,,
,,,,,,,,,,,html-button-response,226,2.0.0,941104,66d74b9d2a9bfcaf3ddbe8a3,4,18,3871,,,,,,,,,"<img src= ""rock_img/I_Basalt_16.jpg"" style=""width:8cm; height:7.659999999999999cm;""><p>What type of rock is this?</p>",5,class_response,1,test,44,Pegmatite,Basalt,16,FALSE,6,2,,,,,,,,,,,,,,,,,,
,,,,,,,,,,,html-keyboard-response,227,2.0.0,941610,66d74b9d2a9bfcaf3ddbe8a3,4,18,null,,,,,,,,,<p style='font-size: 30px;'><strong>Okay</strong></p>,null,neutral_feedback,1,test,44,,,,,,,,,,,,,,,,,,,,,,,,
,,,,,,,,,,,html-button-response,228,2.0.0,944871,66d74b9d2a9bfcaf3ddbe8a3,4,18,3249,,,,,,,,,"<img src= ""rock_img/I_Diorite_09.jpg"" style=""width:8cm; height:5.27cm;""><p>What type of rock is this?</p>",6,class_response,1,test,45,Peridotite,Diorite,9,FALSE,7,3,,,,,,,,,,,,,,,,,,
,,,,,,,,,,,html-keyboard-response,229,2.0.0,945376,66d74b9d2a9bfcaf3ddbe8a3,4,18,null,,,,,,,,,<p style='font-size: 30px;'><strong>Okay</strong></p>,null,neutral_feedback,1,test,45,,,,,,,,,,,,,,,,,,,,,,,,
,,,,,,,,,,,html-button-response,230,2.0.0,950002,66d74b9d2a9bfcaf3ddbe8a3,4,18,4618,,,,,,,,,"<img src= ""rock_img/I_Andesite_03.jpg"" style=""width:8cm; height:5.73cm;""><p>What type of rock is this?</p>",4,class_response,1,test,46,Obsidian,Andesite,3,FALSE,5,1,,,,,,,,,,,,,,,,,,
,,,,,,,,,,,html-keyboard-response,231,2.0.0,950506,66d74b9d2a9bfcaf3ddbe8a3,4,18,null,,,,,,,,,<p style='font-size: 30px;'><strong>Okay</strong></p>,null,neutral_feedback,1,test,46,,,,,,,,,,,,,,,,,,,,,,,,
,,,,,,,,,,,html-button-response,232,2.0.0,952337,66d74b9d2a9bfcaf3ddbe8a3,4,18,1820,,,,,,,,,"<img src= ""rock_img/I_Pegmatite_11.jpg"" style=""width:8cm; height:8.14cm;""><p>What type of rock is this?</p>",4,class_response,1,test,47,Obsidian,Pegmatite,11,FALSE,5,6,,,,,,,,,,,,,,,,,,
,,,,,,,,,,,html-keyboard-response,233,2.0.0,952841,66d74b9d2a9bfcaf3ddbe8a3,4,18,null,,,,,,,,,<p style='font-size: 30px;'><strong>Okay</strong></p>,null,neutral_feedback,1,test,47,,,,,,,,,,,,,,,,,,,,,,,,
,,,,,,,,,,,html-button-response,234,2.0.0,954626,66d74b9d2a9bfcaf3ddbe8a3,4,18,1776,,,,,,,,,"<img src= ""rock_img/I_Peridotite_02.jpg"" style=""width:8cm; height:5.859999999999999cm;""><p>What type of rock is this?</p>",6,class_response,1,test,48,Peridotite,Peridotite,2,TRUE,7,7,,,,,,,,,,,,,,,,,,
,,,,,,,,,,,html-keyboard-response,235,2.0.0,955130,66d74b9d2a9bfcaf3ddbe8a3,4,18,null,,,,,,,,,<p style='font-size: 30px;'><strong>Okay</strong></p>,null,neutral_feedback,1,test,48,,,,,,,,,,,,,,,,,,,,,,,,
,,,,,,,,,,,html-button-response,236,2.0.0,998169,66d74b9d2a9bfcaf3ddbe8a3,4,18,,,,,,,,,,,,cycle_feedback,,,,,,,,,,,,,,,,,,,,,,,,17214.4,25784.9,,
,,,,,,,,,,,html-button-response,238,2.0.0,1000357,66d74b9d2a9bfcaf3ddbe8a3,4,18,2179,,,,,,,,,,0,start_train,,,,,,,,,,,,,,,,,,,,,,,,,,,
,,,,,,,,,,,html-button-response,240,2.0.0,1006247,66d74b9d2a9bfcaf3ddbe8a3,4,18,5882,,,,,,,,,"<img src= ""rock_img/I_Peridotite_13.jpg"" style=""width:8cm; height:7.58cm;""><p>What type of rock is this?</p>",0,class_response,2,train,1,Andesite,Peridotite,13,FALSE,1,7,,,,,,,,,,,,,,,,,,
,,,,,,,,,,,html-button-response,241,2.0.0,1009523,66d74b9d2a9bfcaf3ddbe8a3,4,18,3271,,,,,,,,,"<img src= rock_img/I_Peridotite_13.jpg style=""width:8cm; height:7.58cm;""><p style='font-size: 30px; color: red;'><strong>Incorrect!</strong></p><p style='font-size: 30px;'><strong>This rock is peridotite</strong></p>",0,corr_feedback,2,train,1,,,,,,,,,,,,,,,,,,,,,,,,
,,,,,,,,,,,html-button-response,242,2.0.0,1015808,66d74b9d2a9bfcaf3ddbe8a3,4,18,6277,,,,,,,,,"<img src= ""rock_img/I_Pegmatite_08.jpg"" style=""width:8cm; height:7.68cm;""><p>What type of rock is this?</p>",3,class_response,2,train,2,Gabbro,Pegmatite,8,FALSE,4,6,,,,,,,,,,,,,,,,,,
,,,,,,,,,,,html-button-response,243,2.0.0,1022577,66d74b9d2a9bfcaf3ddbe8a3,4,18,6761,,,,,,,,,"<img src= rock_img/I_Pegmatite_08.jpg style=""width:8cm; height:7.68cm;""><p style='font-size: 30px; color: red;'><strong>Incorrect!</strong></p><p style='font-size: 30px;'><strong>This rock is pegmatite</strong></p>",0,corr_feedback,2,train,2,,,,,,,,,,,,,,,,,,,,,,,,
,,,,,,,,,,,html-button-response,244,2.0.0,1026813,66d74b9d2a9bfcaf3ddbe8a3,4,18,4227,,,,,,,,,"<img src= ""rock_img/I_Andesite_06.jpg"" style=""width:8cm; height:6.840000000000001cm;""><p>What type of rock is this?</p>",1,class_response,2,train,3,Basalt,Andesite,6,FALSE,2,1,,,,,,,,,,,,,,,,,,
,,,,,,,,,,,html-button-response,245,2.0.0,1028836,66d74b9d2a9bfcaf3ddbe8a3,4,18,2017,,,,,,,,,"<img src= rock_img/I_Andesite_06.jpg style=""width:8cm; height:6.840000000000001cm;""><p style='font-size: 30px; color: red;'><strong>Incorrect!</strong></p><p style='font-size: 30px;'><strong>This rock is andesite</strong></p>",0,corr_feedback,2,train,3,,,,,,,,,,,,,,,,,,,,,,,,
,,,,,,,,,,,html-button-response,246,2.0.0,1032069,66d74b9d2a9bfcaf3ddbe8a3,4,18,3225,,,,,,,,,"<img src= ""rock_img/I_Pumice_10.jpg"" style=""width:8cm; height:7.609999999999999cm;""><p>What type of rock is this?</p>",7,class_response,2,train,4,Pumice,Pumice,10,TRUE,8,8,,,,,,,,,,,,,,,,,,
,,,,,,,,,,,html-button-response,247,2.0.0,1033285,66d74b9d2a9bfcaf3ddbe8a3,4,18,1211,,,,,,,,,"<img src= rock_img/I_Pumice_10.jpg style=""width:8cm; height:7.609999999999999cm;""><p style='font-size: 30px; color: green;'><strong>Correct!</strong></p><p style='font-size: 30px;'><strong>This rock is pumice</strong></p>",0,corr_feedback,2,train,4,,,,,,,,,,,,,,,,,,,,,,,,
,,,,,,,,,,,html-button-response,248,2.0.0,1036423,66d74b9d2a9bfcaf3ddbe8a3,4,18,3130,,,,,,,,,"<img src= ""rock_img/I_Basalt_08.jpg"" style=""width:8cm; height:10.44cm;""><p>What type of rock is this?</p>",4,class_response,2,train,5,Obsidian,Basalt,8,FALSE,5,2,,,,,,,,,,,,,,,,,,
,,,,,,,,,,,html-button-response,249,2.0.0,1040621,66d74b9d2a9bfcaf3ddbe8a3,4,18,4192,,,,,,,,,"<img src= rock_img/I_Basalt_08.jpg style=""width:8cm; height:10.44cm;""><p style='font-size: 30px; color: red;'><strong>Incorrect!</strong></p><p style='font-size: 30px;'><strong>This rock is basalt</strong></p>",0,corr_feedback,2,train,5,,,,,,,,,,,,,,,,,,,,,,,,
,,,,,,,,,,,html-button-response,250,2.0.0,1046885,66d74b9d2a9bfcaf3ddbe8a3,4,18,6255,,,,,,,,,"<img src= ""rock_img/I_Diorite_11.jpg"" style=""width:8cm; height:7.11cm;""><p>What type of rock is this?</p>",6,class_response,2,train,6,Peridotite,Diorite,11,FALSE,7,3,,,,,,,,,,,,,,,,,,
,,,,,,,,,,,html-button-response,251,2.0.0,1048728,66d74b9d2a9bfcaf3ddbe8a3,4,18,1837,,,,,,,,,"<img src= rock_img/I_Diorite_11.jpg style=""width:8cm; height:7.11cm;""><p style='font-size: 30px; color: red;'><strong>Incorrect!</strong></p><p style='font-size: 30px;'><strong>This rock is diorite</strong></p>",0,corr_feedback,2,train,6,,,,,,,,,,,,,,,,,,,,,,,,
,,,,,,,,,,,html-button-response,252,2.0.0,1051006,66d74b9d2a9bfcaf3ddbe8a3,4,18,2268,,,,,,,,,"<img src= ""rock_img/I_Basalt_12.jpg"" style=""width:8cm; height:6.010000000000001cm;""><p>What type of rock is this?</p>",7,class_response,2,train,7,Pumice,Basalt,12,FALSE,8,2,,,,,,,,,,,,,,,,,,
,,,,,,,,,,,html-button-response,253,2.0.0,1052940,66d74b9d2a9bfcaf3ddbe8a3,4,18,1928,,,,,,,,,"<img src= rock_img/I_Basalt_12.jpg style=""width:8cm; height:6.010000000000001cm;""><p style='font-size: 30px; color: red;'><strong>Incorrect!</strong></p><p style='font-size: 30px;'><strong>This rock is basalt</strong></p>",0,corr_feedback,2,train,7,,,,,,,,,,,,,,,,,,,,,,,,
,,,,,,,,,,,html-button-response,254,2.0.0,1054607,66d74b9d2a9bfcaf3ddbe8a3,4,18,1660,,,,,,,,,"<img src= ""rock_img/I_Obsidian_11.jpg"" style=""width:8cm; height:6.05cm;""><p>What type of rock is this?</p>",4,class_response,2,train,8,Obsidian,Obsidian,11,TRUE,5,5,,,,,,,,,,,,,,,,,,
,,,,,,,,,,,html-button-response,255,2.0.0,1056721,66d74b9d2a9bfcaf3ddbe8a3,4,18,2107,,,,,,,,,"<img src= rock_img/I_Obsidian_11.jpg style=""width:8cm; height:6.05cm;""><p style='font-size: 30px; color: green;'><strong>Correct!</strong></p><p style='font-size: 30px;'><strong>This rock is obsidian</strong></p>",0,corr_feedback,2,train,8,,,,,,,,,,,,,,,,,,,,,,,,
,,,,,,,,,,,html-button-response,256,2.0.0,1058157,66d74b9d2a9bfcaf3ddbe8a3,4,18,1429,,,,,,,,,"<img src= ""rock_img/I_Obsidian_04.jpg"" style=""width:8cm; height:6.930000000000001cm;""><p>What type of rock is this?</p>",4,class_response,2,train,9,Obsidian,Obsidian,4,TRUE,5,5,,,,,,,,,,,,,,,,,,
,,,,,,,,,,,html-button-response,257,2.0.0,1059565,66d74b9d2a9bfcaf3ddbe8a3,4,18,1401,,,,,,,,,"<img src= rock_img/I_Obsidian_04.jpg style=""width:8cm; height:6.930000000000001cm;""><p style='font-size: 30px; color: green;'><strong>Correct!</strong></p><p style='font-size: 30px;'><strong>This rock is obsidian</strong></p>",0,corr_feedback,2,train,9,,,,,,,,,,,,,,,,,,,,,,,,
,,,,,,,,,,,html-button-response,258,2.0.0,1080959,66d74b9d2a9bfcaf3ddbe8a3,4,18,21389,,,,,,,,,"<img src= ""rock_img/I_Gabbro_13.jpg"" style=""width:8cm; height:5.08cm;""><p>What type of rock is this?</p>",5,class_response,2,train,10,Pegmatite,Gabbro,13,FALSE,6,4,,,,,,,,,,,,,,,,,,
,,,,,,,,,,,html-button-response,259,2.0.0,1082257,66d74b9d2a9bfcaf3ddbe8a3,4,18,1293,,,,,,,,,"<img src= rock_img/I_Gabbro_13.jpg style=""width:8cm; height:5.08cm;""><p style='font-size: 30px; color: red;'><strong>Incorrect!</strong></p><p style='font-size: 30px;'><strong>This rock is gabbro</strong></p>",0,corr_feedback,2,train,10,,,,,,,,,,,,,,,,,,,,,,,,
,,,,,,,,,,,html-button-response,260,2.0.0,1090145,66d74b9d2a9bfcaf3ddbe8a3,4,18,7880,,,,,,,,,"<img src= ""rock_img/I_Peridotite_14.jpg"" style=""width:8cm; height:5.3cm;""><p>What type of rock is this?</p>",6,class_response,2,train,11,Peridotite,Peridotite,14,TRUE,7,7,,,,,,,,,,,,,,,,,,
,,,,,,,,,,,html-button-response,261,2.0.0,1094492,66d74b9d2a9bfcaf3ddbe8a3,4,18,4341,,,,,,,,,"<img src= rock_img/I_Peridotite_14.jpg style=""width:8cm; height:5.3cm;""><p style='font-size: 30px; color: green;'><strong>Correct!</strong></p><p style='font-size: 30px;'><strong>This rock is peridotite</strong></p>",0,corr_feedback,2,train,11,,,,,,,,,,,,,,,,,,,,,,,,
,,,,,,,,,,,html-button-response,262,2.0.0,1096408,66d74b9d2a9bfcaf3ddbe8a3,4,18,1909,,,,,,,,,"<img src= ""rock_img/I_Pegmatite_16.jpg"" style=""width:8cm; height:5.8cm;""><p>What type of rock is this?</p>",3,class_response,2,train,12,Gabbro,Pegmatite,16,FALSE,4,6,,,,,,,,,,,,,,,,,,
,,,,,,,,,,,html-button-response,263,2.0.0,1097720,66d74b9d2a9bfcaf3ddbe8a3,4,18,1306,,,,,,,,,"<img src= rock_img/I_Pegmatite_16.jpg style=""width:8cm; height:5.8cm;""><p style='font-size: 30px; color: red;'><strong>Incorrect!</strong></p><p style='font-size: 30px;'><strong>This rock is pegmatite</strong></p>",0,corr_feedback,2,train,12,,,,,,,,,,,,,,,,,,,,,,,,
,,,,,,,,,,,html-button-response,265,2.0.0,1099089,66d74b9d2a9bfcaf3ddbe8a3,4,18,1363,,,,,,,,,,0,start_train,,,,,,,,,,,,,,,,,,,,,,,,,,,
,,,,,,,,,,,html-button-response,266,2.0.0,1105697,66d74b9d2a9bfcaf3ddbe8a3,4,18,,,,,,,,,,,,cat_selection,2,train,1,,,,,,,3969.9,2633.2,7,1,Peridotite,Andesite,,,,,,,,,,,,
,,,,,,,,,,,paired-cat-display,267,1.0.0,1179094,66d74b9d2a9bfcaf3ddbe8a3,4,18,,,,,,,,,,,,paired_cat_display,2,train,1,,,,,,,,,,,,,,,18244.6,55134.1,rugged broken street rocks,,,,,,swamp rocks broken,
,,,,,,,,,,,html-button-response,268,2.0.0,1188832,66d74b9d2a9bfcaf3ddbe8a3,4,18,,,,,,,,,,,,cat_selection,2,train,2,,,,,,,5038.9,4691.6,3,6,Diorite,Pegmatite,,,,,,,,,,,,
,,,,,,,,,,,paired-cat-display,269,1.0.0,1251139,66d74b9d2a9bfcaf3ddbe8a3,4,18,,,,,,,,,,,,paired_cat_display,2,train,2,,,,,,,,,,,,,,"building rocks, wall climb",9471,52819.9,,,,,,,,"pretty, rugged, collectable"
,,,,,,,,,,,html-button-response,270,2.0.0,1272937,66d74b9d2a9bfcaf3ddbe8a3,4,18,,,,,,,,,,,,cat_selection,2,train,3,,,,,,,7976.5,13815.5,2,6,Basalt,Pegmatite,,,,,,,,,,,,
,,,,,,,,,,,paired-cat-display,271,1.0.0,1325903,66d74b9d2a9bfcaf3ddbe8a3,4,18,,,,,,,,,,,,paired_cat_display,2,train,3,,,,,,,,,,,,,,,6374.7,46577.5,,"stone, kind of smooth feel",,,,,,pretty collectable rugged
,,,,,,,,,,,html-button-response,273,2.0.0,1328713,66d74b9d2a9bfcaf3ddbe8a3,4,18,2803,,,,,,,,,,0,start_test,,,,,,,,,,,,,,,,,,,,,,,,,,,
,,,,,,,,,,,html-button-response,274,2.0.0,1356509,66d74b9d2a9bfcaf3ddbe8a3,4,18,27785,,,,,,,,,"<img src= ""rock_img/I_Peridotite_07.jpg"" style=""width:8cm; height:4.83cm;""><p>What type of rock is this?</p>",0,class_response,2,test,1,Andesite,Peridotite,7,FALSE,1,7,,,,,,,,,,,,,,,,,,
,,,,,,,,,,,html-keyboard-response,275,2.0.0,1357014,66d74b9d2a9bfcaf3ddbe8a3,4,18,null,,,,,,,,,<p style='font-size: 30px;'><strong>Okay</strong></p>,null,neutral_feedback,2,test,1,,,,,,,,,,,,,,,,,,,,,,,,
,,,,,,,,,,,html-button-response,276,2.0.0,1368650,66d74b9d2a9bfcaf3ddbe8a3,4,18,11623,,,,,,,,,"<img src= ""rock_img/I_Obsidian_07.jpg"" style=""width:8cm; height:4.76cm;""><p>What type of rock is this?</p>",5,class_response,2,test,2,Obsidian,Obsidian,7,TRUE,5,5,,,,,,,,,,,,,,,,,,
,,,,,,,,,,,html-keyboard-response,277,2.0.0,1369156,66d74b9d2a9bfcaf3ddbe8a3,4,18,null,,,,,,,,,<p style='font-size: 30px;'><strong>Okay</strong></p>,null,neutral_feedback,2,test,2,,,,,,,,,,,,,,,,,,,,,,,,
,,,,,,,,,,,html-button-response,278,2.0.0,1382611,66d74b9d2a9bfcaf3ddbe8a3,4,18,13445,,,,,,,,,"<img src= ""rock_img/I_Pegmatite_05.jpg"" style=""width:8cm; height:7.300000000000001cm;""><p>What type of rock is this?</p>",5,class_response,2,test,3,Pegmatite,Pegmatite,5,TRUE,6,6,,,,,,,,,,,,,,,,,,
,,,,,,,,,,,html-keyboard-response,279,2.0.0,1383117,66d74b9d2a9bfcaf3ddbe8a3,4,18,null,,,,,,,,,<p style='font-size: 30px;'><strong>Okay</strong></p>,null,neutral_feedback,2,test,3,,,,,,,,,,,,,,,,,,,,,,,,
,,,,,,,,,,,html-button-response,280,2.0.0,1403208,66d74b9d2a9bfcaf3ddbe8a3,4,18,20076,,,,,,,,,"<img src= ""rock_img/I_Gabbro_10.jpg"" style=""width:8cm; height:5.680000000000001cm;""><p>What type of rock is this?</p>",6,class_response,2,test,4,Peridotite,Gabbro,10,FALSE,7,4,,,,,,,,,,,,,,,,,,
,,,,,,,,,,,html-keyboard-response,281,2.0.0,1403713,66d74b9d2a9bfcaf3ddbe8a3,4,18,null,,,,,,,,,<p style='font-size: 30px;'><strong>Okay</strong></p>,null,neutral_feedback,2,test,4,,,,,,,,,,,,,,,,,,,,,,,,
,,,,,,,,,,,html-button-response,282,2.0.0,1421960,66d74b9d2a9bfcaf3ddbe8a3,4,18,18235,,,,,,,,,"<img src= ""rock_img/I_Basalt_09.jpg"" style=""width:8cm; height:6.2cm;""><p>What type of rock is this?</p>",5,class_response,2,test,5,Pegmatite,Basalt,9,FALSE,6,2,,,,,,,,,,,,,,,,,,
,,,,,,,,,,,html-keyboard-response,283,2.0.0,1422464,66d74b9d2a9bfcaf3ddbe8a3,4,18,null,,,,,,,,,<p style='font-size: 30px;'><strong>Okay</strong></p>,null,neutral_feedback,2,test,5,,,,,,,,,,,,,,,,,,,,,,,,
,,,,,,,,,,,html-button-response,284,2.0.0,1431611,66d74b9d2a9bfcaf3ddbe8a3,4,18,9139,,,,,,,,,"<img src= ""rock_img/I_Peridotite_16.jpg"" style=""width:8cm; height:6.989999999999999cm;""><p>What type of rock is this?</p>",3,class_response,2,test,6,Gabbro,Peridotite,16,FALSE,4,7,,,,,,,,,,,,,,,,,,
,,,,,,,,,,,html-keyboard-response,285,2.0.0,1432115,66d74b9d2a9bfcaf3ddbe8a3,4,18,null,,,,,,,,,<p style='font-size: 30px;'><strong>Okay</strong></p>,null,neutral_feedback,2,test,6,,,,,,,,,,,,,,,,,,,,,,,,
,,,,,,,,,,,html-button-response,286,2.0.0,1434938,66d74b9d2a9bfcaf3ddbe8a3,4,18,2811,,,,,,,,,"<img src= ""rock_img/I_Basalt_02.jpg"" style=""width:8cm; height:6.45cm;""><p>What type of rock is this?</p>",5,class_response,2,test,7,Pegmatite,Basalt,2,FALSE,6,2,,,,,,,,,,,,,,,,,,
,,,,,,,,,,,html-keyboard-response,287,2.0.0,1435443,66d74b9d2a9bfcaf3ddbe8a3,4,18,null,,,,,,,,,<p style='font-size: 30px;'><strong>Okay</strong></p>,null,neutral_feedback,2,test,7,,,,,,,,,,,,,,,,,,,,,,,,
,,,,,,,,,,,html-button-response,288,2.0.0,1439409,66d74b9d2a9bfcaf3ddbe8a3,4,18,3958,,,,,,,,,"<img src= ""rock_img/I_Peridotite_04.jpg"" style=""width:8cm; height:6.680000000000001cm;""><p>What type of rock is this?</p>",5,class_response,2,test,8,Peridotite,Peridotite,4,TRUE,7,7,,,,,,,,,,,,,,,,,,
,,,,,,,,,,,html-keyboard-response,289,2.0.0,1439914,66d74b9d2a9bfcaf3ddbe8a3,4,18,null,,,,,,,,,<p style='font-size: 30px;'><strong>Okay</strong></p>,null,neutral_feedback,2,test,8,,,,,,,,,,,,,,,,,,,,,,,,
,,,,,,,,,,,html-button-response,290,2.0.0,1450497,66d74b9d2a9bfcaf3ddbe8a3,4,18,10572,,,,,,,,,"<img src= ""rock_img/I_Basalt_16.jpg"" style=""width:8cm; height:7.659999999999999cm;""><p>What type of rock is this?</p>",1,class_response,2,test,9,Basalt,Basalt,16,TRUE,2,2,,,,,,,,,,,,,,,,,,
,,,,,,,,,,,html-keyboard-response,291,2.0.0,1451002,66d74b9d2a9bfcaf3ddbe8a3,4,18,null,,,,,,,,,<p style='font-size: 30px;'><strong>Okay</strong></p>,null,neutral_feedback,2,test,9,,,,,,,,,,,,,,,,,,,,,,,,
,,,,,,,,,,,html-button-response,292,2.0.0,1460967,66d74b9d2a9bfcaf3ddbe8a3,4,18,9956,,,,,,,,,"<img src= ""rock_img/I_Diorite_02.jpg"" style=""width:8cm; height:6.27cm;""><p>What type of rock is this?</p>",1,class_response,2,test,10,Basalt,Diorite,2,FALSE,2,3,,,,,,,,,,,,,,,,,,
,,,,,,,,,,,html-keyboard-response,293,2.0.0,1461474,66d74b9d2a9bfcaf3ddbe8a3,4,18,null,,,,,,,,,<p style='font-size: 30px;'><strong>Okay</strong></p>,null,neutral_feedback,2,test,10,,,,,,,,,,,,,,,,,,,,,,,,
,,,,,,,,,,,html-button-response,294,2.0.0,1466134,66d74b9d2a9bfcaf3ddbe8a3,4,18,4653,,,,,,,,,"<img src= ""rock_img/I_Gabbro_09.jpg"" style=""width:8cm; height:7.279999999999999cm;""><p>What type of rock is this?</p>",1,class_response,2,test,11,Basalt,Gabbro,9,FALSE,2,4,,,,,,,,,,,,,,,,,,
,,,,,,,,,,,html-keyboard-response,295,2.0.0,1466640,66d74b9d2a9bfcaf3ddbe8a3,4,18,null,,,,,,,,,<p style='font-size: 30px;'><strong>Okay</strong></p>,null,neutral_feedback,2,test,11,,,,,,,,,,,,,,,,,,,,,,,,
,,,,,,,,,,,html-button-response,296,2.0.0,1468310,66d74b9d2a9bfcaf3ddbe8a3,4,18,1656,,,,,,,,,"<img src= ""rock_img/I_Pumice_05.jpg"" style=""width:8cm; height:7.25cm;""><p>What type of rock is this?</p>",7,class_response,2,test,12,Pumice,Pumice,5,TRUE,8,8,,,,,,,,,,,,,,,,,,
,,,,,,,,,,,html-keyboard-response,297,2.0.0,1468815,66d74b9d2a9bfcaf3ddbe8a3,4,18,null,,,,,,,,,<p style='font-size: 30px;'><strong>Okay</strong></p>,null,neutral_feedback,2,test,12,,,,,,,,,,,,,,,,,,,,,,,,
,,,,,,,,,,,html-button-response,298,2.0.0,1469813,66d74b9d2a9bfcaf3ddbe8a3,4,18,987,,,,,,,,,"<img src= ""rock_img/I_Pumice_02.jpg"" style=""width:8cm; height:7.3999999999999995cm;""><p>What type of rock is this?</p>",7,class_response,2,test,13,Pumice,Pumice,2,TRUE,8,8,,,,,,,,,,,,,,,,,,
,,,,,,,,,,,html-keyboard-response,299,2.0.0,1470317,66d74b9d2a9bfcaf3ddbe8a3,4,18,null,,,,,,,,,<p style='font-size: 30px;'><strong>Okay</strong></p>,null,neutral_feedback,2,test,13,,,,,,,,,,,,,,,,,,,,,,,,
,,,,,,,,,,,html-button-response,300,2.0.0,1474482,66d74b9d2a9bfcaf3ddbe8a3,4,18,4155,,,,,,,,,"<img src= ""rock_img/I_Pegmatite_07.jpg"" style=""width:8cm; height:6.7cm;""><p>What type of rock is this?</p>",5,class_response,2,test,14,Pegmatite,Pegmatite,7,TRUE,6,6,,,,,,,,,,,,,,,,,,
,,,,,,,,,,,html-keyboard-response,301,2.0.0,1474989,66d74b9d2a9bfcaf3ddbe8a3,4,18,null,,,,,,,,,<p style='font-size: 30px;'><strong>Okay</strong></p>,null,neutral_feedback,2,test,14,,,,,,,,,,,,,,,,,,,,,,,,
,,,,,,,,,,,html-button-response,302,2.0.0,1479727,66d74b9d2a9bfcaf3ddbe8a3,4,18,4724,,,,,,,,,"<img src= ""rock_img/I_Basalt_04.jpg"" style=""width:8cm; height:7.53cm;""><p>What type of rock is this?</p>",5,class_response,2,test,15,Pegmatite,Basalt,4,FALSE,6,2,,,,,,,,,,,,,,,,,,
,,,,,,,,,,,html-keyboard-response,303,2.0.0,1480232,66d74b9d2a9bfcaf3ddbe8a3,4,18,null,,,,,,,,,<p style='font-size: 30px;'><strong>Okay</strong></p>,null,neutral_feedback,2,test,15,,,,,,,,,,,,,,,,,,,,,,,,
,,,,,,,,,,,html-button-response,304,2.0.0,1481887,66d74b9d2a9bfcaf3ddbe8a3,4,18,1644,,,,,,,,,"<img src= ""rock_img/I_Peridotite_02.jpg"" style=""width:8cm; height:5.859999999999999cm;""><p>What type of rock is this?</p>",3,class_response,2,test,16,Gabbro,Peridotite,2,FALSE,4,7,,,,,,,,,,,,,,,,,,
,,,,,,,,,,,html-keyboard-response,305,2.0.0,1482391,66d74b9d2a9bfcaf3ddbe8a3,4,18,null,,,,,,,,,<p style='font-size: 30px;'><strong>Okay</strong></p>,null,neutral_feedback,2,test,16,,,,,,,,,,,,,,,,,,,,,,,,
,,,,,,,,,,,html-button-response,306,2.0.0,1489250,66d74b9d2a9bfcaf3ddbe8a3,4,18,6850,,,,,,,,,"<img src= ""rock_img/I_Gabbro_05.jpg"" style=""width:8cm; height:6cm;""><p>What type of rock is this?</p>",6,class_response,2,test,17,Gabbro,Gabbro,5,TRUE,4,4,,,,,,,,,,,,,,,,,,
,,,,,,,,,,,html-keyboard-response,307,2.0.0,1489753,66d74b9d2a9bfcaf3ddbe8a3,4,18,null,,,,,,,,,<p style='font-size: 30px;'><strong>Okay</strong></p>,null,neutral_feedback,2,test,17,,,,,,,,,,,,,,,,,,,,,,,,
,,,,,,,,,,,html-button-response,308,2.0.0,1494558,66d74b9d2a9bfcaf3ddbe8a3,4,18,4799,,,,,,,,,"<img src= ""rock_img/I_Gabbro_15.jpg"" style=""width:8cm; height:6.29cm;""><p>What type of rock is this?</p>",0,class_response,2,test,18,Andesite,Gabbro,15,FALSE,1,4,,,,,,,,,,,,,,,,,,
,,,,,,,,,,,html-keyboard-response,309,2.0.0,1495064,66d74b9d2a9bfcaf3ddbe8a3,4,18,null,,,,,,,,,<p style='font-size: 30px;'><strong>Okay</strong></p>,null,neutral_feedback,2,test,18,,,,,,,,,,,,,,,,,,,,,,,,
,,,,,,,,,,,html-button-response,310,2.0.0,1497428,66d74b9d2a9bfcaf3ddbe8a3,4,18,2354,,,,,,,,,"<img src= ""rock_img/I_Andesite_02.jpg"" style=""width:8cm; height:8.5cm;""><p>What type of rock is this?</p>",3,class_response,2,test,19,Andesite,Andesite,2,TRUE,1,1,,,,,,,,,,,,,,,,,,
,,,,,,,,,,,html-keyboard-response,311,2.0.0,1497935,66d74b9d2a9bfcaf3ddbe8a3,4,18,null,,,,,,,,,<p style='font-size: 30px;'><strong>Okay</strong></p>,null,neutral_feedback,2,test,19,,,,,,,,,,,,,,,,,,,,,,,,
,,,,,,,,,,,html-button-response,312,2.0.0,1500323,66d74b9d2a9bfcaf3ddbe8a3,4,18,2376,,,,,,,,,"<img src= ""rock_img/I_Diorite_13.jpg"" style=""width:8cm; height:6.29cm;""><p>What type of rock is this?</p>",5,class_response,2,test,20,Pegmatite,Diorite,13,FALSE,6,3,,,,,,,,,,,,,,,,,,
,,,,,,,,,,,html-keyboard-response,313,2.0.0,1500827,66d74b9d2a9bfcaf3ddbe8a3,4,18,null,,,,,,,,,<p style='font-size: 30px;'><strong>Okay</strong></p>,null,neutral_feedback,2,test,20,,,,,,,,,,,,,,,,,,,,,,,,
,,,,,,,,,,,html-button-response,314,2.0.0,1501871,66d74b9d2a9bfcaf3ddbe8a3,4,18,1038,,,,,,,,,"<img src= ""rock_img/I_Pegmatite_06.jpg"" style=""width:8cm; height:5.17cm;""><p>What type of rock is this?</p>",5,class_response,2,test,21,Pegmatite,Pegmatite,6,TRUE,6,6,,,,,,,,,,,,,,,,,,
,,,,,,,,,,,html-keyboard-response,315,2.0.0,1502376,66d74b9d2a9bfcaf3ddbe8a3,4,18,null,,,,,,,,,<p style='font-size: 30px;'><strong>Okay</strong></p>,null,neutral_feedback,2,test,21,,,,,,,,,,,,,,,,,,,,,,,,
,,,,,,,,,,,html-button-response,316,2.0.0,1507387,66d74b9d2a9bfcaf3ddbe8a3,4,18,5002,,,,,,,,,"<img src= ""rock_img/I_Obsidian_06.jpg"" style=""width:8cm; height:6.8cm;""><p>What type of rock is this?</p>",4,class_response,2,test,22,Obsidian,Obsidian,6,TRUE,5,5,,,,,,,,,,,,,,,,,,
,,,,,,,,,,,html-keyboard-response,317,2.0.0,1507894,66d74b9d2a9bfcaf3ddbe8a3,4,18,null,,,,,,,,,<p style='font-size: 30px;'><strong>Okay</strong></p>,null,neutral_feedback,2,test,22,,,,,,,,,,,,,,,,,,,,,,,,
,,,,,,,,,,,html-button-response,318,2.0.0,1511341,66d74b9d2a9bfcaf3ddbe8a3,4,18,3438,,,,,,,,,"<img src= ""rock_img/I_Andesite_05.jpg"" style=""width:8cm; height:4.12cm;""><p>What type of rock is this?</p>",2,class_response,2,test,23,Diorite,Andesite,5,FALSE,3,1,,,,,,,,,,,,,,,,,,
,,,,,,,,,,,html-keyboard-response,319,2.0.0,1511847,66d74b9d2a9bfcaf3ddbe8a3,4,18,null,,,,,,,,,<p style='font-size: 30px;'><strong>Okay</strong></p>,null,neutral_feedback,2,test,23,,,,,,,,,,,,,,,,,,,,,,,,
,,,,,,,,,,,html-button-response,320,2.0.0,1514545,66d74b9d2a9bfcaf3ddbe8a3,4,18,2680,,,,,,,,,"<img src= ""rock_img/I_Basalt_06.jpg"" style=""width:8cm; height:7.06cm;""><p>What type of rock is this?</p>",5,class_response,2,test,24,Pegmatite,Basalt,6,FALSE,6,2,,,,,,,,,,,,,,,,,,
,,,,,,,,,,,html-keyboard-response,321,2.0.0,1515050,66d74b9d2a9bfcaf3ddbe8a3,4,18,null,,,,,,,,,<p style='font-size: 30px;'><strong>Okay</strong></p>,null,neutral_feedback,2,test,24,,,,,,,,,,,,,,,,,,,,,,,,
,,,,,,,,,,,html-button-response,322,2.0.0,1521655,66d74b9d2a9bfcaf3ddbe8a3,4,18,6593,,,,,,,,,"<img src= ""rock_img/I_Peridotite_15.jpg"" style=""width:8cm; height:6cm;""><p>What type of rock is this?</p>",5,class_response,2,test,25,Pegmatite,Peridotite,15,FALSE,6,7,,,,,,,,,,,,,,,,,,
,,,,,,,,,,,html-keyboard-response,323,2.0.0,1522159,66d74b9d2a9bfcaf3ddbe8a3,4,18,null,,,,,,,,,<p style='font-size: 30px;'><strong>Okay</strong></p>,null,neutral_feedback,2,test,25,,,,,,,,,,,,,,,,,,,,,,,,
,,,,,,,,,,,html-button-response,324,2.0.0,1525197,66d74b9d2a9bfcaf3ddbe8a3,4,18,3029,,,,,,,,,"<img src= ""rock_img/I_Diorite_14.jpg"" style=""width:8cm; height:5.71cm;""><p>What type of rock is this?</p>",6,class_response,2,test,26,Diorite,Diorite,14,TRUE,3,3,,,,,,,,,,,,,,,,,,
,,,,,,,,,,,html-keyboard-response,325,2.0.0,1525702,66d74b9d2a9bfcaf3ddbe8a3,4,18,null,,,,,,,,,<p style='font-size: 30px;'><strong>Okay</strong></p>,null,neutral_feedback,2,test,26,,,,,,,,,,,,,,,,,,,,,,,,
,,,,,,,,,,,html-button-response,326,2.0.0,1527996,66d74b9d2a9bfcaf3ddbe8a3,4,18,2281,,,,,,,,,"<img src= ""rock_img/I_Peridotite_05.jpg"" style=""width:8cm; height:7.1499999999999995cm;""><p>What type of rock is this?</p>",3,class_response,2,test,27,Gabbro,Peridotite,5,FALSE,4,7,,,,,,,,,,,,,,,,,,
,,,,,,,,,,,html-keyboard-response,327,2.0.0,1528502,66d74b9d2a9bfcaf3ddbe8a3,4,18,null,,,,,,,,,<p style='font-size: 30px;'><strong>Okay</strong></p>,null,neutral_feedback,2,test,27,,,,,,,,,,,,,,,,,,,,,,,,
,,,,,,,,,,,html-button-response,328,2.0.0,1529947,66d74b9d2a9bfcaf3ddbe8a3,4,18,1439,,,,,,,,,"<img src= ""rock_img/I_Pumice_06.jpg"" style=""width:8cm; height:6.9399999999999995cm;""><p>What type of rock is this?</p>",0,class_response,2,test,28,Pumice,Pumice,6,TRUE,8,8,,,,,,,,,,,,,,,,,,
,,,,,,,,,,,html-keyboard-response,329,2.0.0,1530451,66d74b9d2a9bfcaf3ddbe8a3,4,18,null,,,,,,,,,<p style='font-size: 30px;'><strong>Okay</strong></p>,null,neutral_feedback,2,test,28,,,,,,,,,,,,,,,,,,,,,,,,
,,,,,,,,,,,html-button-response,330,2.0.0,1532199,66d74b9d2a9bfcaf3ddbe8a3,4,18,1736,,,,,,,,,"<img src= ""rock_img/I_Andesite_07.jpg"" style=""width:8cm; height:5.93cm;""><p>What type of rock is this?</p>",1,class_response,2,test,29,Basalt,Andesite,7,FALSE,2,1,,,,,,,,,,,,,,,,,,
,,,,,,,,,,,html-keyboard-response,331,2.0.0,1532704,66d74b9d2a9bfcaf3ddbe8a3,4,18,null,,,,,,,,,<p style='font-size: 30px;'><strong>Okay</strong></p>,null,neutral_feedback,2,test,29,,,,,,,,,,,,,,,,,,,,,,,,
,,,,,,,,,,,html-button-response,332,2.0.0,1537333,66d74b9d2a9bfcaf3ddbe8a3,4,18,4620,,,,,,,,,"<img src= ""rock_img/I_Obsidian_09.jpg"" style=""width:8cm; height:5cm;""><p>What type of rock is this?</p>",5,class_response,2,test,30,Pegmatite,Obsidian,9,FALSE,6,5,,,,,,,,,,,,,,,,,,
,,,,,,,,,,,html-keyboard-response,333,2.0.0,1537840,66d74b9d2a9bfcaf3ddbe8a3,4,18,null,,,,,,,,,<p style='font-size: 30px;'><strong>Okay</strong></p>,null,neutral_feedback,2,test,30,,,,,,,,,,,,,,,,,,,,,,,,
,,,,,,,,,,,html-button-response,334,2.0.0,1541063,66d74b9d2a9bfcaf3ddbe8a3,4,18,3208,,,,,,,,,"<img src= ""rock_img/I_Gabbro_11.jpg"" style=""width:8cm; height:6.2cm;""><p>What type of rock is this?</p>",2,class_response,2,test,31,Diorite,Gabbro,11,FALSE,3,4,,,,,,,,,,,,,,,,,,
,,,,,,,,,,,html-keyboard-response,335,2.0.0,1541569,66d74b9d2a9bfcaf3ddbe8a3,4,18,null,,,,,,,,,<p style='font-size: 30px;'><strong>Okay</strong></p>,null,neutral_feedback,2,test,31,,,,,,,,,,,,,,,,,,,,,,,,
,,,,,,,,,,,html-button-response,336,2.0.0,1549496,66d74b9d2a9bfcaf3ddbe8a3,4,18,7919,,,,,,,,,"<img src= ""rock_img/I_Pumice_16.jpg"" style=""width:8cm; height:6.79cm;""><p>What type of rock is this?</p>",7,class_response,2,test,32,Pumice,Pumice,16,TRUE,8,8,,,,,,,,,,,,,,,,,,
,,,,,,,,,,,html-keyboard-response,337,2.0.0,1550000,66d74b9d2a9bfcaf3ddbe8a3,4,18,null,,,,,,,,,<p style='font-size: 30px;'><strong>Okay</strong></p>,null,neutral_feedback,2,test,32,,,,,,,,,,,,,,,,,,,,,,,,
,,,,,,,,,,,html-button-response,338,2.0.0,1552432,66d74b9d2a9bfcaf3ddbe8a3,4,18,2422,,,,,,,,,"<img src= ""rock_img/I_Pegmatite_15.jpg"" style=""width:8cm; height:6cm;""><p>What type of rock is this?</p>",5,class_response,2,test,33,Pegmatite,Pegmatite,15,TRUE,6,6,,,,,,,,,,,,,,,,,,
,,,,,,,,,,,html-keyboard-response,339,2.0.0,1552937,66d74b9d2a9bfcaf3ddbe8a3,4,18,null,,,,,,,,,<p style='font-size: 30px;'><strong>Okay</strong></p>,null,neutral_feedback,2,test,33,,,,,,,,,,,,,,,,,,,,,,,,
,,,,,,,,,,,html-button-response,340,2.0.0,1554658,66d74b9d2a9bfcaf3ddbe8a3,4,18,1711,,,,,,,,,"<img src= ""rock_img/I_Obsidian_16.jpg"" style=""width:8cm; height:9.3cm;""><p>What type of rock is this?</p>",4,class_response,2,test,34,Obsidian,Obsidian,16,TRUE,5,5,,,,,,,,,,,,,,,,,,
,,,,,,,,,,,html-keyboard-response,341,2.0.0,1555163,66d74b9d2a9bfcaf3ddbe8a3,4,18,null,,,,,,,,,<p style='font-size: 30px;'><strong>Okay</strong></p>,null,neutral_feedback,2,test,34,,,,,,,,,,,,,,,,,,,,,,,,
,,,,,,,,,,,html-button-response,342,2.0.0,1558569,66d74b9d2a9bfcaf3ddbe8a3,4,18,3394,,,,,,,,,"<img src= ""rock_img/I_Andesite_11.jpg"" style=""width:8cm; height:4.92cm;""><p>What type of rock is this?</p>",0,class_response,2,test,35,Andesite,Andesite,11,TRUE,1,1,,,,,,,,,,,,,,,,,,
,,,,,,,,,,,html-keyboard-response,343,2.0.0,1559073,66d74b9d2a9bfcaf3ddbe8a3,4,18,null,,,,,,,,,<p style='font-size: 30px;'><strong>Okay</strong></p>,null,neutral_feedback,2,test,35,,,,,,,,,,,,,,,,,,,,,,,,
,,,,,,,,,,,html-button-response,344,2.0.0,1561275,66d74b9d2a9bfcaf3ddbe8a3,4,18,2196,,,,,,,,,"<img src= ""rock_img/I_Andesite_03.jpg"" style=""width:8cm; height:5.73cm;""><p>What type of rock is this?</p>",1,class_response,2,test,36,Basalt,Andesite,3,FALSE,2,1,,,,,,,,,,,,,,,,,,
,,,,,,,,,,,html-keyboard-response,345,2.0.0,1561781,66d74b9d2a9bfcaf3ddbe8a3,4,18,null,,,,,,,,,<p style='font-size: 30px;'><strong>Okay</strong></p>,null,neutral_feedback,2,test,36,,,,,,,,,,,,,,,,,,,,,,,,
,,,,,,,,,,,html-button-response,346,2.0.0,1563947,66d74b9d2a9bfcaf3ddbe8a3,4,18,2155,,,,,,,,,"<img src= ""rock_img/I_Andesite_16.jpg"" style=""width:8cm; height:6.010000000000001cm;""><p>What type of rock is this?</p>",2,class_response,2,test,37,Diorite,Andesite,16,FALSE,3,1,,,,,,,,,,,,,,,,,,
,,,,,,,,,,,html-keyboard-response,347,2.0.0,1564453,66d74b9d2a9bfcaf3ddbe8a3,4,18,null,,,,,,,,,<p style='font-size: 30px;'><strong>Okay</strong></p>,null,neutral_feedback,2,test,37,,,,,,,,,,,,,,,,,,,,,,,,
,,,,,,,,,,,html-button-response,348,2.0.0,1567640,66d74b9d2a9bfcaf3ddbe8a3,4,18,3174,,,,,,,,,"<img src= ""rock_img/I_Diorite_08.jpg"" style=""width:8cm; height:6.37cm;""><p>What type of rock is this?</p>",5,class_response,2,test,38,Pegmatite,Diorite,8,FALSE,6,3,,,,,,,,,,,,,,,,,,
,,,,,,,,,,,html-keyboard-response,349,2.0.0,1568147,66d74b9d2a9bfcaf3ddbe8a3,4,18,null,,,,,,,,,<p style='font-size: 30px;'><strong>Okay</strong></p>,null,neutral_feedback,2,test,38,,,,,,,,,,,,,,,,,,,,,,,,
,,,,,,,,,,,html-button-response,350,2.0.0,1569796,66d74b9d2a9bfcaf3ddbe8a3,4,18,1639,,,,,,,,,"<img src= ""rock_img/I_Obsidian_02.jpg"" style=""width:8cm; height:7.51cm;""><p>What type of rock is this?</p>",4,class_response,2,test,39,Obsidian,Obsidian,2,TRUE,5,5,,,,,,,,,,,,,,,,,,
,,,,,,,,,,,html-keyboard-response,351,2.0.0,1570301,66d74b9d2a9bfcaf3ddbe8a3,4,18,null,,,,,,,,,<p style='font-size: 30px;'><strong>Okay</strong></p>,null,neutral_feedback,2,test,39,,,,,,,,,,,,,,,,,,,,,,,,
,,,,,,,,,,,html-button-response,352,2.0.0,1572945,66d74b9d2a9bfcaf3ddbe8a3,4,18,2631,,,,,,,,,"<img src= ""rock_img/I_Pegmatite_11.jpg"" style=""width:8cm; height:8.14cm;""><p>What type of rock is this?</p>",5,class_response,2,test,40,Pegmatite,Pegmatite,11,TRUE,6,6,,,,,,,,,,,,,,,,,,
,,,,,,,,,,,html-keyboard-response,353,2.0.0,1573450,66d74b9d2a9bfcaf3ddbe8a3,4,18,null,,,,,,,,,<p style='font-size: 30px;'><strong>Okay</strong></p>,null,neutral_feedback,2,test,40,,,,,,,,,,,,,,,,,,,,,,,,
,,,,,,,,,,,html-button-response,354,2.0.0,1577209,66d74b9d2a9bfcaf3ddbe8a3,4,18,3750,,,,,,,,,"<img src= ""rock_img/I_Basalt_05.jpg"" style=""width:8cm; height:8.18cm;""><p>What type of rock is this?</p>",5,class_response,2,test,41,Basalt,Basalt,5,TRUE,2,2,,,,,,,,,,,,,,,,,,
,,,,,,,,,,,html-keyboard-response,355,2.0.0,1577715,66d74b9d2a9bfcaf3ddbe8a3,4,18,null,,,,,,,,,<p style='font-size: 30px;'><strong>Okay</strong></p>,null,neutral_feedback,2,test,41,,,,,,,,,,,,,,,,,,,,,,,,
,,,,,,,,,,,html-button-response,356,2.0.0,1579262,66d74b9d2a9bfcaf3ddbe8a3,4,18,1533,,,,,,,,,"<img src= ""rock_img/I_Diorite_16.jpg"" style=""width:8cm; height:6.74cm;""><p>What type of rock is this?</p>",2,class_response,2,test,42,Diorite,Diorite,16,TRUE,3,3,,,,,,,,,,,,,,,,,,
,,,,,,,,,,,html-keyboard-response,357,2.0.0,1579767,66d74b9d2a9bfcaf3ddbe8a3,4,18,null,,,,,,,,,<p style='font-size: 30px;'><strong>Okay</strong></p>,null,neutral_feedback,2,test,42,,,,,,,,,,,,,,,,,,,,,,,,
,,,,,,,,,,,html-button-response,358,2.0.0,1582289,66d74b9d2a9bfcaf3ddbe8a3,4,18,2511,,,,,,,,,"<img src= ""rock_img/I_Diorite_09.jpg"" style=""width:8cm; height:5.27cm;""><p>What type of rock is this?</p>",2,class_response,2,test,43,Diorite,Diorite,9,TRUE,3,3,,,,,,,,,,,,,,,,,,
,,,,,,,,,,,html-keyboard-response,359,2.0.0,1582795,66d74b9d2a9bfcaf3ddbe8a3,4,18,null,,,,,,,,,<p style='font-size: 30px;'><strong>Okay</strong></p>,null,neutral_feedback,2,test,43,,,,,,,,,,,,,,,,,,,,,,,,
,,,,,,,,,,,html-button-response,360,2.0.0,1584823,66d74b9d2a9bfcaf3ddbe8a3,4,18,2017,,,,,,,,,"<img src= ""rock_img/I_Gabbro_12.jpg"" style=""width:8cm; height:7.800000000000001cm;""><p>What type of rock is this?</p>",0,class_response,2,test,44,Andesite,Gabbro,12,FALSE,1,4,,,,,,,,,,,,,,,,,,
,,,,,,,,,,,html-keyboard-response,361,2.0.0,1585328,66d74b9d2a9bfcaf3ddbe8a3,4,18,null,,,,,,,,,<p style='font-size: 30px;'><strong>Okay</strong></p>,null,neutral_feedback,2,test,44,,,,,,,,,,,,,,,,,,,,,,,,
,,,,,,,,,,,html-button-response,362,2.0.0,1589078,66d74b9d2a9bfcaf3ddbe8a3,4,18,3741,,,,,,,,,"<img src= ""rock_img/I_Pumice_15.jpg"" style=""width:8cm; height:7.86cm;""><p>What type of rock is this?</p>",3,class_response,2,test,45,Gabbro,Pumice,15,FALSE,4,8,,,,,,,,,,,,,,,,,,
,,,,,,,,,,,html-keyboard-response,363,2.0.0,1589581,66d74b9d2a9bfcaf3ddbe8a3,4,18,null,,,,,,,,,<p style='font-size: 30px;'><strong>Okay</strong></p>,null,neutral_feedback,2,test,45,,,,,,,,,,,,,,,,,,,,,,,,
,,,,,,,,,,,html-button-response,364,2.0.0,1590858,66d74b9d2a9bfcaf3ddbe8a3,4,18,1271,,,,,,,,,"<img src= ""rock_img/I_Obsidian_14.jpg"" style=""width:8cm; height:7.64cm;""><p>What type of rock is this?</p>",4,class_response,2,test,46,Obsidian,Obsidian,14,TRUE,5,5,,,,,,,,,,,,,,,,,,
,,,,,,,,,,,html-keyboard-response,365,2.0.0,1591363,66d74b9d2a9bfcaf3ddbe8a3,4,18,null,,,,,,,,,<p style='font-size: 30px;'><strong>Okay</strong></p>,null,neutral_feedback,2,test,46,,,,,,,,,,,,,,,,,,,,,,,,
,,,,,,,,,,,html-button-response,366,2.0.0,1593142,66d74b9d2a9bfcaf3ddbe8a3,4,18,1767,,,,,,,,,"<img src= ""rock_img/I_Pumice_13.jpg"" style=""width:8cm; height:8.200000000000001cm;""><p>What type of rock is this?</p>",6,class_response,2,test,47,Peridotite,Pumice,13,FALSE,7,8,,,,,,,,,,,,,,,,,,
,,,,,,,,,,,html-keyboard-response,367,2.0.0,1593648,66d74b9d2a9bfcaf3ddbe8a3,4,18,null,,,,,,,,,<p style='font-size: 30px;'><strong>Okay</strong></p>,null,neutral_feedback,2,test,47,,,,,,,,,,,,,,,,,,,,,,,,
,,,,,,,,,,,html-button-response,368,2.0.0,1596411,66d74b9d2a9bfcaf3ddbe8a3,4,18,2751,,,,,,,,,"<img src= ""rock_img/I_Pegmatite_09.jpg"" style=""width:8cm; height:4.03cm;""><p>What type of rock is this?</p>",5,class_response,2,test,48,Pegmatite,Pegmatite,9,TRUE,6,6,,,,,,,,,,,,,,,,,,
,,,,,,,,,,,html-keyboard-response,369,2.0.0,1596915,66d74b9d2a9bfcaf3ddbe8a3,4,18,null,,,,,,,,,<p style='font-size: 30px;'><strong>Okay</strong></p>,null,neutral_feedback,2,test,48,,,,,,,,,,,,,,,,,,,,,,,,
,,,,,,,,,,,html-button-response,370,2.0.0,1621647,66d74b9d2a9bfcaf3ddbe8a3,4,18,,,,,,,,,,,,cycle_feedback,,,,,,,,,,,,,,,,,,,,,,,,18873.7,5829.3,,
,,,,,,,,,,,html-button-response,372,2.0.0,1623186,66d74b9d2a9bfcaf3ddbe8a3,4,18,1532,,,,,,,,,,0,start_train,,,,,,,,,,,,,,,,,,,,,,,,,,,
,,,,,,,,,,,html-button-response,374,2.0.0,1636817,66d74b9d2a9bfcaf3ddbe8a3,4,18,13622,,,,,,,,,"<img src= ""rock_img/I_Peridotite_14.jpg"" style=""width:8cm; height:5.3cm;""><p>What type of rock is this?</p>",3,class_response,3,train,1,Gabbro,Peridotite,14,FALSE,4,7,,,,,,,,,,,,,,,,,,
,,,,,,,,,,,html-button-response,375,2.0.0,1641203,66d74b9d2a9bfcaf3ddbe8a3,4,18,4380,,,,,,,,,"<img src= rock_img/I_Peridotite_14.jpg style=""width:8cm; height:5.3cm;""><p style='font-size: 30px; color: red;'><strong>Incorrect!</strong></p><p style='font-size: 30px;'><strong>This rock is peridotite</strong></p>",0,corr_feedback,3,train,1,,,,,,,,,,,,,,,,,,,,,,,,
,,,,,,,,,,,html-button-response,376,2.0.0,1646372,66d74b9d2a9bfcaf3ddbe8a3,4,18,5163,,,,,,,,,"<img src= ""rock_img/I_Andesite_06.jpg"" style=""width:8cm; height:6.840000000000001cm;""><p>What type of rock is this?</p>",1,class_response,3,train,2,Basalt,Andesite,6,FALSE,2,1,,,,,,,,,,,,,,,,,,
,,,,,,,,,,,html-button-response,377,2.0.0,1648257,66d74b9d2a9bfcaf3ddbe8a3,4,18,1879,,,,,,,,,"<img src= rock_img/I_Andesite_06.jpg style=""width:8cm; height:6.840000000000001cm;""><p style='font-size: 30px; color: red;'><strong>Incorrect!</strong></p><p style='font-size: 30px;'><strong>This rock is andesite</strong></p>",0,corr_feedback,3,train,2,,,,,,,,,,,,,,,,,,,,,,,,
,,,,,,,,,,,html-button-response,378,2.0.0,1654002,66d74b9d2a9bfcaf3ddbe8a3,4,18,5737,,,,,,,,,"<img src= ""rock_img/I_Diorite_11.jpg"" style=""width:8cm; height:7.11cm;""><p>What type of rock is this?</p>",0,class_response,3,train,3,Andesite,Diorite,11,FALSE,1,3,,,,,,,,,,,,,,,,,,
,,,,,,,,,,,html-button-response,379,2.0.0,1655861,66d74b9d2a9bfcaf3ddbe8a3,4,18,1853,,,,,,,,,"<img src= rock_img/I_Diorite_11.jpg style=""width:8cm; height:7.11cm;""><p style='font-size: 30px; color: red;'><strong>Incorrect!</strong></p><p style='font-size: 30px;'><strong>This rock is diorite</strong></p>",0,corr_feedback,3,train,3,,,,,,,,,,,,,,,,,,,,,,,,
,,,,,,,,,,,html-button-response,380,2.0.0,1657722,66d74b9d2a9bfcaf3ddbe8a3,4,18,1855,,,,,,,,,"<img src= ""rock_img/I_Obsidian_11.jpg"" style=""width:8cm; height:6.05cm;""><p>What type of rock is this?</p>",4,class_response,3,train,4,Obsidian,Obsidian,11,TRUE,5,5,,,,,,,,,,,,,,,,,,
,,,,,,,,,,,html-button-response,381,2.0.0,1659240,66d74b9d2a9bfcaf3ddbe8a3,4,18,1513,,,,,,,,,"<img src= rock_img/I_Obsidian_11.jpg style=""width:8cm; height:6.05cm;""><p style='font-size: 30px; color: green;'><strong>Correct!</strong></p><p style='font-size: 30px;'><strong>This rock is obsidian</strong></p>",0,corr_feedback,3,train,4,,,,,,,,,,,,,,,,,,,,,,,,
,,,,,,,,,,,html-button-response,382,2.0.0,1660585,66d74b9d2a9bfcaf3ddbe8a3,4,18,1338,,,,,,,,,"<img src= ""rock_img/I_Obsidian_04.jpg"" style=""width:8cm; height:6.930000000000001cm;""><p>What type of rock is this?</p>",4,class_response,3,train,5,Obsidian,Obsidian,4,TRUE,5,5,,,,,,,,,,,,,,,,,,
,,,,,,,,,,,html-button-response,383,2.0.0,1661623,66d74b9d2a9bfcaf3ddbe8a3,4,18,1032,,,,,,,,,"<img src= rock_img/I_Obsidian_04.jpg style=""width:8cm; height:6.930000000000001cm;""><p style='font-size: 30px; color: green;'><strong>Correct!</strong></p><p style='font-size: 30px;'><strong>This rock is obsidian</strong></p>",0,corr_feedback,3,train,5,,,,,,,,,,,,,,,,,,,,,,,,
,,,,,,,,,,,html-button-response,384,2.0.0,1665922,66d74b9d2a9bfcaf3ddbe8a3,4,18,4290,,,,,,,,,"<img src= ""rock_img/I_Gabbro_13.jpg"" style=""width:8cm; height:5.08cm;""><p>What type of rock is this?</p>",3,class_response,3,train,6,Gabbro,Gabbro,13,TRUE,4,4,,,,,,,,,,,,,,,,,,
,,,,,,,,,,,html-button-response,385,2.0.0,1667460,66d74b9d2a9bfcaf3ddbe8a3,4,18,1531,,,,,,,,,"<img src= rock_img/I_Gabbro_13.jpg style=""width:8cm; height:5.08cm;""><p style='font-size: 30px; color: green;'><strong>Correct!</strong></p><p style='font-size: 30px;'><strong>This rock is gabbro</strong></p>",0,corr_feedback,3,train,6,,,,,,,,,,,,,,,,,,,,,,,,
,,,,,,,,,,,html-button-response,386,2.0.0,1671549,66d74b9d2a9bfcaf3ddbe8a3,4,18,4081,,,,,,,,,"<img src= ""rock_img/I_Pegmatite_16.jpg"" style=""width:8cm; height:5.8cm;""><p>What type of rock is this?</p>",5,class_response,3,train,7,Pegmatite,Pegmatite,16,TRUE,6,6,,,,,,,,,,,,,,,,,,
,,,,,,,,,,,html-button-response,387,2.0.0,1673934,66d74b9d2a9bfcaf3ddbe8a3,4,18,2378,,,,,,,,,"<img src= rock_img/I_Pegmatite_16.jpg style=""width:8cm; height:5.8cm;""><p style='font-size: 30px; color: green;'><strong>Correct!</strong></p><p style='font-size: 30px;'><strong>This rock is pegmatite</strong></p>",0,corr_feedback,3,train,7,,,,,,,,,,,,,,,,,,,,,,,,
,,,,,,,,,,,html-button-response,388,2.0.0,1684893,66d74b9d2a9bfcaf3ddbe8a3,4,18,10951,,,,,,,,,"<img src= ""rock_img/I_Peridotite_13.jpg"" style=""width:8cm; height:7.58cm;""><p>What type of rock is this?</p>",5,class_response,3,train,8,Pegmatite,Peridotite,13,FALSE,6,7,,,,,,,,,,,,,,,,,,
,,,,,,,,,,,html-button-response,389,2.0.0,1688074,66d74b9d2a9bfcaf3ddbe8a3,4,18,3177,,,,,,,,,"<img src= rock_img/I_Peridotite_13.jpg style=""width:8cm; height:7.58cm;""><p style='font-size: 30px; color: red;'><strong>Incorrect!</strong></p><p style='font-size: 30px;'><strong>This rock is peridotite</strong></p>",0,corr_feedback,3,train,8,,,,,,,,,,,,,,,,,,,,,,,,
,,,,,,,,,,,html-button-response,390,2.0.0,1692775,66d74b9d2a9bfcaf3ddbe8a3,4,18,4695,,,,,,,,,"<img src= ""rock_img/I_Pegmatite_08.jpg"" style=""width:8cm; height:7.68cm;""><p>What type of rock is this?</p>",5,class_response,3,train,9,Pegmatite,Pegmatite,8,TRUE,6,6,,,,,,,,,,,,,,,,,,
,,,,,,,,,,,html-button-response,391,2.0.0,1694131,66d74b9d2a9bfcaf3ddbe8a3,4,18,1348,,,,,,,,,"<img src= rock_img/I_Pegmatite_08.jpg style=""width:8cm; height:7.68cm;""><p style='font-size: 30px; color: green;'><strong>Correct!</strong></p><p style='font-size: 30px;'><strong>This rock is pegmatite</strong></p>",0,corr_feedback,3,train,9,,,,,,,,,,,,,,,,,,,,,,,,
,,,,,,,,,,,html-button-response,392,2.0.0,1696113,66d74b9d2a9bfcaf3ddbe8a3,4,18,1974,,,,,,,,,"<img src= ""rock_img/I_Basalt_08.jpg"" style=""width:8cm; height:10.44cm;""><p>What type of rock is this?</p>",4,class_response,3,train,10,Obsidian,Basalt,8,FALSE,5,2,,,,,,,,,,,,,,,,,,
,,,,,,,,,,,html-button-response,393,2.0.0,1697791,66d74b9d2a9bfcaf3ddbe8a3,4,18,1672,,,,,,,,,"<img src= rock_img/I_Basalt_08.jpg style=""width:8cm; height:10.44cm;""><p style='font-size: 30px; color: red;'><strong>Incorrect!</strong></p><p style='font-size: 30px;'><strong>This rock is basalt</strong></p>",0,corr_feedback,3,train,10,,,,,,,,,,,,,,,,,,,,,,,,
,,,,,,,,,,,html-button-response,394,2.0.0,1699421,66d74b9d2a9bfcaf3ddbe8a3,4,18,1623,,,,,,,,,"<img src= ""rock_img/I_Pumice_10.jpg"" style=""width:8cm; height:7.609999999999999cm;""><p>What type of rock is this?</p>",7,class_response,3,train,11,Pumice,Pumice,10,TRUE,8,8,,,,,,,,,,,,,,,,,,
,,,,,,,,,,,html-button-response,395,2.0.0,1700808,66d74b9d2a9bfcaf3ddbe8a3,4,18,1381,,,,,,,,,"<img src= rock_img/I_Pumice_10.jpg style=""width:8cm; height:7.609999999999999cm;""><p style='font-size: 30px; color: green;'><strong>Correct!</strong></p><p style='font-size: 30px;'><strong>This rock is pumice</strong></p>",0,corr_feedback,3,train,11,,,,,,,,,,,,,,,,,,,,,,,,
,,,,,,,,,,,html-button-response,396,2.0.0,1702406,66d74b9d2a9bfcaf3ddbe8a3,4,18,1586,,,,,,,,,"<img src= ""rock_img/I_Basalt_12.jpg"" style=""width:8cm; height:6.010000000000001cm;""><p>What type of rock is this?</p>",7,class_response,3,train,12,Pumice,Basalt,12,FALSE,8,2,,,,,,,,,,,,,,,,,,
,,,,,,,,,,,html-button-response,397,2.0.0,1703716,66d74b9d2a9bfcaf3ddbe8a3,4,18,1304,,,,,,,,,"<img src= rock_img/I_Basalt_12.jpg style=""width:8cm; height:6.010000000000001cm;""><p style='font-size: 30px; color: red;'><strong>Incorrect!</strong></p><p style='font-size: 30px;'><strong>This rock is basalt</strong></p>",0,corr_feedback,3,train,12,,,,,,,,,,,,,,,,,,,,,,,,
,,,,,,,,,,,html-button-response,399,2.0.0,1704957,66d74b9d2a9bfcaf3ddbe8a3,4,18,1236,,,,,,,,,,0,start_train,,,,,,,,,,,,,,,,,,,,,,,,,,,
,,,,,,,,,,,html-button-response,400,2.0.0,1713779,66d74b9d2a9bfcaf3ddbe8a3,4,18,,,,,,,,,,,,cat_selection,3,train,1,,,,,,,7429.8,1385.8,3,1,Diorite,Andesite,,,,,,,,,,,,
,,,,,,,,,,,paired-cat-display,401,1.0.0,1852490,66d74b9d2a9bfcaf3ddbe8a3,4,18,,,,,,,,,,,,paired_cat_display,3,train,1,,,,,,,,,,,,,,building big rocks,39525.8,99169.6,wall rock climbing ,,,,,,,
,,,,,,,,,,,html-button-response,402,2.0.0,1866125,66d74b9d2a9bfcaf3ddbe8a3,4,18,,,,,,,,,,,,cat_selection,3,train,2,,,,,,,6175.2,7454.3,7,2,Peridotite,Basalt,,,,,,,,,,,,
,,,,,,,,,,,paired-cat-display,403,1.0.0,1952151,66d74b9d2a9bfcaf3ddbe8a3,4,18,,,,,,,,,,,,paired_cat_display,3,train,2,,,,,,,,,,,,,,,10568.3,75441,,look like stone pumice some smooth,,,,,swamp rocks pretty,
,,,,,,,,,,,html-button-response,404,2.0.0,1975518,66d74b9d2a9bfcaf3ddbe8a3,4,18,,,,,,,,,,,,cat_selection,3,train,3,,,,,,,3161.8,20198.9,4,3,Gabbro,Diorite,,,,,,,,,,,,
