width,height,webaudio,browser,browser_version,mobile,os,fullscreen,vsync_rate,webcam,microphone,trial_type,trial_index,plugin_version,time_elapsed,subjID,condition,stimID,rt,url,success,value,timeout,failed_images,failed_audio,failed_video,view_history,stimulus,response,trialType,cycle,phase,trial,resp,cat,token,corr,resp_num,cat_num,rt_ref,rt_paired,ref_cat_num,paired_cat_num,ref_cat,paired_cat,text_Peridotite,text_Basalt,time_obs,time_resp,text_Pumice,text_Diorite,time_fb1,time_fb2,text_Pegmatite,text_Andesite,text_Gabbro,text_Obsidian
865,493,TRUE,chrome,130.0.0,FALSE,Mac OS,TRUE,60.47,FALSE,TRUE,browser-check,0,2.0.0,1024,6556e5fa9feed5dca96b6dcd,4,6,,,,,,,,,,,,,,,,,,,,,,,,,,,,,,,,,,,,,,,
,,,,,,,,,,,external-html,1,2.0.0,33458,6556e5fa9feed5dca96b6dcd,4,6,32386,consent_form.html,,,,,,,,,,,,,,,,,,,,,,,,,,,,,,,,,,,,,
,,,,,,,,,,,fullscreen,2,2.0.0,35700,6556e5fa9feed5dca96b6dcd,4,6,1231,,TRUE,,,,,,,,,,,,,,,,,,,,,,,,,,,,,,,,,,,,
,,,,,,,,,,,call-function,3,2.0.0,35706,6556e5fa9feed5dca96b6dcd,4,6,,,,{},,,,,,,,,,,,,,,,,,,,,,,,,,,,,,,,,,,
,,,,,,,,,,,preload,4,2.0.0,37617,6556e5fa9feed5dca96b6dcd,4,6,,,TRUE,,FALSE,[],[],[],,,,,,,,,,,,,,,,,,,,,,,,,,,,,,,
,,,,,,,,,,,instructions,5,2.0.0,56291,6556e5fa9feed5dca96b6dcd,4,6,18674,,,,,,,,"[{""page_index"":0,""viewing_time"":3905},{""page_index"":1,""viewing_time"":10959},{""page_index"":2,""viewing_time"":3810}]",,,,,,,,,,,,,,,,,,,,,,,,,,,,,,
,,,,,,,,,,,html-button-response,6,2.0.0,57633,6556e5fa9feed5dca96b6dcd,4,6,1338,,,,,,,,,,0,start_test,,,,,,,,,,,,,,,,,,,,,,,,,,,
,,,,,,,,,,,html-button-response,7,2.0.0,61306,6556e5fa9feed5dca96b6dcd,4,6,3670,,,,,,,,,"<img src= ""rock_img/I_Diorite_07.jpg"" style=""width:8cm; height:5.239999999999999cm;""><p>What type of rock is this?</p>",1,class_response,0,test,1,Basalt,Diorite,7,FALSE,2,3,,,,,,,,,,,,,,,,,,
,,,,,,,,,,,html-keyboard-response,8,2.0.0,61810,6556e5fa9feed5dca96b6dcd,4,6,null,,,,,,,,,<p style='font-size: 30px;'><strong>Okay</strong></p>,null,neutral_feedback,0,test,1,,,,,,,,,,,,,,,,,,,,,,,,
,,,,,,,,,,,html-button-response,9,2.0.0,66353,6556e5fa9feed5dca96b6dcd,4,6,4539,,,,,,,,,"<img src= ""rock_img/I_Andesite_03.jpg"" style=""width:8cm; height:5.73cm;""><p>What type of rock is this?</p>",6,class_response,0,test,2,Peridotite,Andesite,3,FALSE,7,1,,,,,,,,,,,,,,,,,,
,,,,,,,,,,,html-keyboard-response,10,2.0.0,66856,6556e5fa9feed5dca96b6dcd,4,6,null,,,,,,,,,<p style='font-size: 30px;'><strong>Okay</strong></p>,null,neutral_feedback,0,test,2,,,,,,,,,,,,,,,,,,,,,,,,
,,,,,,,,,,,html-button-response,11,2.0.0,69351,6556e5fa9feed5dca96b6dcd,4,6,2492,,,,,,,,,"<img src= ""rock_img/I_Diorite_16.jpg"" style=""width:8cm; height:6.74cm;""><p>What type of rock is this?</p>",3,class_response,0,test,3,Gabbro,Diorite,16,FALSE,4,3,,,,,,,,,,,,,,,,,,
,,,,,,,,,,,html-keyboard-response,12,2.0.0,69853,6556e5fa9feed5dca96b6dcd,4,6,null,,,,,,,,,<p style='font-size: 30px;'><strong>Okay</strong></p>,null,neutral_feedback,0,test,3,,,,,,,,,,,,,,,,,,,,,,,,
,,,,,,,,,,,html-button-response,13,2.0.0,73534,6556e5fa9feed5dca96b6dcd,4,6,3678,,,,,,,,,"<img src= ""rock_img/I_Obsidian_16.jpg"" style=""width:8cm; height:9.3cm;""><p>What type of rock is this?</p>",4,class_response,0,test,4,Obsidian,Obsidian,16,TRUE,5,5,,,,,,,,,,,,,,,,,,
,,,,,,,,,,,html-keyboard-response,14,2.0.0,74036,6556e5fa9feed5dca96b6dcd,4,6,null,,,,,,,,,<p style='font-size: 30px;'><strong>Okay</strong></p>,null,neutral_feedback,0,test,4,,,,,,,,,,,,,,,,,,,,,,,,
,,,,,,,,,,,html-button-response,15,2.0.0,75281,6556e5fa9feed5dca96b6dcd,4,6,1242,,,,,,,,,"<img src= ""rock_img/I_Gabbro_10.jpg"" style=""width:8cm; height:5.680000000000001cm;""><p>What type of rock is this?</p>",4,class_response,0,test,5,Obsidian,Gabbro,10,FALSE,5,4,,,,,,,,,,,,,,,,,,
,,,,,,,,,,,html-keyboard-response,16,2.0.0,75784,6556e5fa9feed5dca96b6dcd,4,6,null,,,,,,,,,<p style='font-size: 30px;'><strong>Okay</strong></p>,null,neutral_feedback,0,test,5,,,,,,,,,,,,,,,,,,,,,,,,
,,,,,,,,,,,html-button-response,17,2.0.0,77589,6556e5fa9feed5dca96b6dcd,4,6,1803,,,,,,,,,"<img src= ""rock_img/I_Pumice_03.jpg"" style=""width:8cm; height:6.64cm;""><p>What type of rock is this?</p>",7,class_response,0,test,6,Pumice,Pumice,3,TRUE,8,8,,,,,,,,,,,,,,,,,,
,,,,,,,,,,,html-keyboard-response,18,2.0.0,78092,6556e5fa9feed5dca96b6dcd,4,6,null,,,,,,,,,<p style='font-size: 30px;'><strong>Okay</strong></p>,null,neutral_feedback,0,test,6,,,,,,,,,,,,,,,,,,,,,,,,
,,,,,,,,,,,html-button-response,19,2.0.0,79320,6556e5fa9feed5dca96b6dcd,4,6,1226,,,,,,,,,"<img src= ""rock_img/I_Basalt_12.jpg"" style=""width:8cm; height:6.010000000000001cm;""><p>What type of rock is this?</p>",7,class_response,0,test,7,Pumice,Basalt,12,FALSE,8,2,,,,,,,,,,,,,,,,,,
,,,,,,,,,,,html-keyboard-response,20,2.0.0,79822,6556e5fa9feed5dca96b6dcd,4,6,null,,,,,,,,,<p style='font-size: 30px;'><strong>Okay</strong></p>,null,neutral_feedback,0,test,7,,,,,,,,,,,,,,,,,,,,,,,,
,,,,,,,,,,,html-button-response,21,2.0.0,81586,6556e5fa9feed5dca96b6dcd,4,6,1761,,,,,,,,,"<img src= ""rock_img/I_Pegmatite_13.jpg"" style=""width:8cm; height:4.95cm;""><p>What type of rock is this?</p>",1,class_response,0,test,8,Basalt,Pegmatite,13,FALSE,2,6,,,,,,,,,,,,,,,,,,
,,,,,,,,,,,html-keyboard-response,22,2.0.0,82088,6556e5fa9feed5dca96b6dcd,4,6,null,,,,,,,,,<p style='font-size: 30px;'><strong>Okay</strong></p>,null,neutral_feedback,0,test,8,,,,,,,,,,,,,,,,,,,,,,,,
,,,,,,,,,,,html-button-response,23,2.0.0,83376,6556e5fa9feed5dca96b6dcd,4,6,1285,,,,,,,,,"<img src= ""rock_img/I_Pegmatite_06.jpg"" style=""width:8cm; height:5.17cm;""><p>What type of rock is this?</p>",0,class_response,0,test,9,Andesite,Pegmatite,6,FALSE,1,6,,,,,,,,,,,,,,,,,,
,,,,,,,,,,,html-keyboard-response,24,2.0.0,83878,6556e5fa9feed5dca96b6dcd,4,6,null,,,,,,,,,<p style='font-size: 30px;'><strong>Okay</strong></p>,null,neutral_feedback,0,test,9,,,,,,,,,,,,,,,,,,,,,,,,
,,,,,,,,,,,html-button-response,25,2.0.0,84793,6556e5fa9feed5dca96b6dcd,4,6,912,,,,,,,,,"<img src= ""rock_img/I_Pegmatite_09.jpg"" style=""width:8cm; height:4.03cm;""><p>What type of rock is this?</p>",0,class_response,0,test,10,Andesite,Pegmatite,9,FALSE,1,6,,,,,,,,,,,,,,,,,,
,,,,,,,,,,,html-keyboard-response,26,2.0.0,85295,6556e5fa9feed5dca96b6dcd,4,6,null,,,,,,,,,<p style='font-size: 30px;'><strong>Okay</strong></p>,null,neutral_feedback,0,test,10,,,,,,,,,,,,,,,,,,,,,,,,
,,,,,,,,,,,html-button-response,27,2.0.0,86460,6556e5fa9feed5dca96b6dcd,4,6,1163,,,,,,,,,"<img src= ""rock_img/I_Peridotite_06.jpg"" style=""width:8cm; height:7.53cm;""><p>What type of rock is this?</p>",6,class_response,0,test,11,Peridotite,Peridotite,6,TRUE,7,7,,,,,,,,,,,,,,,,,,
,,,,,,,,,,,html-keyboard-response,28,2.0.0,86962,6556e5fa9feed5dca96b6dcd,4,6,null,,,,,,,,,<p style='font-size: 30px;'><strong>Okay</strong></p>,null,neutral_feedback,0,test,11,,,,,,,,,,,,,,,,,,,,,,,,
,,,,,,,,,,,html-button-response,29,2.0.0,88405,6556e5fa9feed5dca96b6dcd,4,6,1440,,,,,,,,,"<img src= ""rock_img/I_Obsidian_12.jpg"" style=""width:8cm; height:6.53cm;""><p>What type of rock is this?</p>",4,class_response,0,test,12,Obsidian,Obsidian,12,TRUE,5,5,,,,,,,,,,,,,,,,,,
,,,,,,,,,,,html-keyboard-response,30,2.0.0,88907,6556e5fa9feed5dca96b6dcd,4,6,null,,,,,,,,,<p style='font-size: 30px;'><strong>Okay</strong></p>,null,neutral_feedback,0,test,12,,,,,,,,,,,,,,,,,,,,,,,,
,,,,,,,,,,,html-button-response,31,2.0.0,90287,6556e5fa9feed5dca96b6dcd,4,6,1378,,,,,,,,,"<img src= ""rock_img/I_Pumice_08.jpg"" style=""width:8cm; height:6.67cm;""><p>What type of rock is this?</p>",7,class_response,0,test,13,Pumice,Pumice,8,TRUE,8,8,,,,,,,,,,,,,,,,,,
,,,,,,,,,,,html-keyboard-response,32,2.0.0,90791,6556e5fa9feed5dca96b6dcd,4,6,null,,,,,,,,,<p style='font-size: 30px;'><strong>Okay</strong></p>,null,neutral_feedback,0,test,13,,,,,,,,,,,,,,,,,,,,,,,,
,,,,,,,,,,,html-button-response,33,2.0.0,92880,6556e5fa9feed5dca96b6dcd,4,6,2086,,,,,,,,,"<img src= ""rock_img/I_Peridotite_16.jpg"" style=""width:8cm; height:6.989999999999999cm;""><p>What type of rock is this?</p>",2,class_response,0,test,14,Diorite,Peridotite,16,FALSE,3,7,,,,,,,,,,,,,,,,,,
,,,,,,,,,,,html-keyboard-response,34,2.0.0,93383,6556e5fa9feed5dca96b6dcd,4,6,null,,,,,,,,,<p style='font-size: 30px;'><strong>Okay</strong></p>,null,neutral_feedback,0,test,14,,,,,,,,,,,,,,,,,,,,,,,,
,,,,,,,,,,,html-button-response,35,2.0.0,95284,6556e5fa9feed5dca96b6dcd,4,6,1898,,,,,,,,,"<img src= ""rock_img/I_Diorite_12.jpg"" style=""width:8cm; height:4.88cm;""><p>What type of rock is this?</p>",6,class_response,0,test,15,Peridotite,Diorite,12,FALSE,7,3,,,,,,,,,,,,,,,,,,
,,,,,,,,,,,html-keyboard-response,36,2.0.0,95787,6556e5fa9feed5dca96b6dcd,4,6,null,,,,,,,,,<p style='font-size: 30px;'><strong>Okay</strong></p>,null,neutral_feedback,0,test,15,,,,,,,,,,,,,,,,,,,,,,,,
,,,,,,,,,,,html-button-response,37,2.0.0,96646,6556e5fa9feed5dca96b6dcd,4,6,857,,,,,,,,,"<img src= ""rock_img/I_Peridotite_12.jpg"" style=""width:8cm; height:4.54cm;""><p>What type of rock is this?</p>",6,class_response,0,test,16,Peridotite,Peridotite,12,TRUE,7,7,,,,,,,,,,,,,,,,,,
,,,,,,,,,,,html-keyboard-response,38,2.0.0,97149,6556e5fa9feed5dca96b6dcd,4,6,null,,,,,,,,,<p style='font-size: 30px;'><strong>Okay</strong></p>,null,neutral_feedback,0,test,16,,,,,,,,,,,,,,,,,,,,,,,,
,,,,,,,,,,,html-button-response,39,2.0.0,100024,6556e5fa9feed5dca96b6dcd,4,6,2872,,,,,,,,,"<img src= ""rock_img/I_Pegmatite_08.jpg"" style=""width:8cm; height:7.68cm;""><p>What type of rock is this?</p>",4,class_response,0,test,17,Obsidian,Pegmatite,8,FALSE,5,6,,,,,,,,,,,,,,,,,,
,,,,,,,,,,,html-keyboard-response,40,2.0.0,100526,6556e5fa9feed5dca96b6dcd,4,6,null,,,,,,,,,<p style='font-size: 30px;'><strong>Okay</strong></p>,null,neutral_feedback,0,test,17,,,,,,,,,,,,,,,,,,,,,,,,
,,,,,,,,,,,html-button-response,41,2.0.0,106607,6556e5fa9feed5dca96b6dcd,4,6,6079,,,,,,,,,"<img src= ""rock_img/I_Andesite_05.jpg"" style=""width:8cm; height:4.12cm;""><p>What type of rock is this?</p>",2,class_response,0,test,18,Diorite,Andesite,5,FALSE,3,1,,,,,,,,,,,,,,,,,,
,,,,,,,,,,,html-keyboard-response,42,2.0.0,107109,6556e5fa9feed5dca96b6dcd,4,6,null,,,,,,,,,<p style='font-size: 30px;'><strong>Okay</strong></p>,null,neutral_feedback,0,test,18,,,,,,,,,,,,,,,,,,,,,,,,
,,,,,,,,,,,html-button-response,43,2.0.0,108403,6556e5fa9feed5dca96b6dcd,4,6,1292,,,,,,,,,"<img src= ""rock_img/I_Andesite_09.jpg"" style=""width:8cm; height:6cm;""><p>What type of rock is this?</p>",2,class_response,0,test,19,Diorite,Andesite,9,FALSE,3,1,,,,,,,,,,,,,,,,,,
,,,,,,,,,,,html-keyboard-response,44,2.0.0,108906,6556e5fa9feed5dca96b6dcd,4,6,null,,,,,,,,,<p style='font-size: 30px;'><strong>Okay</strong></p>,null,neutral_feedback,0,test,19,,,,,,,,,,,,,,,,,,,,,,,,
,,,,,,,,,,,html-button-response,45,2.0.0,109754,6556e5fa9feed5dca96b6dcd,4,6,846,,,,,,,,,"<img src= ""rock_img/I_Andesite_14.jpg"" style=""width:8cm; height:5.449999999999999cm;""><p>What type of rock is this?</p>",2,class_response,0,test,20,Diorite,Andesite,14,FALSE,3,1,,,,,,,,,,,,,,,,,,
,,,,,,,,,,,html-keyboard-response,46,2.0.0,110257,6556e5fa9feed5dca96b6dcd,4,6,null,,,,,,,,,<p style='font-size: 30px;'><strong>Okay</strong></p>,null,neutral_feedback,0,test,20,,,,,,,,,,,,,,,,,,,,,,,,
,,,,,,,,,,,html-button-response,47,2.0.0,111152,6556e5fa9feed5dca96b6dcd,4,6,891,,,,,,,,,"<img src= ""rock_img/I_Gabbro_15.jpg"" style=""width:8cm; height:6.29cm;""><p>What type of rock is this?</p>",2,class_response,0,test,21,Diorite,Gabbro,15,FALSE,3,4,,,,,,,,,,,,,,,,,,
,,,,,,,,,,,html-keyboard-response,48,2.0.0,111654,6556e5fa9feed5dca96b6dcd,4,6,null,,,,,,,,,<p style='font-size: 30px;'><strong>Okay</strong></p>,null,neutral_feedback,0,test,21,,,,,,,,,,,,,,,,,,,,,,,,
,,,,,,,,,,,html-button-response,49,2.0.0,113098,6556e5fa9feed5dca96b6dcd,4,6,1441,,,,,,,,,"<img src= ""rock_img/I_Pegmatite_16.jpg"" style=""width:8cm; height:5.8cm;""><p>What type of rock is this?</p>",4,class_response,0,test,22,Obsidian,Pegmatite,16,FALSE,5,6,,,,,,,,,,,,,,,,,,
,,,,,,,,,,,html-keyboard-response,50,2.0.0,113600,6556e5fa9feed5dca96b6dcd,4,6,null,,,,,,,,,<p style='font-size: 30px;'><strong>Okay</strong></p>,null,neutral_feedback,0,test,22,,,,,,,,,,,,,,,,,,,,,,,,
,,,,,,,,,,,html-button-response,51,2.0.0,114901,6556e5fa9feed5dca96b6dcd,4,6,1299,,,,,,,,,"<img src= ""rock_img/I_Peridotite_04.jpg"" style=""width:8cm; height:6.680000000000001cm;""><p>What type of rock is this?</p>",0,class_response,0,test,23,Andesite,Peridotite,4,FALSE,1,7,,,,,,,,,,,,,,,,,,
,,,,,,,,,,,html-keyboard-response,52,2.0.0,115405,6556e5fa9feed5dca96b6dcd,4,6,null,,,,,,,,,<p style='font-size: 30px;'><strong>Okay</strong></p>,null,neutral_feedback,0,test,23,,,,,,,,,,,,,,,,,,,,,,,,
,,,,,,,,,,,html-button-response,53,2.0.0,116986,6556e5fa9feed5dca96b6dcd,4,6,1579,,,,,,,,,"<img src= ""rock_img/I_Basalt_09.jpg"" style=""width:8cm; height:6.2cm;""><p>What type of rock is this?</p>",4,class_response,0,test,24,Obsidian,Basalt,9,FALSE,5,2,,,,,,,,,,,,,,,,,,
,,,,,,,,,,,html-keyboard-response,54,2.0.0,117489,6556e5fa9feed5dca96b6dcd,4,6,null,,,,,,,,,<p style='font-size: 30px;'><strong>Okay</strong></p>,null,neutral_feedback,0,test,24,,,,,,,,,,,,,,,,,,,,,,,,
,,,,,,,,,,,html-button-response,55,2.0.0,118999,6556e5fa9feed5dca96b6dcd,4,6,1507,,,,,,,,,"<img src= ""rock_img/I_Gabbro_11.jpg"" style=""width:8cm; height:6.2cm;""><p>What type of rock is this?</p>",5,class_response,0,test,25,Pegmatite,Gabbro,11,FALSE,6,4,,,,,,,,,,,,,,,,,,
,,,,,,,,,,,html-keyboard-response,56,2.0.0,119501,6556e5fa9feed5dca96b6dcd,4,6,null,,,,,,,,,<p style='font-size: 30px;'><strong>Okay</strong></p>,null,neutral_feedback,0,test,25,,,,,,,,,,,,,,,,,,,,,,,,
,,,,,,,,,,,html-button-response,57,2.0.0,120559,6556e5fa9feed5dca96b6dcd,4,6,1055,,,,,,,,,"<img src= ""rock_img/I_Gabbro_03.jpg"" style=""width:8cm; height:8.52cm;""><p>What type of rock is this?</p>",5,class_response,0,test,26,Pegmatite,Gabbro,3,FALSE,6,4,,,,,,,,,,,,,,,,,,
,,,,,,,,,,,html-keyboard-response,58,2.0.0,121061,6556e5fa9feed5dca96b6dcd,4,6,null,,,,,,,,,<p style='font-size: 30px;'><strong>Okay</strong></p>,null,neutral_feedback,0,test,26,,,,,,,,,,,,,,,,,,,,,,,,
,,,,,,,,,,,html-button-response,59,2.0.0,122981,6556e5fa9feed5dca96b6dcd,4,6,1917,,,,,,,,,"<img src= ""rock_img/I_Gabbro_08.jpg"" style=""width:8cm; height:5.15cm;""><p>What type of rock is this?</p>",5,class_response,0,test,27,Pegmatite,Gabbro,8,FALSE,6,4,,,,,,,,,,,,,,,,,,
,,,,,,,,,,,html-keyboard-response,60,2.0.0,123484,6556e5fa9feed5dca96b6dcd,4,6,null,,,,,,,,,<p style='font-size: 30px;'><strong>Okay</strong></p>,null,neutral_feedback,0,test,27,,,,,,,,,,,,,,,,,,,,,,,,
,,,,,,,,,,,html-button-response,61,2.0.0,124794,6556e5fa9feed5dca96b6dcd,4,6,1308,,,,,,,,,"<img src= ""rock_img/I_Diorite_02.jpg"" style=""width:8cm; height:6.27cm;""><p>What type of rock is this?</p>",5,class_response,0,test,28,Pegmatite,Diorite,2,FALSE,6,3,,,,,,,,,,,,,,,,,,
,,,,,,,,,,,html-keyboard-response,62,2.0.0,125297,6556e5fa9feed5dca96b6dcd,4,6,null,,,,,,,,,<p style='font-size: 30px;'><strong>Okay</strong></p>,null,neutral_feedback,0,test,28,,,,,,,,,,,,,,,,,,,,,,,,
,,,,,,,,,,,html-button-response,63,2.0.0,126696,6556e5fa9feed5dca96b6dcd,4,6,1397,,,,,,,,,"<img src= ""rock_img/I_Pumice_10.jpg"" style=""width:8cm; height:7.609999999999999cm;""><p>What type of rock is this?</p>",7,class_response,0,test,29,Pumice,Pumice,10,TRUE,8,8,,,,,,,,,,,,,,,,,,
,,,,,,,,,,,html-keyboard-response,64,2.0.0,127198,6556e5fa9feed5dca96b6dcd,4,6,null,,,,,,,,,<p style='font-size: 30px;'><strong>Okay</strong></p>,null,neutral_feedback,0,test,29,,,,,,,,,,,,,,,,,,,,,,,,
,,,,,,,,,,,html-button-response,65,2.0.0,128409,6556e5fa9feed5dca96b6dcd,4,6,1209,,,,,,,,,"<img src= ""rock_img/I_Obsidian_08.jpg"" style=""width:8cm; height:7.39cm;""><p>What type of rock is this?</p>",4,class_response,0,test,30,Obsidian,Obsidian,8,TRUE,5,5,,,,,,,,,,,,,,,,,,
,,,,,,,,,,,html-keyboard-response,66,2.0.0,128912,6556e5fa9feed5dca96b6dcd,4,6,null,,,,,,,,,<p style='font-size: 30px;'><strong>Okay</strong></p>,null,neutral_feedback,0,test,30,,,,,,,,,,,,,,,,,,,,,,,,
,,,,,,,,,,,html-button-response,67,2.0.0,130829,6556e5fa9feed5dca96b6dcd,4,6,1914,,,,,,,,,"<img src= ""rock_img/I_Basalt_16.jpg"" style=""width:8cm; height:7.659999999999999cm;""><p>What type of rock is this?</p>",6,class_response,0,test,31,Peridotite,Basalt,16,FALSE,7,2,,,,,,,,,,,,,,,,,,
,,,,,,,,,,,html-keyboard-response,68,2.0.0,131331,6556e5fa9feed5dca96b6dcd,4,6,null,,,,,,,,,<p style='font-size: 30px;'><strong>Okay</strong></p>,null,neutral_feedback,0,test,31,,,,,,,,,,,,,,,,,,,,,,,,
,,,,,,,,,,,html-button-response,69,2.0.0,133272,6556e5fa9feed5dca96b6dcd,4,6,1939,,,,,,,,,"<img src= ""rock_img/I_Diorite_06.jpg"" style=""width:8cm; height:6.03cm;""><p>What type of rock is this?</p>",3,class_response,0,test,32,Gabbro,Diorite,6,FALSE,4,3,,,,,,,,,,,,,,,,,,
,,,,,,,,,,,html-keyboard-response,70,2.0.0,133775,6556e5fa9feed5dca96b6dcd,4,6,null,,,,,,,,,<p style='font-size: 30px;'><strong>Okay</strong></p>,null,neutral_feedback,0,test,32,,,,,,,,,,,,,,,,,,,,,,,,
,,,,,,,,,,,html-button-response,71,2.0.0,134765,6556e5fa9feed5dca96b6dcd,4,6,987,,,,,,,,,"<img src= ""rock_img/I_Basalt_05.jpg"" style=""width:8cm; height:8.18cm;""><p>What type of rock is this?</p>",3,class_response,0,test,33,Gabbro,Basalt,5,FALSE,4,2,,,,,,,,,,,,,,,,,,
,,,,,,,,,,,html-keyboard-response,72,2.0.0,135267,6556e5fa9feed5dca96b6dcd,4,6,null,,,,,,,,,<p style='font-size: 30px;'><strong>Okay</strong></p>,null,neutral_feedback,0,test,33,,,,,,,,,,,,,,,,,,,,,,,,
,,,,,,,,,,,html-button-response,73,2.0.0,136939,6556e5fa9feed5dca96b6dcd,4,6,1669,,,,,,,,,"<img src= ""rock_img/I_Obsidian_02.jpg"" style=""width:8cm; height:7.51cm;""><p>What type of rock is this?</p>",4,class_response,0,test,34,Obsidian,Obsidian,2,TRUE,5,5,,,,,,,,,,,,,,,,,,
,,,,,,,,,,,html-keyboard-response,74,2.0.0,137443,6556e5fa9feed5dca96b6dcd,4,6,null,,,,,,,,,<p style='font-size: 30px;'><strong>Okay</strong></p>,null,neutral_feedback,0,test,34,,,,,,,,,,,,,,,,,,,,,,,,
,,,,,,,,,,,html-button-response,75,2.0.0,139007,6556e5fa9feed5dca96b6dcd,4,6,1561,,,,,,,,,"<img src= ""rock_img/I_Obsidian_07.jpg"" style=""width:8cm; height:4.76cm;""><p>What type of rock is this?</p>",4,class_response,0,test,35,Obsidian,Obsidian,7,TRUE,5,5,,,,,,,,,,,,,,,,,,
,,,,,,,,,,,html-keyboard-response,76,2.0.0,139509,6556e5fa9feed5dca96b6dcd,4,6,null,,,,,,,,,<p style='font-size: 30px;'><strong>Okay</strong></p>,null,neutral_feedback,0,test,35,,,,,,,,,,,,,,,,,,,,,,,,
,,,,,,,,,,,html-button-response,77,2.0.0,141947,6556e5fa9feed5dca96b6dcd,4,6,2436,,,,,,,,,"<img src= ""rock_img/I_Pumice_13.jpg"" style=""width:8cm; height:8.200000000000001cm;""><p>What type of rock is this?</p>",7,class_response,0,test,36,Pumice,Pumice,13,TRUE,8,8,,,,,,,,,,,,,,,,,,
,,,,,,,,,,,html-keyboard-response,78,2.0.0,142449,6556e5fa9feed5dca96b6dcd,4,6,null,,,,,,,,,<p style='font-size: 30px;'><strong>Okay</strong></p>,null,neutral_feedback,0,test,36,,,,,,,,,,,,,,,,,,,,,,,,
,,,,,,,,,,,html-button-response,79,2.0.0,143493,6556e5fa9feed5dca96b6dcd,4,6,1041,,,,,,,,,"<img src= ""rock_img/I_Pumice_09.jpg"" style=""width:8cm; height:6.44cm;""><p>What type of rock is this?</p>",7,class_response,0,test,37,Pumice,Pumice,9,TRUE,8,8,,,,,,,,,,,,,,,,,,
,,,,,,,,,,,html-keyboard-response,80,2.0.0,143995,6556e5fa9feed5dca96b6dcd,4,6,null,,,,,,,,,<p style='font-size: 30px;'><strong>Okay</strong></p>,null,neutral_feedback,0,test,37,,,,,,,,,,,,,,,,,,,,,,,,
,,,,,,,,,,,html-button-response,81,2.0.0,145477,6556e5fa9feed5dca96b6dcd,4,6,1479,,,,,,,,,"<img src= ""rock_img/I_Diorite_10.jpg"" style=""width:8cm; height:5.949999999999999cm;""><p>What type of rock is this?</p>",6,class_response,0,test,38,Peridotite,Diorite,10,FALSE,7,3,,,,,,,,,,,,,,,,,,
,,,,,,,,,,,html-keyboard-response,82,2.0.0,145979,6556e5fa9feed5dca96b6dcd,4,6,null,,,,,,,,,<p style='font-size: 30px;'><strong>Okay</strong></p>,null,neutral_feedback,0,test,38,,,,,,,,,,,,,,,,,,,,,,,,
,,,,,,,,,,,html-button-response,83,2.0.0,147024,6556e5fa9feed5dca96b6dcd,4,6,1042,,,,,,,,,"<img src= ""rock_img/I_Peridotite_05.jpg"" style=""width:8cm; height:7.1499999999999995cm;""><p>What type of rock is this?</p>",6,class_response,0,test,39,Peridotite,Peridotite,5,TRUE,7,7,,,,,,,,,,,,,,,,,,
,,,,,,,,,,,html-keyboard-response,84,2.0.0,147527,6556e5fa9feed5dca96b6dcd,4,6,null,,,,,,,,,<p style='font-size: 30px;'><strong>Okay</strong></p>,null,neutral_feedback,0,test,39,,,,,,,,,,,,,,,,,,,,,,,,
,,,,,,,,,,,html-button-response,85,2.0.0,150623,6556e5fa9feed5dca96b6dcd,4,6,3094,,,,,,,,,"<img src= ""rock_img/I_Basalt_10.jpg"" style=""width:8cm; height:5.85cm;""><p>What type of rock is this?</p>",6,class_response,0,test,40,Peridotite,Basalt,10,FALSE,7,2,,,,,,,,,,,,,,,,,,
,,,,,,,,,,,html-keyboard-response,86,2.0.0,151125,6556e5fa9feed5dca96b6dcd,4,6,null,,,,,,,,,<p style='font-size: 30px;'><strong>Okay</strong></p>,null,neutral_feedback,0,test,40,,,,,,,,,,,,,,,,,,,,,,,,
,,,,,,,,,,,html-button-response,87,2.0.0,152429,6556e5fa9feed5dca96b6dcd,4,6,1301,,,,,,,,,"<img src= ""rock_img/I_Pumice_16.jpg"" style=""width:8cm; height:6.79cm;""><p>What type of rock is this?</p>",7,class_response,0,test,41,Pumice,Pumice,16,TRUE,8,8,,,,,,,,,,,,,,,,,,
,,,,,,,,,,,html-keyboard-response,88,2.0.0,152931,6556e5fa9feed5dca96b6dcd,4,6,null,,,,,,,,,<p style='font-size: 30px;'><strong>Okay</strong></p>,null,neutral_feedback,0,test,41,,,,,,,,,,,,,,,,,,,,,,,,
,,,,,,,,,,,html-button-response,89,2.0.0,154703,6556e5fa9feed5dca96b6dcd,4,6,1771,,,,,,,,,"<img src= ""rock_img/I_Pegmatite_07.jpg"" style=""width:8cm; height:6.7cm;""><p>What type of rock is this?</p>",0,class_response,0,test,42,Andesite,Pegmatite,7,FALSE,1,6,,,,,,,,,,,,,,,,,,
,,,,,,,,,,,html-keyboard-response,90,2.0.0,155206,6556e5fa9feed5dca96b6dcd,4,6,null,,,,,,,,,<p style='font-size: 30px;'><strong>Okay</strong></p>,null,neutral_feedback,0,test,42,,,,,,,,,,,,,,,,,,,,,,,,
,,,,,,,,,,,html-button-response,91,2.0.0,159161,6556e5fa9feed5dca96b6dcd,4,6,3953,,,,,,,,,"<img src= ""rock_img/I_Gabbro_13.jpg"" style=""width:8cm; height:5.08cm;""><p>What type of rock is this?</p>",0,class_response,0,test,43,Andesite,Gabbro,13,FALSE,1,4,,,,,,,,,,,,,,,,,,
,,,,,,,,,,,html-keyboard-response,92,2.0.0,159665,6556e5fa9feed5dca96b6dcd,4,6,null,,,,,,,,,<p style='font-size: 30px;'><strong>Okay</strong></p>,null,neutral_feedback,0,test,43,,,,,,,,,,,,,,,,,,,,,,,,
,,,,,,,,,,,html-button-response,93,2.0.0,160824,6556e5fa9feed5dca96b6dcd,4,6,1157,,,,,,,,,"<img src= ""rock_img/I_Obsidian_14.jpg"" style=""width:8cm; height:7.64cm;""><p>What type of rock is this?</p>",4,class_response,0,test,44,Obsidian,Obsidian,14,TRUE,5,5,,,,,,,,,,,,,,,,,,
,,,,,,,,,,,html-keyboard-response,94,2.0.0,161325,6556e5fa9feed5dca96b6dcd,4,6,null,,,,,,,,,<p style='font-size: 30px;'><strong>Okay</strong></p>,null,neutral_feedback,0,test,44,,,,,,,,,,,,,,,,,,,,,,,,
,,,,,,,,,,,html-button-response,95,2.0.0,162676,6556e5fa9feed5dca96b6dcd,4,6,1348,,,,,,,,,"<img src= ""rock_img/I_Basalt_02.jpg"" style=""width:8cm; height:6.45cm;""><p>What type of rock is this?</p>",5,class_response,0,test,45,Pegmatite,Basalt,2,FALSE,6,2,,,,,,,,,,,,,,,,,,
,,,,,,,,,,,html-keyboard-response,96,2.0.0,163178,6556e5fa9feed5dca96b6dcd,4,6,null,,,,,,,,,<p style='font-size: 30px;'><strong>Okay</strong></p>,null,neutral_feedback,0,test,45,,,,,,,,,,,,,,,,,,,,,,,,
,,,,,,,,,,,html-button-response,97,2.0.0,164033,6556e5fa9feed5dca96b6dcd,4,6,852,,,,,,,,,"<img src= ""rock_img/I_Andesite_02.jpg"" style=""width:8cm; height:8.5cm;""><p>What type of rock is this?</p>",5,class_response,0,test,46,Pegmatite,Andesite,2,FALSE,6,1,,,,,,,,,,,,,,,,,,
,,,,,,,,,,,html-keyboard-response,98,2.0.0,164536,6556e5fa9feed5dca96b6dcd,4,6,null,,,,,,,,,<p style='font-size: 30px;'><strong>Okay</strong></p>,null,neutral_feedback,0,test,46,,,,,,,,,,,,,,,,,,,,,,,,
,,,,,,,,,,,html-button-response,99,2.0.0,165734,6556e5fa9feed5dca96b6dcd,4,6,1196,,,,,,,,,"<img src= ""rock_img/I_Peridotite_07.jpg"" style=""width:8cm; height:4.83cm;""><p>What type of rock is this?</p>",5,class_response,0,test,47,Pegmatite,Peridotite,7,FALSE,6,7,,,,,,,,,,,,,,,,,,
,,,,,,,,,,,html-keyboard-response,100,2.0.0,166237,6556e5fa9feed5dca96b6dcd,4,6,null,,,,,,,,,<p style='font-size: 30px;'><strong>Okay</strong></p>,null,neutral_feedback,0,test,47,,,,,,,,,,,,,,,,,,,,,,,,
,,,,,,,,,,,html-button-response,101,2.0.0,167734,6556e5fa9feed5dca96b6dcd,4,6,1494,,,,,,,,,"<img src= ""rock_img/I_Andesite_06.jpg"" style=""width:8cm; height:6.840000000000001cm;""><p>What type of rock is this?</p>",5,class_response,0,test,48,Pegmatite,Andesite,6,FALSE,6,1,,,,,,,,,,,,,,,,,,
,,,,,,,,,,,html-keyboard-response,102,2.0.0,168236,6556e5fa9feed5dca96b6dcd,4,6,null,,,,,,,,,<p style='font-size: 30px;'><strong>Okay</strong></p>,null,neutral_feedback,0,test,48,,,,,,,,,,,,,,,,,,,,,,,,
,,,,,,,,,,,instructions,103,2.0.0,228015,6556e5fa9feed5dca96b6dcd,4,6,59747,,,,,,,,"[{""page_index"":0,""viewing_time"":9574},{""page_index"":1,""viewing_time"":50173}]",,,,,,,,,,,,,,,,,,,,,,,,,,,,,,
,,,,,,,,,,,html-button-response,104,2.0.0,229343,6556e5fa9feed5dca96b6dcd,4,6,1327,,,,,,,,,,0,start_train,,,,,,,,,,,,,,,,,,,,,,,,,,,
,,,,,,,,,,,html-button-response,106,2.0.0,232469,6556e5fa9feed5dca96b6dcd,4,6,3122,,,,,,,,,"<img src= ""rock_img/I_Basalt_11.jpg"" style=""width:8cm; height:5.359999999999999cm;""><p>What type of rock is this?</p>",7,class_response,1,train,1,Pumice,Basalt,11,FALSE,8,2,,,,,,,,,,,,,,,,,,
,,,,,,,,,,,html-button-response,107,2.0.0,234973,6556e5fa9feed5dca96b6dcd,4,6,2502,,,,,,,,,"<img src= rock_img/I_Basalt_11.jpg style=""width:8cm; height:5.359999999999999cm;""><p style='font-size: 30px; color: red;'><strong>Incorrect!</strong></p><p style='font-size: 30px;'><strong>This rock is basalt</strong></p>",0,corr_feedback,1,train,1,,,,,,,,,,,,,,,,,,,,,,,,
,,,,,,,,,,,html-button-response,108,2.0.0,237097,6556e5fa9feed5dca96b6dcd,4,6,2121,,,,,,,,,"<img src= ""rock_img/I_Gabbro_12.jpg"" style=""width:8cm; height:7.800000000000001cm;""><p>What type of rock is this?</p>",5,class_response,1,train,2,Pegmatite,Gabbro,12,FALSE,6,4,,,,,,,,,,,,,,,,,,
,,,,,,,,,,,html-button-response,109,2.0.0,238974,6556e5fa9feed5dca96b6dcd,4,6,1875,,,,,,,,,"<img src= rock_img/I_Gabbro_12.jpg style=""width:8cm; height:7.800000000000001cm;""><p style='font-size: 30px; color: red;'><strong>Incorrect!</strong></p><p style='font-size: 30px;'><strong>This rock is gabbro</strong></p>",0,corr_feedback,1,train,2,,,,,,,,,,,,,,,,,,,,,,,,
,,,,,,,,,,,html-button-response,110,2.0.0,241902,6556e5fa9feed5dca96b6dcd,4,6,2926,,,,,,,,,"<img src= ""rock_img/I_Pegmatite_05.jpg"" style=""width:8cm; height:7.300000000000001cm;""><p>What type of rock is this?</p>",0,class_response,1,train,3,Andesite,Pegmatite,5,FALSE,1,6,,,,,,,,,,,,,,,,,,
,,,,,,,,,,,html-button-response,111,2.0.0,243643,6556e5fa9feed5dca96b6dcd,4,6,1740,,,,,,,,,"<img src= rock_img/I_Pegmatite_05.jpg style=""width:8cm; height:7.300000000000001cm;""><p style='font-size: 30px; color: red;'><strong>Incorrect!</strong></p><p style='font-size: 30px;'><strong>This rock is pegmatite</strong></p>",0,corr_feedback,1,train,3,,,,,,,,,,,,,,,,,,,,,,,,
,,,,,,,,,,,html-button-response,112,2.0.0,244898,6556e5fa9feed5dca96b6dcd,4,6,1253,,,,,,,,,"<img src= ""rock_img/I_Pumice_02.jpg"" style=""width:8cm; height:7.3999999999999995cm;""><p>What type of rock is this?</p>",7,class_response,1,train,4,Pumice,Pumice,2,TRUE,8,8,,,,,,,,,,,,,,,,,,
,,,,,,,,,,,html-button-response,113,2.0.0,245881,6556e5fa9feed5dca96b6dcd,4,6,981,,,,,,,,,"<img src= rock_img/I_Pumice_02.jpg style=""width:8cm; height:7.3999999999999995cm;""><p style='font-size: 30px; color: green;'><strong>Correct!</strong></p><p style='font-size: 30px;'><strong>This rock is pumice</strong></p>",0,corr_feedback,1,train,4,,,,,,,,,,,,,,,,,,,,,,,,
,,,,,,,,,,,html-button-response,114,2.0.0,247194,6556e5fa9feed5dca96b6dcd,4,6,1311,,,,,,,,,"<img src= ""rock_img/I_Diorite_14.jpg"" style=""width:8cm; height:5.71cm;""><p>What type of rock is this?</p>",6,class_response,1,train,5,Peridotite,Diorite,14,FALSE,7,3,,,,,,,,,,,,,,,,,,
,,,,,,,,,,,html-button-response,115,2.0.0,248181,6556e5fa9feed5dca96b6dcd,4,6,985,,,,,,,,,"<img src= rock_img/I_Diorite_14.jpg style=""width:8cm; height:5.71cm;""><p style='font-size: 30px; color: red;'><strong>Incorrect!</strong></p><p style='font-size: 30px;'><strong>This rock is diorite</strong></p>",0,corr_feedback,1,train,5,,,,,,,,,,,,,,,,,,,,,,,,
,,,,,,,,,,,html-button-response,116,2.0.0,250114,6556e5fa9feed5dca96b6dcd,4,6,1931,,,,,,,,,"<img src= ""rock_img/I_Gabbro_09.jpg"" style=""width:8cm; height:7.279999999999999cm;""><p>What type of rock is this?</p>",4,class_response,1,train,6,Obsidian,Gabbro,9,FALSE,5,4,,,,,,,,,,,,,,,,,,
,,,,,,,,,,,html-button-response,117,2.0.0,251214,6556e5fa9feed5dca96b6dcd,4,6,1098,,,,,,,,,"<img src= rock_img/I_Gabbro_09.jpg style=""width:8cm; height:7.279999999999999cm;""><p style='font-size: 30px; color: red;'><strong>Incorrect!</strong></p><p style='font-size: 30px;'><strong>This rock is gabbro</strong></p>",0,corr_feedback,1,train,6,,,,,,,,,,,,,,,,,,,,,,,,
,,,,,,,,,,,html-button-response,118,2.0.0,252685,6556e5fa9feed5dca96b6dcd,4,6,1469,,,,,,,,,"<img src= ""rock_img/I_Obsidian_10.jpg"" style=""width:8cm; height:6.260000000000001cm;""><p>What type of rock is this?</p>",4,class_response,1,train,7,Obsidian,Obsidian,10,TRUE,5,5,,,,,,,,,,,,,,,,,,
,,,,,,,,,,,html-button-response,119,2.0.0,254056,6556e5fa9feed5dca96b6dcd,4,6,1369,,,,,,,,,"<img src= rock_img/I_Obsidian_10.jpg style=""width:8cm; height:6.260000000000001cm;""><p style='font-size: 30px; color: green;'><strong>Correct!</strong></p><p style='font-size: 30px;'><strong>This rock is obsidian</strong></p>",0,corr_feedback,1,train,7,,,,,,,,,,,,,,,,,,,,,,,,
,,,,,,,,,,,html-button-response,120,2.0.0,257073,6556e5fa9feed5dca96b6dcd,4,6,3015,,,,,,,,,"<img src= ""rock_img/I_Andesite_16.jpg"" style=""width:8cm; height:6.010000000000001cm;""><p>What type of rock is this?</p>",3,class_response,1,train,8,Gabbro,Andesite,16,FALSE,4,1,,,,,,,,,,,,,,,,,,
,,,,,,,,,,,html-button-response,121,2.0.0,258228,6556e5fa9feed5dca96b6dcd,4,6,1153,,,,,,,,,"<img src= rock_img/I_Andesite_16.jpg style=""width:8cm; height:6.010000000000001cm;""><p style='font-size: 30px; color: red;'><strong>Incorrect!</strong></p><p style='font-size: 30px;'><strong>This rock is andesite</strong></p>",0,corr_feedback,1,train,8,,,,,,,,,,,,,,,,,,,,,,,,
,,,,,,,,,,,html-button-response,122,2.0.0,331729,6556e5fa9feed5dca96b6dcd,4,6,73501,,,,,,,,,"<img src= ""rock_img/I_Basalt_14.jpg"" style=""width:8cm; height:5.82cm;""><p>What type of rock is this?</p>",3,class_response,1,train,9,Gabbro,Basalt,14,FALSE,4,2,,,,,,,,,,,,,,,,,,
,,,,,,,,,,,html-button-response,123,2.0.0,332993,6556e5fa9feed5dca96b6dcd,4,6,1262,,,,,,,,,"<img src= rock_img/I_Basalt_14.jpg style=""width:8cm; height:5.82cm;""><p style='font-size: 30px; color: red;'><strong>Incorrect!</strong></p><p style='font-size: 30px;'><strong>This rock is basalt</strong></p>",0,corr_feedback,1,train,9,,,,,,,,,,,,,,,,,,,,,,,,
,,,,,,,,,,,html-button-response,124,2.0.0,335361,6556e5fa9feed5dca96b6dcd,4,6,2367,,,,,,,,,"<img src= ""rock_img/I_Pegmatite_03.jpg"" style=""width:8cm; height:5.239999999999999cm;""><p>What type of rock is this?</p>",4,class_response,1,train,10,Obsidian,Pegmatite,3,FALSE,5,6,,,,,,,,,,,,,,,,,,
,,,,,,,,,,,html-button-response,125,2.0.0,336876,6556e5fa9feed5dca96b6dcd,4,6,1514,,,,,,,,,"<img src= rock_img/I_Pegmatite_03.jpg style=""width:8cm; height:5.239999999999999cm;""><p style='font-size: 30px; color: red;'><strong>Incorrect!</strong></p><p style='font-size: 30px;'><strong>This rock is pegmatite</strong></p>",0,corr_feedback,1,train,10,,,,,,,,,,,,,,,,,,,,,,,,
,,,,,,,,,,,html-button-response,126,2.0.0,338203,6556e5fa9feed5dca96b6dcd,4,6,1323,,,,,,,,,"<img src= ""rock_img/I_Obsidian_05.jpg"" style=""width:8cm; height:6.33cm;""><p>What type of rock is this?</p>",4,class_response,1,train,11,Obsidian,Obsidian,5,TRUE,5,5,,,,,,,,,,,,,,,,,,
,,,,,,,,,,,html-button-response,127,2.0.0,339048,6556e5fa9feed5dca96b6dcd,4,6,843,,,,,,,,,"<img src= rock_img/I_Obsidian_05.jpg style=""width:8cm; height:6.33cm;""><p style='font-size: 30px; color: green;'><strong>Correct!</strong></p><p style='font-size: 30px;'><strong>This rock is obsidian</strong></p>",0,corr_feedback,1,train,11,,,,,,,,,,,,,,,,,,,,,,,,
,,,,,,,,,,,html-button-response,128,2.0.0,341326,6556e5fa9feed5dca96b6dcd,4,6,2276,,,,,,,,,"<img src= ""rock_img/I_Peridotite_08.jpg"" style=""width:8cm; height:6.7cm;""><p>What type of rock is this?</p>",1,class_response,1,train,12,Basalt,Peridotite,8,FALSE,2,7,,,,,,,,,,,,,,,,,,
,,,,,,,,,,,html-button-response,129,2.0.0,342342,6556e5fa9feed5dca96b6dcd,4,6,1014,,,,,,,,,"<img src= rock_img/I_Peridotite_08.jpg style=""width:8cm; height:6.7cm;""><p style='font-size: 30px; color: red;'><strong>Incorrect!</strong></p><p style='font-size: 30px;'><strong>This rock is peridotite</strong></p>",0,corr_feedback,1,train,12,,,,,,,,,,,,,,,,,,,,,,,,
,,,,,,,,,,,instructions,130,2.0.0,357539,6556e5fa9feed5dca96b6dcd,4,6,15196,,,,,,,,"[{""page_index"":0,""viewing_time"":6569},{""page_index"":1,""viewing_time"":2547},{""page_index"":2,""viewing_time"":3383},{""page_index"":3,""viewing_time"":2698}]",,,,,,,,,,,,,,,,,,,,,,,,,,,,,,
,,,,,,,,,,,html-button-response,131,2.0.0,358828,6556e5fa9feed5dca96b6dcd,4,6,1286,,,,,,,,,,0,start_train,,,,,,,,,,,,,,,,,,,,,,,,,,,
,,,,,,,,,,,html-button-response,132,2.0.0,367439,6556e5fa9feed5dca96b6dcd,4,6,,,,,,,,,,,,cat_selection,1,train,1,,,,,,,4245.3,4363.8,7,2,Peridotite,Basalt,,,,,,,,,,,,
,,,,,,,,,,,paired-cat-display,133,1.0.0,452021,6556e5fa9feed5dca96b6dcd,4,6,,,,,,,,,,,,paired_cat_display,1,train,1,,,,,,,,,,,,,"All images of the Periodite have a green appearance to them. In comparison to the Basalt, it looks less smooth, gravel texture. ","Smooth, gray or slightly brown, small ridges. ",7984.6,76592.9,,,,,,,,
,,,,,,,,,,,html-button-response,134,2.0.0,459731,6556e5fa9feed5dca96b6dcd,4,6,,,,,,,,,,,,cat_selection,1,train,2,,,,,,,6390,1317.7,8,3,Pumice,Diorite,,,,,,,,,,,,
,,,,,,,,,,,paired-cat-display,135,1.0.0,513267,6556e5fa9feed5dca96b6dcd,4,6,,,,,,,,,,,,paired_cat_display,1,train,2,,,,,,,,,,,,,,,5944.2,47590,"Neutral in color-more earth tones, porous texture, not smooth. ","Gravel like appearance, black/grey specks throughout, lighter in color. ",,,,,,
,,,,,,,,,,,html-button-response,136,2.0.0,517674,6556e5fa9feed5dca96b6dcd,4,6,,,,,,,,,,,,cat_selection,1,train,3,,,,,,,3813.7,591.7,7,3,Peridotite,Diorite,,,,,,,,,,,,
,,,,,,,,,,,paired-cat-display,137,1.0.0,580961,6556e5fa9feed5dca96b6dcd,4,6,,,,,,,,,,,,paired_cat_display,1,train,3,,,,,,,,,,,,,"Green in appearance, rough texture, specks throughout",,6489.4,56796,,"Neutral in color, black/grey specks, Gravel like appearance but still smooth",,,,,,
,,,,,,,,,,,instructions,138,2.0.0,703351,6556e5fa9feed5dca96b6dcd,4,6,122391,,,,,,,,"[{""page_index"":0,""viewing_time"":1541},{""page_index"":1,""viewing_time"":120850}]",,,,,,,,,,,,,,,,,,,,,,,,,,,,,,
,,,,,,,,,,,html-button-response,139,2.0.0,707139,6556e5fa9feed5dca96b6dcd,4,6,3786,,,,,,,,,,0,start_test,,,,,,,,,,,,,,,,,,,,,,,,,,,
,,,,,,,,,,,html-button-response,140,2.0.0,713283,6556e5fa9feed5dca96b6dcd,4,6,6142,,,,,,,,,"<img src= ""rock_img/I_Pegmatite_09.jpg"" style=""width:8cm; height:4.03cm;""><p>What type of rock is this?</p>",6,class_response,1,test,1,Peridotite,Pegmatite,9,FALSE,7,6,,,,,,,,,,,,,,,,,,
,,,,,,,,,,,html-keyboard-response,141,2.0.0,713786,6556e5fa9feed5dca96b6dcd,4,6,null,,,,,,,,,<p style='font-size: 30px;'><strong>Okay</strong></p>,null,neutral_feedback,1,test,1,,,,,,,,,,,,,,,,,,,,,,,,
,,,,,,,,,,,html-button-response,142,2.0.0,715143,6556e5fa9feed5dca96b6dcd,4,6,1354,,,,,,,,,"<img src= ""rock_img/I_Obsidian_02.jpg"" style=""width:8cm; height:7.51cm;""><p>What type of rock is this?</p>",4,class_response,1,test,2,Obsidian,Obsidian,2,TRUE,5,5,,,,,,,,,,,,,,,,,,
,,,,,,,,,,,html-keyboard-response,143,2.0.0,715647,6556e5fa9feed5dca96b6dcd,4,6,null,,,,,,,,,<p style='font-size: 30px;'><strong>Okay</strong></p>,null,neutral_feedback,1,test,2,,,,,,,,,,,,,,,,,,,,,,,,
,,,,,,,,,,,html-button-response,144,2.0.0,718522,6556e5fa9feed5dca96b6dcd,4,6,2872,,,,,,,,,"<img src= ""rock_img/I_Andesite_02.jpg"" style=""width:8cm; height:8.5cm;""><p>What type of rock is this?</p>",3,class_response,1,test,3,Gabbro,Andesite,2,FALSE,4,1,,,,,,,,,,,,,,,,,,
,,,,,,,,,,,html-keyboard-response,145,2.0.0,719025,6556e5fa9feed5dca96b6dcd,4,6,null,,,,,,,,,<p style='font-size: 30px;'><strong>Okay</strong></p>,null,neutral_feedback,1,test,3,,,,,,,,,,,,,,,,,,,,,,,,
,,,,,,,,,,,html-button-response,146,2.0.0,721899,6556e5fa9feed5dca96b6dcd,4,6,2870,,,,,,,,,"<img src= ""rock_img/I_Andesite_05.jpg"" style=""width:8cm; height:4.12cm;""><p>What type of rock is this?</p>",2,class_response,1,test,4,Diorite,Andesite,5,FALSE,3,1,,,,,,,,,,,,,,,,,,
,,,,,,,,,,,html-keyboard-response,147,2.0.0,722402,6556e5fa9feed5dca96b6dcd,4,6,null,,,,,,,,,<p style='font-size: 30px;'><strong>Okay</strong></p>,null,neutral_feedback,1,test,4,,,,,,,,,,,,,,,,,,,,,,,,
,,,,,,,,,,,html-button-response,148,2.0.0,726909,6556e5fa9feed5dca96b6dcd,4,6,4505,,,,,,,,,"<img src= ""rock_img/I_Diorite_07.jpg"" style=""width:8cm; height:5.239999999999999cm;""><p>What type of rock is this?</p>",1,class_response,1,test,5,Basalt,Diorite,7,FALSE,2,3,,,,,,,,,,,,,,,,,,
,,,,,,,,,,,html-keyboard-response,149,2.0.0,727412,6556e5fa9feed5dca96b6dcd,4,6,null,,,,,,,,,<p style='font-size: 30px;'><strong>Okay</strong></p>,null,neutral_feedback,1,test,5,,,,,,,,,,,,,,,,,,,,,,,,
,,,,,,,,,,,html-button-response,150,2.0.0,728879,6556e5fa9feed5dca96b6dcd,4,6,1465,,,,,,,,,"<img src= ""rock_img/I_Peridotite_16.jpg"" style=""width:8cm; height:6.989999999999999cm;""><p>What type of rock is this?</p>",6,class_response,1,test,6,Peridotite,Peridotite,16,TRUE,7,7,,,,,,,,,,,,,,,,,,
,,,,,,,,,,,html-keyboard-response,151,2.0.0,729382,6556e5fa9feed5dca96b6dcd,4,6,null,,,,,,,,,<p style='font-size: 30px;'><strong>Okay</strong></p>,null,neutral_feedback,1,test,6,,,,,,,,,,,,,,,,,,,,,,,,
,,,,,,,,,,,html-button-response,152,2.0.0,730713,6556e5fa9feed5dca96b6dcd,4,6,1329,,,,,,,,,"<img src= ""rock_img/I_Pumice_13.jpg"" style=""width:8cm; height:8.200000000000001cm;""><p>What type of rock is this?</p>",7,class_response,1,test,7,Pumice,Pumice,13,TRUE,8,8,,,,,,,,,,,,,,,,,,
,,,,,,,,,,,html-keyboard-response,153,2.0.0,731216,6556e5fa9feed5dca96b6dcd,4,6,null,,,,,,,,,<p style='font-size: 30px;'><strong>Okay</strong></p>,null,neutral_feedback,1,test,7,,,,,,,,,,,,,,,,,,,,,,,,
,,,,,,,,,,,html-button-response,154,2.0.0,734668,6556e5fa9feed5dca96b6dcd,4,6,3450,,,,,,,,,"<img src= ""rock_img/I_Andesite_14.jpg"" style=""width:8cm; height:5.449999999999999cm;""><p>What type of rock is this?</p>",2,class_response,1,test,8,Diorite,Andesite,14,FALSE,3,1,,,,,,,,,,,,,,,,,,
,,,,,,,,,,,html-keyboard-response,155,2.0.0,735171,6556e5fa9feed5dca96b6dcd,4,6,null,,,,,,,,,<p style='font-size: 30px;'><strong>Okay</strong></p>,null,neutral_feedback,1,test,8,,,,,,,,,,,,,,,,,,,,,,,,
,,,,,,,,,,,html-button-response,156,2.0.0,736569,6556e5fa9feed5dca96b6dcd,4,6,1395,,,,,,,,,"<img src= ""rock_img/I_Obsidian_07.jpg"" style=""width:8cm; height:4.76cm;""><p>What type of rock is this?</p>",4,class_response,1,test,9,Obsidian,Obsidian,7,TRUE,5,5,,,,,,,,,,,,,,,,,,
,,,,,,,,,,,html-keyboard-response,157,2.0.0,737072,6556e5fa9feed5dca96b6dcd,4,6,null,,,,,,,,,<p style='font-size: 30px;'><strong>Okay</strong></p>,null,neutral_feedback,1,test,9,,,,,,,,,,,,,,,,,,,,,,,,
,,,,,,,,,,,html-button-response,158,2.0.0,740433,6556e5fa9feed5dca96b6dcd,4,6,3359,,,,,,,,,"<img src= ""rock_img/I_Gabbro_03.jpg"" style=""width:8cm; height:8.52cm;""><p>What type of rock is this?</p>",2,class_response,1,test,10,Diorite,Gabbro,3,FALSE,3,4,,,,,,,,,,,,,,,,,,
,,,,,,,,,,,html-keyboard-response,159,2.0.0,740936,6556e5fa9feed5dca96b6dcd,4,6,null,,,,,,,,,<p style='font-size: 30px;'><strong>Okay</strong></p>,null,neutral_feedback,1,test,10,,,,,,,,,,,,,,,,,,,,,,,,
,,,,,,,,,,,html-button-response,160,2.0.0,742161,6556e5fa9feed5dca96b6dcd,4,6,1222,,,,,,,,,"<img src= ""rock_img/I_Obsidian_16.jpg"" style=""width:8cm; height:9.3cm;""><p>What type of rock is this?</p>",4,class_response,1,test,11,Obsidian,Obsidian,16,TRUE,5,5,,,,,,,,,,,,,,,,,,
,,,,,,,,,,,html-keyboard-response,161,2.0.0,742664,6556e5fa9feed5dca96b6dcd,4,6,null,,,,,,,,,<p style='font-size: 30px;'><strong>Okay</strong></p>,null,neutral_feedback,1,test,11,,,,,,,,,,,,,,,,,,,,,,,,
,,,,,,,,,,,html-button-response,162,2.0.0,745342,6556e5fa9feed5dca96b6dcd,4,6,2676,,,,,,,,,"<img src= ""rock_img/I_Pegmatite_13.jpg"" style=""width:8cm; height:4.95cm;""><p>What type of rock is this?</p>",1,class_response,1,test,12,Basalt,Pegmatite,13,FALSE,2,6,,,,,,,,,,,,,,,,,,
,,,,,,,,,,,html-keyboard-response,163,2.0.0,745846,6556e5fa9feed5dca96b6dcd,4,6,null,,,,,,,,,<p style='font-size: 30px;'><strong>Okay</strong></p>,null,neutral_feedback,1,test,12,,,,,,,,,,,,,,,,,,,,,,,,
,,,,,,,,,,,html-button-response,164,2.0.0,747141,6556e5fa9feed5dca96b6dcd,4,6,1292,,,,,,,,,"<img src= ""rock_img/I_Pumice_09.jpg"" style=""width:8cm; height:6.44cm;""><p>What type of rock is this?</p>",7,class_response,1,test,13,Pumice,Pumice,9,TRUE,8,8,,,,,,,,,,,,,,,,,,
,,,,,,,,,,,html-keyboard-response,165,2.0.0,747644,6556e5fa9feed5dca96b6dcd,4,6,null,,,,,,,,,<p style='font-size: 30px;'><strong>Okay</strong></p>,null,neutral_feedback,1,test,13,,,,,,,,,,,,,,,,,,,,,,,,
,,,,,,,,,,,html-button-response,166,2.0.0,757792,6556e5fa9feed5dca96b6dcd,4,6,10145,,,,,,,,,"<img src= ""rock_img/I_Basalt_09.jpg"" style=""width:8cm; height:6.2cm;""><p>What type of rock is this?</p>",5,class_response,1,test,14,Pegmatite,Basalt,9,FALSE,6,2,,,,,,,,,,,,,,,,,,
,,,,,,,,,,,html-keyboard-response,167,2.0.0,758295,6556e5fa9feed5dca96b6dcd,4,6,null,,,,,,,,,<p style='font-size: 30px;'><strong>Okay</strong></p>,null,neutral_feedback,1,test,14,,,,,,,,,,,,,,,,,,,,,,,,
,,,,,,,,,,,html-button-response,168,2.0.0,759514,6556e5fa9feed5dca96b6dcd,4,6,1217,,,,,,,,,"<img src= ""rock_img/I_Obsidian_12.jpg"" style=""width:8cm; height:6.53cm;""><p>What type of rock is this?</p>",4,class_response,1,test,15,Obsidian,Obsidian,12,TRUE,5,5,,,,,,,,,,,,,,,,,,
,,,,,,,,,,,html-keyboard-response,169,2.0.0,760015,6556e5fa9feed5dca96b6dcd,4,6,null,,,,,,,,,<p style='font-size: 30px;'><strong>Okay</strong></p>,null,neutral_feedback,1,test,15,,,,,,,,,,,,,,,,,,,,,,,,
,,,,,,,,,,,html-button-response,170,2.0.0,762912,6556e5fa9feed5dca96b6dcd,4,6,2895,,,,,,,,,"<img src= ""rock_img/I_Peridotite_04.jpg"" style=""width:8cm; height:6.680000000000001cm;""><p>What type of rock is this?</p>",0,class_response,1,test,16,Andesite,Peridotite,4,FALSE,1,7,,,,,,,,,,,,,,,,,,
,,,,,,,,,,,html-keyboard-response,171,2.0.0,763416,6556e5fa9feed5dca96b6dcd,4,6,null,,,,,,,,,<p style='font-size: 30px;'><strong>Okay</strong></p>,null,neutral_feedback,1,test,16,,,,,,,,,,,,,,,,,,,,,,,,
,,,,,,,,,,,html-button-response,172,2.0.0,770314,6556e5fa9feed5dca96b6dcd,4,6,6896,,,,,,,,,"<img src= ""rock_img/I_Basalt_02.jpg"" style=""width:8cm; height:6.45cm;""><p>What type of rock is this?</p>",5,class_response,1,test,17,Pegmatite,Basalt,2,FALSE,6,2,,,,,,,,,,,,,,,,,,
,,,,,,,,,,,html-keyboard-response,173,2.0.0,770817,6556e5fa9feed5dca96b6dcd,4,6,null,,,,,,,,,<p style='font-size: 30px;'><strong>Okay</strong></p>,null,neutral_feedback,1,test,17,,,,,,,,,,,,,,,,,,,,,,,,
,,,,,,,,,,,html-button-response,174,2.0.0,772984,6556e5fa9feed5dca96b6dcd,4,6,2165,,,,,,,,,"<img src= ""rock_img/I_Diorite_12.jpg"" style=""width:8cm; height:4.88cm;""><p>What type of rock is this?</p>",6,class_response,1,test,18,Peridotite,Diorite,12,FALSE,7,3,,,,,,,,,,,,,,,,,,
,,,,,,,,,,,html-keyboard-response,175,2.0.0,773488,6556e5fa9feed5dca96b6dcd,4,6,null,,,,,,,,,<p style='font-size: 30px;'><strong>Okay</strong></p>,null,neutral_feedback,1,test,18,,,,,,,,,,,,,,,,,,,,,,,,
,,,,,,,,,,,html-button-response,176,2.0.0,774893,6556e5fa9feed5dca96b6dcd,4,6,1403,,,,,,,,,"<img src= ""rock_img/I_Basalt_10.jpg"" style=""width:8cm; height:5.85cm;""><p>What type of rock is this?</p>",1,class_response,1,test,19,Basalt,Basalt,10,TRUE,2,2,,,,,,,,,,,,,,,,,,
,,,,,,,,,,,html-keyboard-response,177,2.0.0,775396,6556e5fa9feed5dca96b6dcd,4,6,null,,,,,,,,,<p style='font-size: 30px;'><strong>Okay</strong></p>,null,neutral_feedback,1,test,19,,,,,,,,,,,,,,,,,,,,,,,,
,,,,,,,,,,,html-button-response,178,2.0.0,776729,6556e5fa9feed5dca96b6dcd,4,6,1331,,,,,,,,,"<img src= ""rock_img/I_Pegmatite_08.jpg"" style=""width:8cm; height:7.68cm;""><p>What type of rock is this?</p>",4,class_response,1,test,20,Obsidian,Pegmatite,8,FALSE,5,6,,,,,,,,,,,,,,,,,,
,,,,,,,,,,,html-keyboard-response,179,2.0.0,777232,6556e5fa9feed5dca96b6dcd,4,6,null,,,,,,,,,<p style='font-size: 30px;'><strong>Okay</strong></p>,null,neutral_feedback,1,test,20,,,,,,,,,,,,,,,,,,,,,,,,
,,,,,,,,,,,html-button-response,180,2.0.0,779123,6556e5fa9feed5dca96b6dcd,4,6,1889,,,,,,,,,"<img src= ""rock_img/I_Basalt_12.jpg"" style=""width:8cm; height:6.010000000000001cm;""><p>What type of rock is this?</p>",7,class_response,1,test,21,Pumice,Basalt,12,FALSE,8,2,,,,,,,,,,,,,,,,,,
,,,,,,,,,,,html-keyboard-response,181,2.0.0,779626,6556e5fa9feed5dca96b6dcd,4,6,null,,,,,,,,,<p style='font-size: 30px;'><strong>Okay</strong></p>,null,neutral_feedback,1,test,21,,,,,,,,,,,,,,,,,,,,,,,,
,,,,,,,,,,,html-button-response,182,2.0.0,781504,6556e5fa9feed5dca96b6dcd,4,6,1875,,,,,,,,,"<img src= ""rock_img/I_Gabbro_15.jpg"" style=""width:8cm; height:6.29cm;""><p>What type of rock is this?</p>",6,class_response,1,test,22,Peridotite,Gabbro,15,FALSE,7,4,,,,,,,,,,,,,,,,,,
,,,,,,,,,,,html-keyboard-response,183,2.0.0,782005,6556e5fa9feed5dca96b6dcd,4,6,null,,,,,,,,,<p style='font-size: 30px;'><strong>Okay</strong></p>,null,neutral_feedback,1,test,22,,,,,,,,,,,,,,,,,,,,,,,,
,,,,,,,,,,,html-button-response,184,2.0.0,782902,6556e5fa9feed5dca96b6dcd,4,6,894,,,,,,,,,"<img src= ""rock_img/I_Peridotite_07.jpg"" style=""width:8cm; height:4.83cm;""><p>What type of rock is this?</p>",6,class_response,1,test,23,Peridotite,Peridotite,7,TRUE,7,7,,,,,,,,,,,,,,,,,,
,,,,,,,,,,,html-keyboard-response,185,2.0.0,783404,6556e5fa9feed5dca96b6dcd,4,6,null,,,,,,,,,<p style='font-size: 30px;'><strong>Okay</strong></p>,null,neutral_feedback,1,test,23,,,,,,,,,,,,,,,,,,,,,,,,
,,,,,,,,,,,html-button-response,186,2.0.0,784505,6556e5fa9feed5dca96b6dcd,4,6,1098,,,,,,,,,"<img src= ""rock_img/I_Pumice_10.jpg"" style=""width:8cm; height:7.609999999999999cm;""><p>What type of rock is this?</p>",7,class_response,1,test,24,Pumice,Pumice,10,TRUE,8,8,,,,,,,,,,,,,,,,,,
,,,,,,,,,,,html-keyboard-response,187,2.0.0,785008,6556e5fa9feed5dca96b6dcd,4,6,null,,,,,,,,,<p style='font-size: 30px;'><strong>Okay</strong></p>,null,neutral_feedback,1,test,24,,,,,,,,,,,,,,,,,,,,,,,,
,,,,,,,,,,,html-button-response,188,2.0.0,786288,6556e5fa9feed5dca96b6dcd,4,6,1277,,,,,,,,,"<img src= ""rock_img/I_Obsidian_08.jpg"" style=""width:8cm; height:7.39cm;""><p>What type of rock is this?</p>",4,class_response,1,test,25,Obsidian,Obsidian,8,TRUE,5,5,,,,,,,,,,,,,,,,,,
,,,,,,,,,,,html-keyboard-response,189,2.0.0,786789,6556e5fa9feed5dca96b6dcd,4,6,null,,,,,,,,,<p style='font-size: 30px;'><strong>Okay</strong></p>,null,neutral_feedback,1,test,25,,,,,,,,,,,,,,,,,,,,,,,,
,,,,,,,,,,,html-button-response,190,2.0.0,793282,6556e5fa9feed5dca96b6dcd,4,6,6491,,,,,,,,,"<img src= ""rock_img/I_Gabbro_11.jpg"" style=""width:8cm; height:6.2cm;""><p>What type of rock is this?</p>",5,class_response,1,test,26,Pegmatite,Gabbro,11,FALSE,6,4,,,,,,,,,,,,,,,,,,
,,,,,,,,,,,html-keyboard-response,191,2.0.0,793785,6556e5fa9feed5dca96b6dcd,4,6,null,,,,,,,,,<p style='font-size: 30px;'><strong>Okay</strong></p>,null,neutral_feedback,1,test,26,,,,,,,,,,,,,,,,,,,,,,,,
,,,,,,,,,,,html-button-response,192,2.0.0,795262,6556e5fa9feed5dca96b6dcd,4,6,1475,,,,,,,,,"<img src= ""rock_img/I_Andesite_09.jpg"" style=""width:8cm; height:6cm;""><p>What type of rock is this?</p>",5,class_response,1,test,27,Pegmatite,Andesite,9,FALSE,6,1,,,,,,,,,,,,,,,,,,
,,,,,,,,,,,html-keyboard-response,193,2.0.0,795765,6556e5fa9feed5dca96b6dcd,4,6,null,,,,,,,,,<p style='font-size: 30px;'><strong>Okay</strong></p>,null,neutral_feedback,1,test,27,,,,,,,,,,,,,,,,,,,,,,,,
,,,,,,,,,,,html-button-response,194,2.0.0,797653,6556e5fa9feed5dca96b6dcd,4,6,1886,,,,,,,,,"<img src= ""rock_img/I_Peridotite_05.jpg"" style=""width:8cm; height:7.1499999999999995cm;""><p>What type of rock is this?</p>",6,class_response,1,test,28,Peridotite,Peridotite,5,TRUE,7,7,,,,,,,,,,,,,,,,,,
,,,,,,,,,,,html-keyboard-response,195,2.0.0,798155,6556e5fa9feed5dca96b6dcd,4,6,null,,,,,,,,,<p style='font-size: 30px;'><strong>Okay</strong></p>,null,neutral_feedback,1,test,28,,,,,,,,,,,,,,,,,,,,,,,,
,,,,,,,,,,,html-button-response,196,2.0.0,799903,6556e5fa9feed5dca96b6dcd,4,6,1745,,,,,,,,,"<img src= ""rock_img/I_Diorite_06.jpg"" style=""width:8cm; height:6.03cm;""><p>What type of rock is this?</p>",2,class_response,1,test,29,Diorite,Diorite,6,TRUE,3,3,,,,,,,,,,,,,,,,,,
,,,,,,,,,,,html-keyboard-response,197,2.0.0,800406,6556e5fa9feed5dca96b6dcd,4,6,null,,,,,,,,,<p style='font-size: 30px;'><strong>Okay</strong></p>,null,neutral_feedback,1,test,29,,,,,,,,,,,,,,,,,,,,,,,,
,,,,,,,,,,,html-button-response,198,2.0.0,802668,6556e5fa9feed5dca96b6dcd,4,6,2260,,,,,,,,,"<img src= ""rock_img/I_Pumice_16.jpg"" style=""width:8cm; height:6.79cm;""><p>What type of rock is this?</p>",7,class_response,1,test,30,Pumice,Pumice,16,TRUE,8,8,,,,,,,,,,,,,,,,,,
,,,,,,,,,,,html-keyboard-response,199,2.0.0,803173,6556e5fa9feed5dca96b6dcd,4,6,null,,,,,,,,,<p style='font-size: 30px;'><strong>Okay</strong></p>,null,neutral_feedback,1,test,30,,,,,,,,,,,,,,,,,,,,,,,,
,,,,,,,,,,,html-button-response,200,2.0.0,805038,6556e5fa9feed5dca96b6dcd,4,6,1862,,,,,,,,,"<img src= ""rock_img/I_Diorite_16.jpg"" style=""width:8cm; height:6.74cm;""><p>What type of rock is this?</p>",5,class_response,1,test,31,Pegmatite,Diorite,16,FALSE,6,3,,,,,,,,,,,,,,,,,,
,,,,,,,,,,,html-keyboard-response,201,2.0.0,805540,6556e5fa9feed5dca96b6dcd,4,6,null,,,,,,,,,<p style='font-size: 30px;'><strong>Okay</strong></p>,null,neutral_feedback,1,test,31,,,,,,,,,,,,,,,,,,,,,,,,
,,,,,,,,,,,html-button-response,202,2.0.0,806904,6556e5fa9feed5dca96b6dcd,4,6,1362,,,,,,,,,"<img src= ""rock_img/I_Peridotite_06.jpg"" style=""width:8cm; height:7.53cm;""><p>What type of rock is this?</p>",6,class_response,1,test,32,Peridotite,Peridotite,6,TRUE,7,7,,,,,,,,,,,,,,,,,,
,,,,,,,,,,,html-keyboard-response,203,2.0.0,807407,6556e5fa9feed5dca96b6dcd,4,6,null,,,,,,,,,<p style='font-size: 30px;'><strong>Okay</strong></p>,null,neutral_feedback,1,test,32,,,,,,,,,,,,,,,,,,,,,,,,
,,,,,,,,,,,html-button-response,204,2.0.0,809553,6556e5fa9feed5dca96b6dcd,4,6,2143,,,,,,,,,"<img src= ""rock_img/I_Pegmatite_06.jpg"" style=""width:8cm; height:5.17cm;""><p>What type of rock is this?</p>",3,class_response,1,test,33,Gabbro,Pegmatite,6,FALSE,4,6,,,,,,,,,,,,,,,,,,
,,,,,,,,,,,html-keyboard-response,205,2.0.0,810056,6556e5fa9feed5dca96b6dcd,4,6,null,,,,,,,,,<p style='font-size: 30px;'><strong>Okay</strong></p>,null,neutral_feedback,1,test,33,,,,,,,,,,,,,,,,,,,,,,,,
,,,,,,,,,,,html-button-response,206,2.0.0,812101,6556e5fa9feed5dca96b6dcd,4,6,2042,,,,,,,,,"<img src= ""rock_img/I_Diorite_02.jpg"" style=""width:8cm; height:6.27cm;""><p>What type of rock is this?</p>",5,class_response,1,test,34,Pegmatite,Diorite,2,FALSE,6,3,,,,,,,,,,,,,,,,,,
,,,,,,,,,,,html-keyboard-response,207,2.0.0,812603,6556e5fa9feed5dca96b6dcd,4,6,null,,,,,,,,,<p style='font-size: 30px;'><strong>Okay</strong></p>,null,neutral_feedback,1,test,34,,,,,,,,,,,,,,,,,,,,,,,,
,,,,,,,,,,,html-button-response,208,2.0.0,815124,6556e5fa9feed5dca96b6dcd,4,6,2519,,,,,,,,,"<img src= ""rock_img/I_Gabbro_10.jpg"" style=""width:8cm; height:5.680000000000001cm;""><p>What type of rock is this?</p>",5,class_response,1,test,35,Pegmatite,Gabbro,10,FALSE,6,4,,,,,,,,,,,,,,,,,,
,,,,,,,,,,,html-keyboard-response,209,2.0.0,815626,6556e5fa9feed5dca96b6dcd,4,6,null,,,,,,,,,<p style='font-size: 30px;'><strong>Okay</strong></p>,null,neutral_feedback,1,test,35,,,,,,,,,,,,,,,,,,,,,,,,
,,,,,,,,,,,html-button-response,210,2.0.0,817493,6556e5fa9feed5dca96b6dcd,4,6,1865,,,,,,,,,"<img src= ""rock_img/I_Gabbro_08.jpg"" style=""width:8cm; height:5.15cm;""><p>What type of rock is this?</p>",5,class_response,1,test,36,Pegmatite,Gabbro,8,FALSE,6,4,,,,,,,,,,,,,,,,,,
,,,,,,,,,,,html-keyboard-response,211,2.0.0,817997,6556e5fa9feed5dca96b6dcd,4,6,null,,,,,,,,,<p style='font-size: 30px;'><strong>Okay</strong></p>,null,neutral_feedback,1,test,36,,,,,,,,,,,,,,,,,,,,,,,,
,,,,,,,,,,,html-button-response,212,2.0.0,821216,6556e5fa9feed5dca96b6dcd,4,6,3216,,,,,,,,,"<img src= ""rock_img/I_Pegmatite_16.jpg"" style=""width:8cm; height:5.8cm;""><p>What type of rock is this?</p>",4,class_response,1,test,37,Obsidian,Pegmatite,16,FALSE,5,6,,,,,,,,,,,,,,,,,,
,,,,,,,,,,,html-keyboard-response,213,2.0.0,821721,6556e5fa9feed5dca96b6dcd,4,6,null,,,,,,,,,<p style='font-size: 30px;'><strong>Okay</strong></p>,null,neutral_feedback,1,test,37,,,,,,,,,,,,,,,,,,,,,,,,
,,,,,,,,,,,html-button-response,214,2.0.0,824026,6556e5fa9feed5dca96b6dcd,4,6,2302,,,,,,,,,"<img src= ""rock_img/I_Gabbro_13.jpg"" style=""width:8cm; height:5.08cm;""><p>What type of rock is this?</p>",6,class_response,1,test,38,Peridotite,Gabbro,13,FALSE,7,4,,,,,,,,,,,,,,,,,,
,,,,,,,,,,,html-keyboard-response,215,2.0.0,824529,6556e5fa9feed5dca96b6dcd,4,6,null,,,,,,,,,<p style='font-size: 30px;'><strong>Okay</strong></p>,null,neutral_feedback,1,test,38,,,,,,,,,,,,,,,,,,,,,,,,
,,,,,,,,,,,html-button-response,216,2.0.0,825925,6556e5fa9feed5dca96b6dcd,4,6,1393,,,,,,,,,"<img src= ""rock_img/I_Basalt_16.jpg"" style=""width:8cm; height:7.659999999999999cm;""><p>What type of rock is this?</p>",5,class_response,1,test,39,Pegmatite,Basalt,16,FALSE,6,2,,,,,,,,,,,,,,,,,,
,,,,,,,,,,,html-keyboard-response,217,2.0.0,826427,6556e5fa9feed5dca96b6dcd,4,6,null,,,,,,,,,<p style='font-size: 30px;'><strong>Okay</strong></p>,null,neutral_feedback,1,test,39,,,,,,,,,,,,,,,,,,,,,,,,
,,,,,,,,,,,html-button-response,218,2.0.0,827870,6556e5fa9feed5dca96b6dcd,4,6,1441,,,,,,,,,"<img src= ""rock_img/I_Peridotite_12.jpg"" style=""width:8cm; height:4.54cm;""><p>What type of rock is this?</p>",2,class_response,1,test,40,Diorite,Peridotite,12,FALSE,3,7,,,,,,,,,,,,,,,,,,
,,,,,,,,,,,html-keyboard-response,219,2.0.0,828373,6556e5fa9feed5dca96b6dcd,4,6,null,,,,,,,,,<p style='font-size: 30px;'><strong>Okay</strong></p>,null,neutral_feedback,1,test,40,,,,,,,,,,,,,,,,,,,,,,,,
,,,,,,,,,,,html-button-response,220,2.0.0,830670,6556e5fa9feed5dca96b6dcd,4,6,2294,,,,,,,,,"<img src= ""rock_img/I_Andesite_06.jpg"" style=""width:8cm; height:6.840000000000001cm;""><p>What type of rock is this?</p>",2,class_response,1,test,41,Diorite,Andesite,6,FALSE,3,1,,,,,,,,,,,,,,,,,,
,,,,,,,,,,,html-keyboard-response,221,2.0.0,831173,6556e5fa9feed5dca96b6dcd,4,6,null,,,,,,,,,<p style='font-size: 30px;'><strong>Okay</strong></p>,null,neutral_feedback,1,test,41,,,,,,,,,,,,,,,,,,,,,,,,
,,,,,,,,,,,html-button-response,222,2.0.0,832507,6556e5fa9feed5dca96b6dcd,4,6,1332,,,,,,,,,"<img src= ""rock_img/I_Pumice_08.jpg"" style=""width:8cm; height:6.67cm;""><p>What type of rock is this?</p>",7,class_response,1,test,42,Pumice,Pumice,8,TRUE,8,8,,,,,,,,,,,,,,,,,,
,,,,,,,,,,,html-keyboard-response,223,2.0.0,833010,6556e5fa9feed5dca96b6dcd,4,6,null,,,,,,,,,<p style='font-size: 30px;'><strong>Okay</strong></p>,null,neutral_feedback,1,test,42,,,,,,,,,,,,,,,,,,,,,,,,
,,,,,,,,,,,html-button-response,224,2.0.0,835723,6556e5fa9feed5dca96b6dcd,4,6,2710,,,,,,,,,"<img src= ""rock_img/I_Pumice_03.jpg"" style=""width:8cm; height:6.64cm;""><p>What type of rock is this?</p>",7,class_response,1,test,43,Pumice,Pumice,3,TRUE,8,8,,,,,,,,,,,,,,,,,,
,,,,,,,,,,,html-keyboard-response,225,2.0.0,836227,6556e5fa9feed5dca96b6dcd,4,6,null,,,,,,,,,<p style='font-size: 30px;'><strong>Okay</strong></p>,null,neutral_feedback,1,test,43,,,,,,,,,,,,,,,,,,,,,,,,
,,,,,,,,,,,html-button-response,226,2.0.0,837774,6556e5fa9feed5dca96b6dcd,4,6,1545,,,,,,,,,"<img src= ""rock_img/I_Pegmatite_07.jpg"" style=""width:8cm; height:6.7cm;""><p>What type of rock is this?</p>",4,class_response,1,test,44,Obsidian,Pegmatite,7,FALSE,5,6,,,,,,,,,,,,,,,,,,
,,,,,,,,,,,html-keyboard-response,227,2.0.0,838279,6556e5fa9feed5dca96b6dcd,4,6,null,,,,,,,,,<p style='font-size: 30px;'><strong>Okay</strong></p>,null,neutral_feedback,1,test,44,,,,,,,,,,,,,,,,,,,,,,,,
,,,,,,,,,,,html-button-response,228,2.0.0,839647,6556e5fa9feed5dca96b6dcd,4,6,1365,,,,,,,,,"<img src= ""rock_img/I_Andesite_03.jpg"" style=""width:8cm; height:5.73cm;""><p>What type of rock is this?</p>",1,class_response,1,test,45,Basalt,Andesite,3,FALSE,2,1,,,,,,,,,,,,,,,,,,
,,,,,,,,,,,html-keyboard-response,229,2.0.0,840152,6556e5fa9feed5dca96b6dcd,4,6,null,,,,,,,,,<p style='font-size: 30px;'><strong>Okay</strong></p>,null,neutral_feedback,1,test,45,,,,,,,,,,,,,,,,,,,,,,,,
,,,,,,,,,,,html-button-response,230,2.0.0,842597,6556e5fa9feed5dca96b6dcd,4,6,2442,,,,,,,,,"<img src= ""rock_img/I_Diorite_10.jpg"" style=""width:8cm; height:5.949999999999999cm;""><p>What type of rock is this?</p>",3,class_response,1,test,46,Gabbro,Diorite,10,FALSE,4,3,,,,,,,,,,,,,,,,,,
,,,,,,,,,,,html-keyboard-response,231,2.0.0,843100,6556e5fa9feed5dca96b6dcd,4,6,null,,,,,,,,,<p style='font-size: 30px;'><strong>Okay</strong></p>,null,neutral_feedback,1,test,46,,,,,,,,,,,,,,,,,,,,,,,,
,,,,,,,,,,,html-button-response,232,2.0.0,844905,6556e5fa9feed5dca96b6dcd,4,6,1803,,,,,,,,,"<img src= ""rock_img/I_Basalt_05.jpg"" style=""width:8cm; height:8.18cm;""><p>What type of rock is this?</p>",1,class_response,1,test,47,Basalt,Basalt,5,TRUE,2,2,,,,,,,,,,,,,,,,,,
,,,,,,,,,,,html-keyboard-response,233,2.0.0,845408,6556e5fa9feed5dca96b6dcd,4,6,null,,,,,,,,,<p style='font-size: 30px;'><strong>Okay</strong></p>,null,neutral_feedback,1,test,47,,,,,,,,,,,,,,,,,,,,,,,,
,,,,,,,,,,,html-button-response,234,2.0.0,846898,6556e5fa9feed5dca96b6dcd,4,6,1488,,,,,,,,,"<img src= ""rock_img/I_Obsidian_14.jpg"" style=""width:8cm; height:7.64cm;""><p>What type of rock is this?</p>",4,class_response,1,test,48,Obsidian,Obsidian,14,TRUE,5,5,,,,,,,,,,,,,,,,,,
,,,,,,,,,,,html-keyboard-response,235,2.0.0,847400,6556e5fa9feed5dca96b6dcd,4,6,null,,,,,,,,,<p style='font-size: 30px;'><strong>Okay</strong></p>,null,neutral_feedback,1,test,48,,,,,,,,,,,,,,,,,,,,,,,,
,,,,,,,,,,,html-button-response,236,2.0.0,875776,6556e5fa9feed5dca96b6dcd,4,6,,,,,,,,,,,,cycle_feedback,,,,,,,,,,,,,,,,,,,,,,10394.1,17971.4,,,,
,,,,,,,,,,,html-button-response,238,2.0.0,876781,6556e5fa9feed5dca96b6dcd,4,6,1003,,,,,,,,,,0,start_train,,,,,,,,,,,,,,,,,,,,,,,,,,,
,,,,,,,,,,,html-button-response,240,2.0.0,880486,6556e5fa9feed5dca96b6dcd,4,6,3702,,,,,,,,,"<img src= ""rock_img/I_Andesite_16.jpg"" style=""width:8cm; height:6.010000000000001cm;""><p>What type of rock is this?</p>",1,class_response,2,train,1,Basalt,Andesite,16,FALSE,2,1,,,,,,,,,,,,,,,,,,
,,,,,,,,,,,html-button-response,241,2.0.0,882121,6556e5fa9feed5dca96b6dcd,4,6,1633,,,,,,,,,"<img src= rock_img/I_Andesite_16.jpg style=""width:8cm; height:6.010000000000001cm;""><p style='font-size: 30px; color: red;'><strong>Incorrect!</strong></p><p style='font-size: 30px;'><strong>This rock is andesite</strong></p>",0,corr_feedback,2,train,1,,,,,,,,,,,,,,,,,,,,,,,,
,,,,,,,,,,,html-button-response,242,2.0.0,884040,6556e5fa9feed5dca96b6dcd,4,6,1917,,,,,,,,,"<img src= ""rock_img/I_Basalt_11.jpg"" style=""width:8cm; height:5.359999999999999cm;""><p>What type of rock is this?</p>",7,class_response,2,train,2,Pumice,Basalt,11,FALSE,8,2,,,,,,,,,,,,,,,,,,
,,,,,,,,,,,html-button-response,243,2.0.0,885315,6556e5fa9feed5dca96b6dcd,4,6,1273,,,,,,,,,"<img src= rock_img/I_Basalt_11.jpg style=""width:8cm; height:5.359999999999999cm;""><p style='font-size: 30px; color: red;'><strong>Incorrect!</strong></p><p style='font-size: 30px;'><strong>This rock is basalt</strong></p>",0,corr_feedback,2,train,2,,,,,,,,,,,,,,,,,,,,,,,,
,,,,,,,,,,,html-button-response,244,2.0.0,887191,6556e5fa9feed5dca96b6dcd,4,6,1874,,,,,,,,,"<img src= ""rock_img/I_Diorite_08.jpg"" style=""width:8cm; height:6.37cm;""><p>What type of rock is this?</p>",5,class_response,2,train,3,Pegmatite,Diorite,8,FALSE,6,3,,,,,,,,,,,,,,,,,,
,,,,,,,,,,,html-button-response,245,2.0.0,888979,6556e5fa9feed5dca96b6dcd,4,6,1787,,,,,,,,,"<img src= rock_img/I_Diorite_08.jpg style=""width:8cm; height:6.37cm;""><p style='font-size: 30px; color: red;'><strong>Incorrect!</strong></p><p style='font-size: 30px;'><strong>This rock is diorite</strong></p>",0,corr_feedback,2,train,3,,,,,,,,,,,,,,,,,,,,,,,,
,,,,,,,,,,,html-button-response,246,2.0.0,890452,6556e5fa9feed5dca96b6dcd,4,6,1471,,,,,,,,,"<img src= ""rock_img/I_Peridotite_08.jpg"" style=""width:8cm; height:6.7cm;""><p>What type of rock is this?</p>",6,class_response,2,train,4,Peridotite,Peridotite,8,TRUE,7,7,,,,,,,,,,,,,,,,,,
,,,,,,,,,,,html-button-response,247,2.0.0,891114,6556e5fa9feed5dca96b6dcd,4,6,660,,,,,,,,,"<img src= rock_img/I_Peridotite_08.jpg style=""width:8cm; height:6.7cm;""><p style='font-size: 30px; color: green;'><strong>Correct!</strong></p><p style='font-size: 30px;'><strong>This rock is peridotite</strong></p>",0,corr_feedback,2,train,4,,,,,,,,,,,,,,,,,,,,,,,,
,,,,,,,,,,,html-button-response,248,2.0.0,893959,6556e5fa9feed5dca96b6dcd,4,6,2843,,,,,,,,,"<img src= ""rock_img/I_Andesite_10.jpg"" style=""width:8cm; height:4.16cm;""><p>What type of rock is this?</p>",1,class_response,2,train,5,Basalt,Andesite,10,FALSE,2,1,,,,,,,,,,,,,,,,,,
,,,,,,,,,,,html-button-response,249,2.0.0,895084,6556e5fa9feed5dca96b6dcd,4,6,1123,,,,,,,,,"<img src= rock_img/I_Andesite_10.jpg style=""width:8cm; height:4.16cm;""><p style='font-size: 30px; color: red;'><strong>Incorrect!</strong></p><p style='font-size: 30px;'><strong>This rock is andesite</strong></p>",0,corr_feedback,2,train,5,,,,,,,,,,,,,,,,,,,,,,,,
,,,,,,,,,,,html-button-response,250,2.0.0,896912,6556e5fa9feed5dca96b6dcd,4,6,1826,,,,,,,,,"<img src= ""rock_img/I_Obsidian_10.jpg"" style=""width:8cm; height:6.260000000000001cm;""><p>What type of rock is this?</p>",4,class_response,2,train,6,Obsidian,Obsidian,10,TRUE,5,5,,,,,,,,,,,,,,,,,,
,,,,,,,,,,,html-button-response,251,2.0.0,897737,6556e5fa9feed5dca96b6dcd,4,6,823,,,,,,,,,"<img src= rock_img/I_Obsidian_10.jpg style=""width:8cm; height:6.260000000000001cm;""><p style='font-size: 30px; color: green;'><strong>Correct!</strong></p><p style='font-size: 30px;'><strong>This rock is obsidian</strong></p>",0,corr_feedback,2,train,6,,,,,,,,,,,,,,,,,,,,,,,,
,,,,,,,,,,,html-button-response,252,2.0.0,899023,6556e5fa9feed5dca96b6dcd,4,6,1284,,,,,,,,,"<img src= ""rock_img/I_Pumice_14.jpg"" style=""width:8cm; height:6.39cm;""><p>What type of rock is this?</p>",7,class_response,2,train,7,Pumice,Pumice,14,TRUE,8,8,,,,,,,,,,,,,,,,,,
,,,,,,,,,,,html-button-response,253,2.0.0,899699,6556e5fa9feed5dca96b6dcd,4,6,675,,,,,,,,,"<img src= rock_img/I_Pumice_14.jpg style=""width:8cm; height:6.39cm;""><p style='font-size: 30px; color: green;'><strong>Correct!</strong></p><p style='font-size: 30px;'><strong>This rock is pumice</strong></p>",0,corr_feedback,2,train,7,,,,,,,,,,,,,,,,,,,,,,,,
,,,,,,,,,,,html-button-response,254,2.0.0,900848,6556e5fa9feed5dca96b6dcd,4,6,1147,,,,,,,,,"<img src= ""rock_img/I_Pumice_02.jpg"" style=""width:8cm; height:7.3999999999999995cm;""><p>What type of rock is this?</p>",7,class_response,2,train,8,Pumice,Pumice,2,TRUE,8,8,,,,,,,,,,,,,,,,,,
,,,,,,,,,,,html-button-response,255,2.0.0,901475,6556e5fa9feed5dca96b6dcd,4,6,625,,,,,,,,,"<img src= rock_img/I_Pumice_02.jpg style=""width:8cm; height:7.3999999999999995cm;""><p style='font-size: 30px; color: green;'><strong>Correct!</strong></p><p style='font-size: 30px;'><strong>This rock is pumice</strong></p>",0,corr_feedback,2,train,8,,,,,,,,,,,,,,,,,,,,,,,,
,,,,,,,,,,,html-button-response,256,2.0.0,903436,6556e5fa9feed5dca96b6dcd,4,6,1959,,,,,,,,,"<img src= ""rock_img/I_Peridotite_10.jpg"" style=""width:8cm; height:5.390000000000001cm;""><p>What type of rock is this?</p>",6,class_response,2,train,9,Peridotite,Peridotite,10,TRUE,7,7,,,,,,,,,,,,,,,,,,
,,,,,,,,,,,html-button-response,257,2.0.0,904415,6556e5fa9feed5dca96b6dcd,4,6,976,,,,,,,,,"<img src= rock_img/I_Peridotite_10.jpg style=""width:8cm; height:5.390000000000001cm;""><p style='font-size: 30px; color: green;'><strong>Correct!</strong></p><p style='font-size: 30px;'><strong>This rock is peridotite</strong></p>",0,corr_feedback,2,train,9,,,,,,,,,,,,,,,,,,,,,,,,
,,,,,,,,,,,html-button-response,258,2.0.0,906385,6556e5fa9feed5dca96b6dcd,4,6,1967,,,,,,,,,"<img src= ""rock_img/I_Gabbro_09.jpg"" style=""width:8cm; height:7.279999999999999cm;""><p>What type of rock is this?</p>",1,class_response,2,train,10,Basalt,Gabbro,9,FALSE,2,4,,,,,,,,,,,,,,,,,,
,,,,,,,,,,,html-button-response,259,2.0.0,907152,6556e5fa9feed5dca96b6dcd,4,6,765,,,,,,,,,"<img src= rock_img/I_Gabbro_09.jpg style=""width:8cm; height:7.279999999999999cm;""><p style='font-size: 30px; color: red;'><strong>Incorrect!</strong></p><p style='font-size: 30px;'><strong>This rock is gabbro</strong></p>",0,corr_feedback,2,train,10,,,,,,,,,,,,,,,,,,,,,,,,
,,,,,,,,,,,html-button-response,260,2.0.0,908881,6556e5fa9feed5dca96b6dcd,4,6,1726,,,,,,,,,"<img src= ""rock_img/I_Pegmatite_05.jpg"" style=""width:8cm; height:7.300000000000001cm;""><p>What type of rock is this?</p>",4,class_response,2,train,11,Obsidian,Pegmatite,5,FALSE,5,6,,,,,,,,,,,,,,,,,,
,,,,,,,,,,,html-button-response,261,2.0.0,909856,6556e5fa9feed5dca96b6dcd,4,6,973,,,,,,,,,"<img src= rock_img/I_Pegmatite_05.jpg style=""width:8cm; height:7.300000000000001cm;""><p style='font-size: 30px; color: red;'><strong>Incorrect!</strong></p><p style='font-size: 30px;'><strong>This rock is pegmatite</strong></p>",0,corr_feedback,2,train,11,,,,,,,,,,,,,,,,,,,,,,,,
,,,,,,,,,,,html-button-response,262,2.0.0,911032,6556e5fa9feed5dca96b6dcd,4,6,1174,,,,,,,,,"<img src= ""rock_img/I_Diorite_14.jpg"" style=""width:8cm; height:5.71cm;""><p>What type of rock is this?</p>",2,class_response,2,train,12,Diorite,Diorite,14,TRUE,3,3,,,,,,,,,,,,,,,,,,
,,,,,,,,,,,html-button-response,263,2.0.0,911988,6556e5fa9feed5dca96b6dcd,4,6,954,,,,,,,,,"<img src= rock_img/I_Diorite_14.jpg style=""width:8cm; height:5.71cm;""><p style='font-size: 30px; color: green;'><strong>Correct!</strong></p><p style='font-size: 30px;'><strong>This rock is diorite</strong></p>",0,corr_feedback,2,train,12,,,,,,,,,,,,,,,,,,,,,,,,
,,,,,,,,,,,html-button-response,265,2.0.0,913149,6556e5fa9feed5dca96b6dcd,4,6,1160,,,,,,,,,,0,start_train,,,,,,,,,,,,,,,,,,,,,,,,,,,
,,,,,,,,,,,html-button-response,266,2.0.0,915883,6556e5fa9feed5dca96b6dcd,4,6,,,,,,,,,,,,cat_selection,2,train,1,,,,,,,1746.5,985.7,6,1,Pegmatite,Andesite,,,,,,,,,,,,
,,,,,,,,,,,paired-cat-display,267,1.0.0,988289,6556e5fa9feed5dca96b6dcd,4,6,,,,,,,,,,,,paired_cat_display,2,train,1,,,,,,,,,,,,,,,6485.4,65918.3,,,,,"Multi-colored, random patches of color, ridges","Gray with speckled, Flat, greyscale",,
,,,,,,,,,,,html-button-response,268,2.0.0,992790,6556e5fa9feed5dca96b6dcd,4,6,,,,,,,,,,,,cat_selection,2,train,2,,,,,,,3749.6,749.9,1,4,Andesite,Gabbro,,,,,,,,,,,,
,,,,,,,,,,,paired-cat-display,269,1.0.0,1068127,6556e5fa9feed5dca96b6dcd,4,6,,,,,,,,,,,,paired_cat_display,2,train,2,,,,,,,,,,,,,,,37098.2,38236.3,,,,,,"Light speckles, smoother in texture, more speckles than Gabbro","Textured, darker colors, some speckles, bland",
,,,,,,,,,,,html-button-response,270,2.0.0,1073867,6556e5fa9feed5dca96b6dcd,4,6,,,,,,,,,,,,cat_selection,2,train,3,,,,,,,5106.2,632.5,6,2,Pegmatite,Basalt,,,,,,,,,,,,
,,,,,,,,,,,paired-cat-display,271,1.0.0,1107944,6556e5fa9feed5dca96b6dcd,4,6,,,,,,,,,,,,paired_cat_display,2,train,3,,,,,,,,,,,,,,"Bland, monocolor, some ridges",5984.4,28089.1,,,,,"Colorful, Patches/lines of color, ridges",,,
,,,,,,,,,,,html-button-response,273,2.0.0,1109841,6556e5fa9feed5dca96b6dcd,4,6,1895,,,,,,,,,,0,start_test,,,,,,,,,,,,,,,,,,,,,,,,,,,
,,,,,,,,,,,html-button-response,274,2.0.0,1111109,6556e5fa9feed5dca96b6dcd,4,6,1265,,,,,,,,,"<img src= ""rock_img/I_Obsidian_16.jpg"" style=""width:8cm; height:9.3cm;""><p>What type of rock is this?</p>",4,class_response,2,test,1,Obsidian,Obsidian,16,TRUE,5,5,,,,,,,,,,,,,,,,,,
,,,,,,,,,,,html-keyboard-response,275,2.0.0,1111613,6556e5fa9feed5dca96b6dcd,4,6,null,,,,,,,,,<p style='font-size: 30px;'><strong>Okay</strong></p>,null,neutral_feedback,2,test,1,,,,,,,,,,,,,,,,,,,,,,,,
,,,,,,,,,,,html-button-response,276,2.0.0,1112791,6556e5fa9feed5dca96b6dcd,4,6,1176,,,,,,,,,"<img src= ""rock_img/I_Pumice_13.jpg"" style=""width:8cm; height:8.200000000000001cm;""><p>What type of rock is this?</p>",7,class_response,2,test,2,Pumice,Pumice,13,TRUE,8,8,,,,,,,,,,,,,,,,,,
,,,,,,,,,,,html-keyboard-response,277,2.0.0,1113295,6556e5fa9feed5dca96b6dcd,4,6,null,,,,,,,,,<p style='font-size: 30px;'><strong>Okay</strong></p>,null,neutral_feedback,2,test,2,,,,,,,,,,,,,,,,,,,,,,,,
,,,,,,,,,,,html-button-response,278,2.0.0,1116755,6556e5fa9feed5dca96b6dcd,4,6,3458,,,,,,,,,"<img src= ""rock_img/I_Gabbro_11.jpg"" style=""width:8cm; height:6.2cm;""><p>What type of rock is this?</p>",1,class_response,2,test,3,Basalt,Gabbro,11,FALSE,2,4,,,,,,,,,,,,,,,,,,
,,,,,,,,,,,html-keyboard-response,279,2.0.0,1117259,6556e5fa9feed5dca96b6dcd,4,6,null,,,,,,,,,<p style='font-size: 30px;'><strong>Okay</strong></p>,null,neutral_feedback,2,test,3,,,,,,,,,,,,,,,,,,,,,,,,
,,,,,,,,,,,html-button-response,280,2.0.0,1118590,6556e5fa9feed5dca96b6dcd,4,6,1329,,,,,,,,,"<img src= ""rock_img/I_Pumice_03.jpg"" style=""width:8cm; height:6.64cm;""><p>What type of rock is this?</p>",7,class_response,2,test,4,Pumice,Pumice,3,TRUE,8,8,,,,,,,,,,,,,,,,,,
,,,,,,,,,,,html-keyboard-response,281,2.0.0,1119093,6556e5fa9feed5dca96b6dcd,4,6,null,,,,,,,,,<p style='font-size: 30px;'><strong>Okay</strong></p>,null,neutral_feedback,2,test,4,,,,,,,,,,,,,,,,,,,,,,,,
,,,,,,,,,,,html-button-response,282,2.0.0,1121206,6556e5fa9feed5dca96b6dcd,4,6,2110,,,,,,,,,"<img src= ""rock_img/I_Basalt_10.jpg"" style=""width:8cm; height:5.85cm;""><p>What type of rock is this?</p>",1,class_response,2,test,5,Basalt,Basalt,10,TRUE,2,2,,,,,,,,,,,,,,,,,,
,,,,,,,,,,,html-keyboard-response,283,2.0.0,1121712,6556e5fa9feed5dca96b6dcd,4,6,null,,,,,,,,,<p style='font-size: 30px;'><strong>Okay</strong></p>,null,neutral_feedback,2,test,5,,,,,,,,,,,,,,,,,,,,,,,,
,,,,,,,,,,,html-button-response,284,2.0.0,1124353,6556e5fa9feed5dca96b6dcd,4,6,2639,,,,,,,,,"<img src= ""rock_img/I_Pegmatite_07.jpg"" style=""width:8cm; height:6.7cm;""><p>What type of rock is this?</p>",5,class_response,2,test,6,Pegmatite,Pegmatite,7,TRUE,6,6,,,,,,,,,,,,,,,,,,
,,,,,,,,,,,html-keyboard-response,285,2.0.0,1124856,6556e5fa9feed5dca96b6dcd,4,6,null,,,,,,,,,<p style='font-size: 30px;'><strong>Okay</strong></p>,null,neutral_feedback,2,test,6,,,,,,,,,,,,,,,,,,,,,,,,
,,,,,,,,,,,html-button-response,286,2.0.0,1126592,6556e5fa9feed5dca96b6dcd,4,6,1733,,,,,,,,,"<img src= ""rock_img/I_Peridotite_12.jpg"" style=""width:8cm; height:4.54cm;""><p>What type of rock is this?</p>",6,class_response,2,test,7,Peridotite,Peridotite,12,TRUE,7,7,,,,,,,,,,,,,,,,,,
,,,,,,,,,,,html-keyboard-response,287,2.0.0,1127095,6556e5fa9feed5dca96b6dcd,4,6,null,,,,,,,,,<p style='font-size: 30px;'><strong>Okay</strong></p>,null,neutral_feedback,2,test,7,,,,,,,,,,,,,,,,,,,,,,,,
,,,,,,,,,,,html-button-response,288,2.0.0,1128617,6556e5fa9feed5dca96b6dcd,4,6,1520,,,,,,,,,"<img src= ""rock_img/I_Basalt_12.jpg"" style=""width:8cm; height:6.010000000000001cm;""><p>What type of rock is this?</p>",7,class_response,2,test,8,Pumice,Basalt,12,FALSE,8,2,,,,,,,,,,,,,,,,,,
,,,,,,,,,,,html-keyboard-response,289,2.0.0,1129120,6556e5fa9feed5dca96b6dcd,4,6,null,,,,,,,,,<p style='font-size: 30px;'><strong>Okay</strong></p>,null,neutral_feedback,2,test,8,,,,,,,,,,,,,,,,,,,,,,,,
,,,,,,,,,,,html-button-response,290,2.0.0,1129884,6556e5fa9feed5dca96b6dcd,4,6,761,,,,,,,,,"<img src= ""rock_img/I_Pumice_09.jpg"" style=""width:8cm; height:6.44cm;""><p>What type of rock is this?</p>",7,class_response,2,test,9,Pumice,Pumice,9,TRUE,8,8,,,,,,,,,,,,,,,,,,
,,,,,,,,,,,html-keyboard-response,291,2.0.0,1130389,6556e5fa9feed5dca96b6dcd,4,6,null,,,,,,,,,<p style='font-size: 30px;'><strong>Okay</strong></p>,null,neutral_feedback,2,test,9,,,,,,,,,,,,,,,,,,,,,,,,
,,,,,,,,,,,html-button-response,292,2.0.0,1138133,6556e5fa9feed5dca96b6dcd,4,6,7742,,,,,,,,,"<img src= ""rock_img/I_Andesite_06.jpg"" style=""width:8cm; height:6.840000000000001cm;""><p>What type of rock is this?</p>",0,class_response,2,test,10,Andesite,Andesite,6,TRUE,1,1,,,,,,,,,,,,,,,,,,
,,,,,,,,,,,html-keyboard-response,293,2.0.0,1138636,6556e5fa9feed5dca96b6dcd,4,6,null,,,,,,,,,<p style='font-size: 30px;'><strong>Okay</strong></p>,null,neutral_feedback,2,test,10,,,,,,,,,,,,,,,,,,,,,,,,
,,,,,,,,,,,html-button-response,294,2.0.0,1139810,6556e5fa9feed5dca96b6dcd,4,6,1172,,,,,,,,,"<img src= ""rock_img/I_Pegmatite_08.jpg"" style=""width:8cm; height:7.68cm;""><p>What type of rock is this?</p>",4,class_response,2,test,11,Obsidian,Pegmatite,8,FALSE,5,6,,,,,,,,,,,,,,,,,,
,,,,,,,,,,,html-keyboard-response,295,2.0.0,1140313,6556e5fa9feed5dca96b6dcd,4,6,null,,,,,,,,,<p style='font-size: 30px;'><strong>Okay</strong></p>,null,neutral_feedback,2,test,11,,,,,,,,,,,,,,,,,,,,,,,,
,,,,,,,,,,,html-button-response,296,2.0.0,1142471,6556e5fa9feed5dca96b6dcd,4,6,2156,,,,,,,,,"<img src= ""rock_img/I_Pegmatite_16.jpg"" style=""width:8cm; height:5.8cm;""><p>What type of rock is this?</p>",4,class_response,2,test,12,Obsidian,Pegmatite,16,FALSE,5,6,,,,,,,,,,,,,,,,,,
,,,,,,,,,,,html-keyboard-response,297,2.0.0,1142974,6556e5fa9feed5dca96b6dcd,4,6,null,,,,,,,,,<p style='font-size: 30px;'><strong>Okay</strong></p>,null,neutral_feedback,2,test,12,,,,,,,,,,,,,,,,,,,,,,,,
,,,,,,,,,,,html-button-response,298,2.0.0,1144367,6556e5fa9feed5dca96b6dcd,4,6,1390,,,,,,,,,"<img src= ""rock_img/I_Andesite_03.jpg"" style=""width:8cm; height:5.73cm;""><p>What type of rock is this?</p>",0,class_response,2,test,13,Andesite,Andesite,3,TRUE,1,1,,,,,,,,,,,,,,,,,,
,,,,,,,,,,,html-keyboard-response,299,2.0.0,1144870,6556e5fa9feed5dca96b6dcd,4,6,null,,,,,,,,,<p style='font-size: 30px;'><strong>Okay</strong></p>,null,neutral_feedback,2,test,13,,,,,,,,,,,,,,,,,,,,,,,,
,,,,,,,,,,,html-button-response,300,2.0.0,1149000,6556e5fa9feed5dca96b6dcd,4,6,4128,,,,,,,,,"<img src= ""rock_img/I_Andesite_02.jpg"" style=""width:8cm; height:8.5cm;""><p>What type of rock is this?</p>",3,class_response,2,test,14,Gabbro,Andesite,2,FALSE,4,1,,,,,,,,,,,,,,,,,,
,,,,,,,,,,,html-keyboard-response,301,2.0.0,1149503,6556e5fa9feed5dca96b6dcd,4,6,null,,,,,,,,,<p style='font-size: 30px;'><strong>Okay</strong></p>,null,neutral_feedback,2,test,14,,,,,,,,,,,,,,,,,,,,,,,,
,,,,,,,,,,,html-button-response,302,2.0.0,1154044,6556e5fa9feed5dca96b6dcd,4,6,4539,,,,,,,,,"<img src= ""rock_img/I_Diorite_02.jpg"" style=""width:8cm; height:6.27cm;""><p>What type of rock is this?</p>",1,class_response,2,test,15,Basalt,Diorite,2,FALSE,2,3,,,,,,,,,,,,,,,,,,
,,,,,,,,,,,html-keyboard-response,303,2.0.0,1154547,6556e5fa9feed5dca96b6dcd,4,6,null,,,,,,,,,<p style='font-size: 30px;'><strong>Okay</strong></p>,null,neutral_feedback,2,test,15,,,,,,,,,,,,,,,,,,,,,,,,
,,,,,,,,,,,html-button-response,304,2.0.0,1157224,6556e5fa9feed5dca96b6dcd,4,6,2675,,,,,,,,,"<img src= ""rock_img/I_Andesite_09.jpg"" style=""width:8cm; height:6cm;""><p>What type of rock is this?</p>",1,class_response,2,test,16,Basalt,Andesite,9,FALSE,2,1,,,,,,,,,,,,,,,,,,
,,,,,,,,,,,html-keyboard-response,305,2.0.0,1157728,6556e5fa9feed5dca96b6dcd,4,6,null,,,,,,,,,<p style='font-size: 30px;'><strong>Okay</strong></p>,null,neutral_feedback,2,test,16,,,,,,,,,,,,,,,,,,,,,,,,
,,,,,,,,,,,html-button-response,306,2.0.0,1161543,6556e5fa9feed5dca96b6dcd,4,6,3813,,,,,,,,,"<img src= ""rock_img/I_Diorite_16.jpg"" style=""width:8cm; height:6.74cm;""><p>What type of rock is this?</p>",5,class_response,2,test,17,Pegmatite,Diorite,16,FALSE,6,3,,,,,,,,,,,,,,,,,,
,,,,,,,,,,,html-keyboard-response,307,2.0.0,1162048,6556e5fa9feed5dca96b6dcd,4,6,null,,,,,,,,,<p style='font-size: 30px;'><strong>Okay</strong></p>,null,neutral_feedback,2,test,17,,,,,,,,,,,,,,,,,,,,,,,,
,,,,,,,,,,,html-button-response,308,2.0.0,1163106,6556e5fa9feed5dca96b6dcd,4,6,1055,,,,,,,,,"<img src= ""rock_img/I_Diorite_07.jpg"" style=""width:8cm; height:5.239999999999999cm;""><p>What type of rock is this?</p>",5,class_response,2,test,18,Pegmatite,Diorite,7,FALSE,6,3,,,,,,,,,,,,,,,,,,
,,,,,,,,,,,html-keyboard-response,309,2.0.0,1163611,6556e5fa9feed5dca96b6dcd,4,6,null,,,,,,,,,<p style='font-size: 30px;'><strong>Okay</strong></p>,null,neutral_feedback,2,test,18,,,,,,,,,,,,,,,,,,,,,,,,
,,,,,,,,,,,html-button-response,310,2.0.0,1165951,6556e5fa9feed5dca96b6dcd,4,6,2338,,,,,,,,,"<img src= ""rock_img/I_Pegmatite_13.jpg"" style=""width:8cm; height:4.95cm;""><p>What type of rock is this?</p>",5,class_response,2,test,19,Pegmatite,Pegmatite,13,TRUE,6,6,,,,,,,,,,,,,,,,,,
,,,,,,,,,,,html-keyboard-response,311,2.0.0,1166454,6556e5fa9feed5dca96b6dcd,4,6,null,,,,,,,,,<p style='font-size: 30px;'><strong>Okay</strong></p>,null,neutral_feedback,2,test,19,,,,,,,,,,,,,,,,,,,,,,,,
,,,,,,,,,,,html-button-response,312,2.0.0,1168352,6556e5fa9feed5dca96b6dcd,4,6,1896,,,,,,,,,"<img src= ""rock_img/I_Peridotite_04.jpg"" style=""width:8cm; height:6.680000000000001cm;""><p>What type of rock is this?</p>",0,class_response,2,test,20,Andesite,Peridotite,4,FALSE,1,7,,,,,,,,,,,,,,,,,,
,,,,,,,,,,,html-keyboard-response,313,2.0.0,1168854,6556e5fa9feed5dca96b6dcd,4,6,null,,,,,,,,,<p style='font-size: 30px;'><strong>Okay</strong></p>,null,neutral_feedback,2,test,20,,,,,,,,,,,,,,,,,,,,,,,,
,,,,,,,,,,,html-button-response,314,2.0.0,1171063,6556e5fa9feed5dca96b6dcd,4,6,2208,,,,,,,,,"<img src= ""rock_img/I_Gabbro_15.jpg"" style=""width:8cm; height:6.29cm;""><p>What type of rock is this?</p>",0,class_response,2,test,21,Andesite,Gabbro,15,FALSE,1,4,,,,,,,,,,,,,,,,,,
,,,,,,,,,,,html-keyboard-response,315,2.0.0,1171566,6556e5fa9feed5dca96b6dcd,4,6,null,,,,,,,,,<p style='font-size: 30px;'><strong>Okay</strong></p>,null,neutral_feedback,2,test,21,,,,,,,,,,,,,,,,,,,,,,,,
,,,,,,,,,,,html-button-response,316,2.0.0,1173178,6556e5fa9feed5dca96b6dcd,4,6,1611,,,,,,,,,"<img src= ""rock_img/I_Pegmatite_06.jpg"" style=""width:8cm; height:5.17cm;""><p>What type of rock is this?</p>",0,class_response,2,test,22,Andesite,Pegmatite,6,FALSE,1,6,,,,,,,,,,,,,,,,,,
,,,,,,,,,,,html-keyboard-response,317,2.0.0,1173681,6556e5fa9feed5dca96b6dcd,4,6,null,,,,,,,,,<p style='font-size: 30px;'><strong>Okay</strong></p>,null,neutral_feedback,2,test,22,,,,,,,,,,,,,,,,,,,,,,,,
,,,,,,,,,,,html-button-response,318,2.0.0,1177146,6556e5fa9feed5dca96b6dcd,4,6,3462,,,,,,,,,"<img src= ""rock_img/I_Pegmatite_09.jpg"" style=""width:8cm; height:4.03cm;""><p>What type of rock is this?</p>",6,class_response,2,test,23,Peridotite,Pegmatite,9,FALSE,7,6,,,,,,,,,,,,,,,,,,
,,,,,,,,,,,html-keyboard-response,319,2.0.0,1177649,6556e5fa9feed5dca96b6dcd,4,6,null,,,,,,,,,<p style='font-size: 30px;'><strong>Okay</strong></p>,null,neutral_feedback,2,test,23,,,,,,,,,,,,,,,,,,,,,,,,
,,,,,,,,,,,html-button-response,320,2.0.0,1179526,6556e5fa9feed5dca96b6dcd,4,6,1874,,,,,,,,,"<img src= ""rock_img/I_Gabbro_13.jpg"" style=""width:8cm; height:5.08cm;""><p>What type of rock is this?</p>",1,class_response,2,test,24,Basalt,Gabbro,13,FALSE,2,4,,,,,,,,,,,,,,,,,,
,,,,,,,,,,,html-keyboard-response,321,2.0.0,1180030,6556e5fa9feed5dca96b6dcd,4,6,null,,,,,,,,,<p style='font-size: 30px;'><strong>Okay</strong></p>,null,neutral_feedback,2,test,24,,,,,,,,,,,,,,,,,,,,,,,,
,,,,,,,,,,,html-button-response,322,2.0.0,1192273,6556e5fa9feed5dca96b6dcd,4,6,12241,,,,,,,,,"<img src= ""rock_img/I_Andesite_05.jpg"" style=""width:8cm; height:4.12cm;""><p>What type of rock is this?</p>",1,class_response,2,test,25,Basalt,Andesite,5,FALSE,2,1,,,,,,,,,,,,,,,,,,
,,,,,,,,,,,html-keyboard-response,323,2.0.0,1192776,6556e5fa9feed5dca96b6dcd,4,6,null,,,,,,,,,<p style='font-size: 30px;'><strong>Okay</strong></p>,null,neutral_feedback,2,test,25,,,,,,,,,,,,,,,,,,,,,,,,
,,,,,,,,,,,html-button-response,324,2.0.0,1194419,6556e5fa9feed5dca96b6dcd,4,6,1640,,,,,,,,,"<img src= ""rock_img/I_Basalt_09.jpg"" style=""width:8cm; height:6.2cm;""><p>What type of rock is this?</p>",1,class_response,2,test,26,Basalt,Basalt,9,TRUE,2,2,,,,,,,,,,,,,,,,,,
,,,,,,,,,,,html-keyboard-response,325,2.0.0,1194922,6556e5fa9feed5dca96b6dcd,4,6,null,,,,,,,,,<p style='font-size: 30px;'><strong>Okay</strong></p>,null,neutral_feedback,2,test,26,,,,,,,,,,,,,,,,,,,,,,,,
,,,,,,,,,,,html-button-response,326,2.0.0,1197686,6556e5fa9feed5dca96b6dcd,4,6,2761,,,,,,,,,"<img src= ""rock_img/I_Peridotite_16.jpg"" style=""width:8cm; height:6.989999999999999cm;""><p>What type of rock is this?</p>",6,class_response,2,test,27,Peridotite,Peridotite,16,TRUE,7,7,,,,,,,,,,,,,,,,,,
,,,,,,,,,,,html-keyboard-response,327,2.0.0,1198189,6556e5fa9feed5dca96b6dcd,4,6,null,,,,,,,,,<p style='font-size: 30px;'><strong>Okay</strong></p>,null,neutral_feedback,2,test,27,,,,,,,,,,,,,,,,,,,,,,,,
,,,,,,,,,,,html-button-response,328,2.0.0,1200839,6556e5fa9feed5dca96b6dcd,4,6,2647,,,,,,,,,"<img src= ""rock_img/I_Andesite_14.jpg"" style=""width:8cm; height:5.449999999999999cm;""><p>What type of rock is this?</p>",2,class_response,2,test,28,Diorite,Andesite,14,FALSE,3,1,,,,,,,,,,,,,,,,,,
,,,,,,,,,,,html-keyboard-response,329,2.0.0,1201342,6556e5fa9feed5dca96b6dcd,4,6,null,,,,,,,,,<p style='font-size: 30px;'><strong>Okay</strong></p>,null,neutral_feedback,2,test,28,,,,,,,,,,,,,,,,,,,,,,,,
,,,,,,,,,,,html-button-response,330,2.0.0,1202573,6556e5fa9feed5dca96b6dcd,4,6,1228,,,,,,,,,"<img src= ""rock_img/I_Basalt_05.jpg"" style=""width:8cm; height:8.18cm;""><p>What type of rock is this?</p>",1,class_response,2,test,29,Basalt,Basalt,5,TRUE,2,2,,,,,,,,,,,,,,,,,,
,,,,,,,,,,,html-keyboard-response,331,2.0.0,1203077,6556e5fa9feed5dca96b6dcd,4,6,null,,,,,,,,,<p style='font-size: 30px;'><strong>Okay</strong></p>,null,neutral_feedback,2,test,29,,,,,,,,,,,,,,,,,,,,,,,,
,,,,,,,,,,,html-button-response,332,2.0.0,1205168,6556e5fa9feed5dca96b6dcd,4,6,2089,,,,,,,,,"<img src= ""rock_img/I_Peridotite_05.jpg"" style=""width:8cm; height:7.1499999999999995cm;""><p>What type of rock is this?</p>",0,class_response,2,test,30,Andesite,Peridotite,5,FALSE,1,7,,,,,,,,,,,,,,,,,,
,,,,,,,,,,,html-keyboard-response,333,2.0.0,1205671,6556e5fa9feed5dca96b6dcd,4,6,null,,,,,,,,,<p style='font-size: 30px;'><strong>Okay</strong></p>,null,neutral_feedback,2,test,30,,,,,,,,,,,,,,,,,,,,,,,,
,,,,,,,,,,,html-button-response,334,2.0.0,1208890,6556e5fa9feed5dca96b6dcd,4,6,3217,,,,,,,,,"<img src= ""rock_img/I_Gabbro_03.jpg"" style=""width:8cm; height:8.52cm;""><p>What type of rock is this?</p>",1,class_response,2,test,31,Basalt,Gabbro,3,FALSE,2,4,,,,,,,,,,,,,,,,,,
,,,,,,,,,,,html-keyboard-response,335,2.0.0,1209393,6556e5fa9feed5dca96b6dcd,4,6,null,,,,,,,,,<p style='font-size: 30px;'><strong>Okay</strong></p>,null,neutral_feedback,2,test,31,,,,,,,,,,,,,,,,,,,,,,,,
,,,,,,,,,,,html-button-response,336,2.0.0,1211207,6556e5fa9feed5dca96b6dcd,4,6,1812,,,,,,,,,"<img src= ""rock_img/I_Diorite_10.jpg"" style=""width:8cm; height:5.949999999999999cm;""><p>What type of rock is this?</p>",0,class_response,2,test,32,Andesite,Diorite,10,FALSE,1,3,,,,,,,,,,,,,,,,,,
,,,,,,,,,,,html-keyboard-response,337,2.0.0,1211712,6556e5fa9feed5dca96b6dcd,4,6,null,,,,,,,,,<p style='font-size: 30px;'><strong>Okay</strong></p>,null,neutral_feedback,2,test,32,,,,,,,,,,,,,,,,,,,,,,,,
,,,,,,,,,,,html-button-response,338,2.0.0,1212491,6556e5fa9feed5dca96b6dcd,4,6,775,,,,,,,,,"<img src= ""rock_img/I_Peridotite_07.jpg"" style=""width:8cm; height:4.83cm;""><p>What type of rock is this?</p>",0,class_response,2,test,33,Andesite,Peridotite,7,FALSE,1,7,,,,,,,,,,,,,,,,,,
,,,,,,,,,,,html-keyboard-response,339,2.0.0,1212993,6556e5fa9feed5dca96b6dcd,4,6,null,,,,,,,,,<p style='font-size: 30px;'><strong>Okay</strong></p>,null,neutral_feedback,2,test,33,,,,,,,,,,,,,,,,,,,,,,,,
,,,,,,,,,,,html-button-response,340,2.0.0,1214314,6556e5fa9feed5dca96b6dcd,4,6,1320,,,,,,,,,"<img src= ""rock_img/I_Pumice_08.jpg"" style=""width:8cm; height:6.67cm;""><p>What type of rock is this?</p>",7,class_response,2,test,34,Pumice,Pumice,8,TRUE,8,8,,,,,,,,,,,,,,,,,,
,,,,,,,,,,,html-keyboard-response,341,2.0.0,1214816,6556e5fa9feed5dca96b6dcd,4,6,null,,,,,,,,,<p style='font-size: 30px;'><strong>Okay</strong></p>,null,neutral_feedback,2,test,34,,,,,,,,,,,,,,,,,,,,,,,,
,,,,,,,,,,,html-button-response,342,2.0.0,1216022,6556e5fa9feed5dca96b6dcd,4,6,1204,,,,,,,,,"<img src= ""rock_img/I_Pumice_10.jpg"" style=""width:8cm; height:7.609999999999999cm;""><p>What type of rock is this?</p>",7,class_response,2,test,35,Pumice,Pumice,10,TRUE,8,8,,,,,,,,,,,,,,,,,,
,,,,,,,,,,,html-keyboard-response,343,2.0.0,1216524,6556e5fa9feed5dca96b6dcd,4,6,null,,,,,,,,,<p style='font-size: 30px;'><strong>Okay</strong></p>,null,neutral_feedback,2,test,35,,,,,,,,,,,,,,,,,,,,,,,,
,,,,,,,,,,,html-button-response,344,2.0.0,1217821,6556e5fa9feed5dca96b6dcd,4,6,1295,,,,,,,,,"<img src= ""rock_img/I_Obsidian_07.jpg"" style=""width:8cm; height:4.76cm;""><p>What type of rock is this?</p>",4,class_response,2,test,36,Obsidian,Obsidian,7,TRUE,5,5,,,,,,,,,,,,,,,,,,
,,,,,,,,,,,html-keyboard-response,345,2.0.0,1218324,6556e5fa9feed5dca96b6dcd,4,6,null,,,,,,,,,<p style='font-size: 30px;'><strong>Okay</strong></p>,null,neutral_feedback,2,test,36,,,,,,,,,,,,,,,,,,,,,,,,
,,,,,,,,,,,html-button-response,346,2.0.0,1219866,6556e5fa9feed5dca96b6dcd,4,6,1539,,,,,,,,,"<img src= ""rock_img/I_Basalt_02.jpg"" style=""width:8cm; height:6.45cm;""><p>What type of rock is this?</p>",1,class_response,2,test,37,Basalt,Basalt,2,TRUE,2,2,,,,,,,,,,,,,,,,,,
,,,,,,,,,,,html-keyboard-response,347,2.0.0,1220369,6556e5fa9feed5dca96b6dcd,4,6,null,,,,,,,,,<p style='font-size: 30px;'><strong>Okay</strong></p>,null,neutral_feedback,2,test,37,,,,,,,,,,,,,,,,,,,,,,,,
,,,,,,,,,,,html-button-response,348,2.0.0,1222884,6556e5fa9feed5dca96b6dcd,4,6,2512,,,,,,,,,"<img src= ""rock_img/I_Gabbro_08.jpg"" style=""width:8cm; height:5.15cm;""><p>What type of rock is this?</p>",2,class_response,2,test,38,Diorite,Gabbro,8,FALSE,3,4,,,,,,,,,,,,,,,,,,
,,,,,,,,,,,html-keyboard-response,349,2.0.0,1223385,6556e5fa9feed5dca96b6dcd,4,6,null,,,,,,,,,<p style='font-size: 30px;'><strong>Okay</strong></p>,null,neutral_feedback,2,test,38,,,,,,,,,,,,,,,,,,,,,,,,
,,,,,,,,,,,html-button-response,350,2.0.0,1225496,6556e5fa9feed5dca96b6dcd,4,6,2109,,,,,,,,,"<img src= ""rock_img/I_Pumice_16.jpg"" style=""width:8cm; height:6.79cm;""><p>What type of rock is this?</p>",3,class_response,2,test,39,Gabbro,Pumice,16,FALSE,4,8,,,,,,,,,,,,,,,,,,
,,,,,,,,,,,html-keyboard-response,351,2.0.0,1225998,6556e5fa9feed5dca96b6dcd,4,6,null,,,,,,,,,<p style='font-size: 30px;'><strong>Okay</strong></p>,null,neutral_feedback,2,test,39,,,,,,,,,,,,,,,,,,,,,,,,
,,,,,,,,,,,html-button-response,352,2.0.0,1227821,6556e5fa9feed5dca96b6dcd,4,6,1821,,,,,,,,,"<img src= ""rock_img/I_Diorite_06.jpg"" style=""width:8cm; height:6.03cm;""><p>What type of rock is this?</p>",1,class_response,2,test,40,Basalt,Diorite,6,FALSE,2,3,,,,,,,,,,,,,,,,,,
,,,,,,,,,,,html-keyboard-response,353,2.0.0,1228323,6556e5fa9feed5dca96b6dcd,4,6,null,,,,,,,,,<p style='font-size: 30px;'><strong>Okay</strong></p>,null,neutral_feedback,2,test,40,,,,,,,,,,,,,,,,,,,,,,,,
,,,,,,,,,,,html-button-response,354,2.0.0,1229556,6556e5fa9feed5dca96b6dcd,4,6,1232,,,,,,,,,"<img src= ""rock_img/I_Gabbro_10.jpg"" style=""width:8cm; height:5.680000000000001cm;""><p>What type of rock is this?</p>",1,class_response,2,test,41,Basalt,Gabbro,10,FALSE,2,4,,,,,,,,,,,,,,,,,,
,,,,,,,,,,,html-keyboard-response,355,2.0.0,1230059,6556e5fa9feed5dca96b6dcd,4,6,null,,,,,,,,,<p style='font-size: 30px;'><strong>Okay</strong></p>,null,neutral_feedback,2,test,41,,,,,,,,,,,,,,,,,,,,,,,,
,,,,,,,,,,,html-button-response,356,2.0.0,1231771,6556e5fa9feed5dca96b6dcd,4,6,1710,,,,,,,,,"<img src= ""rock_img/I_Diorite_12.jpg"" style=""width:8cm; height:4.88cm;""><p>What type of rock is this?</p>",6,class_response,2,test,42,Peridotite,Diorite,12,FALSE,7,3,,,,,,,,,,,,,,,,,,
,,,,,,,,,,,html-keyboard-response,357,2.0.0,1232273,6556e5fa9feed5dca96b6dcd,4,6,null,,,,,,,,,<p style='font-size: 30px;'><strong>Okay</strong></p>,null,neutral_feedback,2,test,42,,,,,,,,,,,,,,,,,,,,,,,,
,,,,,,,,,,,html-button-response,358,2.0.0,1233414,6556e5fa9feed5dca96b6dcd,4,6,1138,,,,,,,,,"<img src= ""rock_img/I_Obsidian_14.jpg"" style=""width:8cm; height:7.64cm;""><p>What type of rock is this?</p>",4,class_response,2,test,43,Obsidian,Obsidian,14,TRUE,5,5,,,,,,,,,,,,,,,,,,
,,,,,,,,,,,html-keyboard-response,359,2.0.0,1233916,6556e5fa9feed5dca96b6dcd,4,6,null,,,,,,,,,<p style='font-size: 30px;'><strong>Okay</strong></p>,null,neutral_feedback,2,test,43,,,,,,,,,,,,,,,,,,,,,,,,
,,,,,,,,,,,html-button-response,360,2.0.0,1236601,6556e5fa9feed5dca96b6dcd,4,6,2683,,,,,,,,,"<img src= ""rock_img/I_Peridotite_06.jpg"" style=""width:8cm; height:7.53cm;""><p>What type of rock is this?</p>",6,class_response,2,test,44,Peridotite,Peridotite,6,TRUE,7,7,,,,,,,,,,,,,,,,,,
,,,,,,,,,,,html-keyboard-response,361,2.0.0,1237103,6556e5fa9feed5dca96b6dcd,4,6,null,,,,,,,,,<p style='font-size: 30px;'><strong>Okay</strong></p>,null,neutral_feedback,2,test,44,,,,,,,,,,,,,,,,,,,,,,,,
,,,,,,,,,,,html-button-response,362,2.0.0,1238290,6556e5fa9feed5dca96b6dcd,4,6,1185,,,,,,,,,"<img src= ""rock_img/I_Obsidian_02.jpg"" style=""width:8cm; height:7.51cm;""><p>What type of rock is this?</p>",4,class_response,2,test,45,Obsidian,Obsidian,2,TRUE,5,5,,,,,,,,,,,,,,,,,,
,,,,,,,,,,,html-keyboard-response,363,2.0.0,1238792,6556e5fa9feed5dca96b6dcd,4,6,null,,,,,,,,,<p style='font-size: 30px;'><strong>Okay</strong></p>,null,neutral_feedback,2,test,45,,,,,,,,,,,,,,,,,,,,,,,,
,,,,,,,,,,,html-button-response,364,2.0.0,1239879,6556e5fa9feed5dca96b6dcd,4,6,1085,,,,,,,,,"<img src= ""rock_img/I_Obsidian_08.jpg"" style=""width:8cm; height:7.39cm;""><p>What type of rock is this?</p>",4,class_response,2,test,46,Obsidian,Obsidian,8,TRUE,5,5,,,,,,,,,,,,,,,,,,
,,,,,,,,,,,html-keyboard-response,365,2.0.0,1240381,6556e5fa9feed5dca96b6dcd,4,6,null,,,,,,,,,<p style='font-size: 30px;'><strong>Okay</strong></p>,null,neutral_feedback,2,test,46,,,,,,,,,,,,,,,,,,,,,,,,
,,,,,,,,,,,html-button-response,366,2.0.0,1241404,6556e5fa9feed5dca96b6dcd,4,6,1021,,,,,,,,,"<img src= ""rock_img/I_Obsidian_12.jpg"" style=""width:8cm; height:6.53cm;""><p>What type of rock is this?</p>",4,class_response,2,test,47,Obsidian,Obsidian,12,TRUE,5,5,,,,,,,,,,,,,,,,,,
,,,,,,,,,,,html-keyboard-response,367,2.0.0,1241907,6556e5fa9feed5dca96b6dcd,4,6,null,,,,,,,,,<p style='font-size: 30px;'><strong>Okay</strong></p>,null,neutral_feedback,2,test,47,,,,,,,,,,,,,,,,,,,,,,,,
,,,,,,,,,,,html-button-response,368,2.0.0,1243084,6556e5fa9feed5dca96b6dcd,4,6,1175,,,,,,,,,"<img src= ""rock_img/I_Basalt_16.jpg"" style=""width:8cm; height:7.659999999999999cm;""><p>What type of rock is this?</p>",1,class_response,2,test,48,Basalt,Basalt,16,TRUE,2,2,,,,,,,,,,,,,,,,,,
,,,,,,,,,,,html-keyboard-response,369,2.0.0,1243587,6556e5fa9feed5dca96b6dcd,4,6,null,,,,,,,,,<p style='font-size: 30px;'><strong>Okay</strong></p>,null,neutral_feedback,2,test,48,,,,,,,,,,,,,,,,,,,,,,,,
,,,,,,,,,,,html-button-response,370,2.0.0,1257826,6556e5fa9feed5dca96b6dcd,4,6,,,,,,,,,,,,cycle_feedback,,,,,,,,,,,,,,,,,,,,,,8300.1,5929.2,,,,
,,,,,,,,,,,html-button-response,372,2.0.0,1259537,6556e5fa9feed5dca96b6dcd,4,6,1709,,,,,,,,,,0,start_train,,,,,,,,,,,,,,,,,,,,,,,,,,,
,,,,,,,,,,,html-button-response,374,2.0.0,1262581,6556e5fa9feed5dca96b6dcd,4,6,3042,,,,,,,,,"<img src= ""rock_img/I_Basalt_11.jpg"" style=""width:8cm; height:5.359999999999999cm;""><p>What type of rock is this?</p>",1,class_response,3,train,1,Basalt,Basalt,11,TRUE,2,2,,,,,,,,,,,,,,,,,,
,,,,,,,,,,,html-button-response,375,2.0.0,1265214,6556e5fa9feed5dca96b6dcd,4,6,2631,,,,,,,,,"<img src= rock_img/I_Basalt_11.jpg style=""width:8cm; height:5.359999999999999cm;""><p style='font-size: 30px; color: green;'><strong>Correct!</strong></p><p style='font-size: 30px;'><strong>This rock is basalt</strong></p>",0,corr_feedback,3,train,1,,,,,,,,,,,,,,,,,,,,,,,,
,,,,,,,,,,,html-button-response,376,2.0.0,1267719,6556e5fa9feed5dca96b6dcd,4,6,2503,,,,,,,,,"<img src= ""rock_img/I_Pumice_02.jpg"" style=""width:8cm; height:7.3999999999999995cm;""><p>What type of rock is this?</p>",7,class_response,3,train,2,Pumice,Pumice,2,TRUE,8,8,,,,,,,,,,,,,,,,,,
,,,,,,,,,,,html-button-response,377,2.0.0,1268570,6556e5fa9feed5dca96b6dcd,4,6,849,,,,,,,,,"<img src= rock_img/I_Pumice_02.jpg style=""width:8cm; height:7.3999999999999995cm;""><p style='font-size: 30px; color: green;'><strong>Correct!</strong></p><p style='font-size: 30px;'><strong>This rock is pumice</strong></p>",0,corr_feedback,3,train,2,,,,,,,,,,,,,,,,,,,,,,,,
,,,,,,,,,,,html-button-response,378,2.0.0,1270011,6556e5fa9feed5dca96b6dcd,4,6,1440,,,,,,,,,"<img src= ""rock_img/I_Peridotite_08.jpg"" style=""width:8cm; height:6.7cm;""><p>What type of rock is this?</p>",6,class_response,3,train,3,Peridotite,Peridotite,8,TRUE,7,7,,,,,,,,,,,,,,,,,,
,,,,,,,,,,,html-button-response,379,2.0.0,1270570,6556e5fa9feed5dca96b6dcd,4,6,557,,,,,,,,,"<img src= rock_img/I_Peridotite_08.jpg style=""width:8cm; height:6.7cm;""><p style='font-size: 30px; color: green;'><strong>Correct!</strong></p><p style='font-size: 30px;'><strong>This rock is peridotite</strong></p>",0,corr_feedback,3,train,3,,,,,,,,,,,,,,,,,,,,,,,,
,,,,,,,,,,,html-button-response,380,2.0.0,1273717,6556e5fa9feed5dca96b6dcd,4,6,3145,,,,,,,,,"<img src= ""rock_img/I_Diorite_08.jpg"" style=""width:8cm; height:6.37cm;""><p>What type of rock is this?</p>",0,class_response,3,train,4,Andesite,Diorite,8,FALSE,1,3,,,,,,,,,,,,,,,,,,
,,,,,,,,,,,html-button-response,381,2.0.0,1275444,6556e5fa9feed5dca96b6dcd,4,6,1725,,,,,,,,,"<img src= rock_img/I_Diorite_08.jpg style=""width:8cm; height:6.37cm;""><p style='font-size: 30px; color: red;'><strong>Incorrect!</strong></p><p style='font-size: 30px;'><strong>This rock is diorite</strong></p>",0,corr_feedback,3,train,4,,,,,,,,,,,,,,,,,,,,,,,,
,,,,,,,,,,,html-button-response,382,2.0.0,1276925,6556e5fa9feed5dca96b6dcd,4,6,1479,,,,,,,,,"<img src= ""rock_img/I_Pegmatite_03.jpg"" style=""width:8cm; height:5.239999999999999cm;""><p>What type of rock is this?</p>",6,class_response,3,train,5,Peridotite,Pegmatite,3,FALSE,7,6,,,,,,,,,,,,,,,,,,
,,,,,,,,,,,html-button-response,383,2.0.0,1277936,6556e5fa9feed5dca96b6dcd,4,6,1009,,,,,,,,,"<img src= rock_img/I_Pegmatite_03.jpg style=""width:8cm; height:5.239999999999999cm;""><p style='font-size: 30px; color: red;'><strong>Incorrect!</strong></p><p style='font-size: 30px;'><strong>This rock is pegmatite</strong></p>",0,corr_feedback,3,train,5,,,,,,,,,,,,,,,,,,,,,,,,
,,,,,,,,,,,html-button-response,384,2.0.0,1279302,6556e5fa9feed5dca96b6dcd,4,6,1364,,,,,,,,,"<img src= ""rock_img/I_Obsidian_10.jpg"" style=""width:8cm; height:6.260000000000001cm;""><p>What type of rock is this?</p>",5,class_response,3,train,6,Pegmatite,Obsidian,10,FALSE,6,5,,,,,,,,,,,,,,,,,,
,,,,,,,,,,,html-button-response,385,2.0.0,1281055,6556e5fa9feed5dca96b6dcd,4,6,1751,,,,,,,,,"<img src= rock_img/I_Obsidian_10.jpg style=""width:8cm; height:6.260000000000001cm;""><p style='font-size: 30px; color: red;'><strong>Incorrect!</strong></p><p style='font-size: 30px;'><strong>This rock is obsidian</strong></p>",0,corr_feedback,3,train,6,,,,,,,,,,,,,,,,,,,,,,,,
,,,,,,,,,,,html-button-response,386,2.0.0,1283124,6556e5fa9feed5dca96b6dcd,4,6,2066,,,,,,,,,"<img src= ""rock_img/I_Pegmatite_05.jpg"" style=""width:8cm; height:7.300000000000001cm;""><p>What type of rock is this?</p>",4,class_response,3,train,7,Obsidian,Pegmatite,5,FALSE,5,6,,,,,,,,,,,,,,,,,,
,,,,,,,,,,,html-button-response,387,2.0.0,1284066,6556e5fa9feed5dca96b6dcd,4,6,941,,,,,,,,,"<img src= rock_img/I_Pegmatite_05.jpg style=""width:8cm; height:7.300000000000001cm;""><p style='font-size: 30px; color: red;'><strong>Incorrect!</strong></p><p style='font-size: 30px;'><strong>This rock is pegmatite</strong></p>",0,corr_feedback,3,train,7,,,,,,,,,,,,,,,,,,,,,,,,
,,,,,,,,,,,html-button-response,388,2.0.0,1285931,6556e5fa9feed5dca96b6dcd,4,6,1863,,,,,,,,,"<img src= ""rock_img/I_Andesite_16.jpg"" style=""width:8cm; height:6.010000000000001cm;""><p>What type of rock is this?</p>",1,class_response,3,train,8,Basalt,Andesite,16,FALSE,2,1,,,,,,,,,,,,,,,,,,
,,,,,,,,,,,html-button-response,389,2.0.0,1286843,6556e5fa9feed5dca96b6dcd,4,6,910,,,,,,,,,"<img src= rock_img/I_Andesite_16.jpg style=""width:8cm; height:6.010000000000001cm;""><p style='font-size: 30px; color: red;'><strong>Incorrect!</strong></p><p style='font-size: 30px;'><strong>This rock is andesite</strong></p>",0,corr_feedback,3,train,8,,,,,,,,,,,,,,,,,,,,,,,,
,,,,,,,,,,,html-button-response,390,2.0.0,1288667,6556e5fa9feed5dca96b6dcd,4,6,1822,,,,,,,,,"<img src= ""rock_img/I_Diorite_14.jpg"" style=""width:8cm; height:5.71cm;""><p>What type of rock is this?</p>",2,class_response,3,train,9,Diorite,Diorite,14,TRUE,3,3,,,,,,,,,,,,,,,,,,
,,,,,,,,,,,html-button-response,391,2.0.0,1289777,6556e5fa9feed5dca96b6dcd,4,6,1108,,,,,,,,,"<img src= rock_img/I_Diorite_14.jpg style=""width:8cm; height:5.71cm;""><p style='font-size: 30px; color: green;'><strong>Correct!</strong></p><p style='font-size: 30px;'><strong>This rock is diorite</strong></p>",0,corr_feedback,3,train,9,,,,,,,,,,,,,,,,,,,,,,,,
,,,,,,,,,,,html-button-response,392,2.0.0,1291121,6556e5fa9feed5dca96b6dcd,4,6,1342,,,,,,,,,"<img src= ""rock_img/I_Basalt_14.jpg"" style=""width:8cm; height:5.82cm;""><p>What type of rock is this?</p>",1,class_response,3,train,10,Basalt,Basalt,14,TRUE,2,2,,,,,,,,,,,,,,,,,,
,,,,,,,,,,,html-button-response,393,2.0.0,1292274,6556e5fa9feed5dca96b6dcd,4,6,1151,,,,,,,,,"<img src= rock_img/I_Basalt_14.jpg style=""width:8cm; height:5.82cm;""><p style='font-size: 30px; color: green;'><strong>Correct!</strong></p><p style='font-size: 30px;'><strong>This rock is basalt</strong></p>",0,corr_feedback,3,train,10,,,,,,,,,,,,,,,,,,,,,,,,
,,,,,,,,,,,html-button-response,394,2.0.0,1294431,6556e5fa9feed5dca96b6dcd,4,6,2155,,,,,,,,,"<img src= ""rock_img/I_Gabbro_09.jpg"" style=""width:8cm; height:7.279999999999999cm;""><p>What type of rock is this?</p>",1,class_response,3,train,11,Basalt,Gabbro,9,FALSE,2,4,,,,,,,,,,,,,,,,,,
,,,,,,,,,,,html-button-response,395,2.0.0,1295362,6556e5fa9feed5dca96b6dcd,4,6,930,,,,,,,,,"<img src= rock_img/I_Gabbro_09.jpg style=""width:8cm; height:7.279999999999999cm;""><p style='font-size: 30px; color: red;'><strong>Incorrect!</strong></p><p style='font-size: 30px;'><strong>This rock is gabbro</strong></p>",0,corr_feedback,3,train,11,,,,,,,,,,,,,,,,,,,,,,,,
,,,,,,,,,,,html-button-response,396,2.0.0,1296683,6556e5fa9feed5dca96b6dcd,4,6,1319,,,,,,,,,"<img src= ""rock_img/I_Gabbro_12.jpg"" style=""width:8cm; height:7.800000000000001cm;""><p>What type of rock is this?</p>",1,class_response,3,train,12,Basalt,Gabbro,12,FALSE,2,4,,,,,,,,,,,,,,,,,,
,,,,,,,,,,,html-button-response,397,2.0.0,1297335,6556e5fa9feed5dca96b6dcd,4,6,651,,,,,,,,,"<img src= rock_img/I_Gabbro_12.jpg style=""width:8cm; height:7.800000000000001cm;""><p style='font-size: 30px; color: red;'><strong>Incorrect!</strong></p><p style='font-size: 30px;'><strong>This rock is gabbro</strong></p>",0,corr_feedback,3,train,12,,,,,,,,,,,,,,,,,,,,,,,,
,,,,,,,,,,,html-button-response,399,2.0.0,1298540,6556e5fa9feed5dca96b6dcd,4,6,1202,,,,,,,,,,0,start_train,,,,,,,,,,,,,,,,,,,,,,,,,,,
,,,,,,,,,,,html-button-response,400,2.0.0,1300312,6556e5fa9feed5dca96b6dcd,4,6,,,,,,,,,,,,cat_selection,3,train,1,,,,,,,1139.6,630,4,2,Gabbro,Basalt,,,,,,,,,,,,
,,,,,,,,,,,paired-cat-display,401,1.0.0,1432826,6556e5fa9feed5dca96b6dcd,4,6,,,,,,,,,,,,paired_cat_display,3,train,1,,,,,,,,,,,,,,"ridges, neutral in color, solid throughout",5642.9,126872.4,,,,,,,"bumps, neutral in color, slight specks",
,,,,,,,,,,,html-button-response,402,2.0.0,1436445,6556e5fa9feed5dca96b6dcd,4,6,,,,,,,,,,,,cat_selection,3,train,2,,,,,,,3025.6,591.5,1,6,Andesite,Pegmatite,,,,,,,,,,,,
