width,height,webaudio,browser,browser_version,mobile,os,fullscreen,vsync_rate,webcam,microphone,trial_type,trial_index,plugin_version,time_elapsed,subjID,condition,stimID,rt,url,success,value,timeout,failed_images,failed_audio,failed_video,view_history,stimulus,response,trialType,cycle,phase,trial,resp,cat,token,corr,resp_num,cat_num,rt_ref,rt_paired,ref_cat_num,paired_cat_num,ref_cat,paired_cat,text_Pegmatite,text_Andesite,time_obs,time_resp,text_Peridotite,text_Gabbro,time_fb1,time_fb2,text_Diorite,text_Pumice
1536,738,TRUE,chrome,131.0.0,FALSE,Windows 10,TRUE,45.17,TRUE,TRUE,browser-check,0,2.0.0,1355,66293ce3dba0764775195e58,4,50,,,,,,,,,,,,,,,,,,,,,,,,,,,,,,,,,,,,,
,,,,,,,,,,,external-html,1,2.0.0,28468,66293ce3dba0764775195e58,4,50,26999,consent_form.html,,,,,,,,,,,,,,,,,,,,,,,,,,,,,,,,,,,
,,,,,,,,,,,fullscreen,2,2.0.0,35618,66293ce3dba0764775195e58,4,50,6146,,TRUE,,,,,,,,,,,,,,,,,,,,,,,,,,,,,,,,,,
,,,,,,,,,,,call-function,3,2.0.0,35622,66293ce3dba0764775195e58,4,50,,,,{},,,,,,,,,,,,,,,,,,,,,,,,,,,,,,,,,
,,,,,,,,,,,preload,4,2.0.0,41324,66293ce3dba0764775195e58,4,50,,,TRUE,,FALSE,[],[],[],,,,,,,,,,,,,,,,,,,,,,,,,,,,,
,,,,,,,,,,,instructions,5,2.0.0,121363,66293ce3dba0764775195e58,4,50,80036,,,,,,,,"[{""page_index"":0,""viewing_time"":9936},{""page_index"":1,""viewing_time"":39385},{""page_index"":2,""viewing_time"":30715}]",,,,,,,,,,,,,,,,,,,,,,,,,,,,
,,,,,,,,,,,html-button-response,6,2.0.0,173941,66293ce3dba0764775195e58,4,50,52577,,,,,,,,,,0,start_test,,,,,,,,,,,,,,,,,,,,,,,,,
,,,,,,,,,,,html-button-response,7,2.0.0,217117,66293ce3dba0764775195e58,4,50,43174,,,,,,,,,"<img src= ""rock_img/I_Pegmatite_05.jpg"" style=""width:8cm; height:7.300000000000001cm;""><p>What type of rock is this?</p>",3,class_response,0,test,1,Gabbro,Pegmatite,5,FALSE,4,6,,,,,,,,,,,,,,,,
,,,,,,,,,,,html-keyboard-response,8,2.0.0,217628,66293ce3dba0764775195e58,4,50,null,,,,,,,,,<p style='font-size: 30px;'><strong>Okay</strong></p>,null,neutral_feedback,0,test,1,,,,,,,,,,,,,,,,,,,,,,
,,,,,,,,,,,html-button-response,9,2.0.0,232479,66293ce3dba0764775195e58,4,50,14849,,,,,,,,,"<img src= ""rock_img/I_Pegmatite_09.jpg"" style=""width:8cm; height:4.03cm;""><p>What type of rock is this?</p>",3,class_response,0,test,2,Gabbro,Pegmatite,9,FALSE,4,6,,,,,,,,,,,,,,,,
,,,,,,,,,,,html-keyboard-response,10,2.0.0,232997,66293ce3dba0764775195e58,4,50,null,,,,,,,,,<p style='font-size: 30px;'><strong>Okay</strong></p>,null,neutral_feedback,0,test,2,,,,,,,,,,,,,,,,,,,,,,
,,,,,,,,,,,html-button-response,11,2.0.0,240426,66293ce3dba0764775195e58,4,50,7427,,,,,,,,,"<img src= ""rock_img/I_Peridotite_12.jpg"" style=""width:8cm; height:4.54cm;""><p>What type of rock is this?</p>",7,class_response,0,test,3,Pumice,Peridotite,12,FALSE,8,7,,,,,,,,,,,,,,,,
,,,,,,,,,,,html-keyboard-response,12,2.0.0,240933,66293ce3dba0764775195e58,4,50,null,,,,,,,,,<p style='font-size: 30px;'><strong>Okay</strong></p>,null,neutral_feedback,0,test,3,,,,,,,,,,,,,,,,,,,,,,
,,,,,,,,,,,html-button-response,13,2.0.0,248003,66293ce3dba0764775195e58,4,50,7067,,,,,,,,,"<img src= ""rock_img/I_Diorite_02.jpg"" style=""width:8cm; height:6.27cm;""><p>What type of rock is this?</p>",3,class_response,0,test,4,Gabbro,Diorite,2,FALSE,4,3,,,,,,,,,,,,,,,,
,,,,,,,,,,,html-keyboard-response,14,2.0.0,248513,66293ce3dba0764775195e58,4,50,null,,,,,,,,,<p style='font-size: 30px;'><strong>Okay</strong></p>,null,neutral_feedback,0,test,4,,,,,,,,,,,,,,,,,,,,,,
,,,,,,,,,,,html-button-response,15,2.0.0,270335,66293ce3dba0764775195e58,4,50,21820,,,,,,,,,"<img src= ""rock_img/I_Peridotite_10.jpg"" style=""width:8cm; height:5.390000000000001cm;""><p>What type of rock is this?</p>",3,class_response,0,test,5,Gabbro,Peridotite,10,FALSE,4,7,,,,,,,,,,,,,,,,
,,,,,,,,,,,html-keyboard-response,16,2.0.0,270849,66293ce3dba0764775195e58,4,50,null,,,,,,,,,<p style='font-size: 30px;'><strong>Okay</strong></p>,null,neutral_feedback,0,test,5,,,,,,,,,,,,,,,,,,,,,,
,,,,,,,,,,,html-button-response,17,2.0.0,287544,66293ce3dba0764775195e58,4,50,16693,,,,,,,,,"<img src= ""rock_img/I_Pumice_14.jpg"" style=""width:8cm; height:6.39cm;""><p>What type of rock is this?</p>",7,class_response,0,test,6,Pumice,Pumice,14,TRUE,8,8,,,,,,,,,,,,,,,,
,,,,,,,,,,,html-keyboard-response,18,2.0.0,288053,66293ce3dba0764775195e58,4,50,null,,,,,,,,,<p style='font-size: 30px;'><strong>Okay</strong></p>,null,neutral_feedback,0,test,6,,,,,,,,,,,,,,,,,,,,,,
,,,,,,,,,,,html-button-response,19,2.0.0,313171,66293ce3dba0764775195e58,4,50,25116,,,,,,,,,"<img src= ""rock_img/I_Peridotite_02.jpg"" style=""width:8cm; height:5.859999999999999cm;""><p>What type of rock is this?</p>",2,class_response,0,test,7,Diorite,Peridotite,2,FALSE,3,7,,,,,,,,,,,,,,,,
,,,,,,,,,,,html-keyboard-response,20,2.0.0,313683,66293ce3dba0764775195e58,4,50,null,,,,,,,,,<p style='font-size: 30px;'><strong>Okay</strong></p>,null,neutral_feedback,0,test,7,,,,,,,,,,,,,,,,,,,,,,
,,,,,,,,,,,html-button-response,21,2.0.0,329742,66293ce3dba0764775195e58,4,50,16056,,,,,,,,,"<img src= ""rock_img/I_Basalt_10.jpg"" style=""width:8cm; height:5.85cm;""><p>What type of rock is this?</p>",1,class_response,0,test,8,Basalt,Basalt,10,TRUE,2,2,,,,,,,,,,,,,,,,
,,,,,,,,,,,html-keyboard-response,22,2.0.0,330257,66293ce3dba0764775195e58,4,50,null,,,,,,,,,<p style='font-size: 30px;'><strong>Okay</strong></p>,null,neutral_feedback,0,test,8,,,,,,,,,,,,,,,,,,,,,,
,,,,,,,,,,,html-button-response,23,2.0.0,334436,66293ce3dba0764775195e58,4,50,4177,,,,,,,,,"<img src= ""rock_img/I_Andesite_09.jpg"" style=""width:8cm; height:6cm;""><p>What type of rock is this?</p>",0,class_response,0,test,9,Andesite,Andesite,9,TRUE,1,1,,,,,,,,,,,,,,,,
,,,,,,,,,,,html-keyboard-response,24,2.0.0,334952,66293ce3dba0764775195e58,4,50,null,,,,,,,,,<p style='font-size: 30px;'><strong>Okay</strong></p>,null,neutral_feedback,0,test,9,,,,,,,,,,,,,,,,,,,,,,
,,,,,,,,,,,html-button-response,25,2.0.0,354278,66293ce3dba0764775195e58,4,50,19324,,,,,,,,,"<img src= ""rock_img/I_Pumice_05.jpg"" style=""width:8cm; height:7.25cm;""><p>What type of rock is this?</p>",7,class_response,0,test,10,Pumice,Pumice,5,TRUE,8,8,,,,,,,,,,,,,,,,
,,,,,,,,,,,html-keyboard-response,26,2.0.0,354794,66293ce3dba0764775195e58,4,50,null,,,,,,,,,<p style='font-size: 30px;'><strong>Okay</strong></p>,null,neutral_feedback,0,test,10,,,,,,,,,,,,,,,,,,,,,,
,,,,,,,,,,,html-button-response,27,2.0.0,359315,66293ce3dba0764775195e58,4,50,4519,,,,,,,,,"<img src= ""rock_img/I_Andesite_01.jpg"" style=""width:8cm; height:5.87cm;""><p>What type of rock is this?</p>",3,class_response,0,test,11,Gabbro,Andesite,1,FALSE,4,1,,,,,,,,,,,,,,,,
,,,,,,,,,,,html-keyboard-response,28,2.0.0,359819,66293ce3dba0764775195e58,4,50,null,,,,,,,,,<p style='font-size: 30px;'><strong>Okay</strong></p>,null,neutral_feedback,0,test,11,,,,,,,,,,,,,,,,,,,,,,
,,,,,,,,,,,html-button-response,29,2.0.0,370353,66293ce3dba0764775195e58,4,50,10533,,,,,,,,,"<img src= ""rock_img/I_Gabbro_10.jpg"" style=""width:8cm; height:5.680000000000001cm;""><p>What type of rock is this?</p>",5,class_response,0,test,12,Pegmatite,Gabbro,10,FALSE,6,4,,,,,,,,,,,,,,,,
,,,,,,,,,,,html-keyboard-response,30,2.0.0,370859,66293ce3dba0764775195e58,4,50,null,,,,,,,,,<p style='font-size: 30px;'><strong>Okay</strong></p>,null,neutral_feedback,0,test,12,,,,,,,,,,,,,,,,,,,,,,
,,,,,,,,,,,html-button-response,31,2.0.0,380198,66293ce3dba0764775195e58,4,50,9338,,,,,,,,,"<img src= ""rock_img/I_Peridotite_15.jpg"" style=""width:8cm; height:6cm;""><p>What type of rock is this?</p>",5,class_response,0,test,13,Pegmatite,Peridotite,15,FALSE,6,7,,,,,,,,,,,,,,,,
,,,,,,,,,,,html-keyboard-response,32,2.0.0,380710,66293ce3dba0764775195e58,4,50,null,,,,,,,,,<p style='font-size: 30px;'><strong>Okay</strong></p>,null,neutral_feedback,0,test,13,,,,,,,,,,,,,,,,,,,,,,
,,,,,,,,,,,html-button-response,33,2.0.0,386642,66293ce3dba0764775195e58,4,50,5930,,,,,,,,,"<img src= ""rock_img/I_Gabbro_05.jpg"" style=""width:8cm; height:6cm;""><p>What type of rock is this?</p>",0,class_response,0,test,14,Andesite,Gabbro,5,FALSE,1,4,,,,,,,,,,,,,,,,
,,,,,,,,,,,html-keyboard-response,34,2.0.0,387153,66293ce3dba0764775195e58,4,50,null,,,,,,,,,<p style='font-size: 30px;'><strong>Okay</strong></p>,null,neutral_feedback,0,test,14,,,,,,,,,,,,,,,,,,,,,,
,,,,,,,,,,,html-button-response,35,2.0.0,390515,66293ce3dba0764775195e58,4,50,3360,,,,,,,,,"<img src= ""rock_img/I_Obsidian_11.jpg"" style=""width:8cm; height:6.05cm;""><p>What type of rock is this?</p>",1,class_response,0,test,15,Basalt,Obsidian,11,FALSE,2,5,,,,,,,,,,,,,,,,
,,,,,,,,,,,html-keyboard-response,36,2.0.0,391021,66293ce3dba0764775195e58,4,50,null,,,,,,,,,<p style='font-size: 30px;'><strong>Okay</strong></p>,null,neutral_feedback,0,test,15,,,,,,,,,,,,,,,,,,,,,,
,,,,,,,,,,,html-button-response,37,2.0.0,398123,66293ce3dba0764775195e58,4,50,7100,,,,,,,,,"<img src= ""rock_img/I_Pegmatite_12.jpg"" style=""width:8cm; height:5.7cm;""><p>What type of rock is this?</p>",5,class_response,0,test,16,Pegmatite,Pegmatite,12,TRUE,6,6,,,,,,,,,,,,,,,,
,,,,,,,,,,,html-keyboard-response,38,2.0.0,398626,66293ce3dba0764775195e58,4,50,null,,,,,,,,,<p style='font-size: 30px;'><strong>Okay</strong></p>,null,neutral_feedback,0,test,16,,,,,,,,,,,,,,,,,,,,,,
,,,,,,,,,,,html-button-response,39,2.0.0,406191,66293ce3dba0764775195e58,4,50,7563,,,,,,,,,"<img src= ""rock_img/I_Gabbro_08.jpg"" style=""width:8cm; height:5.15cm;""><p>What type of rock is this?</p>",3,class_response,0,test,17,Gabbro,Gabbro,8,TRUE,4,4,,,,,,,,,,,,,,,,
,,,,,,,,,,,html-keyboard-response,40,2.0.0,406708,66293ce3dba0764775195e58,4,50,null,,,,,,,,,<p style='font-size: 30px;'><strong>Okay</strong></p>,null,neutral_feedback,0,test,17,,,,,,,,,,,,,,,,,,,,,,
,,,,,,,,,,,html-button-response,41,2.0.0,409040,66293ce3dba0764775195e58,4,50,2331,,,,,,,,,"<img src= ""rock_img/I_Gabbro_15.jpg"" style=""width:8cm; height:6.29cm;""><p>What type of rock is this?</p>",3,class_response,0,test,18,Gabbro,Gabbro,15,TRUE,4,4,,,,,,,,,,,,,,,,
,,,,,,,,,,,html-keyboard-response,42,2.0.0,409547,66293ce3dba0764775195e58,4,50,null,,,,,,,,,<p style='font-size: 30px;'><strong>Okay</strong></p>,null,neutral_feedback,0,test,18,,,,,,,,,,,,,,,,,,,,,,
,,,,,,,,,,,html-button-response,43,2.0.0,414628,66293ce3dba0764775195e58,4,50,5079,,,,,,,,,"<img src= ""rock_img/I_Diorite_09.jpg"" style=""width:8cm; height:5.27cm;""><p>What type of rock is this?</p>",2,class_response,0,test,19,Diorite,Diorite,9,TRUE,3,3,,,,,,,,,,,,,,,,
,,,,,,,,,,,html-keyboard-response,44,2.0.0,415137,66293ce3dba0764775195e58,4,50,null,,,,,,,,,<p style='font-size: 30px;'><strong>Okay</strong></p>,null,neutral_feedback,0,test,19,,,,,,,,,,,,,,,,,,,,,,
,,,,,,,,,,,html-button-response,45,2.0.0,430937,66293ce3dba0764775195e58,4,50,15798,,,,,,,,,"<img src= ""rock_img/I_Pegmatite_03.jpg"" style=""width:8cm; height:5.239999999999999cm;""><p>What type of rock is this?</p>",5,class_response,0,test,20,Pegmatite,Pegmatite,3,TRUE,6,6,,,,,,,,,,,,,,,,
,,,,,,,,,,,html-keyboard-response,46,2.0.0,431447,66293ce3dba0764775195e58,4,50,null,,,,,,,,,<p style='font-size: 30px;'><strong>Okay</strong></p>,null,neutral_feedback,0,test,20,,,,,,,,,,,,,,,,,,,,,,
,,,,,,,,,,,html-button-response,47,2.0.0,436393,66293ce3dba0764775195e58,4,50,4944,,,,,,,,,"<img src= ""rock_img/I_Andesite_10.jpg"" style=""width:8cm; height:4.16cm;""><p>What type of rock is this?</p>",6,class_response,0,test,21,Peridotite,Andesite,10,FALSE,7,1,,,,,,,,,,,,,,,,
,,,,,,,,,,,html-keyboard-response,48,2.0.0,436894,66293ce3dba0764775195e58,4,50,null,,,,,,,,,<p style='font-size: 30px;'><strong>Okay</strong></p>,null,neutral_feedback,0,test,21,,,,,,,,,,,,,,,,,,,,,,
,,,,,,,,,,,html-button-response,49,2.0.0,438660,66293ce3dba0764775195e58,4,50,1765,,,,,,,,,"<img src= ""rock_img/I_Pumice_04.jpg"" style=""width:8cm; height:6.819999999999999cm;""><p>What type of rock is this?</p>",7,class_response,0,test,22,Pumice,Pumice,4,TRUE,8,8,,,,,,,,,,,,,,,,
,,,,,,,,,,,html-keyboard-response,50,2.0.0,439173,66293ce3dba0764775195e58,4,50,null,,,,,,,,,<p style='font-size: 30px;'><strong>Okay</strong></p>,null,neutral_feedback,0,test,22,,,,,,,,,,,,,,,,,,,,,,
,,,,,,,,,,,html-button-response,51,2.0.0,443828,66293ce3dba0764775195e58,4,50,4652,,,,,,,,,"<img src= ""rock_img/I_Obsidian_06.jpg"" style=""width:8cm; height:6.8cm;""><p>What type of rock is this?</p>",4,class_response,0,test,23,Obsidian,Obsidian,6,TRUE,5,5,,,,,,,,,,,,,,,,
,,,,,,,,,,,html-keyboard-response,52,2.0.0,444337,66293ce3dba0764775195e58,4,50,null,,,,,,,,,<p style='font-size: 30px;'><strong>Okay</strong></p>,null,neutral_feedback,0,test,23,,,,,,,,,,,,,,,,,,,,,,
,,,,,,,,,,,html-button-response,53,2.0.0,455768,66293ce3dba0764775195e58,4,50,11429,,,,,,,,,"<img src= ""rock_img/I_Pegmatite_16.jpg"" style=""width:8cm; height:5.8cm;""><p>What type of rock is this?</p>",2,class_response,0,test,24,Diorite,Pegmatite,16,FALSE,3,6,,,,,,,,,,,,,,,,
,,,,,,,,,,,html-keyboard-response,54,2.0.0,456269,66293ce3dba0764775195e58,4,50,null,,,,,,,,,<p style='font-size: 30px;'><strong>Okay</strong></p>,null,neutral_feedback,0,test,24,,,,,,,,,,,,,,,,,,,,,,
,,,,,,,,,,,html-button-response,55,2.0.0,461310,66293ce3dba0764775195e58,4,50,5038,,,,,,,,,"<img src= ""rock_img/I_Gabbro_11.jpg"" style=""width:8cm; height:6.2cm;""><p>What type of rock is this?</p>",3,class_response,0,test,25,Gabbro,Gabbro,11,TRUE,4,4,,,,,,,,,,,,,,,,
,,,,,,,,,,,html-keyboard-response,56,2.0.0,461814,66293ce3dba0764775195e58,4,50,null,,,,,,,,,<p style='font-size: 30px;'><strong>Okay</strong></p>,null,neutral_feedback,0,test,25,,,,,,,,,,,,,,,,,,,,,,
,,,,,,,,,,,html-button-response,57,2.0.0,466440,66293ce3dba0764775195e58,4,50,4624,,,,,,,,,"<img src= ""rock_img/I_Obsidian_14.jpg"" style=""width:8cm; height:7.64cm;""><p>What type of rock is this?</p>",1,class_response,0,test,26,Basalt,Obsidian,14,FALSE,2,5,,,,,,,,,,,,,,,,
,,,,,,,,,,,html-keyboard-response,58,2.0.0,466946,66293ce3dba0764775195e58,4,50,null,,,,,,,,,<p style='font-size: 30px;'><strong>Okay</strong></p>,null,neutral_feedback,0,test,26,,,,,,,,,,,,,,,,,,,,,,
,,,,,,,,,,,html-button-response,59,2.0.0,478872,66293ce3dba0764775195e58,4,50,11924,,,,,,,,,"<img src= ""rock_img/I_Peridotite_14.jpg"" style=""width:8cm; height:5.3cm;""><p>What type of rock is this?</p>",5,class_response,0,test,27,Pegmatite,Peridotite,14,FALSE,6,7,,,,,,,,,,,,,,,,
,,,,,,,,,,,html-keyboard-response,60,2.0.0,479382,66293ce3dba0764775195e58,4,50,null,,,,,,,,,<p style='font-size: 30px;'><strong>Okay</strong></p>,null,neutral_feedback,0,test,27,,,,,,,,,,,,,,,,,,,,,,
,,,,,,,,,,,html-button-response,61,2.0.0,482421,66293ce3dba0764775195e58,4,50,3037,,,,,,,,,"<img src= ""rock_img/I_Diorite_10.jpg"" style=""width:8cm; height:5.949999999999999cm;""><p>What type of rock is this?</p>",6,class_response,0,test,28,Peridotite,Diorite,10,FALSE,7,3,,,,,,,,,,,,,,,,
,,,,,,,,,,,html-keyboard-response,62,2.0.0,482936,66293ce3dba0764775195e58,4,50,null,,,,,,,,,<p style='font-size: 30px;'><strong>Okay</strong></p>,null,neutral_feedback,0,test,28,,,,,,,,,,,,,,,,,,,,,,
,,,,,,,,,,,html-button-response,63,2.0.0,483917,66293ce3dba0764775195e58,4,50,980,,,,,,,,,"<img src= ""rock_img/I_Diorite_11.jpg"" style=""width:8cm; height:7.11cm;""><p>What type of rock is this?</p>",6,class_response,0,test,29,Peridotite,Diorite,11,FALSE,7,3,,,,,,,,,,,,,,,,
,,,,,,,,,,,html-keyboard-response,64,2.0.0,484425,66293ce3dba0764775195e58,4,50,null,,,,,,,,,<p style='font-size: 30px;'><strong>Okay</strong></p>,null,neutral_feedback,0,test,29,,,,,,,,,,,,,,,,,,,,,,
,,,,,,,,,,,html-button-response,65,2.0.0,486074,66293ce3dba0764775195e58,4,50,1646,,,,,,,,,"<img src= ""rock_img/I_Pumice_10.jpg"" style=""width:8cm; height:7.609999999999999cm;""><p>What type of rock is this?</p>",7,class_response,0,test,30,Pumice,Pumice,10,TRUE,8,8,,,,,,,,,,,,,,,,
,,,,,,,,,,,html-keyboard-response,66,2.0.0,486587,66293ce3dba0764775195e58,4,50,null,,,,,,,,,<p style='font-size: 30px;'><strong>Okay</strong></p>,null,neutral_feedback,0,test,30,,,,,,,,,,,,,,,,,,,,,,
,,,,,,,,,,,html-button-response,67,2.0.0,492073,66293ce3dba0764775195e58,4,50,5484,,,,,,,,,"<img src= ""rock_img/I_Andesite_11.jpg"" style=""width:8cm; height:4.92cm;""><p>What type of rock is this?</p>",0,class_response,0,test,31,Andesite,Andesite,11,TRUE,1,1,,,,,,,,,,,,,,,,
,,,,,,,,,,,html-keyboard-response,68,2.0.0,492574,66293ce3dba0764775195e58,4,50,null,,,,,,,,,<p style='font-size: 30px;'><strong>Okay</strong></p>,null,neutral_feedback,0,test,31,,,,,,,,,,,,,,,,,,,,,,
,,,,,,,,,,,html-button-response,69,2.0.0,496209,66293ce3dba0764775195e58,4,50,3634,,,,,,,,,"<img src= ""rock_img/I_Basalt_09.jpg"" style=""width:8cm; height:6.2cm;""><p>What type of rock is this?</p>",1,class_response,0,test,32,Basalt,Basalt,9,TRUE,2,2,,,,,,,,,,,,,,,,
,,,,,,,,,,,html-keyboard-response,70,2.0.0,496713,66293ce3dba0764775195e58,4,50,null,,,,,,,,,<p style='font-size: 30px;'><strong>Okay</strong></p>,null,neutral_feedback,0,test,32,,,,,,,,,,,,,,,,,,,,,,
,,,,,,,,,,,html-button-response,71,2.0.0,499560,66293ce3dba0764775195e58,4,50,2844,,,,,,,,,"<img src= ""rock_img/I_Andesite_14.jpg"" style=""width:8cm; height:5.449999999999999cm;""><p>What type of rock is this?</p>",2,class_response,0,test,33,Diorite,Andesite,14,FALSE,3,1,,,,,,,,,,,,,,,,
,,,,,,,,,,,html-keyboard-response,72,2.0.0,500069,66293ce3dba0764775195e58,4,50,null,,,,,,,,,<p style='font-size: 30px;'><strong>Okay</strong></p>,null,neutral_feedback,0,test,33,,,,,,,,,,,,,,,,,,,,,,
,,,,,,,,,,,html-button-response,73,2.0.0,501788,66293ce3dba0764775195e58,4,50,1717,,,,,,,,,"<img src= ""rock_img/I_Basalt_02.jpg"" style=""width:8cm; height:6.45cm;""><p>What type of rock is this?</p>",1,class_response,0,test,34,Basalt,Basalt,2,TRUE,2,2,,,,,,,,,,,,,,,,
,,,,,,,,,,,html-keyboard-response,74,2.0.0,502298,66293ce3dba0764775195e58,4,50,null,,,,,,,,,<p style='font-size: 30px;'><strong>Okay</strong></p>,null,neutral_feedback,0,test,34,,,,,,,,,,,,,,,,,,,,,,
,,,,,,,,,,,html-button-response,75,2.0.0,505850,66293ce3dba0764775195e58,4,50,3550,,,,,,,,,"<img src= ""rock_img/I_Peridotite_13.jpg"" style=""width:8cm; height:7.58cm;""><p>What type of rock is this?</p>",3,class_response,0,test,35,Gabbro,Peridotite,13,FALSE,4,7,,,,,,,,,,,,,,,,
,,,,,,,,,,,html-keyboard-response,76,2.0.0,506364,66293ce3dba0764775195e58,4,50,null,,,,,,,,,<p style='font-size: 30px;'><strong>Okay</strong></p>,null,neutral_feedback,0,test,35,,,,,,,,,,,,,,,,,,,,,,
,,,,,,,,,,,html-button-response,77,2.0.0,516310,66293ce3dba0764775195e58,4,50,9943,,,,,,,,,"<img src= ""rock_img/I_Basalt_16.jpg"" style=""width:8cm; height:7.659999999999999cm;""><p>What type of rock is this?</p>",6,class_response,0,test,36,Peridotite,Basalt,16,FALSE,7,2,,,,,,,,,,,,,,,,
,,,,,,,,,,,html-keyboard-response,78,2.0.0,516812,66293ce3dba0764775195e58,4,50,null,,,,,,,,,<p style='font-size: 30px;'><strong>Okay</strong></p>,null,neutral_feedback,0,test,36,,,,,,,,,,,,,,,,,,,,,,
,,,,,,,,,,,html-button-response,79,2.0.0,520542,66293ce3dba0764775195e58,4,50,3728,,,,,,,,,"<img src= ""rock_img/I_Obsidian_02.jpg"" style=""width:8cm; height:7.51cm;""><p>What type of rock is this?</p>",4,class_response,0,test,37,Obsidian,Obsidian,2,TRUE,5,5,,,,,,,,,,,,,,,,
,,,,,,,,,,,html-keyboard-response,80,2.0.0,521058,66293ce3dba0764775195e58,4,50,null,,,,,,,,,<p style='font-size: 30px;'><strong>Okay</strong></p>,null,neutral_feedback,0,test,37,,,,,,,,,,,,,,,,,,,,,,
,,,,,,,,,,,html-button-response,81,2.0.0,543566,66293ce3dba0764775195e58,4,50,22506,,,,,,,,,"<img src= ""rock_img/I_Pumice_15.jpg"" style=""width:8cm; height:7.86cm;""><p>What type of rock is this?</p>",2,class_response,0,test,38,Diorite,Pumice,15,FALSE,3,8,,,,,,,,,,,,,,,,
,,,,,,,,,,,html-keyboard-response,82,2.0.0,544080,66293ce3dba0764775195e58,4,50,null,,,,,,,,,<p style='font-size: 30px;'><strong>Okay</strong></p>,null,neutral_feedback,0,test,38,,,,,,,,,,,,,,,,,,,,,,
,,,,,,,,,,,html-button-response,83,2.0.0,548293,66293ce3dba0764775195e58,4,50,4211,,,,,,,,,"<img src= ""rock_img/I_Pegmatite_07.jpg"" style=""width:8cm; height:6.7cm;""><p>What type of rock is this?</p>",2,class_response,0,test,39,Diorite,Pegmatite,7,FALSE,3,6,,,,,,,,,,,,,,,,
,,,,,,,,,,,html-keyboard-response,84,2.0.0,548803,66293ce3dba0764775195e58,4,50,null,,,,,,,,,<p style='font-size: 30px;'><strong>Okay</strong></p>,null,neutral_feedback,0,test,39,,,,,,,,,,,,,,,,,,,,,,
,,,,,,,,,,,html-button-response,85,2.0.0,553243,66293ce3dba0764775195e58,4,50,4437,,,,,,,,,"<img src= ""rock_img/I_Diorite_12.jpg"" style=""width:8cm; height:4.88cm;""><p>What type of rock is this?</p>",5,class_response,0,test,40,Pegmatite,Diorite,12,FALSE,6,3,,,,,,,,,,,,,,,,
,,,,,,,,,,,html-keyboard-response,86,2.0.0,553746,66293ce3dba0764775195e58,4,50,null,,,,,,,,,<p style='font-size: 30px;'><strong>Okay</strong></p>,null,neutral_feedback,0,test,40,,,,,,,,,,,,,,,,,,,,,,
,,,,,,,,,,,html-button-response,87,2.0.0,557503,66293ce3dba0764775195e58,4,50,3755,,,,,,,,,"<img src= ""rock_img/I_Obsidian_10.jpg"" style=""width:8cm; height:6.260000000000001cm;""><p>What type of rock is this?</p>",4,class_response,0,test,41,Obsidian,Obsidian,10,TRUE,5,5,,,,,,,,,,,,,,,,
,,,,,,,,,,,html-keyboard-response,88,2.0.0,558010,66293ce3dba0764775195e58,4,50,null,,,,,,,,,<p style='font-size: 30px;'><strong>Okay</strong></p>,null,neutral_feedback,0,test,41,,,,,,,,,,,,,,,,,,,,,,
,,,,,,,,,,,html-button-response,89,2.0.0,559338,66293ce3dba0764775195e58,4,50,1325,,,,,,,,,"<img src= ""rock_img/I_Basalt_01.jpg"" style=""width:8cm; height:7.880000000000001cm;""><p>What type of rock is this?</p>",1,class_response,0,test,42,Basalt,Basalt,1,TRUE,2,2,,,,,,,,,,,,,,,,
,,,,,,,,,,,html-keyboard-response,90,2.0.0,559839,66293ce3dba0764775195e58,4,50,null,,,,,,,,,<p style='font-size: 30px;'><strong>Okay</strong></p>,null,neutral_feedback,0,test,42,,,,,,,,,,,,,,,,,,,,,,
,,,,,,,,,,,html-button-response,91,2.0.0,563003,66293ce3dba0764775195e58,4,50,3160,,,,,,,,,"<img src= ""rock_img/I_Gabbro_03.jpg"" style=""width:8cm; height:8.52cm;""><p>What type of rock is this?</p>",2,class_response,0,test,43,Diorite,Gabbro,3,FALSE,3,4,,,,,,,,,,,,,,,,
,,,,,,,,,,,html-keyboard-response,92,2.0.0,563509,66293ce3dba0764775195e58,4,50,null,,,,,,,,,<p style='font-size: 30px;'><strong>Okay</strong></p>,null,neutral_feedback,0,test,43,,,,,,,,,,,,,,,,,,,,,,
,,,,,,,,,,,html-button-response,93,2.0.0,571706,66293ce3dba0764775195e58,4,50,8193,,,,,,,,,"<img src= ""rock_img/I_Andesite_06.jpg"" style=""width:8cm; height:6.840000000000001cm;""><p>What type of rock is this?</p>",5,class_response,0,test,44,Pegmatite,Andesite,6,FALSE,6,1,,,,,,,,,,,,,,,,
,,,,,,,,,,,html-keyboard-response,94,2.0.0,572215,66293ce3dba0764775195e58,4,50,null,,,,,,,,,<p style='font-size: 30px;'><strong>Okay</strong></p>,null,neutral_feedback,0,test,44,,,,,,,,,,,,,,,,,,,,,,
,,,,,,,,,,,html-button-response,95,2.0.0,575307,66293ce3dba0764775195e58,4,50,3089,,,,,,,,,"<img src= ""rock_img/I_Diorite_07.jpg"" style=""width:8cm; height:5.239999999999999cm;""><p>What type of rock is this?</p>",2,class_response,0,test,45,Diorite,Diorite,7,TRUE,3,3,,,,,,,,,,,,,,,,
,,,,,,,,,,,html-keyboard-response,96,2.0.0,575814,66293ce3dba0764775195e58,4,50,null,,,,,,,,,<p style='font-size: 30px;'><strong>Okay</strong></p>,null,neutral_feedback,0,test,45,,,,,,,,,,,,,,,,,,,,,,
,,,,,,,,,,,html-button-response,97,2.0.0,577194,66293ce3dba0764775195e58,4,50,1378,,,,,,,,,"<img src= ""rock_img/I_Pumice_16.jpg"" style=""width:8cm; height:6.79cm;""><p>What type of rock is this?</p>",7,class_response,0,test,46,Pumice,Pumice,16,TRUE,8,8,,,,,,,,,,,,,,,,
,,,,,,,,,,,html-keyboard-response,98,2.0.0,577700,66293ce3dba0764775195e58,4,50,null,,,,,,,,,<p style='font-size: 30px;'><strong>Okay</strong></p>,null,neutral_feedback,0,test,46,,,,,,,,,,,,,,,,,,,,,,
,,,,,,,,,,,html-button-response,99,2.0.0,581990,66293ce3dba0764775195e58,4,50,4287,,,,,,,,,"<img src= ""rock_img/I_Obsidian_05.jpg"" style=""width:8cm; height:6.33cm;""><p>What type of rock is this?</p>",4,class_response,0,test,47,Obsidian,Obsidian,5,TRUE,5,5,,,,,,,,,,,,,,,,
,,,,,,,,,,,html-keyboard-response,100,2.0.0,582502,66293ce3dba0764775195e58,4,50,null,,,,,,,,,<p style='font-size: 30px;'><strong>Okay</strong></p>,null,neutral_feedback,0,test,47,,,,,,,,,,,,,,,,,,,,,,
,,,,,,,,,,,html-button-response,101,2.0.0,584001,66293ce3dba0764775195e58,4,50,1498,,,,,,,,,"<img src= ""rock_img/I_Basalt_08.jpg"" style=""width:8cm; height:10.44cm;""><p>What type of rock is this?</p>",1,class_response,0,test,48,Basalt,Basalt,8,TRUE,2,2,,,,,,,,,,,,,,,,
,,,,,,,,,,,html-keyboard-response,102,2.0.0,584509,66293ce3dba0764775195e58,4,50,null,,,,,,,,,<p style='font-size: 30px;'><strong>Okay</strong></p>,null,neutral_feedback,0,test,48,,,,,,,,,,,,,,,,,,,,,,
,,,,,,,,,,,instructions,103,2.0.0,611742,66293ce3dba0764775195e58,4,50,27158,,,,,,,,"[{""page_index"":0,""viewing_time"":20156},{""page_index"":1,""viewing_time"":7002}]",,,,,,,,,,,,,,,,,,,,,,,,,,,,
,,,,,,,,,,,html-button-response,104,2.0.0,616377,66293ce3dba0764775195e58,4,50,4633,,,,,,,,,,0,start_train,,,,,,,,,,,,,,,,,,,,,,,,,
,,,,,,,,,,,html-button-response,106,2.0.0,619619,66293ce3dba0764775195e58,4,50,3240,,,,,,,,,"<img src= ""rock_img/I_Obsidian_08.jpg"" style=""width:8cm; height:7.39cm;""><p>What type of rock is this?</p>",4,class_response,1,train,1,Obsidian,Obsidian,8,TRUE,5,5,,,,,,,,,,,,,,,,
,,,,,,,,,,,html-button-response,107,2.0.0,622280,66293ce3dba0764775195e58,4,50,2660,,,,,,,,,"<img src= rock_img/I_Obsidian_08.jpg style=""width:8cm; height:7.39cm;""><p style='font-size: 30px; color: green;'><strong>Correct!</strong></p><p style='font-size: 30px;'><strong>This rock is obsidian</strong></p>",0,corr_feedback,1,train,1,,,,,,,,,,,,,,,,,,,,,,
,,,,,,,,,,,html-button-response,108,2.0.0,624318,66293ce3dba0764775195e58,4,50,2036,,,,,,,,,"<img src= ""rock_img/I_Basalt_11.jpg"" style=""width:8cm; height:5.359999999999999cm;""><p>What type of rock is this?</p>",7,class_response,1,train,2,Pumice,Basalt,11,FALSE,8,2,,,,,,,,,,,,,,,,
,,,,,,,,,,,html-button-response,109,2.0.0,626902,66293ce3dba0764775195e58,4,50,2583,,,,,,,,,"<img src= rock_img/I_Basalt_11.jpg style=""width:8cm; height:5.359999999999999cm;""><p style='font-size: 30px; color: red;'><strong>Incorrect!</strong></p><p style='font-size: 30px;'><strong>This rock is basalt</strong></p>",0,corr_feedback,1,train,2,,,,,,,,,,,,,,,,,,,,,,
,,,,,,,,,,,html-button-response,110,2.0.0,629899,66293ce3dba0764775195e58,4,50,2996,,,,,,,,,"<img src= ""rock_img/I_Andesite_05.jpg"" style=""width:8cm; height:4.12cm;""><p>What type of rock is this?</p>",2,class_response,1,train,3,Diorite,Andesite,5,FALSE,3,1,,,,,,,,,,,,,,,,
,,,,,,,,,,,html-button-response,111,2.0.0,632289,66293ce3dba0764775195e58,4,50,2390,,,,,,,,,"<img src= rock_img/I_Andesite_05.jpg style=""width:8cm; height:4.12cm;""><p style='font-size: 30px; color: red;'><strong>Incorrect!</strong></p><p style='font-size: 30px;'><strong>This rock is andesite</strong></p>",0,corr_feedback,1,train,3,,,,,,,,,,,,,,,,,,,,,,
,,,,,,,,,,,html-button-response,112,2.0.0,634702,66293ce3dba0764775195e58,4,50,2410,,,,,,,,,"<img src= ""rock_img/I_Diorite_15.jpg"" style=""width:8cm; height:5.54cm;""><p>What type of rock is this?</p>",2,class_response,1,train,4,Diorite,Diorite,15,TRUE,3,3,,,,,,,,,,,,,,,,
,,,,,,,,,,,html-button-response,113,2.0.0,636912,66293ce3dba0764775195e58,4,50,2209,,,,,,,,,"<img src= rock_img/I_Diorite_15.jpg style=""width:8cm; height:5.54cm;""><p style='font-size: 30px; color: green;'><strong>Correct!</strong></p><p style='font-size: 30px;'><strong>This rock is diorite</strong></p>",0,corr_feedback,1,train,4,,,,,,,,,,,,,,,,,,,,,,
,,,,,,,,,,,html-button-response,114,2.0.0,638365,66293ce3dba0764775195e58,4,50,1451,,,,,,,,,"<img src= ""rock_img/I_Diorite_08.jpg"" style=""width:8cm; height:6.37cm;""><p>What type of rock is this?</p>",0,class_response,1,train,5,Andesite,Diorite,8,FALSE,1,3,,,,,,,,,,,,,,,,
,,,,,,,,,,,html-button-response,115,2.0.0,640155,66293ce3dba0764775195e58,4,50,1789,,,,,,,,,"<img src= rock_img/I_Diorite_08.jpg style=""width:8cm; height:6.37cm;""><p style='font-size: 30px; color: red;'><strong>Incorrect!</strong></p><p style='font-size: 30px;'><strong>This rock is diorite</strong></p>",0,corr_feedback,1,train,5,,,,,,,,,,,,,,,,,,,,,,
,,,,,,,,,,,html-button-response,116,2.0.0,651248,66293ce3dba0764775195e58,4,50,11091,,,,,,,,,"<img src= ""rock_img/I_Pegmatite_10.jpg"" style=""width:8cm; height:4.16cm;""><p>What type of rock is this?</p>",6,class_response,1,train,6,Peridotite,Pegmatite,10,FALSE,7,6,,,,,,,,,,,,,,,,
,,,,,,,,,,,html-button-response,117,2.0.0,652822,66293ce3dba0764775195e58,4,50,1573,,,,,,,,,"<img src= rock_img/I_Pegmatite_10.jpg style=""width:8cm; height:4.16cm;""><p style='font-size: 30px; color: red;'><strong>Incorrect!</strong></p><p style='font-size: 30px;'><strong>This rock is pegmatite</strong></p>",0,corr_feedback,1,train,6,,,,,,,,,,,,,,,,,,,,,,
,,,,,,,,,,,html-button-response,118,2.0.0,654450,66293ce3dba0764775195e58,4,50,1628,,,,,,,,,"<img src= ""rock_img/I_Pumice_02.jpg"" style=""width:8cm; height:7.3999999999999995cm;""><p>What type of rock is this?</p>",7,class_response,1,train,7,Pumice,Pumice,2,TRUE,8,8,,,,,,,,,,,,,,,,
,,,,,,,,,,,html-button-response,119,2.0.0,655667,66293ce3dba0764775195e58,4,50,1215,,,,,,,,,"<img src= rock_img/I_Pumice_02.jpg style=""width:8cm; height:7.3999999999999995cm;""><p style='font-size: 30px; color: green;'><strong>Correct!</strong></p><p style='font-size: 30px;'><strong>This rock is pumice</strong></p>",0,corr_feedback,1,train,7,,,,,,,,,,,,,,,,,,,,,,
,,,,,,,,,,,html-button-response,120,2.0.0,659139,66293ce3dba0764775195e58,4,50,3471,,,,,,,,,"<img src= ""rock_img/I_Peridotite_07.jpg"" style=""width:8cm; height:4.83cm;""><p>What type of rock is this?</p>",0,class_response,1,train,8,Andesite,Peridotite,7,FALSE,1,7,,,,,,,,,,,,,,,,
,,,,,,,,,,,html-button-response,121,2.0.0,660777,66293ce3dba0764775195e58,4,50,1638,,,,,,,,,"<img src= rock_img/I_Peridotite_07.jpg style=""width:8cm; height:4.83cm;""><p style='font-size: 30px; color: red;'><strong>Incorrect!</strong></p><p style='font-size: 30px;'><strong>This rock is peridotite</strong></p>",0,corr_feedback,1,train,8,,,,,,,,,,,,,,,,,,,,,,
,,,,,,,,,,,html-button-response,122,2.0.0,664279,66293ce3dba0764775195e58,4,50,3501,,,,,,,,,"<img src= ""rock_img/I_Pegmatite_06.jpg"" style=""width:8cm; height:5.17cm;""><p>What type of rock is this?</p>",2,class_response,1,train,9,Diorite,Pegmatite,6,FALSE,3,6,,,,,,,,,,,,,,,,
,,,,,,,,,,,html-button-response,123,2.0.0,665747,66293ce3dba0764775195e58,4,50,1466,,,,,,,,,"<img src= rock_img/I_Pegmatite_06.jpg style=""width:8cm; height:5.17cm;""><p style='font-size: 30px; color: red;'><strong>Incorrect!</strong></p><p style='font-size: 30px;'><strong>This rock is pegmatite</strong></p>",0,corr_feedback,1,train,9,,,,,,,,,,,,,,,,,,,,,,
,,,,,,,,,,,html-button-response,124,2.0.0,667780,66293ce3dba0764775195e58,4,50,2032,,,,,,,,,"<img src= ""rock_img/I_Obsidian_12.jpg"" style=""width:8cm; height:6.53cm;""><p>What type of rock is this?</p>",4,class_response,1,train,10,Obsidian,Obsidian,12,TRUE,5,5,,,,,,,,,,,,,,,,
,,,,,,,,,,,html-button-response,125,2.0.0,669077,66293ce3dba0764775195e58,4,50,1296,,,,,,,,,"<img src= rock_img/I_Obsidian_12.jpg style=""width:8cm; height:6.53cm;""><p style='font-size: 30px; color: green;'><strong>Correct!</strong></p><p style='font-size: 30px;'><strong>This rock is obsidian</strong></p>",0,corr_feedback,1,train,10,,,,,,,,,,,,,,,,,,,,,,
,,,,,,,,,,,html-button-response,126,2.0.0,675685,66293ce3dba0764775195e58,4,50,6607,,,,,,,,,"<img src= ""rock_img/I_Gabbro_14.jpg"" style=""width:8cm; height:8.48cm;""><p>What type of rock is this?</p>",0,class_response,1,train,11,Andesite,Gabbro,14,FALSE,1,4,,,,,,,,,,,,,,,,
,,,,,,,,,,,html-button-response,127,2.0.0,677238,66293ce3dba0764775195e58,4,50,1551,,,,,,,,,"<img src= rock_img/I_Gabbro_14.jpg style=""width:8cm; height:8.48cm;""><p style='font-size: 30px; color: red;'><strong>Incorrect!</strong></p><p style='font-size: 30px;'><strong>This rock is gabbro</strong></p>",0,corr_feedback,1,train,11,,,,,,,,,,,,,,,,,,,,,,
,,,,,,,,,,,html-button-response,128,2.0.0,678704,66293ce3dba0764775195e58,4,50,1464,,,,,,,,,"<img src= ""rock_img/I_Basalt_06.jpg"" style=""width:8cm; height:7.06cm;""><p>What type of rock is this?</p>",1,class_response,1,train,12,Basalt,Basalt,6,TRUE,2,2,,,,,,,,,,,,,,,,
,,,,,,,,,,,html-button-response,129,2.0.0,680101,66293ce3dba0764775195e58,4,50,1397,,,,,,,,,"<img src= rock_img/I_Basalt_06.jpg style=""width:8cm; height:7.06cm;""><p style='font-size: 30px; color: green;'><strong>Correct!</strong></p><p style='font-size: 30px;'><strong>This rock is basalt</strong></p>",0,corr_feedback,1,train,12,,,,,,,,,,,,,,,,,,,,,,
,,,,,,,,,,,instructions,130,2.0.0,758806,66293ce3dba0764775195e58,4,50,78704,,,,,,,,"[{""page_index"":0,""viewing_time"":10505},{""page_index"":1,""viewing_time"":18296},{""page_index"":2,""viewing_time"":43196},{""page_index"":3,""viewing_time"":6707}]",,,,,,,,,,,,,,,,,,,,,,,,,,,,
,,,,,,,,,,,html-button-response,131,2.0.0,760235,66293ce3dba0764775195e58,4,50,1428,,,,,,,,,,0,start_train,,,,,,,,,,,,,,,,,,,,,,,,,
,,,,,,,,,,,html-button-response,132,2.0.0,773077,66293ce3dba0764775195e58,4,50,,,,,,,,,,,,cat_selection,1,train,1,,,,,,,4293.5,8545.7,6,1,Pegmatite,Andesite,,,,,,,,,,
,,,,,,,,,,,paired-cat-display,133,1.0.0,844098,66293ce3dba0764775195e58,4,50,,,,,,,,,,,,paired_cat_display,1,train,1,,,,,,,,,,,,,Distinct changes in color and layers,speckled and less abrupt colors,11383.9,59633.2,,,,,,
,,,,,,,,,,,html-button-response,134,2.0.0,851411,66293ce3dba0764775195e58,4,50,,,,,,,,,,,,cat_selection,1,train,2,,,,,,,5367,1945.8,7,4,Peridotite,Gabbro,,,,,,,,,,
,,,,,,,,,,,paired-cat-display,135,1.0.0,909086,66293ce3dba0764775195e58,4,50,,,,,,,,,,,,paired_cat_display,1,train,2,,,,,,,,,,,,,,,14122.4,43549.4,Crystalized more colors,less colors variations less crystalized,,,,
,,,,,,,,,,,html-button-response,136,2.0.0,918039,66293ce3dba0764775195e58,4,50,,,,,,,,,,,,cat_selection,1,train,3,,,,,,,8177.7,775.2,6,7,Pegmatite,Peridotite,,,,,,,,,,
,,,,,,,,,,,paired-cat-display,137,1.0.0,985929,66293ce3dba0764775195e58,4,50,,,,,,,,,,,,paired_cat_display,1,train,3,,,,,,,,,,,,,Stronger color separation's MORE OBVIOUS COLORS,,6887.5,60999.8,more crystalized SUBTLE COLORING,,,,,
,,,,,,,,,,,instructions,138,2.0.0,1001293,66293ce3dba0764775195e58,4,50,15363,,,,,,,,"[{""page_index"":0,""viewing_time"":5671},{""page_index"":1,""viewing_time"":9692}]",,,,,,,,,,,,,,,,,,,,,,,,,,,,
,,,,,,,,,,,html-button-response,139,2.0.0,1006051,66293ce3dba0764775195e58,4,50,4757,,,,,,,,,,0,start_test,,,,,,,,,,,,,,,,,,,,,,,,,
,,,,,,,,,,,html-button-response,140,2.0.0,1010132,66293ce3dba0764775195e58,4,50,4079,,,,,,,,,"<img src= ""rock_img/I_Basalt_02.jpg"" style=""width:8cm; height:6.45cm;""><p>What type of rock is this?</p>",1,class_response,1,test,1,Basalt,Basalt,2,TRUE,2,2,,,,,,,,,,,,,,,,
,,,,,,,,,,,html-keyboard-response,141,2.0.0,1010638,66293ce3dba0764775195e58,4,50,null,,,,,,,,,<p style='font-size: 30px;'><strong>Okay</strong></p>,null,neutral_feedback,1,test,1,,,,,,,,,,,,,,,,,,,,,,
,,,,,,,,,,,html-button-response,142,2.0.0,1016129,66293ce3dba0764775195e58,4,50,5490,,,,,,,,,"<img src= ""rock_img/I_Peridotite_12.jpg"" style=""width:8cm; height:4.54cm;""><p>What type of rock is this?</p>",2,class_response,1,test,2,Diorite,Peridotite,12,FALSE,3,7,,,,,,,,,,,,,,,,
,,,,,,,,,,,html-keyboard-response,143,2.0.0,1016639,66293ce3dba0764775195e58,4,50,null,,,,,,,,,<p style='font-size: 30px;'><strong>Okay</strong></p>,null,neutral_feedback,1,test,2,,,,,,,,,,,,,,,,,,,,,,
,,,,,,,,,,,html-button-response,144,2.0.0,1018353,66293ce3dba0764775195e58,4,50,1713,,,,,,,,,"<img src= ""rock_img/I_Pumice_04.jpg"" style=""width:8cm; height:6.819999999999999cm;""><p>What type of rock is this?</p>",7,class_response,1,test,3,Pumice,Pumice,4,TRUE,8,8,,,,,,,,,,,,,,,,
,,,,,,,,,,,html-keyboard-response,145,2.0.0,1018857,66293ce3dba0764775195e58,4,50,null,,,,,,,,,<p style='font-size: 30px;'><strong>Okay</strong></p>,null,neutral_feedback,1,test,3,,,,,,,,,,,,,,,,,,,,,,
,,,,,,,,,,,html-button-response,146,2.0.0,1021320,66293ce3dba0764775195e58,4,50,2462,,,,,,,,,"<img src= ""rock_img/I_Obsidian_06.jpg"" style=""width:8cm; height:6.8cm;""><p>What type of rock is this?</p>",4,class_response,1,test,4,Obsidian,Obsidian,6,TRUE,5,5,,,,,,,,,,,,,,,,
,,,,,,,,,,,html-keyboard-response,147,2.0.0,1021833,66293ce3dba0764775195e58,4,50,null,,,,,,,,,<p style='font-size: 30px;'><strong>Okay</strong></p>,null,neutral_feedback,1,test,4,,,,,,,,,,,,,,,,,,,,,,
,,,,,,,,,,,html-button-response,148,2.0.0,1022765,66293ce3dba0764775195e58,4,50,930,,,,,,,,,"<img src= ""rock_img/I_Obsidian_11.jpg"" style=""width:8cm; height:6.05cm;""><p>What type of rock is this?</p>",4,class_response,1,test,5,Obsidian,Obsidian,11,TRUE,5,5,,,,,,,,,,,,,,,,
,,,,,,,,,,,html-keyboard-response,149,2.0.0,1023276,66293ce3dba0764775195e58,4,50,null,,,,,,,,,<p style='font-size: 30px;'><strong>Okay</strong></p>,null,neutral_feedback,1,test,5,,,,,,,,,,,,,,,,,,,,,,
,,,,,,,,,,,html-button-response,150,2.0.0,1033631,66293ce3dba0764775195e58,4,50,10353,,,,,,,,,"<img src= ""rock_img/I_Pegmatite_16.jpg"" style=""width:8cm; height:5.8cm;""><p>What type of rock is this?</p>",5,class_response,1,test,6,Pegmatite,Pegmatite,16,TRUE,6,6,,,,,,,,,,,,,,,,
,,,,,,,,,,,html-keyboard-response,151,2.0.0,1034144,66293ce3dba0764775195e58,4,50,null,,,,,,,,,<p style='font-size: 30px;'><strong>Okay</strong></p>,null,neutral_feedback,1,test,6,,,,,,,,,,,,,,,,,,,,,,
,,,,,,,,,,,html-button-response,152,2.0.0,1037860,66293ce3dba0764775195e58,4,50,3713,,,,,,,,,"<img src= ""rock_img/I_Andesite_10.jpg"" style=""width:8cm; height:4.16cm;""><p>What type of rock is this?</p>",6,class_response,1,test,7,Peridotite,Andesite,10,FALSE,7,1,,,,,,,,,,,,,,,,
,,,,,,,,,,,html-keyboard-response,153,2.0.0,1038362,66293ce3dba0764775195e58,4,50,null,,,,,,,,,<p style='font-size: 30px;'><strong>Okay</strong></p>,null,neutral_feedback,1,test,7,,,,,,,,,,,,,,,,,,,,,,
,,,,,,,,,,,html-button-response,154,2.0.0,1040622,66293ce3dba0764775195e58,4,50,2257,,,,,,,,,"<img src= ""rock_img/I_Basalt_10.jpg"" style=""width:8cm; height:5.85cm;""><p>What type of rock is this?</p>",1,class_response,1,test,8,Basalt,Basalt,10,TRUE,2,2,,,,,,,,,,,,,,,,
,,,,,,,,,,,html-keyboard-response,155,2.0.0,1041135,66293ce3dba0764775195e58,4,50,null,,,,,,,,,<p style='font-size: 30px;'><strong>Okay</strong></p>,null,neutral_feedback,1,test,8,,,,,,,,,,,,,,,,,,,,,,
,,,,,,,,,,,html-button-response,156,2.0.0,1048560,66293ce3dba0764775195e58,4,50,7421,,,,,,,,,"<img src= ""rock_img/I_Pegmatite_12.jpg"" style=""width:8cm; height:5.7cm;""><p>What type of rock is this?</p>",5,class_response,1,test,9,Pegmatite,Pegmatite,12,TRUE,6,6,,,,,,,,,,,,,,,,
,,,,,,,,,,,html-keyboard-response,157,2.0.0,1049073,66293ce3dba0764775195e58,4,50,null,,,,,,,,,<p style='font-size: 30px;'><strong>Okay</strong></p>,null,neutral_feedback,1,test,9,,,,,,,,,,,,,,,,,,,,,,
,,,,,,,,,,,html-button-response,158,2.0.0,1053879,66293ce3dba0764775195e58,4,50,4805,,,,,,,,,"<img src= ""rock_img/I_Basalt_16.jpg"" style=""width:8cm; height:7.659999999999999cm;""><p>What type of rock is this?</p>",3,class_response,1,test,10,Gabbro,Basalt,16,FALSE,4,2,,,,,,,,,,,,,,,,
,,,,,,,,,,,html-keyboard-response,159,2.0.0,1054388,66293ce3dba0764775195e58,4,50,null,,,,,,,,,<p style='font-size: 30px;'><strong>Okay</strong></p>,null,neutral_feedback,1,test,10,,,,,,,,,,,,,,,,,,,,,,
,,,,,,,,,,,html-button-response,160,2.0.0,1057881,66293ce3dba0764775195e58,4,50,3490,,,,,,,,,"<img src= ""rock_img/I_Gabbro_15.jpg"" style=""width:8cm; height:6.29cm;""><p>What type of rock is this?</p>",2,class_response,1,test,11,Diorite,Gabbro,15,FALSE,3,4,,,,,,,,,,,,,,,,
,,,,,,,,,,,html-keyboard-response,161,2.0.0,1058397,66293ce3dba0764775195e58,4,50,null,,,,,,,,,<p style='font-size: 30px;'><strong>Okay</strong></p>,null,neutral_feedback,1,test,11,,,,,,,,,,,,,,,,,,,,,,
,,,,,,,,,,,html-button-response,162,2.0.0,1063867,66293ce3dba0764775195e58,4,50,5468,,,,,,,,,"<img src= ""rock_img/I_Andesite_11.jpg"" style=""width:8cm; height:4.92cm;""><p>What type of rock is this?</p>",0,class_response,1,test,12,Andesite,Andesite,11,TRUE,1,1,,,,,,,,,,,,,,,,
,,,,,,,,,,,html-keyboard-response,163,2.0.0,1064375,66293ce3dba0764775195e58,4,50,null,,,,,,,,,<p style='font-size: 30px;'><strong>Okay</strong></p>,null,neutral_feedback,1,test,12,,,,,,,,,,,,,,,,,,,,,,
,,,,,,,,,,,html-button-response,164,2.0.0,1067048,66293ce3dba0764775195e58,4,50,2671,,,,,,,,,"<img src= ""rock_img/I_Andesite_14.jpg"" style=""width:8cm; height:5.449999999999999cm;""><p>What type of rock is this?</p>",5,class_response,1,test,13,Pegmatite,Andesite,14,FALSE,6,1,,,,,,,,,,,,,,,,
,,,,,,,,,,,html-keyboard-response,165,2.0.0,1067557,66293ce3dba0764775195e58,4,50,null,,,,,,,,,<p style='font-size: 30px;'><strong>Okay</strong></p>,null,neutral_feedback,1,test,13,,,,,,,,,,,,,,,,,,,,,,
,,,,,,,,,,,html-button-response,166,2.0.0,1069046,66293ce3dba0764775195e58,4,50,1486,,,,,,,,,"<img src= ""rock_img/I_Pumice_10.jpg"" style=""width:8cm; height:7.609999999999999cm;""><p>What type of rock is this?</p>",7,class_response,1,test,14,Pumice,Pumice,10,TRUE,8,8,,,,,,,,,,,,,,,,
,,,,,,,,,,,html-keyboard-response,167,2.0.0,1069557,66293ce3dba0764775195e58,4,50,null,,,,,,,,,<p style='font-size: 30px;'><strong>Okay</strong></p>,null,neutral_feedback,1,test,14,,,,,,,,,,,,,,,,,,,,,,
,,,,,,,,,,,html-button-response,168,2.0.0,1073494,66293ce3dba0764775195e58,4,50,3936,,,,,,,,,"<img src= ""rock_img/I_Andesite_09.jpg"" style=""width:8cm; height:6cm;""><p>What type of rock is this?</p>",0,class_response,1,test,15,Andesite,Andesite,9,TRUE,1,1,,,,,,,,,,,,,,,,
,,,,,,,,,,,html-keyboard-response,169,2.0.0,1074010,66293ce3dba0764775195e58,4,50,null,,,,,,,,,<p style='font-size: 30px;'><strong>Okay</strong></p>,null,neutral_feedback,1,test,15,,,,,,,,,,,,,,,,,,,,,,
,,,,,,,,,,,html-button-response,170,2.0.0,1076910,66293ce3dba0764775195e58,4,50,2898,,,,,,,,,"<img src= ""rock_img/I_Obsidian_14.jpg"" style=""width:8cm; height:7.64cm;""><p>What type of rock is this?</p>",4,class_response,1,test,16,Obsidian,Obsidian,14,TRUE,5,5,,,,,,,,,,,,,,,,
,,,,,,,,,,,html-keyboard-response,171,2.0.0,1077425,66293ce3dba0764775195e58,4,50,null,,,,,,,,,<p style='font-size: 30px;'><strong>Okay</strong></p>,null,neutral_feedback,1,test,16,,,,,,,,,,,,,,,,,,,,,,
,,,,,,,,,,,html-button-response,172,2.0.0,1083888,66293ce3dba0764775195e58,4,50,6461,,,,,,,,,"<img src= ""rock_img/I_Diorite_10.jpg"" style=""width:8cm; height:5.949999999999999cm;""><p>What type of rock is this?</p>",6,class_response,1,test,17,Peridotite,Diorite,10,FALSE,7,3,,,,,,,,,,,,,,,,
,,,,,,,,,,,html-keyboard-response,173,2.0.0,1084394,66293ce3dba0764775195e58,4,50,null,,,,,,,,,<p style='font-size: 30px;'><strong>Okay</strong></p>,null,neutral_feedback,1,test,17,,,,,,,,,,,,,,,,,,,,,,
,,,,,,,,,,,html-button-response,174,2.0.0,1091423,66293ce3dba0764775195e58,4,50,7027,,,,,,,,,"<img src= ""rock_img/I_Gabbro_10.jpg"" style=""width:8cm; height:5.680000000000001cm;""><p>What type of rock is this?</p>",6,class_response,1,test,18,Peridotite,Gabbro,10,FALSE,7,4,,,,,,,,,,,,,,,,
,,,,,,,,,,,html-keyboard-response,175,2.0.0,1091933,66293ce3dba0764775195e58,4,50,null,,,,,,,,,<p style='font-size: 30px;'><strong>Okay</strong></p>,null,neutral_feedback,1,test,18,,,,,,,,,,,,,,,,,,,,,,
,,,,,,,,,,,html-button-response,176,2.0.0,1096104,66293ce3dba0764775195e58,4,50,4168,,,,,,,,,"<img src= ""rock_img/I_Diorite_11.jpg"" style=""width:8cm; height:7.11cm;""><p>What type of rock is this?</p>",5,class_response,1,test,19,Pegmatite,Diorite,11,FALSE,6,3,,,,,,,,,,,,,,,,
,,,,,,,,,,,html-keyboard-response,177,2.0.0,1096621,66293ce3dba0764775195e58,4,50,null,,,,,,,,,<p style='font-size: 30px;'><strong>Okay</strong></p>,null,neutral_feedback,1,test,19,,,,,,,,,,,,,,,,,,,,,,
,,,,,,,,,,,html-button-response,178,2.0.0,1102004,66293ce3dba0764775195e58,4,50,5382,,,,,,,,,"<img src= ""rock_img/I_Peridotite_14.jpg"" style=""width:8cm; height:5.3cm;""><p>What type of rock is this?</p>",5,class_response,1,test,20,Pegmatite,Peridotite,14,FALSE,6,7,,,,,,,,,,,,,,,,
,,,,,,,,,,,html-keyboard-response,179,2.0.0,1102517,66293ce3dba0764775195e58,4,50,null,,,,,,,,,<p style='font-size: 30px;'><strong>Okay</strong></p>,null,neutral_feedback,1,test,20,,,,,,,,,,,,,,,,,,,,,,
,,,,,,,,,,,html-button-response,180,2.0.0,1105865,66293ce3dba0764775195e58,4,50,3347,,,,,,,,,"<img src= ""rock_img/I_Diorite_07.jpg"" style=""width:8cm; height:5.239999999999999cm;""><p>What type of rock is this?</p>",2,class_response,1,test,21,Diorite,Diorite,7,TRUE,3,3,,,,,,,,,,,,,,,,
,,,,,,,,,,,html-keyboard-response,181,2.0.0,1106369,66293ce3dba0764775195e58,4,50,null,,,,,,,,,<p style='font-size: 30px;'><strong>Okay</strong></p>,null,neutral_feedback,1,test,21,,,,,,,,,,,,,,,,,,,,,,
,,,,,,,,,,,html-button-response,182,2.0.0,1107814,66293ce3dba0764775195e58,4,50,1442,,,,,,,,,"<img src= ""rock_img/I_Peridotite_02.jpg"" style=""width:8cm; height:5.859999999999999cm;""><p>What type of rock is this?</p>",5,class_response,1,test,22,Pegmatite,Peridotite,2,FALSE,6,7,,,,,,,,,,,,,,,,
,,,,,,,,,,,html-keyboard-response,183,2.0.0,1108326,66293ce3dba0764775195e58,4,50,null,,,,,,,,,<p style='font-size: 30px;'><strong>Okay</strong></p>,null,neutral_feedback,1,test,22,,,,,,,,,,,,,,,,,,,,,,
,,,,,,,,,,,html-button-response,184,2.0.0,1110245,66293ce3dba0764775195e58,4,50,1918,,,,,,,,,"<img src= ""rock_img/I_Obsidian_05.jpg"" style=""width:8cm; height:6.33cm;""><p>What type of rock is this?</p>",4,class_response,1,test,23,Obsidian,Obsidian,5,TRUE,5,5,,,,,,,,,,,,,,,,
,,,,,,,,,,,html-keyboard-response,185,2.0.0,1110750,66293ce3dba0764775195e58,4,50,null,,,,,,,,,<p style='font-size: 30px;'><strong>Okay</strong></p>,null,neutral_feedback,1,test,23,,,,,,,,,,,,,,,,,,,,,,
,,,,,,,,,,,html-button-response,186,2.0.0,1111539,66293ce3dba0764775195e58,4,50,787,,,,,,,,,"<img src= ""rock_img/I_Obsidian_10.jpg"" style=""width:8cm; height:6.260000000000001cm;""><p>What type of rock is this?</p>",4,class_response,1,test,24,Obsidian,Obsidian,10,TRUE,5,5,,,,,,,,,,,,,,,,
,,,,,,,,,,,html-keyboard-response,187,2.0.0,1112055,66293ce3dba0764775195e58,4,50,null,,,,,,,,,<p style='font-size: 30px;'><strong>Okay</strong></p>,null,neutral_feedback,1,test,24,,,,,,,,,,,,,,,,,,,,,,
,,,,,,,,,,,html-button-response,188,2.0.0,1113711,66293ce3dba0764775195e58,4,50,1654,,,,,,,,,"<img src= ""rock_img/I_Basalt_09.jpg"" style=""width:8cm; height:6.2cm;""><p>What type of rock is this?</p>",1,class_response,1,test,25,Basalt,Basalt,9,TRUE,2,2,,,,,,,,,,,,,,,,
,,,,,,,,,,,html-keyboard-response,189,2.0.0,1114227,66293ce3dba0764775195e58,4,50,null,,,,,,,,,<p style='font-size: 30px;'><strong>Okay</strong></p>,null,neutral_feedback,1,test,25,,,,,,,,,,,,,,,,,,,,,,
,,,,,,,,,,,html-button-response,190,2.0.0,1118935,66293ce3dba0764775195e58,4,50,4706,,,,,,,,,"<img src= ""rock_img/I_Diorite_02.jpg"" style=""width:8cm; height:6.27cm;""><p>What type of rock is this?</p>",2,class_response,1,test,26,Diorite,Diorite,2,TRUE,3,3,,,,,,,,,,,,,,,,
,,,,,,,,,,,html-keyboard-response,191,2.0.0,1119449,66293ce3dba0764775195e58,4,50,null,,,,,,,,,<p style='font-size: 30px;'><strong>Okay</strong></p>,null,neutral_feedback,1,test,26,,,,,,,,,,,,,,,,,,,,,,
,,,,,,,,,,,html-button-response,192,2.0.0,1121094,66293ce3dba0764775195e58,4,50,1642,,,,,,,,,"<img src= ""rock_img/I_Pegmatite_09.jpg"" style=""width:8cm; height:4.03cm;""><p>What type of rock is this?</p>",5,class_response,1,test,27,Pegmatite,Pegmatite,9,TRUE,6,6,,,,,,,,,,,,,,,,
,,,,,,,,,,,html-keyboard-response,193,2.0.0,1121607,66293ce3dba0764775195e58,4,50,null,,,,,,,,,<p style='font-size: 30px;'><strong>Okay</strong></p>,null,neutral_feedback,1,test,27,,,,,,,,,,,,,,,,,,,,,,
,,,,,,,,,,,html-button-response,194,2.0.0,1127552,66293ce3dba0764775195e58,4,50,5944,,,,,,,,,"<img src= ""rock_img/I_Peridotite_15.jpg"" style=""width:8cm; height:6cm;""><p>What type of rock is this?</p>",5,class_response,1,test,28,Pegmatite,Peridotite,15,FALSE,6,7,,,,,,,,,,,,,,,,
,,,,,,,,,,,html-keyboard-response,195,2.0.0,1128055,66293ce3dba0764775195e58,4,50,null,,,,,,,,,<p style='font-size: 30px;'><strong>Okay</strong></p>,null,neutral_feedback,1,test,28,,,,,,,,,,,,,,,,,,,,,,
,,,,,,,,,,,html-button-response,196,2.0.0,1135763,66293ce3dba0764775195e58,4,50,7707,,,,,,,,,"<img src= ""rock_img/I_Gabbro_08.jpg"" style=""width:8cm; height:5.15cm;""><p>What type of rock is this?</p>",6,class_response,1,test,29,Peridotite,Gabbro,8,FALSE,7,4,,,,,,,,,,,,,,,,
,,,,,,,,,,,html-keyboard-response,197,2.0.0,1136273,66293ce3dba0764775195e58,4,50,null,,,,,,,,,<p style='font-size: 30px;'><strong>Okay</strong></p>,null,neutral_feedback,1,test,29,,,,,,,,,,,,,,,,,,,,,,
,,,,,,,,,,,html-button-response,198,2.0.0,1142332,66293ce3dba0764775195e58,4,50,6056,,,,,,,,,"<img src= ""rock_img/I_Andesite_06.jpg"" style=""width:8cm; height:6.840000000000001cm;""><p>What type of rock is this?</p>",6,class_response,1,test,30,Peridotite,Andesite,6,FALSE,7,1,,,,,,,,,,,,,,,,
,,,,,,,,,,,html-keyboard-response,199,2.0.0,1142840,66293ce3dba0764775195e58,4,50,null,,,,,,,,,<p style='font-size: 30px;'><strong>Okay</strong></p>,null,neutral_feedback,1,test,30,,,,,,,,,,,,,,,,,,,,,,
,,,,,,,,,,,html-button-response,200,2.0.0,1147405,66293ce3dba0764775195e58,4,50,4562,,,,,,,,,"<img src= ""rock_img/I_Gabbro_03.jpg"" style=""width:8cm; height:8.52cm;""><p>What type of rock is this?</p>",3,class_response,1,test,31,Gabbro,Gabbro,3,TRUE,4,4,,,,,,,,,,,,,,,,
,,,,,,,,,,,html-keyboard-response,201,2.0.0,1147915,66293ce3dba0764775195e58,4,50,null,,,,,,,,,<p style='font-size: 30px;'><strong>Okay</strong></p>,null,neutral_feedback,1,test,31,,,,,,,,,,,,,,,,,,,,,,
,,,,,,,,,,,html-button-response,202,2.0.0,1149589,66293ce3dba0764775195e58,4,50,1672,,,,,,,,,"<img src= ""rock_img/I_Basalt_01.jpg"" style=""width:8cm; height:7.880000000000001cm;""><p>What type of rock is this?</p>",1,class_response,1,test,32,Basalt,Basalt,1,TRUE,2,2,,,,,,,,,,,,,,,,
,,,,,,,,,,,html-keyboard-response,203,2.0.0,1150099,66293ce3dba0764775195e58,4,50,null,,,,,,,,,<p style='font-size: 30px;'><strong>Okay</strong></p>,null,neutral_feedback,1,test,32,,,,,,,,,,,,,,,,,,,,,,
,,,,,,,,,,,html-button-response,204,2.0.0,1154285,66293ce3dba0764775195e58,4,50,4185,,,,,,,,,"<img src= ""rock_img/I_Diorite_09.jpg"" style=""width:8cm; height:5.27cm;""><p>What type of rock is this?</p>",2,class_response,1,test,33,Diorite,Diorite,9,TRUE,3,3,,,,,,,,,,,,,,,,
,,,,,,,,,,,html-keyboard-response,205,2.0.0,1154789,66293ce3dba0764775195e58,4,50,null,,,,,,,,,<p style='font-size: 30px;'><strong>Okay</strong></p>,null,neutral_feedback,1,test,33,,,,,,,,,,,,,,,,,,,,,,
,,,,,,,,,,,html-button-response,206,2.0.0,1158424,66293ce3dba0764775195e58,4,50,3633,,,,,,,,,"<img src= ""rock_img/I_Gabbro_11.jpg"" style=""width:8cm; height:6.2cm;""><p>What type of rock is this?</p>",0,class_response,1,test,34,Andesite,Gabbro,11,FALSE,1,4,,,,,,,,,,,,,,,,
,,,,,,,,,,,html-keyboard-response,207,2.0.0,1158935,66293ce3dba0764775195e58,4,50,null,,,,,,,,,<p style='font-size: 30px;'><strong>Okay</strong></p>,null,neutral_feedback,1,test,34,,,,,,,,,,,,,,,,,,,,,,
,,,,,,,,,,,html-button-response,208,2.0.0,1160602,66293ce3dba0764775195e58,4,50,1665,,,,,,,,,"<img src= ""rock_img/I_Pumice_05.jpg"" style=""width:8cm; height:7.25cm;""><p>What type of rock is this?</p>",7,class_response,1,test,35,Pumice,Pumice,5,TRUE,8,8,,,,,,,,,,,,,,,,
,,,,,,,,,,,html-keyboard-response,209,2.0.0,1161105,66293ce3dba0764775195e58,4,50,null,,,,,,,,,<p style='font-size: 30px;'><strong>Okay</strong></p>,null,neutral_feedback,1,test,35,,,,,,,,,,,,,,,,,,,,,,
,,,,,,,,,,,html-button-response,210,2.0.0,1169287,66293ce3dba0764775195e58,4,50,8180,,,,,,,,,"<img src= ""rock_img/I_Diorite_12.jpg"" style=""width:8cm; height:4.88cm;""><p>What type of rock is this?</p>",2,class_response,1,test,36,Diorite,Diorite,12,TRUE,3,3,,,,,,,,,,,,,,,,
,,,,,,,,,,,html-keyboard-response,211,2.0.0,1169791,66293ce3dba0764775195e58,4,50,null,,,,,,,,,<p style='font-size: 30px;'><strong>Okay</strong></p>,null,neutral_feedback,1,test,36,,,,,,,,,,,,,,,,,,,,,,
,,,,,,,,,,,html-button-response,212,2.0.0,1173353,66293ce3dba0764775195e58,4,50,3560,,,,,,,,,"<img src= ""rock_img/I_Basalt_08.jpg"" style=""width:8cm; height:10.44cm;""><p>What type of rock is this?</p>",1,class_response,1,test,37,Basalt,Basalt,8,TRUE,2,2,,,,,,,,,,,,,,,,
,,,,,,,,,,,html-keyboard-response,213,2.0.0,1173868,66293ce3dba0764775195e58,4,50,null,,,,,,,,,<p style='font-size: 30px;'><strong>Okay</strong></p>,null,neutral_feedback,1,test,37,,,,,,,,,,,,,,,,,,,,,,
,,,,,,,,,,,html-button-response,214,2.0.0,1177388,66293ce3dba0764775195e58,4,50,3519,,,,,,,,,"<img src= ""rock_img/I_Pegmatite_03.jpg"" style=""width:8cm; height:5.239999999999999cm;""><p>What type of rock is this?</p>",5,class_response,1,test,38,Pegmatite,Pegmatite,3,TRUE,6,6,,,,,,,,,,,,,,,,
,,,,,,,,,,,html-keyboard-response,215,2.0.0,1177892,66293ce3dba0764775195e58,4,50,null,,,,,,,,,<p style='font-size: 30px;'><strong>Okay</strong></p>,null,neutral_feedback,1,test,38,,,,,,,,,,,,,,,,,,,,,,
,,,,,,,,,,,html-button-response,216,2.0.0,1180799,66293ce3dba0764775195e58,4,50,2905,,,,,,,,,"<img src= ""rock_img/I_Pumice_14.jpg"" style=""width:8cm; height:6.39cm;""><p>What type of rock is this?</p>",7,class_response,1,test,39,Pumice,Pumice,14,TRUE,8,8,,,,,,,,,,,,,,,,
,,,,,,,,,,,html-keyboard-response,217,2.0.0,1181312,66293ce3dba0764775195e58,4,50,null,,,,,,,,,<p style='font-size: 30px;'><strong>Okay</strong></p>,null,neutral_feedback,1,test,39,,,,,,,,,,,,,,,,,,,,,,
,,,,,,,,,,,html-button-response,218,2.0.0,1182774,66293ce3dba0764775195e58,4,50,1459,,,,,,,,,"<img src= ""rock_img/I_Obsidian_02.jpg"" style=""width:8cm; height:7.51cm;""><p>What type of rock is this?</p>",4,class_response,1,test,40,Obsidian,Obsidian,2,TRUE,5,5,,,,,,,,,,,,,,,,
,,,,,,,,,,,html-keyboard-response,219,2.0.0,1183285,66293ce3dba0764775195e58,4,50,null,,,,,,,,,<p style='font-size: 30px;'><strong>Okay</strong></p>,null,neutral_feedback,1,test,40,,,,,,,,,,,,,,,,,,,,,,
,,,,,,,,,,,html-button-response,220,2.0.0,1193820,66293ce3dba0764775195e58,4,50,10534,,,,,,,,,"<img src= ""rock_img/I_Gabbro_05.jpg"" style=""width:8cm; height:6cm;""><p>What type of rock is this?</p>",6,class_response,1,test,41,Peridotite,Gabbro,5,FALSE,7,4,,,,,,,,,,,,,,,,
,,,,,,,,,,,html-keyboard-response,221,2.0.0,1194330,66293ce3dba0764775195e58,4,50,null,,,,,,,,,<p style='font-size: 30px;'><strong>Okay</strong></p>,null,neutral_feedback,1,test,41,,,,,,,,,,,,,,,,,,,,,,
,,,,,,,,,,,html-button-response,222,2.0.0,1199777,66293ce3dba0764775195e58,4,50,5446,,,,,,,,,"<img src= ""rock_img/I_Peridotite_10.jpg"" style=""width:8cm; height:5.390000000000001cm;""><p>What type of rock is this?</p>",6,class_response,1,test,42,Peridotite,Peridotite,10,TRUE,7,7,,,,,,,,,,,,,,,,
,,,,,,,,,,,html-keyboard-response,223,2.0.0,1200282,66293ce3dba0764775195e58,4,50,null,,,,,,,,,<p style='font-size: 30px;'><strong>Okay</strong></p>,null,neutral_feedback,1,test,42,,,,,,,,,,,,,,,,,,,,,,
,,,,,,,,,,,html-button-response,224,2.0.0,1206654,66293ce3dba0764775195e58,4,50,6369,,,,,,,,,"<img src= ""rock_img/I_Peridotite_13.jpg"" style=""width:8cm; height:7.58cm;""><p>What type of rock is this?</p>",0,class_response,1,test,43,Andesite,Peridotite,13,FALSE,1,7,,,,,,,,,,,,,,,,
,,,,,,,,,,,html-keyboard-response,225,2.0.0,1207156,66293ce3dba0764775195e58,4,50,null,,,,,,,,,<p style='font-size: 30px;'><strong>Okay</strong></p>,null,neutral_feedback,1,test,43,,,,,,,,,,,,,,,,,,,,,,
,,,,,,,,,,,html-button-response,226,2.0.0,1209168,66293ce3dba0764775195e58,4,50,2011,,,,,,,,,"<img src= ""rock_img/I_Pegmatite_05.jpg"" style=""width:8cm; height:7.300000000000001cm;""><p>What type of rock is this?</p>",5,class_response,1,test,44,Pegmatite,Pegmatite,5,TRUE,6,6,,,,,,,,,,,,,,,,
,,,,,,,,,,,html-keyboard-response,227,2.0.0,1209679,66293ce3dba0764775195e58,4,50,null,,,,,,,,,<p style='font-size: 30px;'><strong>Okay</strong></p>,null,neutral_feedback,1,test,44,,,,,,,,,,,,,,,,,,,,,,
,,,,,,,,,,,html-button-response,228,2.0.0,1226170,66293ce3dba0764775195e58,4,50,16489,,,,,,,,,"<img src= ""rock_img/I_Andesite_01.jpg"" style=""width:8cm; height:5.87cm;""><p>What type of rock is this?</p>",0,class_response,1,test,45,Andesite,Andesite,1,TRUE,1,1,,,,,,,,,,,,,,,,
,,,,,,,,,,,html-keyboard-response,229,2.0.0,1226676,66293ce3dba0764775195e58,4,50,null,,,,,,,,,<p style='font-size: 30px;'><strong>Okay</strong></p>,null,neutral_feedback,1,test,45,,,,,,,,,,,,,,,,,,,,,,
,,,,,,,,,,,html-button-response,230,2.0.0,1231187,66293ce3dba0764775195e58,4,50,4510,,,,,,,,,"<img src= ""rock_img/I_Pumice_15.jpg"" style=""width:8cm; height:7.86cm;""><p>What type of rock is this?</p>",7,class_response,1,test,46,Pumice,Pumice,15,TRUE,8,8,,,,,,,,,,,,,,,,
,,,,,,,,,,,html-keyboard-response,231,2.0.0,1231690,66293ce3dba0764775195e58,4,50,null,,,,,,,,,<p style='font-size: 30px;'><strong>Okay</strong></p>,null,neutral_feedback,1,test,46,,,,,,,,,,,,,,,,,,,,,,
,,,,,,,,,,,html-button-response,232,2.0.0,1233058,66293ce3dba0764775195e58,4,50,1366,,,,,,,,,"<img src= ""rock_img/I_Pegmatite_07.jpg"" style=""width:8cm; height:6.7cm;""><p>What type of rock is this?</p>",5,class_response,1,test,47,Pegmatite,Pegmatite,7,TRUE,6,6,,,,,,,,,,,,,,,,
,,,,,,,,,,,html-keyboard-response,233,2.0.0,1233564,66293ce3dba0764775195e58,4,50,null,,,,,,,,,<p style='font-size: 30px;'><strong>Okay</strong></p>,null,neutral_feedback,1,test,47,,,,,,,,,,,,,,,,,,,,,,
,,,,,,,,,,,html-button-response,234,2.0.0,1234962,66293ce3dba0764775195e58,4,50,1396,,,,,,,,,"<img src= ""rock_img/I_Pumice_16.jpg"" style=""width:8cm; height:6.79cm;""><p>What type of rock is this?</p>",7,class_response,1,test,48,Pumice,Pumice,16,TRUE,8,8,,,,,,,,,,,,,,,,
,,,,,,,,,,,html-keyboard-response,235,2.0.0,1235464,66293ce3dba0764775195e58,4,50,null,,,,,,,,,<p style='font-size: 30px;'><strong>Okay</strong></p>,null,neutral_feedback,1,test,48,,,,,,,,,,,,,,,,,,,,,,
,,,,,,,,,,,html-button-response,236,2.0.0,1271604,66293ce3dba0764775195e58,4,50,,,,,,,,,,,,cycle_feedback,,,,,,,,,,,,,,,,,,,,,,13977.2,22148.9,,
,,,,,,,,,,,html-button-response,238,2.0.0,1273239,66293ce3dba0764775195e58,4,50,1634,,,,,,,,,,0,start_train,,,,,,,,,,,,,,,,,,,,,,,,,
,,,,,,,,,,,html-button-response,240,2.0.0,1283653,66293ce3dba0764775195e58,4,50,10413,,,,,,,,,"<img src= ""rock_img/I_Gabbro_13.jpg"" style=""width:8cm; height:5.08cm;""><p>What type of rock is this?</p>",2,class_response,2,train,1,Diorite,Gabbro,13,FALSE,3,4,,,,,,,,,,,,,,,,
,,,,,,,,,,,html-button-response,241,2.0.0,1285491,66293ce3dba0764775195e58,4,50,1837,,,,,,,,,"<img src= rock_img/I_Gabbro_13.jpg style=""width:8cm; height:5.08cm;""><p style='font-size: 30px; color: red;'><strong>Incorrect!</strong></p><p style='font-size: 30px;'><strong>This rock is gabbro</strong></p>",0,corr_feedback,2,train,1,,,,,,,,,,,,,,,,,,,,,,
,,,,,,,,,,,html-button-response,242,2.0.0,1287174,66293ce3dba0764775195e58,4,50,1682,,,,,,,,,"<img src= ""rock_img/I_Pumice_02.jpg"" style=""width:8cm; height:7.3999999999999995cm;""><p>What type of rock is this?</p>",7,class_response,2,train,2,Pumice,Pumice,2,TRUE,8,8,,,,,,,,,,,,,,,,
,,,,,,,,,,,html-button-response,243,2.0.0,1288509,66293ce3dba0764775195e58,4,50,1334,,,,,,,,,"<img src= rock_img/I_Pumice_02.jpg style=""width:8cm; height:7.3999999999999995cm;""><p style='font-size: 30px; color: green;'><strong>Correct!</strong></p><p style='font-size: 30px;'><strong>This rock is pumice</strong></p>",0,corr_feedback,2,train,2,,,,,,,,,,,,,,,,,,,,,,
,,,,,,,,,,,html-button-response,244,2.0.0,1290099,66293ce3dba0764775195e58,4,50,1589,,,,,,,,,"<img src= ""rock_img/I_Peridotite_07.jpg"" style=""width:8cm; height:4.83cm;""><p>What type of rock is this?</p>",0,class_response,2,train,3,Andesite,Peridotite,7,FALSE,1,7,,,,,,,,,,,,,,,,
,,,,,,,,,,,html-button-response,245,2.0.0,1291506,66293ce3dba0764775195e58,4,50,1406,,,,,,,,,"<img src= rock_img/I_Peridotite_07.jpg style=""width:8cm; height:4.83cm;""><p style='font-size: 30px; color: red;'><strong>Incorrect!</strong></p><p style='font-size: 30px;'><strong>This rock is peridotite</strong></p>",0,corr_feedback,2,train,3,,,,,,,,,,,,,,,,,,,,,,
,,,,,,,,,,,html-button-response,246,2.0.0,1293512,66293ce3dba0764775195e58,4,50,2004,,,,,,,,,"<img src= ""rock_img/I_Pegmatite_10.jpg"" style=""width:8cm; height:4.16cm;""><p>What type of rock is this?</p>",5,class_response,2,train,4,Pegmatite,Pegmatite,10,TRUE,6,6,,,,,,,,,,,,,,,,
,,,,,,,,,,,html-button-response,247,2.0.0,1294907,66293ce3dba0764775195e58,4,50,1394,,,,,,,,,"<img src= rock_img/I_Pegmatite_10.jpg style=""width:8cm; height:4.16cm;""><p style='font-size: 30px; color: green;'><strong>Correct!</strong></p><p style='font-size: 30px;'><strong>This rock is pegmatite</strong></p>",0,corr_feedback,2,train,4,,,,,,,,,,,,,,,,,,,,,,
,,,,,,,,,,,html-button-response,248,2.0.0,1296517,66293ce3dba0764775195e58,4,50,1608,,,,,,,,,"<img src= ""rock_img/I_Pumice_06.jpg"" style=""width:8cm; height:6.9399999999999995cm;""><p>What type of rock is this?</p>",7,class_response,2,train,5,Pumice,Pumice,6,TRUE,8,8,,,,,,,,,,,,,,,,
,,,,,,,,,,,html-button-response,249,2.0.0,1297642,66293ce3dba0764775195e58,4,50,1124,,,,,,,,,"<img src= rock_img/I_Pumice_06.jpg style=""width:8cm; height:6.9399999999999995cm;""><p style='font-size: 30px; color: green;'><strong>Correct!</strong></p><p style='font-size: 30px;'><strong>This rock is pumice</strong></p>",0,corr_feedback,2,train,5,,,,,,,,,,,,,,,,,,,,,,
,,,,,,,,,,,html-button-response,250,2.0.0,1299173,66293ce3dba0764775195e58,4,50,1530,,,,,,,,,"<img src= ""rock_img/I_Obsidian_12.jpg"" style=""width:8cm; height:6.53cm;""><p>What type of rock is this?</p>",4,class_response,2,train,6,Obsidian,Obsidian,12,TRUE,5,5,,,,,,,,,,,,,,,,
,,,,,,,,,,,html-button-response,251,2.0.0,1300718,66293ce3dba0764775195e58,4,50,1544,,,,,,,,,"<img src= rock_img/I_Obsidian_12.jpg style=""width:8cm; height:6.53cm;""><p style='font-size: 30px; color: green;'><strong>Correct!</strong></p><p style='font-size: 30px;'><strong>This rock is obsidian</strong></p>",0,corr_feedback,2,train,6,,,,,,,,,,,,,,,,,,,,,,
,,,,,,,,,,,html-button-response,252,2.0.0,1302751,66293ce3dba0764775195e58,4,50,2031,,,,,,,,,"<img src= ""rock_img/I_Peridotite_04.jpg"" style=""width:8cm; height:6.680000000000001cm;""><p>What type of rock is this?</p>",5,class_response,2,train,7,Pegmatite,Peridotite,4,FALSE,6,7,,,,,,,,,,,,,,,,
,,,,,,,,,,,html-button-response,253,2.0.0,1304327,66293ce3dba0764775195e58,4,50,1575,,,,,,,,,"<img src= rock_img/I_Peridotite_04.jpg style=""width:8cm; height:6.680000000000001cm;""><p style='font-size: 30px; color: red;'><strong>Incorrect!</strong></p><p style='font-size: 30px;'><strong>This rock is peridotite</strong></p>",0,corr_feedback,2,train,7,,,,,,,,,,,,,,,,,,,,,,
,,,,,,,,,,,html-button-response,254,2.0.0,1306891,66293ce3dba0764775195e58,4,50,2563,,,,,,,,,"<img src= ""rock_img/I_Andesite_05.jpg"" style=""width:8cm; height:4.12cm;""><p>What type of rock is this?</p>",0,class_response,2,train,8,Andesite,Andesite,5,TRUE,1,1,,,,,,,,,,,,,,,,
,,,,,,,,,,,html-button-response,255,2.0.0,1308062,66293ce3dba0764775195e58,4,50,1170,,,,,,,,,"<img src= rock_img/I_Andesite_05.jpg style=""width:8cm; height:4.12cm;""><p style='font-size: 30px; color: green;'><strong>Correct!</strong></p><p style='font-size: 30px;'><strong>This rock is andesite</strong></p>",0,corr_feedback,2,train,8,,,,,,,,,,,,,,,,,,,,,,
,,,,,,,,,,,html-button-response,256,2.0.0,1310809,66293ce3dba0764775195e58,4,50,2746,,,,,,,,,"<img src= ""rock_img/I_Gabbro_14.jpg"" style=""width:8cm; height:8.48cm;""><p>What type of rock is this?</p>",2,class_response,2,train,9,Diorite,Gabbro,14,FALSE,3,4,,,,,,,,,,,,,,,,
,,,,,,,,,,,html-button-response,257,2.0.0,1312126,66293ce3dba0764775195e58,4,50,1316,,,,,,,,,"<img src= rock_img/I_Gabbro_14.jpg style=""width:8cm; height:8.48cm;""><p style='font-size: 30px; color: red;'><strong>Incorrect!</strong></p><p style='font-size: 30px;'><strong>This rock is gabbro</strong></p>",0,corr_feedback,2,train,9,,,,,,,,,,,,,,,,,,,,,,
,,,,,,,,,,,html-button-response,258,2.0.0,1314589,66293ce3dba0764775195e58,4,50,2462,,,,,,,,,"<img src= ""rock_img/I_Andesite_03.jpg"" style=""width:8cm; height:5.73cm;""><p>What type of rock is this?</p>",0,class_response,2,train,10,Andesite,Andesite,3,TRUE,1,1,,,,,,,,,,,,,,,,
,,,,,,,,,,,html-button-response,259,2.0.0,1315745,66293ce3dba0764775195e58,4,50,1155,,,,,,,,,"<img src= rock_img/I_Andesite_03.jpg style=""width:8cm; height:5.73cm;""><p style='font-size: 30px; color: green;'><strong>Correct!</strong></p><p style='font-size: 30px;'><strong>This rock is andesite</strong></p>",0,corr_feedback,2,train,10,,,,,,,,,,,,,,,,,,,,,,
,,,,,,,,,,,html-button-response,260,2.0.0,1318277,66293ce3dba0764775195e58,4,50,2531,,,,,,,,,"<img src= ""rock_img/I_Basalt_11.jpg"" style=""width:8cm; height:5.359999999999999cm;""><p>What type of rock is this?</p>",7,class_response,2,train,11,Pumice,Basalt,11,FALSE,8,2,,,,,,,,,,,,,,,,
,,,,,,,,,,,html-button-response,261,2.0.0,1319511,66293ce3dba0764775195e58,4,50,1233,,,,,,,,,"<img src= rock_img/I_Basalt_11.jpg style=""width:8cm; height:5.359999999999999cm;""><p style='font-size: 30px; color: red;'><strong>Incorrect!</strong></p><p style='font-size: 30px;'><strong>This rock is basalt</strong></p>",0,corr_feedback,2,train,11,,,,,,,,,,,,,,,,,,,,,,
,,,,,,,,,,,html-button-response,262,2.0.0,1322447,66293ce3dba0764775195e58,4,50,2934,,,,,,,,,"<img src= ""rock_img/I_Diorite_15.jpg"" style=""width:8cm; height:5.54cm;""><p>What type of rock is this?</p>",3,class_response,2,train,12,Gabbro,Diorite,15,FALSE,4,3,,,,,,,,,,,,,,,,
,,,,,,,,,,,html-button-response,263,2.0.0,1324454,66293ce3dba0764775195e58,4,50,2006,,,,,,,,,"<img src= rock_img/I_Diorite_15.jpg style=""width:8cm; height:5.54cm;""><p style='font-size: 30px; color: red;'><strong>Incorrect!</strong></p><p style='font-size: 30px;'><strong>This rock is diorite</strong></p>",0,corr_feedback,2,train,12,,,,,,,,,,,,,,,,,,,,,,
,,,,,,,,,,,html-button-response,265,2.0.0,1327246,66293ce3dba0764775195e58,4,50,2791,,,,,,,,,,0,start_train,,,,,,,,,,,,,,,,,,,,,,,,,
,,,,,,,,,,,html-button-response,266,2.0.0,1333799,66293ce3dba0764775195e58,4,50,,,,,,,,,,,,cat_selection,2,train,1,,,,,,,3971.7,2580.2,3,8,Diorite,Pumice,,,,,,,,,,
,,,,,,,,,,,paired-cat-display,267,1.0.0,1377982,66293ce3dba0764775195e58,4,50,,,,,,,,,,,,paired_cat_display,2,train,1,,,,,,,,,,,,,,,6897.3,37282.2,,,,,distinct speckled colors,more holes less distinct coloring
,,,,,,,,,,,html-button-response,268,2.0.0,1382192,66293ce3dba0764775195e58,4,50,,,,,,,,,,,,cat_selection,2,train,2,,,,,,,3250,958.8,4,3,Gabbro,Diorite,,,,,,,,,,
,,,,,,,,,,,paired-cat-display,269,1.0.0,1428414,66293ce3dba0764775195e58,4,50,,,,,,,,,,,,paired_cat_display,2,train,2,,,,,,,,,,,,,,,22793.5,23426.1,,more gradual color change,,,sharper color changes,
,,,,,,,,,,,html-button-response,270,2.0.0,1441721,66293ce3dba0764775195e58,4,50,,,,,,,,,,,,cat_selection,2,train,3,,,,,,,6145.2,7160.9,6,1,Pegmatite,Andesite,,,,,,,,,,
,,,,,,,,,,,paired-cat-display,271,1.0.0,1491991,66293ce3dba0764775195e58,4,50,,,,,,,,,,,,paired_cat_display,2,train,3,,,,,,,,,,,,,Striping sharp color distinction,more speckled variations  ,6010.3,44256.4,,,,,,
,,,,,,,,,,,html-button-response,273,2.0.0,1493447,66293ce3dba0764775195e58,4,50,1455,,,,,,,,,,0,start_test,,,,,,,,,,,,,,,,,,,,,,,,,
,,,,,,,,,,,html-button-response,274,2.0.0,1499488,66293ce3dba0764775195e58,4,50,6040,,,,,,,,,"<img src= ""rock_img/I_Diorite_07.jpg"" style=""width:8cm; height:5.239999999999999cm;""><p>What type of rock is this?</p>",5,class_response,2,test,1,Pegmatite,Diorite,7,FALSE,6,3,,,,,,,,,,,,,,,,
,,,,,,,,,,,html-keyboard-response,275,2.0.0,1499990,66293ce3dba0764775195e58,4,50,null,,,,,,,,,<p style='font-size: 30px;'><strong>Okay</strong></p>,null,neutral_feedback,2,test,1,,,,,,,,,,,,,,,,,,,,,,
,,,,,,,,,,,html-button-response,276,2.0.0,1502362,66293ce3dba0764775195e58,4,50,2370,,,,,,,,,"<img src= ""rock_img/I_Basalt_02.jpg"" style=""width:8cm; height:6.45cm;""><p>What type of rock is this?</p>",1,class_response,2,test,2,Basalt,Basalt,2,TRUE,2,2,,,,,,,,,,,,,,,,
,,,,,,,,,,,html-keyboard-response,277,2.0.0,1502875,66293ce3dba0764775195e58,4,50,null,,,,,,,,,<p style='font-size: 30px;'><strong>Okay</strong></p>,null,neutral_feedback,2,test,2,,,,,,,,,,,,,,,,,,,,,,
,,,,,,,,,,,html-button-response,278,2.0.0,1505389,66293ce3dba0764775195e58,4,50,2512,,,,,,,,,"<img src= ""rock_img/I_Peridotite_10.jpg"" style=""width:8cm; height:5.390000000000001cm;""><p>What type of rock is this?</p>",0,class_response,2,test,3,Peridotite,Peridotite,10,TRUE,7,7,,,,,,,,,,,,,,,,
,,,,,,,,,,,html-keyboard-response,279,2.0.0,1505891,66293ce3dba0764775195e58,4,50,null,,,,,,,,,<p style='font-size: 30px;'><strong>Okay</strong></p>,null,neutral_feedback,2,test,3,,,,,,,,,,,,,,,,,,,,,,
,,,,,,,,,,,html-button-response,280,2.0.0,1509248,66293ce3dba0764775195e58,4,50,3354,,,,,,,,,"<img src= ""rock_img/I_Pegmatite_03.jpg"" style=""width:8cm; height:5.239999999999999cm;""><p>What type of rock is this?</p>",5,class_response,2,test,4,Pegmatite,Pegmatite,3,TRUE,6,6,,,,,,,,,,,,,,,,
,,,,,,,,,,,html-keyboard-response,281,2.0.0,1509761,66293ce3dba0764775195e58,4,50,null,,,,,,,,,<p style='font-size: 30px;'><strong>Okay</strong></p>,null,neutral_feedback,2,test,4,,,,,,,,,,,,,,,,,,,,,,
,,,,,,,,,,,html-button-response,282,2.0.0,1528693,66293ce3dba0764775195e58,4,50,18930,,,,,,,,,"<img src= ""rock_img/I_Diorite_10.jpg"" style=""width:8cm; height:5.949999999999999cm;""><p>What type of rock is this?</p>",2,class_response,2,test,5,Diorite,Diorite,10,TRUE,3,3,,,,,,,,,,,,,,,,
,,,,,,,,,,,html-keyboard-response,283,2.0.0,1529209,66293ce3dba0764775195e58,4,50,null,,,,,,,,,<p style='font-size: 30px;'><strong>Okay</strong></p>,null,neutral_feedback,2,test,5,,,,,,,,,,,,,,,,,,,,,,
,,,,,,,,,,,html-button-response,284,2.0.0,1530569,66293ce3dba0764775195e58,4,50,1359,,,,,,,,,"<img src= ""rock_img/I_Basalt_01.jpg"" style=""width:8cm; height:7.880000000000001cm;""><p>What type of rock is this?</p>",1,class_response,2,test,6,Basalt,Basalt,1,TRUE,2,2,,,,,,,,,,,,,,,,
,,,,,,,,,,,html-keyboard-response,285,2.0.0,1531071,66293ce3dba0764775195e58,4,50,null,,,,,,,,,<p style='font-size: 30px;'><strong>Okay</strong></p>,null,neutral_feedback,2,test,6,,,,,,,,,,,,,,,,,,,,,,
,,,,,,,,,,,html-button-response,286,2.0.0,1532726,66293ce3dba0764775195e58,4,50,1654,,,,,,,,,"<img src= ""rock_img/I_Pumice_05.jpg"" style=""width:8cm; height:7.25cm;""><p>What type of rock is this?</p>",7,class_response,2,test,7,Pumice,Pumice,5,TRUE,8,8,,,,,,,,,,,,,,,,
,,,,,,,,,,,html-keyboard-response,287,2.0.0,1533228,66293ce3dba0764775195e58,4,50,null,,,,,,,,,<p style='font-size: 30px;'><strong>Okay</strong></p>,null,neutral_feedback,2,test,7,,,,,,,,,,,,,,,,,,,,,,
,,,,,,,,,,,html-button-response,288,2.0.0,1539364,66293ce3dba0764775195e58,4,50,6135,,,,,,,,,"<img src= ""rock_img/I_Gabbro_15.jpg"" style=""width:8cm; height:6.29cm;""><p>What type of rock is this?</p>",6,class_response,2,test,8,Gabbro,Gabbro,15,TRUE,4,4,,,,,,,,,,,,,,,,
,,,,,,,,,,,html-keyboard-response,289,2.0.0,1539866,66293ce3dba0764775195e58,4,50,null,,,,,,,,,<p style='font-size: 30px;'><strong>Okay</strong></p>,null,neutral_feedback,2,test,8,,,,,,,,,,,,,,,,,,,,,,
,,,,,,,,,,,html-button-response,290,2.0.0,1541203,66293ce3dba0764775195e58,4,50,1336,,,,,,,,,"<img src= ""rock_img/I_Pumice_04.jpg"" style=""width:8cm; height:6.819999999999999cm;""><p>What type of rock is this?</p>",7,class_response,2,test,9,Pumice,Pumice,4,TRUE,8,8,,,,,,,,,,,,,,,,
,,,,,,,,,,,html-keyboard-response,291,2.0.0,1541707,66293ce3dba0764775195e58,4,50,null,,,,,,,,,<p style='font-size: 30px;'><strong>Okay</strong></p>,null,neutral_feedback,2,test,9,,,,,,,,,,,,,,,,,,,,,,
,,,,,,,,,,,html-button-response,292,2.0.0,1546059,66293ce3dba0764775195e58,4,50,4351,,,,,,,,,"<img src= ""rock_img/I_Gabbro_05.jpg"" style=""width:8cm; height:6cm;""><p>What type of rock is this?</p>",3,class_response,2,test,10,Gabbro,Gabbro,5,TRUE,4,4,,,,,,,,,,,,,,,,
,,,,,,,,,,,html-keyboard-response,293,2.0.0,1546574,66293ce3dba0764775195e58,4,50,null,,,,,,,,,<p style='font-size: 30px;'><strong>Okay</strong></p>,null,neutral_feedback,2,test,10,,,,,,,,,,,,,,,,,,,,,,
,,,,,,,,,,,html-button-response,294,2.0.0,1547922,66293ce3dba0764775195e58,4,50,1347,,,,,,,,,"<img src= ""rock_img/I_Obsidian_02.jpg"" style=""width:8cm; height:7.51cm;""><p>What type of rock is this?</p>",4,class_response,2,test,11,Obsidian,Obsidian,2,TRUE,5,5,,,,,,,,,,,,,,,,
,,,,,,,,,,,html-keyboard-response,295,2.0.0,1548424,66293ce3dba0764775195e58,4,50,null,,,,,,,,,<p style='font-size: 30px;'><strong>Okay</strong></p>,null,neutral_feedback,2,test,11,,,,,,,,,,,,,,,,,,,,,,
,,,,,,,,,,,html-button-response,296,2.0.0,1549302,66293ce3dba0764775195e58,4,50,877,,,,,,,,,"<img src= ""rock_img/I_Obsidian_10.jpg"" style=""width:8cm; height:6.260000000000001cm;""><p>What type of rock is this?</p>",4,class_response,2,test,12,Obsidian,Obsidian,10,TRUE,5,5,,,,,,,,,,,,,,,,
,,,,,,,,,,,html-keyboard-response,297,2.0.0,1549809,66293ce3dba0764775195e58,4,50,null,,,,,,,,,<p style='font-size: 30px;'><strong>Okay</strong></p>,null,neutral_feedback,2,test,12,,,,,,,,,,,,,,,,,,,,,,
,,,,,,,,,,,html-button-response,298,2.0.0,1564076,66293ce3dba0764775195e58,4,50,14265,,,,,,,,,"<img src= ""rock_img/I_Gabbro_08.jpg"" style=""width:8cm; height:5.15cm;""><p>What type of rock is this?</p>",0,class_response,2,test,13,Andesite,Gabbro,8,FALSE,1,4,,,,,,,,,,,,,,,,
,,,,,,,,,,,html-keyboard-response,299,2.0.0,1564585,66293ce3dba0764775195e58,4,50,null,,,,,,,,,<p style='font-size: 30px;'><strong>Okay</strong></p>,null,neutral_feedback,2,test,13,,,,,,,,,,,,,,,,,,,,,,
,,,,,,,,,,,html-button-response,300,2.0.0,1574928,66293ce3dba0764775195e58,4,50,10342,,,,,,,,,"<img src= ""rock_img/I_Obsidian_05.jpg"" style=""width:8cm; height:6.33cm;""><p>What type of rock is this?</p>",4,class_response,2,test,14,Obsidian,Obsidian,5,TRUE,5,5,,,,,,,,,,,,,,,,
,,,,,,,,,,,html-keyboard-response,301,2.0.0,1575441,66293ce3dba0764775195e58,4,50,null,,,,,,,,,<p style='font-size: 30px;'><strong>Okay</strong></p>,null,neutral_feedback,2,test,14,,,,,,,,,,,,,,,,,,,,,,
,,,,,,,,,,,html-button-response,302,2.0.0,1588279,66293ce3dba0764775195e58,4,50,12837,,,,,,,,,"<img src= ""rock_img/I_Peridotite_14.jpg"" style=""width:8cm; height:5.3cm;""><p>What type of rock is this?</p>",3,class_response,2,test,15,Gabbro,Peridotite,14,FALSE,4,7,,,,,,,,,,,,,,,,
,,,,,,,,,,,html-keyboard-response,303,2.0.0,1588794,66293ce3dba0764775195e58,4,50,null,,,,,,,,,<p style='font-size: 30px;'><strong>Okay</strong></p>,null,neutral_feedback,2,test,15,,,,,,,,,,,,,,,,,,,,,,
,,,,,,,,,,,html-button-response,304,2.0.0,1591129,66293ce3dba0764775195e58,4,50,2332,,,,,,,,,"<img src= ""rock_img/I_Obsidian_06.jpg"" style=""width:8cm; height:6.8cm;""><p>What type of rock is this?</p>",4,class_response,2,test,16,Obsidian,Obsidian,6,TRUE,5,5,,,,,,,,,,,,,,,,
,,,,,,,,,,,html-keyboard-response,305,2.0.0,1591636,66293ce3dba0764775195e58,4,50,null,,,,,,,,,<p style='font-size: 30px;'><strong>Okay</strong></p>,null,neutral_feedback,2,test,16,,,,,,,,,,,,,,,,,,,,,,
,,,,,,,,,,,html-button-response,306,2.0.0,1597465,66293ce3dba0764775195e58,4,50,5828,,,,,,,,,"<img src= ""rock_img/I_Gabbro_03.jpg"" style=""width:8cm; height:8.52cm;""><p>What type of rock is this?</p>",0,class_response,2,test,17,Andesite,Gabbro,3,FALSE,1,4,,,,,,,,,,,,,,,,
,,,,,,,,,,,html-keyboard-response,307,2.0.0,1597978,66293ce3dba0764775195e58,4,50,null,,,,,,,,,<p style='font-size: 30px;'><strong>Okay</strong></p>,null,neutral_feedback,2,test,17,,,,,,,,,,,,,,,,,,,,,,
,,,,,,,,,,,html-button-response,308,2.0.0,1621414,66293ce3dba0764775195e58,4,50,23434,,,,,,,,,"<img src= ""rock_img/I_Andesite_11.jpg"" style=""width:8cm; height:4.92cm;""><p>What type of rock is this?</p>",2,class_response,2,test,18,Andesite,Andesite,11,TRUE,1,1,,,,,,,,,,,,,,,,
,,,,,,,,,,,html-keyboard-response,309,2.0.0,1621930,66293ce3dba0764775195e58,4,50,null,,,,,,,,,<p style='font-size: 30px;'><strong>Okay</strong></p>,null,neutral_feedback,2,test,18,,,,,,,,,,,,,,,,,,,,,,
,,,,,,,,,,,html-button-response,310,2.0.0,1627122,66293ce3dba0764775195e58,4,50,5190,,,,,,,,,"<img src= ""rock_img/I_Andesite_10.jpg"" style=""width:8cm; height:4.16cm;""><p>What type of rock is this?</p>",6,class_response,2,test,19,Peridotite,Andesite,10,FALSE,7,1,,,,,,,,,,,,,,,,
,,,,,,,,,,,html-keyboard-response,311,2.0.0,1627630,66293ce3dba0764775195e58,4,50,null,,,,,,,,,<p style='font-size: 30px;'><strong>Okay</strong></p>,null,neutral_feedback,2,test,19,,,,,,,,,,,,,,,,,,,,,,
,,,,,,,,,,,html-button-response,312,2.0.0,1629221,66293ce3dba0764775195e58,4,50,1588,,,,,,,,,"<img src= ""rock_img/I_Obsidian_14.jpg"" style=""width:8cm; height:7.64cm;""><p>What type of rock is this?</p>",4,class_response,2,test,20,Obsidian,Obsidian,14,TRUE,5,5,,,,,,,,,,,,,,,,
,,,,,,,,,,,html-keyboard-response,313,2.0.0,1629724,66293ce3dba0764775195e58,4,50,null,,,,,,,,,<p style='font-size: 30px;'><strong>Okay</strong></p>,null,neutral_feedback,2,test,20,,,,,,,,,,,,,,,,,,,,,,
,,,,,,,,,,,html-button-response,314,2.0.0,1636187,66293ce3dba0764775195e58,4,50,6462,,,,,,,,,"<img src= ""rock_img/I_Pegmatite_16.jpg"" style=""width:8cm; height:5.8cm;""><p>What type of rock is this?</p>",5,class_response,2,test,21,Pegmatite,Pegmatite,16,TRUE,6,6,,,,,,,,,,,,,,,,
,,,,,,,,,,,html-keyboard-response,315,2.0.0,1636701,66293ce3dba0764775195e58,4,50,null,,,,,,,,,<p style='font-size: 30px;'><strong>Okay</strong></p>,null,neutral_feedback,2,test,21,,,,,,,,,,,,,,,,,,,,,,
,,,,,,,,,,,html-button-response,316,2.0.0,1648796,66293ce3dba0764775195e58,4,50,12094,,,,,,,,,"<img src= ""rock_img/I_Peridotite_02.jpg"" style=""width:8cm; height:5.859999999999999cm;""><p>What type of rock is this?</p>",3,class_response,2,test,22,Gabbro,Peridotite,2,FALSE,4,7,,,,,,,,,,,,,,,,
,,,,,,,,,,,html-keyboard-response,317,2.0.0,1649297,66293ce3dba0764775195e58,4,50,null,,,,,,,,,<p style='font-size: 30px;'><strong>Okay</strong></p>,null,neutral_feedback,2,test,22,,,,,,,,,,,,,,,,,,,,,,
,,,,,,,,,,,html-button-response,318,2.0.0,1651094,66293ce3dba0764775195e58,4,50,1795,,,,,,,,,"<img src= ""rock_img/I_Gabbro_10.jpg"" style=""width:8cm; height:5.680000000000001cm;""><p>What type of rock is this?</p>",1,class_response,2,test,23,Basalt,Gabbro,10,FALSE,2,4,,,,,,,,,,,,,,,,
,,,,,,,,,,,html-keyboard-response,319,2.0.0,1651603,66293ce3dba0764775195e58,4,50,null,,,,,,,,,<p style='font-size: 30px;'><strong>Okay</strong></p>,null,neutral_feedback,2,test,23,,,,,,,,,,,,,,,,,,,,,,
,,,,,,,,,,,html-button-response,320,2.0.0,1653036,66293ce3dba0764775195e58,4,50,1431,,,,,,,,,"<img src= ""rock_img/I_Obsidian_11.jpg"" style=""width:8cm; height:6.05cm;""><p>What type of rock is this?</p>",4,class_response,2,test,24,Obsidian,Obsidian,11,TRUE,5,5,,,,,,,,,,,,,,,,
,,,,,,,,,,,html-keyboard-response,321,2.0.0,1653540,66293ce3dba0764775195e58,4,50,null,,,,,,,,,<p style='font-size: 30px;'><strong>Okay</strong></p>,null,neutral_feedback,2,test,24,,,,,,,,,,,,,,,,,,,,,,
,,,,,,,,,,,html-button-response,322,2.0.0,1661644,66293ce3dba0764775195e58,4,50,8101,,,,,,,,,"<img src= ""rock_img/I_Andesite_01.jpg"" style=""width:8cm; height:5.87cm;""><p>What type of rock is this?</p>",2,class_response,2,test,25,Diorite,Andesite,1,FALSE,3,1,,,,,,,,,,,,,,,,
,,,,,,,,,,,html-keyboard-response,323,2.0.0,1662156,66293ce3dba0764775195e58,4,50,null,,,,,,,,,<p style='font-size: 30px;'><strong>Okay</strong></p>,null,neutral_feedback,2,test,25,,,,,,,,,,,,,,,,,,,,,,
,,,,,,,,,,,html-button-response,324,2.0.0,1664427,66293ce3dba0764775195e58,4,50,2270,,,,,,,,,"<img src= ""rock_img/I_Diorite_09.jpg"" style=""width:8cm; height:5.27cm;""><p>What type of rock is this?</p>",5,class_response,2,test,26,Diorite,Diorite,9,TRUE,3,3,,,,,,,,,,,,,,,,
,,,,,,,,,,,html-keyboard-response,325,2.0.0,1664939,66293ce3dba0764775195e58,4,50,null,,,,,,,,,<p style='font-size: 30px;'><strong>Okay</strong></p>,null,neutral_feedback,2,test,26,,,,,,,,,,,,,,,,,,,,,,
,,,,,,,,,,,html-button-response,326,2.0.0,1667220,66293ce3dba0764775195e58,4,50,2279,,,,,,,,,"<img src= ""rock_img/I_Andesite_06.jpg"" style=""width:8cm; height:6.840000000000001cm;""><p>What type of rock is this?</p>",0,class_response,2,test,27,Andesite,Andesite,6,TRUE,1,1,,,,,,,,,,,,,,,,
,,,,,,,,,,,html-keyboard-response,327,2.0.0,1667735,66293ce3dba0764775195e58,4,50,null,,,,,,,,,<p style='font-size: 30px;'><strong>Okay</strong></p>,null,neutral_feedback,2,test,27,,,,,,,,,,,,,,,,,,,,,,
,,,,,,,,,,,html-button-response,328,2.0.0,1669039,66293ce3dba0764775195e58,4,50,1302,,,,,,,,,"<img src= ""rock_img/I_Pumice_10.jpg"" style=""width:8cm; height:7.609999999999999cm;""><p>What type of rock is this?</p>",7,class_response,2,test,28,Pumice,Pumice,10,TRUE,8,8,,,,,,,,,,,,,,,,
,,,,,,,,,,,html-keyboard-response,329,2.0.0,1669555,66293ce3dba0764775195e58,4,50,null,,,,,,,,,<p style='font-size: 30px;'><strong>Okay</strong></p>,null,neutral_feedback,2,test,28,,,,,,,,,,,,,,,,,,,,,,
,,,,,,,,,,,html-button-response,330,2.0.0,1670682,66293ce3dba0764775195e58,4,50,1124,,,,,,,,,"<img src= ""rock_img/I_Pumice_14.jpg"" style=""width:8cm; height:6.39cm;""><p>What type of rock is this?</p>",7,class_response,2,test,29,Pumice,Pumice,14,TRUE,8,8,,,,,,,,,,,,,,,,
,,,,,,,,,,,html-keyboard-response,331,2.0.0,1671198,66293ce3dba0764775195e58,4,50,null,,,,,,,,,<p style='font-size: 30px;'><strong>Okay</strong></p>,null,neutral_feedback,2,test,29,,,,,,,,,,,,,,,,,,,,,,
,,,,,,,,,,,html-button-response,332,2.0.0,1675616,66293ce3dba0764775195e58,4,50,4416,,,,,,,,,"<img src= ""rock_img/I_Pegmatite_12.jpg"" style=""width:8cm; height:5.7cm;""><p>What type of rock is this?</p>",5,class_response,2,test,30,Pegmatite,Pegmatite,12,TRUE,6,6,,,,,,,,,,,,,,,,
,,,,,,,,,,,html-keyboard-response,333,2.0.0,1676124,66293ce3dba0764775195e58,4,50,null,,,,,,,,,<p style='font-size: 30px;'><strong>Okay</strong></p>,null,neutral_feedback,2,test,30,,,,,,,,,,,,,,,,,,,,,,
,,,,,,,,,,,html-button-response,334,2.0.0,1677627,66293ce3dba0764775195e58,4,50,1500,,,,,,,,,"<img src= ""rock_img/I_Peridotite_13.jpg"" style=""width:8cm; height:7.58cm;""><p>What type of rock is this?</p>",0,class_response,2,test,31,Andesite,Peridotite,13,FALSE,1,7,,,,,,,,,,,,,,,,
,,,,,,,,,,,html-keyboard-response,335,2.0.0,1678133,66293ce3dba0764775195e58,4,50,null,,,,,,,,,<p style='font-size: 30px;'><strong>Okay</strong></p>,null,neutral_feedback,2,test,31,,,,,,,,,,,,,,,,,,,,,,
,,,,,,,,,,,html-button-response,336,2.0.0,1682542,66293ce3dba0764775195e58,4,50,4407,,,,,,,,,"<img src= ""rock_img/I_Peridotite_12.jpg"" style=""width:8cm; height:4.54cm;""><p>What type of rock is this?</p>",2,class_response,2,test,32,Peridotite,Peridotite,12,TRUE,7,7,,,,,,,,,,,,,,,,
,,,,,,,,,,,html-keyboard-response,337,2.0.0,1683053,66293ce3dba0764775195e58,4,50,null,,,,,,,,,<p style='font-size: 30px;'><strong>Okay</strong></p>,null,neutral_feedback,2,test,32,,,,,,,,,,,,,,,,,,,,,,
,,,,,,,,,,,html-button-response,338,2.0.0,1686218,66293ce3dba0764775195e58,4,50,3163,,,,,,,,,"<img src= ""rock_img/I_Peridotite_15.jpg"" style=""width:8cm; height:6cm;""><p>What type of rock is this?</p>",2,class_response,2,test,33,Diorite,Peridotite,15,FALSE,3,7,,,,,,,,,,,,,,,,
,,,,,,,,,,,html-keyboard-response,339,2.0.0,1686730,66293ce3dba0764775195e58,4,50,null,,,,,,,,,<p style='font-size: 30px;'><strong>Okay</strong></p>,null,neutral_feedback,2,test,33,,,,,,,,,,,,,,,,,,,,,,
,,,,,,,,,,,html-button-response,340,2.0.0,1693979,66293ce3dba0764775195e58,4,50,7247,,,,,,,,,"<img src= ""rock_img/I_Diorite_12.jpg"" style=""width:8cm; height:4.88cm;""><p>What type of rock is this?</p>",3,class_response,2,test,34,Gabbro,Diorite,12,FALSE,4,3,,,,,,,,,,,,,,,,
,,,,,,,,,,,html-keyboard-response,341,2.0.0,1694489,66293ce3dba0764775195e58,4,50,null,,,,,,,,,<p style='font-size: 30px;'><strong>Okay</strong></p>,null,neutral_feedback,2,test,34,,,,,,,,,,,,,,,,,,,,,,
,,,,,,,,,,,html-button-response,342,2.0.0,1697606,66293ce3dba0764775195e58,4,50,3116,,,,,,,,,"<img src= ""rock_img/I_Diorite_02.jpg"" style=""width:8cm; height:6.27cm;""><p>What type of rock is this?</p>",2,class_response,2,test,35,Diorite,Diorite,2,TRUE,3,3,,,,,,,,,,,,,,,,
,,,,,,,,,,,html-keyboard-response,343,2.0.0,1698117,66293ce3dba0764775195e58,4,50,null,,,,,,,,,<p style='font-size: 30px;'><strong>Okay</strong></p>,null,neutral_feedback,2,test,35,,,,,,,,,,,,,,,,,,,,,,
,,,,,,,,,,,html-button-response,344,2.0.0,1699519,66293ce3dba0764775195e58,4,50,1400,,,,,,,,,"<img src= ""rock_img/I_Basalt_08.jpg"" style=""width:8cm; height:10.44cm;""><p>What type of rock is this?</p>",1,class_response,2,test,36,Basalt,Basalt,8,TRUE,2,2,,,,,,,,,,,,,,,,
,,,,,,,,,,,html-keyboard-response,345,2.0.0,1700034,66293ce3dba0764775195e58,4,50,null,,,,,,,,,<p style='font-size: 30px;'><strong>Okay</strong></p>,null,neutral_feedback,2,test,36,,,,,,,,,,,,,,,,,,,,,,
,,,,,,,,,,,html-button-response,346,2.0.0,1701471,66293ce3dba0764775195e58,4,50,1436,,,,,,,,,"<img src= ""rock_img/I_Gabbro_11.jpg"" style=""width:8cm; height:6.2cm;""><p>What type of rock is this?</p>",1,class_response,2,test,37,Basalt,Gabbro,11,FALSE,2,4,,,,,,,,,,,,,,,,
,,,,,,,,,,,html-keyboard-response,347,2.0.0,1701973,66293ce3dba0764775195e58,4,50,null,,,,,,,,,<p style='font-size: 30px;'><strong>Okay</strong></p>,null,neutral_feedback,2,test,37,,,,,,,,,,,,,,,,,,,,,,
,,,,,,,,,,,html-button-response,348,2.0.0,1711238,66293ce3dba0764775195e58,4,50,9263,,,,,,,,,"<img src= ""rock_img/I_Pegmatite_09.jpg"" style=""width:8cm; height:4.03cm;""><p>What type of rock is this?</p>",5,class_response,2,test,38,Pegmatite,Pegmatite,9,TRUE,6,6,,,,,,,,,,,,,,,,
,,,,,,,,,,,html-keyboard-response,349,2.0.0,1711750,66293ce3dba0764775195e58,4,50,null,,,,,,,,,<p style='font-size: 30px;'><strong>Okay</strong></p>,null,neutral_feedback,2,test,38,,,,,,,,,,,,,,,,,,,,,,
,,,,,,,,,,,html-button-response,350,2.0.0,1715269,66293ce3dba0764775195e58,4,50,3517,,,,,,,,,"<img src= ""rock_img/I_Diorite_11.jpg"" style=""width:8cm; height:7.11cm;""><p>What type of rock is this?</p>",2,class_response,2,test,39,Diorite,Diorite,11,TRUE,3,3,,,,,,,,,,,,,,,,
,,,,,,,,,,,html-keyboard-response,351,2.0.0,1715784,66293ce3dba0764775195e58,4,50,null,,,,,,,,,<p style='font-size: 30px;'><strong>Okay</strong></p>,null,neutral_feedback,2,test,39,,,,,,,,,,,,,,,,,,,,,,
,,,,,,,,,,,html-button-response,352,2.0.0,1717253,66293ce3dba0764775195e58,4,50,1466,,,,,,,,,"<img src= ""rock_img/I_Pegmatite_05.jpg"" style=""width:8cm; height:7.300000000000001cm;""><p>What type of rock is this?</p>",5,class_response,2,test,40,Pegmatite,Pegmatite,5,TRUE,6,6,,,,,,,,,,,,,,,,
,,,,,,,,,,,html-keyboard-response,353,2.0.0,1717765,66293ce3dba0764775195e58,4,50,null,,,,,,,,,<p style='font-size: 30px;'><strong>Okay</strong></p>,null,neutral_feedback,2,test,40,,,,,,,,,,,,,,,,,,,,,,
,,,,,,,,,,,html-button-response,354,2.0.0,1719719,66293ce3dba0764775195e58,4,50,1953,,,,,,,,,"<img src= ""rock_img/I_Basalt_16.jpg"" style=""width:8cm; height:7.659999999999999cm;""><p>What type of rock is this?</p>",0,class_response,2,test,41,Andesite,Basalt,16,FALSE,1,2,,,,,,,,,,,,,,,,
,,,,,,,,,,,html-keyboard-response,355,2.0.0,1720229,66293ce3dba0764775195e58,4,50,null,,,,,,,,,<p style='font-size: 30px;'><strong>Okay</strong></p>,null,neutral_feedback,2,test,41,,,,,,,,,,,,,,,,,,,,,,
,,,,,,,,,,,html-button-response,356,2.0.0,1721798,66293ce3dba0764775195e58,4,50,1566,,,,,,,,,"<img src= ""rock_img/I_Basalt_09.jpg"" style=""width:8cm; height:6.2cm;""><p>What type of rock is this?</p>",1,class_response,2,test,42,Basalt,Basalt,9,TRUE,2,2,,,,,,,,,,,,,,,,
,,,,,,,,,,,html-keyboard-response,357,2.0.0,1722306,66293ce3dba0764775195e58,4,50,null,,,,,,,,,<p style='font-size: 30px;'><strong>Okay</strong></p>,null,neutral_feedback,2,test,42,,,,,,,,,,,,,,,,,,,,,,
,,,,,,,,,,,html-button-response,358,2.0.0,1725833,66293ce3dba0764775195e58,4,50,3525,,,,,,,,,"<img src= ""rock_img/I_Andesite_14.jpg"" style=""width:8cm; height:5.449999999999999cm;""><p>What type of rock is this?</p>",5,class_response,2,test,43,Andesite,Andesite,14,TRUE,1,1,,,,,,,,,,,,,,,,
,,,,,,,,,,,html-keyboard-response,359,2.0.0,1726341,66293ce3dba0764775195e58,4,50,null,,,,,,,,,<p style='font-size: 30px;'><strong>Okay</strong></p>,null,neutral_feedback,2,test,43,,,,,,,,,,,,,,,,,,,,,,
,,,,,,,,,,,html-button-response,360,2.0.0,1727949,66293ce3dba0764775195e58,4,50,1605,,,,,,,,,"<img src= ""rock_img/I_Pumice_15.jpg"" style=""width:8cm; height:7.86cm;""><p>What type of rock is this?</p>",7,class_response,2,test,44,Pumice,Pumice,15,TRUE,8,8,,,,,,,,,,,,,,,,
,,,,,,,,,,,html-keyboard-response,361,2.0.0,1728463,66293ce3dba0764775195e58,4,50,null,,,,,,,,,<p style='font-size: 30px;'><strong>Okay</strong></p>,null,neutral_feedback,2,test,44,,,,,,,,,,,,,,,,,,,,,,
,,,,,,,,,,,html-button-response,362,2.0.0,1730749,66293ce3dba0764775195e58,4,50,2284,,,,,,,,,"<img src= ""rock_img/I_Andesite_09.jpg"" style=""width:8cm; height:6cm;""><p>What type of rock is this?</p>",0,class_response,2,test,45,Andesite,Andesite,9,TRUE,1,1,,,,,,,,,,,,,,,,
,,,,,,,,,,,html-keyboard-response,363,2.0.0,1731252,66293ce3dba0764775195e58,4,50,null,,,,,,,,,<p style='font-size: 30px;'><strong>Okay</strong></p>,null,neutral_feedback,2,test,45,,,,,,,,,,,,,,,,,,,,,,
,,,,,,,,,,,html-button-response,364,2.0.0,1732700,66293ce3dba0764775195e58,4,50,1447,,,,,,,,,"<img src= ""rock_img/I_Pegmatite_07.jpg"" style=""width:8cm; height:6.7cm;""><p>What type of rock is this?</p>",5,class_response,2,test,46,Pegmatite,Pegmatite,7,TRUE,6,6,,,,,,,,,,,,,,,,
,,,,,,,,,,,html-keyboard-response,365,2.0.0,1733217,66293ce3dba0764775195e58,4,50,null,,,,,,,,,<p style='font-size: 30px;'><strong>Okay</strong></p>,null,neutral_feedback,2,test,46,,,,,,,,,,,,,,,,,,,,,,
,,,,,,,,,,,html-button-response,366,2.0.0,1734709,66293ce3dba0764775195e58,4,50,1491,,,,,,,,,"<img src= ""rock_img/I_Basalt_10.jpg"" style=""width:8cm; height:5.85cm;""><p>What type of rock is this?</p>",1,class_response,2,test,47,Basalt,Basalt,10,TRUE,2,2,,,,,,,,,,,,,,,,
,,,,,,,,,,,html-keyboard-response,367,2.0.0,1735221,66293ce3dba0764775195e58,4,50,null,,,,,,,,,<p style='font-size: 30px;'><strong>Okay</strong></p>,null,neutral_feedback,2,test,47,,,,,,,,,,,,,,,,,,,,,,
,,,,,,,,,,,html-button-response,368,2.0.0,1736510,66293ce3dba0764775195e58,4,50,1287,,,,,,,,,"<img src= ""rock_img/I_Pumice_16.jpg"" style=""width:8cm; height:6.79cm;""><p>What type of rock is this?</p>",7,class_response,2,test,48,Pumice,Pumice,16,TRUE,8,8,,,,,,,,,,,,,,,,
,,,,,,,,,,,html-keyboard-response,369,2.0.0,1737013,66293ce3dba0764775195e58,4,50,null,,,,,,,,,<p style='font-size: 30px;'><strong>Okay</strong></p>,null,neutral_feedback,2,test,48,,,,,,,,,,,,,,,,,,,,,,
,,,,,,,,,,,html-button-response,370,2.0.0,1766467,66293ce3dba0764775195e58,4,50,,,,,,,,,,,,cycle_feedback,,,,,,,,,,,,,,,,,,,,,,9465.4,19975.7,,
,,,,,,,,,,,html-button-response,372,2.0.0,1768710,66293ce3dba0764775195e58,4,50,2242,,,,,,,,,,0,start_train,,,,,,,,,,,,,,,,,,,,,,,,,
,,,,,,,,,,,html-button-response,374,2.0.0,1770478,66293ce3dba0764775195e58,4,50,1766,,,,,,,,,"<img src= ""rock_img/I_Obsidian_08.jpg"" style=""width:8cm; height:7.39cm;""><p>What type of rock is this?</p>",4,class_response,3,train,1,Obsidian,Obsidian,8,TRUE,5,5,,,,,,,,,,,,,,,,
,,,,,,,,,,,html-button-response,375,2.0.0,1771641,66293ce3dba0764775195e58,4,50,1161,,,,,,,,,"<img src= rock_img/I_Obsidian_08.jpg style=""width:8cm; height:7.39cm;""><p style='font-size: 30px; color: green;'><strong>Correct!</strong></p><p style='font-size: 30px;'><strong>This rock is obsidian</strong></p>",0,corr_feedback,3,train,1,,,,,,,,,,,,,,,,,,,,,,
,,,,,,,,,,,html-button-response,376,2.0.0,1773190,66293ce3dba0764775195e58,4,50,1548,,,,,,,,,"<img src= ""rock_img/I_Pegmatite_10.jpg"" style=""width:8cm; height:4.16cm;""><p>What type of rock is this?</p>",5,class_response,3,train,2,Pegmatite,Pegmatite,10,TRUE,6,6,,,,,,,,,,,,,,,,
,,,,,,,,,,,html-button-response,377,2.0.0,1774599,66293ce3dba0764775195e58,4,50,1407,,,,,,,,,"<img src= rock_img/I_Pegmatite_10.jpg style=""width:8cm; height:4.16cm;""><p style='font-size: 30px; color: green;'><strong>Correct!</strong></p><p style='font-size: 30px;'><strong>This rock is pegmatite</strong></p>",0,corr_feedback,3,train,2,,,,,,,,,,,,,,,,,,,,,,
,,,,,,,,,,,html-button-response,378,2.0.0,1776723,66293ce3dba0764775195e58,4,50,2123,,,,,,,,,"<img src= ""rock_img/I_Peridotite_04.jpg"" style=""width:8cm; height:6.680000000000001cm;""><p>What type of rock is this?</p>",6,class_response,3,train,3,Peridotite,Peridotite,4,TRUE,7,7,,,,,,,,,,,,,,,,
,,,,,,,,,,,html-button-response,379,2.0.0,1777959,66293ce3dba0764775195e58,4,50,1235,,,,,,,,,"<img src= rock_img/I_Peridotite_04.jpg style=""width:8cm; height:6.680000000000001cm;""><p style='font-size: 30px; color: green;'><strong>Correct!</strong></p><p style='font-size: 30px;'><strong>This rock is peridotite</strong></p>",0,corr_feedback,3,train,3,,,,,,,,,,,,,,,,,,,,,,
,,,,,,,,,,,html-button-response,380,2.0.0,1779368,66293ce3dba0764775195e58,4,50,1408,,,,,,,,,"<img src= ""rock_img/I_Diorite_15.jpg"" style=""width:8cm; height:5.54cm;""><p>What type of rock is this?</p>",0,class_response,3,train,4,Andesite,Diorite,15,FALSE,1,3,,,,,,,,,,,,,,,,
,,,,,,,,,,,html-button-response,381,2.0.0,1780971,66293ce3dba0764775195e58,4,50,1601,,,,,,,,,"<img src= rock_img/I_Diorite_15.jpg style=""width:8cm; height:5.54cm;""><p style='font-size: 30px; color: red;'><strong>Incorrect!</strong></p><p style='font-size: 30px;'><strong>This rock is diorite</strong></p>",0,corr_feedback,3,train,4,,,,,,,,,,,,,,,,,,,,,,
,,,,,,,,,,,html-button-response,382,2.0.0,1782786,66293ce3dba0764775195e58,4,50,1814,,,,,,,,,"<img src= ""rock_img/I_Andesite_05.jpg"" style=""width:8cm; height:4.12cm;""><p>What type of rock is this?</p>",2,class_response,3,train,5,Diorite,Andesite,5,FALSE,3,1,,,,,,,,,,,,,,,,
,,,,,,,,,,,html-button-response,383,2.0.0,1784018,66293ce3dba0764775195e58,4,50,1230,,,,,,,,,"<img src= rock_img/I_Andesite_05.jpg style=""width:8cm; height:4.12cm;""><p style='font-size: 30px; color: red;'><strong>Incorrect!</strong></p><p style='font-size: 30px;'><strong>This rock is andesite</strong></p>",0,corr_feedback,3,train,5,,,,,,,,,,,,,,,,,,,,,,
,,,,,,,,,,,html-button-response,384,2.0.0,1785422,66293ce3dba0764775195e58,4,50,1403,,,,,,,,,"<img src= ""rock_img/I_Obsidian_12.jpg"" style=""width:8cm; height:6.53cm;""><p>What type of rock is this?</p>",4,class_response,3,train,6,Obsidian,Obsidian,12,TRUE,5,5,,,,,,,,,,,,,,,,
,,,,,,,,,,,html-button-response,385,2.0.0,1786549,66293ce3dba0764775195e58,4,50,1126,,,,,,,,,"<img src= rock_img/I_Obsidian_12.jpg style=""width:8cm; height:6.53cm;""><p style='font-size: 30px; color: green;'><strong>Correct!</strong></p><p style='font-size: 30px;'><strong>This rock is obsidian</strong></p>",0,corr_feedback,3,train,6,,,,,,,,,,,,,,,,,,,,,,
,,,,,,,,,,,html-button-response,386,2.0.0,1788228,66293ce3dba0764775195e58,4,50,1678,,,,,,,,,"<img src= ""rock_img/I_Gabbro_14.jpg"" style=""width:8cm; height:8.48cm;""><p>What type of rock is this?</p>",1,class_response,3,train,7,Basalt,Gabbro,14,FALSE,2,4,,,,,,,,,,,,,,,,
,,,,,,,,,,,html-button-response,387,2.0.0,1789472,66293ce3dba0764775195e58,4,50,1243,,,,,,,,,"<img src= rock_img/I_Gabbro_14.jpg style=""width:8cm; height:8.48cm;""><p style='font-size: 30px; color: red;'><strong>Incorrect!</strong></p><p style='font-size: 30px;'><strong>This rock is gabbro</strong></p>",0,corr_feedback,3,train,7,,,,,,,,,,,,,,,,,,,,,,
,,,,,,,,,,,html-button-response,388,2.0.0,1791735,66293ce3dba0764775195e58,4,50,2262,,,,,,,,,"<img src= ""rock_img/I_Basalt_11.jpg"" style=""width:8cm; height:5.359999999999999cm;""><p>What type of rock is this?</p>",7,class_response,3,train,8,Pumice,Basalt,11,FALSE,8,2,,,,,,,,,,,,,,,,
,,,,,,,,,,,html-button-response,389,2.0.0,1793002,66293ce3dba0764775195e58,4,50,1266,,,,,,,,,"<img src= rock_img/I_Basalt_11.jpg style=""width:8cm; height:5.359999999999999cm;""><p style='font-size: 30px; color: red;'><strong>Incorrect!</strong></p><p style='font-size: 30px;'><strong>This rock is basalt</strong></p>",0,corr_feedback,3,train,8,,,,,,,,,,,,,,,,,,,,,,
,,,,,,,,,,,html-button-response,390,2.0.0,1795516,66293ce3dba0764775195e58,4,50,2513,,,,,,,,,"<img src= ""rock_img/I_Andesite_03.jpg"" style=""width:8cm; height:5.73cm;""><p>What type of rock is this?</p>",3,class_response,3,train,9,Gabbro,Andesite,3,FALSE,4,1,,,,,,,,,,,,,,,,
,,,,,,,,,,,html-button-response,391,2.0.0,1796689,66293ce3dba0764775195e58,4,50,1172,,,,,,,,,"<img src= rock_img/I_Andesite_03.jpg style=""width:8cm; height:5.73cm;""><p style='font-size: 30px; color: red;'><strong>Incorrect!</strong></p><p style='font-size: 30px;'><strong>This rock is andesite</strong></p>",0,corr_feedback,3,train,9,,,,,,,,,,,,,,,,,,,,,,
,,,,,,,,,,,html-button-response,392,2.0.0,1798222,66293ce3dba0764775195e58,4,50,1532,,,,,,,,,"<img src= ""rock_img/I_Basalt_06.jpg"" style=""width:8cm; height:7.06cm;""><p>What type of rock is this?</p>",1,class_response,3,train,10,Basalt,Basalt,6,TRUE,2,2,,,,,,,,,,,,,,,,
,,,,,,,,,,,html-button-response,393,2.0.0,1799231,66293ce3dba0764775195e58,4,50,1008,,,,,,,,,"<img src= rock_img/I_Basalt_06.jpg style=""width:8cm; height:7.06cm;""><p style='font-size: 30px; color: green;'><strong>Correct!</strong></p><p style='font-size: 30px;'><strong>This rock is basalt</strong></p>",0,corr_feedback,3,train,10,,,,,,,,,,,,,,,,,,,,,,
,,,,,,,,,,,html-button-response,394,2.0.0,1800682,66293ce3dba0764775195e58,4,50,1450,,,,,,,,,"<img src= ""rock_img/I_Pumice_02.jpg"" style=""width:8cm; height:7.3999999999999995cm;""><p>What type of rock is this?</p>",7,class_response,3,train,11,Pumice,Pumice,2,TRUE,8,8,,,,,,,,,,,,,,,,
,,,,,,,,,,,html-button-response,395,2.0.0,1801878,66293ce3dba0764775195e58,4,50,1195,,,,,,,,,"<img src= rock_img/I_Pumice_02.jpg style=""width:8cm; height:7.3999999999999995cm;""><p style='font-size: 30px; color: green;'><strong>Correct!</strong></p><p style='font-size: 30px;'><strong>This rock is pumice</strong></p>",0,corr_feedback,3,train,11,,,,,,,,,,,,,,,,,,,,,,
,,,,,,,,,,,html-button-response,396,2.0.0,1803859,66293ce3dba0764775195e58,4,50,1980,,,,,,,,,"<img src= ""rock_img/I_Peridotite_07.jpg"" style=""width:8cm; height:4.83cm;""><p>What type of rock is this?</p>",0,class_response,3,train,12,Andesite,Peridotite,7,FALSE,1,7,,,,,,,,,,,,,,,,
,,,,,,,,,,,html-button-response,397,2.0.0,1805128,66293ce3dba0764775195e58,4,50,1268,,,,,,,,,"<img src= rock_img/I_Peridotite_07.jpg style=""width:8cm; height:4.83cm;""><p style='font-size: 30px; color: red;'><strong>Incorrect!</strong></p><p style='font-size: 30px;'><strong>This rock is peridotite</strong></p>",0,corr_feedback,3,train,12,,,,,,,,,,,,,,,,,,,,,,
,,,,,,,,,,,html-button-response,399,2.0.0,1806466,66293ce3dba0764775195e58,4,50,1337,,,,,,,,,,0,start_train,,,,,,,,,,,,,,,,,,,,,,,,,
,,,,,,,,,,,html-button-response,400,2.0.0,1814583,66293ce3dba0764775195e58,4,50,,,,,,,,,,,,cat_selection,3,train,1,,,,,,,5900.5,2215.7,6,4,Pegmatite,Gabbro,,,,,,,,,,
,,,,,,,,,,,paired-cat-display,401,1.0.0,1847194,66293ce3dba0764775195e58,4,50,,,,,,,,,,,,paired_cat_display,3,train,1,,,,,,,,,,,,,stripping distinct colors,,9623.4,22985,,less distinct colors,,,,
,,,,,,,,,,,html-button-response,402,2.0.0,1850730,66293ce3dba0764775195e58,4,50,,,,,,,,,,,,cat_selection,3,train,2,,,,,,,1469.2,2066.1,4,3,Gabbro,Diorite,,,,,,,,,,
,,,,,,,,,,,paired-cat-display,403,1.0.0,1903286,66293ce3dba0764775195e58,4,50,,,,,,,,,,,,paired_cat_display,3,train,2,,,,,,,,,,,,,,,8123.7,44429.1,,less distortion muted colors,,,stronger distinction of colors,
,,,,,,,,,,,html-button-response,404,2.0.0,1912576,66293ce3dba0764775195e58,4,50,,,,,,,,,,,,cat_selection,3,train,3,,,,,,,8440,848.8,7,3,Peridotite,Diorite,,,,,,,,,,
,,,,,,,,,,,paired-cat-display,405,1.0.0,1957634,66293ce3dba0764775195e58,4,50,,,,,,,,,,,,paired_cat_display,3,train,3,,,,,,,,,,,,,,,11567.4,33488.1,less speckling and more crystals,,,,distinct speckled colors,
,,,,,,,,,,,html-button-response,407,2.0.0,1959057,66293ce3dba0764775195e58,4,50,1421,,,,,,,,,,0,start_test,,,,,,,,,,,,,,,,,,,,,,,,,
,,,,,,,,,,,html-button-response,408,2.0.0,1960576,66293ce3dba0764775195e58,4,50,1518,,,,,,,,,"<img src= ""rock_img/I_Pumice_10.jpg"" style=""width:8cm; height:7.609999999999999cm;""><p>What type of rock is this?</p>",7,class_response,3,test,1,Pumice,Pumice,10,TRUE,8,8,,,,,,,,,,,,,,,,
