width,height,webaudio,browser,browser_version,mobile,os,fullscreen,vsync_rate,webcam,microphone,trial_type,trial_index,plugin_version,time_elapsed,subjID,condition,stimID,rt,url,success,value,timeout,failed_images,failed_audio,failed_video,view_history,stimulus,response,trialType,cycle,phase,trial,resp,cat,token,corr,resp_num,cat_num,time_fb1,time_fb2
1390,710,TRUE,chrome,131.0.0,FALSE,Windows 10,TRUE,121.46,TRUE,TRUE,browser-check,0,2.0.0,508,622a3bbca995cbb8f616a54e,2,5,,,,,,,,,,,,,,,,,,,,,,,
,,,,,,,,,,,external-html,1,2.0.0,74874,622a3bbca995cbb8f616a54e,2,5,74209,consent_form.html,,,,,,,,,,,,,,,,,,,,,
,,,,,,,,,,,fullscreen,2,2.0.0,80273,622a3bbca995cbb8f616a54e,2,5,4392,,TRUE,,,,,,,,,,,,,,,,,,,,
,,,,,,,,,,,call-function,3,2.0.0,80277,622a3bbca995cbb8f616a54e,2,5,,,,{},,,,,,,,,,,,,,,,,,,
,,,,,,,,,,,preload,4,2.0.0,82230,622a3bbca995cbb8f616a54e,2,5,,,TRUE,,FALSE,[],[],[],,,,,,,,,,,,,,,
,,,,,,,,,,,instructions,5,2.0.0,185574,622a3bbca995cbb8f616a54e,2,5,103343,,,,,,,,"[{""page_index"":0,""viewing_time"":78954},{""page_index"":1,""viewing_time"":11394},{""page_index"":2,""viewing_time"":12994}]",,,,,,,,,,,,,,
,,,,,,,,,,,html-button-response,6,2.0.0,187839,622a3bbca995cbb8f616a54e,2,5,2261,,,,,,,,,,0,start_test,,,,,,,,,,,
,,,,,,,,,,,html-button-response,7,2.0.0,200913,622a3bbca995cbb8f616a54e,2,5,13071,,,,,,,,,"<img src= ""rock_img/I_Basalt_14.jpg"" style=""width:8cm; height:5.82cm;""><p>What type of rock is this?</p>",0,class_response,0,test,1,Andesite,Basalt,14,FALSE,1,2,,
,,,,,,,,,,,html-keyboard-response,8,2.0.0,201420,622a3bbca995cbb8f616a54e,2,5,null,,,,,,,,,<p style='font-size: 30px;'><strong>Okay</strong></p>,null,neutral_feedback,0,test,1,,,,,,,,
,,,,,,,,,,,html-button-response,9,2.0.0,209010,622a3bbca995cbb8f616a54e,2,5,7587,,,,,,,,,"<img src= ""rock_img/I_Peridotite_05.jpg"" style=""width:8cm; height:7.1499999999999995cm;""><p>What type of rock is this?</p>",1,class_response,0,test,2,Basalt,Peridotite,5,FALSE,2,7,,
,,,,,,,,,,,html-keyboard-response,10,2.0.0,209516,622a3bbca995cbb8f616a54e,2,5,null,,,,,,,,,<p style='font-size: 30px;'><strong>Okay</strong></p>,null,neutral_feedback,0,test,2,,,,,,,,
,,,,,,,,,,,html-button-response,11,2.0.0,212030,622a3bbca995cbb8f616a54e,2,5,2511,,,,,,,,,"<img src= ""rock_img/I_Pegmatite_15.jpg"" style=""width:8cm; height:6cm;""><p>What type of rock is this?</p>",2,class_response,0,test,3,Diorite,Pegmatite,15,FALSE,3,6,,
,,,,,,,,,,,html-keyboard-response,12,2.0.0,212540,622a3bbca995cbb8f616a54e,2,5,null,,,,,,,,,<p style='font-size: 30px;'><strong>Okay</strong></p>,null,neutral_feedback,0,test,3,,,,,,,,
,,,,,,,,,,,html-button-response,13,2.0.0,214918,622a3bbca995cbb8f616a54e,2,5,2375,,,,,,,,,"<img src= ""rock_img/I_Gabbro_11.jpg"" style=""width:8cm; height:6.2cm;""><p>What type of rock is this?</p>",7,class_response,0,test,4,Pumice,Gabbro,11,FALSE,8,4,,
,,,,,,,,,,,html-keyboard-response,14,2.0.0,215435,622a3bbca995cbb8f616a54e,2,5,null,,,,,,,,,<p style='font-size: 30px;'><strong>Okay</strong></p>,null,neutral_feedback,0,test,4,,,,,,,,
,,,,,,,,,,,html-button-response,15,2.0.0,217835,622a3bbca995cbb8f616a54e,2,5,2398,,,,,,,,,"<img src= ""rock_img/I_Pumice_05.jpg"" style=""width:8cm; height:7.25cm;""><p>What type of rock is this?</p>",3,class_response,0,test,5,Gabbro,Pumice,5,FALSE,4,8,,
,,,,,,,,,,,html-keyboard-response,16,2.0.0,218345,622a3bbca995cbb8f616a54e,2,5,null,,,,,,,,,<p style='font-size: 30px;'><strong>Okay</strong></p>,null,neutral_feedback,0,test,5,,,,,,,,
,,,,,,,,,,,html-button-response,17,2.0.0,220957,622a3bbca995cbb8f616a54e,2,5,2610,,,,,,,,,"<img src= ""rock_img/I_Basalt_06.jpg"" style=""width:8cm; height:7.06cm;""><p>What type of rock is this?</p>",4,class_response,0,test,6,Obsidian,Basalt,6,FALSE,5,2,,
,,,,,,,,,,,html-keyboard-response,18,2.0.0,221471,622a3bbca995cbb8f616a54e,2,5,null,,,,,,,,,<p style='font-size: 30px;'><strong>Okay</strong></p>,null,neutral_feedback,0,test,6,,,,,,,,
,,,,,,,,,,,html-button-response,19,2.0.0,223350,622a3bbca995cbb8f616a54e,2,5,1877,,,,,,,,,"<img src= ""rock_img/I_Peridotite_04.jpg"" style=""width:8cm; height:6.680000000000001cm;""><p>What type of rock is this?</p>",5,class_response,0,test,7,Pegmatite,Peridotite,4,FALSE,6,7,,
,,,,,,,,,,,html-keyboard-response,20,2.0.0,223856,622a3bbca995cbb8f616a54e,2,5,null,,,,,,,,,<p style='font-size: 30px;'><strong>Okay</strong></p>,null,neutral_feedback,0,test,7,,,,,,,,
,,,,,,,,,,,html-button-response,21,2.0.0,226445,622a3bbca995cbb8f616a54e,2,5,2586,,,,,,,,,"<img src= ""rock_img/I_Pumice_02.jpg"" style=""width:8cm; height:7.3999999999999995cm;""><p>What type of rock is this?</p>",7,class_response,0,test,8,Pumice,Pumice,2,TRUE,8,8,,
,,,,,,,,,,,html-keyboard-response,22,2.0.0,226953,622a3bbca995cbb8f616a54e,2,5,null,,,,,,,,,<p style='font-size: 30px;'><strong>Okay</strong></p>,null,neutral_feedback,0,test,8,,,,,,,,
,,,,,,,,,,,html-button-response,23,2.0.0,228845,622a3bbca995cbb8f616a54e,2,5,1891,,,,,,,,,"<img src= ""rock_img/I_Gabbro_15.jpg"" style=""width:8cm; height:6.29cm;""><p>What type of rock is this?</p>",6,class_response,0,test,9,Peridotite,Gabbro,15,FALSE,7,4,,
,,,,,,,,,,,html-keyboard-response,24,2.0.0,229361,622a3bbca995cbb8f616a54e,2,5,null,,,,,,,,,<p style='font-size: 30px;'><strong>Okay</strong></p>,null,neutral_feedback,0,test,9,,,,,,,,
,,,,,,,,,,,html-button-response,25,2.0.0,231575,622a3bbca995cbb8f616a54e,2,5,2211,,,,,,,,,"<img src= ""rock_img/I_Obsidian_16.jpg"" style=""width:8cm; height:9.3cm;""><p>What type of rock is this?</p>",4,class_response,0,test,10,Obsidian,Obsidian,16,TRUE,5,5,,
,,,,,,,,,,,html-keyboard-response,26,2.0.0,232090,622a3bbca995cbb8f616a54e,2,5,null,,,,,,,,,<p style='font-size: 30px;'><strong>Okay</strong></p>,null,neutral_feedback,0,test,10,,,,,,,,
,,,,,,,,,,,html-button-response,27,2.0.0,235919,622a3bbca995cbb8f616a54e,2,5,3827,,,,,,,,,"<img src= ""rock_img/I_Gabbro_03.jpg"" style=""width:8cm; height:8.52cm;""><p>What type of rock is this?</p>",0,class_response,0,test,11,Andesite,Gabbro,3,FALSE,1,4,,
,,,,,,,,,,,html-keyboard-response,28,2.0.0,236421,622a3bbca995cbb8f616a54e,2,5,null,,,,,,,,,<p style='font-size: 30px;'><strong>Okay</strong></p>,null,neutral_feedback,0,test,11,,,,,,,,
,,,,,,,,,,,html-button-response,29,2.0.0,238918,622a3bbca995cbb8f616a54e,2,5,2495,,,,,,,,,"<img src= ""rock_img/I_Andesite_06.jpg"" style=""width:8cm; height:6.840000000000001cm;""><p>What type of rock is this?</p>",1,class_response,0,test,12,Basalt,Andesite,6,FALSE,2,1,,
,,,,,,,,,,,html-keyboard-response,30,2.0.0,239421,622a3bbca995cbb8f616a54e,2,5,null,,,,,,,,,<p style='font-size: 30px;'><strong>Okay</strong></p>,null,neutral_feedback,0,test,12,,,,,,,,
,,,,,,,,,,,html-button-response,31,2.0.0,241287,622a3bbca995cbb8f616a54e,2,5,1865,,,,,,,,,"<img src= ""rock_img/I_Basalt_11.jpg"" style=""width:8cm; height:5.359999999999999cm;""><p>What type of rock is this?</p>",2,class_response,0,test,13,Diorite,Basalt,11,FALSE,3,2,,
,,,,,,,,,,,html-keyboard-response,32,2.0.0,241797,622a3bbca995cbb8f616a54e,2,5,null,,,,,,,,,<p style='font-size: 30px;'><strong>Okay</strong></p>,null,neutral_feedback,0,test,13,,,,,,,,
,,,,,,,,,,,html-button-response,33,2.0.0,243526,622a3bbca995cbb8f616a54e,2,5,1727,,,,,,,,,"<img src= ""rock_img/I_Pumice_14.jpg"" style=""width:8cm; height:6.39cm;""><p>What type of rock is this?</p>",3,class_response,0,test,14,Gabbro,Pumice,14,FALSE,4,8,,
,,,,,,,,,,,html-keyboard-response,34,2.0.0,244029,622a3bbca995cbb8f616a54e,2,5,null,,,,,,,,,<p style='font-size: 30px;'><strong>Okay</strong></p>,null,neutral_feedback,0,test,14,,,,,,,,
,,,,,,,,,,,html-button-response,35,2.0.0,246076,622a3bbca995cbb8f616a54e,2,5,2045,,,,,,,,,"<img src= ""rock_img/I_Pegmatite_08.jpg"" style=""width:8cm; height:7.68cm;""><p>What type of rock is this?</p>",4,class_response,0,test,15,Obsidian,Pegmatite,8,FALSE,5,6,,
,,,,,,,,,,,html-keyboard-response,36,2.0.0,246584,622a3bbca995cbb8f616a54e,2,5,null,,,,,,,,,<p style='font-size: 30px;'><strong>Okay</strong></p>,null,neutral_feedback,0,test,15,,,,,,,,
,,,,,,,,,,,html-button-response,37,2.0.0,248653,622a3bbca995cbb8f616a54e,2,5,2067,,,,,,,,,"<img src= ""rock_img/I_Pegmatite_13.jpg"" style=""width:8cm; height:4.95cm;""><p>What type of rock is this?</p>",5,class_response,0,test,16,Pegmatite,Pegmatite,13,TRUE,6,6,,
,,,,,,,,,,,html-keyboard-response,38,2.0.0,249154,622a3bbca995cbb8f616a54e,2,5,null,,,,,,,,,<p style='font-size: 30px;'><strong>Okay</strong></p>,null,neutral_feedback,0,test,16,,,,,,,,
,,,,,,,,,,,html-button-response,39,2.0.0,251382,622a3bbca995cbb8f616a54e,2,5,2226,,,,,,,,,"<img src= ""rock_img/I_Obsidian_14.jpg"" style=""width:8cm; height:7.64cm;""><p>What type of rock is this?</p>",4,class_response,0,test,17,Obsidian,Obsidian,14,TRUE,5,5,,
,,,,,,,,,,,html-keyboard-response,40,2.0.0,251899,622a3bbca995cbb8f616a54e,2,5,null,,,,,,,,,<p style='font-size: 30px;'><strong>Okay</strong></p>,null,neutral_feedback,0,test,17,,,,,,,,
,,,,,,,,,,,html-button-response,41,2.0.0,254348,622a3bbca995cbb8f616a54e,2,5,2447,,,,,,,,,"<img src= ""rock_img/I_Peridotite_07.jpg"" style=""width:8cm; height:4.83cm;""><p>What type of rock is this?</p>",6,class_response,0,test,18,Peridotite,Peridotite,7,TRUE,7,7,,
,,,,,,,,,,,html-keyboard-response,42,2.0.0,254861,622a3bbca995cbb8f616a54e,2,5,null,,,,,,,,,<p style='font-size: 30px;'><strong>Okay</strong></p>,null,neutral_feedback,0,test,18,,,,,,,,
,,,,,,,,,,,html-button-response,43,2.0.0,257164,622a3bbca995cbb8f616a54e,2,5,2302,,,,,,,,,"<img src= ""rock_img/I_Basalt_02.jpg"" style=""width:8cm; height:6.45cm;""><p>What type of rock is this?</p>",0,class_response,0,test,19,Andesite,Basalt,2,FALSE,1,2,,
,,,,,,,,,,,html-keyboard-response,44,2.0.0,257676,622a3bbca995cbb8f616a54e,2,5,null,,,,,,,,,<p style='font-size: 30px;'><strong>Okay</strong></p>,null,neutral_feedback,0,test,19,,,,,,,,
,,,,,,,,,,,html-button-response,45,2.0.0,259061,622a3bbca995cbb8f616a54e,2,5,1383,,,,,,,,,"<img src= ""rock_img/I_Andesite_09.jpg"" style=""width:8cm; height:6cm;""><p>What type of rock is this?</p>",1,class_response,0,test,20,Basalt,Andesite,9,FALSE,2,1,,
,,,,,,,,,,,html-keyboard-response,46,2.0.0,259573,622a3bbca995cbb8f616a54e,2,5,null,,,,,,,,,<p style='font-size: 30px;'><strong>Okay</strong></p>,null,neutral_feedback,0,test,20,,,,,,,,
,,,,,,,,,,,html-button-response,47,2.0.0,261289,622a3bbca995cbb8f616a54e,2,5,1714,,,,,,,,,"<img src= ""rock_img/I_Gabbro_01.jpg"" style=""width:8cm; height:5.21cm;""><p>What type of rock is this?</p>",2,class_response,0,test,21,Diorite,Gabbro,1,FALSE,3,4,,
,,,,,,,,,,,html-keyboard-response,48,2.0.0,261801,622a3bbca995cbb8f616a54e,2,5,null,,,,,,,,,<p style='font-size: 30px;'><strong>Okay</strong></p>,null,neutral_feedback,0,test,21,,,,,,,,
,,,,,,,,,,,html-button-response,49,2.0.0,263880,622a3bbca995cbb8f616a54e,2,5,2078,,,,,,,,,"<img src= ""rock_img/I_Obsidian_08.jpg"" style=""width:8cm; height:7.39cm;""><p>What type of rock is this?</p>",4,class_response,0,test,22,Obsidian,Obsidian,8,TRUE,5,5,,
,,,,,,,,,,,html-keyboard-response,50,2.0.0,264384,622a3bbca995cbb8f616a54e,2,5,null,,,,,,,,,<p style='font-size: 30px;'><strong>Okay</strong></p>,null,neutral_feedback,0,test,22,,,,,,,,
,,,,,,,,,,,html-button-response,51,2.0.0,266320,622a3bbca995cbb8f616a54e,2,5,1935,,,,,,,,,"<img src= ""rock_img/I_Diorite_07.jpg"" style=""width:8cm; height:5.239999999999999cm;""><p>What type of rock is this?</p>",0,class_response,0,test,23,Andesite,Diorite,7,FALSE,1,3,,
,,,,,,,,,,,html-keyboard-response,52,2.0.0,266832,622a3bbca995cbb8f616a54e,2,5,null,,,,,,,,,<p style='font-size: 30px;'><strong>Okay</strong></p>,null,neutral_feedback,0,test,23,,,,,,,,
,,,,,,,,,,,html-button-response,53,2.0.0,268282,622a3bbca995cbb8f616a54e,2,5,1448,,,,,,,,,"<img src= ""rock_img/I_Basalt_10.jpg"" style=""width:8cm; height:5.85cm;""><p>What type of rock is this?</p>",1,class_response,0,test,24,Basalt,Basalt,10,TRUE,2,2,,
,,,,,,,,,,,html-keyboard-response,54,2.0.0,268794,622a3bbca995cbb8f616a54e,2,5,null,,,,,,,,,<p style='font-size: 30px;'><strong>Okay</strong></p>,null,neutral_feedback,0,test,24,,,,,,,,
,,,,,,,,,,,html-button-response,55,2.0.0,270319,622a3bbca995cbb8f616a54e,2,5,1525,,,,,,,,,"<img src= ""rock_img/I_Andesite_11.jpg"" style=""width:8cm; height:4.92cm;""><p>What type of rock is this?</p>",2,class_response,0,test,25,Diorite,Andesite,11,FALSE,3,1,,
,,,,,,,,,,,html-keyboard-response,56,2.0.0,270832,622a3bbca995cbb8f616a54e,2,5,null,,,,,,,,,<p style='font-size: 30px;'><strong>Okay</strong></p>,null,neutral_feedback,0,test,25,,,,,,,,
,,,,,,,,,,,html-button-response,57,2.0.0,272319,622a3bbca995cbb8f616a54e,2,5,1485,,,,,,,,,"<img src= ""rock_img/I_Diorite_09.jpg"" style=""width:8cm; height:5.27cm;""><p>What type of rock is this?</p>",3,class_response,0,test,26,Gabbro,Diorite,9,FALSE,4,3,,
,,,,,,,,,,,html-keyboard-response,58,2.0.0,272825,622a3bbca995cbb8f616a54e,2,5,null,,,,,,,,,<p style='font-size: 30px;'><strong>Okay</strong></p>,null,neutral_feedback,0,test,26,,,,,,,,
,,,,,,,,,,,html-button-response,59,2.0.0,274680,622a3bbca995cbb8f616a54e,2,5,1853,,,,,,,,,"<img src= ""rock_img/I_Diorite_10.jpg"" style=""width:8cm; height:5.949999999999999cm;""><p>What type of rock is this?</p>",5,class_response,0,test,27,Pegmatite,Diorite,10,FALSE,6,3,,
,,,,,,,,,,,html-keyboard-response,60,2.0.0,275192,622a3bbca995cbb8f616a54e,2,5,null,,,,,,,,,<p style='font-size: 30px;'><strong>Okay</strong></p>,null,neutral_feedback,0,test,27,,,,,,,,
,,,,,,,,,,,html-button-response,61,2.0.0,276714,622a3bbca995cbb8f616a54e,2,5,1520,,,,,,,,,"<img src= ""rock_img/I_Gabbro_16.jpg"" style=""width:8cm; height:6.44cm;""><p>What type of rock is this?</p>",6,class_response,0,test,28,Peridotite,Gabbro,16,FALSE,7,4,,
,,,,,,,,,,,html-keyboard-response,62,2.0.0,277228,622a3bbca995cbb8f616a54e,2,5,null,,,,,,,,,<p style='font-size: 30px;'><strong>Okay</strong></p>,null,neutral_feedback,0,test,28,,,,,,,,
,,,,,,,,,,,html-button-response,63,2.0.0,280331,622a3bbca995cbb8f616a54e,2,5,3102,,,,,,,,,"<img src= ""rock_img/I_Andesite_01.jpg"" style=""width:8cm; height:5.87cm;""><p>What type of rock is this?</p>",0,class_response,0,test,29,Andesite,Andesite,1,TRUE,1,1,,
,,,,,,,,,,,html-keyboard-response,64,2.0.0,280834,622a3bbca995cbb8f616a54e,2,5,null,,,,,,,,,<p style='font-size: 30px;'><strong>Okay</strong></p>,null,neutral_feedback,0,test,29,,,,,,,,
,,,,,,,,,,,html-button-response,65,2.0.0,282120,622a3bbca995cbb8f616a54e,2,5,1285,,,,,,,,,"<img src= ""rock_img/I_Andesite_03.jpg"" style=""width:8cm; height:5.73cm;""><p>What type of rock is this?</p>",1,class_response,0,test,30,Basalt,Andesite,3,FALSE,2,1,,
,,,,,,,,,,,html-keyboard-response,66,2.0.0,282623,622a3bbca995cbb8f616a54e,2,5,null,,,,,,,,,<p style='font-size: 30px;'><strong>Okay</strong></p>,null,neutral_feedback,0,test,30,,,,,,,,
,,,,,,,,,,,html-button-response,67,2.0.0,284460,622a3bbca995cbb8f616a54e,2,5,1835,,,,,,,,,"<img src= ""rock_img/I_Andesite_10.jpg"" style=""width:8cm; height:4.16cm;""><p>What type of rock is this?</p>",2,class_response,0,test,31,Diorite,Andesite,10,FALSE,3,1,,
,,,,,,,,,,,html-keyboard-response,68,2.0.0,284974,622a3bbca995cbb8f616a54e,2,5,null,,,,,,,,,<p style='font-size: 30px;'><strong>Okay</strong></p>,null,neutral_feedback,0,test,31,,,,,,,,
,,,,,,,,,,,html-button-response,69,2.0.0,286812,622a3bbca995cbb8f616a54e,2,5,1835,,,,,,,,,"<img src= ""rock_img/I_Pumice_08.jpg"" style=""width:8cm; height:6.67cm;""><p>What type of rock is this?</p>",7,class_response,0,test,32,Pumice,Pumice,8,TRUE,8,8,,
,,,,,,,,,,,html-keyboard-response,70,2.0.0,287323,622a3bbca995cbb8f616a54e,2,5,null,,,,,,,,,<p style='font-size: 30px;'><strong>Okay</strong></p>,null,neutral_feedback,0,test,32,,,,,,,,
,,,,,,,,,,,html-button-response,71,2.0.0,289129,622a3bbca995cbb8f616a54e,2,5,1804,,,,,,,,,"<img src= ""rock_img/I_Obsidian_12.jpg"" style=""width:8cm; height:6.53cm;""><p>What type of rock is this?</p>",4,class_response,0,test,33,Obsidian,Obsidian,12,TRUE,5,5,,
,,,,,,,,,,,html-keyboard-response,72,2.0.0,289637,622a3bbca995cbb8f616a54e,2,5,null,,,,,,,,,<p style='font-size: 30px;'><strong>Okay</strong></p>,null,neutral_feedback,0,test,33,,,,,,,,
,,,,,,,,,,,html-button-response,73,2.0.0,291249,622a3bbca995cbb8f616a54e,2,5,1610,,,,,,,,,"<img src= ""rock_img/I_Obsidian_11.jpg"" style=""width:8cm; height:6.05cm;""><p>What type of rock is this?</p>",4,class_response,0,test,34,Obsidian,Obsidian,11,TRUE,5,5,,
,,,,,,,,,,,html-keyboard-response,74,2.0.0,291755,622a3bbca995cbb8f616a54e,2,5,null,,,,,,,,,<p style='font-size: 30px;'><strong>Okay</strong></p>,null,neutral_feedback,0,test,34,,,,,,,,
,,,,,,,,,,,html-button-response,75,2.0.0,293461,622a3bbca995cbb8f616a54e,2,5,1704,,,,,,,,,"<img src= ""rock_img/I_Pegmatite_06.jpg"" style=""width:8cm; height:5.17cm;""><p>What type of rock is this?</p>",0,class_response,0,test,35,Andesite,Pegmatite,6,FALSE,1,6,,
,,,,,,,,,,,html-keyboard-response,76,2.0.0,293975,622a3bbca995cbb8f616a54e,2,5,null,,,,,,,,,<p style='font-size: 30px;'><strong>Okay</strong></p>,null,neutral_feedback,0,test,35,,,,,,,,
,,,,,,,,,,,html-button-response,77,2.0.0,295290,622a3bbca995cbb8f616a54e,2,5,1313,,,,,,,,,"<img src= ""rock_img/I_Gabbro_05.jpg"" style=""width:8cm; height:6cm;""><p>What type of rock is this?</p>",1,class_response,0,test,36,Basalt,Gabbro,5,FALSE,2,4,,
,,,,,,,,,,,html-keyboard-response,78,2.0.0,295792,622a3bbca995cbb8f616a54e,2,5,null,,,,,,,,,<p style='font-size: 30px;'><strong>Okay</strong></p>,null,neutral_feedback,0,test,36,,,,,,,,
,,,,,,,,,,,html-button-response,79,2.0.0,297116,622a3bbca995cbb8f616a54e,2,5,1323,,,,,,,,,"<img src= ""rock_img/I_Peridotite_10.jpg"" style=""width:8cm; height:5.390000000000001cm;""><p>What type of rock is this?</p>",2,class_response,0,test,37,Diorite,Peridotite,10,FALSE,3,7,,
,,,,,,,,,,,html-keyboard-response,80,2.0.0,297625,622a3bbca995cbb8f616a54e,2,5,null,,,,,,,,,<p style='font-size: 30px;'><strong>Okay</strong></p>,null,neutral_feedback,0,test,37,,,,,,,,
,,,,,,,,,,,html-button-response,81,2.0.0,298986,622a3bbca995cbb8f616a54e,2,5,1360,,,,,,,,,"<img src= ""rock_img/I_Basalt_04.jpg"" style=""width:8cm; height:7.53cm;""><p>What type of rock is this?</p>",3,class_response,0,test,38,Gabbro,Basalt,4,FALSE,4,2,,
,,,,,,,,,,,html-keyboard-response,82,2.0.0,299497,622a3bbca995cbb8f616a54e,2,5,null,,,,,,,,,<p style='font-size: 30px;'><strong>Okay</strong></p>,null,neutral_feedback,0,test,38,,,,,,,,
,,,,,,,,,,,html-button-response,83,2.0.0,301908,622a3bbca995cbb8f616a54e,2,5,2409,,,,,,,,,"<img src= ""rock_img/I_Peridotite_12.jpg"" style=""width:8cm; height:4.54cm;""><p>What type of rock is this?</p>",5,class_response,0,test,39,Pegmatite,Peridotite,12,FALSE,6,7,,
,,,,,,,,,,,html-keyboard-response,84,2.0.0,302421,622a3bbca995cbb8f616a54e,2,5,null,,,,,,,,,<p style='font-size: 30px;'><strong>Okay</strong></p>,null,neutral_feedback,0,test,39,,,,,,,,
,,,,,,,,,,,html-button-response,85,2.0.0,303872,622a3bbca995cbb8f616a54e,2,5,1449,,,,,,,,,"<img src= ""rock_img/I_Pegmatite_05.jpg"" style=""width:8cm; height:7.300000000000001cm;""><p>What type of rock is this?</p>",6,class_response,0,test,40,Peridotite,Pegmatite,5,FALSE,7,6,,
,,,,,,,,,,,html-keyboard-response,86,2.0.0,304378,622a3bbca995cbb8f616a54e,2,5,null,,,,,,,,,<p style='font-size: 30px;'><strong>Okay</strong></p>,null,neutral_feedback,0,test,40,,,,,,,,
,,,,,,,,,,,html-button-response,87,2.0.0,307256,622a3bbca995cbb8f616a54e,2,5,2876,,,,,,,,,"<img src= ""rock_img/I_Pegmatite_10.jpg"" style=""width:8cm; height:4.16cm;""><p>What type of rock is this?</p>",0,class_response,0,test,41,Andesite,Pegmatite,10,FALSE,1,6,,
,,,,,,,,,,,html-keyboard-response,88,2.0.0,307770,622a3bbca995cbb8f616a54e,2,5,null,,,,,,,,,<p style='font-size: 30px;'><strong>Okay</strong></p>,null,neutral_feedback,0,test,41,,,,,,,,
,,,,,,,,,,,html-button-response,89,2.0.0,309218,622a3bbca995cbb8f616a54e,2,5,1446,,,,,,,,,"<img src= ""rock_img/I_Diorite_14.jpg"" style=""width:8cm; height:5.71cm;""><p>What type of rock is this?</p>",1,class_response,0,test,42,Basalt,Diorite,14,FALSE,2,3,,
,,,,,,,,,,,html-keyboard-response,90,2.0.0,309723,622a3bbca995cbb8f616a54e,2,5,null,,,,,,,,,<p style='font-size: 30px;'><strong>Okay</strong></p>,null,neutral_feedback,0,test,42,,,,,,,,
,,,,,,,,,,,html-button-response,91,2.0.0,311223,622a3bbca995cbb8f616a54e,2,5,1498,,,,,,,,,"<img src= ""rock_img/I_Pumice_15.jpg"" style=""width:8cm; height:7.86cm;""><p>What type of rock is this?</p>",2,class_response,0,test,43,Diorite,Pumice,15,FALSE,3,8,,
,,,,,,,,,,,html-keyboard-response,92,2.0.0,311735,622a3bbca995cbb8f616a54e,2,5,null,,,,,,,,,<p style='font-size: 30px;'><strong>Okay</strong></p>,null,neutral_feedback,0,test,43,,,,,,,,
,,,,,,,,,,,html-button-response,93,2.0.0,313637,622a3bbca995cbb8f616a54e,2,5,1901,,,,,,,,,"<img src= ""rock_img/I_Pumice_16.jpg"" style=""width:8cm; height:6.79cm;""><p>What type of rock is this?</p>",3,class_response,0,test,44,Gabbro,Pumice,16,FALSE,4,8,,
,,,,,,,,,,,html-keyboard-response,94,2.0.0,314153,622a3bbca995cbb8f616a54e,2,5,null,,,,,,,,,<p style='font-size: 30px;'><strong>Okay</strong></p>,null,neutral_feedback,0,test,44,,,,,,,,
,,,,,,,,,,,html-button-response,95,2.0.0,315456,622a3bbca995cbb8f616a54e,2,5,1302,,,,,,,,,"<img src= ""rock_img/I_Diorite_11.jpg"" style=""width:8cm; height:7.11cm;""><p>What type of rock is this?</p>",5,class_response,0,test,45,Pegmatite,Diorite,11,FALSE,6,3,,
,,,,,,,,,,,html-keyboard-response,96,2.0.0,315959,622a3bbca995cbb8f616a54e,2,5,null,,,,,,,,,<p style='font-size: 30px;'><strong>Okay</strong></p>,null,neutral_feedback,0,test,45,,,,,,,,
,,,,,,,,,,,html-button-response,97,2.0.0,317444,622a3bbca995cbb8f616a54e,2,5,1484,,,,,,,,,"<img src= ""rock_img/I_Peridotite_08.jpg"" style=""width:8cm; height:6.7cm;""><p>What type of rock is this?</p>",6,class_response,0,test,46,Peridotite,Peridotite,8,TRUE,7,7,,
,,,,,,,,,,,html-keyboard-response,98,2.0.0,317953,622a3bbca995cbb8f616a54e,2,5,null,,,,,,,,,<p style='font-size: 30px;'><strong>Okay</strong></p>,null,neutral_feedback,0,test,46,,,,,,,,
,,,,,,,,,,,html-button-response,99,2.0.0,319681,622a3bbca995cbb8f616a54e,2,5,1726,,,,,,,,,"<img src= ""rock_img/I_Diorite_02.jpg"" style=""width:8cm; height:6.27cm;""><p>What type of rock is this?</p>",0,class_response,0,test,47,Andesite,Diorite,2,FALSE,1,3,,
,,,,,,,,,,,html-keyboard-response,100,2.0.0,320195,622a3bbca995cbb8f616a54e,2,5,null,,,,,,,,,<p style='font-size: 30px;'><strong>Okay</strong></p>,null,neutral_feedback,0,test,47,,,,,,,,
,,,,,,,,,,,html-button-response,101,2.0.0,321750,622a3bbca995cbb8f616a54e,2,5,1553,,,,,,,,,"<img src= ""rock_img/I_Obsidian_04.jpg"" style=""width:8cm; height:6.930000000000001cm;""><p>What type of rock is this?</p>",4,class_response,0,test,48,Obsidian,Obsidian,4,TRUE,5,5,,
,,,,,,,,,,,html-keyboard-response,102,2.0.0,322261,622a3bbca995cbb8f616a54e,2,5,null,,,,,,,,,<p style='font-size: 30px;'><strong>Okay</strong></p>,null,neutral_feedback,0,test,48,,,,,,,,
,,,,,,,,,,,instructions,103,2.0.0,353324,622a3bbca995cbb8f616a54e,2,5,31037,,,,,,,,"[{""page_index"":0,""viewing_time"":18784},{""page_index"":1,""viewing_time"":6468},{""page_index"":2,""viewing_time"":5785}]",,,,,,,,,,,,,,
,,,,,,,,,,,html-button-response,104,2.0.0,356868,622a3bbca995cbb8f616a54e,2,5,3543,,,,,,,,,,0,start_train,,,,,,,,,,,
,,,,,,,,,,,html-button-response,105,2.0.0,361885,622a3bbca995cbb8f616a54e,2,5,5014,,,,,,,,,"<img src= ""rock_img/I_Pegmatite_09.jpg"" style=""width:8cm; height:4.03cm;""><p>What type of rock is this?</p>",1,class_response,1,train,1,Basalt,Pegmatite,9,FALSE,2,6,,
,,,,,,,,,,,html-button-response,106,2.0.0,366365,622a3bbca995cbb8f616a54e,2,5,4477,,,,,,,,,"<img src= rock_img/I_Pegmatite_09.jpg style=""width:8cm; height:4.03cm;""><p style='font-size: 30px; color: red;'><strong>Incorrect!</strong></p><p style='font-size: 30px;'><strong>This rock is pegmatite</strong></p>",0,corr_feedback,1,train,1,,,,,,,,
,,,,,,,,,,,html-button-response,107,2.0.0,371762,622a3bbca995cbb8f616a54e,2,5,5395,,,,,,,,,"<img src= ""rock_img/I_Pegmatite_11.jpg"" style=""width:8cm; height:8.14cm;""><p>What type of rock is this?</p>",4,class_response,1,train,2,Obsidian,Pegmatite,11,FALSE,5,6,,
,,,,,,,,,,,html-button-response,108,2.0.0,374150,622a3bbca995cbb8f616a54e,2,5,2386,,,,,,,,,"<img src= rock_img/I_Pegmatite_11.jpg style=""width:8cm; height:8.14cm;""><p style='font-size: 30px; color: red;'><strong>Incorrect!</strong></p><p style='font-size: 30px;'><strong>This rock is pegmatite</strong></p>",0,corr_feedback,1,train,2,,,,,,,,
,,,,,,,,,,,html-button-response,109,2.0.0,376870,622a3bbca995cbb8f616a54e,2,5,2719,,,,,,,,,"<img src= ""rock_img/I_Diorite_06.jpg"" style=""width:8cm; height:6.03cm;""><p>What type of rock is this?</p>",1,class_response,1,train,3,Basalt,Diorite,6,FALSE,2,3,,
,,,,,,,,,,,html-button-response,110,2.0.0,381688,622a3bbca995cbb8f616a54e,2,5,4816,,,,,,,,,"<img src= rock_img/I_Diorite_06.jpg style=""width:8cm; height:6.03cm;""><p style='font-size: 30px; color: red;'><strong>Incorrect!</strong></p><p style='font-size: 30px;'><strong>This rock is diorite</strong></p>",0,corr_feedback,1,train,3,,,,,,,,
,,,,,,,,,,,html-button-response,111,2.0.0,386396,622a3bbca995cbb8f616a54e,2,5,4705,,,,,,,,,"<img src= ""rock_img/I_Peridotite_06.jpg"" style=""width:8cm; height:7.53cm;""><p>What type of rock is this?</p>",5,class_response,1,train,4,Pegmatite,Peridotite,6,FALSE,6,7,,
,,,,,,,,,,,html-button-response,112,2.0.0,388946,622a3bbca995cbb8f616a54e,2,5,2547,,,,,,,,,"<img src= rock_img/I_Peridotite_06.jpg style=""width:8cm; height:7.53cm;""><p style='font-size: 30px; color: red;'><strong>Incorrect!</strong></p><p style='font-size: 30px;'><strong>This rock is peridotite</strong></p>",0,corr_feedback,1,train,4,,,,,,,,
,,,,,,,,,,,html-button-response,113,2.0.0,391708,622a3bbca995cbb8f616a54e,2,5,2760,,,,,,,,,"<img src= ""rock_img/I_Diorite_12.jpg"" style=""width:8cm; height:4.88cm;""><p>What type of rock is this?</p>",1,class_response,1,train,5,Basalt,Diorite,12,FALSE,2,3,,
,,,,,,,,,,,html-button-response,114,2.0.0,395989,622a3bbca995cbb8f616a54e,2,5,4279,,,,,,,,,"<img src= rock_img/I_Diorite_12.jpg style=""width:8cm; height:4.88cm;""><p style='font-size: 30px; color: red;'><strong>Incorrect!</strong></p><p style='font-size: 30px;'><strong>This rock is diorite</strong></p>",0,corr_feedback,1,train,5,,,,,,,,
,,,,,,,,,,,html-button-response,115,2.0.0,401686,622a3bbca995cbb8f616a54e,2,5,5694,,,,,,,,,"<img src= ""rock_img/I_Pegmatite_12.jpg"" style=""width:8cm; height:5.7cm;""><p>What type of rock is this?</p>",2,class_response,1,train,6,Diorite,Pegmatite,12,FALSE,3,6,,
,,,,,,,,,,,html-button-response,116,2.0.0,403582,622a3bbca995cbb8f616a54e,2,5,1894,,,,,,,,,"<img src= rock_img/I_Pegmatite_12.jpg style=""width:8cm; height:5.7cm;""><p style='font-size: 30px; color: red;'><strong>Incorrect!</strong></p><p style='font-size: 30px;'><strong>This rock is pegmatite</strong></p>",0,corr_feedback,1,train,6,,,,,,,,
,,,,,,,,,,,html-button-response,117,2.0.0,409299,622a3bbca995cbb8f616a54e,2,5,5714,,,,,,,,,"<img src= ""rock_img/I_Pegmatite_12.jpg"" style=""width:8cm; height:5.7cm;""><p>What type of rock is this?</p>",5,class_response,1,train,7,Pegmatite,Pegmatite,12,TRUE,6,6,,
,,,,,,,,,,,html-button-response,118,2.0.0,413667,622a3bbca995cbb8f616a54e,2,5,4367,,,,,,,,,"<img src= rock_img/I_Pegmatite_12.jpg style=""width:8cm; height:5.7cm;""><p style='font-size: 30px; color: green;'><strong>Correct!</strong></p><p style='font-size: 30px;'><strong>This rock is pegmatite</strong></p>",0,corr_feedback,1,train,7,,,,,,,,
,,,,,,,,,,,html-button-response,119,2.0.0,417889,622a3bbca995cbb8f616a54e,2,5,4220,,,,,,,,,"<img src= ""rock_img/I_Gabbro_13.jpg"" style=""width:8cm; height:5.08cm;""><p>What type of rock is this?</p>",0,class_response,1,train,8,Andesite,Gabbro,13,FALSE,1,4,,
,,,,,,,,,,,html-button-response,120,2.0.0,428324,622a3bbca995cbb8f616a54e,2,5,10433,,,,,,,,,"<img src= rock_img/I_Gabbro_13.jpg style=""width:8cm; height:5.08cm;""><p style='font-size: 30px; color: red;'><strong>Incorrect!</strong></p><p style='font-size: 30px;'><strong>This rock is gabbro</strong></p>",0,corr_feedback,1,train,8,,,,,,,,
,,,,,,,,,,,html-button-response,121,2.0.0,431909,622a3bbca995cbb8f616a54e,2,5,3582,,,,,,,,,"<img src= ""rock_img/I_Basalt_12.jpg"" style=""width:8cm; height:6.010000000000001cm;""><p>What type of rock is this?</p>",7,class_response,1,train,9,Pumice,Basalt,12,FALSE,8,2,,
,,,,,,,,,,,html-button-response,122,2.0.0,434328,622a3bbca995cbb8f616a54e,2,5,2417,,,,,,,,,"<img src= rock_img/I_Basalt_12.jpg style=""width:8cm; height:6.010000000000001cm;""><p style='font-size: 30px; color: red;'><strong>Incorrect!</strong></p><p style='font-size: 30px;'><strong>This rock is basalt</strong></p>",0,corr_feedback,1,train,9,,,,,,,,
,,,,,,,,,,,html-button-response,123,2.0.0,437836,622a3bbca995cbb8f616a54e,2,5,3506,,,,,,,,,"<img src= ""rock_img/I_Andesite_07.jpg"" style=""width:8cm; height:5.93cm;""><p>What type of rock is this?</p>",0,class_response,1,train,10,Andesite,Andesite,7,TRUE,1,1,,
,,,,,,,,,,,html-button-response,124,2.0.0,442527,622a3bbca995cbb8f616a54e,2,5,4689,,,,,,,,,"<img src= rock_img/I_Andesite_07.jpg style=""width:8cm; height:5.93cm;""><p style='font-size: 30px; color: green;'><strong>Correct!</strong></p><p style='font-size: 30px;'><strong>This rock is andesite</strong></p>",0,corr_feedback,1,train,10,,,,,,,,
,,,,,,,,,,,html-button-response,125,2.0.0,446410,622a3bbca995cbb8f616a54e,2,5,3881,,,,,,,,,"<img src= ""rock_img/I_Diorite_15.jpg"" style=""width:8cm; height:5.54cm;""><p>What type of rock is this?</p>",2,class_response,1,train,11,Diorite,Diorite,15,TRUE,3,3,,
,,,,,,,,,,,html-button-response,126,2.0.0,451771,622a3bbca995cbb8f616a54e,2,5,5358,,,,,,,,,"<img src= rock_img/I_Diorite_15.jpg style=""width:8cm; height:5.54cm;""><p style='font-size: 30px; color: green;'><strong>Correct!</strong></p><p style='font-size: 30px;'><strong>This rock is diorite</strong></p>",0,corr_feedback,1,train,11,,,,,,,,
,,,,,,,,,,,html-button-response,127,2.0.0,456474,622a3bbca995cbb8f616a54e,2,5,4701,,,,,,,,,"<img src= ""rock_img/I_Basalt_09.jpg"" style=""width:8cm; height:6.2cm;""><p>What type of rock is this?</p>",7,class_response,1,train,12,Pumice,Basalt,9,FALSE,8,2,,
,,,,,,,,,,,html-button-response,128,2.0.0,458442,622a3bbca995cbb8f616a54e,2,5,1967,,,,,,,,,"<img src= rock_img/I_Basalt_09.jpg style=""width:8cm; height:6.2cm;""><p style='font-size: 30px; color: red;'><strong>Incorrect!</strong></p><p style='font-size: 30px;'><strong>This rock is basalt</strong></p>",0,corr_feedback,1,train,12,,,,,,,,
,,,,,,,,,,,html-button-response,129,2.0.0,464915,622a3bbca995cbb8f616a54e,2,5,6470,,,,,,,,,"<img src= ""rock_img/I_Peridotite_16.jpg"" style=""width:8cm; height:6.989999999999999cm;""><p>What type of rock is this?</p>",5,class_response,1,train,13,Pegmatite,Peridotite,16,FALSE,6,7,,
,,,,,,,,,,,html-button-response,130,2.0.0,466910,622a3bbca995cbb8f616a54e,2,5,1993,,,,,,,,,"<img src= rock_img/I_Peridotite_16.jpg style=""width:8cm; height:6.989999999999999cm;""><p style='font-size: 30px; color: red;'><strong>Incorrect!</strong></p><p style='font-size: 30px;'><strong>This rock is peridotite</strong></p>",0,corr_feedback,1,train,13,,,,,,,,
,,,,,,,,,,,html-button-response,131,2.0.0,469925,622a3bbca995cbb8f616a54e,2,5,3013,,,,,,,,,"<img src= ""rock_img/I_Pumice_09.jpg"" style=""width:8cm; height:6.44cm;""><p>What type of rock is this?</p>",7,class_response,1,train,14,Pumice,Pumice,9,TRUE,8,8,,
,,,,,,,,,,,html-button-response,132,2.0.0,471755,622a3bbca995cbb8f616a54e,2,5,1828,,,,,,,,,"<img src= rock_img/I_Pumice_09.jpg style=""width:8cm; height:6.44cm;""><p style='font-size: 30px; color: green;'><strong>Correct!</strong></p><p style='font-size: 30px;'><strong>This rock is pumice</strong></p>",0,corr_feedback,1,train,14,,,,,,,,
,,,,,,,,,,,html-button-response,133,2.0.0,473774,622a3bbca995cbb8f616a54e,2,5,2018,,,,,,,,,"<img src= ""rock_img/I_Andesite_16.jpg"" style=""width:8cm; height:6.010000000000001cm;""><p>What type of rock is this?</p>",1,class_response,1,train,15,Basalt,Andesite,16,FALSE,2,1,,
,,,,,,,,,,,html-button-response,134,2.0.0,475558,622a3bbca995cbb8f616a54e,2,5,1782,,,,,,,,,"<img src= rock_img/I_Andesite_16.jpg style=""width:8cm; height:6.010000000000001cm;""><p style='font-size: 30px; color: red;'><strong>Incorrect!</strong></p><p style='font-size: 30px;'><strong>This rock is andesite</strong></p>",0,corr_feedback,1,train,15,,,,,,,,
,,,,,,,,,,,html-button-response,135,2.0.0,482302,622a3bbca995cbb8f616a54e,2,5,6741,,,,,,,,,"<img src= ""rock_img/I_Gabbro_10.jpg"" style=""width:8cm; height:5.680000000000001cm;""><p>What type of rock is this?</p>",3,class_response,1,train,16,Gabbro,Gabbro,10,TRUE,4,4,,
,,,,,,,,,,,html-button-response,136,2.0.0,500168,622a3bbca995cbb8f616a54e,2,5,17864,,,,,,,,,"<img src= rock_img/I_Gabbro_10.jpg style=""width:8cm; height:5.680000000000001cm;""><p style='font-size: 30px; color: green;'><strong>Correct!</strong></p><p style='font-size: 30px;'><strong>This rock is gabbro</strong></p>",0,corr_feedback,1,train,16,,,,,,,,
,,,,,,,,,,,html-button-response,137,2.0.0,503073,622a3bbca995cbb8f616a54e,2,5,2904,,,,,,,,,"<img src= ""rock_img/I_Basalt_05.jpg"" style=""width:8cm; height:8.18cm;""><p>What type of rock is this?</p>",2,class_response,1,train,17,Diorite,Basalt,5,FALSE,3,2,,
,,,,,,,,,,,html-button-response,138,2.0.0,511234,622a3bbca995cbb8f616a54e,2,5,8159,,,,,,,,,"<img src= rock_img/I_Basalt_05.jpg style=""width:8cm; height:8.18cm;""><p style='font-size: 30px; color: red;'><strong>Incorrect!</strong></p><p style='font-size: 30px;'><strong>This rock is basalt</strong></p>",0,corr_feedback,1,train,17,,,,,,,,
,,,,,,,,,,,html-button-response,139,2.0.0,514166,622a3bbca995cbb8f616a54e,2,5,2930,,,,,,,,,"<img src= ""rock_img/I_Diorite_13.jpg"" style=""width:8cm; height:6.29cm;""><p>What type of rock is this?</p>",6,class_response,1,train,18,Peridotite,Diorite,13,FALSE,7,3,,
,,,,,,,,,,,html-button-response,140,2.0.0,522724,622a3bbca995cbb8f616a54e,2,5,8556,,,,,,,,,"<img src= rock_img/I_Diorite_13.jpg style=""width:8cm; height:6.29cm;""><p style='font-size: 30px; color: red;'><strong>Incorrect!</strong></p><p style='font-size: 30px;'><strong>This rock is diorite</strong></p>",0,corr_feedback,1,train,18,,,,,,,,
,,,,,,,,,,,html-button-response,141,2.0.0,534092,622a3bbca995cbb8f616a54e,2,5,11367,,,,,,,,,"<img src= ""rock_img/I_Basalt_01.jpg"" style=""width:8cm; height:7.880000000000001cm;""><p>What type of rock is this?</p>",3,class_response,1,train,19,Gabbro,Basalt,1,FALSE,4,2,,
,,,,,,,,,,,html-button-response,142,2.0.0,550301,622a3bbca995cbb8f616a54e,2,5,16206,,,,,,,,,"<img src= rock_img/I_Basalt_01.jpg style=""width:8cm; height:7.880000000000001cm;""><p style='font-size: 30px; color: red;'><strong>Incorrect!</strong></p><p style='font-size: 30px;'><strong>This rock is basalt</strong></p>",0,corr_feedback,1,train,19,,,,,,,,
,,,,,,,,,,,html-button-response,143,2.0.0,560902,622a3bbca995cbb8f616a54e,2,5,10600,,,,,,,,,"<img src= ""rock_img/I_Andesite_14.jpg"" style=""width:8cm; height:5.449999999999999cm;""><p>What type of rock is this?</p>",2,class_response,1,train,20,Diorite,Andesite,14,FALSE,3,1,,
,,,,,,,,,,,html-button-response,144,2.0.0,576521,622a3bbca995cbb8f616a54e,2,5,15617,,,,,,,,,"<img src= rock_img/I_Andesite_14.jpg style=""width:8cm; height:5.449999999999999cm;""><p style='font-size: 30px; color: red;'><strong>Incorrect!</strong></p><p style='font-size: 30px;'><strong>This rock is andesite</strong></p>",0,corr_feedback,1,train,20,,,,,,,,
,,,,,,,,,,,html-button-response,145,2.0.0,591876,622a3bbca995cbb8f616a54e,2,5,15352,,,,,,,,,"<img src= ""rock_img/I_Gabbro_12.jpg"" style=""width:8cm; height:7.800000000000001cm;""><p>What type of rock is this?</p>",1,class_response,1,train,21,Basalt,Gabbro,12,FALSE,2,4,,
,,,,,,,,,,,html-button-response,146,2.0.0,617483,622a3bbca995cbb8f616a54e,2,5,25606,,,,,,,,,"<img src= rock_img/I_Gabbro_12.jpg style=""width:8cm; height:7.800000000000001cm;""><p style='font-size: 30px; color: red;'><strong>Incorrect!</strong></p><p style='font-size: 30px;'><strong>This rock is gabbro</strong></p>",0,corr_feedback,1,train,21,,,,,,,,
,,,,,,,,,,,html-button-response,147,2.0.0,631567,622a3bbca995cbb8f616a54e,2,5,14082,,,,,,,,,"<img src= ""rock_img/I_Basalt_16.jpg"" style=""width:8cm; height:7.659999999999999cm;""><p>What type of rock is this?</p>",3,class_response,1,train,22,Gabbro,Basalt,16,FALSE,4,2,,
,,,,,,,,,,,html-button-response,148,2.0.0,647064,622a3bbca995cbb8f616a54e,2,5,15495,,,,,,,,,"<img src= rock_img/I_Basalt_16.jpg style=""width:8cm; height:7.659999999999999cm;""><p style='font-size: 30px; color: red;'><strong>Incorrect!</strong></p><p style='font-size: 30px;'><strong>This rock is basalt</strong></p>",0,corr_feedback,1,train,22,,,,,,,,
,,,,,,,,,,,html-button-response,149,2.0.0,650118,622a3bbca995cbb8f616a54e,2,5,3052,,,,,,,,,"<img src= ""rock_img/I_Pumice_06.jpg"" style=""width:8cm; height:6.9399999999999995cm;""><p>What type of rock is this?</p>",7,class_response,1,train,23,Pumice,Pumice,6,TRUE,8,8,,
,,,,,,,,,,,html-button-response,150,2.0.0,651930,622a3bbca995cbb8f616a54e,2,5,1810,,,,,,,,,"<img src= rock_img/I_Pumice_06.jpg style=""width:8cm; height:6.9399999999999995cm;""><p style='font-size: 30px; color: green;'><strong>Correct!</strong></p><p style='font-size: 30px;'><strong>This rock is pumice</strong></p>",0,corr_feedback,1,train,23,,,,,,,,
,,,,,,,,,,,html-button-response,151,2.0.0,663030,622a3bbca995cbb8f616a54e,2,5,11097,,,,,,,,,"<img src= ""rock_img/I_Basalt_08.jpg"" style=""width:8cm; height:10.44cm;""><p>What type of rock is this?</p>",1,class_response,1,train,24,Basalt,Basalt,8,TRUE,2,2,,
,,,,,,,,,,,html-button-response,152,2.0.0,664499,622a3bbca995cbb8f616a54e,2,5,1466,,,,,,,,,"<img src= rock_img/I_Basalt_08.jpg style=""width:8cm; height:10.44cm;""><p style='font-size: 30px; color: green;'><strong>Correct!</strong></p><p style='font-size: 30px;'><strong>This rock is basalt</strong></p>",0,corr_feedback,1,train,24,,,,,,,,
,,,,,,,,,,,html-button-response,153,2.0.0,678599,622a3bbca995cbb8f616a54e,2,5,14097,,,,,,,,,"<img src= ""rock_img/I_Pumice_13.jpg"" style=""width:8cm; height:8.200000000000001cm;""><p>What type of rock is this?</p>",0,class_response,1,train,25,Andesite,Pumice,13,FALSE,1,8,,
,,,,,,,,,,,html-button-response,154,2.0.0,680878,622a3bbca995cbb8f616a54e,2,5,2277,,,,,,,,,"<img src= rock_img/I_Pumice_13.jpg style=""width:8cm; height:8.200000000000001cm;""><p style='font-size: 30px; color: red;'><strong>Incorrect!</strong></p><p style='font-size: 30px;'><strong>This rock is pumice</strong></p>",0,corr_feedback,1,train,25,,,,,,,,
,,,,,,,,,,,html-button-response,155,2.0.0,682936,622a3bbca995cbb8f616a54e,2,5,2055,,,,,,,,,"<img src= ""rock_img/I_Pumice_03.jpg"" style=""width:8cm; height:6.64cm;""><p>What type of rock is this?</p>",7,class_response,1,train,26,Pumice,Pumice,3,TRUE,8,8,,
,,,,,,,,,,,html-button-response,156,2.0.0,684283,622a3bbca995cbb8f616a54e,2,5,1343,,,,,,,,,"<img src= rock_img/I_Pumice_03.jpg style=""width:8cm; height:6.64cm;""><p style='font-size: 30px; color: green;'><strong>Correct!</strong></p><p style='font-size: 30px;'><strong>This rock is pumice</strong></p>",0,corr_feedback,1,train,26,,,,,,,,
,,,,,,,,,,,html-button-response,157,2.0.0,699237,622a3bbca995cbb8f616a54e,2,5,14952,,,,,,,,,"<img src= ""rock_img/I_Pegmatite_03.jpg"" style=""width:8cm; height:5.239999999999999cm;""><p>What type of rock is this?</p>",2,class_response,1,train,27,Diorite,Pegmatite,3,FALSE,3,6,,
,,,,,,,,,,,html-button-response,158,2.0.0,700905,622a3bbca995cbb8f616a54e,2,5,1666,,,,,,,,,"<img src= rock_img/I_Pegmatite_03.jpg style=""width:8cm; height:5.239999999999999cm;""><p style='font-size: 30px; color: red;'><strong>Incorrect!</strong></p><p style='font-size: 30px;'><strong>This rock is pegmatite</strong></p>",0,corr_feedback,1,train,27,,,,,,,,
,,,,,,,,,,,html-button-response,159,2.0.0,706863,622a3bbca995cbb8f616a54e,2,5,5955,,,,,,,,,"<img src= ""rock_img/I_Diorite_06.jpg"" style=""width:8cm; height:6.03cm;""><p>What type of rock is this?</p>",2,class_response,1,train,28,Diorite,Diorite,6,TRUE,3,3,,
,,,,,,,,,,,html-button-response,160,2.0.0,708421,622a3bbca995cbb8f616a54e,2,5,1556,,,,,,,,,"<img src= rock_img/I_Diorite_06.jpg style=""width:8cm; height:6.03cm;""><p style='font-size: 30px; color: green;'><strong>Correct!</strong></p><p style='font-size: 30px;'><strong>This rock is diorite</strong></p>",0,corr_feedback,1,train,28,,,,,,,,
,,,,,,,,,,,html-button-response,161,2.0.0,719717,622a3bbca995cbb8f616a54e,2,5,11294,,,,,,,,,"<img src= ""rock_img/I_Andesite_14.jpg"" style=""width:8cm; height:5.449999999999999cm;""><p>What type of rock is this?</p>",0,class_response,1,train,29,Andesite,Andesite,14,TRUE,1,1,,
,,,,,,,,,,,html-button-response,162,2.0.0,721376,622a3bbca995cbb8f616a54e,2,5,1656,,,,,,,,,"<img src= rock_img/I_Andesite_14.jpg style=""width:8cm; height:5.449999999999999cm;""><p style='font-size: 30px; color: green;'><strong>Correct!</strong></p><p style='font-size: 30px;'><strong>This rock is andesite</strong></p>",0,corr_feedback,1,train,29,,,,,,,,
,,,,,,,,,,,html-button-response,163,2.0.0,728975,622a3bbca995cbb8f616a54e,2,5,7596,,,,,,,,,"<img src= ""rock_img/I_Diorite_08.jpg"" style=""width:8cm; height:6.37cm;""><p>What type of rock is this?</p>",2,class_response,1,train,30,Diorite,Diorite,8,TRUE,3,3,,
,,,,,,,,,,,html-button-response,164,2.0.0,730478,622a3bbca995cbb8f616a54e,2,5,1501,,,,,,,,,"<img src= rock_img/I_Diorite_08.jpg style=""width:8cm; height:6.37cm;""><p style='font-size: 30px; color: green;'><strong>Correct!</strong></p><p style='font-size: 30px;'><strong>This rock is diorite</strong></p>",0,corr_feedback,1,train,30,,,,,,,,
,,,,,,,,,,,html-button-response,165,2.0.0,740431,622a3bbca995cbb8f616a54e,2,5,9951,,,,,,,,,"<img src= ""rock_img/I_Peridotite_15.jpg"" style=""width:8cm; height:6cm;""><p>What type of rock is this?</p>",0,class_response,1,train,31,Andesite,Peridotite,15,FALSE,1,7,,
,,,,,,,,,,,html-button-response,166,2.0.0,752692,622a3bbca995cbb8f616a54e,2,5,12258,,,,,,,,,"<img src= rock_img/I_Peridotite_15.jpg style=""width:8cm; height:6cm;""><p style='font-size: 30px; color: red;'><strong>Incorrect!</strong></p><p style='font-size: 30px;'><strong>This rock is peridotite</strong></p>",0,corr_feedback,1,train,31,,,,,,,,
,,,,,,,,,,,html-button-response,167,2.0.0,761062,622a3bbca995cbb8f616a54e,2,5,8368,,,,,,,,,"<img src= ""rock_img/I_Basalt_16.jpg"" style=""width:8cm; height:7.659999999999999cm;""><p>What type of rock is this?</p>",1,class_response,1,train,32,Basalt,Basalt,16,TRUE,2,2,,
,,,,,,,,,,,html-button-response,168,2.0.0,762477,622a3bbca995cbb8f616a54e,2,5,1413,,,,,,,,,"<img src= rock_img/I_Basalt_16.jpg style=""width:8cm; height:7.659999999999999cm;""><p style='font-size: 30px; color: green;'><strong>Correct!</strong></p><p style='font-size: 30px;'><strong>This rock is basalt</strong></p>",0,corr_feedback,1,train,32,,,,,,,,
,,,,,,,,,,,html-button-response,169,2.0.0,772094,622a3bbca995cbb8f616a54e,2,5,9615,,,,,,,,,"<img src= ""rock_img/I_Gabbro_14.jpg"" style=""width:8cm; height:8.48cm;""><p>What type of rock is this?</p>",3,class_response,1,train,33,Gabbro,Gabbro,14,TRUE,4,4,,
,,,,,,,,,,,html-button-response,170,2.0.0,774223,622a3bbca995cbb8f616a54e,2,5,2127,,,,,,,,,"<img src= rock_img/I_Gabbro_14.jpg style=""width:8cm; height:8.48cm;""><p style='font-size: 30px; color: green;'><strong>Correct!</strong></p><p style='font-size: 30px;'><strong>This rock is gabbro</strong></p>",0,corr_feedback,1,train,33,,,,,,,,
,,,,,,,,,,,html-button-response,171,2.0.0,813364,622a3bbca995cbb8f616a54e,2,5,39139,,,,,,,,,"<img src= ""rock_img/I_Pegmatite_16.jpg"" style=""width:8cm; height:5.8cm;""><p>What type of rock is this?</p>",0,class_response,1,train,34,Andesite,Pegmatite,16,FALSE,1,6,,
,,,,,,,,,,,html-button-response,172,2.0.0,826095,622a3bbca995cbb8f616a54e,2,5,12730,,,,,,,,,"<img src= rock_img/I_Pegmatite_16.jpg style=""width:8cm; height:5.8cm;""><p style='font-size: 30px; color: red;'><strong>Incorrect!</strong></p><p style='font-size: 30px;'><strong>This rock is pegmatite</strong></p>",0,corr_feedback,1,train,34,,,,,,,,
,,,,,,,,,,,html-button-response,173,2.0.0,828453,622a3bbca995cbb8f616a54e,2,5,2356,,,,,,,,,"<img src= ""rock_img/I_Obsidian_07.jpg"" style=""width:8cm; height:4.76cm;""><p>What type of rock is this?</p>",4,class_response,1,train,35,Obsidian,Obsidian,7,TRUE,5,5,,
,,,,,,,,,,,html-button-response,174,2.0.0,830252,622a3bbca995cbb8f616a54e,2,5,1797,,,,,,,,,"<img src= rock_img/I_Obsidian_07.jpg style=""width:8cm; height:4.76cm;""><p style='font-size: 30px; color: green;'><strong>Correct!</strong></p><p style='font-size: 30px;'><strong>This rock is obsidian</strong></p>",0,corr_feedback,1,train,35,,,,,,,,
,,,,,,,,,,,html-button-response,175,2.0.0,842987,622a3bbca995cbb8f616a54e,2,5,12733,,,,,,,,,"<img src= ""rock_img/I_Andesite_05.jpg"" style=""width:8cm; height:4.12cm;""><p>What type of rock is this?</p>",3,class_response,1,train,36,Gabbro,Andesite,5,FALSE,4,1,,
,,,,,,,,,,,html-button-response,176,2.0.0,852791,622a3bbca995cbb8f616a54e,2,5,9802,,,,,,,,,"<img src= rock_img/I_Andesite_05.jpg style=""width:8cm; height:4.12cm;""><p style='font-size: 30px; color: red;'><strong>Incorrect!</strong></p><p style='font-size: 30px;'><strong>This rock is andesite</strong></p>",0,corr_feedback,1,train,36,,,,,,,,
,,,,,,,,,,,html-button-response,177,2.0.0,883893,622a3bbca995cbb8f616a54e,2,5,31100,,,,,,,,,"<img src= ""rock_img/I_Gabbro_09.jpg"" style=""width:8cm; height:7.279999999999999cm;""><p>What type of rock is this?</p>",2,class_response,1,train,37,Diorite,Gabbro,9,FALSE,3,4,,
,,,,,,,,,,,html-button-response,178,2.0.0,892921,622a3bbca995cbb8f616a54e,2,5,9025,,,,,,,,,"<img src= rock_img/I_Gabbro_09.jpg style=""width:8cm; height:7.279999999999999cm;""><p style='font-size: 30px; color: red;'><strong>Incorrect!</strong></p><p style='font-size: 30px;'><strong>This rock is gabbro</strong></p>",0,corr_feedback,1,train,37,,,,,,,,
,,,,,,,,,,,html-button-response,179,2.0.0,938000,622a3bbca995cbb8f616a54e,2,5,45077,,,,,,,,,"<img src= ""rock_img/I_Gabbro_12.jpg"" style=""width:8cm; height:7.800000000000001cm;""><p>What type of rock is this?</p>",3,class_response,1,train,38,Gabbro,Gabbro,12,TRUE,4,4,,
,,,,,,,,,,,html-button-response,180,2.0.0,940930,622a3bbca995cbb8f616a54e,2,5,2928,,,,,,,,,"<img src= rock_img/I_Gabbro_12.jpg style=""width:8cm; height:7.800000000000001cm;""><p style='font-size: 30px; color: green;'><strong>Correct!</strong></p><p style='font-size: 30px;'><strong>This rock is gabbro</strong></p>",0,corr_feedback,1,train,38,,,,,,,,
,,,,,,,,,,,html-button-response,181,2.0.0,948006,622a3bbca995cbb8f616a54e,2,5,7073,,,,,,,,,"<img src= ""rock_img/I_Peridotite_14.jpg"" style=""width:8cm; height:5.3cm;""><p>What type of rock is this?</p>",6,class_response,1,train,39,Peridotite,Peridotite,14,TRUE,7,7,,
,,,,,,,,,,,html-button-response,182,2.0.0,958426,622a3bbca995cbb8f616a54e,2,5,10419,,,,,,,,,"<img src= rock_img/I_Peridotite_14.jpg style=""width:8cm; height:5.3cm;""><p style='font-size: 30px; color: green;'><strong>Correct!</strong></p><p style='font-size: 30px;'><strong>This rock is peridotite</strong></p>",0,corr_feedback,1,train,39,,,,,,,,
,,,,,,,,,,,html-button-response,183,2.0.0,980888,622a3bbca995cbb8f616a54e,2,5,22460,,,,,,,,,"<img src= ""rock_img/I_Diorite_16.jpg"" style=""width:8cm; height:6.74cm;""><p>What type of rock is this?</p>",3,class_response,1,train,40,Gabbro,Diorite,16,FALSE,4,3,,
,,,,,,,,,,,html-button-response,184,2.0.0,993523,622a3bbca995cbb8f616a54e,2,5,12632,,,,,,,,,"<img src= rock_img/I_Diorite_16.jpg style=""width:8cm; height:6.74cm;""><p style='font-size: 30px; color: red;'><strong>Incorrect!</strong></p><p style='font-size: 30px;'><strong>This rock is diorite</strong></p>",0,corr_feedback,1,train,40,,,,,,,,
,,,,,,,,,,,html-button-response,185,2.0.0,1002903,622a3bbca995cbb8f616a54e,2,5,9377,,,,,,,,,"<img src= ""rock_img/I_Gabbro_13.jpg"" style=""width:8cm; height:5.08cm;""><p>What type of rock is this?</p>",2,class_response,1,train,41,Diorite,Gabbro,13,FALSE,3,4,,
,,,,,,,,,,,html-button-response,186,2.0.0,1014277,622a3bbca995cbb8f616a54e,2,5,11372,,,,,,,,,"<img src= rock_img/I_Gabbro_13.jpg style=""width:8cm; height:5.08cm;""><p style='font-size: 30px; color: red;'><strong>Incorrect!</strong></p><p style='font-size: 30px;'><strong>This rock is gabbro</strong></p>",0,corr_feedback,1,train,41,,,,,,,,
,,,,,,,,,,,html-button-response,187,2.0.0,1032321,622a3bbca995cbb8f616a54e,2,5,18042,,,,,,,,,"<img src= ""rock_img/I_Andesite_02.jpg"" style=""width:8cm; height:8.5cm;""><p>What type of rock is this?</p>",3,class_response,1,train,42,Gabbro,Andesite,2,FALSE,4,1,,
,,,,,,,,,,,html-button-response,188,2.0.0,1043407,622a3bbca995cbb8f616a54e,2,5,11083,,,,,,,,,"<img src= rock_img/I_Andesite_02.jpg style=""width:8cm; height:8.5cm;""><p style='font-size: 30px; color: red;'><strong>Incorrect!</strong></p><p style='font-size: 30px;'><strong>This rock is andesite</strong></p>",0,corr_feedback,1,train,42,,,,,,,,
,,,,,,,,,,,html-button-response,189,2.0.0,1063932,622a3bbca995cbb8f616a54e,2,5,20523,,,,,,,,,"<img src= ""rock_img/I_Pegmatite_07.jpg"" style=""width:8cm; height:6.7cm;""><p>What type of rock is this?</p>",5,class_response,1,train,43,Pegmatite,Pegmatite,7,TRUE,6,6,,
,,,,,,,,,,,html-button-response,190,2.0.0,1065450,622a3bbca995cbb8f616a54e,2,5,1516,,,,,,,,,"<img src= rock_img/I_Pegmatite_07.jpg style=""width:8cm; height:6.7cm;""><p style='font-size: 30px; color: green;'><strong>Correct!</strong></p><p style='font-size: 30px;'><strong>This rock is pegmatite</strong></p>",0,corr_feedback,1,train,43,,,,,,,,
,,,,,,,,,,,html-button-response,191,2.0.0,1073308,622a3bbca995cbb8f616a54e,2,5,7855,,,,,,,,,"<img src= ""rock_img/I_Peridotite_02.jpg"" style=""width:8cm; height:5.859999999999999cm;""><p>What type of rock is this?</p>",6,class_response,1,train,44,Peridotite,Peridotite,2,TRUE,7,7,,
,,,,,,,,,,,html-button-response,192,2.0.0,1074744,622a3bbca995cbb8f616a54e,2,5,1434,,,,,,,,,"<img src= rock_img/I_Peridotite_02.jpg style=""width:8cm; height:5.859999999999999cm;""><p style='font-size: 30px; color: green;'><strong>Correct!</strong></p><p style='font-size: 30px;'><strong>This rock is peridotite</strong></p>",0,corr_feedback,1,train,44,,,,,,,,
,,,,,,,,,,,html-button-response,193,2.0.0,1299873,622a3bbca995cbb8f616a54e,2,5,225126,,,,,,,,,"<img src= ""rock_img/I_Diorite_16.jpg"" style=""width:8cm; height:6.74cm;""><p>What type of rock is this?</p>",2,class_response,1,train,45,Diorite,Diorite,16,TRUE,3,3,,
,,,,,,,,,,,html-button-response,194,2.0.0,1301382,622a3bbca995cbb8f616a54e,2,5,1506,,,,,,,,,"<img src= rock_img/I_Diorite_16.jpg style=""width:8cm; height:6.74cm;""><p style='font-size: 30px; color: green;'><strong>Correct!</strong></p><p style='font-size: 30px;'><strong>This rock is diorite</strong></p>",0,corr_feedback,1,train,45,,,,,,,,
,,,,,,,,,,,html-button-response,195,2.0.0,1310135,622a3bbca995cbb8f616a54e,2,5,8751,,,,,,,,,"<img src= ""rock_img/I_Gabbro_08.jpg"" style=""width:8cm; height:5.15cm;""><p>What type of rock is this?</p>",0,class_response,1,train,46,Andesite,Gabbro,8,FALSE,1,4,,
,,,,,,,,,,,html-button-response,196,2.0.0,1453788,622a3bbca995cbb8f616a54e,2,5,143651,,,,,,,,,"<img src= rock_img/I_Gabbro_08.jpg style=""width:8cm; height:5.15cm;""><p style='font-size: 30px; color: red;'><strong>Incorrect!</strong></p><p style='font-size: 30px;'><strong>This rock is gabbro</strong></p>",0,corr_feedback,1,train,46,,,,,,,,
,,,,,,,,,,,html-button-response,197,2.0.0,1456419,622a3bbca995cbb8f616a54e,2,5,2629,,,,,,,,,"<img src= ""rock_img/I_Pumice_04.jpg"" style=""width:8cm; height:6.819999999999999cm;""><p>What type of rock is this?</p>",7,class_response,1,train,47,Pumice,Pumice,4,TRUE,8,8,,
,,,,,,,,,,,html-button-response,198,2.0.0,1457774,622a3bbca995cbb8f616a54e,2,5,1353,,,,,,,,,"<img src= rock_img/I_Pumice_04.jpg style=""width:8cm; height:6.819999999999999cm;""><p style='font-size: 30px; color: green;'><strong>Correct!</strong></p><p style='font-size: 30px;'><strong>This rock is pumice</strong></p>",0,corr_feedback,1,train,47,,,,,,,,
,,,,,,,,,,,html-button-response,199,2.0.0,1465048,622a3bbca995cbb8f616a54e,2,5,7272,,,,,,,,,"<img src= ""rock_img/I_Andesite_04.jpg"" style=""width:8cm; height:5.96cm;""><p>What type of rock is this?</p>",3,class_response,1,train,48,Gabbro,Andesite,4,FALSE,4,1,,
,,,,,,,,,,,html-button-response,200,2.0.0,1476158,622a3bbca995cbb8f616a54e,2,5,11108,,,,,,,,,"<img src= rock_img/I_Andesite_04.jpg style=""width:8cm; height:5.96cm;""><p style='font-size: 30px; color: red;'><strong>Incorrect!</strong></p><p style='font-size: 30px;'><strong>This rock is andesite</strong></p>",0,corr_feedback,1,train,48,,,,,,,,
,,,,,,,,,,,instructions,203,2.0.0,1501729,622a3bbca995cbb8f616a54e,2,5,25569,,,,,,,,"[{""page_index"":0,""viewing_time"":7154},{""page_index"":1,""viewing_time"":18414}]",,,,,,,,,,,,,,
,,,,,,,,,,,html-button-response,204,2.0.0,1505451,622a3bbca995cbb8f616a54e,2,5,3719,,,,,,,,,,0,start_test,,,,,,,,,,,
,,,,,,,,,,,html-button-response,205,2.0.0,1574047,622a3bbca995cbb8f616a54e,2,5,68594,,,,,,,,,"<img src= ""rock_img/I_Andesite_03.jpg"" style=""width:8cm; height:5.73cm;""><p>What type of rock is this?</p>",0,class_response,1,test,1,Andesite,Andesite,3,TRUE,1,1,,
,,,,,,,,,,,html-keyboard-response,206,2.0.0,1574563,622a3bbca995cbb8f616a54e,2,5,null,,,,,,,,,<p style='font-size: 30px;'><strong>Okay</strong></p>,null,neutral_feedback,1,test,1,,,,,,,,
,,,,,,,,,,,html-button-response,207,2.0.0,1587135,622a3bbca995cbb8f616a54e,2,5,12570,,,,,,,,,"<img src= ""rock_img/I_Diorite_14.jpg"" style=""width:8cm; height:5.71cm;""><p>What type of rock is this?</p>",2,class_response,1,test,2,Diorite,Diorite,14,TRUE,3,3,,
,,,,,,,,,,,html-keyboard-response,208,2.0.0,1587647,622a3bbca995cbb8f616a54e,2,5,null,,,,,,,,,<p style='font-size: 30px;'><strong>Okay</strong></p>,null,neutral_feedback,1,test,2,,,,,,,,
,,,,,,,,,,,html-button-response,209,2.0.0,1604540,622a3bbca995cbb8f616a54e,2,5,16892,,,,,,,,,"<img src= ""rock_img/I_Gabbro_11.jpg"" style=""width:8cm; height:6.2cm;""><p>What type of rock is this?</p>",3,class_response,1,test,3,Gabbro,Gabbro,11,TRUE,4,4,,
,,,,,,,,,,,html-keyboard-response,210,2.0.0,1605053,622a3bbca995cbb8f616a54e,2,5,null,,,,,,,,,<p style='font-size: 30px;'><strong>Okay</strong></p>,null,neutral_feedback,1,test,3,,,,,,,,
,,,,,,,,,,,html-button-response,211,2.0.0,1643124,622a3bbca995cbb8f616a54e,2,5,38069,,,,,,,,,"<img src= ""rock_img/I_Basalt_11.jpg"" style=""width:8cm; height:5.359999999999999cm;""><p>What type of rock is this?</p>",7,class_response,1,test,4,Pumice,Basalt,11,FALSE,8,2,,
,,,,,,,,,,,html-keyboard-response,212,2.0.0,1643634,622a3bbca995cbb8f616a54e,2,5,null,,,,,,,,,<p style='font-size: 30px;'><strong>Okay</strong></p>,null,neutral_feedback,1,test,4,,,,,,,,
,,,,,,,,,,,html-button-response,213,2.0.0,1666271,622a3bbca995cbb8f616a54e,2,5,22635,,,,,,,,,"<img src= ""rock_img/I_Basalt_14.jpg"" style=""width:8cm; height:5.82cm;""><p>What type of rock is this?</p>",1,class_response,1,test,5,Basalt,Basalt,14,TRUE,2,2,,
,,,,,,,,,,,html-keyboard-response,214,2.0.0,1666780,622a3bbca995cbb8f616a54e,2,5,null,,,,,,,,,<p style='font-size: 30px;'><strong>Okay</strong></p>,null,neutral_feedback,1,test,5,,,,,,,,
,,,,,,,,,,,html-button-response,215,2.0.0,1872667,622a3bbca995cbb8f616a54e,2,5,205885,,,,,,,,,"<img src= ""rock_img/I_Andesite_01.jpg"" style=""width:8cm; height:5.87cm;""><p>What type of rock is this?</p>",3,class_response,1,test,6,Gabbro,Andesite,1,FALSE,4,1,,
,,,,,,,,,,,html-keyboard-response,216,2.0.0,1873178,622a3bbca995cbb8f616a54e,2,5,null,,,,,,,,,<p style='font-size: 30px;'><strong>Okay</strong></p>,null,neutral_feedback,1,test,6,,,,,,,,
,,,,,,,,,,,html-button-response,217,2.0.0,1930342,622a3bbca995cbb8f616a54e,2,5,57162,,,,,,,,,"<img src= ""rock_img/I_Basalt_02.jpg"" style=""width:8cm; height:6.45cm;""><p>What type of rock is this?</p>",1,class_response,1,test,7,Basalt,Basalt,2,TRUE,2,2,,
,,,,,,,,,,,html-keyboard-response,218,2.0.0,1930851,622a3bbca995cbb8f616a54e,2,5,null,,,,,,,,,<p style='font-size: 30px;'><strong>Okay</strong></p>,null,neutral_feedback,1,test,7,,,,,,,,
,,,,,,,,,,,html-button-response,219,2.0.0,1945268,622a3bbca995cbb8f616a54e,2,5,14415,,,,,,,,,"<img src= ""rock_img/I_Pegmatite_06.jpg"" style=""width:8cm; height:5.17cm;""><p>What type of rock is this?</p>",5,class_response,1,test,8,Pegmatite,Pegmatite,6,TRUE,6,6,,
,,,,,,,,,,,html-keyboard-response,220,2.0.0,1945770,622a3bbca995cbb8f616a54e,2,5,null,,,,,,,,,<p style='font-size: 30px;'><strong>Okay</strong></p>,null,neutral_feedback,1,test,8,,,,,,,,
,,,,,,,,,,,html-button-response,221,2.0.0,2146360,622a3bbca995cbb8f616a54e,2,5,200587,,,,,,,,,"<img src= ""rock_img/I_Peridotite_10.jpg"" style=""width:8cm; height:5.390000000000001cm;""><p>What type of rock is this?</p>",6,class_response,1,test,9,Peridotite,Peridotite,10,TRUE,7,7,,
,,,,,,,,,,,html-keyboard-response,222,2.0.0,2146873,622a3bbca995cbb8f616a54e,2,5,null,,,,,,,,,<p style='font-size: 30px;'><strong>Okay</strong></p>,null,neutral_feedback,1,test,9,,,,,,,,
,,,,,,,,,,,html-button-response,223,2.0.0,2162563,622a3bbca995cbb8f616a54e,2,5,15688,,,,,,,,,"<img src= ""rock_img/I_Basalt_06.jpg"" style=""width:8cm; height:7.06cm;""><p>What type of rock is this?</p>",1,class_response,1,test,10,Basalt,Basalt,6,TRUE,2,2,,
,,,,,,,,,,,html-keyboard-response,224,2.0.0,2163071,622a3bbca995cbb8f616a54e,2,5,null,,,,,,,,,<p style='font-size: 30px;'><strong>Okay</strong></p>,null,neutral_feedback,1,test,10,,,,,,,,
,,,,,,,,,,,html-button-response,225,2.0.0,2174022,622a3bbca995cbb8f616a54e,2,5,10949,,,,,,,,,"<img src= ""rock_img/I_Andesite_09.jpg"" style=""width:8cm; height:6cm;""><p>What type of rock is this?</p>",0,class_response,1,test,11,Andesite,Andesite,9,TRUE,1,1,,
,,,,,,,,,,,html-keyboard-response,226,2.0.0,2174537,622a3bbca995cbb8f616a54e,2,5,null,,,,,,,,,<p style='font-size: 30px;'><strong>Okay</strong></p>,null,neutral_feedback,1,test,11,,,,,,,,
,,,,,,,,,,,html-button-response,227,2.0.0,2189524,622a3bbca995cbb8f616a54e,2,5,14986,,,,,,,,,"<img src= ""rock_img/I_Pegmatite_15.jpg"" style=""width:8cm; height:6cm;""><p>What type of rock is this?</p>",5,class_response,1,test,12,Pegmatite,Pegmatite,15,TRUE,6,6,,
,,,,,,,,,,,html-keyboard-response,228,2.0.0,2190039,622a3bbca995cbb8f616a54e,2,5,null,,,,,,,,,<p style='font-size: 30px;'><strong>Okay</strong></p>,null,neutral_feedback,1,test,12,,,,,,,,
,,,,,,,,,,,html-button-response,229,2.0.0,2192152,622a3bbca995cbb8f616a54e,2,5,2111,,,,,,,,,"<img src= ""rock_img/I_Obsidian_12.jpg"" style=""width:8cm; height:6.53cm;""><p>What type of rock is this?</p>",4,class_response,1,test,13,Obsidian,Obsidian,12,TRUE,5,5,,
,,,,,,,,,,,html-keyboard-response,230,2.0.0,2192666,622a3bbca995cbb8f616a54e,2,5,null,,,,,,,,,<p style='font-size: 30px;'><strong>Okay</strong></p>,null,neutral_feedback,1,test,13,,,,,,,,
,,,,,,,,,,,html-button-response,231,2.0.0,2202535,622a3bbca995cbb8f616a54e,2,5,9867,,,,,,,,,"<img src= ""rock_img/I_Diorite_10.jpg"" style=""width:8cm; height:5.949999999999999cm;""><p>What type of rock is this?</p>",2,class_response,1,test,14,Diorite,Diorite,10,TRUE,3,3,,
,,,,,,,,,,,html-keyboard-response,232,2.0.0,2203045,622a3bbca995cbb8f616a54e,2,5,null,,,,,,,,,<p style='font-size: 30px;'><strong>Okay</strong></p>,null,neutral_feedback,1,test,14,,,,,,,,
,,,,,,,,,,,html-button-response,233,2.0.0,2206681,622a3bbca995cbb8f616a54e,2,5,3635,,,,,,,,,"<img src= ""rock_img/I_Pumice_15.jpg"" style=""width:8cm; height:7.86cm;""><p>What type of rock is this?</p>",7,class_response,1,test,15,Pumice,Pumice,15,TRUE,8,8,,
,,,,,,,,,,,html-keyboard-response,234,2.0.0,2207192,622a3bbca995cbb8f616a54e,2,5,null,,,,,,,,,<p style='font-size: 30px;'><strong>Okay</strong></p>,null,neutral_feedback,1,test,15,,,,,,,,
,,,,,,,,,,,html-button-response,235,2.0.0,2302563,622a3bbca995cbb8f616a54e,2,5,95369,,,,,,,,,"<img src= ""rock_img/I_Basalt_04.jpg"" style=""width:8cm; height:7.53cm;""><p>What type of rock is this?</p>",1,class_response,1,test,16,Basalt,Basalt,4,TRUE,2,2,,
,,,,,,,,,,,html-keyboard-response,236,2.0.0,2303075,622a3bbca995cbb8f616a54e,2,5,null,,,,,,,,,<p style='font-size: 30px;'><strong>Okay</strong></p>,null,neutral_feedback,1,test,16,,,,,,,,
,,,,,,,,,,,html-button-response,237,2.0.0,2318927,622a3bbca995cbb8f616a54e,2,5,15850,,,,,,,,,"<img src= ""rock_img/I_Pegmatite_05.jpg"" style=""width:8cm; height:7.300000000000001cm;""><p>What type of rock is this?</p>",5,class_response,1,test,17,Pegmatite,Pegmatite,5,TRUE,6,6,,
,,,,,,,,,,,html-keyboard-response,238,2.0.0,2319431,622a3bbca995cbb8f616a54e,2,5,null,,,,,,,,,<p style='font-size: 30px;'><strong>Okay</strong></p>,null,neutral_feedback,1,test,17,,,,,,,,
,,,,,,,,,,,html-button-response,239,2.0.0,2330201,622a3bbca995cbb8f616a54e,2,5,10767,,,,,,,,,"<img src= ""rock_img/I_Gabbro_03.jpg"" style=""width:8cm; height:8.52cm;""><p>What type of rock is this?</p>",2,class_response,1,test,18,Diorite,Gabbro,3,FALSE,3,4,,
,,,,,,,,,,,html-keyboard-response,240,2.0.0,2330723,622a3bbca995cbb8f616a54e,2,5,null,,,,,,,,,<p style='font-size: 30px;'><strong>Okay</strong></p>,null,neutral_feedback,1,test,18,,,,,,,,
,,,,,,,,,,,html-button-response,241,2.0.0,2334172,622a3bbca995cbb8f616a54e,2,5,3447,,,,,,,,,"<img src= ""rock_img/I_Obsidian_11.jpg"" style=""width:8cm; height:6.05cm;""><p>What type of rock is this?</p>",4,class_response,1,test,19,Obsidian,Obsidian,11,TRUE,5,5,,
,,,,,,,,,,,html-keyboard-response,242,2.0.0,2334695,622a3bbca995cbb8f616a54e,2,5,null,,,,,,,,,<p style='font-size: 30px;'><strong>Okay</strong></p>,null,neutral_feedback,1,test,19,,,,,,,,
,,,,,,,,,,,html-button-response,243,2.0.0,2342554,622a3bbca995cbb8f616a54e,2,5,7858,,,,,,,,,"<img src= ""rock_img/I_Andesite_11.jpg"" style=""width:8cm; height:4.92cm;""><p>What type of rock is this?</p>",0,class_response,1,test,20,Andesite,Andesite,11,TRUE,1,1,,
,,,,,,,,,,,html-keyboard-response,244,2.0.0,2343058,622a3bbca995cbb8f616a54e,2,5,null,,,,,,,,,<p style='font-size: 30px;'><strong>Okay</strong></p>,null,neutral_feedback,1,test,20,,,,,,,,
,,,,,,,,,,,html-button-response,245,2.0.0,2354053,622a3bbca995cbb8f616a54e,2,5,10993,,,,,,,,,"<img src= ""rock_img/I_Andesite_10.jpg"" style=""width:8cm; height:4.16cm;""><p>What type of rock is this?</p>",3,class_response,1,test,21,Gabbro,Andesite,10,FALSE,4,1,,
,,,,,,,,,,,html-keyboard-response,246,2.0.0,2354565,622a3bbca995cbb8f616a54e,2,5,null,,,,,,,,,<p style='font-size: 30px;'><strong>Okay</strong></p>,null,neutral_feedback,1,test,21,,,,,,,,
,,,,,,,,,,,html-button-response,247,2.0.0,2369362,622a3bbca995cbb8f616a54e,2,5,14795,,,,,,,,,"<img src= ""rock_img/I_Pumice_05.jpg"" style=""width:8cm; height:7.25cm;""><p>What type of rock is this?</p>",7,class_response,1,test,22,Pumice,Pumice,5,TRUE,8,8,,
,,,,,,,,,,,html-keyboard-response,248,2.0.0,2369868,622a3bbca995cbb8f616a54e,2,5,null,,,,,,,,,<p style='font-size: 30px;'><strong>Okay</strong></p>,null,neutral_feedback,1,test,22,,,,,,,,
,,,,,,,,,,,html-button-response,249,2.0.0,2378895,622a3bbca995cbb8f616a54e,2,5,9026,,,,,,,,,"<img src= ""rock_img/I_Diorite_07.jpg"" style=""width:8cm; height:5.239999999999999cm;""><p>What type of rock is this?</p>",2,class_response,1,test,23,Diorite,Diorite,7,TRUE,3,3,,
,,,,,,,,,,,html-keyboard-response,250,2.0.0,2379401,622a3bbca995cbb8f616a54e,2,5,null,,,,,,,,,<p style='font-size: 30px;'><strong>Okay</strong></p>,null,neutral_feedback,1,test,23,,,,,,,,
,,,,,,,,,,,html-button-response,251,2.0.0,2381979,622a3bbca995cbb8f616a54e,2,5,2575,,,,,,,,,"<img src= ""rock_img/I_Pumice_02.jpg"" style=""width:8cm; height:7.3999999999999995cm;""><p>What type of rock is this?</p>",7,class_response,1,test,24,Pumice,Pumice,2,TRUE,8,8,,
,,,,,,,,,,,html-keyboard-response,252,2.0.0,2382483,622a3bbca995cbb8f616a54e,2,5,null,,,,,,,,,<p style='font-size: 30px;'><strong>Okay</strong></p>,null,neutral_feedback,1,test,24,,,,,,,,
,,,,,,,,,,,html-button-response,253,2.0.0,2419509,622a3bbca995cbb8f616a54e,2,5,37024,,,,,,,,,"<img src= ""rock_img/I_Peridotite_08.jpg"" style=""width:8cm; height:6.7cm;""><p>What type of rock is this?</p>",6,class_response,1,test,25,Peridotite,Peridotite,8,TRUE,7,7,,
,,,,,,,,,,,html-keyboard-response,254,2.0.0,2420026,622a3bbca995cbb8f616a54e,2,5,null,,,,,,,,,<p style='font-size: 30px;'><strong>Okay</strong></p>,null,neutral_feedback,1,test,25,,,,,,,,
,,,,,,,,,,,html-button-response,255,2.0.0,2430396,622a3bbca995cbb8f616a54e,2,5,10367,,,,,,,,,"<img src= ""rock_img/I_Andesite_06.jpg"" style=""width:8cm; height:6.840000000000001cm;""><p>What type of rock is this?</p>",0,class_response,1,test,26,Andesite,Andesite,6,TRUE,1,1,,
,,,,,,,,,,,html-keyboard-response,256,2.0.0,2430902,622a3bbca995cbb8f616a54e,2,5,null,,,,,,,,,<p style='font-size: 30px;'><strong>Okay</strong></p>,null,neutral_feedback,1,test,26,,,,,,,,
,,,,,,,,,,,html-button-response,257,2.0.0,2471048,622a3bbca995cbb8f616a54e,2,5,40143,,,,,,,,,"<img src= ""rock_img/I_Pumice_08.jpg"" style=""width:8cm; height:6.67cm;""><p>What type of rock is this?</p>",7,class_response,1,test,27,Pumice,Pumice,8,TRUE,8,8,,
,,,,,,,,,,,html-keyboard-response,258,2.0.0,2471569,622a3bbca995cbb8f616a54e,2,5,null,,,,,,,,,<p style='font-size: 30px;'><strong>Okay</strong></p>,null,neutral_feedback,1,test,27,,,,,,,,
,,,,,,,,,,,html-button-response,259,2.0.0,2473406,622a3bbca995cbb8f616a54e,2,5,1835,,,,,,,,,"<img src= ""rock_img/I_Obsidian_08.jpg"" style=""width:8cm; height:7.39cm;""><p>What type of rock is this?</p>",4,class_response,1,test,28,Obsidian,Obsidian,8,TRUE,5,5,,
,,,,,,,,,,,html-keyboard-response,260,2.0.0,2473927,622a3bbca995cbb8f616a54e,2,5,null,,,,,,,,,<p style='font-size: 30px;'><strong>Okay</strong></p>,null,neutral_feedback,1,test,28,,,,,,,,
,,,,,,,,,,,html-button-response,261,2.0.0,2476851,622a3bbca995cbb8f616a54e,2,5,2923,,,,,,,,,"<img src= ""rock_img/I_Obsidian_14.jpg"" style=""width:8cm; height:7.64cm;""><p>What type of rock is this?</p>",4,class_response,1,test,29,Obsidian,Obsidian,14,TRUE,5,5,,
,,,,,,,,,,,html-keyboard-response,262,2.0.0,2477365,622a3bbca995cbb8f616a54e,2,5,null,,,,,,,,,<p style='font-size: 30px;'><strong>Okay</strong></p>,null,neutral_feedback,1,test,29,,,,,,,,
,,,,,,,,,,,html-button-response,263,2.0.0,2482056,622a3bbca995cbb8f616a54e,2,5,4689,,,,,,,,,"<img src= ""rock_img/I_Pumice_14.jpg"" style=""width:8cm; height:6.39cm;""><p>What type of rock is this?</p>",7,class_response,1,test,30,Pumice,Pumice,14,TRUE,8,8,,
,,,,,,,,,,,html-keyboard-response,264,2.0.0,2482566,622a3bbca995cbb8f616a54e,2,5,null,,,,,,,,,<p style='font-size: 30px;'><strong>Okay</strong></p>,null,neutral_feedback,1,test,30,,,,,,,,
,,,,,,,,,,,html-button-response,265,2.0.0,2501373,622a3bbca995cbb8f616a54e,2,5,18806,,,,,,,,,"<img src= ""rock_img/I_Diorite_11.jpg"" style=""width:8cm; height:7.11cm;""><p>What type of rock is this?</p>",2,class_response,1,test,31,Diorite,Diorite,11,TRUE,3,3,,
,,,,,,,,,,,html-keyboard-response,266,2.0.0,2501882,622a3bbca995cbb8f616a54e,2,5,null,,,,,,,,,<p style='font-size: 30px;'><strong>Okay</strong></p>,null,neutral_feedback,1,test,31,,,,,,,,
,,,,,,,,,,,html-button-response,267,2.0.0,2514681,622a3bbca995cbb8f616a54e,2,5,12798,,,,,,,,,"<img src= ""rock_img/I_Peridotite_05.jpg"" style=""width:8cm; height:7.1499999999999995cm;""><p>What type of rock is this?</p>",6,class_response,1,test,32,Peridotite,Peridotite,5,TRUE,7,7,,
,,,,,,,,,,,html-keyboard-response,268,2.0.0,2515191,622a3bbca995cbb8f616a54e,2,5,null,,,,,,,,,<p style='font-size: 30px;'><strong>Okay</strong></p>,null,neutral_feedback,1,test,32,,,,,,,,
,,,,,,,,,,,html-button-response,269,2.0.0,2526285,622a3bbca995cbb8f616a54e,2,5,11091,,,,,,,,,"<img src= ""rock_img/I_Gabbro_05.jpg"" style=""width:8cm; height:6cm;""><p>What type of rock is this?</p>",3,class_response,1,test,33,Gabbro,Gabbro,5,TRUE,4,4,,
,,,,,,,,,,,html-keyboard-response,270,2.0.0,2526804,622a3bbca995cbb8f616a54e,2,5,null,,,,,,,,,<p style='font-size: 30px;'><strong>Okay</strong></p>,null,neutral_feedback,1,test,33,,,,,,,,
,,,,,,,,,,,html-button-response,271,2.0.0,2555594,622a3bbca995cbb8f616a54e,2,5,28788,,,,,,,,,"<img src= ""rock_img/I_Gabbro_01.jpg"" style=""width:8cm; height:5.21cm;""><p>What type of rock is this?</p>",6,class_response,1,test,34,Peridotite,Gabbro,1,FALSE,7,4,,
,,,,,,,,,,,html-keyboard-response,272,2.0.0,2556109,622a3bbca995cbb8f616a54e,2,5,null,,,,,,,,,<p style='font-size: 30px;'><strong>Okay</strong></p>,null,neutral_feedback,1,test,34,,,,,,,,
,,,,,,,,,,,html-button-response,273,2.0.0,2562137,622a3bbca995cbb8f616a54e,2,5,6025,,,,,,,,,"<img src= ""rock_img/I_Diorite_09.jpg"" style=""width:8cm; height:5.27cm;""><p>What type of rock is this?</p>",5,class_response,1,test,35,Pegmatite,Diorite,9,FALSE,6,3,,
,,,,,,,,,,,html-keyboard-response,274,2.0.0,2562650,622a3bbca995cbb8f616a54e,2,5,null,,,,,,,,,<p style='font-size: 30px;'><strong>Okay</strong></p>,null,neutral_feedback,1,test,35,,,,,,,,
,,,,,,,,,,,html-button-response,275,2.0.0,2572322,622a3bbca995cbb8f616a54e,2,5,9670,,,,,,,,,"<img src= ""rock_img/I_Peridotite_07.jpg"" style=""width:8cm; height:4.83cm;""><p>What type of rock is this?</p>",6,class_response,1,test,36,Peridotite,Peridotite,7,TRUE,7,7,,
,,,,,,,,,,,html-keyboard-response,276,2.0.0,2572839,622a3bbca995cbb8f616a54e,2,5,null,,,,,,,,,<p style='font-size: 30px;'><strong>Okay</strong></p>,null,neutral_feedback,1,test,36,,,,,,,,
,,,,,,,,,,,html-button-response,277,2.0.0,2581237,622a3bbca995cbb8f616a54e,2,5,8397,,,,,,,,,"<img src= ""rock_img/I_Pegmatite_10.jpg"" style=""width:8cm; height:4.16cm;""><p>What type of rock is this?</p>",6,class_response,1,test,37,Peridotite,Pegmatite,10,FALSE,7,6,,
,,,,,,,,,,,html-keyboard-response,278,2.0.0,2581751,622a3bbca995cbb8f616a54e,2,5,null,,,,,,,,,<p style='font-size: 30px;'><strong>Okay</strong></p>,null,neutral_feedback,1,test,37,,,,,,,,
,,,,,,,,,,,html-button-response,279,2.0.0,2594391,622a3bbca995cbb8f616a54e,2,5,12638,,,,,,,,,"<img src= ""rock_img/I_Pegmatite_08.jpg"" style=""width:8cm; height:7.68cm;""><p>What type of rock is this?</p>",5,class_response,1,test,38,Pegmatite,Pegmatite,8,TRUE,6,6,,
,,,,,,,,,,,html-keyboard-response,280,2.0.0,2594907,622a3bbca995cbb8f616a54e,2,5,null,,,,,,,,,<p style='font-size: 30px;'><strong>Okay</strong></p>,null,neutral_feedback,1,test,38,,,,,,,,
,,,,,,,,,,,html-button-response,281,2.0.0,2626363,622a3bbca995cbb8f616a54e,2,5,31455,,,,,,,,,"<img src= ""rock_img/I_Diorite_02.jpg"" style=""width:8cm; height:6.27cm;""><p>What type of rock is this?</p>",2,class_response,1,test,39,Diorite,Diorite,2,TRUE,3,3,,
,,,,,,,,,,,html-keyboard-response,282,2.0.0,2626883,622a3bbca995cbb8f616a54e,2,5,null,,,,,,,,,<p style='font-size: 30px;'><strong>Okay</strong></p>,null,neutral_feedback,1,test,39,,,,,,,,
,,,,,,,,,,,html-button-response,283,2.0.0,2633333,622a3bbca995cbb8f616a54e,2,5,6448,,,,,,,,,"<img src= ""rock_img/I_Obsidian_16.jpg"" style=""width:8cm; height:9.3cm;""><p>What type of rock is this?</p>",4,class_response,1,test,40,Obsidian,Obsidian,16,TRUE,5,5,,
,,,,,,,,,,,html-keyboard-response,284,2.0.0,2633845,622a3bbca995cbb8f616a54e,2,5,null,,,,,,,,,<p style='font-size: 30px;'><strong>Okay</strong></p>,null,neutral_feedback,1,test,40,,,,,,,,
,,,,,,,,,,,html-button-response,285,2.0.0,2647337,622a3bbca995cbb8f616a54e,2,5,13490,,,,,,,,,"<img src= ""rock_img/I_Gabbro_15.jpg"" style=""width:8cm; height:6.29cm;""><p>What type of rock is this?</p>",3,class_response,1,test,41,Gabbro,Gabbro,15,TRUE,4,4,,
,,,,,,,,,,,html-keyboard-response,286,2.0.0,2647850,622a3bbca995cbb8f616a54e,2,5,null,,,,,,,,,<p style='font-size: 30px;'><strong>Okay</strong></p>,null,neutral_feedback,1,test,41,,,,,,,,
,,,,,,,,,,,html-button-response,287,2.0.0,2670745,622a3bbca995cbb8f616a54e,2,5,22893,,,,,,,,,"<img src= ""rock_img/I_Peridotite_12.jpg"" style=""width:8cm; height:4.54cm;""><p>What type of rock is this?</p>",6,class_response,1,test,42,Peridotite,Peridotite,12,TRUE,7,7,,
,,,,,,,,,,,html-keyboard-response,288,2.0.0,2671259,622a3bbca995cbb8f616a54e,2,5,null,,,,,,,,,<p style='font-size: 30px;'><strong>Okay</strong></p>,null,neutral_feedback,1,test,42,,,,,,,,
,,,,,,,,,,,html-button-response,289,2.0.0,2688642,622a3bbca995cbb8f616a54e,2,5,17380,,,,,,,,,"<img src= ""rock_img/I_Peridotite_04.jpg"" style=""width:8cm; height:6.680000000000001cm;""><p>What type of rock is this?</p>",6,class_response,1,test,43,Peridotite,Peridotite,4,TRUE,7,7,,
,,,,,,,,,,,html-keyboard-response,290,2.0.0,2689147,622a3bbca995cbb8f616a54e,2,5,null,,,,,,,,,<p style='font-size: 30px;'><strong>Okay</strong></p>,null,neutral_feedback,1,test,43,,,,,,,,
,,,,,,,,,,,html-button-response,291,2.0.0,2709414,622a3bbca995cbb8f616a54e,2,5,20266,,,,,,,,,"<img src= ""rock_img/I_Pumice_16.jpg"" style=""width:8cm; height:6.79cm;""><p>What type of rock is this?</p>",7,class_response,1,test,44,Pumice,Pumice,16,TRUE,8,8,,
,,,,,,,,,,,html-keyboard-response,292,2.0.0,2709926,622a3bbca995cbb8f616a54e,2,5,null,,,,,,,,,<p style='font-size: 30px;'><strong>Okay</strong></p>,null,neutral_feedback,1,test,44,,,,,,,,
,,,,,,,,,,,html-button-response,293,2.0.0,2727013,622a3bbca995cbb8f616a54e,2,5,17085,,,,,,,,,"<img src= ""rock_img/I_Gabbro_16.jpg"" style=""width:8cm; height:6.44cm;""><p>What type of rock is this?</p>",3,class_response,1,test,45,Gabbro,Gabbro,16,TRUE,4,4,,
,,,,,,,,,,,html-keyboard-response,294,2.0.0,2727519,622a3bbca995cbb8f616a54e,2,5,null,,,,,,,,,<p style='font-size: 30px;'><strong>Okay</strong></p>,null,neutral_feedback,1,test,45,,,,,,,,
,,,,,,,,,,,html-button-response,295,2.0.0,2729269,622a3bbca995cbb8f616a54e,2,5,1748,,,,,,,,,"<img src= ""rock_img/I_Obsidian_04.jpg"" style=""width:8cm; height:6.930000000000001cm;""><p>What type of rock is this?</p>",4,class_response,1,test,46,Obsidian,Obsidian,4,TRUE,5,5,,
,,,,,,,,,,,html-keyboard-response,296,2.0.0,2729787,622a3bbca995cbb8f616a54e,2,5,null,,,,,,,,,<p style='font-size: 30px;'><strong>Okay</strong></p>,null,neutral_feedback,1,test,46,,,,,,,,
,,,,,,,,,,,html-button-response,297,2.0.0,2741589,622a3bbca995cbb8f616a54e,2,5,11801,,,,,,,,,"<img src= ""rock_img/I_Pegmatite_13.jpg"" style=""width:8cm; height:4.95cm;""><p>What type of rock is this?</p>",5,class_response,1,test,47,Pegmatite,Pegmatite,13,TRUE,6,6,,
,,,,,,,,,,,html-keyboard-response,298,2.0.0,2742092,622a3bbca995cbb8f616a54e,2,5,null,,,,,,,,,<p style='font-size: 30px;'><strong>Okay</strong></p>,null,neutral_feedback,1,test,47,,,,,,,,
,,,,,,,,,,,html-button-response,299,2.0.0,2754893,622a3bbca995cbb8f616a54e,2,5,12798,,,,,,,,,"<img src= ""rock_img/I_Basalt_10.jpg"" style=""width:8cm; height:5.85cm;""><p>What type of rock is this?</p>",1,class_response,1,test,48,Basalt,Basalt,10,TRUE,2,2,,
,,,,,,,,,,,html-keyboard-response,300,2.0.0,2755407,622a3bbca995cbb8f616a54e,2,5,null,,,,,,,,,<p style='font-size: 30px;'><strong>Okay</strong></p>,null,neutral_feedback,1,test,48,,,,,,,,
,,,,,,,,,,,html-button-response,301,2.0.0,2779167,622a3bbca995cbb8f616a54e,2,5,,,,,,,,,,,,cycle_feedback,,,,,,,,,,8818.1,14936.5
,,,,,,,,,,,html-button-response,303,2.0.0,3606173,622a3bbca995cbb8f616a54e,2,5,827002,,,,,,,,,,0,start_train,,,,,,,,,,,
,,,,,,,,,,,html-button-response,304,2.0.0,3627244,622a3bbca995cbb8f616a54e,2,5,21068,,,,,,,,,"<img src= ""rock_img/I_Gabbro_08.jpg"" style=""width:8cm; height:5.15cm;""><p>What type of rock is this?</p>",3,class_response,2,train,1,Gabbro,Gabbro,8,TRUE,4,4,,
,,,,,,,,,,,html-button-response,305,2.0.0,3629528,622a3bbca995cbb8f616a54e,2,5,2282,,,,,,,,,"<img src= rock_img/I_Gabbro_08.jpg style=""width:8cm; height:5.15cm;""><p style='font-size: 30px; color: green;'><strong>Correct!</strong></p><p style='font-size: 30px;'><strong>This rock is gabbro</strong></p>",0,corr_feedback,2,train,1,,,,,,,,
,,,,,,,,,,,html-button-response,306,2.0.0,3641446,622a3bbca995cbb8f616a54e,2,5,11915,,,,,,,,,"<img src= ""rock_img/I_Gabbro_09.jpg"" style=""width:8cm; height:7.279999999999999cm;""><p>What type of rock is this?</p>",3,class_response,2,train,2,Gabbro,Gabbro,9,TRUE,4,4,,
,,,,,,,,,,,html-button-response,307,2.0.0,3642961,622a3bbca995cbb8f616a54e,2,5,1513,,,,,,,,,"<img src= rock_img/I_Gabbro_09.jpg style=""width:8cm; height:7.279999999999999cm;""><p style='font-size: 30px; color: green;'><strong>Correct!</strong></p><p style='font-size: 30px;'><strong>This rock is gabbro</strong></p>",0,corr_feedback,2,train,2,,,,,,,,
,,,,,,,,,,,html-button-response,308,2.0.0,3649269,622a3bbca995cbb8f616a54e,2,5,6306,,,,,,,,,"<img src= ""rock_img/I_Pegmatite_03.jpg"" style=""width:8cm; height:5.239999999999999cm;""><p>What type of rock is this?</p>",5,class_response,2,train,3,Pegmatite,Pegmatite,3,TRUE,6,6,,
,,,,,,,,,,,html-button-response,309,2.0.0,3650914,622a3bbca995cbb8f616a54e,2,5,1643,,,,,,,,,"<img src= rock_img/I_Pegmatite_03.jpg style=""width:8cm; height:5.239999999999999cm;""><p style='font-size: 30px; color: green;'><strong>Correct!</strong></p><p style='font-size: 30px;'><strong>This rock is pegmatite</strong></p>",0,corr_feedback,2,train,3,,,,,,,,
,,,,,,,,,,,html-button-response,310,2.0.0,3656077,622a3bbca995cbb8f616a54e,2,5,5161,,,,,,,,,"<img src= ""rock_img/I_Pegmatite_11.jpg"" style=""width:8cm; height:8.14cm;""><p>What type of rock is this?</p>",5,class_response,2,train,4,Pegmatite,Pegmatite,11,TRUE,6,6,,
,,,,,,,,,,,html-button-response,311,2.0.0,3657406,622a3bbca995cbb8f616a54e,2,5,1327,,,,,,,,,"<img src= rock_img/I_Pegmatite_11.jpg style=""width:8cm; height:8.14cm;""><p style='font-size: 30px; color: green;'><strong>Correct!</strong></p><p style='font-size: 30px;'><strong>This rock is pegmatite</strong></p>",0,corr_feedback,2,train,4,,,,,,,,
,,,,,,,,,,,html-button-response,312,2.0.0,3660525,622a3bbca995cbb8f616a54e,2,5,3117,,,,,,,,,"<img src= ""rock_img/I_Pegmatite_07.jpg"" style=""width:8cm; height:6.7cm;""><p>What type of rock is this?</p>",5,class_response,2,train,5,Pegmatite,Pegmatite,7,TRUE,6,6,,
,,,,,,,,,,,html-button-response,313,2.0.0,3661851,622a3bbca995cbb8f616a54e,2,5,1324,,,,,,,,,"<img src= rock_img/I_Pegmatite_07.jpg style=""width:8cm; height:6.7cm;""><p style='font-size: 30px; color: green;'><strong>Correct!</strong></p><p style='font-size: 30px;'><strong>This rock is pegmatite</strong></p>",0,corr_feedback,2,train,5,,,,,,,,
,,,,,,,,,,,html-button-response,314,2.0.0,3680637,622a3bbca995cbb8f616a54e,2,5,18784,,,,,,,,,"<img src= ""rock_img/I_Diorite_16.jpg"" style=""width:8cm; height:6.74cm;""><p>What type of rock is this?</p>",2,class_response,2,train,6,Diorite,Diorite,16,TRUE,3,3,,
,,,,,,,,,,,html-button-response,315,2.0.0,3682105,622a3bbca995cbb8f616a54e,2,5,1466,,,,,,,,,"<img src= rock_img/I_Diorite_16.jpg style=""width:8cm; height:6.74cm;""><p style='font-size: 30px; color: green;'><strong>Correct!</strong></p><p style='font-size: 30px;'><strong>This rock is diorite</strong></p>",0,corr_feedback,2,train,6,,,,,,,,
,,,,,,,,,,,html-button-response,316,2.0.0,3684445,622a3bbca995cbb8f616a54e,2,5,2336,,,,,,,,,"<img src= ""rock_img/I_Pumice_10.jpg"" style=""width:8cm; height:7.609999999999999cm;""><p>What type of rock is this?</p>",7,class_response,2,train,7,Pumice,Pumice,10,TRUE,8,8,,
,,,,,,,,,,,html-button-response,317,2.0.0,3686069,622a3bbca995cbb8f616a54e,2,5,1622,,,,,,,,,"<img src= rock_img/I_Pumice_10.jpg style=""width:8cm; height:7.609999999999999cm;""><p style='font-size: 30px; color: green;'><strong>Correct!</strong></p><p style='font-size: 30px;'><strong>This rock is pumice</strong></p>",0,corr_feedback,2,train,7,,,,,,,,
,,,,,,,,,,,html-button-response,318,2.0.0,3688086,622a3bbca995cbb8f616a54e,2,5,2015,,,,,,,,,"<img src= ""rock_img/I_Pumice_04.jpg"" style=""width:8cm; height:6.819999999999999cm;""><p>What type of rock is this?</p>",7,class_response,2,train,8,Pumice,Pumice,4,TRUE,8,8,,
,,,,,,,,,,,html-button-response,319,2.0.0,3689662,622a3bbca995cbb8f616a54e,2,5,1574,,,,,,,,,"<img src= rock_img/I_Pumice_04.jpg style=""width:8cm; height:6.819999999999999cm;""><p style='font-size: 30px; color: green;'><strong>Correct!</strong></p><p style='font-size: 30px;'><strong>This rock is pumice</strong></p>",0,corr_feedback,2,train,8,,,,,,,,
,,,,,,,,,,,html-button-response,320,2.0.0,3697088,622a3bbca995cbb8f616a54e,2,5,7422,,,,,,,,,"<img src= ""rock_img/I_Andesite_04.jpg"" style=""width:8cm; height:5.96cm;""><p>What type of rock is this?</p>",0,class_response,2,train,9,Andesite,Andesite,4,TRUE,1,1,,
,,,,,,,,,,,html-button-response,321,2.0.0,3698520,622a3bbca995cbb8f616a54e,2,5,1430,,,,,,,,,"<img src= rock_img/I_Andesite_04.jpg style=""width:8cm; height:5.96cm;""><p style='font-size: 30px; color: green;'><strong>Correct!</strong></p><p style='font-size: 30px;'><strong>This rock is andesite</strong></p>",0,corr_feedback,2,train,9,,,,,,,,
,,,,,,,,,,,html-button-response,322,2.0.0,3711912,622a3bbca995cbb8f616a54e,2,5,13389,,,,,,,,,"<img src= ""rock_img/I_Diorite_13.jpg"" style=""width:8cm; height:6.29cm;""><p>What type of rock is this?</p>",5,class_response,2,train,10,Pegmatite,Diorite,13,FALSE,6,3,,
,,,,,,,,,,,html-button-response,323,2.0.0,3724157,622a3bbca995cbb8f616a54e,2,5,12243,,,,,,,,,"<img src= rock_img/I_Diorite_13.jpg style=""width:8cm; height:6.29cm;""><p style='font-size: 30px; color: red;'><strong>Incorrect!</strong></p><p style='font-size: 30px;'><strong>This rock is diorite</strong></p>",0,corr_feedback,2,train,10,,,,,,,,
,,,,,,,,,,,html-button-response,324,2.0.0,3728838,622a3bbca995cbb8f616a54e,2,5,4677,,,,,,,,,"<img src= ""rock_img/I_Peridotite_06.jpg"" style=""width:8cm; height:7.53cm;""><p>What type of rock is this?</p>",6,class_response,2,train,11,Peridotite,Peridotite,6,TRUE,7,7,,
,,,,,,,,,,,html-button-response,325,2.0.0,3730511,622a3bbca995cbb8f616a54e,2,5,1671,,,,,,,,,"<img src= rock_img/I_Peridotite_06.jpg style=""width:8cm; height:7.53cm;""><p style='font-size: 30px; color: green;'><strong>Correct!</strong></p><p style='font-size: 30px;'><strong>This rock is peridotite</strong></p>",0,corr_feedback,2,train,11,,,,,,,,
,,,,,,,,,,,html-button-response,326,2.0.0,3740324,622a3bbca995cbb8f616a54e,2,5,9811,,,,,,,,,"<img src= ""rock_img/I_Andesite_05.jpg"" style=""width:8cm; height:4.12cm;""><p>What type of rock is this?</p>",0,class_response,2,train,12,Andesite,Andesite,5,TRUE,1,1,,
,,,,,,,,,,,html-button-response,327,2.0.0,3744745,622a3bbca995cbb8f616a54e,2,5,4419,,,,,,,,,"<img src= rock_img/I_Andesite_05.jpg style=""width:8cm; height:4.12cm;""><p style='font-size: 30px; color: green;'><strong>Correct!</strong></p><p style='font-size: 30px;'><strong>This rock is andesite</strong></p>",0,corr_feedback,2,train,12,,,,,,,,
,,,,,,,,,,,html-button-response,328,2.0.0,3748724,622a3bbca995cbb8f616a54e,2,5,3976,,,,,,,,,"<img src= ""rock_img/I_Peridotite_15.jpg"" style=""width:8cm; height:6cm;""><p>What type of rock is this?</p>",6,class_response,2,train,13,Peridotite,Peridotite,15,TRUE,7,7,,
,,,,,,,,,,,html-button-response,329,2.0.0,3750055,622a3bbca995cbb8f616a54e,2,5,1329,,,,,,,,,"<img src= rock_img/I_Peridotite_15.jpg style=""width:8cm; height:6cm;""><p style='font-size: 30px; color: green;'><strong>Correct!</strong></p><p style='font-size: 30px;'><strong>This rock is peridotite</strong></p>",0,corr_feedback,2,train,13,,,,,,,,
,,,,,,,,,,,html-button-response,330,2.0.0,3770692,622a3bbca995cbb8f616a54e,2,5,20635,,,,,,,,,"<img src= ""rock_img/I_Basalt_09.jpg"" style=""width:8cm; height:6.2cm;""><p>What type of rock is this?</p>",1,class_response,2,train,14,Basalt,Basalt,9,TRUE,2,2,,
,,,,,,,,,,,html-button-response,331,2.0.0,3773231,622a3bbca995cbb8f616a54e,2,5,2536,,,,,,,,,"<img src= rock_img/I_Basalt_09.jpg style=""width:8cm; height:6.2cm;""><p style='font-size: 30px; color: green;'><strong>Correct!</strong></p><p style='font-size: 30px;'><strong>This rock is basalt</strong></p>",0,corr_feedback,2,train,14,,,,,,,,
,,,,,,,,,,,html-button-response,332,2.0.0,3786899,622a3bbca995cbb8f616a54e,2,5,13666,,,,,,,,,"<img src= ""rock_img/I_Gabbro_14.jpg"" style=""width:8cm; height:8.48cm;""><p>What type of rock is this?</p>",2,class_response,2,train,15,Diorite,Gabbro,14,FALSE,3,4,,
,,,,,,,,,,,html-button-response,333,2.0.0,3800777,622a3bbca995cbb8f616a54e,2,5,13875,,,,,,,,,"<img src= rock_img/I_Gabbro_14.jpg style=""width:8cm; height:8.48cm;""><p style='font-size: 30px; color: red;'><strong>Incorrect!</strong></p><p style='font-size: 30px;'><strong>This rock is gabbro</strong></p>",0,corr_feedback,2,train,15,,,,,,,,
,,,,,,,,,,,html-button-response,334,2.0.0,3816765,622a3bbca995cbb8f616a54e,2,5,15985,,,,,,,,,"<img src= ""rock_img/I_Diorite_15.jpg"" style=""width:8cm; height:5.54cm;""><p>What type of rock is this?</p>",2,class_response,2,train,16,Diorite,Diorite,15,TRUE,3,3,,
,,,,,,,,,,,html-button-response,335,2.0.0,3829441,622a3bbca995cbb8f616a54e,2,5,12674,,,,,,,,,"<img src= rock_img/I_Diorite_15.jpg style=""width:8cm; height:5.54cm;""><p style='font-size: 30px; color: green;'><strong>Correct!</strong></p><p style='font-size: 30px;'><strong>This rock is diorite</strong></p>",0,corr_feedback,2,train,16,,,,,,,,
,,,,,,,,,,,html-button-response,336,2.0.0,3873343,622a3bbca995cbb8f616a54e,2,5,43900,,,,,,,,,"<img src= ""rock_img/I_Diorite_08.jpg"" style=""width:8cm; height:6.37cm;""><p>What type of rock is this?</p>",5,class_response,2,train,17,Pegmatite,Diorite,8,FALSE,6,3,,
,,,,,,,,,,,html-button-response,337,2.0.0,3886888,622a3bbca995cbb8f616a54e,2,5,13543,,,,,,,,,"<img src= rock_img/I_Diorite_08.jpg style=""width:8cm; height:6.37cm;""><p style='font-size: 30px; color: red;'><strong>Incorrect!</strong></p><p style='font-size: 30px;'><strong>This rock is diorite</strong></p>",0,corr_feedback,2,train,17,,,,,,,,
,,,,,,,,,,,html-button-response,338,2.0.0,3900997,622a3bbca995cbb8f616a54e,2,5,14107,,,,,,,,,"<img src= ""rock_img/I_Gabbro_14.jpg"" style=""width:8cm; height:8.48cm;""><p>What type of rock is this?</p>",3,class_response,2,train,18,Gabbro,Gabbro,14,TRUE,4,4,,
,,,,,,,,,,,html-button-response,339,2.0.0,3902842,622a3bbca995cbb8f616a54e,2,5,1843,,,,,,,,,"<img src= rock_img/I_Gabbro_14.jpg style=""width:8cm; height:8.48cm;""><p style='font-size: 30px; color: green;'><strong>Correct!</strong></p><p style='font-size: 30px;'><strong>This rock is gabbro</strong></p>",0,corr_feedback,2,train,18,,,,,,,,
,,,,,,,,,,,html-button-response,340,2.0.0,3910840,622a3bbca995cbb8f616a54e,2,5,7994,,,,,,,,,"<img src= ""rock_img/I_Diorite_12.jpg"" style=""width:8cm; height:4.88cm;""><p>What type of rock is this?</p>",2,class_response,2,train,19,Diorite,Diorite,12,TRUE,3,3,,
,,,,,,,,,,,html-button-response,341,2.0.0,3913867,622a3bbca995cbb8f616a54e,2,5,3026,,,,,,,,,"<img src= rock_img/I_Diorite_12.jpg style=""width:8cm; height:4.88cm;""><p style='font-size: 30px; color: green;'><strong>Correct!</strong></p><p style='font-size: 30px;'><strong>This rock is diorite</strong></p>",0,corr_feedback,2,train,19,,,,,,,,
,,,,,,,,,,,html-button-response,342,2.0.0,3917632,622a3bbca995cbb8f616a54e,2,5,3763,,,,,,,,,"<img src= ""rock_img/I_Andesite_04.jpg"" style=""width:8cm; height:5.96cm;""><p>What type of rock is this?</p>",0,class_response,2,train,20,Andesite,Andesite,4,TRUE,1,1,,
,,,,,,,,,,,html-button-response,343,2.0.0,3919078,622a3bbca995cbb8f616a54e,2,5,1444,,,,,,,,,"<img src= rock_img/I_Andesite_04.jpg style=""width:8cm; height:5.96cm;""><p style='font-size: 30px; color: green;'><strong>Correct!</strong></p><p style='font-size: 30px;'><strong>This rock is andesite</strong></p>",0,corr_feedback,2,train,20,,,,,,,,
,,,,,,,,,,,html-button-response,344,2.0.0,3921061,622a3bbca995cbb8f616a54e,2,5,1980,,,,,,,,,"<img src= ""rock_img/I_Pumice_09.jpg"" style=""width:8cm; height:6.44cm;""><p>What type of rock is this?</p>",7,class_response,2,train,21,Pumice,Pumice,9,TRUE,8,8,,
,,,,,,,,,,,html-button-response,345,2.0.0,3922454,622a3bbca995cbb8f616a54e,2,5,1389,,,,,,,,,"<img src= rock_img/I_Pumice_09.jpg style=""width:8cm; height:6.44cm;""><p style='font-size: 30px; color: green;'><strong>Correct!</strong></p><p style='font-size: 30px;'><strong>This rock is pumice</strong></p>",0,corr_feedback,2,train,21,,,,,,,,
,,,,,,,,,,,html-button-response,346,2.0.0,3949977,622a3bbca995cbb8f616a54e,2,5,27521,,,,,,,,,"<img src= ""rock_img/I_Peridotite_16.jpg"" style=""width:8cm; height:6.989999999999999cm;""><p>What type of rock is this?</p>",3,class_response,2,train,22,Gabbro,Peridotite,16,FALSE,4,7,,
,,,,,,,,,,,html-button-response,347,2.0.0,3964303,622a3bbca995cbb8f616a54e,2,5,14323,,,,,,,,,"<img src= rock_img/I_Peridotite_16.jpg style=""width:8cm; height:6.989999999999999cm;""><p style='font-size: 30px; color: red;'><strong>Incorrect!</strong></p><p style='font-size: 30px;'><strong>This rock is peridotite</strong></p>",0,corr_feedback,2,train,22,,,,,,,,
,,,,,,,,,,,html-button-response,348,2.0.0,3978157,622a3bbca995cbb8f616a54e,2,5,13851,,,,,,,,,"<img src= ""rock_img/I_Gabbro_10.jpg"" style=""width:8cm; height:5.680000000000001cm;""><p>What type of rock is this?</p>",3,class_response,2,train,23,Gabbro,Gabbro,10,TRUE,4,4,,
,,,,,,,,,,,html-button-response,349,2.0.0,3979707,622a3bbca995cbb8f616a54e,2,5,1547,,,,,,,,,"<img src= rock_img/I_Gabbro_10.jpg style=""width:8cm; height:5.680000000000001cm;""><p style='font-size: 30px; color: green;'><strong>Correct!</strong></p><p style='font-size: 30px;'><strong>This rock is gabbro</strong></p>",0,corr_feedback,2,train,23,,,,,,,,
,,,,,,,,,,,html-button-response,350,2.0.0,3988237,622a3bbca995cbb8f616a54e,2,5,8529,,,,,,,,,"<img src= ""rock_img/I_Diorite_13.jpg"" style=""width:8cm; height:6.29cm;""><p>What type of rock is this?</p>",2,class_response,2,train,24,Diorite,Diorite,13,TRUE,3,3,,
,,,,,,,,,,,html-button-response,351,2.0.0,3989674,622a3bbca995cbb8f616a54e,2,5,1435,,,,,,,,,"<img src= rock_img/I_Diorite_13.jpg style=""width:8cm; height:6.29cm;""><p style='font-size: 30px; color: green;'><strong>Correct!</strong></p><p style='font-size: 30px;'><strong>This rock is diorite</strong></p>",0,corr_feedback,2,train,24,,,,,,,,
,,,,,,,,,,,html-button-response,352,2.0.0,3991529,622a3bbca995cbb8f616a54e,2,5,1853,,,,,,,,,"<img src= ""rock_img/I_Obsidian_06.jpg"" style=""width:8cm; height:6.8cm;""><p>What type of rock is this?</p>",4,class_response,2,train,25,Obsidian,Obsidian,6,TRUE,5,5,,
,,,,,,,,,,,html-button-response,353,2.0.0,3992933,622a3bbca995cbb8f616a54e,2,5,1402,,,,,,,,,"<img src= rock_img/I_Obsidian_06.jpg style=""width:8cm; height:6.8cm;""><p style='font-size: 30px; color: green;'><strong>Correct!</strong></p><p style='font-size: 30px;'><strong>This rock is obsidian</strong></p>",0,corr_feedback,2,train,25,,,,,,,,
,,,,,,,,,,,html-button-response,354,2.0.0,4012760,622a3bbca995cbb8f616a54e,2,5,19824,,,,,,,,,"<img src= ""rock_img/I_Gabbro_08.jpg"" style=""width:8cm; height:5.15cm;""><p>What type of rock is this?</p>",3,class_response,2,train,26,Gabbro,Gabbro,8,TRUE,4,4,,
,,,,,,,,,,,html-button-response,355,2.0.0,4014339,622a3bbca995cbb8f616a54e,2,5,1577,,,,,,,,,"<img src= rock_img/I_Gabbro_08.jpg style=""width:8cm; height:5.15cm;""><p style='font-size: 30px; color: green;'><strong>Correct!</strong></p><p style='font-size: 30px;'><strong>This rock is gabbro</strong></p>",0,corr_feedback,2,train,26,,,,,,,,
,,,,,,,,,,,html-button-response,356,2.0.0,4029150,622a3bbca995cbb8f616a54e,2,5,14809,,,,,,,,,"<img src= ""rock_img/I_Basalt_05.jpg"" style=""width:8cm; height:8.18cm;""><p>What type of rock is this?</p>",1,class_response,2,train,27,Basalt,Basalt,5,TRUE,2,2,,
,,,,,,,,,,,html-button-response,357,2.0.0,4030576,622a3bbca995cbb8f616a54e,2,5,1424,,,,,,,,,"<img src= rock_img/I_Basalt_05.jpg style=""width:8cm; height:8.18cm;""><p style='font-size: 30px; color: green;'><strong>Correct!</strong></p><p style='font-size: 30px;'><strong>This rock is basalt</strong></p>",0,corr_feedback,2,train,27,,,,,,,,
,,,,,,,,,,,html-button-response,358,2.0.0,4042240,622a3bbca995cbb8f616a54e,2,5,11662,,,,,,,,,"<img src= ""rock_img/I_Gabbro_13.jpg"" style=""width:8cm; height:5.08cm;""><p>What type of rock is this?</p>",3,class_response,2,train,28,Gabbro,Gabbro,13,TRUE,4,4,,
,,,,,,,,,,,html-button-response,359,2.0.0,4044403,622a3bbca995cbb8f616a54e,2,5,2161,,,,,,,,,"<img src= rock_img/I_Gabbro_13.jpg style=""width:8cm; height:5.08cm;""><p style='font-size: 30px; color: green;'><strong>Correct!</strong></p><p style='font-size: 30px;'><strong>This rock is gabbro</strong></p>",0,corr_feedback,2,train,28,,,,,,,,
,,,,,,,,,,,html-button-response,360,2.0.0,4046151,622a3bbca995cbb8f616a54e,2,5,1745,,,,,,,,,"<img src= ""rock_img/I_Pumice_10.jpg"" style=""width:8cm; height:7.609999999999999cm;""><p>What type of rock is this?</p>",7,class_response,2,train,29,Pumice,Pumice,10,TRUE,8,8,,
,,,,,,,,,,,html-button-response,361,2.0.0,4047494,622a3bbca995cbb8f616a54e,2,5,1341,,,,,,,,,"<img src= rock_img/I_Pumice_10.jpg style=""width:8cm; height:7.609999999999999cm;""><p style='font-size: 30px; color: green;'><strong>Correct!</strong></p><p style='font-size: 30px;'><strong>This rock is pumice</strong></p>",0,corr_feedback,2,train,29,,,,,,,,
,,,,,,,,,,,html-button-response,362,2.0.0,4061831,622a3bbca995cbb8f616a54e,2,5,14334,,,,,,,,,"<img src= ""rock_img/I_Basalt_08.jpg"" style=""width:8cm; height:10.44cm;""><p>What type of rock is this?</p>",1,class_response,2,train,30,Basalt,Basalt,8,TRUE,2,2,,
,,,,,,,,,,,html-button-response,363,2.0.0,4063211,622a3bbca995cbb8f616a54e,2,5,1378,,,,,,,,,"<img src= rock_img/I_Basalt_08.jpg style=""width:8cm; height:10.44cm;""><p style='font-size: 30px; color: green;'><strong>Correct!</strong></p><p style='font-size: 30px;'><strong>This rock is basalt</strong></p>",0,corr_feedback,2,train,30,,,,,,,,
,,,,,,,,,,,html-button-response,364,2.0.0,4087015,622a3bbca995cbb8f616a54e,2,5,23802,,,,,,,,,"<img src= ""rock_img/I_Pegmatite_11.jpg"" style=""width:8cm; height:8.14cm;""><p>What type of rock is this?</p>",5,class_response,2,train,31,Pegmatite,Pegmatite,11,TRUE,6,6,,
,,,,,,,,,,,html-button-response,365,2.0.0,4088472,622a3bbca995cbb8f616a54e,2,5,1453,,,,,,,,,"<img src= rock_img/I_Pegmatite_11.jpg style=""width:8cm; height:8.14cm;""><p style='font-size: 30px; color: green;'><strong>Correct!</strong></p><p style='font-size: 30px;'><strong>This rock is pegmatite</strong></p>",0,corr_feedback,2,train,31,,,,,,,,
,,,,,,,,,,,html-button-response,366,2.0.0,4091790,622a3bbca995cbb8f616a54e,2,5,3316,,,,,,,,,"<img src= ""rock_img/I_Andesite_05.jpg"" style=""width:8cm; height:4.12cm;""><p>What type of rock is this?</p>",0,class_response,2,train,32,Andesite,Andesite,5,TRUE,1,1,,
,,,,,,,,,,,html-button-response,367,2.0.0,4093511,622a3bbca995cbb8f616a54e,2,5,1719,,,,,,,,,"<img src= rock_img/I_Andesite_05.jpg style=""width:8cm; height:4.12cm;""><p style='font-size: 30px; color: green;'><strong>Correct!</strong></p><p style='font-size: 30px;'><strong>This rock is andesite</strong></p>",0,corr_feedback,2,train,32,,,,,,,,
,,,,,,,,,,,html-button-response,368,2.0.0,4095837,622a3bbca995cbb8f616a54e,2,5,2324,,,,,,,,,"<img src= ""rock_img/I_Basalt_12.jpg"" style=""width:8cm; height:6.010000000000001cm;""><p>What type of rock is this?</p>",7,class_response,2,train,33,Pumice,Basalt,12,FALSE,8,2,,
,,,,,,,,,,,html-button-response,369,2.0.0,4097571,622a3bbca995cbb8f616a54e,2,5,1732,,,,,,,,,"<img src= rock_img/I_Basalt_12.jpg style=""width:8cm; height:6.010000000000001cm;""><p style='font-size: 30px; color: red;'><strong>Incorrect!</strong></p><p style='font-size: 30px;'><strong>This rock is basalt</strong></p>",0,corr_feedback,2,train,33,,,,,,,,
,,,,,,,,,,,html-button-response,370,2.0.0,4100153,622a3bbca995cbb8f616a54e,2,5,2580,,,,,,,,,"<img src= ""rock_img/I_Andesite_07.jpg"" style=""width:8cm; height:5.93cm;""><p>What type of rock is this?</p>",0,class_response,2,train,34,Andesite,Andesite,7,TRUE,1,1,,
,,,,,,,,,,,html-button-response,371,2.0.0,4101929,622a3bbca995cbb8f616a54e,2,5,1774,,,,,,,,,"<img src= rock_img/I_Andesite_07.jpg style=""width:8cm; height:5.93cm;""><p style='font-size: 30px; color: green;'><strong>Correct!</strong></p><p style='font-size: 30px;'><strong>This rock is andesite</strong></p>",0,corr_feedback,2,train,34,,,,,,,,
,,,,,,,,,,,html-button-response,372,2.0.0,4114784,622a3bbca995cbb8f616a54e,2,5,12853,,,,,,,,,"<img src= ""rock_img/I_Andesite_16.jpg"" style=""width:8cm; height:6.010000000000001cm;""><p>What type of rock is this?</p>",0,class_response,2,train,35,Andesite,Andesite,16,TRUE,1,1,,
,,,,,,,,,,,html-button-response,373,2.0.0,4116301,622a3bbca995cbb8f616a54e,2,5,1515,,,,,,,,,"<img src= rock_img/I_Andesite_16.jpg style=""width:8cm; height:6.010000000000001cm;""><p style='font-size: 30px; color: green;'><strong>Correct!</strong></p><p style='font-size: 30px;'><strong>This rock is andesite</strong></p>",0,corr_feedback,2,train,35,,,,,,,,
,,,,,,,,,,,html-button-response,374,2.0.0,4130372,622a3bbca995cbb8f616a54e,2,5,14069,,,,,,,,,"<img src= ""rock_img/I_Gabbro_10.jpg"" style=""width:8cm; height:5.680000000000001cm;""><p>What type of rock is this?</p>",3,class_response,2,train,36,Gabbro,Gabbro,10,TRUE,4,4,,
,,,,,,,,,,,html-button-response,375,2.0.0,4131927,622a3bbca995cbb8f616a54e,2,5,1553,,,,,,,,,"<img src= rock_img/I_Gabbro_10.jpg style=""width:8cm; height:5.680000000000001cm;""><p style='font-size: 30px; color: green;'><strong>Correct!</strong></p><p style='font-size: 30px;'><strong>This rock is gabbro</strong></p>",0,corr_feedback,2,train,36,,,,,,,,
,,,,,,,,,,,html-button-response,376,2.0.0,4146530,622a3bbca995cbb8f616a54e,2,5,14600,,,,,,,,,"<img src= ""rock_img/I_Andesite_02.jpg"" style=""width:8cm; height:8.5cm;""><p>What type of rock is this?</p>",3,class_response,2,train,37,Gabbro,Andesite,2,FALSE,4,1,,
,,,,,,,,,,,html-button-response,377,2.0.0,4159855,622a3bbca995cbb8f616a54e,2,5,13323,,,,,,,,,"<img src= rock_img/I_Andesite_02.jpg style=""width:8cm; height:8.5cm;""><p style='font-size: 30px; color: red;'><strong>Incorrect!</strong></p><p style='font-size: 30px;'><strong>This rock is andesite</strong></p>",0,corr_feedback,2,train,37,,,,,,,,
,,,,,,,,,,,html-button-response,378,2.0.0,4181561,622a3bbca995cbb8f616a54e,2,5,21704,,,,,,,,,"<img src= ""rock_img/I_Pegmatite_09.jpg"" style=""width:8cm; height:4.03cm;""><p>What type of rock is this?</p>",5,class_response,2,train,38,Pegmatite,Pegmatite,9,TRUE,6,6,,
,,,,,,,,,,,html-button-response,379,2.0.0,4183159,622a3bbca995cbb8f616a54e,2,5,1596,,,,,,,,,"<img src= rock_img/I_Pegmatite_09.jpg style=""width:8cm; height:4.03cm;""><p style='font-size: 30px; color: green;'><strong>Correct!</strong></p><p style='font-size: 30px;'><strong>This rock is pegmatite</strong></p>",0,corr_feedback,2,train,38,,,,,,,,
,,,,,,,,,,,html-button-response,380,2.0.0,4195062,622a3bbca995cbb8f616a54e,2,5,11900,,,,,,,,,"<img src= ""rock_img/I_Basalt_05.jpg"" style=""width:8cm; height:8.18cm;""><p>What type of rock is this?</p>",1,class_response,2,train,39,Basalt,Basalt,5,TRUE,2,2,,
,,,,,,,,,,,html-button-response,381,2.0.0,4196423,622a3bbca995cbb8f616a54e,2,5,1359,,,,,,,,,"<img src= rock_img/I_Basalt_05.jpg style=""width:8cm; height:8.18cm;""><p style='font-size: 30px; color: green;'><strong>Correct!</strong></p><p style='font-size: 30px;'><strong>This rock is basalt</strong></p>",0,corr_feedback,2,train,39,,,,,,,,
,,,,,,,,,,,html-button-response,382,2.0.0,4198750,622a3bbca995cbb8f616a54e,2,5,2324,,,,,,,,,"<img src= ""rock_img/I_Obsidian_05.jpg"" style=""width:8cm; height:6.33cm;""><p>What type of rock is this?</p>",4,class_response,2,train,40,Obsidian,Obsidian,5,TRUE,5,5,,
,,,,,,,,,,,html-button-response,383,2.0.0,4200129,622a3bbca995cbb8f616a54e,2,5,1377,,,,,,,,,"<img src= rock_img/I_Obsidian_05.jpg style=""width:8cm; height:6.33cm;""><p style='font-size: 30px; color: green;'><strong>Correct!</strong></p><p style='font-size: 30px;'><strong>This rock is obsidian</strong></p>",0,corr_feedback,2,train,40,,,,,,,,
,,,,,,,,,,,html-button-response,384,2.0.0,4202024,622a3bbca995cbb8f616a54e,2,5,1893,,,,,,,,,"<img src= ""rock_img/I_Peridotite_02.jpg"" style=""width:8cm; height:5.859999999999999cm;""><p>What type of rock is this?</p>",6,class_response,2,train,41,Peridotite,Peridotite,2,TRUE,7,7,,
,,,,,,,,,,,html-button-response,385,2.0.0,4203205,622a3bbca995cbb8f616a54e,2,5,1179,,,,,,,,,"<img src= rock_img/I_Peridotite_02.jpg style=""width:8cm; height:5.859999999999999cm;""><p style='font-size: 30px; color: green;'><strong>Correct!</strong></p><p style='font-size: 30px;'><strong>This rock is peridotite</strong></p>",0,corr_feedback,2,train,41,,,,,,,,
