width,height,webaudio,browser,browser_version,mobile,os,fullscreen,vsync_rate,webcam,microphone,trial_type,trial_index,plugin_version,time_elapsed,subjID,condition,stimID,rt,url,success,value,timeout,failed_images,failed_audio,failed_video,view_history,stimulus,response,trialType,cycle,phase,trial,resp,cat,token,corr,resp_num,cat_num,rt_ref,rt_paired,ref_cat_num,paired_cat_num,ref_cat,paired_cat,text_Pegmatite,text_Peridotite,time_obs,time_resp,text_Basalt,text_Obsidian,text_Gabbro,text_Diorite,time_fb1,time_fb2,text_Pumice,text_Andesite
1667,1006,TRUE,chrome,131.0.0,FALSE,Mac OS,TRUE,57.14,TRUE,TRUE,browser-check,0,2.0.0,7175,64d53aae0f3f7317f6eb617e,4,22,,,,,,,,,,,,,,,,,,,,,,,,,,,,,,,,,,,,,,,
,,,,,,,,,,,external-html,1,2.0.0,12231,64d53aae0f3f7317f6eb617e,4,22,4966,consent_form.html,,,,,,,,,,,,,,,,,,,,,,,,,,,,,,,,,,,,,
,,,,,,,,,,,fullscreen,2,2.0.0,15660,64d53aae0f3f7317f6eb617e,4,22,2406,,TRUE,,,,,,,,,,,,,,,,,,,,,,,,,,,,,,,,,,,,
,,,,,,,,,,,call-function,3,2.0.0,15661,64d53aae0f3f7317f6eb617e,4,22,,,,{},,,,,,,,,,,,,,,,,,,,,,,,,,,,,,,,,,,
,,,,,,,,,,,preload,4,2.0.0,18068,64d53aae0f3f7317f6eb617e,4,22,,,TRUE,,FALSE,[],[],[],,,,,,,,,,,,,,,,,,,,,,,,,,,,,,,
,,,,,,,,,,,instructions,5,2.0.0,43108,64d53aae0f3f7317f6eb617e,4,22,25039,,,,,,,,"[{""page_index"":0,""viewing_time"":6297},{""page_index"":1,""viewing_time"":8812},{""page_index"":2,""viewing_time"":9930}]",,,,,,,,,,,,,,,,,,,,,,,,,,,,,,
,,,,,,,,,,,html-button-response,6,2.0.0,44986,64d53aae0f3f7317f6eb617e,4,22,1877,,,,,,,,,,0,start_test,,,,,,,,,,,,,,,,,,,,,,,,,,,
,,,,,,,,,,,html-button-response,7,2.0.0,50832,64d53aae0f3f7317f6eb617e,4,22,5845,,,,,,,,,"<img src= ""rock_img/I_Andesite_14.jpg"" style=""width:8cm; height:5.449999999999999cm;""><p>What type of rock is this?</p>",7,class_response,0,test,1,Pumice,Andesite,14,FALSE,8,1,,,,,,,,,,,,,,,,,,
,,,,,,,,,,,html-keyboard-response,8,2.0.0,51335,64d53aae0f3f7317f6eb617e,4,22,null,,,,,,,,,<p style='font-size: 30px;'><strong>Okay</strong></p>,null,neutral_feedback,0,test,1,,,,,,,,,,,,,,,,,,,,,,,,
,,,,,,,,,,,html-button-response,9,2.0.0,55678,64d53aae0f3f7317f6eb617e,4,22,4342,,,,,,,,,"<img src= ""rock_img/I_Pumice_08.jpg"" style=""width:8cm; height:6.67cm;""><p>What type of rock is this?</p>",2,class_response,0,test,2,Diorite,Pumice,8,FALSE,3,8,,,,,,,,,,,,,,,,,,
,,,,,,,,,,,html-keyboard-response,10,2.0.0,56180,64d53aae0f3f7317f6eb617e,4,22,null,,,,,,,,,<p style='font-size: 30px;'><strong>Okay</strong></p>,null,neutral_feedback,0,test,2,,,,,,,,,,,,,,,,,,,,,,,,
,,,,,,,,,,,html-button-response,11,2.0.0,59630,64d53aae0f3f7317f6eb617e,4,22,3449,,,,,,,,,"<img src= ""rock_img/I_Diorite_14.jpg"" style=""width:8cm; height:5.71cm;""><p>What type of rock is this?</p>",0,class_response,0,test,3,Andesite,Diorite,14,FALSE,1,3,,,,,,,,,,,,,,,,,,
,,,,,,,,,,,html-keyboard-response,12,2.0.0,60131,64d53aae0f3f7317f6eb617e,4,22,null,,,,,,,,,<p style='font-size: 30px;'><strong>Okay</strong></p>,null,neutral_feedback,0,test,3,,,,,,,,,,,,,,,,,,,,,,,,
,,,,,,,,,,,html-button-response,13,2.0.0,62422,64d53aae0f3f7317f6eb617e,4,22,2290,,,,,,,,,"<img src= ""rock_img/I_Pumice_04.jpg"" style=""width:8cm; height:6.819999999999999cm;""><p>What type of rock is this?</p>",1,class_response,0,test,4,Basalt,Pumice,4,FALSE,2,8,,,,,,,,,,,,,,,,,,
,,,,,,,,,,,html-keyboard-response,14,2.0.0,62923,64d53aae0f3f7317f6eb617e,4,22,null,,,,,,,,,<p style='font-size: 30px;'><strong>Okay</strong></p>,null,neutral_feedback,0,test,4,,,,,,,,,,,,,,,,,,,,,,,,
,,,,,,,,,,,html-button-response,15,2.0.0,64876,64d53aae0f3f7317f6eb617e,4,22,1952,,,,,,,,,"<img src= ""rock_img/I_Pumice_02.jpg"" style=""width:8cm; height:7.3999999999999995cm;""><p>What type of rock is this?</p>",5,class_response,0,test,5,Pegmatite,Pumice,2,FALSE,6,8,,,,,,,,,,,,,,,,,,
,,,,,,,,,,,html-keyboard-response,16,2.0.0,65378,64d53aae0f3f7317f6eb617e,4,22,null,,,,,,,,,<p style='font-size: 30px;'><strong>Okay</strong></p>,null,neutral_feedback,0,test,5,,,,,,,,,,,,,,,,,,,,,,,,
,,,,,,,,,,,html-button-response,17,2.0.0,67206,64d53aae0f3f7317f6eb617e,4,22,1827,,,,,,,,,"<img src= ""rock_img/I_Andesite_06.jpg"" style=""width:8cm; height:6.840000000000001cm;""><p>What type of rock is this?</p>",3,class_response,0,test,6,Gabbro,Andesite,6,FALSE,4,1,,,,,,,,,,,,,,,,,,
,,,,,,,,,,,html-keyboard-response,18,2.0.0,67707,64d53aae0f3f7317f6eb617e,4,22,null,,,,,,,,,<p style='font-size: 30px;'><strong>Okay</strong></p>,null,neutral_feedback,0,test,6,,,,,,,,,,,,,,,,,,,,,,,,
,,,,,,,,,,,html-button-response,19,2.0.0,69258,64d53aae0f3f7317f6eb617e,4,22,1550,,,,,,,,,"<img src= ""rock_img/I_Diorite_08.jpg"" style=""width:8cm; height:6.37cm;""><p>What type of rock is this?</p>",7,class_response,0,test,7,Pumice,Diorite,8,FALSE,8,3,,,,,,,,,,,,,,,,,,
,,,,,,,,,,,html-keyboard-response,20,2.0.0,69760,64d53aae0f3f7317f6eb617e,4,22,null,,,,,,,,,<p style='font-size: 30px;'><strong>Okay</strong></p>,null,neutral_feedback,0,test,7,,,,,,,,,,,,,,,,,,,,,,,,
,,,,,,,,,,,html-button-response,21,2.0.0,70940,64d53aae0f3f7317f6eb617e,4,22,1179,,,,,,,,,"<img src= ""rock_img/I_Gabbro_11.jpg"" style=""width:8cm; height:6.2cm;""><p>What type of rock is this?</p>",4,class_response,0,test,8,Obsidian,Gabbro,11,FALSE,5,4,,,,,,,,,,,,,,,,,,
,,,,,,,,,,,html-keyboard-response,22,2.0.0,71441,64d53aae0f3f7317f6eb617e,4,22,null,,,,,,,,,<p style='font-size: 30px;'><strong>Okay</strong></p>,null,neutral_feedback,0,test,8,,,,,,,,,,,,,,,,,,,,,,,,
,,,,,,,,,,,html-button-response,23,2.0.0,72416,64d53aae0f3f7317f6eb617e,4,22,974,,,,,,,,,"<img src= ""rock_img/I_Obsidian_02.jpg"" style=""width:8cm; height:7.51cm;""><p>What type of rock is this?</p>",4,class_response,0,test,9,Obsidian,Obsidian,2,TRUE,5,5,,,,,,,,,,,,,,,,,,
,,,,,,,,,,,html-keyboard-response,24,2.0.0,72917,64d53aae0f3f7317f6eb617e,4,22,null,,,,,,,,,<p style='font-size: 30px;'><strong>Okay</strong></p>,null,neutral_feedback,0,test,9,,,,,,,,,,,,,,,,,,,,,,,,
,,,,,,,,,,,html-button-response,25,2.0.0,76080,64d53aae0f3f7317f6eb617e,4,22,3162,,,,,,,,,"<img src= ""rock_img/I_Diorite_15.jpg"" style=""width:8cm; height:5.54cm;""><p>What type of rock is this?</p>",2,class_response,0,test,10,Diorite,Diorite,15,TRUE,3,3,,,,,,,,,,,,,,,,,,
,,,,,,,,,,,html-keyboard-response,26,2.0.0,76581,64d53aae0f3f7317f6eb617e,4,22,null,,,,,,,,,<p style='font-size: 30px;'><strong>Okay</strong></p>,null,neutral_feedback,0,test,10,,,,,,,,,,,,,,,,,,,,,,,,
,,,,,,,,,,,html-button-response,27,2.0.0,78542,64d53aae0f3f7317f6eb617e,4,22,1960,,,,,,,,,"<img src= ""rock_img/I_Basalt_16.jpg"" style=""width:8cm; height:7.659999999999999cm;""><p>What type of rock is this?</p>",0,class_response,0,test,11,Andesite,Basalt,16,FALSE,1,2,,,,,,,,,,,,,,,,,,
,,,,,,,,,,,html-keyboard-response,28,2.0.0,79043,64d53aae0f3f7317f6eb617e,4,22,null,,,,,,,,,<p style='font-size: 30px;'><strong>Okay</strong></p>,null,neutral_feedback,0,test,11,,,,,,,,,,,,,,,,,,,,,,,,
,,,,,,,,,,,html-button-response,29,2.0.0,83412,64d53aae0f3f7317f6eb617e,4,22,4368,,,,,,,,,"<img src= ""rock_img/I_Basalt_06.jpg"" style=""width:8cm; height:7.06cm;""><p>What type of rock is this?</p>",2,class_response,0,test,12,Diorite,Basalt,6,FALSE,3,2,,,,,,,,,,,,,,,,,,
,,,,,,,,,,,html-keyboard-response,30,2.0.0,83913,64d53aae0f3f7317f6eb617e,4,22,null,,,,,,,,,<p style='font-size: 30px;'><strong>Okay</strong></p>,null,neutral_feedback,0,test,12,,,,,,,,,,,,,,,,,,,,,,,,
,,,,,,,,,,,html-button-response,31,2.0.0,85412,64d53aae0f3f7317f6eb617e,4,22,1498,,,,,,,,,"<img src= ""rock_img/I_Obsidian_11.jpg"" style=""width:8cm; height:6.05cm;""><p>What type of rock is this?</p>",4,class_response,0,test,13,Obsidian,Obsidian,11,TRUE,5,5,,,,,,,,,,,,,,,,,,
,,,,,,,,,,,html-keyboard-response,32,2.0.0,85914,64d53aae0f3f7317f6eb617e,4,22,null,,,,,,,,,<p style='font-size: 30px;'><strong>Okay</strong></p>,null,neutral_feedback,0,test,13,,,,,,,,,,,,,,,,,,,,,,,,
,,,,,,,,,,,html-button-response,33,2.0.0,87534,64d53aae0f3f7317f6eb617e,4,22,1619,,,,,,,,,"<img src= ""rock_img/I_Basalt_10.jpg"" style=""width:8cm; height:5.85cm;""><p>What type of rock is this?</p>",6,class_response,0,test,14,Peridotite,Basalt,10,FALSE,7,2,,,,,,,,,,,,,,,,,,
,,,,,,,,,,,html-keyboard-response,34,2.0.0,88036,64d53aae0f3f7317f6eb617e,4,22,null,,,,,,,,,<p style='font-size: 30px;'><strong>Okay</strong></p>,null,neutral_feedback,0,test,14,,,,,,,,,,,,,,,,,,,,,,,,
,,,,,,,,,,,html-button-response,35,2.0.0,89810,64d53aae0f3f7317f6eb617e,4,22,1773,,,,,,,,,"<img src= ""rock_img/I_Peridotite_12.jpg"" style=""width:8cm; height:4.54cm;""><p>What type of rock is this?</p>",3,class_response,0,test,15,Gabbro,Peridotite,12,FALSE,4,7,,,,,,,,,,,,,,,,,,
,,,,,,,,,,,html-keyboard-response,36,2.0.0,90311,64d53aae0f3f7317f6eb617e,4,22,null,,,,,,,,,<p style='font-size: 30px;'><strong>Okay</strong></p>,null,neutral_feedback,0,test,15,,,,,,,,,,,,,,,,,,,,,,,,
,,,,,,,,,,,html-button-response,37,2.0.0,92010,64d53aae0f3f7317f6eb617e,4,22,1698,,,,,,,,,"<img src= ""rock_img/I_Pegmatite_03.jpg"" style=""width:8cm; height:5.239999999999999cm;""><p>What type of rock is this?</p>",2,class_response,0,test,16,Diorite,Pegmatite,3,FALSE,3,6,,,,,,,,,,,,,,,,,,
,,,,,,,,,,,html-keyboard-response,38,2.0.0,92511,64d53aae0f3f7317f6eb617e,4,22,null,,,,,,,,,<p style='font-size: 30px;'><strong>Okay</strong></p>,null,neutral_feedback,0,test,16,,,,,,,,,,,,,,,,,,,,,,,,
,,,,,,,,,,,html-button-response,39,2.0.0,94010,64d53aae0f3f7317f6eb617e,4,22,1498,,,,,,,,,"<img src= ""rock_img/I_Gabbro_05.jpg"" style=""width:8cm; height:6cm;""><p>What type of rock is this?</p>",5,class_response,0,test,17,Pegmatite,Gabbro,5,FALSE,6,4,,,,,,,,,,,,,,,,,,
,,,,,,,,,,,html-keyboard-response,40,2.0.0,94511,64d53aae0f3f7317f6eb617e,4,22,null,,,,,,,,,<p style='font-size: 30px;'><strong>Okay</strong></p>,null,neutral_feedback,0,test,17,,,,,,,,,,,,,,,,,,,,,,,,
,,,,,,,,,,,html-button-response,41,2.0.0,96798,64d53aae0f3f7317f6eb617e,4,22,2286,,,,,,,,,"<img src= ""rock_img/I_Pegmatite_11.jpg"" style=""width:8cm; height:8.14cm;""><p>What type of rock is this?</p>",0,class_response,0,test,18,Andesite,Pegmatite,11,FALSE,1,6,,,,,,,,,,,,,,,,,,
,,,,,,,,,,,html-keyboard-response,42,2.0.0,97300,64d53aae0f3f7317f6eb617e,4,22,null,,,,,,,,,<p style='font-size: 30px;'><strong>Okay</strong></p>,null,neutral_feedback,0,test,18,,,,,,,,,,,,,,,,,,,,,,,,
,,,,,,,,,,,html-button-response,43,2.0.0,98296,64d53aae0f3f7317f6eb617e,4,22,995,,,,,,,,,"<img src= ""rock_img/I_Obsidian_14.jpg"" style=""width:8cm; height:7.64cm;""><p>What type of rock is this?</p>",4,class_response,0,test,19,Obsidian,Obsidian,14,TRUE,5,5,,,,,,,,,,,,,,,,,,
,,,,,,,,,,,html-keyboard-response,44,2.0.0,98797,64d53aae0f3f7317f6eb617e,4,22,null,,,,,,,,,<p style='font-size: 30px;'><strong>Okay</strong></p>,null,neutral_feedback,0,test,19,,,,,,,,,,,,,,,,,,,,,,,,
,,,,,,,,,,,html-button-response,45,2.0.0,100118,64d53aae0f3f7317f6eb617e,4,22,1320,,,,,,,,,"<img src= ""rock_img/I_Gabbro_03.jpg"" style=""width:8cm; height:8.52cm;""><p>What type of rock is this?</p>",1,class_response,0,test,20,Basalt,Gabbro,3,FALSE,2,4,,,,,,,,,,,,,,,,,,
,,,,,,,,,,,html-keyboard-response,46,2.0.0,100619,64d53aae0f3f7317f6eb617e,4,22,null,,,,,,,,,<p style='font-size: 30px;'><strong>Okay</strong></p>,null,neutral_feedback,0,test,20,,,,,,,,,,,,,,,,,,,,,,,,
,,,,,,,,,,,html-button-response,47,2.0.0,101634,64d53aae0f3f7317f6eb617e,4,22,1014,,,,,,,,,"<img src= ""rock_img/I_Basalt_04.jpg"" style=""width:8cm; height:7.53cm;""><p>What type of rock is this?</p>",4,class_response,0,test,21,Obsidian,Basalt,4,FALSE,5,2,,,,,,,,,,,,,,,,,,
,,,,,,,,,,,html-keyboard-response,48,2.0.0,102135,64d53aae0f3f7317f6eb617e,4,22,null,,,,,,,,,<p style='font-size: 30px;'><strong>Okay</strong></p>,null,neutral_feedback,0,test,21,,,,,,,,,,,,,,,,,,,,,,,,
,,,,,,,,,,,html-button-response,49,2.0.0,102878,64d53aae0f3f7317f6eb617e,4,22,742,,,,,,,,,"<img src= ""rock_img/I_Gabbro_09.jpg"" style=""width:8cm; height:7.279999999999999cm;""><p>What type of rock is this?</p>",4,class_response,0,test,22,Obsidian,Gabbro,9,FALSE,5,4,,,,,,,,,,,,,,,,,,
,,,,,,,,,,,html-keyboard-response,50,2.0.0,103378,64d53aae0f3f7317f6eb617e,4,22,null,,,,,,,,,<p style='font-size: 30px;'><strong>Okay</strong></p>,null,neutral_feedback,0,test,22,,,,,,,,,,,,,,,,,,,,,,,,
,,,,,,,,,,,html-button-response,51,2.0.0,104938,64d53aae0f3f7317f6eb617e,4,22,1559,,,,,,,,,"<img src= ""rock_img/I_Pumice_09.jpg"" style=""width:8cm; height:6.44cm;""><p>What type of rock is this?</p>",7,class_response,0,test,23,Pumice,Pumice,9,TRUE,8,8,,,,,,,,,,,,,,,,,,
,,,,,,,,,,,html-keyboard-response,52,2.0.0,105440,64d53aae0f3f7317f6eb617e,4,22,null,,,,,,,,,<p style='font-size: 30px;'><strong>Okay</strong></p>,null,neutral_feedback,0,test,23,,,,,,,,,,,,,,,,,,,,,,,,
,,,,,,,,,,,html-button-response,53,2.0.0,106868,64d53aae0f3f7317f6eb617e,4,22,1427,,,,,,,,,"<img src= ""rock_img/I_Basalt_08.jpg"" style=""width:8cm; height:10.44cm;""><p>What type of rock is this?</p>",5,class_response,0,test,24,Pegmatite,Basalt,8,FALSE,6,2,,,,,,,,,,,,,,,,,,
,,,,,,,,,,,html-keyboard-response,54,2.0.0,107369,64d53aae0f3f7317f6eb617e,4,22,null,,,,,,,,,<p style='font-size: 30px;'><strong>Okay</strong></p>,null,neutral_feedback,0,test,24,,,,,,,,,,,,,,,,,,,,,,,,
,,,,,,,,,,,html-button-response,55,2.0.0,109298,64d53aae0f3f7317f6eb617e,4,22,1928,,,,,,,,,"<img src= ""rock_img/I_Andesite_16.jpg"" style=""width:8cm; height:6.010000000000001cm;""><p>What type of rock is this?</p>",2,class_response,0,test,25,Diorite,Andesite,16,FALSE,3,1,,,,,,,,,,,,,,,,,,
,,,,,,,,,,,html-keyboard-response,56,2.0.0,109799,64d53aae0f3f7317f6eb617e,4,22,null,,,,,,,,,<p style='font-size: 30px;'><strong>Okay</strong></p>,null,neutral_feedback,0,test,25,,,,,,,,,,,,,,,,,,,,,,,,
,,,,,,,,,,,html-button-response,57,2.0.0,111434,64d53aae0f3f7317f6eb617e,4,22,1634,,,,,,,,,"<img src= ""rock_img/I_Diorite_11.jpg"" style=""width:8cm; height:7.11cm;""><p>What type of rock is this?</p>",0,class_response,0,test,26,Andesite,Diorite,11,FALSE,1,3,,,,,,,,,,,,,,,,,,
,,,,,,,,,,,html-keyboard-response,58,2.0.0,111934,64d53aae0f3f7317f6eb617e,4,22,null,,,,,,,,,<p style='font-size: 30px;'><strong>Okay</strong></p>,null,neutral_feedback,0,test,26,,,,,,,,,,,,,,,,,,,,,,,,
,,,,,,,,,,,html-button-response,59,2.0.0,112772,64d53aae0f3f7317f6eb617e,4,22,836,,,,,,,,,"<img src= ""rock_img/I_Peridotite_07.jpg"" style=""width:8cm; height:4.83cm;""><p>What type of rock is this?</p>",5,class_response,0,test,27,Pegmatite,Peridotite,7,FALSE,6,7,,,,,,,,,,,,,,,,,,
,,,,,,,,,,,html-keyboard-response,60,2.0.0,113273,64d53aae0f3f7317f6eb617e,4,22,null,,,,,,,,,<p style='font-size: 30px;'><strong>Okay</strong></p>,null,neutral_feedback,0,test,27,,,,,,,,,,,,,,,,,,,,,,,,
,,,,,,,,,,,html-button-response,61,2.0.0,114894,64d53aae0f3f7317f6eb617e,4,22,1619,,,,,,,,,"<img src= ""rock_img/I_Peridotite_16.jpg"" style=""width:8cm; height:6.989999999999999cm;""><p>What type of rock is this?</p>",4,class_response,0,test,28,Obsidian,Peridotite,16,FALSE,5,7,,,,,,,,,,,,,,,,,,
,,,,,,,,,,,html-keyboard-response,62,2.0.0,115395,64d53aae0f3f7317f6eb617e,4,22,null,,,,,,,,,<p style='font-size: 30px;'><strong>Okay</strong></p>,null,neutral_feedback,0,test,28,,,,,,,,,,,,,,,,,,,,,,,,
,,,,,,,,,,,html-button-response,63,2.0.0,116268,64d53aae0f3f7317f6eb617e,4,22,872,,,,,,,,,"<img src= ""rock_img/I_Peridotite_08.jpg"" style=""width:8cm; height:6.7cm;""><p>What type of rock is this?</p>",2,class_response,0,test,29,Diorite,Peridotite,8,FALSE,3,7,,,,,,,,,,,,,,,,,,
,,,,,,,,,,,html-keyboard-response,64,2.0.0,116768,64d53aae0f3f7317f6eb617e,4,22,null,,,,,,,,,<p style='font-size: 30px;'><strong>Okay</strong></p>,null,neutral_feedback,0,test,29,,,,,,,,,,,,,,,,,,,,,,,,
,,,,,,,,,,,html-button-response,65,2.0.0,117688,64d53aae0f3f7317f6eb617e,4,22,919,,,,,,,,,"<img src= ""rock_img/I_Basalt_05.jpg"" style=""width:8cm; height:8.18cm;""><p>What type of rock is this?</p>",3,class_response,0,test,30,Gabbro,Basalt,5,FALSE,4,2,,,,,,,,,,,,,,,,,,
,,,,,,,,,,,html-keyboard-response,66,2.0.0,118189,64d53aae0f3f7317f6eb617e,4,22,null,,,,,,,,,<p style='font-size: 30px;'><strong>Okay</strong></p>,null,neutral_feedback,0,test,30,,,,,,,,,,,,,,,,,,,,,,,,
,,,,,,,,,,,html-button-response,67,2.0.0,120198,64d53aae0f3f7317f6eb617e,4,22,2008,,,,,,,,,"<img src= ""rock_img/I_Obsidian_10.jpg"" style=""width:8cm; height:6.260000000000001cm;""><p>What type of rock is this?</p>",6,class_response,0,test,31,Peridotite,Obsidian,10,FALSE,7,5,,,,,,,,,,,,,,,,,,
,,,,,,,,,,,html-keyboard-response,68,2.0.0,120699,64d53aae0f3f7317f6eb617e,4,22,null,,,,,,,,,<p style='font-size: 30px;'><strong>Okay</strong></p>,null,neutral_feedback,0,test,31,,,,,,,,,,,,,,,,,,,,,,,,
,,,,,,,,,,,html-button-response,69,2.0.0,121774,64d53aae0f3f7317f6eb617e,4,22,1074,,,,,,,,,"<img src= ""rock_img/I_Pegmatite_16.jpg"" style=""width:8cm; height:5.8cm;""><p>What type of rock is this?</p>",5,class_response,0,test,32,Pegmatite,Pegmatite,16,TRUE,6,6,,,,,,,,,,,,,,,,,,
,,,,,,,,,,,html-keyboard-response,70,2.0.0,122275,64d53aae0f3f7317f6eb617e,4,22,null,,,,,,,,,<p style='font-size: 30px;'><strong>Okay</strong></p>,null,neutral_feedback,0,test,32,,,,,,,,,,,,,,,,,,,,,,,,
,,,,,,,,,,,html-button-response,71,2.0.0,123210,64d53aae0f3f7317f6eb617e,4,22,934,,,,,,,,,"<img src= ""rock_img/I_Peridotite_13.jpg"" style=""width:8cm; height:7.58cm;""><p>What type of rock is this?</p>",1,class_response,0,test,33,Basalt,Peridotite,13,FALSE,2,7,,,,,,,,,,,,,,,,,,
,,,,,,,,,,,html-keyboard-response,72,2.0.0,123711,64d53aae0f3f7317f6eb617e,4,22,null,,,,,,,,,<p style='font-size: 30px;'><strong>Okay</strong></p>,null,neutral_feedback,0,test,33,,,,,,,,,,,,,,,,,,,,,,,,
,,,,,,,,,,,html-button-response,73,2.0.0,125844,64d53aae0f3f7317f6eb617e,4,22,2132,,,,,,,,,"<img src= ""rock_img/I_Diorite_16.jpg"" style=""width:8cm; height:6.74cm;""><p>What type of rock is this?</p>",0,class_response,0,test,34,Andesite,Diorite,16,FALSE,1,3,,,,,,,,,,,,,,,,,,
,,,,,,,,,,,html-keyboard-response,74,2.0.0,126345,64d53aae0f3f7317f6eb617e,4,22,null,,,,,,,,,<p style='font-size: 30px;'><strong>Okay</strong></p>,null,neutral_feedback,0,test,34,,,,,,,,,,,,,,,,,,,,,,,,
,,,,,,,,,,,html-button-response,75,2.0.0,127720,64d53aae0f3f7317f6eb617e,4,22,1374,,,,,,,,,"<img src= ""rock_img/I_Obsidian_07.jpg"" style=""width:8cm; height:4.76cm;""><p>What type of rock is this?</p>",0,class_response,0,test,35,Andesite,Obsidian,7,FALSE,1,5,,,,,,,,,,,,,,,,,,
,,,,,,,,,,,html-keyboard-response,76,2.0.0,128222,64d53aae0f3f7317f6eb617e,4,22,null,,,,,,,,,<p style='font-size: 30px;'><strong>Okay</strong></p>,null,neutral_feedback,0,test,35,,,,,,,,,,,,,,,,,,,,,,,,
,,,,,,,,,,,html-button-response,77,2.0.0,129282,64d53aae0f3f7317f6eb617e,4,22,1059,,,,,,,,,"<img src= ""rock_img/I_Peridotite_02.jpg"" style=""width:8cm; height:5.859999999999999cm;""><p>What type of rock is this?</p>",2,class_response,0,test,36,Diorite,Peridotite,2,FALSE,3,7,,,,,,,,,,,,,,,,,,
,,,,,,,,,,,html-keyboard-response,78,2.0.0,129783,64d53aae0f3f7317f6eb617e,4,22,null,,,,,,,,,<p style='font-size: 30px;'><strong>Okay</strong></p>,null,neutral_feedback,0,test,36,,,,,,,,,,,,,,,,,,,,,,,,
,,,,,,,,,,,html-button-response,79,2.0.0,130960,64d53aae0f3f7317f6eb617e,4,22,1176,,,,,,,,,"<img src= ""rock_img/I_Obsidian_12.jpg"" style=""width:8cm; height:6.53cm;""><p>What type of rock is this?</p>",4,class_response,0,test,37,Obsidian,Obsidian,12,TRUE,5,5,,,,,,,,,,,,,,,,,,
,,,,,,,,,,,html-keyboard-response,80,2.0.0,131460,64d53aae0f3f7317f6eb617e,4,22,null,,,,,,,,,<p style='font-size: 30px;'><strong>Okay</strong></p>,null,neutral_feedback,0,test,37,,,,,,,,,,,,,,,,,,,,,,,,
,,,,,,,,,,,html-button-response,81,2.0.0,133328,64d53aae0f3f7317f6eb617e,4,22,1866,,,,,,,,,"<img src= ""rock_img/I_Gabbro_15.jpg"" style=""width:8cm; height:6.29cm;""><p>What type of rock is this?</p>",3,class_response,0,test,38,Gabbro,Gabbro,15,TRUE,4,4,,,,,,,,,,,,,,,,,,
,,,,,,,,,,,html-keyboard-response,82,2.0.0,133828,64d53aae0f3f7317f6eb617e,4,22,null,,,,,,,,,<p style='font-size: 30px;'><strong>Okay</strong></p>,null,neutral_feedback,0,test,38,,,,,,,,,,,,,,,,,,,,,,,,
,,,,,,,,,,,html-button-response,83,2.0.0,134474,64d53aae0f3f7317f6eb617e,4,22,644,,,,,,,,,"<img src= ""rock_img/I_Pumice_05.jpg"" style=""width:8cm; height:7.25cm;""><p>What type of rock is this?</p>",6,class_response,0,test,39,Peridotite,Pumice,5,FALSE,7,8,,,,,,,,,,,,,,,,,,
,,,,,,,,,,,html-keyboard-response,84,2.0.0,134975,64d53aae0f3f7317f6eb617e,4,22,null,,,,,,,,,<p style='font-size: 30px;'><strong>Okay</strong></p>,null,neutral_feedback,0,test,39,,,,,,,,,,,,,,,,,,,,,,,,
,,,,,,,,,,,html-button-response,85,2.0.0,136268,64d53aae0f3f7317f6eb617e,4,22,1292,,,,,,,,,"<img src= ""rock_img/I_Pumice_15.jpg"" style=""width:8cm; height:7.86cm;""><p>What type of rock is this?</p>",5,class_response,0,test,40,Pegmatite,Pumice,15,FALSE,6,8,,,,,,,,,,,,,,,,,,
,,,,,,,,,,,html-keyboard-response,86,2.0.0,136769,64d53aae0f3f7317f6eb617e,4,22,null,,,,,,,,,<p style='font-size: 30px;'><strong>Okay</strong></p>,null,neutral_feedback,0,test,40,,,,,,,,,,,,,,,,,,,,,,,,
,,,,,,,,,,,html-button-response,87,2.0.0,137866,64d53aae0f3f7317f6eb617e,4,22,1096,,,,,,,,,"<img src= ""rock_img/I_Diorite_12.jpg"" style=""width:8cm; height:4.88cm;""><p>What type of rock is this?</p>",1,class_response,0,test,41,Basalt,Diorite,12,FALSE,2,3,,,,,,,,,,,,,,,,,,
,,,,,,,,,,,html-keyboard-response,88,2.0.0,138366,64d53aae0f3f7317f6eb617e,4,22,null,,,,,,,,,<p style='font-size: 30px;'><strong>Okay</strong></p>,null,neutral_feedback,0,test,41,,,,,,,,,,,,,,,,,,,,,,,,
,,,,,,,,,,,html-button-response,89,2.0.0,139710,64d53aae0f3f7317f6eb617e,4,22,1342,,,,,,,,,"<img src= ""rock_img/I_Pegmatite_13.jpg"" style=""width:8cm; height:4.95cm;""><p>What type of rock is this?</p>",2,class_response,0,test,42,Diorite,Pegmatite,13,FALSE,3,6,,,,,,,,,,,,,,,,,,
,,,,,,,,,,,html-keyboard-response,90,2.0.0,140211,64d53aae0f3f7317f6eb617e,4,22,null,,,,,,,,,<p style='font-size: 30px;'><strong>Okay</strong></p>,null,neutral_feedback,0,test,42,,,,,,,,,,,,,,,,,,,,,,,,
,,,,,,,,,,,html-button-response,91,2.0.0,141428,64d53aae0f3f7317f6eb617e,4,22,1216,,,,,,,,,"<img src= ""rock_img/I_Andesite_03.jpg"" style=""width:8cm; height:5.73cm;""><p>What type of rock is this?</p>",4,class_response,0,test,43,Obsidian,Andesite,3,FALSE,5,1,,,,,,,,,,,,,,,,,,
,,,,,,,,,,,html-keyboard-response,92,2.0.0,141929,64d53aae0f3f7317f6eb617e,4,22,null,,,,,,,,,<p style='font-size: 30px;'><strong>Okay</strong></p>,null,neutral_feedback,0,test,43,,,,,,,,,,,,,,,,,,,,,,,,
,,,,,,,,,,,html-button-response,93,2.0.0,142912,64d53aae0f3f7317f6eb617e,4,22,981,,,,,,,,,"<img src= ""rock_img/I_Pegmatite_10.jpg"" style=""width:8cm; height:4.16cm;""><p>What type of rock is this?</p>",0,class_response,0,test,44,Andesite,Pegmatite,10,FALSE,1,6,,,,,,,,,,,,,,,,,,
,,,,,,,,,,,html-keyboard-response,94,2.0.0,143413,64d53aae0f3f7317f6eb617e,4,22,null,,,,,,,,,<p style='font-size: 30px;'><strong>Okay</strong></p>,null,neutral_feedback,0,test,44,,,,,,,,,,,,,,,,,,,,,,,,
,,,,,,,,,,,html-button-response,95,2.0.0,144242,64d53aae0f3f7317f6eb617e,4,22,828,,,,,,,,,"<img src= ""rock_img/I_Andesite_04.jpg"" style=""width:8cm; height:5.96cm;""><p>What type of rock is this?</p>",0,class_response,0,test,45,Andesite,Andesite,4,TRUE,1,1,,,,,,,,,,,,,,,,,,
,,,,,,,,,,,html-keyboard-response,96,2.0.0,144743,64d53aae0f3f7317f6eb617e,4,22,null,,,,,,,,,<p style='font-size: 30px;'><strong>Okay</strong></p>,null,neutral_feedback,0,test,45,,,,,,,,,,,,,,,,,,,,,,,,
,,,,,,,,,,,html-button-response,97,2.0.0,145302,64d53aae0f3f7317f6eb617e,4,22,558,,,,,,,,,"<img src= ""rock_img/I_Pegmatite_06.jpg"" style=""width:8cm; height:5.17cm;""><p>What type of rock is this?</p>",5,class_response,0,test,46,Pegmatite,Pegmatite,6,TRUE,6,6,,,,,,,,,,,,,,,,,,
,,,,,,,,,,,html-keyboard-response,98,2.0.0,145802,64d53aae0f3f7317f6eb617e,4,22,null,,,,,,,,,<p style='font-size: 30px;'><strong>Okay</strong></p>,null,neutral_feedback,0,test,46,,,,,,,,,,,,,,,,,,,,,,,,
,,,,,,,,,,,html-button-response,99,2.0.0,147600,64d53aae0f3f7317f6eb617e,4,22,1797,,,,,,,,,"<img src= ""rock_img/I_Gabbro_16.jpg"" style=""width:8cm; height:6.44cm;""><p>What type of rock is this?</p>",4,class_response,0,test,47,Obsidian,Gabbro,16,FALSE,5,4,,,,,,,,,,,,,,,,,,
,,,,,,,,,,,html-keyboard-response,100,2.0.0,148101,64d53aae0f3f7317f6eb617e,4,22,null,,,,,,,,,<p style='font-size: 30px;'><strong>Okay</strong></p>,null,neutral_feedback,0,test,47,,,,,,,,,,,,,,,,,,,,,,,,
,,,,,,,,,,,html-button-response,101,2.0.0,148942,64d53aae0f3f7317f6eb617e,4,22,840,,,,,,,,,"<img src= ""rock_img/I_Andesite_02.jpg"" style=""width:8cm; height:8.5cm;""><p>What type of rock is this?</p>",2,class_response,0,test,48,Diorite,Andesite,2,FALSE,3,1,,,,,,,,,,,,,,,,,,
,,,,,,,,,,,html-keyboard-response,102,2.0.0,149443,64d53aae0f3f7317f6eb617e,4,22,null,,,,,,,,,<p style='font-size: 30px;'><strong>Okay</strong></p>,null,neutral_feedback,0,test,48,,,,,,,,,,,,,,,,,,,,,,,,
,,,,,,,,,,,instructions,103,2.0.0,160612,64d53aae0f3f7317f6eb617e,4,22,11148,,,,,,,,"[{""page_index"":0,""viewing_time"":5626},{""page_index"":1,""viewing_time"":5522}]",,,,,,,,,,,,,,,,,,,,,,,,,,,,,,
,,,,,,,,,,,html-button-response,104,2.0.0,162758,64d53aae0f3f7317f6eb617e,4,22,2145,,,,,,,,,,0,start_train,,,,,,,,,,,,,,,,,,,,,,,,,,,
,,,,,,,,,,,html-button-response,106,2.0.0,166032,64d53aae0f3f7317f6eb617e,4,22,3273,,,,,,,,,"<img src= ""rock_img/I_Peridotite_05.jpg"" style=""width:8cm; height:7.1499999999999995cm;""><p>What type of rock is this?</p>",1,class_response,1,train,1,Basalt,Peridotite,5,FALSE,2,7,,,,,,,,,,,,,,,,,,
,,,,,,,,,,,html-button-response,107,2.0.0,169014,64d53aae0f3f7317f6eb617e,4,22,2981,,,,,,,,,"<img src= rock_img/I_Peridotite_05.jpg style=""width:8cm; height:7.1499999999999995cm;""><p style='font-size: 30px; color: red;'><strong>Incorrect!</strong></p><p style='font-size: 30px;'><strong>This rock is peridotite</strong></p>",0,corr_feedback,1,train,1,,,,,,,,,,,,,,,,,,,,,,,,
,,,,,,,,,,,html-button-response,108,2.0.0,170651,64d53aae0f3f7317f6eb617e,4,22,1637,,,,,,,,,"<img src= ""rock_img/I_Basalt_14.jpg"" style=""width:8cm; height:5.82cm;""><p>What type of rock is this?</p>",4,class_response,1,train,2,Obsidian,Basalt,14,FALSE,5,2,,,,,,,,,,,,,,,,,,
,,,,,,,,,,,html-button-response,109,2.0.0,172494,64d53aae0f3f7317f6eb617e,4,22,1841,,,,,,,,,"<img src= rock_img/I_Basalt_14.jpg style=""width:8cm; height:5.82cm;""><p style='font-size: 30px; color: red;'><strong>Incorrect!</strong></p><p style='font-size: 30px;'><strong>This rock is basalt</strong></p>",0,corr_feedback,1,train,2,,,,,,,,,,,,,,,,,,,,,,,,
,,,,,,,,,,,html-button-response,110,2.0.0,174792,64d53aae0f3f7317f6eb617e,4,22,2297,,,,,,,,,"<img src= ""rock_img/I_Pegmatite_15.jpg"" style=""width:8cm; height:6cm;""><p>What type of rock is this?</p>",3,class_response,1,train,3,Gabbro,Pegmatite,15,FALSE,4,6,,,,,,,,,,,,,,,,,,
,,,,,,,,,,,html-button-response,111,2.0.0,176514,64d53aae0f3f7317f6eb617e,4,22,1721,,,,,,,,,"<img src= rock_img/I_Pegmatite_15.jpg style=""width:8cm; height:6cm;""><p style='font-size: 30px; color: red;'><strong>Incorrect!</strong></p><p style='font-size: 30px;'><strong>This rock is pegmatite</strong></p>",0,corr_feedback,1,train,3,,,,,,,,,,,,,,,,,,,,,,,,
,,,,,,,,,,,html-button-response,112,2.0.0,178488,64d53aae0f3f7317f6eb617e,4,22,1973,,,,,,,,,"<img src= ""rock_img/I_Andesite_10.jpg"" style=""width:8cm; height:4.16cm;""><p>What type of rock is this?</p>",1,class_response,1,train,4,Basalt,Andesite,10,FALSE,2,1,,,,,,,,,,,,,,,,,,
,,,,,,,,,,,html-button-response,113,2.0.0,179988,64d53aae0f3f7317f6eb617e,4,22,1499,,,,,,,,,"<img src= rock_img/I_Andesite_10.jpg style=""width:8cm; height:4.16cm;""><p style='font-size: 30px; color: red;'><strong>Incorrect!</strong></p><p style='font-size: 30px;'><strong>This rock is andesite</strong></p>",0,corr_feedback,1,train,4,,,,,,,,,,,,,,,,,,,,,,,,
,,,,,,,,,,,html-button-response,114,2.0.0,181722,64d53aae0f3f7317f6eb617e,4,22,1733,,,,,,,,,"<img src= ""rock_img/I_Diorite_07.jpg"" style=""width:8cm; height:5.239999999999999cm;""><p>What type of rock is this?</p>",2,class_response,1,train,5,Diorite,Diorite,7,TRUE,3,3,,,,,,,,,,,,,,,,,,
,,,,,,,,,,,html-button-response,115,2.0.0,183219,64d53aae0f3f7317f6eb617e,4,22,1497,,,,,,,,,"<img src= rock_img/I_Diorite_07.jpg style=""width:8cm; height:5.239999999999999cm;""><p style='font-size: 30px; color: green;'><strong>Correct!</strong></p><p style='font-size: 30px;'><strong>This rock is diorite</strong></p>",0,corr_feedback,1,train,5,,,,,,,,,,,,,,,,,,,,,,,,
,,,,,,,,,,,html-button-response,116,2.0.0,185603,64d53aae0f3f7317f6eb617e,4,22,2383,,,,,,,,,"<img src= ""rock_img/I_Obsidian_06.jpg"" style=""width:8cm; height:6.8cm;""><p>What type of rock is this?</p>",4,class_response,1,train,6,Obsidian,Obsidian,6,TRUE,5,5,,,,,,,,,,,,,,,,,,
,,,,,,,,,,,html-button-response,117,2.0.0,187032,64d53aae0f3f7317f6eb617e,4,22,1427,,,,,,,,,"<img src= rock_img/I_Obsidian_06.jpg style=""width:8cm; height:6.8cm;""><p style='font-size: 30px; color: green;'><strong>Correct!</strong></p><p style='font-size: 30px;'><strong>This rock is obsidian</strong></p>",0,corr_feedback,1,train,6,,,,,,,,,,,,,,,,,,,,,,,,
,,,,,,,,,,,html-button-response,118,2.0.0,188632,64d53aae0f3f7317f6eb617e,4,22,1599,,,,,,,,,"<img src= ""rock_img/I_Pumice_03.jpg"" style=""width:8cm; height:6.64cm;""><p>What type of rock is this?</p>",7,class_response,1,train,7,Pumice,Pumice,3,TRUE,8,8,,,,,,,,,,,,,,,,,,
,,,,,,,,,,,html-button-response,119,2.0.0,189911,64d53aae0f3f7317f6eb617e,4,22,1279,,,,,,,,,"<img src= rock_img/I_Pumice_03.jpg style=""width:8cm; height:6.64cm;""><p style='font-size: 30px; color: green;'><strong>Correct!</strong></p><p style='font-size: 30px;'><strong>This rock is pumice</strong></p>",0,corr_feedback,1,train,7,,,,,,,,,,,,,,,,,,,,,,,,
,,,,,,,,,,,html-button-response,120,2.0.0,191850,64d53aae0f3f7317f6eb617e,4,22,1937,,,,,,,,,"<img src= ""rock_img/I_Gabbro_01.jpg"" style=""width:8cm; height:5.21cm;""><p>What type of rock is this?</p>",6,class_response,1,train,8,Peridotite,Gabbro,1,FALSE,7,4,,,,,,,,,,,,,,,,,,
,,,,,,,,,,,html-button-response,121,2.0.0,193097,64d53aae0f3f7317f6eb617e,4,22,1247,,,,,,,,,"<img src= rock_img/I_Gabbro_01.jpg style=""width:8cm; height:5.21cm;""><p style='font-size: 30px; color: red;'><strong>Incorrect!</strong></p><p style='font-size: 30px;'><strong>This rock is gabbro</strong></p>",0,corr_feedback,1,train,8,,,,,,,,,,,,,,,,,,,,,,,,
,,,,,,,,,,,html-button-response,122,2.0.0,194890,64d53aae0f3f7317f6eb617e,4,22,1791,,,,,,,,,"<img src= ""rock_img/I_Pegmatite_08.jpg"" style=""width:8cm; height:7.68cm;""><p>What type of rock is this?</p>",1,class_response,1,train,9,Basalt,Pegmatite,8,FALSE,2,6,,,,,,,,,,,,,,,,,,
,,,,,,,,,,,html-button-response,123,2.0.0,196210,64d53aae0f3f7317f6eb617e,4,22,1319,,,,,,,,,"<img src= rock_img/I_Pegmatite_08.jpg style=""width:8cm; height:7.68cm;""><p style='font-size: 30px; color: red;'><strong>Incorrect!</strong></p><p style='font-size: 30px;'><strong>This rock is pegmatite</strong></p>",0,corr_feedback,1,train,9,,,,,,,,,,,,,,,,,,,,,,,,
,,,,,,,,,,,html-button-response,124,2.0.0,197192,64d53aae0f3f7317f6eb617e,4,22,982,,,,,,,,,"<img src= ""rock_img/I_Obsidian_04.jpg"" style=""width:8cm; height:6.930000000000001cm;""><p>What type of rock is this?</p>",4,class_response,1,train,10,Obsidian,Obsidian,4,TRUE,5,5,,,,,,,,,,,,,,,,,,
,,,,,,,,,,,html-button-response,125,2.0.0,198342,64d53aae0f3f7317f6eb617e,4,22,1148,,,,,,,,,"<img src= rock_img/I_Obsidian_04.jpg style=""width:8cm; height:6.930000000000001cm;""><p style='font-size: 30px; color: green;'><strong>Correct!</strong></p><p style='font-size: 30px;'><strong>This rock is obsidian</strong></p>",0,corr_feedback,1,train,10,,,,,,,,,,,,,,,,,,,,,,,,
,,,,,,,,,,,html-button-response,126,2.0.0,199983,64d53aae0f3f7317f6eb617e,4,22,1641,,,,,,,,,"<img src= ""rock_img/I_Pumice_13.jpg"" style=""width:8cm; height:8.200000000000001cm;""><p>What type of rock is this?</p>",6,class_response,1,train,11,Peridotite,Pumice,13,FALSE,7,8,,,,,,,,,,,,,,,,,,
,,,,,,,,,,,html-button-response,127,2.0.0,201113,64d53aae0f3f7317f6eb617e,4,22,1129,,,,,,,,,"<img src= rock_img/I_Pumice_13.jpg style=""width:8cm; height:8.200000000000001cm;""><p style='font-size: 30px; color: red;'><strong>Incorrect!</strong></p><p style='font-size: 30px;'><strong>This rock is pumice</strong></p>",0,corr_feedback,1,train,11,,,,,,,,,,,,,,,,,,,,,,,,
,,,,,,,,,,,html-button-response,128,2.0.0,204074,64d53aae0f3f7317f6eb617e,4,22,2959,,,,,,,,,"<img src= ""rock_img/I_Diorite_13.jpg"" style=""width:8cm; height:6.29cm;""><p>What type of rock is this?</p>",0,class_response,1,train,12,Andesite,Diorite,13,FALSE,1,3,,,,,,,,,,,,,,,,,,
,,,,,,,,,,,html-button-response,129,2.0.0,205254,64d53aae0f3f7317f6eb617e,4,22,1179,,,,,,,,,"<img src= rock_img/I_Diorite_13.jpg style=""width:8cm; height:6.29cm;""><p style='font-size: 30px; color: red;'><strong>Incorrect!</strong></p><p style='font-size: 30px;'><strong>This rock is diorite</strong></p>",0,corr_feedback,1,train,12,,,,,,,,,,,,,,,,,,,,,,,,
,,,,,,,,,,,instructions,130,2.0.0,246337,64d53aae0f3f7317f6eb617e,4,22,41083,,,,,,,,"[{""page_index"":0,""viewing_time"":7675},{""page_index"":1,""viewing_time"":16784},{""page_index"":2,""viewing_time"":12718},{""page_index"":3,""viewing_time"":3906}]",,,,,,,,,,,,,,,,,,,,,,,,,,,,,,
,,,,,,,,,,,html-button-response,131,2.0.0,248755,64d53aae0f3f7317f6eb617e,4,22,2417,,,,,,,,,,0,start_train,,,,,,,,,,,,,,,,,,,,,,,,,,,
,,,,,,,,,,,html-button-response,132,2.0.0,254814,64d53aae0f3f7317f6eb617e,4,22,,,,,,,,,,,,cat_selection,1,train,1,,,,,,,3685.3,2371.9,6,7,Pegmatite,Peridotite,,,,,,,,,,,,
,,,,,,,,,,,paired-cat-display,133,1.0.0,296786,64d53aae0f3f7317f6eb617e,4,22,,,,,,,,,,,,paired_cat_display,1,train,1,,,,,,,,,,,,,big bold stripes and lines,speckled with long edges,10168,31801.7,,,,,,,,
,,,,,,,,,,,html-button-response,134,2.0.0,302018,64d53aae0f3f7317f6eb617e,4,22,,,,,,,,,,,,cat_selection,1,train,2,,,,,,,3506.7,1724.3,2,5,Basalt,Obsidian,,,,,,,,,,,,
,,,,,,,,,,,paired-cat-display,135,1.0.0,321068,64d53aae0f3f7317f6eb617e,4,22,,,,,,,,,,,,paired_cat_display,1,train,2,,,,,,,,,,,,,,,6204.2,12844.3,chalky grey and boring,black with bold accent colors,,,,,,
,,,,,,,,,,,html-button-response,136,2.0.0,325241,64d53aae0f3f7317f6eb617e,4,22,,,,,,,,,,,,cat_selection,1,train,3,,,,,,,2928.5,1244,4,3,Gabbro,Diorite,,,,,,,,,,,,
,,,,,,,,,,,paired-cat-display,137,1.0.0,349379,64d53aae0f3f7317f6eb617e,4,22,,,,,,,,,,,,paired_cat_display,1,train,3,,,,,,,,,,,,,,,7240.4,16895.7,,,not a polka dot pattern,polka dots pattern,,,,
,,,,,,,,,,,instructions,138,2.0.0,359647,64d53aae0f3f7317f6eb617e,4,22,10267,,,,,,,,"[{""page_index"":0,""viewing_time"":4931},{""page_index"":1,""viewing_time"":5336}]",,,,,,,,,,,,,,,,,,,,,,,,,,,,,,
,,,,,,,,,,,html-button-response,139,2.0.0,361645,64d53aae0f3f7317f6eb617e,4,22,1997,,,,,,,,,,0,start_test,,,,,,,,,,,,,,,,,,,,,,,,,,,
,,,,,,,,,,,html-button-response,140,2.0.0,368091,64d53aae0f3f7317f6eb617e,4,22,6445,,,,,,,,,"<img src= ""rock_img/I_Pegmatite_03.jpg"" style=""width:8cm; height:5.239999999999999cm;""><p>What type of rock is this?</p>",5,class_response,1,test,1,Pegmatite,Pegmatite,3,TRUE,6,6,,,,,,,,,,,,,,,,,,
,,,,,,,,,,,html-keyboard-response,141,2.0.0,368593,64d53aae0f3f7317f6eb617e,4,22,null,,,,,,,,,<p style='font-size: 30px;'><strong>Okay</strong></p>,null,neutral_feedback,1,test,1,,,,,,,,,,,,,,,,,,,,,,,,
,,,,,,,,,,,html-button-response,142,2.0.0,377007,64d53aae0f3f7317f6eb617e,4,22,8413,,,,,,,,,"<img src= ""rock_img/I_Andesite_04.jpg"" style=""width:8cm; height:5.96cm;""><p>What type of rock is this?</p>",2,class_response,1,test,2,Diorite,Andesite,4,FALSE,3,1,,,,,,,,,,,,,,,,,,
,,,,,,,,,,,html-keyboard-response,143,2.0.0,377509,64d53aae0f3f7317f6eb617e,4,22,null,,,,,,,,,<p style='font-size: 30px;'><strong>Okay</strong></p>,null,neutral_feedback,1,test,2,,,,,,,,,,,,,,,,,,,,,,,,
,,,,,,,,,,,html-button-response,144,2.0.0,379757,64d53aae0f3f7317f6eb617e,4,22,2247,,,,,,,,,"<img src= ""rock_img/I_Pumice_02.jpg"" style=""width:8cm; height:7.3999999999999995cm;""><p>What type of rock is this?</p>",7,class_response,1,test,3,Pumice,Pumice,2,TRUE,8,8,,,,,,,,,,,,,,,,,,
,,,,,,,,,,,html-keyboard-response,145,2.0.0,380258,64d53aae0f3f7317f6eb617e,4,22,null,,,,,,,,,<p style='font-size: 30px;'><strong>Okay</strong></p>,null,neutral_feedback,1,test,3,,,,,,,,,,,,,,,,,,,,,,,,
,,,,,,,,,,,html-button-response,146,2.0.0,381633,64d53aae0f3f7317f6eb617e,4,22,1374,,,,,,,,,"<img src= ""rock_img/I_Basalt_06.jpg"" style=""width:8cm; height:7.06cm;""><p>What type of rock is this?</p>",4,class_response,1,test,4,Obsidian,Basalt,6,FALSE,5,2,,,,,,,,,,,,,,,,,,
,,,,,,,,,,,html-keyboard-response,147,2.0.0,382134,64d53aae0f3f7317f6eb617e,4,22,null,,,,,,,,,<p style='font-size: 30px;'><strong>Okay</strong></p>,null,neutral_feedback,1,test,4,,,,,,,,,,,,,,,,,,,,,,,,
,,,,,,,,,,,html-button-response,148,2.0.0,389625,64d53aae0f3f7317f6eb617e,4,22,7490,,,,,,,,,"<img src= ""rock_img/I_Andesite_06.jpg"" style=""width:8cm; height:6.840000000000001cm;""><p>What type of rock is this?</p>",3,class_response,1,test,5,Gabbro,Andesite,6,FALSE,4,1,,,,,,,,,,,,,,,,,,
,,,,,,,,,,,html-keyboard-response,149,2.0.0,390127,64d53aae0f3f7317f6eb617e,4,22,null,,,,,,,,,<p style='font-size: 30px;'><strong>Okay</strong></p>,null,neutral_feedback,1,test,5,,,,,,,,,,,,,,,,,,,,,,,,
,,,,,,,,,,,html-button-response,150,2.0.0,392405,64d53aae0f3f7317f6eb617e,4,22,2277,,,,,,,,,"<img src= ""rock_img/I_Gabbro_15.jpg"" style=""width:8cm; height:6.29cm;""><p>What type of rock is this?</p>",4,class_response,1,test,6,Obsidian,Gabbro,15,FALSE,5,4,,,,,,,,,,,,,,,,,,
,,,,,,,,,,,html-keyboard-response,151,2.0.0,392907,64d53aae0f3f7317f6eb617e,4,22,null,,,,,,,,,<p style='font-size: 30px;'><strong>Okay</strong></p>,null,neutral_feedback,1,test,6,,,,,,,,,,,,,,,,,,,,,,,,
,,,,,,,,,,,html-button-response,152,2.0.0,394675,64d53aae0f3f7317f6eb617e,4,22,1768,,,,,,,,,"<img src= ""rock_img/I_Gabbro_03.jpg"" style=""width:8cm; height:8.52cm;""><p>What type of rock is this?</p>",1,class_response,1,test,7,Basalt,Gabbro,3,FALSE,2,4,,,,,,,,,,,,,,,,,,
,,,,,,,,,,,html-keyboard-response,153,2.0.0,395177,64d53aae0f3f7317f6eb617e,4,22,null,,,,,,,,,<p style='font-size: 30px;'><strong>Okay</strong></p>,null,neutral_feedback,1,test,7,,,,,,,,,,,,,,,,,,,,,,,,
,,,,,,,,,,,html-button-response,154,2.0.0,396953,64d53aae0f3f7317f6eb617e,4,22,1775,,,,,,,,,"<img src= ""rock_img/I_Peridotite_12.jpg"" style=""width:8cm; height:4.54cm;""><p>What type of rock is this?</p>",1,class_response,1,test,8,Basalt,Peridotite,12,FALSE,2,7,,,,,,,,,,,,,,,,,,
,,,,,,,,,,,html-keyboard-response,155,2.0.0,397455,64d53aae0f3f7317f6eb617e,4,22,null,,,,,,,,,<p style='font-size: 30px;'><strong>Okay</strong></p>,null,neutral_feedback,1,test,8,,,,,,,,,,,,,,,,,,,,,,,,
,,,,,,,,,,,html-button-response,156,2.0.0,399283,64d53aae0f3f7317f6eb617e,4,22,1827,,,,,,,,,"<img src= ""rock_img/I_Peridotite_08.jpg"" style=""width:8cm; height:6.7cm;""><p>What type of rock is this?</p>",7,class_response,1,test,9,Pumice,Peridotite,8,FALSE,8,7,,,,,,,,,,,,,,,,,,
,,,,,,,,,,,html-keyboard-response,157,2.0.0,399785,64d53aae0f3f7317f6eb617e,4,22,null,,,,,,,,,<p style='font-size: 30px;'><strong>Okay</strong></p>,null,neutral_feedback,1,test,9,,,,,,,,,,,,,,,,,,,,,,,,
,,,,,,,,,,,html-button-response,158,2.0.0,402711,64d53aae0f3f7317f6eb617e,4,22,2925,,,,,,,,,"<img src= ""rock_img/I_Basalt_16.jpg"" style=""width:8cm; height:7.659999999999999cm;""><p>What type of rock is this?</p>",2,class_response,1,test,10,Diorite,Basalt,16,FALSE,3,2,,,,,,,,,,,,,,,,,,
,,,,,,,,,,,html-keyboard-response,159,2.0.0,403213,64d53aae0f3f7317f6eb617e,4,22,null,,,,,,,,,<p style='font-size: 30px;'><strong>Okay</strong></p>,null,neutral_feedback,1,test,10,,,,,,,,,,,,,,,,,,,,,,,,
,,,,,,,,,,,html-button-response,160,2.0.0,405041,64d53aae0f3f7317f6eb617e,4,22,1828,,,,,,,,,"<img src= ""rock_img/I_Pumice_05.jpg"" style=""width:8cm; height:7.25cm;""><p>What type of rock is this?</p>",7,class_response,1,test,11,Pumice,Pumice,5,TRUE,8,8,,,,,,,,,,,,,,,,,,
,,,,,,,,,,,html-keyboard-response,161,2.0.0,405542,64d53aae0f3f7317f6eb617e,4,22,null,,,,,,,,,<p style='font-size: 30px;'><strong>Okay</strong></p>,null,neutral_feedback,1,test,11,,,,,,,,,,,,,,,,,,,,,,,,
,,,,,,,,,,,html-button-response,162,2.0.0,407097,64d53aae0f3f7317f6eb617e,4,22,1554,,,,,,,,,"<img src= ""rock_img/I_Diorite_16.jpg"" style=""width:8cm; height:6.74cm;""><p>What type of rock is this?</p>",0,class_response,1,test,12,Andesite,Diorite,16,FALSE,1,3,,,,,,,,,,,,,,,,,,
,,,,,,,,,,,html-keyboard-response,163,2.0.0,407599,64d53aae0f3f7317f6eb617e,4,22,null,,,,,,,,,<p style='font-size: 30px;'><strong>Okay</strong></p>,null,neutral_feedback,1,test,12,,,,,,,,,,,,,,,,,,,,,,,,
,,,,,,,,,,,html-button-response,164,2.0.0,408939,64d53aae0f3f7317f6eb617e,4,22,1339,,,,,,,,,"<img src= ""rock_img/I_Obsidian_11.jpg"" style=""width:8cm; height:6.05cm;""><p>What type of rock is this?</p>",4,class_response,1,test,13,Obsidian,Obsidian,11,TRUE,5,5,,,,,,,,,,,,,,,,,,
,,,,,,,,,,,html-keyboard-response,165,2.0.0,409441,64d53aae0f3f7317f6eb617e,4,22,null,,,,,,,,,<p style='font-size: 30px;'><strong>Okay</strong></p>,null,neutral_feedback,1,test,13,,,,,,,,,,,,,,,,,,,,,,,,
,,,,,,,,,,,html-button-response,166,2.0.0,411381,64d53aae0f3f7317f6eb617e,4,22,1939,,,,,,,,,"<img src= ""rock_img/I_Diorite_15.jpg"" style=""width:8cm; height:5.54cm;""><p>What type of rock is this?</p>",5,class_response,1,test,14,Pegmatite,Diorite,15,FALSE,6,3,,,,,,,,,,,,,,,,,,
,,,,,,,,,,,html-keyboard-response,167,2.0.0,411883,64d53aae0f3f7317f6eb617e,4,22,null,,,,,,,,,<p style='font-size: 30px;'><strong>Okay</strong></p>,null,neutral_feedback,1,test,14,,,,,,,,,,,,,,,,,,,,,,,,
,,,,,,,,,,,html-button-response,168,2.0.0,413527,64d53aae0f3f7317f6eb617e,4,22,1643,,,,,,,,,"<img src= ""rock_img/I_Basalt_05.jpg"" style=""width:8cm; height:8.18cm;""><p>What type of rock is this?</p>",4,class_response,1,test,15,Obsidian,Basalt,5,FALSE,5,2,,,,,,,,,,,,,,,,,,
,,,,,,,,,,,html-keyboard-response,169,2.0.0,414029,64d53aae0f3f7317f6eb617e,4,22,null,,,,,,,,,<p style='font-size: 30px;'><strong>Okay</strong></p>,null,neutral_feedback,1,test,15,,,,,,,,,,,,,,,,,,,,,,,,
,,,,,,,,,,,html-button-response,170,2.0.0,416161,64d53aae0f3f7317f6eb617e,4,22,2131,,,,,,,,,"<img src= ""rock_img/I_Pegmatite_16.jpg"" style=""width:8cm; height:5.8cm;""><p>What type of rock is this?</p>",5,class_response,1,test,16,Pegmatite,Pegmatite,16,TRUE,6,6,,,,,,,,,,,,,,,,,,
,,,,,,,,,,,html-keyboard-response,171,2.0.0,416663,64d53aae0f3f7317f6eb617e,4,22,null,,,,,,,,,<p style='font-size: 30px;'><strong>Okay</strong></p>,null,neutral_feedback,1,test,16,,,,,,,,,,,,,,,,,,,,,,,,
,,,,,,,,,,,html-button-response,172,2.0.0,420157,64d53aae0f3f7317f6eb617e,4,22,3494,,,,,,,,,"<img src= ""rock_img/I_Peridotite_13.jpg"" style=""width:8cm; height:7.58cm;""><p>What type of rock is this?</p>",1,class_response,1,test,17,Basalt,Peridotite,13,FALSE,2,7,,,,,,,,,,,,,,,,,,
,,,,,,,,,,,html-keyboard-response,173,2.0.0,420659,64d53aae0f3f7317f6eb617e,4,22,null,,,,,,,,,<p style='font-size: 30px;'><strong>Okay</strong></p>,null,neutral_feedback,1,test,17,,,,,,,,,,,,,,,,,,,,,,,,
,,,,,,,,,,,html-button-response,174,2.0.0,423213,64d53aae0f3f7317f6eb617e,4,22,2553,,,,,,,,,"<img src= ""rock_img/I_Peridotite_07.jpg"" style=""width:8cm; height:4.83cm;""><p>What type of rock is this?</p>",1,class_response,1,test,18,Basalt,Peridotite,7,FALSE,2,7,,,,,,,,,,,,,,,,,,
,,,,,,,,,,,html-keyboard-response,175,2.0.0,423715,64d53aae0f3f7317f6eb617e,4,22,null,,,,,,,,,<p style='font-size: 30px;'><strong>Okay</strong></p>,null,neutral_feedback,1,test,18,,,,,,,,,,,,,,,,,,,,,,,,
,,,,,,,,,,,html-button-response,176,2.0.0,424987,64d53aae0f3f7317f6eb617e,4,22,1271,,,,,,,,,"<img src= ""rock_img/I_Obsidian_02.jpg"" style=""width:8cm; height:7.51cm;""><p>What type of rock is this?</p>",4,class_response,1,test,19,Obsidian,Obsidian,2,TRUE,5,5,,,,,,,,,,,,,,,,,,
,,,,,,,,,,,html-keyboard-response,177,2.0.0,425488,64d53aae0f3f7317f6eb617e,4,22,null,,,,,,,,,<p style='font-size: 30px;'><strong>Okay</strong></p>,null,neutral_feedback,1,test,19,,,,,,,,,,,,,,,,,,,,,,,,
,,,,,,,,,,,html-button-response,178,2.0.0,426939,64d53aae0f3f7317f6eb617e,4,22,1450,,,,,,,,,"<img src= ""rock_img/I_Gabbro_11.jpg"" style=""width:8cm; height:6.2cm;""><p>What type of rock is this?</p>",1,class_response,1,test,20,Basalt,Gabbro,11,FALSE,2,4,,,,,,,,,,,,,,,,,,
,,,,,,,,,,,html-keyboard-response,179,2.0.0,427441,64d53aae0f3f7317f6eb617e,4,22,null,,,,,,,,,<p style='font-size: 30px;'><strong>Okay</strong></p>,null,neutral_feedback,1,test,20,,,,,,,,,,,,,,,,,,,,,,,,
,,,,,,,,,,,html-button-response,180,2.0.0,428741,64d53aae0f3f7317f6eb617e,4,22,1299,,,,,,,,,"<img src= ""rock_img/I_Diorite_08.jpg"" style=""width:8cm; height:6.37cm;""><p>What type of rock is this?</p>",0,class_response,1,test,21,Andesite,Diorite,8,FALSE,1,3,,,,,,,,,,,,,,,,,,
,,,,,,,,,,,html-keyboard-response,181,2.0.0,429242,64d53aae0f3f7317f6eb617e,4,22,null,,,,,,,,,<p style='font-size: 30px;'><strong>Okay</strong></p>,null,neutral_feedback,1,test,21,,,,,,,,,,,,,,,,,,,,,,,,
,,,,,,,,,,,html-button-response,182,2.0.0,432123,64d53aae0f3f7317f6eb617e,4,22,2880,,,,,,,,,"<img src= ""rock_img/I_Gabbro_16.jpg"" style=""width:8cm; height:6.44cm;""><p>What type of rock is this?</p>",1,class_response,1,test,22,Basalt,Gabbro,16,FALSE,2,4,,,,,,,,,,,,,,,,,,
,,,,,,,,,,,html-keyboard-response,183,2.0.0,432625,64d53aae0f3f7317f6eb617e,4,22,null,,,,,,,,,<p style='font-size: 30px;'><strong>Okay</strong></p>,null,neutral_feedback,1,test,22,,,,,,,,,,,,,,,,,,,,,,,,
,,,,,,,,,,,html-button-response,184,2.0.0,434103,64d53aae0f3f7317f6eb617e,4,22,1477,,,,,,,,,"<img src= ""rock_img/I_Pumice_15.jpg"" style=""width:8cm; height:7.86cm;""><p>What type of rock is this?</p>",7,class_response,1,test,23,Pumice,Pumice,15,TRUE,8,8,,,,,,,,,,,,,,,,,,
,,,,,,,,,,,html-keyboard-response,185,2.0.0,434604,64d53aae0f3f7317f6eb617e,4,22,null,,,,,,,,,<p style='font-size: 30px;'><strong>Okay</strong></p>,null,neutral_feedback,1,test,23,,,,,,,,,,,,,,,,,,,,,,,,
,,,,,,,,,,,html-button-response,186,2.0.0,435425,64d53aae0f3f7317f6eb617e,4,22,820,,,,,,,,,"<img src= ""rock_img/I_Pumice_09.jpg"" style=""width:8cm; height:6.44cm;""><p>What type of rock is this?</p>",7,class_response,1,test,24,Pumice,Pumice,9,TRUE,8,8,,,,,,,,,,,,,,,,,,
,,,,,,,,,,,html-keyboard-response,187,2.0.0,435927,64d53aae0f3f7317f6eb617e,4,22,null,,,,,,,,,<p style='font-size: 30px;'><strong>Okay</strong></p>,null,neutral_feedback,1,test,24,,,,,,,,,,,,,,,,,,,,,,,,
,,,,,,,,,,,html-button-response,188,2.0.0,438047,64d53aae0f3f7317f6eb617e,4,22,2119,,,,,,,,,"<img src= ""rock_img/I_Peridotite_16.jpg"" style=""width:8cm; height:6.989999999999999cm;""><p>What type of rock is this?</p>",6,class_response,1,test,25,Peridotite,Peridotite,16,TRUE,7,7,,,,,,,,,,,,,,,,,,
,,,,,,,,,,,html-keyboard-response,189,2.0.0,438548,64d53aae0f3f7317f6eb617e,4,22,null,,,,,,,,,<p style='font-size: 30px;'><strong>Okay</strong></p>,null,neutral_feedback,1,test,25,,,,,,,,,,,,,,,,,,,,,,,,
,,,,,,,,,,,html-button-response,190,2.0.0,440569,64d53aae0f3f7317f6eb617e,4,22,2020,,,,,,,,,"<img src= ""rock_img/I_Andesite_02.jpg"" style=""width:8cm; height:8.5cm;""><p>What type of rock is this?</p>",3,class_response,1,test,26,Gabbro,Andesite,2,FALSE,4,1,,,,,,,,,,,,,,,,,,
,,,,,,,,,,,html-keyboard-response,191,2.0.0,441071,64d53aae0f3f7317f6eb617e,4,22,null,,,,,,,,,<p style='font-size: 30px;'><strong>Okay</strong></p>,null,neutral_feedback,1,test,26,,,,,,,,,,,,,,,,,,,,,,,,
,,,,,,,,,,,html-button-response,192,2.0.0,442091,64d53aae0f3f7317f6eb617e,4,22,1019,,,,,,,,,"<img src= ""rock_img/I_Obsidian_14.jpg"" style=""width:8cm; height:7.64cm;""><p>What type of rock is this?</p>",4,class_response,1,test,27,Obsidian,Obsidian,14,TRUE,5,5,,,,,,,,,,,,,,,,,,
,,,,,,,,,,,html-keyboard-response,193,2.0.0,442592,64d53aae0f3f7317f6eb617e,4,22,null,,,,,,,,,<p style='font-size: 30px;'><strong>Okay</strong></p>,null,neutral_feedback,1,test,27,,,,,,,,,,,,,,,,,,,,,,,,
,,,,,,,,,,,html-button-response,194,2.0.0,443937,64d53aae0f3f7317f6eb617e,4,22,1345,,,,,,,,,"<img src= ""rock_img/I_Diorite_11.jpg"" style=""width:8cm; height:7.11cm;""><p>What type of rock is this?</p>",1,class_response,1,test,28,Basalt,Diorite,11,FALSE,2,3,,,,,,,,,,,,,,,,,,
,,,,,,,,,,,html-keyboard-response,195,2.0.0,444440,64d53aae0f3f7317f6eb617e,4,22,null,,,,,,,,,<p style='font-size: 30px;'><strong>Okay</strong></p>,null,neutral_feedback,1,test,28,,,,,,,,,,,,,,,,,,,,,,,,
,,,,,,,,,,,html-button-response,196,2.0.0,445509,64d53aae0f3f7317f6eb617e,4,22,1068,,,,,,,,,"<img src= ""rock_img/I_Obsidian_07.jpg"" style=""width:8cm; height:4.76cm;""><p>What type of rock is this?</p>",4,class_response,1,test,29,Obsidian,Obsidian,7,TRUE,5,5,,,,,,,,,,,,,,,,,,
,,,,,,,,,,,html-keyboard-response,197,2.0.0,446011,64d53aae0f3f7317f6eb617e,4,22,null,,,,,,,,,<p style='font-size: 30px;'><strong>Okay</strong></p>,null,neutral_feedback,1,test,29,,,,,,,,,,,,,,,,,,,,,,,,
,,,,,,,,,,,html-button-response,198,2.0.0,447749,64d53aae0f3f7317f6eb617e,4,22,1737,,,,,,,,,"<img src= ""rock_img/I_Gabbro_09.jpg"" style=""width:8cm; height:7.279999999999999cm;""><p>What type of rock is this?</p>",5,class_response,1,test,30,Pegmatite,Gabbro,9,FALSE,6,4,,,,,,,,,,,,,,,,,,
,,,,,,,,,,,html-keyboard-response,199,2.0.0,448251,64d53aae0f3f7317f6eb617e,4,22,null,,,,,,,,,<p style='font-size: 30px;'><strong>Okay</strong></p>,null,neutral_feedback,1,test,30,,,,,,,,,,,,,,,,,,,,,,,,
,,,,,,,,,,,html-button-response,200,2.0.0,449509,64d53aae0f3f7317f6eb617e,4,22,1257,,,,,,,,,"<img src= ""rock_img/I_Andesite_14.jpg"" style=""width:8cm; height:5.449999999999999cm;""><p>What type of rock is this?</p>",6,class_response,1,test,31,Peridotite,Andesite,14,FALSE,7,1,,,,,,,,,,,,,,,,,,
,,,,,,,,,,,html-keyboard-response,201,2.0.0,450010,64d53aae0f3f7317f6eb617e,4,22,null,,,,,,,,,<p style='font-size: 30px;'><strong>Okay</strong></p>,null,neutral_feedback,1,test,31,,,,,,,,,,,,,,,,,,,,,,,,
,,,,,,,,,,,html-button-response,202,2.0.0,451107,64d53aae0f3f7317f6eb617e,4,22,1096,,,,,,,,,"<img src= ""rock_img/I_Pumice_04.jpg"" style=""width:8cm; height:6.819999999999999cm;""><p>What type of rock is this?</p>",7,class_response,1,test,32,Pumice,Pumice,4,TRUE,8,8,,,,,,,,,,,,,,,,,,
,,,,,,,,,,,html-keyboard-response,203,2.0.0,451609,64d53aae0f3f7317f6eb617e,4,22,null,,,,,,,,,<p style='font-size: 30px;'><strong>Okay</strong></p>,null,neutral_feedback,1,test,32,,,,,,,,,,,,,,,,,,,,,,,,
,,,,,,,,,,,html-button-response,204,2.0.0,453235,64d53aae0f3f7317f6eb617e,4,22,1625,,,,,,,,,"<img src= ""rock_img/I_Pegmatite_13.jpg"" style=""width:8cm; height:4.95cm;""><p>What type of rock is this?</p>",0,class_response,1,test,33,Andesite,Pegmatite,13,FALSE,1,6,,,,,,,,,,,,,,,,,,
,,,,,,,,,,,html-keyboard-response,205,2.0.0,453737,64d53aae0f3f7317f6eb617e,4,22,null,,,,,,,,,<p style='font-size: 30px;'><strong>Okay</strong></p>,null,neutral_feedback,1,test,33,,,,,,,,,,,,,,,,,,,,,,,,
,,,,,,,,,,,html-button-response,206,2.0.0,454861,64d53aae0f3f7317f6eb617e,4,22,1123,,,,,,,,,"<img src= ""rock_img/I_Peridotite_02.jpg"" style=""width:8cm; height:5.859999999999999cm;""><p>What type of rock is this?</p>",1,class_response,1,test,34,Basalt,Peridotite,2,FALSE,2,7,,,,,,,,,,,,,,,,,,
,,,,,,,,,,,html-keyboard-response,207,2.0.0,455363,64d53aae0f3f7317f6eb617e,4,22,null,,,,,,,,,<p style='font-size: 30px;'><strong>Okay</strong></p>,null,neutral_feedback,1,test,34,,,,,,,,,,,,,,,,,,,,,,,,
,,,,,,,,,,,html-button-response,208,2.0.0,456647,64d53aae0f3f7317f6eb617e,4,22,1283,,,,,,,,,"<img src= ""rock_img/I_Obsidian_10.jpg"" style=""width:8cm; height:6.260000000000001cm;""><p>What type of rock is this?</p>",4,class_response,1,test,35,Obsidian,Obsidian,10,TRUE,5,5,,,,,,,,,,,,,,,,,,
,,,,,,,,,,,html-keyboard-response,209,2.0.0,457149,64d53aae0f3f7317f6eb617e,4,22,null,,,,,,,,,<p style='font-size: 30px;'><strong>Okay</strong></p>,null,neutral_feedback,1,test,35,,,,,,,,,,,,,,,,,,,,,,,,
,,,,,,,,,,,html-button-response,210,2.0.0,458958,64d53aae0f3f7317f6eb617e,4,22,1807,,,,,,,,,"<img src= ""rock_img/I_Diorite_14.jpg"" style=""width:8cm; height:5.71cm;""><p>What type of rock is this?</p>",5,class_response,1,test,36,Pegmatite,Diorite,14,FALSE,6,3,,,,,,,,,,,,,,,,,,
,,,,,,,,,,,html-keyboard-response,211,2.0.0,459460,64d53aae0f3f7317f6eb617e,4,22,null,,,,,,,,,<p style='font-size: 30px;'><strong>Okay</strong></p>,null,neutral_feedback,1,test,36,,,,,,,,,,,,,,,,,,,,,,,,
,,,,,,,,,,,html-button-response,212,2.0.0,461193,64d53aae0f3f7317f6eb617e,4,22,1732,,,,,,,,,"<img src= ""rock_img/I_Basalt_08.jpg"" style=""width:8cm; height:10.44cm;""><p>What type of rock is this?</p>",4,class_response,1,test,37,Obsidian,Basalt,8,FALSE,5,2,,,,,,,,,,,,,,,,,,
,,,,,,,,,,,html-keyboard-response,213,2.0.0,461695,64d53aae0f3f7317f6eb617e,4,22,null,,,,,,,,,<p style='font-size: 30px;'><strong>Okay</strong></p>,null,neutral_feedback,1,test,37,,,,,,,,,,,,,,,,,,,,,,,,
,,,,,,,,,,,html-button-response,214,2.0.0,463205,64d53aae0f3f7317f6eb617e,4,22,1509,,,,,,,,,"<img src= ""rock_img/I_Andesite_03.jpg"" style=""width:8cm; height:5.73cm;""><p>What type of rock is this?</p>",1,class_response,1,test,38,Basalt,Andesite,3,FALSE,2,1,,,,,,,,,,,,,,,,,,
,,,,,,,,,,,html-keyboard-response,215,2.0.0,463707,64d53aae0f3f7317f6eb617e,4,22,null,,,,,,,,,<p style='font-size: 30px;'><strong>Okay</strong></p>,null,neutral_feedback,1,test,38,,,,,,,,,,,,,,,,,,,,,,,,
,,,,,,,,,,,html-button-response,216,2.0.0,464835,64d53aae0f3f7317f6eb617e,4,22,1127,,,,,,,,,"<img src= ""rock_img/I_Obsidian_12.jpg"" style=""width:8cm; height:6.53cm;""><p>What type of rock is this?</p>",4,class_response,1,test,39,Obsidian,Obsidian,12,TRUE,5,5,,,,,,,,,,,,,,,,,,
,,,,,,,,,,,html-keyboard-response,217,2.0.0,465336,64d53aae0f3f7317f6eb617e,4,22,null,,,,,,,,,<p style='font-size: 30px;'><strong>Okay</strong></p>,null,neutral_feedback,1,test,39,,,,,,,,,,,,,,,,,,,,,,,,
,,,,,,,,,,,html-button-response,218,2.0.0,467195,64d53aae0f3f7317f6eb617e,4,22,1858,,,,,,,,,"<img src= ""rock_img/I_Basalt_10.jpg"" style=""width:8cm; height:5.85cm;""><p>What type of rock is this?</p>",2,class_response,1,test,40,Diorite,Basalt,10,FALSE,3,2,,,,,,,,,,,,,,,,,,
,,,,,,,,,,,html-keyboard-response,219,2.0.0,467696,64d53aae0f3f7317f6eb617e,4,22,null,,,,,,,,,<p style='font-size: 30px;'><strong>Okay</strong></p>,null,neutral_feedback,1,test,40,,,,,,,,,,,,,,,,,,,,,,,,
,,,,,,,,,,,html-button-response,220,2.0.0,469147,64d53aae0f3f7317f6eb617e,4,22,1450,,,,,,,,,"<img src= ""rock_img/I_Pegmatite_06.jpg"" style=""width:8cm; height:5.17cm;""><p>What type of rock is this?</p>",6,class_response,1,test,41,Peridotite,Pegmatite,6,FALSE,7,6,,,,,,,,,,,,,,,,,,
,,,,,,,,,,,html-keyboard-response,221,2.0.0,469649,64d53aae0f3f7317f6eb617e,4,22,null,,,,,,,,,<p style='font-size: 30px;'><strong>Okay</strong></p>,null,neutral_feedback,1,test,41,,,,,,,,,,,,,,,,,,,,,,,,
,,,,,,,,,,,html-button-response,222,2.0.0,471197,64d53aae0f3f7317f6eb617e,4,22,1547,,,,,,,,,"<img src= ""rock_img/I_Pegmatite_11.jpg"" style=""width:8cm; height:8.14cm;""><p>What type of rock is this?</p>",5,class_response,1,test,42,Pegmatite,Pegmatite,11,TRUE,6,6,,,,,,,,,,,,,,,,,,
,,,,,,,,,,,html-keyboard-response,223,2.0.0,471698,64d53aae0f3f7317f6eb617e,4,22,null,,,,,,,,,<p style='font-size: 30px;'><strong>Okay</strong></p>,null,neutral_feedback,1,test,42,,,,,,,,,,,,,,,,,,,,,,,,
,,,,,,,,,,,html-button-response,224,2.0.0,473037,64d53aae0f3f7317f6eb617e,4,22,1338,,,,,,,,,"<img src= ""rock_img/I_Basalt_04.jpg"" style=""width:8cm; height:7.53cm;""><p>What type of rock is this?</p>",4,class_response,1,test,43,Obsidian,Basalt,4,FALSE,5,2,,,,,,,,,,,,,,,,,,
,,,,,,,,,,,html-keyboard-response,225,2.0.0,473538,64d53aae0f3f7317f6eb617e,4,22,null,,,,,,,,,<p style='font-size: 30px;'><strong>Okay</strong></p>,null,neutral_feedback,1,test,43,,,,,,,,,,,,,,,,,,,,,,,,
,,,,,,,,,,,html-button-response,226,2.0.0,475147,64d53aae0f3f7317f6eb617e,4,22,1607,,,,,,,,,"<img src= ""rock_img/I_Gabbro_05.jpg"" style=""width:8cm; height:6cm;""><p>What type of rock is this?</p>",1,class_response,1,test,44,Basalt,Gabbro,5,FALSE,2,4,,,,,,,,,,,,,,,,,,
,,,,,,,,,,,html-keyboard-response,227,2.0.0,475648,64d53aae0f3f7317f6eb617e,4,22,null,,,,,,,,,<p style='font-size: 30px;'><strong>Okay</strong></p>,null,neutral_feedback,1,test,44,,,,,,,,,,,,,,,,,,,,,,,,
,,,,,,,,,,,html-button-response,228,2.0.0,477559,64d53aae0f3f7317f6eb617e,4,22,1910,,,,,,,,,"<img src= ""rock_img/I_Pumice_08.jpg"" style=""width:8cm; height:6.67cm;""><p>What type of rock is this?</p>",7,class_response,1,test,45,Pumice,Pumice,8,TRUE,8,8,,,,,,,,,,,,,,,,,,
,,,,,,,,,,,html-keyboard-response,229,2.0.0,478061,64d53aae0f3f7317f6eb617e,4,22,null,,,,,,,,,<p style='font-size: 30px;'><strong>Okay</strong></p>,null,neutral_feedback,1,test,45,,,,,,,,,,,,,,,,,,,,,,,,
,,,,,,,,,,,html-button-response,230,2.0.0,479503,64d53aae0f3f7317f6eb617e,4,22,1441,,,,,,,,,"<img src= ""rock_img/I_Pegmatite_10.jpg"" style=""width:8cm; height:4.16cm;""><p>What type of rock is this?</p>",0,class_response,1,test,46,Andesite,Pegmatite,10,FALSE,1,6,,,,,,,,,,,,,,,,,,
,,,,,,,,,,,html-keyboard-response,231,2.0.0,480004,64d53aae0f3f7317f6eb617e,4,22,null,,,,,,,,,<p style='font-size: 30px;'><strong>Okay</strong></p>,null,neutral_feedback,1,test,46,,,,,,,,,,,,,,,,,,,,,,,,
,,,,,,,,,,,html-button-response,232,2.0.0,481293,64d53aae0f3f7317f6eb617e,4,22,1287,,,,,,,,,"<img src= ""rock_img/I_Andesite_16.jpg"" style=""width:8cm; height:6.010000000000001cm;""><p>What type of rock is this?</p>",1,class_response,1,test,47,Basalt,Andesite,16,FALSE,2,1,,,,,,,,,,,,,,,,,,
,,,,,,,,,,,html-keyboard-response,233,2.0.0,481794,64d53aae0f3f7317f6eb617e,4,22,null,,,,,,,,,<p style='font-size: 30px;'><strong>Okay</strong></p>,null,neutral_feedback,1,test,47,,,,,,,,,,,,,,,,,,,,,,,,
,,,,,,,,,,,html-button-response,234,2.0.0,484193,64d53aae0f3f7317f6eb617e,4,22,2398,,,,,,,,,"<img src= ""rock_img/I_Diorite_12.jpg"" style=""width:8cm; height:4.88cm;""><p>What type of rock is this?</p>",2,class_response,1,test,48,Diorite,Diorite,12,TRUE,3,3,,,,,,,,,,,,,,,,,,
,,,,,,,,,,,html-keyboard-response,235,2.0.0,484694,64d53aae0f3f7317f6eb617e,4,22,null,,,,,,,,,<p style='font-size: 30px;'><strong>Okay</strong></p>,null,neutral_feedback,1,test,48,,,,,,,,,,,,,,,,,,,,,,,,
,,,,,,,,,,,html-button-response,236,2.0.0,500861,64d53aae0f3f7317f6eb617e,4,22,,,,,,,,,,,,cycle_feedback,,,,,,,,,,,,,,,,,,,,,,,,5682.8,10479.6,,
,,,,,,,,,,,html-button-response,238,2.0.0,503170,64d53aae0f3f7317f6eb617e,4,22,2309,,,,,,,,,,0,start_train,,,,,,,,,,,,,,,,,,,,,,,,,,,
,,,,,,,,,,,html-button-response,240,2.0.0,504841,64d53aae0f3f7317f6eb617e,4,22,1669,,,,,,,,,"<img src= ""rock_img/I_Obsidian_04.jpg"" style=""width:8cm; height:6.930000000000001cm;""><p>What type of rock is this?</p>",4,class_response,2,train,1,Obsidian,Obsidian,4,TRUE,5,5,,,,,,,,,,,,,,,,,,
,,,,,,,,,,,html-button-response,241,2.0.0,506297,64d53aae0f3f7317f6eb617e,4,22,1455,,,,,,,,,"<img src= rock_img/I_Obsidian_04.jpg style=""width:8cm; height:6.930000000000001cm;""><p style='font-size: 30px; color: green;'><strong>Correct!</strong></p><p style='font-size: 30px;'><strong>This rock is obsidian</strong></p>",0,corr_feedback,2,train,1,,,,,,,,,,,,,,,,,,,,,,,,
,,,,,,,,,,,html-button-response,242,2.0.0,508381,64d53aae0f3f7317f6eb617e,4,22,2083,,,,,,,,,"<img src= ""rock_img/I_Pumice_13.jpg"" style=""width:8cm; height:8.200000000000001cm;""><p>What type of rock is this?</p>",2,class_response,2,train,2,Diorite,Pumice,13,FALSE,3,8,,,,,,,,,,,,,,,,,,
,,,,,,,,,,,html-button-response,243,2.0.0,509701,64d53aae0f3f7317f6eb617e,4,22,1319,,,,,,,,,"<img src= rock_img/I_Pumice_13.jpg style=""width:8cm; height:8.200000000000001cm;""><p style='font-size: 30px; color: red;'><strong>Incorrect!</strong></p><p style='font-size: 30px;'><strong>This rock is pumice</strong></p>",0,corr_feedback,2,train,2,,,,,,,,,,,,,,,,,,,,,,,,
,,,,,,,,,,,html-button-response,244,2.0.0,510827,64d53aae0f3f7317f6eb617e,4,22,1125,,,,,,,,,"<img src= ""rock_img/I_Andesite_09.jpg"" style=""width:8cm; height:6cm;""><p>What type of rock is this?</p>",1,class_response,2,train,3,Basalt,Andesite,9,FALSE,2,1,,,,,,,,,,,,,,,,,,
,,,,,,,,,,,html-button-response,245,2.0.0,512616,64d53aae0f3f7317f6eb617e,4,22,1789,,,,,,,,,"<img src= rock_img/I_Andesite_09.jpg style=""width:8cm; height:6cm;""><p style='font-size: 30px; color: red;'><strong>Incorrect!</strong></p><p style='font-size: 30px;'><strong>This rock is andesite</strong></p>",0,corr_feedback,2,train,3,,,,,,,,,,,,,,,,,,,,,,,,
,,,,,,,,,,,html-button-response,246,2.0.0,515223,64d53aae0f3f7317f6eb617e,4,22,2605,,,,,,,,,"<img src= ""rock_img/I_Peridotite_15.jpg"" style=""width:8cm; height:6cm;""><p>What type of rock is this?</p>",5,class_response,2,train,4,Pegmatite,Peridotite,15,FALSE,6,7,,,,,,,,,,,,,,,,,,
,,,,,,,,,,,html-button-response,247,2.0.0,516236,64d53aae0f3f7317f6eb617e,4,22,1013,,,,,,,,,"<img src= rock_img/I_Peridotite_15.jpg style=""width:8cm; height:6cm;""><p style='font-size: 30px; color: red;'><strong>Incorrect!</strong></p><p style='font-size: 30px;'><strong>This rock is peridotite</strong></p>",0,corr_feedback,2,train,4,,,,,,,,,,,,,,,,,,,,,,,,
,,,,,,,,,,,html-button-response,248,2.0.0,517243,64d53aae0f3f7317f6eb617e,4,22,1005,,,,,,,,,"<img src= ""rock_img/I_Gabbro_08.jpg"" style=""width:8cm; height:5.15cm;""><p>What type of rock is this?</p>",1,class_response,2,train,5,Basalt,Gabbro,8,FALSE,2,4,,,,,,,,,,,,,,,,,,
,,,,,,,,,,,html-button-response,249,2.0.0,518377,64d53aae0f3f7317f6eb617e,4,22,1133,,,,,,,,,"<img src= rock_img/I_Gabbro_08.jpg style=""width:8cm; height:5.15cm;""><p style='font-size: 30px; color: red;'><strong>Incorrect!</strong></p><p style='font-size: 30px;'><strong>This rock is gabbro</strong></p>",0,corr_feedback,2,train,5,,,,,,,,,,,,,,,,,,,,,,,,
,,,,,,,,,,,html-button-response,250,2.0.0,519463,64d53aae0f3f7317f6eb617e,4,22,1085,,,,,,,,,"<img src= ""rock_img/I_Gabbro_01.jpg"" style=""width:8cm; height:5.21cm;""><p>What type of rock is this?</p>",1,class_response,2,train,6,Basalt,Gabbro,1,FALSE,2,4,,,,,,,,,,,,,,,,,,
,,,,,,,,,,,html-button-response,251,2.0.0,520466,64d53aae0f3f7317f6eb617e,4,22,1003,,,,,,,,,"<img src= rock_img/I_Gabbro_01.jpg style=""width:8cm; height:5.21cm;""><p style='font-size: 30px; color: red;'><strong>Incorrect!</strong></p><p style='font-size: 30px;'><strong>This rock is gabbro</strong></p>",0,corr_feedback,2,train,6,,,,,,,,,,,,,,,,,,,,,,,,
,,,,,,,,,,,html-button-response,252,2.0.0,522233,64d53aae0f3f7317f6eb617e,4,22,1765,,,,,,,,,"<img src= ""rock_img/I_Pegmatite_15.jpg"" style=""width:8cm; height:6cm;""><p>What type of rock is this?</p>",5,class_response,2,train,7,Pegmatite,Pegmatite,15,TRUE,6,6,,,,,,,,,,,,,,,,,,
,,,,,,,,,,,html-button-response,253,2.0.0,523514,64d53aae0f3f7317f6eb617e,4,22,1281,,,,,,,,,"<img src= rock_img/I_Pegmatite_15.jpg style=""width:8cm; height:6cm;""><p style='font-size: 30px; color: green;'><strong>Correct!</strong></p><p style='font-size: 30px;'><strong>This rock is pegmatite</strong></p>",0,corr_feedback,2,train,7,,,,,,,,,,,,,,,,,,,,,,,,
,,,,,,,,,,,html-button-response,254,2.0.0,525273,64d53aae0f3f7317f6eb617e,4,22,1757,,,,,,,,,"<img src= ""rock_img/I_Peridotite_05.jpg"" style=""width:8cm; height:7.1499999999999995cm;""><p>What type of rock is this?</p>",6,class_response,2,train,8,Peridotite,Peridotite,5,TRUE,7,7,,,,,,,,,,,,,,,,,,
,,,,,,,,,,,html-button-response,255,2.0.0,526601,64d53aae0f3f7317f6eb617e,4,22,1327,,,,,,,,,"<img src= rock_img/I_Peridotite_05.jpg style=""width:8cm; height:7.1499999999999995cm;""><p style='font-size: 30px; color: green;'><strong>Correct!</strong></p><p style='font-size: 30px;'><strong>This rock is peridotite</strong></p>",0,corr_feedback,2,train,8,,,,,,,,,,,,,,,,,,,,,,,,
,,,,,,,,,,,html-button-response,256,2.0.0,528245,64d53aae0f3f7317f6eb617e,4,22,1643,,,,,,,,,"<img src= ""rock_img/I_Andesite_10.jpg"" style=""width:8cm; height:4.16cm;""><p>What type of rock is this?</p>",1,class_response,2,train,9,Basalt,Andesite,10,FALSE,2,1,,,,,,,,,,,,,,,,,,
,,,,,,,,,,,html-button-response,257,2.0.0,529355,64d53aae0f3f7317f6eb617e,4,22,1109,,,,,,,,,"<img src= rock_img/I_Andesite_10.jpg style=""width:8cm; height:4.16cm;""><p style='font-size: 30px; color: red;'><strong>Incorrect!</strong></p><p style='font-size: 30px;'><strong>This rock is andesite</strong></p>",0,corr_feedback,2,train,9,,,,,,,,,,,,,,,,,,,,,,,,
,,,,,,,,,,,html-button-response,258,2.0.0,530701,64d53aae0f3f7317f6eb617e,4,22,1345,,,,,,,,,"<img src= ""rock_img/I_Basalt_14.jpg"" style=""width:8cm; height:5.82cm;""><p>What type of rock is this?</p>",1,class_response,2,train,10,Basalt,Basalt,14,TRUE,2,2,,,,,,,,,,,,,,,,,,
,,,,,,,,,,,html-button-response,259,2.0.0,531934,64d53aae0f3f7317f6eb617e,4,22,1233,,,,,,,,,"<img src= rock_img/I_Basalt_14.jpg style=""width:8cm; height:5.82cm;""><p style='font-size: 30px; color: green;'><strong>Correct!</strong></p><p style='font-size: 30px;'><strong>This rock is basalt</strong></p>",0,corr_feedback,2,train,10,,,,,,,,,,,,,,,,,,,,,,,,
,,,,,,,,,,,html-button-response,260,2.0.0,534173,64d53aae0f3f7317f6eb617e,4,22,2237,,,,,,,,,"<img src= ""rock_img/I_Diorite_13.jpg"" style=""width:8cm; height:6.29cm;""><p>What type of rock is this?</p>",6,class_response,2,train,11,Peridotite,Diorite,13,FALSE,7,3,,,,,,,,,,,,,,,,,,
,,,,,,,,,,,html-button-response,261,2.0.0,535002,64d53aae0f3f7317f6eb617e,4,22,829,,,,,,,,,"<img src= rock_img/I_Diorite_13.jpg style=""width:8cm; height:6.29cm;""><p style='font-size: 30px; color: red;'><strong>Incorrect!</strong></p><p style='font-size: 30px;'><strong>This rock is diorite</strong></p>",0,corr_feedback,2,train,11,,,,,,,,,,,,,,,,,,,,,,,,
,,,,,,,,,,,html-button-response,262,2.0.0,536211,64d53aae0f3f7317f6eb617e,4,22,1207,,,,,,,,,"<img src= ""rock_img/I_Basalt_11.jpg"" style=""width:8cm; height:5.359999999999999cm;""><p>What type of rock is this?</p>",1,class_response,2,train,12,Basalt,Basalt,11,TRUE,2,2,,,,,,,,,,,,,,,,,,
,,,,,,,,,,,html-button-response,263,2.0.0,537291,64d53aae0f3f7317f6eb617e,4,22,1079,,,,,,,,,"<img src= rock_img/I_Basalt_11.jpg style=""width:8cm; height:5.359999999999999cm;""><p style='font-size: 30px; color: green;'><strong>Correct!</strong></p><p style='font-size: 30px;'><strong>This rock is basalt</strong></p>",0,corr_feedback,2,train,12,,,,,,,,,,,,,,,,,,,,,,,,
,,,,,,,,,,,html-button-response,265,2.0.0,539070,64d53aae0f3f7317f6eb617e,4,22,1779,,,,,,,,,,0,start_train,,,,,,,,,,,,,,,,,,,,,,,,,,,
,,,,,,,,,,,html-button-response,266,2.0.0,545189,64d53aae0f3f7317f6eb617e,4,22,,,,,,,,,,,,cat_selection,2,train,1,,,,,,,2991.8,3125.6,3,4,Diorite,Gabbro,,,,,,,,,,,,
,,,,,,,,,,,paired-cat-display,267,1.0.0,587539,64d53aae0f3f7317f6eb617e,4,22,,,,,,,,,,,,paired_cat_display,2,train,1,,,,,,,,,,,,,,,5958.4,36389.6,,,i have no ideae to be honest,speckled polka dotty ,,,,
,,,,,,,,,,,html-button-response,268,2.0.0,591240,64d53aae0f3f7317f6eb617e,4,22,,,,,,,,,,,,cat_selection,2,train,2,,,,,,,2925,776.1,6,7,Pegmatite,Peridotite,,,,,,,,,,,,
,,,,,,,,,,,paired-cat-display,269,1.0.0,617548,64d53aae0f3f7317f6eb617e,4,22,,,,,,,,,,,,paired_cat_display,2,train,2,,,,,,,,,,,,,big bold lines and colors,"straight lines, layers",8562.8,17743.4,,,,,,,,
,,,,,,,,,,,html-button-response,270,2.0.0,620690,64d53aae0f3f7317f6eb617e,4,22,,,,,,,,,,,,cat_selection,2,train,3,,,,,,,1635.5,1505.9,8,4,Pumice,Gabbro,,,,,,,,,,,,
,,,,,,,,,,,paired-cat-display,271,1.0.0,645730,64d53aae0f3f7317f6eb617e,4,22,,,,,,,,,,,,paired_cat_display,2,train,3,,,,,,,,,,,,,,,6429,18609.5,,,greys and dark,,,,its a hole stone,
,,,,,,,,,,,html-button-response,273,2.0.0,647604,64d53aae0f3f7317f6eb617e,4,22,1873,,,,,,,,,,0,start_test,,,,,,,,,,,,,,,,,,,,,,,,,,,
,,,,,,,,,,,html-button-response,274,2.0.0,649296,64d53aae0f3f7317f6eb617e,4,22,1691,,,,,,,,,"<img src= ""rock_img/I_Diorite_14.jpg"" style=""width:8cm; height:5.71cm;""><p>What type of rock is this?</p>",0,class_response,2,test,1,Diorite,Diorite,14,TRUE,3,3,,,,,,,,,,,,,,,,,,
,,,,,,,,,,,html-keyboard-response,275,2.0.0,649797,64d53aae0f3f7317f6eb617e,4,22,null,,,,,,,,,<p style='font-size: 30px;'><strong>Okay</strong></p>,null,neutral_feedback,2,test,1,,,,,,,,,,,,,,,,,,,,,,,,
,,,,,,,,,,,html-button-response,276,2.0.0,651156,64d53aae0f3f7317f6eb617e,4,22,1358,,,,,,,,,"<img src= ""rock_img/I_Pumice_08.jpg"" style=""width:8cm; height:6.67cm;""><p>What type of rock is this?</p>",7,class_response,2,test,2,Pumice,Pumice,8,TRUE,8,8,,,,,,,,,,,,,,,,,,
,,,,,,,,,,,html-keyboard-response,277,2.0.0,651657,64d53aae0f3f7317f6eb617e,4,22,null,,,,,,,,,<p style='font-size: 30px;'><strong>Okay</strong></p>,null,neutral_feedback,2,test,2,,,,,,,,,,,,,,,,,,,,,,,,
,,,,,,,,,,,html-button-response,278,2.0.0,656952,64d53aae0f3f7317f6eb617e,4,22,5294,,,,,,,,,"<img src= ""rock_img/I_Basalt_05.jpg"" style=""width:8cm; height:8.18cm;""><p>What type of rock is this?</p>",3,class_response,2,test,3,Basalt,Basalt,5,TRUE,2,2,,,,,,,,,,,,,,,,,,
,,,,,,,,,,,html-keyboard-response,279,2.0.0,657454,64d53aae0f3f7317f6eb617e,4,22,null,,,,,,,,,<p style='font-size: 30px;'><strong>Okay</strong></p>,null,neutral_feedback,2,test,3,,,,,,,,,,,,,,,,,,,,,,,,
,,,,,,,,,,,html-button-response,280,2.0.0,660366,64d53aae0f3f7317f6eb617e,4,22,2911,,,,,,,,,"<img src= ""rock_img/I_Pegmatite_06.jpg"" style=""width:8cm; height:5.17cm;""><p>What type of rock is this?</p>",5,class_response,2,test,4,Pegmatite,Pegmatite,6,TRUE,6,6,,,,,,,,,,,,,,,,,,
,,,,,,,,,,,html-keyboard-response,281,2.0.0,660868,64d53aae0f3f7317f6eb617e,4,22,null,,,,,,,,,<p style='font-size: 30px;'><strong>Okay</strong></p>,null,neutral_feedback,2,test,4,,,,,,,,,,,,,,,,,,,,,,,,
,,,,,,,,,,,html-button-response,282,2.0.0,667084,64d53aae0f3f7317f6eb617e,4,22,6215,,,,,,,,,"<img src= ""rock_img/I_Andesite_06.jpg"" style=""width:8cm; height:6.840000000000001cm;""><p>What type of rock is this?</p>",3,class_response,2,test,5,Andesite,Andesite,6,TRUE,1,1,,,,,,,,,,,,,,,,,,
,,,,,,,,,,,html-keyboard-response,283,2.0.0,667585,64d53aae0f3f7317f6eb617e,4,22,null,,,,,,,,,<p style='font-size: 30px;'><strong>Okay</strong></p>,null,neutral_feedback,2,test,5,,,,,,,,,,,,,,,,,,,,,,,,
,,,,,,,,,,,html-button-response,284,2.0.0,668616,64d53aae0f3f7317f6eb617e,4,22,1030,,,,,,,,,"<img src= ""rock_img/I_Pumice_04.jpg"" style=""width:8cm; height:6.819999999999999cm;""><p>What type of rock is this?</p>",7,class_response,2,test,6,Pumice,Pumice,4,TRUE,8,8,,,,,,,,,,,,,,,,,,
,,,,,,,,,,,html-keyboard-response,285,2.0.0,669118,64d53aae0f3f7317f6eb617e,4,22,null,,,,,,,,,<p style='font-size: 30px;'><strong>Okay</strong></p>,null,neutral_feedback,2,test,6,,,,,,,,,,,,,,,,,,,,,,,,
,,,,,,,,,,,html-button-response,286,2.0.0,670326,64d53aae0f3f7317f6eb617e,4,22,1207,,,,,,,,,"<img src= ""rock_img/I_Obsidian_12.jpg"" style=""width:8cm; height:6.53cm;""><p>What type of rock is this?</p>",4,class_response,2,test,7,Obsidian,Obsidian,12,TRUE,5,5,,,,,,,,,,,,,,,,,,
,,,,,,,,,,,html-keyboard-response,287,2.0.0,670827,64d53aae0f3f7317f6eb617e,4,22,null,,,,,,,,,<p style='font-size: 30px;'><strong>Okay</strong></p>,null,neutral_feedback,2,test,7,,,,,,,,,,,,,,,,,,,,,,,,
,,,,,,,,,,,html-button-response,288,2.0.0,671520,64d53aae0f3f7317f6eb617e,4,22,692,,,,,,,,,"<img src= ""rock_img/I_Obsidian_11.jpg"" style=""width:8cm; height:6.05cm;""><p>What type of rock is this?</p>",4,class_response,2,test,8,Obsidian,Obsidian,11,TRUE,5,5,,,,,,,,,,,,,,,,,,
,,,,,,,,,,,html-keyboard-response,289,2.0.0,672021,64d53aae0f3f7317f6eb617e,4,22,null,,,,,,,,,<p style='font-size: 30px;'><strong>Okay</strong></p>,null,neutral_feedback,2,test,8,,,,,,,,,,,,,,,,,,,,,,,,
,,,,,,,,,,,html-button-response,290,2.0.0,672804,64d53aae0f3f7317f6eb617e,4,22,782,,,,,,,,,"<img src= ""rock_img/I_Obsidian_02.jpg"" style=""width:8cm; height:7.51cm;""><p>What type of rock is this?</p>",4,class_response,2,test,9,Obsidian,Obsidian,2,TRUE,5,5,,,,,,,,,,,,,,,,,,
,,,,,,,,,,,html-keyboard-response,291,2.0.0,673305,64d53aae0f3f7317f6eb617e,4,22,null,,,,,,,,,<p style='font-size: 30px;'><strong>Okay</strong></p>,null,neutral_feedback,2,test,9,,,,,,,,,,,,,,,,,,,,,,,,
,,,,,,,,,,,html-button-response,292,2.0.0,675779,64d53aae0f3f7317f6eb617e,4,22,2473,,,,,,,,,"<img src= ""rock_img/I_Pegmatite_16.jpg"" style=""width:8cm; height:5.8cm;""><p>What type of rock is this?</p>",5,class_response,2,test,10,Pegmatite,Pegmatite,16,TRUE,6,6,,,,,,,,,,,,,,,,,,
,,,,,,,,,,,html-keyboard-response,293,2.0.0,676280,64d53aae0f3f7317f6eb617e,4,22,null,,,,,,,,,<p style='font-size: 30px;'><strong>Okay</strong></p>,null,neutral_feedback,2,test,10,,,,,,,,,,,,,,,,,,,,,,,,
,,,,,,,,,,,html-button-response,294,2.0.0,678202,64d53aae0f3f7317f6eb617e,4,22,1922,,,,,,,,,"<img src= ""rock_img/I_Diorite_12.jpg"" style=""width:8cm; height:4.88cm;""><p>What type of rock is this?</p>",0,class_response,2,test,11,Andesite,Diorite,12,FALSE,1,3,,,,,,,,,,,,,,,,,,
,,,,,,,,,,,html-keyboard-response,295,2.0.0,678704,64d53aae0f3f7317f6eb617e,4,22,null,,,,,,,,,<p style='font-size: 30px;'><strong>Okay</strong></p>,null,neutral_feedback,2,test,11,,,,,,,,,,,,,,,,,,,,,,,,
,,,,,,,,,,,html-button-response,296,2.0.0,681978,64d53aae0f3f7317f6eb617e,4,22,3273,,,,,,,,,"<img src= ""rock_img/I_Peridotite_07.jpg"" style=""width:8cm; height:4.83cm;""><p>What type of rock is this?</p>",3,class_response,2,test,12,Gabbro,Peridotite,7,FALSE,4,7,,,,,,,,,,,,,,,,,,
,,,,,,,,,,,html-keyboard-response,297,2.0.0,682480,64d53aae0f3f7317f6eb617e,4,22,null,,,,,,,,,<p style='font-size: 30px;'><strong>Okay</strong></p>,null,neutral_feedback,2,test,12,,,,,,,,,,,,,,,,,,,,,,,,
,,,,,,,,,,,html-button-response,298,2.0.0,683672,64d53aae0f3f7317f6eb617e,4,22,1191,,,,,,,,,"<img src= ""rock_img/I_Pumice_05.jpg"" style=""width:8cm; height:7.25cm;""><p>What type of rock is this?</p>",7,class_response,2,test,13,Pumice,Pumice,5,TRUE,8,8,,,,,,,,,,,,,,,,,,
,,,,,,,,,,,html-keyboard-response,299,2.0.0,684173,64d53aae0f3f7317f6eb617e,4,22,null,,,,,,,,,<p style='font-size: 30px;'><strong>Okay</strong></p>,null,neutral_feedback,2,test,13,,,,,,,,,,,,,,,,,,,,,,,,
,,,,,,,,,,,html-button-response,300,2.0.0,685438,64d53aae0f3f7317f6eb617e,4,22,1264,,,,,,,,,"<img src= ""rock_img/I_Basalt_06.jpg"" style=""width:8cm; height:7.06cm;""><p>What type of rock is this?</p>",4,class_response,2,test,14,Obsidian,Basalt,6,FALSE,5,2,,,,,,,,,,,,,,,,,,
,,,,,,,,,,,html-keyboard-response,301,2.0.0,685940,64d53aae0f3f7317f6eb617e,4,22,null,,,,,,,,,<p style='font-size: 30px;'><strong>Okay</strong></p>,null,neutral_feedback,2,test,14,,,,,,,,,,,,,,,,,,,,,,,,
,,,,,,,,,,,html-button-response,302,2.0.0,687562,64d53aae0f3f7317f6eb617e,4,22,1621,,,,,,,,,"<img src= ""rock_img/I_Gabbro_09.jpg"" style=""width:8cm; height:7.279999999999999cm;""><p>What type of rock is this?</p>",4,class_response,2,test,15,Gabbro,Gabbro,9,TRUE,4,4,,,,,,,,,,,,,,,,,,
,,,,,,,,,,,html-keyboard-response,303,2.0.0,688064,64d53aae0f3f7317f6eb617e,4,22,null,,,,,,,,,<p style='font-size: 30px;'><strong>Okay</strong></p>,null,neutral_feedback,2,test,15,,,,,,,,,,,,,,,,,,,,,,,,
,,,,,,,,,,,html-button-response,304,2.0.0,693898,64d53aae0f3f7317f6eb617e,4,22,5834,,,,,,,,,"<img src= ""rock_img/I_Peridotite_13.jpg"" style=""width:8cm; height:7.58cm;""><p>What type of rock is this?</p>",6,class_response,2,test,16,Peridotite,Peridotite,13,TRUE,7,7,,,,,,,,,,,,,,,,,,
,,,,,,,,,,,html-keyboard-response,305,2.0.0,694400,64d53aae0f3f7317f6eb617e,4,22,null,,,,,,,,,<p style='font-size: 30px;'><strong>Okay</strong></p>,null,neutral_feedback,2,test,16,,,,,,,,,,,,,,,,,,,,,,,,
,,,,,,,,,,,html-button-response,306,2.0.0,695904,64d53aae0f3f7317f6eb617e,4,22,1503,,,,,,,,,"<img src= ""rock_img/I_Basalt_10.jpg"" style=""width:8cm; height:5.85cm;""><p>What type of rock is this?</p>",1,class_response,2,test,17,Basalt,Basalt,10,TRUE,2,2,,,,,,,,,,,,,,,,,,
,,,,,,,,,,,html-keyboard-response,307,2.0.0,696405,64d53aae0f3f7317f6eb617e,4,22,null,,,,,,,,,<p style='font-size: 30px;'><strong>Okay</strong></p>,null,neutral_feedback,2,test,17,,,,,,,,,,,,,,,,,,,,,,,,
,,,,,,,,,,,html-button-response,308,2.0.0,699046,64d53aae0f3f7317f6eb617e,4,22,2640,,,,,,,,,"<img src= ""rock_img/I_Peridotite_16.jpg"" style=""width:8cm; height:6.989999999999999cm;""><p>What type of rock is this?</p>",3,class_response,2,test,18,Peridotite,Peridotite,16,TRUE,7,7,,,,,,,,,,,,,,,,,,
,,,,,,,,,,,html-keyboard-response,309,2.0.0,699547,64d53aae0f3f7317f6eb617e,4,22,null,,,,,,,,,<p style='font-size: 30px;'><strong>Okay</strong></p>,null,neutral_feedback,2,test,18,,,,,,,,,,,,,,,,,,,,,,,,
,,,,,,,,,,,html-button-response,310,2.0.0,700830,64d53aae0f3f7317f6eb617e,4,22,1282,,,,,,,,,"<img src= ""rock_img/I_Diorite_15.jpg"" style=""width:8cm; height:5.54cm;""><p>What type of rock is this?</p>",3,class_response,2,test,19,Gabbro,Diorite,15,FALSE,4,3,,,,,,,,,,,,,,,,,,
,,,,,,,,,,,html-keyboard-response,311,2.0.0,701332,64d53aae0f3f7317f6eb617e,4,22,null,,,,,,,,,<p style='font-size: 30px;'><strong>Okay</strong></p>,null,neutral_feedback,2,test,19,,,,,,,,,,,,,,,,,,,,,,,,
,,,,,,,,,,,html-button-response,312,2.0.0,702422,64d53aae0f3f7317f6eb617e,4,22,1089,,,,,,,,,"<img src= ""rock_img/I_Obsidian_14.jpg"" style=""width:8cm; height:7.64cm;""><p>What type of rock is this?</p>",4,class_response,2,test,20,Obsidian,Obsidian,14,TRUE,5,5,,,,,,,,,,,,,,,,,,
,,,,,,,,,,,html-keyboard-response,313,2.0.0,702924,64d53aae0f3f7317f6eb617e,4,22,null,,,,,,,,,<p style='font-size: 30px;'><strong>Okay</strong></p>,null,neutral_feedback,2,test,20,,,,,,,,,,,,,,,,,,,,,,,,
,,,,,,,,,,,html-button-response,314,2.0.0,704796,64d53aae0f3f7317f6eb617e,4,22,1872,,,,,,,,,"<img src= ""rock_img/I_Pegmatite_03.jpg"" style=""width:8cm; height:5.239999999999999cm;""><p>What type of rock is this?</p>",0,class_response,2,test,21,Pegmatite,Pegmatite,3,TRUE,6,6,,,,,,,,,,,,,,,,,,
,,,,,,,,,,,html-keyboard-response,315,2.0.0,705297,64d53aae0f3f7317f6eb617e,4,22,null,,,,,,,,,<p style='font-size: 30px;'><strong>Okay</strong></p>,null,neutral_feedback,2,test,21,,,,,,,,,,,,,,,,,,,,,,,,
,,,,,,,,,,,html-button-response,316,2.0.0,707410,64d53aae0f3f7317f6eb617e,4,22,2112,,,,,,,,,"<img src= ""rock_img/I_Gabbro_03.jpg"" style=""width:8cm; height:8.52cm;""><p>What type of rock is this?</p>",3,class_response,2,test,22,Gabbro,Gabbro,3,TRUE,4,4,,,,,,,,,,,,,,,,,,
,,,,,,,,,,,html-keyboard-response,317,2.0.0,707911,64d53aae0f3f7317f6eb617e,4,22,null,,,,,,,,,<p style='font-size: 30px;'><strong>Okay</strong></p>,null,neutral_feedback,2,test,22,,,,,,,,,,,,,,,,,,,,,,,,
,,,,,,,,,,,html-button-response,318,2.0.0,709368,64d53aae0f3f7317f6eb617e,4,22,1456,,,,,,,,,"<img src= ""rock_img/I_Obsidian_10.jpg"" style=""width:8cm; height:6.260000000000001cm;""><p>What type of rock is this?</p>",4,class_response,2,test,23,Obsidian,Obsidian,10,TRUE,5,5,,,,,,,,,,,,,,,,,,
,,,,,,,,,,,html-keyboard-response,319,2.0.0,709870,64d53aae0f3f7317f6eb617e,4,22,null,,,,,,,,,<p style='font-size: 30px;'><strong>Okay</strong></p>,null,neutral_feedback,2,test,23,,,,,,,,,,,,,,,,,,,,,,,,
,,,,,,,,,,,html-button-response,320,2.0.0,712082,64d53aae0f3f7317f6eb617e,4,22,2211,,,,,,,,,"<img src= ""rock_img/I_Diorite_11.jpg"" style=""width:8cm; height:7.11cm;""><p>What type of rock is this?</p>",1,class_response,2,test,24,Basalt,Diorite,11,FALSE,2,3,,,,,,,,,,,,,,,,,,
,,,,,,,,,,,html-keyboard-response,321,2.0.0,712584,64d53aae0f3f7317f6eb617e,4,22,null,,,,,,,,,<p style='font-size: 30px;'><strong>Okay</strong></p>,null,neutral_feedback,2,test,24,,,,,,,,,,,,,,,,,,,,,,,,
,,,,,,,,,,,html-button-response,322,2.0.0,714771,64d53aae0f3f7317f6eb617e,4,22,2186,,,,,,,,,"<img src= ""rock_img/I_Andesite_04.jpg"" style=""width:8cm; height:5.96cm;""><p>What type of rock is this?</p>",1,class_response,2,test,25,Basalt,Andesite,4,FALSE,2,1,,,,,,,,,,,,,,,,,,
,,,,,,,,,,,html-keyboard-response,323,2.0.0,715272,64d53aae0f3f7317f6eb617e,4,22,null,,,,,,,,,<p style='font-size: 30px;'><strong>Okay</strong></p>,null,neutral_feedback,2,test,25,,,,,,,,,,,,,,,,,,,,,,,,
,,,,,,,,,,,html-button-response,324,2.0.0,716204,64d53aae0f3f7317f6eb617e,4,22,931,,,,,,,,,"<img src= ""rock_img/I_Pegmatite_11.jpg"" style=""width:8cm; height:8.14cm;""><p>What type of rock is this?</p>",5,class_response,2,test,26,Pegmatite,Pegmatite,11,TRUE,6,6,,,,,,,,,,,,,,,,,,
,,,,,,,,,,,html-keyboard-response,325,2.0.0,716706,64d53aae0f3f7317f6eb617e,4,22,null,,,,,,,,,<p style='font-size: 30px;'><strong>Okay</strong></p>,null,neutral_feedback,2,test,26,,,,,,,,,,,,,,,,,,,,,,,,
,,,,,,,,,,,html-button-response,326,2.0.0,718212,64d53aae0f3f7317f6eb617e,4,22,1505,,,,,,,,,"<img src= ""rock_img/I_Gabbro_05.jpg"" style=""width:8cm; height:6cm;""><p>What type of rock is this?</p>",6,class_response,2,test,27,Peridotite,Gabbro,5,FALSE,7,4,,,,,,,,,,,,,,,,,,
,,,,,,,,,,,html-keyboard-response,327,2.0.0,718714,64d53aae0f3f7317f6eb617e,4,22,null,,,,,,,,,<p style='font-size: 30px;'><strong>Okay</strong></p>,null,neutral_feedback,2,test,27,,,,,,,,,,,,,,,,,,,,,,,,
,,,,,,,,,,,html-button-response,328,2.0.0,721756,64d53aae0f3f7317f6eb617e,4,22,3041,,,,,,,,,"<img src= ""rock_img/I_Pegmatite_10.jpg"" style=""width:8cm; height:4.16cm;""><p>What type of rock is this?</p>",0,class_response,2,test,28,Andesite,Pegmatite,10,FALSE,1,6,,,,,,,,,,,,,,,,,,
,,,,,,,,,,,html-keyboard-response,329,2.0.0,722258,64d53aae0f3f7317f6eb617e,4,22,null,,,,,,,,,<p style='font-size: 30px;'><strong>Okay</strong></p>,null,neutral_feedback,2,test,28,,,,,,,,,,,,,,,,,,,,,,,,
,,,,,,,,,,,html-button-response,330,2.0.0,724244,64d53aae0f3f7317f6eb617e,4,22,1985,,,,,,,,,"<img src= ""rock_img/I_Andesite_16.jpg"" style=""width:8cm; height:6.010000000000001cm;""><p>What type of rock is this?</p>",1,class_response,2,test,29,Basalt,Andesite,16,FALSE,2,1,,,,,,,,,,,,,,,,,,
,,,,,,,,,,,html-keyboard-response,331,2.0.0,724745,64d53aae0f3f7317f6eb617e,4,22,null,,,,,,,,,<p style='font-size: 30px;'><strong>Okay</strong></p>,null,neutral_feedback,2,test,29,,,,,,,,,,,,,,,,,,,,,,,,
,,,,,,,,,,,html-button-response,332,2.0.0,726192,64d53aae0f3f7317f6eb617e,4,22,1446,,,,,,,,,"<img src= ""rock_img/I_Pegmatite_13.jpg"" style=""width:8cm; height:4.95cm;""><p>What type of rock is this?</p>",5,class_response,2,test,30,Pegmatite,Pegmatite,13,TRUE,6,6,,,,,,,,,,,,,,,,,,
,,,,,,,,,,,html-keyboard-response,333,2.0.0,726693,64d53aae0f3f7317f6eb617e,4,22,null,,,,,,,,,<p style='font-size: 30px;'><strong>Okay</strong></p>,null,neutral_feedback,2,test,30,,,,,,,,,,,,,,,,,,,,,,,,
,,,,,,,,,,,html-button-response,334,2.0.0,728628,64d53aae0f3f7317f6eb617e,4,22,1934,,,,,,,,,"<img src= ""rock_img/I_Diorite_16.jpg"" style=""width:8cm; height:6.74cm;""><p>What type of rock is this?</p>",0,class_response,2,test,31,Andesite,Diorite,16,FALSE,1,3,,,,,,,,,,,,,,,,,,
,,,,,,,,,,,html-keyboard-response,335,2.0.0,729130,64d53aae0f3f7317f6eb617e,4,22,null,,,,,,,,,<p style='font-size: 30px;'><strong>Okay</strong></p>,null,neutral_feedback,2,test,31,,,,,,,,,,,,,,,,,,,,,,,,
,,,,,,,,,,,html-button-response,336,2.0.0,730384,64d53aae0f3f7317f6eb617e,4,22,1253,,,,,,,,,"<img src= ""rock_img/I_Basalt_08.jpg"" style=""width:8cm; height:10.44cm;""><p>What type of rock is this?</p>",4,class_response,2,test,32,Obsidian,Basalt,8,FALSE,5,2,,,,,,,,,,,,,,,,,,
,,,,,,,,,,,html-keyboard-response,337,2.0.0,730886,64d53aae0f3f7317f6eb617e,4,22,null,,,,,,,,,<p style='font-size: 30px;'><strong>Okay</strong></p>,null,neutral_feedback,2,test,32,,,,,,,,,,,,,,,,,,,,,,,,
,,,,,,,,,,,html-button-response,338,2.0.0,732000,64d53aae0f3f7317f6eb617e,4,22,1113,,,,,,,,,"<img src= ""rock_img/I_Basalt_04.jpg"" style=""width:8cm; height:7.53cm;""><p>What type of rock is this?</p>",4,class_response,2,test,33,Obsidian,Basalt,4,FALSE,5,2,,,,,,,,,,,,,,,,,,
,,,,,,,,,,,html-keyboard-response,339,2.0.0,732501,64d53aae0f3f7317f6eb617e,4,22,null,,,,,,,,,<p style='font-size: 30px;'><strong>Okay</strong></p>,null,neutral_feedback,2,test,33,,,,,,,,,,,,,,,,,,,,,,,,
,,,,,,,,,,,html-button-response,340,2.0.0,736092,64d53aae0f3f7317f6eb617e,4,22,3590,,,,,,,,,"<img src= ""rock_img/I_Gabbro_11.jpg"" style=""width:8cm; height:6.2cm;""><p>What type of rock is this?</p>",3,class_response,2,test,34,Gabbro,Gabbro,11,TRUE,4,4,,,,,,,,,,,,,,,,,,
,,,,,,,,,,,html-keyboard-response,341,2.0.0,736593,64d53aae0f3f7317f6eb617e,4,22,null,,,,,,,,,<p style='font-size: 30px;'><strong>Okay</strong></p>,null,neutral_feedback,2,test,34,,,,,,,,,,,,,,,,,,,,,,,,
,,,,,,,,,,,html-button-response,342,2.0.0,738212,64d53aae0f3f7317f6eb617e,4,22,1618,,,,,,,,,"<img src= ""rock_img/I_Gabbro_16.jpg"" style=""width:8cm; height:6.44cm;""><p>What type of rock is this?</p>",1,class_response,2,test,35,Basalt,Gabbro,16,FALSE,2,4,,,,,,,,,,,,,,,,,,
,,,,,,,,,,,html-keyboard-response,343,2.0.0,738713,64d53aae0f3f7317f6eb617e,4,22,null,,,,,,,,,<p style='font-size: 30px;'><strong>Okay</strong></p>,null,neutral_feedback,2,test,35,,,,,,,,,,,,,,,,,,,,,,,,
,,,,,,,,,,,html-button-response,344,2.0.0,740106,64d53aae0f3f7317f6eb617e,4,22,1392,,,,,,,,,"<img src= ""rock_img/I_Andesite_02.jpg"" style=""width:8cm; height:8.5cm;""><p>What type of rock is this?</p>",7,class_response,2,test,36,Pumice,Andesite,2,FALSE,8,1,,,,,,,,,,,,,,,,,,
,,,,,,,,,,,html-keyboard-response,345,2.0.0,740607,64d53aae0f3f7317f6eb617e,4,22,null,,,,,,,,,<p style='font-size: 30px;'><strong>Okay</strong></p>,null,neutral_feedback,2,test,36,,,,,,,,,,,,,,,,,,,,,,,,
,,,,,,,,,,,html-button-response,346,2.0.0,741468,64d53aae0f3f7317f6eb617e,4,22,860,,,,,,,,,"<img src= ""rock_img/I_Pumice_15.jpg"" style=""width:8cm; height:7.86cm;""><p>What type of rock is this?</p>",7,class_response,2,test,37,Pumice,Pumice,15,TRUE,8,8,,,,,,,,,,,,,,,,,,
,,,,,,,,,,,html-keyboard-response,347,2.0.0,741970,64d53aae0f3f7317f6eb617e,4,22,null,,,,,,,,,<p style='font-size: 30px;'><strong>Okay</strong></p>,null,neutral_feedback,2,test,37,,,,,,,,,,,,,,,,,,,,,,,,
,,,,,,,,,,,html-button-response,348,2.0.0,744108,64d53aae0f3f7317f6eb617e,4,22,2137,,,,,,,,,"<img src= ""rock_img/I_Gabbro_15.jpg"" style=""width:8cm; height:6.29cm;""><p>What type of rock is this?</p>",6,class_response,2,test,38,Peridotite,Gabbro,15,FALSE,7,4,,,,,,,,,,,,,,,,,,
,,,,,,,,,,,html-keyboard-response,349,2.0.0,744610,64d53aae0f3f7317f6eb617e,4,22,null,,,,,,,,,<p style='font-size: 30px;'><strong>Okay</strong></p>,null,neutral_feedback,2,test,38,,,,,,,,,,,,,,,,,,,,,,,,
,,,,,,,,,,,html-button-response,350,2.0.0,747896,64d53aae0f3f7317f6eb617e,4,22,3285,,,,,,,,,"<img src= ""rock_img/I_Diorite_08.jpg"" style=""width:8cm; height:6.37cm;""><p>What type of rock is this?</p>",5,class_response,2,test,39,Pegmatite,Diorite,8,FALSE,6,3,,,,,,,,,,,,,,,,,,
,,,,,,,,,,,html-keyboard-response,351,2.0.0,748398,64d53aae0f3f7317f6eb617e,4,22,null,,,,,,,,,<p style='font-size: 30px;'><strong>Okay</strong></p>,null,neutral_feedback,2,test,39,,,,,,,,,,,,,,,,,,,,,,,,
,,,,,,,,,,,html-button-response,352,2.0.0,750350,64d53aae0f3f7317f6eb617e,4,22,1951,,,,,,,,,"<img src= ""rock_img/I_Peridotite_08.jpg"" style=""width:8cm; height:6.7cm;""><p>What type of rock is this?</p>",7,class_response,2,test,40,Pumice,Peridotite,8,FALSE,8,7,,,,,,,,,,,,,,,,,,
,,,,,,,,,,,html-keyboard-response,353,2.0.0,750851,64d53aae0f3f7317f6eb617e,4,22,null,,,,,,,,,<p style='font-size: 30px;'><strong>Okay</strong></p>,null,neutral_feedback,2,test,40,,,,,,,,,,,,,,,,,,,,,,,,
,,,,,,,,,,,html-button-response,354,2.0.0,753110,64d53aae0f3f7317f6eb617e,4,22,2258,,,,,,,,,"<img src= ""rock_img/I_Andesite_14.jpg"" style=""width:8cm; height:5.449999999999999cm;""><p>What type of rock is this?</p>",2,class_response,2,test,41,Diorite,Andesite,14,FALSE,3,1,,,,,,,,,,,,,,,,,,
,,,,,,,,,,,html-keyboard-response,355,2.0.0,753612,64d53aae0f3f7317f6eb617e,4,22,null,,,,,,,,,<p style='font-size: 30px;'><strong>Okay</strong></p>,null,neutral_feedback,2,test,41,,,,,,,,,,,,,,,,,,,,,,,,
,,,,,,,,,,,html-button-response,356,2.0.0,755388,64d53aae0f3f7317f6eb617e,4,22,1775,,,,,,,,,"<img src= ""rock_img/I_Andesite_03.jpg"" style=""width:8cm; height:5.73cm;""><p>What type of rock is this?</p>",1,class_response,2,test,42,Basalt,Andesite,3,FALSE,2,1,,,,,,,,,,,,,,,,,,
,,,,,,,,,,,html-keyboard-response,357,2.0.0,755890,64d53aae0f3f7317f6eb617e,4,22,null,,,,,,,,,<p style='font-size: 30px;'><strong>Okay</strong></p>,null,neutral_feedback,2,test,42,,,,,,,,,,,,,,,,,,,,,,,,
,,,,,,,,,,,html-button-response,358,2.0.0,757242,64d53aae0f3f7317f6eb617e,4,22,1351,,,,,,,,,"<img src= ""rock_img/I_Pumice_09.jpg"" style=""width:8cm; height:6.44cm;""><p>What type of rock is this?</p>",7,class_response,2,test,43,Pumice,Pumice,9,TRUE,8,8,,,,,,,,,,,,,,,,,,
,,,,,,,,,,,html-keyboard-response,359,2.0.0,757744,64d53aae0f3f7317f6eb617e,4,22,null,,,,,,,,,<p style='font-size: 30px;'><strong>Okay</strong></p>,null,neutral_feedback,2,test,43,,,,,,,,,,,,,,,,,,,,,,,,
,,,,,,,,,,,html-button-response,360,2.0.0,759002,64d53aae0f3f7317f6eb617e,4,22,1257,,,,,,,,,"<img src= ""rock_img/I_Basalt_16.jpg"" style=""width:8cm; height:7.659999999999999cm;""><p>What type of rock is this?</p>",1,class_response,2,test,44,Basalt,Basalt,16,TRUE,2,2,,,,,,,,,,,,,,,,,,
,,,,,,,,,,,html-keyboard-response,361,2.0.0,759504,64d53aae0f3f7317f6eb617e,4,22,null,,,,,,,,,<p style='font-size: 30px;'><strong>Okay</strong></p>,null,neutral_feedback,2,test,44,,,,,,,,,,,,,,,,,,,,,,,,
,,,,,,,,,,,html-button-response,362,2.0.0,761140,64d53aae0f3f7317f6eb617e,4,22,1635,,,,,,,,,"<img src= ""rock_img/I_Obsidian_07.jpg"" style=""width:8cm; height:4.76cm;""><p>What type of rock is this?</p>",4,class_response,2,test,45,Obsidian,Obsidian,7,TRUE,5,5,,,,,,,,,,,,,,,,,,
,,,,,,,,,,,html-keyboard-response,363,2.0.0,761642,64d53aae0f3f7317f6eb617e,4,22,null,,,,,,,,,<p style='font-size: 30px;'><strong>Okay</strong></p>,null,neutral_feedback,2,test,45,,,,,,,,,,,,,,,,,,,,,,,,
,,,,,,,,,,,html-button-response,364,2.0.0,763238,64d53aae0f3f7317f6eb617e,4,22,1595,,,,,,,,,"<img src= ""rock_img/I_Pumice_02.jpg"" style=""width:8cm; height:7.3999999999999995cm;""><p>What type of rock is this?</p>",7,class_response,2,test,46,Pumice,Pumice,2,TRUE,8,8,,,,,,,,,,,,,,,,,,
,,,,,,,,,,,html-keyboard-response,365,2.0.0,763739,64d53aae0f3f7317f6eb617e,4,22,null,,,,,,,,,<p style='font-size: 30px;'><strong>Okay</strong></p>,null,neutral_feedback,2,test,46,,,,,,,,,,,,,,,,,,,,,,,,
,,,,,,,,,,,html-button-response,366,2.0.0,765274,64d53aae0f3f7317f6eb617e,4,22,1534,,,,,,,,,"<img src= ""rock_img/I_Peridotite_02.jpg"" style=""width:8cm; height:5.859999999999999cm;""><p>What type of rock is this?</p>",2,class_response,2,test,47,Diorite,Peridotite,2,FALSE,3,7,,,,,,,,,,,,,,,,,,
,,,,,,,,,,,html-keyboard-response,367,2.0.0,765776,64d53aae0f3f7317f6eb617e,4,22,null,,,,,,,,,<p style='font-size: 30px;'><strong>Okay</strong></p>,null,neutral_feedback,2,test,47,,,,,,,,,,,,,,,,,,,,,,,,
,,,,,,,,,,,html-button-response,368,2.0.0,768550,64d53aae0f3f7317f6eb617e,4,22,2773,,,,,,,,,"<img src= ""rock_img/I_Peridotite_12.jpg"" style=""width:8cm; height:4.54cm;""><p>What type of rock is this?</p>",6,class_response,2,test,48,Peridotite,Peridotite,12,TRUE,7,7,,,,,,,,,,,,,,,,,,
,,,,,,,,,,,html-keyboard-response,369,2.0.0,769052,64d53aae0f3f7317f6eb617e,4,22,null,,,,,,,,,<p style='font-size: 30px;'><strong>Okay</strong></p>,null,neutral_feedback,2,test,48,,,,,,,,,,,,,,,,,,,,,,,,
,,,,,,,,,,,html-button-response,370,2.0.0,777414,64d53aae0f3f7317f6eb617e,4,22,,,,,,,,,,,,cycle_feedback,,,,,,,,,,,,,,,,,,,,,,,,5006.4,3352,,
,,,,,,,,,,,html-button-response,372,2.0.0,779306,64d53aae0f3f7317f6eb617e,4,22,1891,,,,,,,,,,0,start_train,,,,,,,,,,,,,,,,,,,,,,,,,,,
,,,,,,,,,,,html-button-response,374,2.0.0,782920,64d53aae0f3f7317f6eb617e,4,22,3613,,,,,,,,,"<img src= ""rock_img/I_Andesite_09.jpg"" style=""width:8cm; height:6cm;""><p>What type of rock is this?</p>",1,class_response,3,train,1,Basalt,Andesite,9,FALSE,2,1,,,,,,,,,,,,,,,,,,
,,,,,,,,,,,html-button-response,375,2.0.0,784250,64d53aae0f3f7317f6eb617e,4,22,1329,,,,,,,,,"<img src= rock_img/I_Andesite_09.jpg style=""width:8cm; height:6cm;""><p style='font-size: 30px; color: red;'><strong>Incorrect!</strong></p><p style='font-size: 30px;'><strong>This rock is andesite</strong></p>",0,corr_feedback,3,train,1,,,,,,,,,,,,,,,,,,,,,,,,
,,,,,,,,,,,html-button-response,376,2.0.0,785502,64d53aae0f3f7317f6eb617e,4,22,1251,,,,,,,,,"<img src= ""rock_img/I_Pumice_03.jpg"" style=""width:8cm; height:6.64cm;""><p>What type of rock is this?</p>",7,class_response,3,train,2,Pumice,Pumice,3,TRUE,8,8,,,,,,,,,,,,,,,,,,
,,,,,,,,,,,html-button-response,377,2.0.0,786510,64d53aae0f3f7317f6eb617e,4,22,1007,,,,,,,,,"<img src= rock_img/I_Pumice_03.jpg style=""width:8cm; height:6.64cm;""><p style='font-size: 30px; color: green;'><strong>Correct!</strong></p><p style='font-size: 30px;'><strong>This rock is pumice</strong></p>",0,corr_feedback,3,train,2,,,,,,,,,,,,,,,,,,,,,,,,
,,,,,,,,,,,html-button-response,378,2.0.0,788362,64d53aae0f3f7317f6eb617e,4,22,1851,,,,,,,,,"<img src= ""rock_img/I_Gabbro_01.jpg"" style=""width:8cm; height:5.21cm;""><p>What type of rock is this?</p>",3,class_response,3,train,3,Gabbro,Gabbro,1,TRUE,4,4,,,,,,,,,,,,,,,,,,
,,,,,,,,,,,html-button-response,379,2.0.0,789718,64d53aae0f3f7317f6eb617e,4,22,1355,,,,,,,,,"<img src= rock_img/I_Gabbro_01.jpg style=""width:8cm; height:5.21cm;""><p style='font-size: 30px; color: green;'><strong>Correct!</strong></p><p style='font-size: 30px;'><strong>This rock is gabbro</strong></p>",0,corr_feedback,3,train,3,,,,,,,,,,,,,,,,,,,,,,,,
,,,,,,,,,,,html-button-response,380,2.0.0,791452,64d53aae0f3f7317f6eb617e,4,22,1733,,,,,,,,,"<img src= ""rock_img/I_Diorite_13.jpg"" style=""width:8cm; height:6.29cm;""><p>What type of rock is this?</p>",5,class_response,3,train,4,Pegmatite,Diorite,13,FALSE,6,3,,,,,,,,,,,,,,,,,,
,,,,,,,,,,,html-button-response,381,2.0.0,792594,64d53aae0f3f7317f6eb617e,4,22,1141,,,,,,,,,"<img src= rock_img/I_Diorite_13.jpg style=""width:8cm; height:6.29cm;""><p style='font-size: 30px; color: red;'><strong>Incorrect!</strong></p><p style='font-size: 30px;'><strong>This rock is diorite</strong></p>",0,corr_feedback,3,train,4,,,,,,,,,,,,,,,,,,,,,,,,
,,,,,,,,,,,html-button-response,382,2.0.0,793994,64d53aae0f3f7317f6eb617e,4,22,1399,,,,,,,,,"<img src= ""rock_img/I_Peridotite_05.jpg"" style=""width:8cm; height:7.1499999999999995cm;""><p>What type of rock is this?</p>",1,class_response,3,train,5,Basalt,Peridotite,5,FALSE,2,7,,,,,,,,,,,,,,,,,,
,,,,,,,,,,,html-button-response,383,2.0.0,795368,64d53aae0f3f7317f6eb617e,4,22,1373,,,,,,,,,"<img src= rock_img/I_Peridotite_05.jpg style=""width:8cm; height:7.1499999999999995cm;""><p style='font-size: 30px; color: red;'><strong>Incorrect!</strong></p><p style='font-size: 30px;'><strong>This rock is peridotite</strong></p>",0,corr_feedback,3,train,5,,,,,,,,,,,,,,,,,,,,,,,,
,,,,,,,,,,,html-button-response,384,2.0.0,796780,64d53aae0f3f7317f6eb617e,4,22,1411,,,,,,,,,"<img src= ""rock_img/I_Pumice_13.jpg"" style=""width:8cm; height:8.200000000000001cm;""><p>What type of rock is this?</p>",7,class_response,3,train,6,Pumice,Pumice,13,TRUE,8,8,,,,,,,,,,,,,,,,,,
,,,,,,,,,,,html-button-response,385,2.0.0,797808,64d53aae0f3f7317f6eb617e,4,22,1027,,,,,,,,,"<img src= rock_img/I_Pumice_13.jpg style=""width:8cm; height:8.200000000000001cm;""><p style='font-size: 30px; color: green;'><strong>Correct!</strong></p><p style='font-size: 30px;'><strong>This rock is pumice</strong></p>",0,corr_feedback,3,train,6,,,,,,,,,,,,,,,,,,,,,,,,
,,,,,,,,,,,html-button-response,386,2.0.0,798728,64d53aae0f3f7317f6eb617e,4,22,919,,,,,,,,,"<img src= ""rock_img/I_Obsidian_04.jpg"" style=""width:8cm; height:6.930000000000001cm;""><p>What type of rock is this?</p>",4,class_response,3,train,7,Obsidian,Obsidian,4,TRUE,5,5,,,,,,,,,,,,,,,,,,
,,,,,,,,,,,html-button-response,387,2.0.0,799868,64d53aae0f3f7317f6eb617e,4,22,1139,,,,,,,,,"<img src= rock_img/I_Obsidian_04.jpg style=""width:8cm; height:6.930000000000001cm;""><p style='font-size: 30px; color: green;'><strong>Correct!</strong></p><p style='font-size: 30px;'><strong>This rock is obsidian</strong></p>",0,corr_feedback,3,train,7,,,,,,,,,,,,,,,,,,,,,,,,
,,,,,,,,,,,html-button-response,388,2.0.0,802226,64d53aae0f3f7317f6eb617e,4,22,2357,,,,,,,,,"<img src= ""rock_img/I_Peridotite_15.jpg"" style=""width:8cm; height:6cm;""><p>What type of rock is this?</p>",2,class_response,3,train,8,Diorite,Peridotite,15,FALSE,3,7,,,,,,,,,,,,,,,,,,
,,,,,,,,,,,html-button-response,389,2.0.0,803154,64d53aae0f3f7317f6eb617e,4,22,927,,,,,,,,,"<img src= rock_img/I_Peridotite_15.jpg style=""width:8cm; height:6cm;""><p style='font-size: 30px; color: red;'><strong>Incorrect!</strong></p><p style='font-size: 30px;'><strong>This rock is peridotite</strong></p>",0,corr_feedback,3,train,8,,,,,,,,,,,,,,,,,,,,,,,,
,,,,,,,,,,,html-button-response,390,2.0.0,804512,64d53aae0f3f7317f6eb617e,4,22,1357,,,,,,,,,"<img src= ""rock_img/I_Basalt_14.jpg"" style=""width:8cm; height:5.82cm;""><p>What type of rock is this?</p>",1,class_response,3,train,9,Basalt,Basalt,14,TRUE,2,2,,,,,,,,,,,,,,,,,,
,,,,,,,,,,,html-button-response,391,2.0.0,805750,64d53aae0f3f7317f6eb617e,4,22,1237,,,,,,,,,"<img src= rock_img/I_Basalt_14.jpg style=""width:8cm; height:5.82cm;""><p style='font-size: 30px; color: green;'><strong>Correct!</strong></p><p style='font-size: 30px;'><strong>This rock is basalt</strong></p>",0,corr_feedback,3,train,9,,,,,,,,,,,,,,,,,,,,,,,,
,,,,,,,,,,,html-button-response,392,2.0.0,807400,64d53aae0f3f7317f6eb617e,4,22,1649,,,,,,,,,"<img src= ""rock_img/I_Andesite_10.jpg"" style=""width:8cm; height:4.16cm;""><p>What type of rock is this?</p>",3,class_response,3,train,10,Gabbro,Andesite,10,FALSE,4,1,,,,,,,,,,,,,,,,,,
,,,,,,,,,,,html-button-response,393,2.0.0,808314,64d53aae0f3f7317f6eb617e,4,22,913,,,,,,,,,"<img src= rock_img/I_Andesite_10.jpg style=""width:8cm; height:4.16cm;""><p style='font-size: 30px; color: red;'><strong>Incorrect!</strong></p><p style='font-size: 30px;'><strong>This rock is andesite</strong></p>",0,corr_feedback,3,train,10,,,,,,,,,,,,,,,,,,,,,,,,
,,,,,,,,,,,html-button-response,394,2.0.0,809768,64d53aae0f3f7317f6eb617e,4,22,1453,,,,,,,,,"<img src= ""rock_img/I_Diorite_07.jpg"" style=""width:8cm; height:5.239999999999999cm;""><p>What type of rock is this?</p>",5,class_response,3,train,11,Pegmatite,Diorite,7,FALSE,6,3,,,,,,,,,,,,,,,,,,
,,,,,,,,,,,html-button-response,395,2.0.0,810782,64d53aae0f3f7317f6eb617e,4,22,1013,,,,,,,,,"<img src= rock_img/I_Diorite_07.jpg style=""width:8cm; height:5.239999999999999cm;""><p style='font-size: 30px; color: red;'><strong>Incorrect!</strong></p><p style='font-size: 30px;'><strong>This rock is diorite</strong></p>",0,corr_feedback,3,train,11,,,,,,,,,,,,,,,,,,,,,,,,
,,,,,,,,,,,html-button-response,396,2.0.0,811696,64d53aae0f3f7317f6eb617e,4,22,913,,,,,,,,,"<img src= ""rock_img/I_Pegmatite_15.jpg"" style=""width:8cm; height:6cm;""><p>What type of rock is this?</p>",5,class_response,3,train,12,Pegmatite,Pegmatite,15,TRUE,6,6,,,,,,,,,,,,,,,,,,
,,,,,,,,,,,html-button-response,397,2.0.0,812410,64d53aae0f3f7317f6eb617e,4,22,713,,,,,,,,,"<img src= rock_img/I_Pegmatite_15.jpg style=""width:8cm; height:6cm;""><p style='font-size: 30px; color: green;'><strong>Correct!</strong></p><p style='font-size: 30px;'><strong>This rock is pegmatite</strong></p>",0,corr_feedback,3,train,12,,,,,,,,,,,,,,,,,,,,,,,,
,,,,,,,,,,,html-button-response,399,2.0.0,813764,64d53aae0f3f7317f6eb617e,4,22,1353,,,,,,,,,,0,start_train,,,,,,,,,,,,,,,,,,,,,,,,,,,
,,,,,,,,,,,html-button-response,400,2.0.0,817934,64d53aae0f3f7317f6eb617e,4,22,,,,,,,,,,,,cat_selection,3,train,1,,,,,,,2707.4,1462,1,2,Andesite,Basalt,,,,,,,,,,,,
,,,,,,,,,,,paired-cat-display,401,1.0.0,848746,64d53aae0f3f7317f6eb617e,4,22,,,,,,,,,,,,paired_cat_display,3,train,1,,,,,,,,,,,,,,,6918.3,23891.7,grey and chalky,,,,,,,grey with polka dots
,,,,,,,,,,,html-button-response,402,2.0.0,852140,64d53aae0f3f7317f6eb617e,4,22,,,,,,,,,,,,cat_selection,3,train,2,,,,,,,2649.3,743.8,7,6,Peridotite,Pegmatite,,,,,,,,,,,,
,,,,,,,,,,,paired-cat-display,403,1.0.0,867706,64d53aae0f3f7317f6eb617e,4,22,,,,,,,,,,,,paired_cat_display,3,train,2,,,,,,,,,,,,,big bold stripes,green tones in the colors,6096.8,9467.7,,,,,,,,
,,,,,,,,,,,html-button-response,404,2.0.0,871346,64d53aae0f3f7317f6eb617e,4,22,,,,,,,,,,,,cat_selection,3,train,3,,,,,,,2415.2,1224,3,8,Diorite,Pumice,,,,,,,,,,,,
,,,,,,,,,,,paired-cat-display,405,1.0.0,890882,64d53aae0f3f7317f6eb617e,4,22,,,,,,,,,,,,paired_cat_display,3,train,3,,,,,,,,,,,,,,,6176.8,13358.1,,,,speckled rocks with dots,,,foot scrubbing stone,
,,,,,,,,,,,html-button-response,407,2.0.0,892917,64d53aae0f3f7317f6eb617e,4,22,2034,,,,,,,,,,0,start_test,,,,,,,,,,,,,,,,,,,,,,,,,,,
