width,height,webaudio,browser,browser_version,mobile,os,fullscreen,vsync_rate,webcam,microphone,trial_type,trial_index,plugin_version,time_elapsed,subjID,condition,stimID,rt,url,success,value,timeout,failed_images,failed_audio,failed_video,view_history,stimulus,response,trialType,cycle,phase,trial,resp,cat,token,corr,resp_num,cat_num,ref_cat_num,paired_cat_num,time_obs,ref_cat,paired_cat,ref_prob_dist,paired_prob_dist,text_Basalt,text_Pegmatite,time_resp,text_Diorite,text_Gabbro,text_Pumice,time_fb1,time_fb2,text_Peridotite,text_Andesite
1272,674,TRUE,edge-chromium,131.0.0,FALSE,Windows 10,TRUE,60.51,TRUE,TRUE,browser-check,0,2.0.0,1011,6703aeb136ffd366f9c531d4,3,16,,,,,,,,,,,,,,,,,,,,,,,,,,,,,,,,,,,,,,
,,,,,,,,,,,external-html,1,2.0.0,24181,6703aeb136ffd366f9c531d4,3,16,23112,consent_form.html,,,,,,,,,,,,,,,,,,,,,,,,,,,,,,,,,,,,
,,,,,,,,,,,fullscreen,2,2.0.0,35162,6703aeb136ffd366f9c531d4,3,16,9976,,TRUE,,,,,,,,,,,,,,,,,,,,,,,,,,,,,,,,,,,
,,,,,,,,,,,call-function,3,2.0.0,35163,6703aeb136ffd366f9c531d4,3,16,,,,{},,,,,,,,,,,,,,,,,,,,,,,,,,,,,,,,,,
,,,,,,,,,,,preload,4,2.0.0,36852,6703aeb136ffd366f9c531d4,3,16,,,TRUE,,FALSE,[],[],[],,,,,,,,,,,,,,,,,,,,,,,,,,,,,,
,,,,,,,,,,,instructions,5,2.0.0,71262,6703aeb136ffd366f9c531d4,3,16,34408,,,,,,,,"[{""page_index"":0,""viewing_time"":10434},{""page_index"":1,""viewing_time"":13485},{""page_index"":2,""viewing_time"":10489}]",,,,,,,,,,,,,,,,,,,,,,,,,,,,,
,,,,,,,,,,,html-button-response,6,2.0.0,73581,6703aeb136ffd366f9c531d4,3,16,2317,,,,,,,,,,0,start_test,,,,,,,,,,,,,,,,,,,,,,,,,,
,,,,,,,,,,,html-button-response,7,2.0.0,79401,6703aeb136ffd366f9c531d4,3,16,5817,,,,,,,,,"<img src= ""rock_img/I_Basalt_01.jpg"" style=""width:8cm; height:7.880000000000001cm;""><p>What type of rock is this?</p>",6,class_response,0,test,1,Peridotite,Basalt,1,FALSE,7,2,,,,,,,,,,,,,,,,,
,,,,,,,,,,,html-keyboard-response,8,2.0.0,79904,6703aeb136ffd366f9c531d4,3,16,null,,,,,,,,,<p style='font-size: 30px;'><strong>Okay</strong></p>,null,neutral_feedback,0,test,1,,,,,,,,,,,,,,,,,,,,,,,
,,,,,,,,,,,html-button-response,9,2.0.0,87330,6703aeb136ffd366f9c531d4,3,16,7422,,,,,,,,,"<img src= ""rock_img/I_Gabbro_14.jpg"" style=""width:8cm; height:8.48cm;""><p>What type of rock is this?</p>",1,class_response,0,test,2,Basalt,Gabbro,14,FALSE,2,4,,,,,,,,,,,,,,,,,
,,,,,,,,,,,html-keyboard-response,10,2.0.0,87842,6703aeb136ffd366f9c531d4,3,16,null,,,,,,,,,<p style='font-size: 30px;'><strong>Okay</strong></p>,null,neutral_feedback,0,test,2,,,,,,,,,,,,,,,,,,,,,,,
,,,,,,,,,,,html-button-response,11,2.0.0,93022,6703aeb136ffd366f9c531d4,3,16,5178,,,,,,,,,"<img src= ""rock_img/I_Andesite_01.jpg"" style=""width:8cm; height:5.87cm;""><p>What type of rock is this?</p>",0,class_response,0,test,3,Andesite,Andesite,1,TRUE,1,1,,,,,,,,,,,,,,,,,
,,,,,,,,,,,html-keyboard-response,12,2.0.0,93525,6703aeb136ffd366f9c531d4,3,16,null,,,,,,,,,<p style='font-size: 30px;'><strong>Okay</strong></p>,null,neutral_feedback,0,test,3,,,,,,,,,,,,,,,,,,,,,,,
,,,,,,,,,,,html-button-response,13,2.0.0,96064,6703aeb136ffd366f9c531d4,3,16,2536,,,,,,,,,"<img src= ""rock_img/I_Pegmatite_15.jpg"" style=""width:8cm; height:6cm;""><p>What type of rock is this?</p>",1,class_response,0,test,4,Basalt,Pegmatite,15,FALSE,2,6,,,,,,,,,,,,,,,,,
,,,,,,,,,,,html-keyboard-response,14,2.0.0,96569,6703aeb136ffd366f9c531d4,3,16,null,,,,,,,,,<p style='font-size: 30px;'><strong>Okay</strong></p>,null,neutral_feedback,0,test,4,,,,,,,,,,,,,,,,,,,,,,,
,,,,,,,,,,,html-button-response,15,2.0.0,102064,6703aeb136ffd366f9c531d4,3,16,5491,,,,,,,,,"<img src= ""rock_img/I_Peridotite_05.jpg"" style=""width:8cm; height:7.1499999999999995cm;""><p>What type of rock is this?</p>",3,class_response,0,test,5,Gabbro,Peridotite,5,FALSE,4,7,,,,,,,,,,,,,,,,,
,,,,,,,,,,,html-keyboard-response,16,2.0.0,102567,6703aeb136ffd366f9c531d4,3,16,null,,,,,,,,,<p style='font-size: 30px;'><strong>Okay</strong></p>,null,neutral_feedback,0,test,5,,,,,,,,,,,,,,,,,,,,,,,
,,,,,,,,,,,html-button-response,17,2.0.0,105965,6703aeb136ffd366f9c531d4,3,16,3396,,,,,,,,,"<img src= ""rock_img/I_Diorite_11.jpg"" style=""width:8cm; height:7.11cm;""><p>What type of rock is this?</p>",2,class_response,0,test,6,Diorite,Diorite,11,TRUE,3,3,,,,,,,,,,,,,,,,,
,,,,,,,,,,,html-keyboard-response,18,2.0.0,106477,6703aeb136ffd366f9c531d4,3,16,null,,,,,,,,,<p style='font-size: 30px;'><strong>Okay</strong></p>,null,neutral_feedback,0,test,6,,,,,,,,,,,,,,,,,,,,,,,
,,,,,,,,,,,html-button-response,19,2.0.0,109049,6703aeb136ffd366f9c531d4,3,16,2570,,,,,,,,,"<img src= ""rock_img/I_Pumice_05.jpg"" style=""width:8cm; height:7.25cm;""><p>What type of rock is this?</p>",7,class_response,0,test,7,Pumice,Pumice,5,TRUE,8,8,,,,,,,,,,,,,,,,,
,,,,,,,,,,,html-keyboard-response,20,2.0.0,109563,6703aeb136ffd366f9c531d4,3,16,null,,,,,,,,,<p style='font-size: 30px;'><strong>Okay</strong></p>,null,neutral_feedback,0,test,7,,,,,,,,,,,,,,,,,,,,,,,
,,,,,,,,,,,html-button-response,21,2.0.0,112610,6703aeb136ffd366f9c531d4,3,16,3043,,,,,,,,,"<img src= ""rock_img/I_Pegmatite_09.jpg"" style=""width:8cm; height:4.03cm;""><p>What type of rock is this?</p>",5,class_response,0,test,8,Pegmatite,Pegmatite,9,TRUE,6,6,,,,,,,,,,,,,,,,,
,,,,,,,,,,,html-keyboard-response,22,2.0.0,113127,6703aeb136ffd366f9c531d4,3,16,null,,,,,,,,,<p style='font-size: 30px;'><strong>Okay</strong></p>,null,neutral_feedback,0,test,8,,,,,,,,,,,,,,,,,,,,,,,
,,,,,,,,,,,html-button-response,23,2.0.0,117118,6703aeb136ffd366f9c531d4,3,16,3987,,,,,,,,,"<img src= ""rock_img/I_Pumice_09.jpg"" style=""width:8cm; height:6.44cm;""><p>What type of rock is this?</p>",7,class_response,0,test,9,Pumice,Pumice,9,TRUE,8,8,,,,,,,,,,,,,,,,,
,,,,,,,,,,,html-keyboard-response,24,2.0.0,117622,6703aeb136ffd366f9c531d4,3,16,null,,,,,,,,,<p style='font-size: 30px;'><strong>Okay</strong></p>,null,neutral_feedback,0,test,9,,,,,,,,,,,,,,,,,,,,,,,
,,,,,,,,,,,html-button-response,25,2.0.0,119526,6703aeb136ffd366f9c531d4,3,16,1901,,,,,,,,,"<img src= ""rock_img/I_Obsidian_06.jpg"" style=""width:8cm; height:6.8cm;""><p>What type of rock is this?</p>",4,class_response,0,test,10,Obsidian,Obsidian,6,TRUE,5,5,,,,,,,,,,,,,,,,,
,,,,,,,,,,,html-keyboard-response,26,2.0.0,120035,6703aeb136ffd366f9c531d4,3,16,null,,,,,,,,,<p style='font-size: 30px;'><strong>Okay</strong></p>,null,neutral_feedback,0,test,10,,,,,,,,,,,,,,,,,,,,,,,
,,,,,,,,,,,html-button-response,27,2.0.0,125073,6703aeb136ffd366f9c531d4,3,16,5035,,,,,,,,,"<img src= ""rock_img/I_Peridotite_16.jpg"" style=""width:8cm; height:6.989999999999999cm;""><p>What type of rock is this?</p>",4,class_response,0,test,11,Obsidian,Peridotite,16,FALSE,5,7,,,,,,,,,,,,,,,,,
,,,,,,,,,,,html-keyboard-response,28,2.0.0,125589,6703aeb136ffd366f9c531d4,3,16,null,,,,,,,,,<p style='font-size: 30px;'><strong>Okay</strong></p>,null,neutral_feedback,0,test,11,,,,,,,,,,,,,,,,,,,,,,,
,,,,,,,,,,,html-button-response,29,2.0.0,127466,6703aeb136ffd366f9c531d4,3,16,1873,,,,,,,,,"<img src= ""rock_img/I_Andesite_09.jpg"" style=""width:8cm; height:6cm;""><p>What type of rock is this?</p>",2,class_response,0,test,12,Diorite,Andesite,9,FALSE,3,1,,,,,,,,,,,,,,,,,
,,,,,,,,,,,html-keyboard-response,30,2.0.0,127977,6703aeb136ffd366f9c531d4,3,16,null,,,,,,,,,<p style='font-size: 30px;'><strong>Okay</strong></p>,null,neutral_feedback,0,test,12,,,,,,,,,,,,,,,,,,,,,,,
,,,,,,,,,,,html-button-response,31,2.0.0,129973,6703aeb136ffd366f9c531d4,3,16,1993,,,,,,,,,"<img src= ""rock_img/I_Gabbro_01.jpg"" style=""width:8cm; height:5.21cm;""><p>What type of rock is this?</p>",2,class_response,0,test,13,Diorite,Gabbro,1,FALSE,3,4,,,,,,,,,,,,,,,,,
,,,,,,,,,,,html-keyboard-response,32,2.0.0,130488,6703aeb136ffd366f9c531d4,3,16,null,,,,,,,,,<p style='font-size: 30px;'><strong>Okay</strong></p>,null,neutral_feedback,0,test,13,,,,,,,,,,,,,,,,,,,,,,,
,,,,,,,,,,,html-button-response,33,2.0.0,135327,6703aeb136ffd366f9c531d4,3,16,4837,,,,,,,,,"<img src= ""rock_img/I_Gabbro_12.jpg"" style=""width:8cm; height:7.800000000000001cm;""><p>What type of rock is this?</p>",2,class_response,0,test,14,Diorite,Gabbro,12,FALSE,3,4,,,,,,,,,,,,,,,,,
,,,,,,,,,,,html-keyboard-response,34,2.0.0,135839,6703aeb136ffd366f9c531d4,3,16,null,,,,,,,,,<p style='font-size: 30px;'><strong>Okay</strong></p>,null,neutral_feedback,0,test,14,,,,,,,,,,,,,,,,,,,,,,,
,,,,,,,,,,,html-button-response,35,2.0.0,137814,6703aeb136ffd366f9c531d4,3,16,1971,,,,,,,,,"<img src= ""rock_img/I_Peridotite_13.jpg"" style=""width:8cm; height:7.58cm;""><p>What type of rock is this?</p>",3,class_response,0,test,15,Gabbro,Peridotite,13,FALSE,4,7,,,,,,,,,,,,,,,,,
,,,,,,,,,,,html-keyboard-response,36,2.0.0,138329,6703aeb136ffd366f9c531d4,3,16,null,,,,,,,,,<p style='font-size: 30px;'><strong>Okay</strong></p>,null,neutral_feedback,0,test,15,,,,,,,,,,,,,,,,,,,,,,,
,,,,,,,,,,,html-button-response,37,2.0.0,142759,6703aeb136ffd366f9c531d4,3,16,4426,,,,,,,,,"<img src= ""rock_img/I_Basalt_09.jpg"" style=""width:8cm; height:6.2cm;""><p>What type of rock is this?</p>",0,class_response,0,test,16,Andesite,Basalt,9,FALSE,1,2,,,,,,,,,,,,,,,,,
,,,,,,,,,,,html-keyboard-response,38,2.0.0,143275,6703aeb136ffd366f9c531d4,3,16,null,,,,,,,,,<p style='font-size: 30px;'><strong>Okay</strong></p>,null,neutral_feedback,0,test,16,,,,,,,,,,,,,,,,,,,,,,,
,,,,,,,,,,,html-button-response,39,2.0.0,145487,6703aeb136ffd366f9c531d4,3,16,2209,,,,,,,,,"<img src= ""rock_img/I_Andesite_11.jpg"" style=""width:8cm; height:4.92cm;""><p>What type of rock is this?</p>",1,class_response,0,test,17,Basalt,Andesite,11,FALSE,2,1,,,,,,,,,,,,,,,,,
,,,,,,,,,,,html-keyboard-response,40,2.0.0,146005,6703aeb136ffd366f9c531d4,3,16,null,,,,,,,,,<p style='font-size: 30px;'><strong>Okay</strong></p>,null,neutral_feedback,0,test,17,,,,,,,,,,,,,,,,,,,,,,,
,,,,,,,,,,,html-button-response,41,2.0.0,151646,6703aeb136ffd366f9c531d4,3,16,5639,,,,,,,,,"<img src= ""rock_img/I_Gabbro_05.jpg"" style=""width:8cm; height:6cm;""><p>What type of rock is this?</p>",1,class_response,0,test,18,Basalt,Gabbro,5,FALSE,2,4,,,,,,,,,,,,,,,,,
,,,,,,,,,,,html-keyboard-response,42,2.0.0,152148,6703aeb136ffd366f9c531d4,3,16,null,,,,,,,,,<p style='font-size: 30px;'><strong>Okay</strong></p>,null,neutral_feedback,0,test,18,,,,,,,,,,,,,,,,,,,,,,,
,,,,,,,,,,,html-button-response,43,2.0.0,153660,6703aeb136ffd366f9c531d4,3,16,1509,,,,,,,,,"<img src= ""rock_img/I_Gabbro_09.jpg"" style=""width:8cm; height:7.279999999999999cm;""><p>What type of rock is this?</p>",4,class_response,0,test,19,Obsidian,Gabbro,9,FALSE,5,4,,,,,,,,,,,,,,,,,
,,,,,,,,,,,html-keyboard-response,44,2.0.0,154173,6703aeb136ffd366f9c531d4,3,16,null,,,,,,,,,<p style='font-size: 30px;'><strong>Okay</strong></p>,null,neutral_feedback,0,test,19,,,,,,,,,,,,,,,,,,,,,,,
,,,,,,,,,,,html-button-response,45,2.0.0,157035,6703aeb136ffd366f9c531d4,3,16,2860,,,,,,,,,"<img src= ""rock_img/I_Diorite_15.jpg"" style=""width:8cm; height:5.54cm;""><p>What type of rock is this?</p>",2,class_response,0,test,20,Diorite,Diorite,15,TRUE,3,3,,,,,,,,,,,,,,,,,
,,,,,,,,,,,html-keyboard-response,46,2.0.0,157551,6703aeb136ffd366f9c531d4,3,16,null,,,,,,,,,<p style='font-size: 30px;'><strong>Okay</strong></p>,null,neutral_feedback,0,test,20,,,,,,,,,,,,,,,,,,,,,,,
,,,,,,,,,,,html-button-response,47,2.0.0,160330,6703aeb136ffd366f9c531d4,3,16,2775,,,,,,,,,"<img src= ""rock_img/I_Pegmatite_11.jpg"" style=""width:8cm; height:8.14cm;""><p>What type of rock is this?</p>",1,class_response,0,test,21,Basalt,Pegmatite,11,FALSE,2,6,,,,,,,,,,,,,,,,,
,,,,,,,,,,,html-keyboard-response,48,2.0.0,160835,6703aeb136ffd366f9c531d4,3,16,null,,,,,,,,,<p style='font-size: 30px;'><strong>Okay</strong></p>,null,neutral_feedback,0,test,21,,,,,,,,,,,,,,,,,,,,,,,
,,,,,,,,,,,html-button-response,49,2.0.0,163622,6703aeb136ffd366f9c531d4,3,16,2784,,,,,,,,,"<img src= ""rock_img/I_Diorite_12.jpg"" style=""width:8cm; height:4.88cm;""><p>What type of rock is this?</p>",0,class_response,0,test,22,Andesite,Diorite,12,FALSE,1,3,,,,,,,,,,,,,,,,,
,,,,,,,,,,,html-keyboard-response,50,2.0.0,164137,6703aeb136ffd366f9c531d4,3,16,null,,,,,,,,,<p style='font-size: 30px;'><strong>Okay</strong></p>,null,neutral_feedback,0,test,22,,,,,,,,,,,,,,,,,,,,,,,
,,,,,,,,,,,html-button-response,51,2.0.0,169326,6703aeb136ffd366f9c531d4,3,16,5185,,,,,,,,,"<img src= ""rock_img/I_Diorite_08.jpg"" style=""width:8cm; height:6.37cm;""><p>What type of rock is this?</p>",6,class_response,0,test,23,Peridotite,Diorite,8,FALSE,7,3,,,,,,,,,,,,,,,,,
,,,,,,,,,,,html-keyboard-response,52,2.0.0,169844,6703aeb136ffd366f9c531d4,3,16,null,,,,,,,,,<p style='font-size: 30px;'><strong>Okay</strong></p>,null,neutral_feedback,0,test,23,,,,,,,,,,,,,,,,,,,,,,,
,,,,,,,,,,,html-button-response,53,2.0.0,173490,6703aeb136ffd366f9c531d4,3,16,3644,,,,,,,,,"<img src= ""rock_img/I_Pegmatite_13.jpg"" style=""width:8cm; height:4.95cm;""><p>What type of rock is this?</p>",2,class_response,0,test,24,Diorite,Pegmatite,13,FALSE,3,6,,,,,,,,,,,,,,,,,
,,,,,,,,,,,html-keyboard-response,54,2.0.0,173992,6703aeb136ffd366f9c531d4,3,16,null,,,,,,,,,<p style='font-size: 30px;'><strong>Okay</strong></p>,null,neutral_feedback,0,test,24,,,,,,,,,,,,,,,,,,,,,,,
,,,,,,,,,,,html-button-response,55,2.0.0,175832,6703aeb136ffd366f9c531d4,3,16,1838,,,,,,,,,"<img src= ""rock_img/I_Pegmatite_06.jpg"" style=""width:8cm; height:5.17cm;""><p>What type of rock is this?</p>",1,class_response,0,test,25,Basalt,Pegmatite,6,FALSE,2,6,,,,,,,,,,,,,,,,,
,,,,,,,,,,,html-keyboard-response,56,2.0.0,176333,6703aeb136ffd366f9c531d4,3,16,null,,,,,,,,,<p style='font-size: 30px;'><strong>Okay</strong></p>,null,neutral_feedback,0,test,25,,,,,,,,,,,,,,,,,,,,,,,
,,,,,,,,,,,html-button-response,57,2.0.0,179363,6703aeb136ffd366f9c531d4,3,16,3027,,,,,,,,,"<img src= ""rock_img/I_Andesite_10.jpg"" style=""width:8cm; height:4.16cm;""><p>What type of rock is this?</p>",0,class_response,0,test,26,Andesite,Andesite,10,TRUE,1,1,,,,,,,,,,,,,,,,,
,,,,,,,,,,,html-keyboard-response,58,2.0.0,179864,6703aeb136ffd366f9c531d4,3,16,null,,,,,,,,,<p style='font-size: 30px;'><strong>Okay</strong></p>,null,neutral_feedback,0,test,26,,,,,,,,,,,,,,,,,,,,,,,
,,,,,,,,,,,html-button-response,59,2.0.0,184552,6703aeb136ffd366f9c531d4,3,16,4685,,,,,,,,,"<img src= ""rock_img/I_Gabbro_08.jpg"" style=""width:8cm; height:5.15cm;""><p>What type of rock is this?</p>",2,class_response,0,test,27,Diorite,Gabbro,8,FALSE,3,4,,,,,,,,,,,,,,,,,
,,,,,,,,,,,html-keyboard-response,60,2.0.0,185058,6703aeb136ffd366f9c531d4,3,16,null,,,,,,,,,<p style='font-size: 30px;'><strong>Okay</strong></p>,null,neutral_feedback,0,test,27,,,,,,,,,,,,,,,,,,,,,,,
,,,,,,,,,,,html-button-response,61,2.0.0,186598,6703aeb136ffd366f9c531d4,3,16,1539,,,,,,,,,"<img src= ""rock_img/I_Obsidian_09.jpg"" style=""width:8cm; height:5cm;""><p>What type of rock is this?</p>",4,class_response,0,test,28,Obsidian,Obsidian,9,TRUE,5,5,,,,,,,,,,,,,,,,,
,,,,,,,,,,,html-keyboard-response,62,2.0.0,187107,6703aeb136ffd366f9c531d4,3,16,null,,,,,,,,,<p style='font-size: 30px;'><strong>Okay</strong></p>,null,neutral_feedback,0,test,28,,,,,,,,,,,,,,,,,,,,,,,
,,,,,,,,,,,html-button-response,63,2.0.0,190345,6703aeb136ffd366f9c531d4,3,16,3234,,,,,,,,,"<img src= ""rock_img/I_Andesite_05.jpg"" style=""width:8cm; height:4.12cm;""><p>What type of rock is this?</p>",2,class_response,0,test,29,Diorite,Andesite,5,FALSE,3,1,,,,,,,,,,,,,,,,,
,,,,,,,,,,,html-keyboard-response,64,2.0.0,190859,6703aeb136ffd366f9c531d4,3,16,null,,,,,,,,,<p style='font-size: 30px;'><strong>Okay</strong></p>,null,neutral_feedback,0,test,29,,,,,,,,,,,,,,,,,,,,,,,
,,,,,,,,,,,html-button-response,65,2.0.0,192626,6703aeb136ffd366f9c531d4,3,16,1765,,,,,,,,,"<img src= ""rock_img/I_Pumice_06.jpg"" style=""width:8cm; height:6.9399999999999995cm;""><p>What type of rock is this?</p>",1,class_response,0,test,30,Basalt,Pumice,6,FALSE,2,8,,,,,,,,,,,,,,,,,
,,,,,,,,,,,html-keyboard-response,66,2.0.0,193144,6703aeb136ffd366f9c531d4,3,16,null,,,,,,,,,<p style='font-size: 30px;'><strong>Okay</strong></p>,null,neutral_feedback,0,test,30,,,,,,,,,,,,,,,,,,,,,,,
,,,,,,,,,,,html-button-response,67,2.0.0,194738,6703aeb136ffd366f9c531d4,3,16,1591,,,,,,,,,"<img src= ""rock_img/I_Obsidian_11.jpg"" style=""width:8cm; height:6.05cm;""><p>What type of rock is this?</p>",4,class_response,0,test,31,Obsidian,Obsidian,11,TRUE,5,5,,,,,,,,,,,,,,,,,
,,,,,,,,,,,html-keyboard-response,68,2.0.0,195247,6703aeb136ffd366f9c531d4,3,16,null,,,,,,,,,<p style='font-size: 30px;'><strong>Okay</strong></p>,null,neutral_feedback,0,test,31,,,,,,,,,,,,,,,,,,,,,,,
,,,,,,,,,,,html-button-response,69,2.0.0,198880,6703aeb136ffd366f9c531d4,3,16,3629,,,,,,,,,"<img src= ""rock_img/I_Diorite_10.jpg"" style=""width:8cm; height:5.949999999999999cm;""><p>What type of rock is this?</p>",6,class_response,0,test,32,Peridotite,Diorite,10,FALSE,7,3,,,,,,,,,,,,,,,,,
,,,,,,,,,,,html-keyboard-response,70,2.0.0,199393,6703aeb136ffd366f9c531d4,3,16,null,,,,,,,,,<p style='font-size: 30px;'><strong>Okay</strong></p>,null,neutral_feedback,0,test,32,,,,,,,,,,,,,,,,,,,,,,,
,,,,,,,,,,,html-button-response,71,2.0.0,203105,6703aeb136ffd366f9c531d4,3,16,3710,,,,,,,,,"<img src= ""rock_img/I_Peridotite_12.jpg"" style=""width:8cm; height:4.54cm;""><p>What type of rock is this?</p>",5,class_response,0,test,33,Pegmatite,Peridotite,12,FALSE,6,7,,,,,,,,,,,,,,,,,
,,,,,,,,,,,html-keyboard-response,72,2.0.0,203616,6703aeb136ffd366f9c531d4,3,16,null,,,,,,,,,<p style='font-size: 30px;'><strong>Okay</strong></p>,null,neutral_feedback,0,test,33,,,,,,,,,,,,,,,,,,,,,,,
,,,,,,,,,,,html-button-response,73,2.0.0,204952,6703aeb136ffd366f9c531d4,3,16,1333,,,,,,,,,"<img src= ""rock_img/I_Obsidian_08.jpg"" style=""width:8cm; height:7.39cm;""><p>What type of rock is this?</p>",4,class_response,0,test,34,Obsidian,Obsidian,8,TRUE,5,5,,,,,,,,,,,,,,,,,
,,,,,,,,,,,html-keyboard-response,74,2.0.0,205458,6703aeb136ffd366f9c531d4,3,16,null,,,,,,,,,<p style='font-size: 30px;'><strong>Okay</strong></p>,null,neutral_feedback,0,test,34,,,,,,,,,,,,,,,,,,,,,,,
,,,,,,,,,,,html-button-response,75,2.0.0,207913,6703aeb136ffd366f9c531d4,3,16,2452,,,,,,,,,"<img src= ""rock_img/I_Basalt_11.jpg"" style=""width:8cm; height:5.359999999999999cm;""><p>What type of rock is this?</p>",1,class_response,0,test,35,Basalt,Basalt,11,TRUE,2,2,,,,,,,,,,,,,,,,,
,,,,,,,,,,,html-keyboard-response,76,2.0.0,208416,6703aeb136ffd366f9c531d4,3,16,null,,,,,,,,,<p style='font-size: 30px;'><strong>Okay</strong></p>,null,neutral_feedback,0,test,35,,,,,,,,,,,,,,,,,,,,,,,
,,,,,,,,,,,html-button-response,77,2.0.0,216316,6703aeb136ffd366f9c531d4,3,16,7898,,,,,,,,,"<img src= ""rock_img/I_Peridotite_14.jpg"" style=""width:8cm; height:5.3cm;""><p>What type of rock is this?</p>",2,class_response,0,test,36,Diorite,Peridotite,14,FALSE,3,7,,,,,,,,,,,,,,,,,
,,,,,,,,,,,html-keyboard-response,78,2.0.0,216828,6703aeb136ffd366f9c531d4,3,16,null,,,,,,,,,<p style='font-size: 30px;'><strong>Okay</strong></p>,null,neutral_feedback,0,test,36,,,,,,,,,,,,,,,,,,,,,,,
,,,,,,,,,,,html-button-response,79,2.0.0,219521,6703aeb136ffd366f9c531d4,3,16,2691,,,,,,,,,"<img src= ""rock_img/I_Pumice_15.jpg"" style=""width:8cm; height:7.86cm;""><p>What type of rock is this?</p>",1,class_response,0,test,37,Basalt,Pumice,15,FALSE,2,8,,,,,,,,,,,,,,,,,
,,,,,,,,,,,html-keyboard-response,80,2.0.0,220027,6703aeb136ffd366f9c531d4,3,16,null,,,,,,,,,<p style='font-size: 30px;'><strong>Okay</strong></p>,null,neutral_feedback,0,test,37,,,,,,,,,,,,,,,,,,,,,,,
,,,,,,,,,,,html-button-response,81,2.0.0,222630,6703aeb136ffd366f9c531d4,3,16,2601,,,,,,,,,"<img src= ""rock_img/I_Diorite_07.jpg"" style=""width:8cm; height:5.239999999999999cm;""><p>What type of rock is this?</p>",5,class_response,0,test,38,Pegmatite,Diorite,7,FALSE,6,3,,,,,,,,,,,,,,,,,
,,,,,,,,,,,html-keyboard-response,82,2.0.0,223143,6703aeb136ffd366f9c531d4,3,16,null,,,,,,,,,<p style='font-size: 30px;'><strong>Okay</strong></p>,null,neutral_feedback,0,test,38,,,,,,,,,,,,,,,,,,,,,,,
,,,,,,,,,,,html-button-response,83,2.0.0,225983,6703aeb136ffd366f9c531d4,3,16,2837,,,,,,,,,"<img src= ""rock_img/I_Peridotite_15.jpg"" style=""width:8cm; height:6cm;""><p>What type of rock is this?</p>",6,class_response,0,test,39,Peridotite,Peridotite,15,TRUE,7,7,,,,,,,,,,,,,,,,,
,,,,,,,,,,,html-keyboard-response,84,2.0.0,226492,6703aeb136ffd366f9c531d4,3,16,null,,,,,,,,,<p style='font-size: 30px;'><strong>Okay</strong></p>,null,neutral_feedback,0,test,39,,,,,,,,,,,,,,,,,,,,,,,
,,,,,,,,,,,html-button-response,85,2.0.0,228147,6703aeb136ffd366f9c531d4,3,16,1653,,,,,,,,,"<img src= ""rock_img/I_Pegmatite_12.jpg"" style=""width:8cm; height:5.7cm;""><p>What type of rock is this?</p>",0,class_response,0,test,40,Andesite,Pegmatite,12,FALSE,1,6,,,,,,,,,,,,,,,,,
,,,,,,,,,,,html-keyboard-response,86,2.0.0,228649,6703aeb136ffd366f9c531d4,3,16,null,,,,,,,,,<p style='font-size: 30px;'><strong>Okay</strong></p>,null,neutral_feedback,0,test,40,,,,,,,,,,,,,,,,,,,,,,,
,,,,,,,,,,,html-button-response,87,2.0.0,229611,6703aeb136ffd366f9c531d4,3,16,959,,,,,,,,,"<img src= ""rock_img/I_Obsidian_16.jpg"" style=""width:8cm; height:9.3cm;""><p>What type of rock is this?</p>",4,class_response,0,test,41,Obsidian,Obsidian,16,TRUE,5,5,,,,,,,,,,,,,,,,,
,,,,,,,,,,,html-keyboard-response,88,2.0.0,230114,6703aeb136ffd366f9c531d4,3,16,null,,,,,,,,,<p style='font-size: 30px;'><strong>Okay</strong></p>,null,neutral_feedback,0,test,41,,,,,,,,,,,,,,,,,,,,,,,
,,,,,,,,,,,html-button-response,89,2.0.0,231750,6703aeb136ffd366f9c531d4,3,16,1634,,,,,,,,,"<img src= ""rock_img/I_Pumice_13.jpg"" style=""width:8cm; height:8.200000000000001cm;""><p>What type of rock is this?</p>",0,class_response,0,test,42,Andesite,Pumice,13,FALSE,1,8,,,,,,,,,,,,,,,,,
,,,,,,,,,,,html-keyboard-response,90,2.0.0,232263,6703aeb136ffd366f9c531d4,3,16,null,,,,,,,,,<p style='font-size: 30px;'><strong>Okay</strong></p>,null,neutral_feedback,0,test,42,,,,,,,,,,,,,,,,,,,,,,,
,,,,,,,,,,,html-button-response,91,2.0.0,233473,6703aeb136ffd366f9c531d4,3,16,1207,,,,,,,,,"<img src= ""rock_img/I_Basalt_14.jpg"" style=""width:8cm; height:5.82cm;""><p>What type of rock is this?</p>",5,class_response,0,test,43,Pegmatite,Basalt,14,FALSE,6,2,,,,,,,,,,,,,,,,,
,,,,,,,,,,,html-keyboard-response,92,2.0.0,233990,6703aeb136ffd366f9c531d4,3,16,null,,,,,,,,,<p style='font-size: 30px;'><strong>Okay</strong></p>,null,neutral_feedback,0,test,43,,,,,,,,,,,,,,,,,,,,,,,
,,,,,,,,,,,html-button-response,93,2.0.0,236426,6703aeb136ffd366f9c531d4,3,16,2433,,,,,,,,,"<img src= ""rock_img/I_Basalt_05.jpg"" style=""width:8cm; height:8.18cm;""><p>What type of rock is this?</p>",3,class_response,0,test,44,Gabbro,Basalt,5,FALSE,4,2,,,,,,,,,,,,,,,,,
,,,,,,,,,,,html-keyboard-response,94,2.0.0,236943,6703aeb136ffd366f9c531d4,3,16,null,,,,,,,,,<p style='font-size: 30px;'><strong>Okay</strong></p>,null,neutral_feedback,0,test,44,,,,,,,,,,,,,,,,,,,,,,,
,,,,,,,,,,,html-button-response,95,2.0.0,238218,6703aeb136ffd366f9c531d4,3,16,1273,,,,,,,,,"<img src= ""rock_img/I_Pumice_02.jpg"" style=""width:8cm; height:7.3999999999999995cm;""><p>What type of rock is this?</p>",1,class_response,0,test,45,Basalt,Pumice,2,FALSE,2,8,,,,,,,,,,,,,,,,,
,,,,,,,,,,,html-keyboard-response,96,2.0.0,238723,6703aeb136ffd366f9c531d4,3,16,null,,,,,,,,,<p style='font-size: 30px;'><strong>Okay</strong></p>,null,neutral_feedback,0,test,45,,,,,,,,,,,,,,,,,,,,,,,
,,,,,,,,,,,html-button-response,97,2.0.0,241830,6703aeb136ffd366f9c531d4,3,16,3104,,,,,,,,,"<img src= ""rock_img/I_Andesite_04.jpg"" style=""width:8cm; height:5.96cm;""><p>What type of rock is this?</p>",1,class_response,0,test,46,Basalt,Andesite,4,FALSE,2,1,,,,,,,,,,,,,,,,,
,,,,,,,,,,,html-keyboard-response,98,2.0.0,242346,6703aeb136ffd366f9c531d4,3,16,null,,,,,,,,,<p style='font-size: 30px;'><strong>Okay</strong></p>,null,neutral_feedback,0,test,46,,,,,,,,,,,,,,,,,,,,,,,
,,,,,,,,,,,html-button-response,99,2.0.0,244222,6703aeb136ffd366f9c531d4,3,16,1873,,,,,,,,,"<img src= ""rock_img/I_Basalt_04.jpg"" style=""width:8cm; height:7.53cm;""><p>What type of rock is this?</p>",1,class_response,0,test,47,Basalt,Basalt,4,TRUE,2,2,,,,,,,,,,,,,,,,,
,,,,,,,,,,,html-keyboard-response,100,2.0.0,244725,6703aeb136ffd366f9c531d4,3,16,null,,,,,,,,,<p style='font-size: 30px;'><strong>Okay</strong></p>,null,neutral_feedback,0,test,47,,,,,,,,,,,,,,,,,,,,,,,
,,,,,,,,,,,html-button-response,101,2.0.0,246345,6703aeb136ffd366f9c531d4,3,16,1618,,,,,,,,,"<img src= ""rock_img/I_Obsidian_14.jpg"" style=""width:8cm; height:7.64cm;""><p>What type of rock is this?</p>",4,class_response,0,test,48,Obsidian,Obsidian,14,TRUE,5,5,,,,,,,,,,,,,,,,,
,,,,,,,,,,,html-keyboard-response,102,2.0.0,246851,6703aeb136ffd366f9c531d4,3,16,null,,,,,,,,,<p style='font-size: 30px;'><strong>Okay</strong></p>,null,neutral_feedback,0,test,48,,,,,,,,,,,,,,,,,,,,,,,
,,,,,,,,,,,instructions,103,2.0.0,262963,6703aeb136ffd366f9c531d4,3,16,16059,,,,,,,,"[{""page_index"":0,""viewing_time"":11648},{""page_index"":1,""viewing_time"":4411}]",,,,,,,,,,,,,,,,,,,,,,,,,,,,,
,,,,,,,,,,,html-button-response,104,2.0.0,268097,6703aeb136ffd366f9c531d4,3,16,5131,,,,,,,,,,0,start_train,,,,,,,,,,,,,,,,,,,,,,,,,,
,,,,,,,,,,,html-button-response,106,2.0.0,270983,6703aeb136ffd366f9c531d4,3,16,2881,,,,,,,,,"<img src= ""rock_img/I_Andesite_16.jpg"" style=""width:8cm; height:6.010000000000001cm;""><p>What type of rock is this?</p>",2,class_response,1,train,1,Diorite,Andesite,16,FALSE,3,1,,,,,,,,,,,,,,,,,
,,,,,,,,,,,html-button-response,107,2.0.0,275206,6703aeb136ffd366f9c531d4,3,16,4220,,,,,,,,,"<img src= rock_img/I_Andesite_16.jpg style=""width:8cm; height:6.010000000000001cm;""><p style='font-size: 30px; color: red;'><strong>Incorrect!</strong></p><p style='font-size: 30px;'><strong>This rock is andesite</strong></p>",0,corr_feedback,1,train,1,,,,,,,,,,,,,,,,,,,,,,,
,,,,,,,,,,,html-button-response,108,2.0.0,279309,6703aeb136ffd366f9c531d4,3,16,4101,,,,,,,,,"<img src= ""rock_img/I_Pegmatite_16.jpg"" style=""width:8cm; height:5.8cm;""><p>What type of rock is this?</p>",6,class_response,1,train,2,Peridotite,Pegmatite,16,FALSE,7,6,,,,,,,,,,,,,,,,,
,,,,,,,,,,,html-button-response,109,2.0.0,287999,6703aeb136ffd366f9c531d4,3,16,8688,,,,,,,,,"<img src= rock_img/I_Pegmatite_16.jpg style=""width:8cm; height:5.8cm;""><p style='font-size: 30px; color: red;'><strong>Incorrect!</strong></p><p style='font-size: 30px;'><strong>This rock is pegmatite</strong></p>",0,corr_feedback,1,train,2,,,,,,,,,,,,,,,,,,,,,,,
,,,,,,,,,,,html-button-response,110,2.0.0,299237,6703aeb136ffd366f9c531d4,3,16,11235,,,,,,,,,"<img src= ""rock_img/I_Pumice_10.jpg"" style=""width:8cm; height:7.609999999999999cm;""><p>What type of rock is this?</p>",7,class_response,1,train,3,Pumice,Pumice,10,TRUE,8,8,,,,,,,,,,,,,,,,,
,,,,,,,,,,,html-button-response,111,2.0.0,301581,6703aeb136ffd366f9c531d4,3,16,2342,,,,,,,,,"<img src= rock_img/I_Pumice_10.jpg style=""width:8cm; height:7.609999999999999cm;""><p style='font-size: 30px; color: green;'><strong>Correct!</strong></p><p style='font-size: 30px;'><strong>This rock is pumice</strong></p>",0,corr_feedback,1,train,3,,,,,,,,,,,,,,,,,,,,,,,
,,,,,,,,,,,html-button-response,112,2.0.0,304389,6703aeb136ffd366f9c531d4,3,16,2805,,,,,,,,,"<img src= ""rock_img/I_Diorite_14.jpg"" style=""width:8cm; height:5.71cm;""><p>What type of rock is this?</p>",6,class_response,1,train,4,Peridotite,Diorite,14,FALSE,7,3,,,,,,,,,,,,,,,,,
,,,,,,,,,,,html-button-response,113,2.0.0,307675,6703aeb136ffd366f9c531d4,3,16,3283,,,,,,,,,"<img src= rock_img/I_Diorite_14.jpg style=""width:8cm; height:5.71cm;""><p style='font-size: 30px; color: red;'><strong>Incorrect!</strong></p><p style='font-size: 30px;'><strong>This rock is diorite</strong></p>",0,corr_feedback,1,train,4,,,,,,,,,,,,,,,,,,,,,,,
,,,,,,,,,,,html-button-response,114,2.0.0,309881,6703aeb136ffd366f9c531d4,3,16,2203,,,,,,,,,"<img src= ""rock_img/I_Basalt_02.jpg"" style=""width:8cm; height:6.45cm;""><p>What type of rock is this?</p>",0,class_response,1,train,5,Andesite,Basalt,2,FALSE,1,2,,,,,,,,,,,,,,,,,
,,,,,,,,,,,html-button-response,115,2.0.0,312158,6703aeb136ffd366f9c531d4,3,16,2273,,,,,,,,,"<img src= rock_img/I_Basalt_02.jpg style=""width:8cm; height:6.45cm;""><p style='font-size: 30px; color: red;'><strong>Incorrect!</strong></p><p style='font-size: 30px;'><strong>This rock is basalt</strong></p>",0,corr_feedback,1,train,5,,,,,,,,,,,,,,,,,,,,,,,
,,,,,,,,,,,html-button-response,116,2.0.0,313362,6703aeb136ffd366f9c531d4,3,16,1202,,,,,,,,,"<img src= ""rock_img/I_Obsidian_07.jpg"" style=""width:8cm; height:4.76cm;""><p>What type of rock is this?</p>",4,class_response,1,train,6,Obsidian,Obsidian,7,TRUE,5,5,,,,,,,,,,,,,,,,,
,,,,,,,,,,,html-button-response,117,2.0.0,315167,6703aeb136ffd366f9c531d4,3,16,1802,,,,,,,,,"<img src= rock_img/I_Obsidian_07.jpg style=""width:8cm; height:4.76cm;""><p style='font-size: 30px; color: green;'><strong>Correct!</strong></p><p style='font-size: 30px;'><strong>This rock is obsidian</strong></p>",0,corr_feedback,1,train,6,,,,,,,,,,,,,,,,,,,,,,,
,,,,,,,,,,,html-button-response,118,2.0.0,319915,6703aeb136ffd366f9c531d4,3,16,4746,,,,,,,,,"<img src= ""rock_img/I_Pumice_04.jpg"" style=""width:8cm; height:6.819999999999999cm;""><p>What type of rock is this?</p>",5,class_response,1,train,7,Pegmatite,Pumice,4,FALSE,6,8,,,,,,,,,,,,,,,,,
,,,,,,,,,,,html-button-response,119,2.0.0,325136,6703aeb136ffd366f9c531d4,3,16,5218,,,,,,,,,"<img src= rock_img/I_Pumice_04.jpg style=""width:8cm; height:6.819999999999999cm;""><p style='font-size: 30px; color: red;'><strong>Incorrect!</strong></p><p style='font-size: 30px;'><strong>This rock is pumice</strong></p>",0,corr_feedback,1,train,7,,,,,,,,,,,,,,,,,,,,,,,
,,,,,,,,,,,html-button-response,120,2.0.0,331169,6703aeb136ffd366f9c531d4,3,16,6030,,,,,,,,,"<img src= ""rock_img/I_Andesite_14.jpg"" style=""width:8cm; height:5.449999999999999cm;""><p>What type of rock is this?</p>",6,class_response,1,train,8,Peridotite,Andesite,14,FALSE,7,1,,,,,,,,,,,,,,,,,
,,,,,,,,,,,html-button-response,121,2.0.0,334472,6703aeb136ffd366f9c531d4,3,16,3301,,,,,,,,,"<img src= rock_img/I_Andesite_14.jpg style=""width:8cm; height:5.449999999999999cm;""><p style='font-size: 30px; color: red;'><strong>Incorrect!</strong></p><p style='font-size: 30px;'><strong>This rock is andesite</strong></p>",0,corr_feedback,1,train,8,,,,,,,,,,,,,,,,,,,,,,,
,,,,,,,,,,,html-button-response,122,2.0.0,336041,6703aeb136ffd366f9c531d4,3,16,1566,,,,,,,,,"<img src= ""rock_img/I_Peridotite_02.jpg"" style=""width:8cm; height:5.859999999999999cm;""><p>What type of rock is this?</p>",3,class_response,1,train,9,Gabbro,Peridotite,2,FALSE,4,7,,,,,,,,,,,,,,,,,
,,,,,,,,,,,html-button-response,123,2.0.0,339009,6703aeb136ffd366f9c531d4,3,16,2966,,,,,,,,,"<img src= rock_img/I_Peridotite_02.jpg style=""width:8cm; height:5.859999999999999cm;""><p style='font-size: 30px; color: red;'><strong>Incorrect!</strong></p><p style='font-size: 30px;'><strong>This rock is peridotite</strong></p>",0,corr_feedback,1,train,9,,,,,,,,,,,,,,,,,,,,,,,
,,,,,,,,,,,html-button-response,124,2.0.0,341258,6703aeb136ffd366f9c531d4,3,16,2245,,,,,,,,,"<img src= ""rock_img/I_Obsidian_05.jpg"" style=""width:8cm; height:6.33cm;""><p>What type of rock is this?</p>",4,class_response,1,train,10,Obsidian,Obsidian,5,TRUE,5,5,,,,,,,,,,,,,,,,,
,,,,,,,,,,,html-button-response,125,2.0.0,342521,6703aeb136ffd366f9c531d4,3,16,1260,,,,,,,,,"<img src= rock_img/I_Obsidian_05.jpg style=""width:8cm; height:6.33cm;""><p style='font-size: 30px; color: green;'><strong>Correct!</strong></p><p style='font-size: 30px;'><strong>This rock is obsidian</strong></p>",0,corr_feedback,1,train,10,,,,,,,,,,,,,,,,,,,,,,,
,,,,,,,,,,,html-button-response,126,2.0.0,344638,6703aeb136ffd366f9c531d4,3,16,2113,,,,,,,,,"<img src= ""rock_img/I_Basalt_08.jpg"" style=""width:8cm; height:10.44cm;""><p>What type of rock is this?</p>",1,class_response,1,train,11,Basalt,Basalt,8,TRUE,2,2,,,,,,,,,,,,,,,,,
,,,,,,,,,,,html-button-response,127,2.0.0,346100,6703aeb136ffd366f9c531d4,3,16,1460,,,,,,,,,"<img src= rock_img/I_Basalt_08.jpg style=""width:8cm; height:10.44cm;""><p style='font-size: 30px; color: green;'><strong>Correct!</strong></p><p style='font-size: 30px;'><strong>This rock is basalt</strong></p>",0,corr_feedback,1,train,11,,,,,,,,,,,,,,,,,,,,,,,
,,,,,,,,,,,html-button-response,128,2.0.0,350299,6703aeb136ffd366f9c531d4,3,16,4195,,,,,,,,,"<img src= ""rock_img/I_Gabbro_11.jpg"" style=""width:8cm; height:6.2cm;""><p>What type of rock is this?</p>",6,class_response,1,train,12,Peridotite,Gabbro,11,FALSE,7,4,,,,,,,,,,,,,,,,,
,,,,,,,,,,,html-button-response,129,2.0.0,353183,6703aeb136ffd366f9c531d4,3,16,2881,,,,,,,,,"<img src= rock_img/I_Gabbro_11.jpg style=""width:8cm; height:6.2cm;""><p style='font-size: 30px; color: red;'><strong>Incorrect!</strong></p><p style='font-size: 30px;'><strong>This rock is gabbro</strong></p>",0,corr_feedback,1,train,12,,,,,,,,,,,,,,,,,,,,,,,
,,,,,,,,,,,instructions,130,2.0.0,379217,6703aeb136ffd366f9c531d4,3,16,26032,,,,,,,,"[{""page_index"":0,""viewing_time"":6013},{""page_index"":1,""viewing_time"":8894},{""page_index"":2,""viewing_time"":6077},{""page_index"":3,""viewing_time"":5048}]",,,,,,,,,,,,,,,,,,,,,,,,,,,,,
,,,,,,,,,,,html-button-response,131,2.0.0,380652,6703aeb136ffd366f9c531d4,3,16,1433,,,,,,,,,,0,start_train,,,,,,,,,,,,,,,,,,,,,,,,,,
,,,,,,,,,,,html-button-response,132,2.0.0,386633,6703aeb136ffd366f9c531d4,3,16,,,,,,,,,,,,cat_selection,1,train,1,,,,,,,2,6,5977.1,Basalt,Pegmatite,"[0.12500000000000003,0.12500000000000003,0.12500000000000003,0.17763157894736842,0.01973684210526316,0.15131578947368424,0.15131578947368424,0.12500000000000003]","[0.21271645044961446,null,0.045478266145457004,0.2110820752600121,0.059487196342048666,0.20032159264523877,0.21346765395290995,0.05744676520471901]",,,,,,,,,,
,,,,,,,,,,,paired-cat-display,133,1.0.0,458117,6703aeb136ffd366f9c531d4,3,16,,,,,,,,,,,,paired_cat_display,1,train,1,,,,,,,,,9006.2,,,,,Basalt is typically a consistent darker color and can sometimes be porus,Pegmatite has crystals in it and has typically a lighter color,62471.9,,,,,,,
,,,,,,,,,,,html-button-response,134,2.0.0,461543,6703aeb136ffd366f9c531d4,3,16,,,,,,,,,,,,cat_selection,1,train,2,,,,,,,3,4,3424.2,Diorite,Gabbro,"[0.12500000000000003,0.12500000000000003,0.12500000000000003,0.17763157894736842,0.01973684210526316,0.15131578947368424,0.15131578947368424,0.12500000000000003]","[0.20542172740578785,0.049366125626516016,null,0.06449552082410677,0.05889775479324288,0.2201874881958618,0.3624249824894972,0.03920640066498749]",,,,,,,,,,
,,,,,,,,,,,paired-cat-display,135,1.0.0,495042,6703aeb136ffd366f9c531d4,3,16,,,,,,,,,,,,paired_cat_display,1,train,2,,,,,,,,,6330.8,,,,,,,27160.6,Dirorite has white and black flakes,"Gabbro also has flakes, but the colors are less juxtaposed",,,,,
,,,,,,,,,,,html-button-response,136,2.0.0,497519,6703aeb136ffd366f9c531d4,3,16,,,,,,,,,,,,cat_selection,1,train,3,,,,,,,2,8,2475.1,Basalt,Pumice,"[0.12500000000000003,0.12500000000000003,0.12500000000000003,0.17763157894736842,0.01973684210526316,0.15131578947368424,0.15131578947368424,0.12500000000000003]","[0.21271645044961446,null,0.045478266145457004,0.2110820752600121,0.059487196342048666,0.20032159264523877,0.21346765395290995,0.05744676520471901]",,,,,,,,,,
,,,,,,,,,,,paired-cat-display,137,1.0.0,531489,6703aeb136ffd366f9c531d4,3,16,,,,,,,,,,,,paired_cat_display,1,train,3,,,,,,,,,8502.5,,,,,Basalt is a darker color an pourous,,25460.6,,,Pumice is a lighter color and pourous,,,,
,,,,,,,,,,,instructions,138,2.0.0,559277,6703aeb136ffd366f9c531d4,3,16,27787,,,,,,,,"[{""page_index"":0,""viewing_time"":7179},{""page_index"":1,""viewing_time"":20607}]",,,,,,,,,,,,,,,,,,,,,,,,,,,,,
,,,,,,,,,,,html-button-response,139,2.0.0,560991,6703aeb136ffd366f9c531d4,3,16,1711,,,,,,,,,,0,start_test,,,,,,,,,,,,,,,,,,,,,,,,,,
,,,,,,,,,,,html-button-response,140,2.0.0,562597,6703aeb136ffd366f9c531d4,3,16,1603,,,,,,,,,"<img src= ""rock_img/I_Obsidian_09.jpg"" style=""width:8cm; height:5cm;""><p>What type of rock is this?</p>",4,class_response,1,test,1,Obsidian,Obsidian,9,TRUE,5,5,,,,,,,,,,,,,,,,,
,,,,,,,,,,,html-keyboard-response,141,2.0.0,563107,6703aeb136ffd366f9c531d4,3,16,null,,,,,,,,,<p style='font-size: 30px;'><strong>Okay</strong></p>,null,neutral_feedback,1,test,1,,,,,,,,,,,,,,,,,,,,,,,
,,,,,,,,,,,html-button-response,142,2.0.0,582565,6703aeb136ffd366f9c531d4,3,16,19454,,,,,,,,,"<img src= ""rock_img/I_Diorite_11.jpg"" style=""width:8cm; height:7.11cm;""><p>What type of rock is this?</p>",2,class_response,1,test,2,Diorite,Diorite,11,TRUE,3,3,,,,,,,,,,,,,,,,,
,,,,,,,,,,,html-keyboard-response,143,2.0.0,583082,6703aeb136ffd366f9c531d4,3,16,null,,,,,,,,,<p style='font-size: 30px;'><strong>Okay</strong></p>,null,neutral_feedback,1,test,2,,,,,,,,,,,,,,,,,,,,,,,
,,,,,,,,,,,html-button-response,144,2.0.0,585980,6703aeb136ffd366f9c531d4,3,16,2894,,,,,,,,,"<img src= ""rock_img/I_Pumice_06.jpg"" style=""width:8cm; height:6.9399999999999995cm;""><p>What type of rock is this?</p>",7,class_response,1,test,3,Pumice,Pumice,6,TRUE,8,8,,,,,,,,,,,,,,,,,
,,,,,,,,,,,html-keyboard-response,145,2.0.0,586492,6703aeb136ffd366f9c531d4,3,16,null,,,,,,,,,<p style='font-size: 30px;'><strong>Okay</strong></p>,null,neutral_feedback,1,test,3,,,,,,,,,,,,,,,,,,,,,,,
,,,,,,,,,,,html-button-response,146,2.0.0,594841,6703aeb136ffd366f9c531d4,3,16,8347,,,,,,,,,"<img src= ""rock_img/I_Andesite_05.jpg"" style=""width:8cm; height:4.12cm;""><p>What type of rock is this?</p>",0,class_response,1,test,4,Andesite,Andesite,5,TRUE,1,1,,,,,,,,,,,,,,,,,
,,,,,,,,,,,html-keyboard-response,147,2.0.0,595348,6703aeb136ffd366f9c531d4,3,16,null,,,,,,,,,<p style='font-size: 30px;'><strong>Okay</strong></p>,null,neutral_feedback,1,test,4,,,,,,,,,,,,,,,,,,,,,,,
,,,,,,,,,,,html-button-response,148,2.0.0,597756,6703aeb136ffd366f9c531d4,3,16,2406,,,,,,,,,"<img src= ""rock_img/I_Basalt_04.jpg"" style=""width:8cm; height:7.53cm;""><p>What type of rock is this?</p>",1,class_response,1,test,5,Basalt,Basalt,4,TRUE,2,2,,,,,,,,,,,,,,,,,
,,,,,,,,,,,html-keyboard-response,149,2.0.0,598272,6703aeb136ffd366f9c531d4,3,16,null,,,,,,,,,<p style='font-size: 30px;'><strong>Okay</strong></p>,null,neutral_feedback,1,test,5,,,,,,,,,,,,,,,,,,,,,,,
,,,,,,,,,,,html-button-response,150,2.0.0,607459,6703aeb136ffd366f9c531d4,3,16,9183,,,,,,,,,"<img src= ""rock_img/I_Gabbro_12.jpg"" style=""width:8cm; height:7.800000000000001cm;""><p>What type of rock is this?</p>",6,class_response,1,test,6,Peridotite,Gabbro,12,FALSE,7,4,,,,,,,,,,,,,,,,,
,,,,,,,,,,,html-keyboard-response,151,2.0.0,607967,6703aeb136ffd366f9c531d4,3,16,null,,,,,,,,,<p style='font-size: 30px;'><strong>Okay</strong></p>,null,neutral_feedback,1,test,6,,,,,,,,,,,,,,,,,,,,,,,
,,,,,,,,,,,html-button-response,152,2.0.0,614708,6703aeb136ffd366f9c531d4,3,16,6739,,,,,,,,,"<img src= ""rock_img/I_Peridotite_13.jpg"" style=""width:8cm; height:7.58cm;""><p>What type of rock is this?</p>",3,class_response,1,test,7,Gabbro,Peridotite,13,FALSE,4,7,,,,,,,,,,,,,,,,,
,,,,,,,,,,,html-keyboard-response,153,2.0.0,615212,6703aeb136ffd366f9c531d4,3,16,null,,,,,,,,,<p style='font-size: 30px;'><strong>Okay</strong></p>,null,neutral_feedback,1,test,7,,,,,,,,,,,,,,,,,,,,,,,
,,,,,,,,,,,html-button-response,154,2.0.0,617402,6703aeb136ffd366f9c531d4,3,16,2186,,,,,,,,,"<img src= ""rock_img/I_Gabbro_09.jpg"" style=""width:8cm; height:7.279999999999999cm;""><p>What type of rock is this?</p>",4,class_response,1,test,8,Obsidian,Gabbro,9,FALSE,5,4,,,,,,,,,,,,,,,,,
,,,,,,,,,,,html-keyboard-response,155,2.0.0,617914,6703aeb136ffd366f9c531d4,3,16,null,,,,,,,,,<p style='font-size: 30px;'><strong>Okay</strong></p>,null,neutral_feedback,1,test,8,,,,,,,,,,,,,,,,,,,,,,,
,,,,,,,,,,,html-button-response,156,2.0.0,679955,6703aeb136ffd366f9c531d4,3,16,62036,,,,,,,,,"<img src= ""rock_img/I_Peridotite_12.jpg"" style=""width:8cm; height:4.54cm;""><p>What type of rock is this?</p>",6,class_response,1,test,9,Peridotite,Peridotite,12,TRUE,7,7,,,,,,,,,,,,,,,,,
,,,,,,,,,,,html-keyboard-response,157,2.0.0,680469,6703aeb136ffd366f9c531d4,3,16,null,,,,,,,,,<p style='font-size: 30px;'><strong>Okay</strong></p>,null,neutral_feedback,1,test,9,,,,,,,,,,,,,,,,,,,,,,,
,,,,,,,,,,,html-button-response,158,2.0.0,682463,6703aeb136ffd366f9c531d4,3,16,1991,,,,,,,,,"<img src= ""rock_img/I_Pegmatite_09.jpg"" style=""width:8cm; height:4.03cm;""><p>What type of rock is this?</p>",5,class_response,1,test,10,Pegmatite,Pegmatite,9,TRUE,6,6,,,,,,,,,,,,,,,,,
,,,,,,,,,,,html-keyboard-response,159,2.0.0,682975,6703aeb136ffd366f9c531d4,3,16,null,,,,,,,,,<p style='font-size: 30px;'><strong>Okay</strong></p>,null,neutral_feedback,1,test,10,,,,,,,,,,,,,,,,,,,,,,,
,,,,,,,,,,,html-button-response,160,2.0.0,685249,6703aeb136ffd366f9c531d4,3,16,2271,,,,,,,,,"<img src= ""rock_img/I_Basalt_11.jpg"" style=""width:8cm; height:5.359999999999999cm;""><p>What type of rock is this?</p>",1,class_response,1,test,11,Basalt,Basalt,11,TRUE,2,2,,,,,,,,,,,,,,,,,
,,,,,,,,,,,html-keyboard-response,161,2.0.0,685757,6703aeb136ffd366f9c531d4,3,16,null,,,,,,,,,<p style='font-size: 30px;'><strong>Okay</strong></p>,null,neutral_feedback,1,test,11,,,,,,,,,,,,,,,,,,,,,,,
,,,,,,,,,,,html-button-response,162,2.0.0,687652,6703aeb136ffd366f9c531d4,3,16,1892,,,,,,,,,"<img src= ""rock_img/I_Pumice_09.jpg"" style=""width:8cm; height:6.44cm;""><p>What type of rock is this?</p>",7,class_response,1,test,12,Pumice,Pumice,9,TRUE,8,8,,,,,,,,,,,,,,,,,
,,,,,,,,,,,html-keyboard-response,163,2.0.0,688166,6703aeb136ffd366f9c531d4,3,16,null,,,,,,,,,<p style='font-size: 30px;'><strong>Okay</strong></p>,null,neutral_feedback,1,test,12,,,,,,,,,,,,,,,,,,,,,,,
,,,,,,,,,,,html-button-response,164,2.0.0,690840,6703aeb136ffd366f9c531d4,3,16,2671,,,,,,,,,"<img src= ""rock_img/I_Diorite_07.jpg"" style=""width:8cm; height:5.239999999999999cm;""><p>What type of rock is this?</p>",5,class_response,1,test,13,Pegmatite,Diorite,7,FALSE,6,3,,,,,,,,,,,,,,,,,
,,,,,,,,,,,html-keyboard-response,165,2.0.0,691343,6703aeb136ffd366f9c531d4,3,16,null,,,,,,,,,<p style='font-size: 30px;'><strong>Okay</strong></p>,null,neutral_feedback,1,test,13,,,,,,,,,,,,,,,,,,,,,,,
,,,,,,,,,,,html-button-response,166,2.0.0,693848,6703aeb136ffd366f9c531d4,3,16,2502,,,,,,,,,"<img src= ""rock_img/I_Pumice_13.jpg"" style=""width:8cm; height:8.200000000000001cm;""><p>What type of rock is this?</p>",0,class_response,1,test,14,Andesite,Pumice,13,FALSE,1,8,,,,,,,,,,,,,,,,,
,,,,,,,,,,,html-keyboard-response,167,2.0.0,694352,6703aeb136ffd366f9c531d4,3,16,null,,,,,,,,,<p style='font-size: 30px;'><strong>Okay</strong></p>,null,neutral_feedback,1,test,14,,,,,,,,,,,,,,,,,,,,,,,
,,,,,,,,,,,html-button-response,168,2.0.0,696686,6703aeb136ffd366f9c531d4,3,16,2331,,,,,,,,,"<img src= ""rock_img/I_Basalt_14.jpg"" style=""width:8cm; height:5.82cm;""><p>What type of rock is this?</p>",1,class_response,1,test,15,Basalt,Basalt,14,TRUE,2,2,,,,,,,,,,,,,,,,,
,,,,,,,,,,,html-keyboard-response,169,2.0.0,697190,6703aeb136ffd366f9c531d4,3,16,null,,,,,,,,,<p style='font-size: 30px;'><strong>Okay</strong></p>,null,neutral_feedback,1,test,15,,,,,,,,,,,,,,,,,,,,,,,
,,,,,,,,,,,html-button-response,170,2.0.0,698420,6703aeb136ffd366f9c531d4,3,16,1227,,,,,,,,,"<img src= ""rock_img/I_Obsidian_08.jpg"" style=""width:8cm; height:7.39cm;""><p>What type of rock is this?</p>",4,class_response,1,test,16,Obsidian,Obsidian,8,TRUE,5,5,,,,,,,,,,,,,,,,,
,,,,,,,,,,,html-keyboard-response,171,2.0.0,698930,6703aeb136ffd366f9c531d4,3,16,null,,,,,,,,,<p style='font-size: 30px;'><strong>Okay</strong></p>,null,neutral_feedback,1,test,16,,,,,,,,,,,,,,,,,,,,,,,
,,,,,,,,,,,html-button-response,172,2.0.0,700759,6703aeb136ffd366f9c531d4,3,16,1826,,,,,,,,,"<img src= ""rock_img/I_Pegmatite_12.jpg"" style=""width:8cm; height:5.7cm;""><p>What type of rock is this?</p>",5,class_response,1,test,17,Pegmatite,Pegmatite,12,TRUE,6,6,,,,,,,,,,,,,,,,,
,,,,,,,,,,,html-keyboard-response,173,2.0.0,701265,6703aeb136ffd366f9c531d4,3,16,null,,,,,,,,,<p style='font-size: 30px;'><strong>Okay</strong></p>,null,neutral_feedback,1,test,17,,,,,,,,,,,,,,,,,,,,,,,
,,,,,,,,,,,html-button-response,174,2.0.0,703216,6703aeb136ffd366f9c531d4,3,16,1948,,,,,,,,,"<img src= ""rock_img/I_Peridotite_05.jpg"" style=""width:8cm; height:7.1499999999999995cm;""><p>What type of rock is this?</p>",2,class_response,1,test,18,Diorite,Peridotite,5,FALSE,3,7,,,,,,,,,,,,,,,,,
,,,,,,,,,,,html-keyboard-response,175,2.0.0,703720,6703aeb136ffd366f9c531d4,3,16,null,,,,,,,,,<p style='font-size: 30px;'><strong>Okay</strong></p>,null,neutral_feedback,1,test,18,,,,,,,,,,,,,,,,,,,,,,,
,,,,,,,,,,,html-button-response,176,2.0.0,706973,6703aeb136ffd366f9c531d4,3,16,3250,,,,,,,,,"<img src= ""rock_img/I_Pegmatite_13.jpg"" style=""width:8cm; height:4.95cm;""><p>What type of rock is this?</p>",5,class_response,1,test,19,Pegmatite,Pegmatite,13,TRUE,6,6,,,,,,,,,,,,,,,,,
,,,,,,,,,,,html-keyboard-response,177,2.0.0,707490,6703aeb136ffd366f9c531d4,3,16,null,,,,,,,,,<p style='font-size: 30px;'><strong>Okay</strong></p>,null,neutral_feedback,1,test,19,,,,,,,,,,,,,,,,,,,,,,,
,,,,,,,,,,,html-button-response,178,2.0.0,709619,6703aeb136ffd366f9c531d4,3,16,2127,,,,,,,,,"<img src= ""rock_img/I_Andesite_11.jpg"" style=""width:8cm; height:4.92cm;""><p>What type of rock is this?</p>",6,class_response,1,test,20,Peridotite,Andesite,11,FALSE,7,1,,,,,,,,,,,,,,,,,
,,,,,,,,,,,html-keyboard-response,179,2.0.0,710136,6703aeb136ffd366f9c531d4,3,16,null,,,,,,,,,<p style='font-size: 30px;'><strong>Okay</strong></p>,null,neutral_feedback,1,test,20,,,,,,,,,,,,,,,,,,,,,,,
,,,,,,,,,,,html-button-response,180,2.0.0,713089,6703aeb136ffd366f9c531d4,3,16,2949,,,,,,,,,"<img src= ""rock_img/I_Andesite_01.jpg"" style=""width:8cm; height:5.87cm;""><p>What type of rock is this?</p>",1,class_response,1,test,21,Basalt,Andesite,1,FALSE,2,1,,,,,,,,,,,,,,,,,
,,,,,,,,,,,html-keyboard-response,181,2.0.0,713595,6703aeb136ffd366f9c531d4,3,16,null,,,,,,,,,<p style='font-size: 30px;'><strong>Okay</strong></p>,null,neutral_feedback,1,test,21,,,,,,,,,,,,,,,,,,,,,,,
,,,,,,,,,,,html-button-response,182,2.0.0,715304,6703aeb136ffd366f9c531d4,3,16,1707,,,,,,,,,"<img src= ""rock_img/I_Obsidian_11.jpg"" style=""width:8cm; height:6.05cm;""><p>What type of rock is this?</p>",4,class_response,1,test,22,Obsidian,Obsidian,11,TRUE,5,5,,,,,,,,,,,,,,,,,
,,,,,,,,,,,html-keyboard-response,183,2.0.0,715814,6703aeb136ffd366f9c531d4,3,16,null,,,,,,,,,<p style='font-size: 30px;'><strong>Okay</strong></p>,null,neutral_feedback,1,test,22,,,,,,,,,,,,,,,,,,,,,,,
,,,,,,,,,,,html-button-response,184,2.0.0,718633,6703aeb136ffd366f9c531d4,3,16,2815,,,,,,,,,"<img src= ""rock_img/I_Andesite_09.jpg"" style=""width:8cm; height:6cm;""><p>What type of rock is this?</p>",2,class_response,1,test,23,Diorite,Andesite,9,FALSE,3,1,,,,,,,,,,,,,,,,,
,,,,,,,,,,,html-keyboard-response,185,2.0.0,719135,6703aeb136ffd366f9c531d4,3,16,null,,,,,,,,,<p style='font-size: 30px;'><strong>Okay</strong></p>,null,neutral_feedback,1,test,23,,,,,,,,,,,,,,,,,,,,,,,
,,,,,,,,,,,html-button-response,186,2.0.0,723632,6703aeb136ffd366f9c531d4,3,16,4494,,,,,,,,,"<img src= ""rock_img/I_Diorite_12.jpg"" style=""width:8cm; height:4.88cm;""><p>What type of rock is this?</p>",0,class_response,1,test,24,Andesite,Diorite,12,FALSE,1,3,,,,,,,,,,,,,,,,,
,,,,,,,,,,,html-keyboard-response,187,2.0.0,724141,6703aeb136ffd366f9c531d4,3,16,null,,,,,,,,,<p style='font-size: 30px;'><strong>Okay</strong></p>,null,neutral_feedback,1,test,24,,,,,,,,,,,,,,,,,,,,,,,
,,,,,,,,,,,html-button-response,188,2.0.0,725801,6703aeb136ffd366f9c531d4,3,16,1655,,,,,,,,,"<img src= ""rock_img/I_Pegmatite_15.jpg"" style=""width:8cm; height:6cm;""><p>What type of rock is this?</p>",5,class_response,1,test,25,Pegmatite,Pegmatite,15,TRUE,6,6,,,,,,,,,,,,,,,,,
,,,,,,,,,,,html-keyboard-response,189,2.0.0,726312,6703aeb136ffd366f9c531d4,3,16,null,,,,,,,,,<p style='font-size: 30px;'><strong>Okay</strong></p>,null,neutral_feedback,1,test,25,,,,,,,,,,,,,,,,,,,,,,,
,,,,,,,,,,,html-button-response,190,2.0.0,727738,6703aeb136ffd366f9c531d4,3,16,1423,,,,,,,,,"<img src= ""rock_img/I_Basalt_05.jpg"" style=""width:8cm; height:8.18cm;""><p>What type of rock is this?</p>",1,class_response,1,test,26,Basalt,Basalt,5,TRUE,2,2,,,,,,,,,,,,,,,,,
,,,,,,,,,,,html-keyboard-response,191,2.0.0,728256,6703aeb136ffd366f9c531d4,3,16,null,,,,,,,,,<p style='font-size: 30px;'><strong>Okay</strong></p>,null,neutral_feedback,1,test,26,,,,,,,,,,,,,,,,,,,,,,,
,,,,,,,,,,,html-button-response,192,2.0.0,731498,6703aeb136ffd366f9c531d4,3,16,3239,,,,,,,,,"<img src= ""rock_img/I_Peridotite_14.jpg"" style=""width:8cm; height:5.3cm;""><p>What type of rock is this?</p>",2,class_response,1,test,27,Diorite,Peridotite,14,FALSE,3,7,,,,,,,,,,,,,,,,,
,,,,,,,,,,,html-keyboard-response,193,2.0.0,732001,6703aeb136ffd366f9c531d4,3,16,null,,,,,,,,,<p style='font-size: 30px;'><strong>Okay</strong></p>,null,neutral_feedback,1,test,27,,,,,,,,,,,,,,,,,,,,,,,
,,,,,,,,,,,html-button-response,194,2.0.0,734947,6703aeb136ffd366f9c531d4,3,16,2943,,,,,,,,,"<img src= ""rock_img/I_Gabbro_08.jpg"" style=""width:8cm; height:5.15cm;""><p>What type of rock is this?</p>",1,class_response,1,test,28,Basalt,Gabbro,8,FALSE,2,4,,,,,,,,,,,,,,,,,
,,,,,,,,,,,html-keyboard-response,195,2.0.0,735461,6703aeb136ffd366f9c531d4,3,16,null,,,,,,,,,<p style='font-size: 30px;'><strong>Okay</strong></p>,null,neutral_feedback,1,test,28,,,,,,,,,,,,,,,,,,,,,,,
,,,,,,,,,,,html-button-response,196,2.0.0,738364,6703aeb136ffd366f9c531d4,3,16,2900,,,,,,,,,"<img src= ""rock_img/I_Andesite_10.jpg"" style=""width:8cm; height:4.16cm;""><p>What type of rock is this?</p>",5,class_response,1,test,29,Pegmatite,Andesite,10,FALSE,6,1,,,,,,,,,,,,,,,,,
,,,,,,,,,,,html-keyboard-response,197,2.0.0,738874,6703aeb136ffd366f9c531d4,3,16,null,,,,,,,,,<p style='font-size: 30px;'><strong>Okay</strong></p>,null,neutral_feedback,1,test,29,,,,,,,,,,,,,,,,,,,,,,,
,,,,,,,,,,,html-button-response,198,2.0.0,770285,6703aeb136ffd366f9c531d4,3,16,31409,,,,,,,,,"<img src= ""rock_img/I_Gabbro_14.jpg"" style=""width:8cm; height:8.48cm;""><p>What type of rock is this?</p>",6,class_response,1,test,30,Peridotite,Gabbro,14,FALSE,7,4,,,,,,,,,,,,,,,,,
,,,,,,,,,,,html-keyboard-response,199,2.0.0,770793,6703aeb136ffd366f9c531d4,3,16,null,,,,,,,,,<p style='font-size: 30px;'><strong>Okay</strong></p>,null,neutral_feedback,1,test,30,,,,,,,,,,,,,,,,,,,,,,,
,,,,,,,,,,,html-button-response,200,2.0.0,774704,6703aeb136ffd366f9c531d4,3,16,3908,,,,,,,,,"<img src= ""rock_img/I_Pumice_15.jpg"" style=""width:8cm; height:7.86cm;""><p>What type of rock is this?</p>",7,class_response,1,test,31,Pumice,Pumice,15,TRUE,8,8,,,,,,,,,,,,,,,,,
,,,,,,,,,,,html-keyboard-response,201,2.0.0,775213,6703aeb136ffd366f9c531d4,3,16,null,,,,,,,,,<p style='font-size: 30px;'><strong>Okay</strong></p>,null,neutral_feedback,1,test,31,,,,,,,,,,,,,,,,,,,,,,,
,,,,,,,,,,,html-button-response,202,2.0.0,776696,6703aeb136ffd366f9c531d4,3,16,1480,,,,,,,,,"<img src= ""rock_img/I_Diorite_10.jpg"" style=""width:8cm; height:5.949999999999999cm;""><p>What type of rock is this?</p>",5,class_response,1,test,32,Pegmatite,Diorite,10,FALSE,6,3,,,,,,,,,,,,,,,,,
,,,,,,,,,,,html-keyboard-response,203,2.0.0,777202,6703aeb136ffd366f9c531d4,3,16,null,,,,,,,,,<p style='font-size: 30px;'><strong>Okay</strong></p>,null,neutral_feedback,1,test,32,,,,,,,,,,,,,,,,,,,,,,,
,,,,,,,,,,,html-button-response,204,2.0.0,778691,6703aeb136ffd366f9c531d4,3,16,1486,,,,,,,,,"<img src= ""rock_img/I_Obsidian_14.jpg"" style=""width:8cm; height:7.64cm;""><p>What type of rock is this?</p>",4,class_response,1,test,33,Obsidian,Obsidian,14,TRUE,5,5,,,,,,,,,,,,,,,,,
,,,,,,,,,,,html-keyboard-response,205,2.0.0,779194,6703aeb136ffd366f9c531d4,3,16,null,,,,,,,,,<p style='font-size: 30px;'><strong>Okay</strong></p>,null,neutral_feedback,1,test,33,,,,,,,,,,,,,,,,,,,,,,,
,,,,,,,,,,,html-button-response,206,2.0.0,781745,6703aeb136ffd366f9c531d4,3,16,2548,,,,,,,,,"<img src= ""rock_img/I_Pegmatite_11.jpg"" style=""width:8cm; height:8.14cm;""><p>What type of rock is this?</p>",5,class_response,1,test,34,Pegmatite,Pegmatite,11,TRUE,6,6,,,,,,,,,,,,,,,,,
,,,,,,,,,,,html-keyboard-response,207,2.0.0,782253,6703aeb136ffd366f9c531d4,3,16,null,,,,,,,,,<p style='font-size: 30px;'><strong>Okay</strong></p>,null,neutral_feedback,1,test,34,,,,,,,,,,,,,,,,,,,,,,,
,,,,,,,,,,,html-button-response,208,2.0.0,784587,6703aeb136ffd366f9c531d4,3,16,2330,,,,,,,,,"<img src= ""rock_img/I_Diorite_08.jpg"" style=""width:8cm; height:6.37cm;""><p>What type of rock is this?</p>",2,class_response,1,test,35,Diorite,Diorite,8,TRUE,3,3,,,,,,,,,,,,,,,,,
,,,,,,,,,,,html-keyboard-response,209,2.0.0,785091,6703aeb136ffd366f9c531d4,3,16,null,,,,,,,,,<p style='font-size: 30px;'><strong>Okay</strong></p>,null,neutral_feedback,1,test,35,,,,,,,,,,,,,,,,,,,,,,,
,,,,,,,,,,,html-button-response,210,2.0.0,786407,6703aeb136ffd366f9c531d4,3,16,1314,,,,,,,,,"<img src= ""rock_img/I_Basalt_01.jpg"" style=""width:8cm; height:7.880000000000001cm;""><p>What type of rock is this?</p>",1,class_response,1,test,36,Basalt,Basalt,1,TRUE,2,2,,,,,,,,,,,,,,,,,
,,,,,,,,,,,html-keyboard-response,211,2.0.0,786919,6703aeb136ffd366f9c531d4,3,16,null,,,,,,,,,<p style='font-size: 30px;'><strong>Okay</strong></p>,null,neutral_feedback,1,test,36,,,,,,,,,,,,,,,,,,,,,,,
,,,,,,,,,,,html-button-response,212,2.0.0,788127,6703aeb136ffd366f9c531d4,3,16,1205,,,,,,,,,"<img src= ""rock_img/I_Basalt_09.jpg"" style=""width:8cm; height:6.2cm;""><p>What type of rock is this?</p>",1,class_response,1,test,37,Basalt,Basalt,9,TRUE,2,2,,,,,,,,,,,,,,,,,
,,,,,,,,,,,html-keyboard-response,213,2.0.0,788643,6703aeb136ffd366f9c531d4,3,16,null,,,,,,,,,<p style='font-size: 30px;'><strong>Okay</strong></p>,null,neutral_feedback,1,test,37,,,,,,,,,,,,,,,,,,,,,,,
,,,,,,,,,,,html-button-response,214,2.0.0,789890,6703aeb136ffd366f9c531d4,3,16,1245,,,,,,,,,"<img src= ""rock_img/I_Obsidian_06.jpg"" style=""width:8cm; height:6.8cm;""><p>What type of rock is this?</p>",4,class_response,1,test,38,Obsidian,Obsidian,6,TRUE,5,5,,,,,,,,,,,,,,,,,
,,,,,,,,,,,html-keyboard-response,215,2.0.0,790397,6703aeb136ffd366f9c531d4,3,16,null,,,,,,,,,<p style='font-size: 30px;'><strong>Okay</strong></p>,null,neutral_feedback,1,test,38,,,,,,,,,,,,,,,,,,,,,,,
,,,,,,,,,,,html-button-response,216,2.0.0,794560,6703aeb136ffd366f9c531d4,3,16,4161,,,,,,,,,"<img src= ""rock_img/I_Gabbro_01.jpg"" style=""width:8cm; height:5.21cm;""><p>What type of rock is this?</p>",6,class_response,1,test,39,Peridotite,Gabbro,1,FALSE,7,4,,,,,,,,,,,,,,,,,
,,,,,,,,,,,html-keyboard-response,217,2.0.0,795064,6703aeb136ffd366f9c531d4,3,16,null,,,,,,,,,<p style='font-size: 30px;'><strong>Okay</strong></p>,null,neutral_feedback,1,test,39,,,,,,,,,,,,,,,,,,,,,,,
,,,,,,,,,,,html-button-response,218,2.0.0,796509,6703aeb136ffd366f9c531d4,3,16,1442,,,,,,,,,"<img src= ""rock_img/I_Pumice_05.jpg"" style=""width:8cm; height:7.25cm;""><p>What type of rock is this?</p>",7,class_response,1,test,40,Pumice,Pumice,5,TRUE,8,8,,,,,,,,,,,,,,,,,
,,,,,,,,,,,html-keyboard-response,219,2.0.0,797019,6703aeb136ffd366f9c531d4,3,16,null,,,,,,,,,<p style='font-size: 30px;'><strong>Okay</strong></p>,null,neutral_feedback,1,test,40,,,,,,,,,,,,,,,,,,,,,,,
,,,,,,,,,,,html-button-response,220,2.0.0,798690,6703aeb136ffd366f9c531d4,3,16,1669,,,,,,,,,"<img src= ""rock_img/I_Pumice_02.jpg"" style=""width:8cm; height:7.3999999999999995cm;""><p>What type of rock is this?</p>",7,class_response,1,test,41,Pumice,Pumice,2,TRUE,8,8,,,,,,,,,,,,,,,,,
,,,,,,,,,,,html-keyboard-response,221,2.0.0,799192,6703aeb136ffd366f9c531d4,3,16,null,,,,,,,,,<p style='font-size: 30px;'><strong>Okay</strong></p>,null,neutral_feedback,1,test,41,,,,,,,,,,,,,,,,,,,,,,,
,,,,,,,,,,,html-button-response,222,2.0.0,802030,6703aeb136ffd366f9c531d4,3,16,2835,,,,,,,,,"<img src= ""rock_img/I_Andesite_04.jpg"" style=""width:8cm; height:5.96cm;""><p>What type of rock is this?</p>",6,class_response,1,test,42,Peridotite,Andesite,4,FALSE,7,1,,,,,,,,,,,,,,,,,
,,,,,,,,,,,html-keyboard-response,223,2.0.0,802540,6703aeb136ffd366f9c531d4,3,16,null,,,,,,,,,<p style='font-size: 30px;'><strong>Okay</strong></p>,null,neutral_feedback,1,test,42,,,,,,,,,,,,,,,,,,,,,,,
,,,,,,,,,,,html-button-response,224,2.0.0,806091,6703aeb136ffd366f9c531d4,3,16,3548,,,,,,,,,"<img src= ""rock_img/I_Diorite_15.jpg"" style=""width:8cm; height:5.54cm;""><p>What type of rock is this?</p>",2,class_response,1,test,43,Diorite,Diorite,15,TRUE,3,3,,,,,,,,,,,,,,,,,
,,,,,,,,,,,html-keyboard-response,225,2.0.0,806596,6703aeb136ffd366f9c531d4,3,16,null,,,,,,,,,<p style='font-size: 30px;'><strong>Okay</strong></p>,null,neutral_feedback,1,test,43,,,,,,,,,,,,,,,,,,,,,,,
,,,,,,,,,,,html-button-response,226,2.0.0,809098,6703aeb136ffd366f9c531d4,3,16,2498,,,,,,,,,"<img src= ""rock_img/I_Pegmatite_06.jpg"" style=""width:8cm; height:5.17cm;""><p>What type of rock is this?</p>",3,class_response,1,test,44,Gabbro,Pegmatite,6,FALSE,4,6,,,,,,,,,,,,,,,,,
,,,,,,,,,,,html-keyboard-response,227,2.0.0,809607,6703aeb136ffd366f9c531d4,3,16,null,,,,,,,,,<p style='font-size: 30px;'><strong>Okay</strong></p>,null,neutral_feedback,1,test,44,,,,,,,,,,,,,,,,,,,,,,,
,,,,,,,,,,,html-button-response,228,2.0.0,810723,6703aeb136ffd366f9c531d4,3,16,1113,,,,,,,,,"<img src= ""rock_img/I_Peridotite_15.jpg"" style=""width:8cm; height:6cm;""><p>What type of rock is this?</p>",3,class_response,1,test,45,Gabbro,Peridotite,15,FALSE,4,7,,,,,,,,,,,,,,,,,
,,,,,,,,,,,html-keyboard-response,229,2.0.0,811226,6703aeb136ffd366f9c531d4,3,16,null,,,,,,,,,<p style='font-size: 30px;'><strong>Okay</strong></p>,null,neutral_feedback,1,test,45,,,,,,,,,,,,,,,,,,,,,,,
,,,,,,,,,,,html-button-response,230,2.0.0,813862,6703aeb136ffd366f9c531d4,3,16,2634,,,,,,,,,"<img src= ""rock_img/I_Gabbro_05.jpg"" style=""width:8cm; height:6cm;""><p>What type of rock is this?</p>",1,class_response,1,test,46,Basalt,Gabbro,5,FALSE,2,4,,,,,,,,,,,,,,,,,
,,,,,,,,,,,html-keyboard-response,231,2.0.0,814368,6703aeb136ffd366f9c531d4,3,16,null,,,,,,,,,<p style='font-size: 30px;'><strong>Okay</strong></p>,null,neutral_feedback,1,test,46,,,,,,,,,,,,,,,,,,,,,,,
,,,,,,,,,,,html-button-response,232,2.0.0,815970,6703aeb136ffd366f9c531d4,3,16,1599,,,,,,,,,"<img src= ""rock_img/I_Peridotite_16.jpg"" style=""width:8cm; height:6.989999999999999cm;""><p>What type of rock is this?</p>",3,class_response,1,test,47,Gabbro,Peridotite,16,FALSE,4,7,,,,,,,,,,,,,,,,,
,,,,,,,,,,,html-keyboard-response,233,2.0.0,816474,6703aeb136ffd366f9c531d4,3,16,null,,,,,,,,,<p style='font-size: 30px;'><strong>Okay</strong></p>,null,neutral_feedback,1,test,47,,,,,,,,,,,,,,,,,,,,,,,
,,,,,,,,,,,html-button-response,234,2.0.0,817872,6703aeb136ffd366f9c531d4,3,16,1397,,,,,,,,,"<img src= ""rock_img/I_Obsidian_16.jpg"" style=""width:8cm; height:9.3cm;""><p>What type of rock is this?</p>",4,class_response,1,test,48,Obsidian,Obsidian,16,TRUE,5,5,,,,,,,,,,,,,,,,,
,,,,,,,,,,,html-keyboard-response,235,2.0.0,818375,6703aeb136ffd366f9c531d4,3,16,null,,,,,,,,,<p style='font-size: 30px;'><strong>Okay</strong></p>,null,neutral_feedback,1,test,48,,,,,,,,,,,,,,,,,,,,,,,
,,,,,,,,,,,html-button-response,236,2.0.0,844766,6703aeb136ffd366f9c531d4,3,16,,,,,,,,,,,,cycle_feedback,,,,,,,,,,,,,,,,,,,,,,,17293.8,9086,,
,,,,,,,,,,,html-button-response,238,2.0.0,846731,6703aeb136ffd366f9c531d4,3,16,1963,,,,,,,,,,0,start_train,,,,,,,,,,,,,,,,,,,,,,,,,,
,,,,,,,,,,,html-button-response,240,2.0.0,848317,6703aeb136ffd366f9c531d4,3,16,1583,,,,,,,,,"<img src= ""rock_img/I_Gabbro_11.jpg"" style=""width:8cm; height:6.2cm;""><p>What type of rock is this?</p>",1,class_response,2,train,1,Basalt,Gabbro,11,FALSE,2,4,,,,,,,,,,,,,,,,,
,,,,,,,,,,,html-button-response,241,2.0.0,858205,6703aeb136ffd366f9c531d4,3,16,9884,,,,,,,,,"<img src= rock_img/I_Gabbro_11.jpg style=""width:8cm; height:6.2cm;""><p style='font-size: 30px; color: red;'><strong>Incorrect!</strong></p><p style='font-size: 30px;'><strong>This rock is gabbro</strong></p>",0,corr_feedback,2,train,1,,,,,,,,,,,,,,,,,,,,,,,
,,,,,,,,,,,html-button-response,242,2.0.0,861940,6703aeb136ffd366f9c531d4,3,16,3732,,,,,,,,,"<img src= ""rock_img/I_Pegmatite_10.jpg"" style=""width:8cm; height:4.16cm;""><p>What type of rock is this?</p>",3,class_response,2,train,2,Gabbro,Pegmatite,10,FALSE,4,6,,,,,,,,,,,,,,,,,
,,,,,,,,,,,html-button-response,243,2.0.0,864305,6703aeb136ffd366f9c531d4,3,16,2362,,,,,,,,,"<img src= rock_img/I_Pegmatite_10.jpg style=""width:8cm; height:4.16cm;""><p style='font-size: 30px; color: red;'><strong>Incorrect!</strong></p><p style='font-size: 30px;'><strong>This rock is pegmatite</strong></p>",0,corr_feedback,2,train,2,,,,,,,,,,,,,,,,,,,,,,,
,,,,,,,,,,,html-button-response,244,2.0.0,866631,6703aeb136ffd366f9c531d4,3,16,2323,,,,,,,,,"<img src= ""rock_img/I_Pumice_10.jpg"" style=""width:8cm; height:7.609999999999999cm;""><p>What type of rock is this?</p>",7,class_response,2,train,3,Pumice,Pumice,10,TRUE,8,8,,,,,,,,,,,,,,,,,
,,,,,,,,,,,html-button-response,245,2.0.0,868442,6703aeb136ffd366f9c531d4,3,16,1808,,,,,,,,,"<img src= rock_img/I_Pumice_10.jpg style=""width:8cm; height:7.609999999999999cm;""><p style='font-size: 30px; color: green;'><strong>Correct!</strong></p><p style='font-size: 30px;'><strong>This rock is pumice</strong></p>",0,corr_feedback,2,train,3,,,,,,,,,,,,,,,,,,,,,,,
,,,,,,,,,,,html-button-response,246,2.0.0,870250,6703aeb136ffd366f9c531d4,3,16,1804,,,,,,,,,"<img src= ""rock_img/I_Gabbro_03.jpg"" style=""width:8cm; height:8.52cm;""><p>What type of rock is this?</p>",2,class_response,2,train,4,Diorite,Gabbro,3,FALSE,3,4,,,,,,,,,,,,,,,,,
,,,,,,,,,,,html-button-response,247,2.0.0,874415,6703aeb136ffd366f9c531d4,3,16,4162,,,,,,,,,"<img src= rock_img/I_Gabbro_03.jpg style=""width:8cm; height:8.52cm;""><p style='font-size: 30px; color: red;'><strong>Incorrect!</strong></p><p style='font-size: 30px;'><strong>This rock is gabbro</strong></p>",0,corr_feedback,2,train,4,,,,,,,,,,,,,,,,,,,,,,,
,,,,,,,,,,,html-button-response,248,2.0.0,877314,6703aeb136ffd366f9c531d4,3,16,2896,,,,,,,,,"<img src= ""rock_img/I_Peridotite_07.jpg"" style=""width:8cm; height:4.83cm;""><p>What type of rock is this?</p>",2,class_response,2,train,5,Diorite,Peridotite,7,FALSE,3,7,,,,,,,,,,,,,,,,,
,,,,,,,,,,,html-button-response,249,2.0.0,880419,6703aeb136ffd366f9c531d4,3,16,3103,,,,,,,,,"<img src= rock_img/I_Peridotite_07.jpg style=""width:8cm; height:4.83cm;""><p style='font-size: 30px; color: red;'><strong>Incorrect!</strong></p><p style='font-size: 30px;'><strong>This rock is peridotite</strong></p>",0,corr_feedback,2,train,5,,,,,,,,,,,,,,,,,,,,,,,
,,,,,,,,,,,html-button-response,250,2.0.0,882571,6703aeb136ffd366f9c531d4,3,16,2148,,,,,,,,,"<img src= ""rock_img/I_Obsidian_07.jpg"" style=""width:8cm; height:4.76cm;""><p>What type of rock is this?</p>",4,class_response,2,train,6,Obsidian,Obsidian,7,TRUE,5,5,,,,,,,,,,,,,,,,,
,,,,,,,,,,,html-button-response,251,2.0.0,883551,6703aeb136ffd366f9c531d4,3,16,977,,,,,,,,,"<img src= rock_img/I_Obsidian_07.jpg style=""width:8cm; height:4.76cm;""><p style='font-size: 30px; color: green;'><strong>Correct!</strong></p><p style='font-size: 30px;'><strong>This rock is obsidian</strong></p>",0,corr_feedback,2,train,6,,,,,,,,,,,,,,,,,,,,,,,
,,,,,,,,,,,html-button-response,252,2.0.0,887114,6703aeb136ffd366f9c531d4,3,16,3560,,,,,,,,,"<img src= ""rock_img/I_Diorite_16.jpg"" style=""width:8cm; height:6.74cm;""><p>What type of rock is this?</p>",6,class_response,2,train,7,Peridotite,Diorite,16,FALSE,7,3,,,,,,,,,,,,,,,,,
,,,,,,,,,,,html-button-response,253,2.0.0,889740,6703aeb136ffd366f9c531d4,3,16,2622,,,,,,,,,"<img src= rock_img/I_Diorite_16.jpg style=""width:8cm; height:6.74cm;""><p style='font-size: 30px; color: red;'><strong>Incorrect!</strong></p><p style='font-size: 30px;'><strong>This rock is diorite</strong></p>",0,corr_feedback,2,train,7,,,,,,,,,,,,,,,,,,,,,,,
,,,,,,,,,,,html-button-response,254,2.0.0,895987,6703aeb136ffd366f9c531d4,3,16,6245,,,,,,,,,"<img src= ""rock_img/I_Andesite_16.jpg"" style=""width:8cm; height:6.010000000000001cm;""><p>What type of rock is this?</p>",6,class_response,2,train,8,Peridotite,Andesite,16,FALSE,7,1,,,,,,,,,,,,,,,,,
,,,,,,,,,,,html-button-response,255,2.0.0,897794,6703aeb136ffd366f9c531d4,3,16,1804,,,,,,,,,"<img src= rock_img/I_Andesite_16.jpg style=""width:8cm; height:6.010000000000001cm;""><p style='font-size: 30px; color: red;'><strong>Incorrect!</strong></p><p style='font-size: 30px;'><strong>This rock is andesite</strong></p>",0,corr_feedback,2,train,8,,,,,,,,,,,,,,,,,,,,,,,
,,,,,,,,,,,html-button-response,256,2.0.0,899083,6703aeb136ffd366f9c531d4,3,16,1286,,,,,,,,,"<img src= ""rock_img/I_Basalt_08.jpg"" style=""width:8cm; height:10.44cm;""><p>What type of rock is this?</p>",1,class_response,2,train,9,Basalt,Basalt,8,TRUE,2,2,,,,,,,,,,,,,,,,,
,,,,,,,,,,,html-button-response,257,2.0.0,900106,6703aeb136ffd366f9c531d4,3,16,1020,,,,,,,,,"<img src= rock_img/I_Basalt_08.jpg style=""width:8cm; height:10.44cm;""><p style='font-size: 30px; color: green;'><strong>Correct!</strong></p><p style='font-size: 30px;'><strong>This rock is basalt</strong></p>",0,corr_feedback,2,train,9,,,,,,,,,,,,,,,,,,,,,,,
,,,,,,,,,,,html-button-response,258,2.0.0,913845,6703aeb136ffd366f9c531d4,3,16,13735,,,,,,,,,"<img src= ""rock_img/I_Diorite_14.jpg"" style=""width:8cm; height:5.71cm;""><p>What type of rock is this?</p>",2,class_response,2,train,10,Diorite,Diorite,14,TRUE,3,3,,,,,,,,,,,,,,,,,
,,,,,,,,,,,html-button-response,259,2.0.0,914945,6703aeb136ffd366f9c531d4,3,16,1097,,,,,,,,,"<img src= rock_img/I_Diorite_14.jpg style=""width:8cm; height:5.71cm;""><p style='font-size: 30px; color: green;'><strong>Correct!</strong></p><p style='font-size: 30px;'><strong>This rock is diorite</strong></p>",0,corr_feedback,2,train,10,,,,,,,,,,,,,,,,,,,,,,,
,,,,,,,,,,,html-button-response,260,2.0.0,916182,6703aeb136ffd366f9c531d4,3,16,1233,,,,,,,,,"<img src= ""rock_img/I_Peridotite_02.jpg"" style=""width:8cm; height:5.859999999999999cm;""><p>What type of rock is this?</p>",3,class_response,2,train,11,Gabbro,Peridotite,2,FALSE,4,7,,,,,,,,,,,,,,,,,
,,,,,,,,,,,html-button-response,261,2.0.0,921110,6703aeb136ffd366f9c531d4,3,16,4925,,,,,,,,,"<img src= rock_img/I_Peridotite_02.jpg style=""width:8cm; height:5.859999999999999cm;""><p style='font-size: 30px; color: red;'><strong>Incorrect!</strong></p><p style='font-size: 30px;'><strong>This rock is peridotite</strong></p>",0,corr_feedback,2,train,11,,,,,,,,,,,,,,,,,,,,,,,
,,,,,,,,,,,html-button-response,262,2.0.0,922520,6703aeb136ffd366f9c531d4,3,16,1407,,,,,,,,,"<img src= ""rock_img/I_Pegmatite_16.jpg"" style=""width:8cm; height:5.8cm;""><p>What type of rock is this?</p>",5,class_response,2,train,12,Pegmatite,Pegmatite,16,TRUE,6,6,,,,,,,,,,,,,,,,,
,,,,,,,,,,,html-button-response,263,2.0.0,923228,6703aeb136ffd366f9c531d4,3,16,706,,,,,,,,,"<img src= rock_img/I_Pegmatite_16.jpg style=""width:8cm; height:5.8cm;""><p style='font-size: 30px; color: green;'><strong>Correct!</strong></p><p style='font-size: 30px;'><strong>This rock is pegmatite</strong></p>",0,corr_feedback,2,train,12,,,,,,,,,,,,,,,,,,,,,,,
,,,,,,,,,,,html-button-response,265,2.0.0,925008,6703aeb136ffd366f9c531d4,3,16,1778,,,,,,,,,,0,start_train,,,,,,,,,,,,,,,,,,,,,,,,,,
,,,,,,,,,,,html-button-response,266,2.0.0,927204,6703aeb136ffd366f9c531d4,3,16,,,,,,,,,,,,cat_selection,2,train,1,,,,,,,4,7,2192.1,Gabbro,Peridotite,"[0.1724542872195585,0.07255052465206695,0.1324927821925619,0.21667291774019076,0.024074768637798973,0.10465021616913224,0.18457322622312547,0.09253127716556524]","[0.026152672826544987,0.2968527936552725,0.18104980692915018,null,0.16622578588372275,0.026227716364067354,0.2808140053462018,0.022677218995040355]",,,,,,,,,,
,,,,,,,,,,,paired-cat-display,267,1.0.0,960708,6703aeb136ffd366f9c531d4,3,16,,,,,,,,,,,,paired_cat_display,2,train,1,,,,,,,,,8207.1,,,,,,,25290.6,,Gabbro has a darker color with lighter flakes,,,,Peridotite has a greenish tint to it,
,,,,,,,,,,,html-button-response,268,2.0.0,962729,6703aeb136ffd366f9c531d4,3,16,,,,,,,,,,,,cat_selection,2,train,2,,,,,,,1,3,2018.1,Andesite,Diorite,"[0.1724542872195585,0.07255052465206695,0.1324927821925619,0.21667291774019076,0.024074768637798973,0.10465021616913224,0.18457322622312547,0.09253127716556524]","[null,0.2820180102822173,0.27668965329038075,0.026887709128036383,0.02939034919931524,0.12339549911030416,0.2311338261369042,0.030484952852841828]",,,,,,,,,,
,,,,,,,,,,,paired-cat-display,269,1.0.0,994267,6703aeb136ffd366f9c531d4,3,16,,,,,,,,,,,,paired_cat_display,2,train,2,,,,,,,,,6057.4,,,,,,,25475.4,Diorite has prominate flakes,,,,,,Andesite has less prominate flakes than diorite
,,,,,,,,,,,html-button-response,270,2.0.0,996589,6703aeb136ffd366f9c531d4,3,16,,,,,,,,,,,,cat_selection,2,train,3,,,,,,,2,4,2319.9,Basalt,Gabbro,"[0.1724542872195585,0.07255052465206695,0.1324927821925619,0.21667291774019076,0.024074768637798973,0.10465021616913224,0.18457322622312547,0.09253127716556524]","[0.21271645044961446,null,0.045478266145457004,0.2110820752600121,0.059487196342048666,0.20032159264523877,0.21346765395290995,0.05744676520471901]",,,,,,,,,,
,,,,,,,,,,,paired-cat-display,271,1.0.0,1028467,6703aeb136ffd366f9c531d4,3,16,,,,,,,,,,,,paired_cat_display,2,train,3,,,,,,,,,6408.4,,,,,Basalt is black and can be pourous,,25464.9,,Gabbro is black and may have flakes,,,,,
,,,,,,,,,,,html-button-response,273,2.0.0,1031089,6703aeb136ffd366f9c531d4,3,16,2620,,,,,,,,,,0,start_test,,,,,,,,,,,,,,,,,,,,,,,,,,
,,,,,,,,,,,html-button-response,274,2.0.0,1034328,6703aeb136ffd366f9c531d4,3,16,3235,,,,,,,,,"<img src= ""rock_img/I_Diorite_08.jpg"" style=""width:8cm; height:6.37cm;""><p>What type of rock is this?</p>",2,class_response,2,test,1,Diorite,Diorite,8,TRUE,3,3,,,,,,,,,,,,,,,,,
,,,,,,,,,,,html-keyboard-response,275,2.0.0,1034831,6703aeb136ffd366f9c531d4,3,16,null,,,,,,,,,<p style='font-size: 30px;'><strong>Okay</strong></p>,null,neutral_feedback,2,test,1,,,,,,,,,,,,,,,,,,,,,,,
,,,,,,,,,,,html-button-response,276,2.0.0,1040897,6703aeb136ffd366f9c531d4,3,16,6063,,,,,,,,,"<img src= ""rock_img/I_Diorite_12.jpg"" style=""width:8cm; height:4.88cm;""><p>What type of rock is this?</p>",3,class_response,2,test,2,Gabbro,Diorite,12,FALSE,4,3,,,,,,,,,,,,,,,,,
,,,,,,,,,,,html-keyboard-response,277,2.0.0,1041407,6703aeb136ffd366f9c531d4,3,16,null,,,,,,,,,<p style='font-size: 30px;'><strong>Okay</strong></p>,null,neutral_feedback,2,test,2,,,,,,,,,,,,,,,,,,,,,,,
,,,,,,,,,,,html-button-response,278,2.0.0,1042957,6703aeb136ffd366f9c531d4,3,16,1548,,,,,,,,,"<img src= ""rock_img/I_Obsidian_09.jpg"" style=""width:8cm; height:5cm;""><p>What type of rock is this?</p>",4,class_response,2,test,3,Obsidian,Obsidian,9,TRUE,5,5,,,,,,,,,,,,,,,,,
,,,,,,,,,,,html-keyboard-response,279,2.0.0,1043460,6703aeb136ffd366f9c531d4,3,16,null,,,,,,,,,<p style='font-size: 30px;'><strong>Okay</strong></p>,null,neutral_feedback,2,test,3,,,,,,,,,,,,,,,,,,,,,,,
,,,,,,,,,,,html-button-response,280,2.0.0,1044858,6703aeb136ffd366f9c531d4,3,16,1395,,,,,,,,,"<img src= ""rock_img/I_Basalt_04.jpg"" style=""width:8cm; height:7.53cm;""><p>What type of rock is this?</p>",1,class_response,2,test,4,Basalt,Basalt,4,TRUE,2,2,,,,,,,,,,,,,,,,,
,,,,,,,,,,,html-keyboard-response,281,2.0.0,1045363,6703aeb136ffd366f9c531d4,3,16,null,,,,,,,,,<p style='font-size: 30px;'><strong>Okay</strong></p>,null,neutral_feedback,2,test,4,,,,,,,,,,,,,,,,,,,,,,,
,,,,,,,,,,,html-button-response,282,2.0.0,1047616,6703aeb136ffd366f9c531d4,3,16,2250,,,,,,,,,"<img src= ""rock_img/I_Pegmatite_15.jpg"" style=""width:8cm; height:6cm;""><p>What type of rock is this?</p>",5,class_response,2,test,5,Pegmatite,Pegmatite,15,TRUE,6,6,,,,,,,,,,,,,,,,,
,,,,,,,,,,,html-keyboard-response,283,2.0.0,1048125,6703aeb136ffd366f9c531d4,3,16,null,,,,,,,,,<p style='font-size: 30px;'><strong>Okay</strong></p>,null,neutral_feedback,2,test,5,,,,,,,,,,,,,,,,,,,,,,,
,,,,,,,,,,,html-button-response,284,2.0.0,1052400,6703aeb136ffd366f9c531d4,3,16,4273,,,,,,,,,"<img src= ""rock_img/I_Pumice_15.jpg"" style=""width:8cm; height:7.86cm;""><p>What type of rock is this?</p>",7,class_response,2,test,6,Pumice,Pumice,15,TRUE,8,8,,,,,,,,,,,,,,,,,
,,,,,,,,,,,html-keyboard-response,285,2.0.0,1052902,6703aeb136ffd366f9c531d4,3,16,null,,,,,,,,,<p style='font-size: 30px;'><strong>Okay</strong></p>,null,neutral_feedback,2,test,6,,,,,,,,,,,,,,,,,,,,,,,
,,,,,,,,,,,html-button-response,286,2.0.0,1058107,6703aeb136ffd366f9c531d4,3,16,5203,,,,,,,,,"<img src= ""rock_img/I_Peridotite_13.jpg"" style=""width:8cm; height:7.58cm;""><p>What type of rock is this?</p>",6,class_response,2,test,7,Peridotite,Peridotite,13,TRUE,7,7,,,,,,,,,,,,,,,,,
,,,,,,,,,,,html-keyboard-response,287,2.0.0,1058610,6703aeb136ffd366f9c531d4,3,16,null,,,,,,,,,<p style='font-size: 30px;'><strong>Okay</strong></p>,null,neutral_feedback,2,test,7,,,,,,,,,,,,,,,,,,,,,,,
,,,,,,,,,,,html-button-response,288,2.0.0,1063155,6703aeb136ffd366f9c531d4,3,16,4543,,,,,,,,,"<img src= ""rock_img/I_Gabbro_09.jpg"" style=""width:8cm; height:7.279999999999999cm;""><p>What type of rock is this?</p>",1,class_response,2,test,8,Basalt,Gabbro,9,FALSE,2,4,,,,,,,,,,,,,,,,,
,,,,,,,,,,,html-keyboard-response,289,2.0.0,1063663,6703aeb136ffd366f9c531d4,3,16,null,,,,,,,,,<p style='font-size: 30px;'><strong>Okay</strong></p>,null,neutral_feedback,2,test,8,,,,,,,,,,,,,,,,,,,,,,,
,,,,,,,,,,,html-button-response,290,2.0.0,1070615,6703aeb136ffd366f9c531d4,3,16,6947,,,,,,,,,"<img src= ""rock_img/I_Diorite_11.jpg"" style=""width:8cm; height:7.11cm;""><p>What type of rock is this?</p>",6,class_response,2,test,9,Peridotite,Diorite,11,FALSE,7,3,,,,,,,,,,,,,,,,,
,,,,,,,,,,,html-keyboard-response,291,2.0.0,1071117,6703aeb136ffd366f9c531d4,3,16,null,,,,,,,,,<p style='font-size: 30px;'><strong>Okay</strong></p>,null,neutral_feedback,2,test,9,,,,,,,,,,,,,,,,,,,,,,,
,,,,,,,,,,,html-button-response,292,2.0.0,1072536,6703aeb136ffd366f9c531d4,3,16,1417,,,,,,,,,"<img src= ""rock_img/I_Pumice_06.jpg"" style=""width:8cm; height:6.9399999999999995cm;""><p>What type of rock is this?</p>",7,class_response,2,test,10,Pumice,Pumice,6,TRUE,8,8,,,,,,,,,,,,,,,,,
,,,,,,,,,,,html-keyboard-response,293,2.0.0,1073051,6703aeb136ffd366f9c531d4,3,16,null,,,,,,,,,<p style='font-size: 30px;'><strong>Okay</strong></p>,null,neutral_feedback,2,test,10,,,,,,,,,,,,,,,,,,,,,,,
,,,,,,,,,,,html-button-response,294,2.0.0,1075907,6703aeb136ffd366f9c531d4,3,16,2853,,,,,,,,,"<img src= ""rock_img/I_Andesite_11.jpg"" style=""width:8cm; height:4.92cm;""><p>What type of rock is this?</p>",0,class_response,2,test,11,Andesite,Andesite,11,TRUE,1,1,,,,,,,,,,,,,,,,,
,,,,,,,,,,,html-keyboard-response,295,2.0.0,1076415,6703aeb136ffd366f9c531d4,3,16,null,,,,,,,,,<p style='font-size: 30px;'><strong>Okay</strong></p>,null,neutral_feedback,2,test,11,,,,,,,,,,,,,,,,,,,,,,,
,,,,,,,,,,,html-button-response,296,2.0.0,1079226,6703aeb136ffd366f9c531d4,3,16,2809,,,,,,,,,"<img src= ""rock_img/I_Pegmatite_12.jpg"" style=""width:8cm; height:5.7cm;""><p>What type of rock is this?</p>",5,class_response,2,test,12,Pegmatite,Pegmatite,12,TRUE,6,6,,,,,,,,,,,,,,,,,
,,,,,,,,,,,html-keyboard-response,297,2.0.0,1079736,6703aeb136ffd366f9c531d4,3,16,null,,,,,,,,,<p style='font-size: 30px;'><strong>Okay</strong></p>,null,neutral_feedback,2,test,12,,,,,,,,,,,,,,,,,,,,,,,
,,,,,,,,,,,html-button-response,298,2.0.0,1087536,6703aeb136ffd366f9c531d4,3,16,7797,,,,,,,,,"<img src= ""rock_img/I_Andesite_09.jpg"" style=""width:8cm; height:6cm;""><p>What type of rock is this?</p>",3,class_response,2,test,13,Gabbro,Andesite,9,FALSE,4,1,,,,,,,,,,,,,,,,,
,,,,,,,,,,,html-keyboard-response,299,2.0.0,1088041,6703aeb136ffd366f9c531d4,3,16,null,,,,,,,,,<p style='font-size: 30px;'><strong>Okay</strong></p>,null,neutral_feedback,2,test,13,,,,,,,,,,,,,,,,,,,,,,,
,,,,,,,,,,,html-button-response,300,2.0.0,1093874,6703aeb136ffd366f9c531d4,3,16,5830,,,,,,,,,"<img src= ""rock_img/I_Basalt_09.jpg"" style=""width:8cm; height:6.2cm;""><p>What type of rock is this?</p>",2,class_response,2,test,14,Diorite,Basalt,9,FALSE,3,2,,,,,,,,,,,,,,,,,
,,,,,,,,,,,html-keyboard-response,301,2.0.0,1094382,6703aeb136ffd366f9c531d4,3,16,null,,,,,,,,,<p style='font-size: 30px;'><strong>Okay</strong></p>,null,neutral_feedback,2,test,14,,,,,,,,,,,,,,,,,,,,,,,
,,,,,,,,,,,html-button-response,302,2.0.0,1096927,6703aeb136ffd366f9c531d4,3,16,2542,,,,,,,,,"<img src= ""rock_img/I_Andesite_10.jpg"" style=""width:8cm; height:4.16cm;""><p>What type of rock is this?</p>",2,class_response,2,test,15,Diorite,Andesite,10,FALSE,3,1,,,,,,,,,,,,,,,,,
,,,,,,,,,,,html-keyboard-response,303,2.0.0,1097434,6703aeb136ffd366f9c531d4,3,16,null,,,,,,,,,<p style='font-size: 30px;'><strong>Okay</strong></p>,null,neutral_feedback,2,test,15,,,,,,,,,,,,,,,,,,,,,,,
,,,,,,,,,,,html-button-response,304,2.0.0,1102606,6703aeb136ffd366f9c531d4,3,16,5169,,,,,,,,,"<img src= ""rock_img/I_Andesite_01.jpg"" style=""width:8cm; height:5.87cm;""><p>What type of rock is this?</p>",6,class_response,2,test,16,Peridotite,Andesite,1,FALSE,7,1,,,,,,,,,,,,,,,,,
,,,,,,,,,,,html-keyboard-response,305,2.0.0,1103121,6703aeb136ffd366f9c531d4,3,16,null,,,,,,,,,<p style='font-size: 30px;'><strong>Okay</strong></p>,null,neutral_feedback,2,test,16,,,,,,,,,,,,,,,,,,,,,,,
,,,,,,,,,,,html-button-response,306,2.0.0,1105742,6703aeb136ffd366f9c531d4,3,16,2618,,,,,,,,,"<img src= ""rock_img/I_Peridotite_15.jpg"" style=""width:8cm; height:6cm;""><p>What type of rock is this?</p>",6,class_response,2,test,17,Peridotite,Peridotite,15,TRUE,7,7,,,,,,,,,,,,,,,,,
,,,,,,,,,,,html-keyboard-response,307,2.0.0,1106246,6703aeb136ffd366f9c531d4,3,16,null,,,,,,,,,<p style='font-size: 30px;'><strong>Okay</strong></p>,null,neutral_feedback,2,test,17,,,,,,,,,,,,,,,,,,,,,,,
,,,,,,,,,,,html-button-response,308,2.0.0,1112072,6703aeb136ffd366f9c531d4,3,16,5823,,,,,,,,,"<img src= ""rock_img/I_Pegmatite_13.jpg"" style=""width:8cm; height:4.95cm;""><p>What type of rock is this?</p>",5,class_response,2,test,18,Pegmatite,Pegmatite,13,TRUE,6,6,,,,,,,,,,,,,,,,,
,,,,,,,,,,,html-keyboard-response,309,2.0.0,1112588,6703aeb136ffd366f9c531d4,3,16,null,,,,,,,,,<p style='font-size: 30px;'><strong>Okay</strong></p>,null,neutral_feedback,2,test,18,,,,,,,,,,,,,,,,,,,,,,,
,,,,,,,,,,,html-button-response,310,2.0.0,1115410,6703aeb136ffd366f9c531d4,3,16,2820,,,,,,,,,"<img src= ""rock_img/I_Peridotite_12.jpg"" style=""width:8cm; height:4.54cm;""><p>What type of rock is this?</p>",6,class_response,2,test,19,Peridotite,Peridotite,12,TRUE,7,7,,,,,,,,,,,,,,,,,
,,,,,,,,,,,html-keyboard-response,311,2.0.0,1115918,6703aeb136ffd366f9c531d4,3,16,null,,,,,,,,,<p style='font-size: 30px;'><strong>Okay</strong></p>,null,neutral_feedback,2,test,19,,,,,,,,,,,,,,,,,,,,,,,
,,,,,,,,,,,html-button-response,312,2.0.0,1117360,6703aeb136ffd366f9c531d4,3,16,1439,,,,,,,,,"<img src= ""rock_img/I_Basalt_05.jpg"" style=""width:8cm; height:8.18cm;""><p>What type of rock is this?</p>",1,class_response,2,test,20,Basalt,Basalt,5,TRUE,2,2,,,,,,,,,,,,,,,,,
,,,,,,,,,,,html-keyboard-response,313,2.0.0,1117877,6703aeb136ffd366f9c531d4,3,16,null,,,,,,,,,<p style='font-size: 30px;'><strong>Okay</strong></p>,null,neutral_feedback,2,test,20,,,,,,,,,,,,,,,,,,,,,,,
,,,,,,,,,,,html-button-response,314,2.0.0,1120006,6703aeb136ffd366f9c531d4,3,16,2126,,,,,,,,,"<img src= ""rock_img/I_Gabbro_08.jpg"" style=""width:8cm; height:5.15cm;""><p>What type of rock is this?</p>",1,class_response,2,test,21,Basalt,Gabbro,8,FALSE,2,4,,,,,,,,,,,,,,,,,
,,,,,,,,,,,html-keyboard-response,315,2.0.0,1120514,6703aeb136ffd366f9c531d4,3,16,null,,,,,,,,,<p style='font-size: 30px;'><strong>Okay</strong></p>,null,neutral_feedback,2,test,21,,,,,,,,,,,,,,,,,,,,,,,
,,,,,,,,,,,html-button-response,316,2.0.0,1121956,6703aeb136ffd366f9c531d4,3,16,1439,,,,,,,,,"<img src= ""rock_img/I_Pegmatite_06.jpg"" style=""width:8cm; height:5.17cm;""><p>What type of rock is this?</p>",5,class_response,2,test,22,Pegmatite,Pegmatite,6,TRUE,6,6,,,,,,,,,,,,,,,,,
,,,,,,,,,,,html-keyboard-response,317,2.0.0,1122460,6703aeb136ffd366f9c531d4,3,16,null,,,,,,,,,<p style='font-size: 30px;'><strong>Okay</strong></p>,null,neutral_feedback,2,test,22,,,,,,,,,,,,,,,,,,,,,,,
,,,,,,,,,,,html-button-response,318,2.0.0,1123602,6703aeb136ffd366f9c531d4,3,16,1138,,,,,,,,,"<img src= ""rock_img/I_Obsidian_14.jpg"" style=""width:8cm; height:7.64cm;""><p>What type of rock is this?</p>",4,class_response,2,test,23,Obsidian,Obsidian,14,TRUE,5,5,,,,,,,,,,,,,,,,,
,,,,,,,,,,,html-keyboard-response,319,2.0.0,1124105,6703aeb136ffd366f9c531d4,3,16,null,,,,,,,,,<p style='font-size: 30px;'><strong>Okay</strong></p>,null,neutral_feedback,2,test,23,,,,,,,,,,,,,,,,,,,,,,,
,,,,,,,,,,,html-button-response,320,2.0.0,1129048,6703aeb136ffd366f9c531d4,3,16,4941,,,,,,,,,"<img src= ""rock_img/I_Diorite_15.jpg"" style=""width:8cm; height:5.54cm;""><p>What type of rock is this?</p>",3,class_response,2,test,24,Gabbro,Diorite,15,FALSE,4,3,,,,,,,,,,,,,,,,,
,,,,,,,,,,,html-keyboard-response,321,2.0.0,1129552,6703aeb136ffd366f9c531d4,3,16,null,,,,,,,,,<p style='font-size: 30px;'><strong>Okay</strong></p>,null,neutral_feedback,2,test,24,,,,,,,,,,,,,,,,,,,,,,,
,,,,,,,,,,,html-button-response,322,2.0.0,1131186,6703aeb136ffd366f9c531d4,3,16,1631,,,,,,,,,"<img src= ""rock_img/I_Obsidian_11.jpg"" style=""width:8cm; height:6.05cm;""><p>What type of rock is this?</p>",4,class_response,2,test,25,Obsidian,Obsidian,11,TRUE,5,5,,,,,,,,,,,,,,,,,
,,,,,,,,,,,html-keyboard-response,323,2.0.0,1131694,6703aeb136ffd366f9c531d4,3,16,null,,,,,,,,,<p style='font-size: 30px;'><strong>Okay</strong></p>,null,neutral_feedback,2,test,25,,,,,,,,,,,,,,,,,,,,,,,
,,,,,,,,,,,html-button-response,324,2.0.0,1134020,6703aeb136ffd366f9c531d4,3,16,2322,,,,,,,,,"<img src= ""rock_img/I_Gabbro_01.jpg"" style=""width:8cm; height:5.21cm;""><p>What type of rock is this?</p>",6,class_response,2,test,26,Peridotite,Gabbro,1,FALSE,7,4,,,,,,,,,,,,,,,,,
,,,,,,,,,,,html-keyboard-response,325,2.0.0,1134528,6703aeb136ffd366f9c531d4,3,16,null,,,,,,,,,<p style='font-size: 30px;'><strong>Okay</strong></p>,null,neutral_feedback,2,test,26,,,,,,,,,,,,,,,,,,,,,,,
,,,,,,,,,,,html-button-response,326,2.0.0,1138557,6703aeb136ffd366f9c531d4,3,16,4026,,,,,,,,,"<img src= ""rock_img/I_Basalt_14.jpg"" style=""width:8cm; height:5.82cm;""><p>What type of rock is this?</p>",2,class_response,2,test,27,Diorite,Basalt,14,FALSE,3,2,,,,,,,,,,,,,,,,,
,,,,,,,,,,,html-keyboard-response,327,2.0.0,1139065,6703aeb136ffd366f9c531d4,3,16,null,,,,,,,,,<p style='font-size: 30px;'><strong>Okay</strong></p>,null,neutral_feedback,2,test,27,,,,,,,,,,,,,,,,,,,,,,,
,,,,,,,,,,,html-button-response,328,2.0.0,1140514,6703aeb136ffd366f9c531d4,3,16,1446,,,,,,,,,"<img src= ""rock_img/I_Pumice_13.jpg"" style=""width:8cm; height:8.200000000000001cm;""><p>What type of rock is this?</p>",7,class_response,2,test,28,Pumice,Pumice,13,TRUE,8,8,,,,,,,,,,,,,,,,,
,,,,,,,,,,,html-keyboard-response,329,2.0.0,1141023,6703aeb136ffd366f9c531d4,3,16,null,,,,,,,,,<p style='font-size: 30px;'><strong>Okay</strong></p>,null,neutral_feedback,2,test,28,,,,,,,,,,,,,,,,,,,,,,,
,,,,,,,,,,,html-button-response,330,2.0.0,1143314,6703aeb136ffd366f9c531d4,3,16,2289,,,,,,,,,"<img src= ""rock_img/I_Basalt_11.jpg"" style=""width:8cm; height:5.359999999999999cm;""><p>What type of rock is this?</p>",0,class_response,2,test,29,Andesite,Basalt,11,FALSE,1,2,,,,,,,,,,,,,,,,,
,,,,,,,,,,,html-keyboard-response,331,2.0.0,1143817,6703aeb136ffd366f9c531d4,3,16,null,,,,,,,,,<p style='font-size: 30px;'><strong>Okay</strong></p>,null,neutral_feedback,2,test,29,,,,,,,,,,,,,,,,,,,,,,,
,,,,,,,,,,,html-button-response,332,2.0.0,1145112,6703aeb136ffd366f9c531d4,3,16,1293,,,,,,,,,"<img src= ""rock_img/I_Pumice_05.jpg"" style=""width:8cm; height:7.25cm;""><p>What type of rock is this?</p>",7,class_response,2,test,30,Pumice,Pumice,5,TRUE,8,8,,,,,,,,,,,,,,,,,
,,,,,,,,,,,html-keyboard-response,333,2.0.0,1145617,6703aeb136ffd366f9c531d4,3,16,null,,,,,,,,,<p style='font-size: 30px;'><strong>Okay</strong></p>,null,neutral_feedback,2,test,30,,,,,,,,,,,,,,,,,,,,,,,
,,,,,,,,,,,html-button-response,334,2.0.0,1149117,6703aeb136ffd366f9c531d4,3,16,3497,,,,,,,,,"<img src= ""rock_img/I_Basalt_01.jpg"" style=""width:8cm; height:7.880000000000001cm;""><p>What type of rock is this?</p>",1,class_response,2,test,31,Basalt,Basalt,1,TRUE,2,2,,,,,,,,,,,,,,,,,
,,,,,,,,,,,html-keyboard-response,335,2.0.0,1149622,6703aeb136ffd366f9c531d4,3,16,null,,,,,,,,,<p style='font-size: 30px;'><strong>Okay</strong></p>,null,neutral_feedback,2,test,31,,,,,,,,,,,,,,,,,,,,,,,
,,,,,,,,,,,html-button-response,336,2.0.0,1152177,6703aeb136ffd366f9c531d4,3,16,2552,,,,,,,,,"<img src= ""rock_img/I_Andesite_05.jpg"" style=""width:8cm; height:4.12cm;""><p>What type of rock is this?</p>",7,class_response,2,test,32,Pumice,Andesite,5,FALSE,8,1,,,,,,,,,,,,,,,,,
,,,,,,,,,,,html-keyboard-response,337,2.0.0,1152694,6703aeb136ffd366f9c531d4,3,16,null,,,,,,,,,<p style='font-size: 30px;'><strong>Okay</strong></p>,null,neutral_feedback,2,test,32,,,,,,,,,,,,,,,,,,,,,,,
,,,,,,,,,,,html-button-response,338,2.0.0,1155627,6703aeb136ffd366f9c531d4,3,16,2929,,,,,,,,,"<img src= ""rock_img/I_Diorite_07.jpg"" style=""width:8cm; height:5.239999999999999cm;""><p>What type of rock is this?</p>",2,class_response,2,test,33,Diorite,Diorite,7,TRUE,3,3,,,,,,,,,,,,,,,,,
,,,,,,,,,,,html-keyboard-response,339,2.0.0,1156137,6703aeb136ffd366f9c531d4,3,16,null,,,,,,,,,<p style='font-size: 30px;'><strong>Okay</strong></p>,null,neutral_feedback,2,test,33,,,,,,,,,,,,,,,,,,,,,,,
,,,,,,,,,,,html-button-response,340,2.0.0,1157660,6703aeb136ffd366f9c531d4,3,16,1520,,,,,,,,,"<img src= ""rock_img/I_Pumice_09.jpg"" style=""width:8cm; height:6.44cm;""><p>What type of rock is this?</p>",7,class_response,2,test,34,Pumice,Pumice,9,TRUE,8,8,,,,,,,,,,,,,,,,,
,,,,,,,,,,,html-keyboard-response,341,2.0.0,1158167,6703aeb136ffd366f9c531d4,3,16,null,,,,,,,,,<p style='font-size: 30px;'><strong>Okay</strong></p>,null,neutral_feedback,2,test,34,,,,,,,,,,,,,,,,,,,,,,,
,,,,,,,,,,,html-button-response,342,2.0.0,1160692,6703aeb136ffd366f9c531d4,3,16,2523,,,,,,,,,"<img src= ""rock_img/I_Pegmatite_09.jpg"" style=""width:8cm; height:4.03cm;""><p>What type of rock is this?</p>",6,class_response,2,test,35,Peridotite,Pegmatite,9,FALSE,7,6,,,,,,,,,,,,,,,,,
,,,,,,,,,,,html-keyboard-response,343,2.0.0,1161199,6703aeb136ffd366f9c531d4,3,16,null,,,,,,,,,<p style='font-size: 30px;'><strong>Okay</strong></p>,null,neutral_feedback,2,test,35,,,,,,,,,,,,,,,,,,,,,,,
,,,,,,,,,,,html-button-response,344,2.0.0,1162901,6703aeb136ffd366f9c531d4,3,16,1699,,,,,,,,,"<img src= ""rock_img/I_Obsidian_06.jpg"" style=""width:8cm; height:6.8cm;""><p>What type of rock is this?</p>",4,class_response,2,test,36,Obsidian,Obsidian,6,TRUE,5,5,,,,,,,,,,,,,,,,,
,,,,,,,,,,,html-keyboard-response,345,2.0.0,1163412,6703aeb136ffd366f9c531d4,3,16,null,,,,,,,,,<p style='font-size: 30px;'><strong>Okay</strong></p>,null,neutral_feedback,2,test,36,,,,,,,,,,,,,,,,,,,,,,,
,,,,,,,,,,,html-button-response,346,2.0.0,1164887,6703aeb136ffd366f9c531d4,3,16,1473,,,,,,,,,"<img src= ""rock_img/I_Obsidian_16.jpg"" style=""width:8cm; height:9.3cm;""><p>What type of rock is this?</p>",4,class_response,2,test,37,Obsidian,Obsidian,16,TRUE,5,5,,,,,,,,,,,,,,,,,
,,,,,,,,,,,html-keyboard-response,347,2.0.0,1165398,6703aeb136ffd366f9c531d4,3,16,null,,,,,,,,,<p style='font-size: 30px;'><strong>Okay</strong></p>,null,neutral_feedback,2,test,37,,,,,,,,,,,,,,,,,,,,,,,
,,,,,,,,,,,html-button-response,348,2.0.0,1167008,6703aeb136ffd366f9c531d4,3,16,1607,,,,,,,,,"<img src= ""rock_img/I_Pegmatite_11.jpg"" style=""width:8cm; height:8.14cm;""><p>What type of rock is this?</p>",5,class_response,2,test,38,Pegmatite,Pegmatite,11,TRUE,6,6,,,,,,,,,,,,,,,,,
,,,,,,,,,,,html-keyboard-response,349,2.0.0,1167524,6703aeb136ffd366f9c531d4,3,16,null,,,,,,,,,<p style='font-size: 30px;'><strong>Okay</strong></p>,null,neutral_feedback,2,test,38,,,,,,,,,,,,,,,,,,,,,,,
,,,,,,,,,,,html-button-response,350,2.0.0,1175271,6703aeb136ffd366f9c531d4,3,16,7744,,,,,,,,,"<img src= ""rock_img/I_Gabbro_05.jpg"" style=""width:8cm; height:6cm;""><p>What type of rock is this?</p>",3,class_response,2,test,39,Gabbro,Gabbro,5,TRUE,4,4,,,,,,,,,,,,,,,,,
,,,,,,,,,,,html-keyboard-response,351,2.0.0,1175778,6703aeb136ffd366f9c531d4,3,16,null,,,,,,,,,<p style='font-size: 30px;'><strong>Okay</strong></p>,null,neutral_feedback,2,test,39,,,,,,,,,,,,,,,,,,,,,,,
,,,,,,,,,,,html-button-response,352,2.0.0,1180946,6703aeb136ffd366f9c531d4,3,16,5164,,,,,,,,,"<img src= ""rock_img/I_Diorite_10.jpg"" style=""width:8cm; height:5.949999999999999cm;""><p>What type of rock is this?</p>",0,class_response,2,test,40,Andesite,Diorite,10,FALSE,1,3,,,,,,,,,,,,,,,,,
,,,,,,,,,,,html-keyboard-response,353,2.0.0,1181453,6703aeb136ffd366f9c531d4,3,16,null,,,,,,,,,<p style='font-size: 30px;'><strong>Okay</strong></p>,null,neutral_feedback,2,test,40,,,,,,,,,,,,,,,,,,,,,,,
,,,,,,,,,,,html-button-response,354,2.0.0,1184422,6703aeb136ffd366f9c531d4,3,16,2966,,,,,,,,,"<img src= ""rock_img/I_Peridotite_14.jpg"" style=""width:8cm; height:5.3cm;""><p>What type of rock is this?</p>",7,class_response,2,test,41,Pumice,Peridotite,14,FALSE,8,7,,,,,,,,,,,,,,,,,
,,,,,,,,,,,html-keyboard-response,355,2.0.0,1184933,6703aeb136ffd366f9c531d4,3,16,null,,,,,,,,,<p style='font-size: 30px;'><strong>Okay</strong></p>,null,neutral_feedback,2,test,41,,,,,,,,,,,,,,,,,,,,,,,
,,,,,,,,,,,html-button-response,356,2.0.0,1187715,6703aeb136ffd366f9c531d4,3,16,2779,,,,,,,,,"<img src= ""rock_img/I_Peridotite_05.jpg"" style=""width:8cm; height:7.1499999999999995cm;""><p>What type of rock is this?</p>",3,class_response,2,test,42,Gabbro,Peridotite,5,FALSE,4,7,,,,,,,,,,,,,,,,,
,,,,,,,,,,,html-keyboard-response,357,2.0.0,1188218,6703aeb136ffd366f9c531d4,3,16,null,,,,,,,,,<p style='font-size: 30px;'><strong>Okay</strong></p>,null,neutral_feedback,2,test,42,,,,,,,,,,,,,,,,,,,,,,,
,,,,,,,,,,,html-button-response,358,2.0.0,1200945,6703aeb136ffd366f9c531d4,3,16,12725,,,,,,,,,"<img src= ""rock_img/I_Peridotite_16.jpg"" style=""width:8cm; height:6.989999999999999cm;""><p>What type of rock is this?</p>",3,class_response,2,test,43,Gabbro,Peridotite,16,FALSE,4,7,,,,,,,,,,,,,,,,,
,,,,,,,,,,,html-keyboard-response,359,2.0.0,1201451,6703aeb136ffd366f9c531d4,3,16,null,,,,,,,,,<p style='font-size: 30px;'><strong>Okay</strong></p>,null,neutral_feedback,2,test,43,,,,,,,,,,,,,,,,,,,,,,,
,,,,,,,,,,,html-button-response,360,2.0.0,1203074,6703aeb136ffd366f9c531d4,3,16,1620,,,,,,,,,"<img src= ""rock_img/I_Pumice_02.jpg"" style=""width:8cm; height:7.3999999999999995cm;""><p>What type of rock is this?</p>",7,class_response,2,test,44,Pumice,Pumice,2,TRUE,8,8,,,,,,,,,,,,,,,,,
,,,,,,,,,,,html-keyboard-response,361,2.0.0,1203581,6703aeb136ffd366f9c531d4,3,16,null,,,,,,,,,<p style='font-size: 30px;'><strong>Okay</strong></p>,null,neutral_feedback,2,test,44,,,,,,,,,,,,,,,,,,,,,,,
,,,,,,,,,,,html-button-response,362,2.0.0,1205894,6703aeb136ffd366f9c531d4,3,16,2310,,,,,,,,,"<img src= ""rock_img/I_Andesite_04.jpg"" style=""width:8cm; height:5.96cm;""><p>What type of rock is this?</p>",0,class_response,2,test,45,Andesite,Andesite,4,TRUE,1,1,,,,,,,,,,,,,,,,,
,,,,,,,,,,,html-keyboard-response,363,2.0.0,1206401,6703aeb136ffd366f9c531d4,3,16,null,,,,,,,,,<p style='font-size: 30px;'><strong>Okay</strong></p>,null,neutral_feedback,2,test,45,,,,,,,,,,,,,,,,,,,,,,,
,,,,,,,,,,,html-button-response,364,2.0.0,1207910,6703aeb136ffd366f9c531d4,3,16,1506,,,,,,,,,"<img src= ""rock_img/I_Obsidian_08.jpg"" style=""width:8cm; height:7.39cm;""><p>What type of rock is this?</p>",4,class_response,2,test,46,Obsidian,Obsidian,8,TRUE,5,5,,,,,,,,,,,,,,,,,
,,,,,,,,,,,html-keyboard-response,365,2.0.0,1208417,6703aeb136ffd366f9c531d4,3,16,null,,,,,,,,,<p style='font-size: 30px;'><strong>Okay</strong></p>,null,neutral_feedback,2,test,46,,,,,,,,,,,,,,,,,,,,,,,
,,,,,,,,,,,html-button-response,366,2.0.0,1221744,6703aeb136ffd366f9c531d4,3,16,13324,,,,,,,,,"<img src= ""rock_img/I_Gabbro_12.jpg"" style=""width:8cm; height:7.800000000000001cm;""><p>What type of rock is this?</p>",0,class_response,2,test,47,Andesite,Gabbro,12,FALSE,1,4,,,,,,,,,,,,,,,,,
,,,,,,,,,,,html-keyboard-response,367,2.0.0,1222249,6703aeb136ffd366f9c531d4,3,16,null,,,,,,,,,<p style='font-size: 30px;'><strong>Okay</strong></p>,null,neutral_feedback,2,test,47,,,,,,,,,,,,,,,,,,,,,,,
,,,,,,,,,,,html-button-response,368,2.0.0,1224515,6703aeb136ffd366f9c531d4,3,16,2264,,,,,,,,,"<img src= ""rock_img/I_Gabbro_14.jpg"" style=""width:8cm; height:8.48cm;""><p>What type of rock is this?</p>",3,class_response,2,test,48,Gabbro,Gabbro,14,TRUE,4,4,,,,,,,,,,,,,,,,,
,,,,,,,,,,,html-keyboard-response,369,2.0.0,1225019,6703aeb136ffd366f9c531d4,3,16,null,,,,,,,,,<p style='font-size: 30px;'><strong>Okay</strong></p>,null,neutral_feedback,2,test,48,,,,,,,,,,,,,,,,,,,,,,,
,,,,,,,,,,,html-button-response,370,2.0.0,1251776,6703aeb136ffd366f9c531d4,3,16,,,,,,,,,,,,cycle_feedback,,,,,,,,,,,,,,,,,,,,,,,14041.6,12705.7,,
,,,,,,,,,,,html-button-response,372,2.0.0,1253303,6703aeb136ffd366f9c531d4,3,16,1524,,,,,,,,,,0,start_train,,,,,,,,,,,,,,,,,,,,,,,,,,
,,,,,,,,,,,html-button-response,374,2.0.0,1255676,6703aeb136ffd366f9c531d4,3,16,2370,,,,,,,,,"<img src= ""rock_img/I_Andesite_16.jpg"" style=""width:8cm; height:6.010000000000001cm;""><p>What type of rock is this?</p>",0,class_response,3,train,1,Andesite,Andesite,16,TRUE,1,1,,,,,,,,,,,,,,,,,
,,,,,,,,,,,html-button-response,375,2.0.0,1256996,6703aeb136ffd366f9c531d4,3,16,1318,,,,,,,,,"<img src= rock_img/I_Andesite_16.jpg style=""width:8cm; height:6.010000000000001cm;""><p style='font-size: 30px; color: green;'><strong>Correct!</strong></p><p style='font-size: 30px;'><strong>This rock is andesite</strong></p>",0,corr_feedback,3,train,1,,,,,,,,,,,,,,,,,,,,,,,
,,,,,,,,,,,html-button-response,376,2.0.0,1258846,6703aeb136ffd366f9c531d4,3,16,1846,,,,,,,,,"<img src= ""rock_img/I_Gabbro_11.jpg"" style=""width:8cm; height:6.2cm;""><p>What type of rock is this?</p>",3,class_response,3,train,2,Gabbro,Gabbro,11,TRUE,4,4,,,,,,,,,,,,,,,,,
,,,,,,,,,,,html-button-response,377,2.0.0,1259846,6703aeb136ffd366f9c531d4,3,16,997,,,,,,,,,"<img src= rock_img/I_Gabbro_11.jpg style=""width:8cm; height:6.2cm;""><p style='font-size: 30px; color: green;'><strong>Correct!</strong></p><p style='font-size: 30px;'><strong>This rock is gabbro</strong></p>",0,corr_feedback,3,train,2,,,,,,,,,,,,,,,,,,,,,,,
,,,,,,,,,,,html-button-response,378,2.0.0,1261158,6703aeb136ffd366f9c531d4,3,16,1310,,,,,,,,,"<img src= ""rock_img/I_Peridotite_02.jpg"" style=""width:8cm; height:5.859999999999999cm;""><p>What type of rock is this?</p>",6,class_response,3,train,3,Peridotite,Peridotite,2,TRUE,7,7,,,,,,,,,,,,,,,,,
,,,,,,,,,,,html-button-response,379,2.0.0,1261782,6703aeb136ffd366f9c531d4,3,16,622,,,,,,,,,"<img src= rock_img/I_Peridotite_02.jpg style=""width:8cm; height:5.859999999999999cm;""><p style='font-size: 30px; color: green;'><strong>Correct!</strong></p><p style='font-size: 30px;'><strong>This rock is peridotite</strong></p>",0,corr_feedback,3,train,3,,,,,,,,,,,,,,,,,,,,,,,
,,,,,,,,,,,html-button-response,380,2.0.0,1263167,6703aeb136ffd366f9c531d4,3,16,1382,,,,,,,,,"<img src= ""rock_img/I_Diorite_14.jpg"" style=""width:8cm; height:5.71cm;""><p>What type of rock is this?</p>",2,class_response,3,train,4,Diorite,Diorite,14,TRUE,3,3,,,,,,,,,,,,,,,,,
,,,,,,,,,,,html-button-response,381,2.0.0,1263866,6703aeb136ffd366f9c531d4,3,16,697,,,,,,,,,"<img src= rock_img/I_Diorite_14.jpg style=""width:8cm; height:5.71cm;""><p style='font-size: 30px; color: green;'><strong>Correct!</strong></p><p style='font-size: 30px;'><strong>This rock is diorite</strong></p>",0,corr_feedback,3,train,4,,,,,,,,,,,,,,,,,,,,,,,
,,,,,,,,,,,html-button-response,382,2.0.0,1265938,6703aeb136ffd366f9c531d4,3,16,2069,,,,,,,,,"<img src= ""rock_img/I_Peridotite_07.jpg"" style=""width:8cm; height:4.83cm;""><p>What type of rock is this?</p>",6,class_response,3,train,5,Peridotite,Peridotite,7,TRUE,7,7,,,,,,,,,,,,,,,,,
,,,,,,,,,,,html-button-response,383,2.0.0,1266652,6703aeb136ffd366f9c531d4,3,16,711,,,,,,,,,"<img src= rock_img/I_Peridotite_07.jpg style=""width:8cm; height:4.83cm;""><p style='font-size: 30px; color: green;'><strong>Correct!</strong></p><p style='font-size: 30px;'><strong>This rock is peridotite</strong></p>",0,corr_feedback,3,train,5,,,,,,,,,,,,,,,,,,,,,,,
,,,,,,,,,,,html-button-response,384,2.0.0,1268089,6703aeb136ffd366f9c531d4,3,16,1433,,,,,,,,,"<img src= ""rock_img/I_Basalt_02.jpg"" style=""width:8cm; height:6.45cm;""><p>What type of rock is this?</p>",1,class_response,3,train,6,Basalt,Basalt,2,TRUE,2,2,,,,,,,,,,,,,,,,,
,,,,,,,,,,,html-button-response,385,2.0.0,1268929,6703aeb136ffd366f9c531d4,3,16,837,,,,,,,,,"<img src= rock_img/I_Basalt_02.jpg style=""width:8cm; height:6.45cm;""><p style='font-size: 30px; color: green;'><strong>Correct!</strong></p><p style='font-size: 30px;'><strong>This rock is basalt</strong></p>",0,corr_feedback,3,train,6,,,,,,,,,,,,,,,,,,,,,,,
,,,,,,,,,,,html-button-response,386,2.0.0,1270144,6703aeb136ffd366f9c531d4,3,16,1213,,,,,,,,,"<img src= ""rock_img/I_Pumice_10.jpg"" style=""width:8cm; height:7.609999999999999cm;""><p>What type of rock is this?</p>",7,class_response,3,train,7,Pumice,Pumice,10,TRUE,8,8,,,,,,,,,,,,,,,,,
,,,,,,,,,,,html-button-response,387,2.0.0,1270918,6703aeb136ffd366f9c531d4,3,16,771,,,,,,,,,"<img src= rock_img/I_Pumice_10.jpg style=""width:8cm; height:7.609999999999999cm;""><p style='font-size: 30px; color: green;'><strong>Correct!</strong></p><p style='font-size: 30px;'><strong>This rock is pumice</strong></p>",0,corr_feedback,3,train,7,,,,,,,,,,,,,,,,,,,,,,,
,,,,,,,,,,,html-button-response,388,2.0.0,1274707,6703aeb136ffd366f9c531d4,3,16,3787,,,,,,,,,"<img src= ""rock_img/I_Obsidian_05.jpg"" style=""width:8cm; height:6.33cm;""><p>What type of rock is this?</p>",2,class_response,3,train,8,Diorite,Obsidian,5,FALSE,3,5,,,,,,,,,,,,,,,,,
,,,,,,,,,,,html-button-response,389,2.0.0,1276827,6703aeb136ffd366f9c531d4,3,16,2117,,,,,,,,,"<img src= rock_img/I_Obsidian_05.jpg style=""width:8cm; height:6.33cm;""><p style='font-size: 30px; color: red;'><strong>Incorrect!</strong></p><p style='font-size: 30px;'><strong>This rock is obsidian</strong></p>",0,corr_feedback,3,train,8,,,,,,,,,,,,,,,,,,,,,,,
,,,,,,,,,,,html-button-response,390,2.0.0,1278063,6703aeb136ffd366f9c531d4,3,16,1234,,,,,,,,,"<img src= ""rock_img/I_Obsidian_07.jpg"" style=""width:8cm; height:4.76cm;""><p>What type of rock is this?</p>",4,class_response,3,train,9,Obsidian,Obsidian,7,TRUE,5,5,,,,,,,,,,,,,,,,,
,,,,,,,,,,,html-button-response,391,2.0.0,1278938,6703aeb136ffd366f9c531d4,3,16,873,,,,,,,,,"<img src= rock_img/I_Obsidian_07.jpg style=""width:8cm; height:4.76cm;""><p style='font-size: 30px; color: green;'><strong>Correct!</strong></p><p style='font-size: 30px;'><strong>This rock is obsidian</strong></p>",0,corr_feedback,3,train,9,,,,,,,,,,,,,,,,,,,,,,,
,,,,,,,,,,,html-button-response,392,2.0.0,1280134,6703aeb136ffd366f9c531d4,3,16,1194,,,,,,,,,"<img src= ""rock_img/I_Pegmatite_16.jpg"" style=""width:8cm; height:5.8cm;""><p>What type of rock is this?</p>",5,class_response,3,train,10,Pegmatite,Pegmatite,16,TRUE,6,6,,,,,,,,,,,,,,,,,
,,,,,,,,,,,html-button-response,393,2.0.0,1280708,6703aeb136ffd366f9c531d4,3,16,572,,,,,,,,,"<img src= rock_img/I_Pegmatite_16.jpg style=""width:8cm; height:5.8cm;""><p style='font-size: 30px; color: green;'><strong>Correct!</strong></p><p style='font-size: 30px;'><strong>This rock is pegmatite</strong></p>",0,corr_feedback,3,train,10,,,,,,,,,,,,,,,,,,,,,,,
,,,,,,,,,,,html-button-response,394,2.0.0,1281647,6703aeb136ffd366f9c531d4,3,16,936,,,,,,,,,"<img src= ""rock_img/I_Basalt_08.jpg"" style=""width:8cm; height:10.44cm;""><p>What type of rock is this?</p>",1,class_response,3,train,11,Basalt,Basalt,8,TRUE,2,2,,,,,,,,,,,,,,,,,
,,,,,,,,,,,html-button-response,395,2.0.0,1282214,6703aeb136ffd366f9c531d4,3,16,565,,,,,,,,,"<img src= rock_img/I_Basalt_08.jpg style=""width:8cm; height:10.44cm;""><p style='font-size: 30px; color: green;'><strong>Correct!</strong></p><p style='font-size: 30px;'><strong>This rock is basalt</strong></p>",0,corr_feedback,3,train,11,,,,,,,,,,,,,,,,,,,,,,,
