width,height,webaudio,browser,browser_version,mobile,os,fullscreen,vsync_rate,webcam,microphone,trial_type,trial_index,plugin_version,time_elapsed,subjID,condition,stimID,rt,url,success,value,timeout,failed_images,failed_audio,failed_video,view_history,stimulus,response,trialType,cycle,phase,trial,resp,cat,token,corr,resp_num,cat_num,ref_cat_num,paired_cat_num,time_obs,ref_cat,paired_cat,ref_prob_dist,paired_prob_dist,text_Diorite,text_Gabbro,time_resp,text_Pegmatite,text_Peridotite,text_Andesite,text_Pumice,time_fb1,time_fb2
1920,1113,TRUE,chrome,131.0.0,FALSE,Mac OS,TRUE,57.37,TRUE,TRUE,browser-check,0,2.0.0,1056,66aa67e1fb6c20fb6beae30e,3,21,,,,,,,,,,,,,,,,,,,,,,,,,,,,,,,,,,,,,
,,,,,,,,,,,external-html,1,2.0.0,26396,66aa67e1fb6c20fb6beae30e,3,21,25297,consent_form.html,,,,,,,,,,,,,,,,,,,,,,,,,,,,,,,,,,,
,,,,,,,,,,,fullscreen,2,2.0.0,31346,66aa67e1fb6c20fb6beae30e,3,21,3906,,TRUE,,,,,,,,,,,,,,,,,,,,,,,,,,,,,,,,,,
,,,,,,,,,,,call-function,3,2.0.0,31349,66aa67e1fb6c20fb6beae30e,3,21,,,,{},,,,,,,,,,,,,,,,,,,,,,,,,,,,,,,,,
,,,,,,,,,,,preload,4,2.0.0,31942,66aa67e1fb6c20fb6beae30e,3,21,,,TRUE,,FALSE,[],[],[],,,,,,,,,,,,,,,,,,,,,,,,,,,,,
,,,,,,,,,,,instructions,5,2.0.0,131497,66aa67e1fb6c20fb6beae30e,3,21,99555,,,,,,,,"[{""page_index"":0,""viewing_time"":9105},{""page_index"":1,""viewing_time"":80564},{""page_index"":2,""viewing_time"":9885}]",,,,,,,,,,,,,,,,,,,,,,,,,,,,
,,,,,,,,,,,html-button-response,6,2.0.0,139234,66aa67e1fb6c20fb6beae30e,3,21,7676,,,,,,,,,,0,start_test,,,,,,,,,,,,,,,,,,,,,,,,,
,,,,,,,,,,,html-button-response,7,2.0.0,155870,66aa67e1fb6c20fb6beae30e,3,21,16584,,,,,,,,,"<img src= ""rock_img/I_Andesite_05.jpg"" style=""width:8cm; height:4.12cm;""><p>What type of rock is this?</p>",2,class_response,0,test,1,Diorite,Andesite,5,FALSE,3,1,,,,,,,,,,,,,,,,
,,,,,,,,,,,html-keyboard-response,8,2.0.0,156399,66aa67e1fb6c20fb6beae30e,3,21,null,,,,,,,,,<p style='font-size: 30px;'><strong>Okay</strong></p>,null,neutral_feedback,0,test,1,,,,,,,,,,,,,,,,,,,,,,
,,,,,,,,,,,html-button-response,9,2.0.0,175130,66aa67e1fb6c20fb6beae30e,3,21,18705,,,,,,,,,"<img src= ""rock_img/I_Andesite_03.jpg"" style=""width:8cm; height:5.73cm;""><p>What type of rock is this?</p>",1,class_response,0,test,2,Basalt,Andesite,3,FALSE,2,1,,,,,,,,,,,,,,,,
,,,,,,,,,,,html-keyboard-response,10,2.0.0,175657,66aa67e1fb6c20fb6beae30e,3,21,null,,,,,,,,,<p style='font-size: 30px;'><strong>Okay</strong></p>,null,neutral_feedback,0,test,2,,,,,,,,,,,,,,,,,,,,,,
,,,,,,,,,,,html-button-response,11,2.0.0,200045,66aa67e1fb6c20fb6beae30e,3,21,24360,,,,,,,,,"<img src= ""rock_img/I_Pumice_08.jpg"" style=""width:8cm; height:6.67cm;""><p>What type of rock is this?</p>",7,class_response,0,test,3,Pumice,Pumice,8,TRUE,8,8,,,,,,,,,,,,,,,,
,,,,,,,,,,,html-keyboard-response,12,2.0.0,200572,66aa67e1fb6c20fb6beae30e,3,21,null,,,,,,,,,<p style='font-size: 30px;'><strong>Okay</strong></p>,null,neutral_feedback,0,test,3,,,,,,,,,,,,,,,,,,,,,,
,,,,,,,,,,,html-button-response,13,2.0.0,203442,66aa67e1fb6c20fb6beae30e,3,21,2846,,,,,,,,,"<img src= ""rock_img/I_Basalt_10.jpg"" style=""width:8cm; height:5.85cm;""><p>What type of rock is this?</p>",4,class_response,0,test,4,Obsidian,Basalt,10,FALSE,5,2,,,,,,,,,,,,,,,,
,,,,,,,,,,,html-keyboard-response,14,2.0.0,203967,66aa67e1fb6c20fb6beae30e,3,21,null,,,,,,,,,<p style='font-size: 30px;'><strong>Okay</strong></p>,null,neutral_feedback,0,test,4,,,,,,,,,,,,,,,,,,,,,,
,,,,,,,,,,,html-button-response,15,2.0.0,206456,66aa67e1fb6c20fb6beae30e,3,21,2463,,,,,,,,,"<img src= ""rock_img/I_Peridotite_04.jpg"" style=""width:8cm; height:6.680000000000001cm;""><p>What type of rock is this?</p>",0,class_response,0,test,5,Andesite,Peridotite,4,FALSE,1,7,,,,,,,,,,,,,,,,
,,,,,,,,,,,html-keyboard-response,16,2.0.0,206982,66aa67e1fb6c20fb6beae30e,3,21,null,,,,,,,,,<p style='font-size: 30px;'><strong>Okay</strong></p>,null,neutral_feedback,0,test,5,,,,,,,,,,,,,,,,,,,,,,
,,,,,,,,,,,html-button-response,17,2.0.0,210470,66aa67e1fb6c20fb6beae30e,3,21,3466,,,,,,,,,"<img src= ""rock_img/I_Diorite_07.jpg"" style=""width:8cm; height:5.239999999999999cm;""><p>What type of rock is this?</p>",6,class_response,0,test,6,Peridotite,Diorite,7,FALSE,7,3,,,,,,,,,,,,,,,,
,,,,,,,,,,,html-keyboard-response,18,2.0.0,210996,66aa67e1fb6c20fb6beae30e,3,21,null,,,,,,,,,<p style='font-size: 30px;'><strong>Okay</strong></p>,null,neutral_feedback,0,test,6,,,,,,,,,,,,,,,,,,,,,,
,,,,,,,,,,,html-button-response,19,2.0.0,213031,66aa67e1fb6c20fb6beae30e,3,21,2010,,,,,,,,,"<img src= ""rock_img/I_Pegmatite_08.jpg"" style=""width:8cm; height:7.68cm;""><p>What type of rock is this?</p>",3,class_response,0,test,7,Gabbro,Pegmatite,8,FALSE,4,6,,,,,,,,,,,,,,,,
,,,,,,,,,,,html-keyboard-response,20,2.0.0,213557,66aa67e1fb6c20fb6beae30e,3,21,null,,,,,,,,,<p style='font-size: 30px;'><strong>Okay</strong></p>,null,neutral_feedback,0,test,7,,,,,,,,,,,,,,,,,,,,,,
,,,,,,,,,,,html-button-response,21,2.0.0,216092,66aa67e1fb6c20fb6beae30e,3,21,2508,,,,,,,,,"<img src= ""rock_img/I_Peridotite_05.jpg"" style=""width:8cm; height:7.1499999999999995cm;""><p>What type of rock is this?</p>",5,class_response,0,test,8,Pegmatite,Peridotite,5,FALSE,6,7,,,,,,,,,,,,,,,,
,,,,,,,,,,,html-keyboard-response,22,2.0.0,216620,66aa67e1fb6c20fb6beae30e,3,21,null,,,,,,,,,<p style='font-size: 30px;'><strong>Okay</strong></p>,null,neutral_feedback,0,test,8,,,,,,,,,,,,,,,,,,,,,,
,,,,,,,,,,,html-button-response,23,2.0.0,242615,66aa67e1fb6c20fb6beae30e,3,21,25971,,,,,,,,,"<img src= ""rock_img/I_Pumice_03.jpg"" style=""width:8cm; height:6.64cm;""><p>What type of rock is this?</p>",7,class_response,0,test,9,Pumice,Pumice,3,TRUE,8,8,,,,,,,,,,,,,,,,
,,,,,,,,,,,html-keyboard-response,24,2.0.0,243142,66aa67e1fb6c20fb6beae30e,3,21,null,,,,,,,,,<p style='font-size: 30px;'><strong>Okay</strong></p>,null,neutral_feedback,0,test,9,,,,,,,,,,,,,,,,,,,,,,
,,,,,,,,,,,html-button-response,25,2.0.0,270235,66aa67e1fb6c20fb6beae30e,3,21,27028,,,,,,,,,"<img src= ""rock_img/I_Pumice_13.jpg"" style=""width:8cm; height:8.200000000000001cm;""><p>What type of rock is this?</p>",7,class_response,0,test,10,Pumice,Pumice,13,TRUE,8,8,,,,,,,,,,,,,,,,
,,,,,,,,,,,html-keyboard-response,26,2.0.0,270792,66aa67e1fb6c20fb6beae30e,3,21,null,,,,,,,,,<p style='font-size: 30px;'><strong>Okay</strong></p>,null,neutral_feedback,0,test,10,,,,,,,,,,,,,,,,,,,,,,
,,,,,,,,,,,html-button-response,27,2.0.0,293242,66aa67e1fb6c20fb6beae30e,3,21,22423,,,,,,,,,"<img src= ""rock_img/I_Basalt_02.jpg"" style=""width:8cm; height:6.45cm;""><p>What type of rock is this?</p>",1,class_response,0,test,11,Basalt,Basalt,2,TRUE,2,2,,,,,,,,,,,,,,,,
,,,,,,,,,,,html-keyboard-response,28,2.0.0,293770,66aa67e1fb6c20fb6beae30e,3,21,null,,,,,,,,,<p style='font-size: 30px;'><strong>Okay</strong></p>,null,neutral_feedback,0,test,11,,,,,,,,,,,,,,,,,,,,,,
,,,,,,,,,,,html-button-response,29,2.0.0,317209,66aa67e1fb6c20fb6beae30e,3,21,23413,,,,,,,,,"<img src= ""rock_img/I_Pegmatite_07.jpg"" style=""width:8cm; height:6.7cm;""><p>What type of rock is this?</p>",6,class_response,0,test,12,Peridotite,Pegmatite,7,FALSE,7,6,,,,,,,,,,,,,,,,
,,,,,,,,,,,html-keyboard-response,30,2.0.0,317733,66aa67e1fb6c20fb6beae30e,3,21,null,,,,,,,,,<p style='font-size: 30px;'><strong>Okay</strong></p>,null,neutral_feedback,0,test,12,,,,,,,,,,,,,,,,,,,,,,
,,,,,,,,,,,html-button-response,31,2.0.0,338071,66aa67e1fb6c20fb6beae30e,3,21,20312,,,,,,,,,"<img src= ""rock_img/I_Basalt_12.jpg"" style=""width:8cm; height:6.010000000000001cm;""><p>What type of rock is this?</p>",7,class_response,0,test,13,Pumice,Basalt,12,FALSE,8,2,,,,,,,,,,,,,,,,
,,,,,,,,,,,html-keyboard-response,32,2.0.0,338599,66aa67e1fb6c20fb6beae30e,3,21,null,,,,,,,,,<p style='font-size: 30px;'><strong>Okay</strong></p>,null,neutral_feedback,0,test,13,,,,,,,,,,,,,,,,,,,,,,
,,,,,,,,,,,html-button-response,33,2.0.0,340362,66aa67e1fb6c20fb6beae30e,3,21,1737,,,,,,,,,"<img src= ""rock_img/I_Obsidian_16.jpg"" style=""width:8cm; height:9.3cm;""><p>What type of rock is this?</p>",0,class_response,0,test,14,Andesite,Obsidian,16,FALSE,1,5,,,,,,,,,,,,,,,,
,,,,,,,,,,,html-keyboard-response,34,2.0.0,340889,66aa67e1fb6c20fb6beae30e,3,21,null,,,,,,,,,<p style='font-size: 30px;'><strong>Okay</strong></p>,null,neutral_feedback,0,test,14,,,,,,,,,,,,,,,,,,,,,,
,,,,,,,,,,,html-button-response,35,2.0.0,342771,66aa67e1fb6c20fb6beae30e,3,21,1859,,,,,,,,,"<img src= ""rock_img/I_Diorite_10.jpg"" style=""width:8cm; height:5.949999999999999cm;""><p>What type of rock is this?</p>",1,class_response,0,test,15,Basalt,Diorite,10,FALSE,2,3,,,,,,,,,,,,,,,,
,,,,,,,,,,,html-keyboard-response,36,2.0.0,343296,66aa67e1fb6c20fb6beae30e,3,21,null,,,,,,,,,<p style='font-size: 30px;'><strong>Okay</strong></p>,null,neutral_feedback,0,test,15,,,,,,,,,,,,,,,,,,,,,,
,,,,,,,,,,,html-button-response,37,2.0.0,344679,66aa67e1fb6c20fb6beae30e,3,21,1358,,,,,,,,,"<img src= ""rock_img/I_Diorite_12.jpg"" style=""width:8cm; height:4.88cm;""><p>What type of rock is this?</p>",2,class_response,0,test,16,Diorite,Diorite,12,TRUE,3,3,,,,,,,,,,,,,,,,
,,,,,,,,,,,html-keyboard-response,38,2.0.0,345206,66aa67e1fb6c20fb6beae30e,3,21,null,,,,,,,,,<p style='font-size: 30px;'><strong>Okay</strong></p>,null,neutral_feedback,0,test,16,,,,,,,,,,,,,,,,,,,,,,
,,,,,,,,,,,html-button-response,39,2.0.0,346017,66aa67e1fb6c20fb6beae30e,3,21,786,,,,,,,,,"<img src= ""rock_img/I_Peridotite_12.jpg"" style=""width:8cm; height:4.54cm;""><p>What type of rock is this?</p>",3,class_response,0,test,17,Gabbro,Peridotite,12,FALSE,4,7,,,,,,,,,,,,,,,,
,,,,,,,,,,,html-keyboard-response,40,2.0.0,346542,66aa67e1fb6c20fb6beae30e,3,21,null,,,,,,,,,<p style='font-size: 30px;'><strong>Okay</strong></p>,null,neutral_feedback,0,test,17,,,,,,,,,,,,,,,,,,,,,,
,,,,,,,,,,,html-button-response,41,2.0.0,371590,66aa67e1fb6c20fb6beae30e,3,21,25024,,,,,,,,,"<img src= ""rock_img/I_Andesite_02.jpg"" style=""width:8cm; height:8.5cm;""><p>What type of rock is this?</p>",0,class_response,0,test,18,Andesite,Andesite,2,TRUE,1,1,,,,,,,,,,,,,,,,
,,,,,,,,,,,html-keyboard-response,42,2.0.0,372117,66aa67e1fb6c20fb6beae30e,3,21,null,,,,,,,,,<p style='font-size: 30px;'><strong>Okay</strong></p>,null,neutral_feedback,0,test,18,,,,,,,,,,,,,,,,,,,,,,
,,,,,,,,,,,html-button-response,43,2.0.0,387670,66aa67e1fb6c20fb6beae30e,3,21,15527,,,,,,,,,"<img src= ""rock_img/I_Gabbro_11.jpg"" style=""width:8cm; height:6.2cm;""><p>What type of rock is this?</p>",2,class_response,0,test,19,Diorite,Gabbro,11,FALSE,3,4,,,,,,,,,,,,,,,,
,,,,,,,,,,,html-keyboard-response,44,2.0.0,388198,66aa67e1fb6c20fb6beae30e,3,21,null,,,,,,,,,<p style='font-size: 30px;'><strong>Okay</strong></p>,null,neutral_feedback,0,test,19,,,,,,,,,,,,,,,,,,,,,,
,,,,,,,,,,,html-button-response,45,2.0.0,389864,66aa67e1fb6c20fb6beae30e,3,21,1640,,,,,,,,,"<img src= ""rock_img/I_Gabbro_13.jpg"" style=""width:8cm; height:5.08cm;""><p>What type of rock is this?</p>",3,class_response,0,test,20,Gabbro,Gabbro,13,TRUE,4,4,,,,,,,,,,,,,,,,
,,,,,,,,,,,html-keyboard-response,46,2.0.0,390391,66aa67e1fb6c20fb6beae30e,3,21,null,,,,,,,,,<p style='font-size: 30px;'><strong>Okay</strong></p>,null,neutral_feedback,0,test,20,,,,,,,,,,,,,,,,,,,,,,
,,,,,,,,,,,html-button-response,47,2.0.0,391978,66aa67e1fb6c20fb6beae30e,3,21,1562,,,,,,,,,"<img src= ""rock_img/I_Obsidian_07.jpg"" style=""width:8cm; height:4.76cm;""><p>What type of rock is this?</p>",3,class_response,0,test,21,Gabbro,Obsidian,7,FALSE,4,5,,,,,,,,,,,,,,,,
,,,,,,,,,,,html-keyboard-response,48,2.0.0,392505,66aa67e1fb6c20fb6beae30e,3,21,null,,,,,,,,,<p style='font-size: 30px;'><strong>Okay</strong></p>,null,neutral_feedback,0,test,21,,,,,,,,,,,,,,,,,,,,,,
,,,,,,,,,,,html-button-response,49,2.0.0,396036,66aa67e1fb6c20fb6beae30e,3,21,3509,,,,,,,,,"<img src= ""rock_img/I_Peridotite_07.jpg"" style=""width:8cm; height:4.83cm;""><p>What type of rock is this?</p>",5,class_response,0,test,22,Pegmatite,Peridotite,7,FALSE,6,7,,,,,,,,,,,,,,,,
,,,,,,,,,,,html-keyboard-response,50,2.0.0,396563,66aa67e1fb6c20fb6beae30e,3,21,null,,,,,,,,,<p style='font-size: 30px;'><strong>Okay</strong></p>,null,neutral_feedback,0,test,22,,,,,,,,,,,,,,,,,,,,,,
,,,,,,,,,,,html-button-response,51,2.0.0,439862,66aa67e1fb6c20fb6beae30e,3,21,43235,,,,,,,,,"<img src= ""rock_img/I_Pumice_10.jpg"" style=""width:8cm; height:7.609999999999999cm;""><p>What type of rock is this?</p>",7,class_response,0,test,23,Pumice,Pumice,10,TRUE,8,8,,,,,,,,,,,,,,,,
,,,,,,,,,,,html-keyboard-response,52,2.0.0,440417,66aa67e1fb6c20fb6beae30e,3,21,null,,,,,,,,,<p style='font-size: 30px;'><strong>Okay</strong></p>,null,neutral_feedback,0,test,23,,,,,,,,,,,,,,,,,,,,,,
,,,,,,,,,,,html-button-response,53,2.0.0,468085,66aa67e1fb6c20fb6beae30e,3,21,27642,,,,,,,,,"<img src= ""rock_img/I_Andesite_06.jpg"" style=""width:8cm; height:6.840000000000001cm;""><p>What type of rock is this?</p>",2,class_response,0,test,24,Diorite,Andesite,6,FALSE,3,1,,,,,,,,,,,,,,,,
,,,,,,,,,,,html-keyboard-response,54,2.0.0,468612,66aa67e1fb6c20fb6beae30e,3,21,null,,,,,,,,,<p style='font-size: 30px;'><strong>Okay</strong></p>,null,neutral_feedback,0,test,24,,,,,,,,,,,,,,,,,,,,,,
,,,,,,,,,,,html-button-response,55,2.0.0,501489,66aa67e1fb6c20fb6beae30e,3,21,32829,,,,,,,,,"<img src= ""rock_img/I_Pumice_16.jpg"" style=""width:8cm; height:6.79cm;""><p>What type of rock is this?</p>",0,class_response,0,test,25,Andesite,Pumice,16,FALSE,1,8,,,,,,,,,,,,,,,,
,,,,,,,,,,,html-keyboard-response,56,2.0.0,502040,66aa67e1fb6c20fb6beae30e,3,21,null,,,,,,,,,<p style='font-size: 30px;'><strong>Okay</strong></p>,null,neutral_feedback,0,test,25,,,,,,,,,,,,,,,,,,,,,,
,,,,,,,,,,,html-button-response,57,2.0.0,524541,66aa67e1fb6c20fb6beae30e,3,21,22475,,,,,,,,,"<img src= ""rock_img/I_Diorite_16.jpg"" style=""width:8cm; height:6.74cm;""><p>What type of rock is this?</p>",3,class_response,0,test,26,Gabbro,Diorite,16,FALSE,4,3,,,,,,,,,,,,,,,,
,,,,,,,,,,,html-keyboard-response,58,2.0.0,525069,66aa67e1fb6c20fb6beae30e,3,21,null,,,,,,,,,<p style='font-size: 30px;'><strong>Okay</strong></p>,null,neutral_feedback,0,test,26,,,,,,,,,,,,,,,,,,,,,,
,,,,,,,,,,,html-button-response,59,2.0.0,528374,66aa67e1fb6c20fb6beae30e,3,21,3279,,,,,,,,,"<img src= ""rock_img/I_Pegmatite_09.jpg"" style=""width:8cm; height:4.03cm;""><p>What type of rock is this?</p>",4,class_response,0,test,27,Obsidian,Pegmatite,9,FALSE,5,6,,,,,,,,,,,,,,,,
,,,,,,,,,,,html-keyboard-response,60,2.0.0,528902,66aa67e1fb6c20fb6beae30e,3,21,null,,,,,,,,,<p style='font-size: 30px;'><strong>Okay</strong></p>,null,neutral_feedback,0,test,27,,,,,,,,,,,,,,,,,,,,,,
,,,,,,,,,,,html-button-response,61,2.0.0,531637,66aa67e1fb6c20fb6beae30e,3,21,2710,,,,,,,,,"<img src= ""rock_img/I_Gabbro_10.jpg"" style=""width:8cm; height:5.680000000000001cm;""><p>What type of rock is this?</p>",5,class_response,0,test,28,Pegmatite,Gabbro,10,FALSE,6,4,,,,,,,,,,,,,,,,
,,,,,,,,,,,html-keyboard-response,62,2.0.0,532164,66aa67e1fb6c20fb6beae30e,3,21,null,,,,,,,,,<p style='font-size: 30px;'><strong>Okay</strong></p>,null,neutral_feedback,0,test,28,,,,,,,,,,,,,,,,,,,,,,
,,,,,,,,,,,html-button-response,63,2.0.0,541529,66aa67e1fb6c20fb6beae30e,3,21,9339,,,,,,,,,"<img src= ""rock_img/I_Peridotite_16.jpg"" style=""width:8cm; height:6.989999999999999cm;""><p>What type of rock is this?</p>",4,class_response,0,test,29,Obsidian,Peridotite,16,FALSE,5,7,,,,,,,,,,,,,,,,
,,,,,,,,,,,html-keyboard-response,64,2.0.0,542055,66aa67e1fb6c20fb6beae30e,3,21,null,,,,,,,,,<p style='font-size: 30px;'><strong>Okay</strong></p>,null,neutral_feedback,0,test,29,,,,,,,,,,,,,,,,,,,,,,
,,,,,,,,,,,html-button-response,65,2.0.0,546806,66aa67e1fb6c20fb6beae30e,3,21,4726,,,,,,,,,"<img src= ""rock_img/I_Gabbro_15.jpg"" style=""width:8cm; height:6.29cm;""><p>What type of rock is this?</p>",6,class_response,0,test,30,Peridotite,Gabbro,15,FALSE,7,4,,,,,,,,,,,,,,,,
,,,,,,,,,,,html-keyboard-response,66,2.0.0,547334,66aa67e1fb6c20fb6beae30e,3,21,null,,,,,,,,,<p style='font-size: 30px;'><strong>Okay</strong></p>,null,neutral_feedback,0,test,30,,,,,,,,,,,,,,,,,,,,,,
,,,,,,,,,,,html-button-response,67,2.0.0,549338,66aa67e1fb6c20fb6beae30e,3,21,1978,,,,,,,,,"<img src= ""rock_img/I_Andesite_09.jpg"" style=""width:8cm; height:6cm;""><p>What type of rock is this?</p>",7,class_response,0,test,31,Pumice,Andesite,9,FALSE,8,1,,,,,,,,,,,,,,,,
,,,,,,,,,,,html-keyboard-response,68,2.0.0,549865,66aa67e1fb6c20fb6beae30e,3,21,null,,,,,,,,,<p style='font-size: 30px;'><strong>Okay</strong></p>,null,neutral_feedback,0,test,31,,,,,,,,,,,,,,,,,,,,,,
,,,,,,,,,,,html-button-response,69,2.0.0,551773,66aa67e1fb6c20fb6beae30e,3,21,1882,,,,,,,,,"<img src= ""rock_img/I_Pegmatite_13.jpg"" style=""width:8cm; height:4.95cm;""><p>What type of rock is this?</p>",1,class_response,0,test,32,Basalt,Pegmatite,13,FALSE,2,6,,,,,,,,,,,,,,,,
,,,,,,,,,,,html-keyboard-response,70,2.0.0,552300,66aa67e1fb6c20fb6beae30e,3,21,null,,,,,,,,,<p style='font-size: 30px;'><strong>Okay</strong></p>,null,neutral_feedback,0,test,32,,,,,,,,,,,,,,,,,,,,,,
,,,,,,,,,,,html-button-response,71,2.0.0,553742,66aa67e1fb6c20fb6beae30e,3,21,1418,,,,,,,,,"<img src= ""rock_img/I_Diorite_06.jpg"" style=""width:8cm; height:6.03cm;""><p>What type of rock is this?</p>",2,class_response,0,test,33,Diorite,Diorite,6,TRUE,3,3,,,,,,,,,,,,,,,,
,,,,,,,,,,,html-keyboard-response,72,2.0.0,554268,66aa67e1fb6c20fb6beae30e,3,21,null,,,,,,,,,<p style='font-size: 30px;'><strong>Okay</strong></p>,null,neutral_feedback,0,test,33,,,,,,,,,,,,,,,,,,,,,,
,,,,,,,,,,,html-button-response,73,2.0.0,559382,66aa67e1fb6c20fb6beae30e,3,21,5088,,,,,,,,,"<img src= ""rock_img/I_Obsidian_02.jpg"" style=""width:8cm; height:7.51cm;""><p>What type of rock is this?</p>",4,class_response,0,test,34,Obsidian,Obsidian,2,TRUE,5,5,,,,,,,,,,,,,,,,
,,,,,,,,,,,html-keyboard-response,74,2.0.0,559908,66aa67e1fb6c20fb6beae30e,3,21,null,,,,,,,,,<p style='font-size: 30px;'><strong>Okay</strong></p>,null,neutral_feedback,0,test,34,,,,,,,,,,,,,,,,,,,,,,
,,,,,,,,,,,html-button-response,75,2.0.0,561391,66aa67e1fb6c20fb6beae30e,3,21,1459,,,,,,,,,"<img src= ""rock_img/I_Pumice_09.jpg"" style=""width:8cm; height:6.44cm;""><p>What type of rock is this?</p>",7,class_response,0,test,35,Pumice,Pumice,9,TRUE,8,8,,,,,,,,,,,,,,,,
,,,,,,,,,,,html-keyboard-response,76,2.0.0,561918,66aa67e1fb6c20fb6beae30e,3,21,null,,,,,,,,,<p style='font-size: 30px;'><strong>Okay</strong></p>,null,neutral_feedback,0,test,35,,,,,,,,,,,,,,,,,,,,,,
,,,,,,,,,,,html-button-response,77,2.0.0,572608,66aa67e1fb6c20fb6beae30e,3,21,10664,,,,,,,,,"<img src= ""rock_img/I_Pegmatite_06.jpg"" style=""width:8cm; height:5.17cm;""><p>What type of rock is this?</p>",5,class_response,0,test,36,Pegmatite,Pegmatite,6,TRUE,6,6,,,,,,,,,,,,,,,,
,,,,,,,,,,,html-keyboard-response,78,2.0.0,573135,66aa67e1fb6c20fb6beae30e,3,21,null,,,,,,,,,<p style='font-size: 30px;'><strong>Okay</strong></p>,null,neutral_feedback,0,test,36,,,,,,,,,,,,,,,,,,,,,,
,,,,,,,,,,,html-button-response,79,2.0.0,585506,66aa67e1fb6c20fb6beae30e,3,21,12345,,,,,,,,,"<img src= ""rock_img/I_Obsidian_12.jpg"" style=""width:8cm; height:6.53cm;""><p>What type of rock is this?</p>",4,class_response,0,test,37,Obsidian,Obsidian,12,TRUE,5,5,,,,,,,,,,,,,,,,
,,,,,,,,,,,html-keyboard-response,80,2.0.0,586034,66aa67e1fb6c20fb6beae30e,3,21,null,,,,,,,,,<p style='font-size: 30px;'><strong>Okay</strong></p>,null,neutral_feedback,0,test,37,,,,,,,,,,,,,,,,,,,,,,
,,,,,,,,,,,html-button-response,81,2.0.0,587611,66aa67e1fb6c20fb6beae30e,3,21,1551,,,,,,,,,"<img src= ""rock_img/I_Diorite_02.jpg"" style=""width:8cm; height:6.27cm;""><p>What type of rock is this?</p>",7,class_response,0,test,38,Pumice,Diorite,2,FALSE,8,3,,,,,,,,,,,,,,,,
,,,,,,,,,,,html-keyboard-response,82,2.0.0,588137,66aa67e1fb6c20fb6beae30e,3,21,null,,,,,,,,,<p style='font-size: 30px;'><strong>Okay</strong></p>,null,neutral_feedback,0,test,38,,,,,,,,,,,,,,,,,,,,,,
,,,,,,,,,,,html-button-response,83,2.0.0,589364,66aa67e1fb6c20fb6beae30e,3,21,1202,,,,,,,,,"<img src= ""rock_img/I_Obsidian_08.jpg"" style=""width:8cm; height:7.39cm;""><p>What type of rock is this?</p>",4,class_response,0,test,39,Obsidian,Obsidian,8,TRUE,5,5,,,,,,,,,,,,,,,,
,,,,,,,,,,,html-keyboard-response,84,2.0.0,589890,66aa67e1fb6c20fb6beae30e,3,21,null,,,,,,,,,<p style='font-size: 30px;'><strong>Okay</strong></p>,null,neutral_feedback,0,test,39,,,,,,,,,,,,,,,,,,,,,,
,,,,,,,,,,,html-button-response,85,2.0.0,623025,66aa67e1fb6c20fb6beae30e,3,21,33108,,,,,,,,,"<img src= ""rock_img/I_Andesite_14.jpg"" style=""width:8cm; height:5.449999999999999cm;""><p>What type of rock is this?</p>",0,class_response,0,test,40,Andesite,Andesite,14,TRUE,1,1,,,,,,,,,,,,,,,,
,,,,,,,,,,,html-keyboard-response,86,2.0.0,623551,66aa67e1fb6c20fb6beae30e,3,21,null,,,,,,,,,<p style='font-size: 30px;'><strong>Okay</strong></p>,null,neutral_feedback,0,test,40,,,,,,,,,,,,,,,,,,,,,,
,,,,,,,,,,,html-button-response,87,2.0.0,634582,66aa67e1fb6c20fb6beae30e,3,21,11004,,,,,,,,,"<img src= ""rock_img/I_Pegmatite_16.jpg"" style=""width:8cm; height:5.8cm;""><p>What type of rock is this?</p>",7,class_response,0,test,41,Pumice,Pegmatite,16,FALSE,8,6,,,,,,,,,,,,,,,,
,,,,,,,,,,,html-keyboard-response,88,2.0.0,635108,66aa67e1fb6c20fb6beae30e,3,21,null,,,,,,,,,<p style='font-size: 30px;'><strong>Okay</strong></p>,null,neutral_feedback,0,test,41,,,,,,,,,,,,,,,,,,,,,,
,,,,,,,,,,,html-button-response,89,2.0.0,636631,66aa67e1fb6c20fb6beae30e,3,21,1497,,,,,,,,,"<img src= ""rock_img/I_Obsidian_14.jpg"" style=""width:8cm; height:7.64cm;""><p>What type of rock is this?</p>",4,class_response,0,test,42,Obsidian,Obsidian,14,TRUE,5,5,,,,,,,,,,,,,,,,
,,,,,,,,,,,html-keyboard-response,90,2.0.0,637158,66aa67e1fb6c20fb6beae30e,3,21,null,,,,,,,,,<p style='font-size: 30px;'><strong>Okay</strong></p>,null,neutral_feedback,0,test,42,,,,,,,,,,,,,,,,,,,,,,
,,,,,,,,,,,html-button-response,91,2.0.0,667417,66aa67e1fb6c20fb6beae30e,3,21,30234,,,,,,,,,"<img src= ""rock_img/I_Gabbro_03.jpg"" style=""width:8cm; height:8.52cm;""><p>What type of rock is this?</p>",2,class_response,0,test,43,Diorite,Gabbro,3,FALSE,3,4,,,,,,,,,,,,,,,,
,,,,,,,,,,,html-keyboard-response,92,2.0.0,667943,66aa67e1fb6c20fb6beae30e,3,21,null,,,,,,,,,<p style='font-size: 30px;'><strong>Okay</strong></p>,null,neutral_feedback,0,test,43,,,,,,,,,,,,,,,,,,,,,,
,,,,,,,,,,,html-button-response,93,2.0.0,686622,66aa67e1fb6c20fb6beae30e,3,21,18653,,,,,,,,,"<img src= ""rock_img/I_Basalt_16.jpg"" style=""width:8cm; height:7.659999999999999cm;""><p>What type of rock is this?</p>",1,class_response,0,test,44,Basalt,Basalt,16,TRUE,2,2,,,,,,,,,,,,,,,,
,,,,,,,,,,,html-keyboard-response,94,2.0.0,687148,66aa67e1fb6c20fb6beae30e,3,21,null,,,,,,,,,<p style='font-size: 30px;'><strong>Okay</strong></p>,null,neutral_feedback,0,test,44,,,,,,,,,,,,,,,,,,,,,,
,,,,,,,,,,,html-button-response,95,2.0.0,709139,66aa67e1fb6c20fb6beae30e,3,21,21966,,,,,,,,,"<img src= ""rock_img/I_Gabbro_08.jpg"" style=""width:8cm; height:5.15cm;""><p>What type of rock is this?</p>",1,class_response,0,test,45,Basalt,Gabbro,8,FALSE,2,4,,,,,,,,,,,,,,,,
,,,,,,,,,,,html-keyboard-response,96,2.0.0,709664,66aa67e1fb6c20fb6beae30e,3,21,null,,,,,,,,,<p style='font-size: 30px;'><strong>Okay</strong></p>,null,neutral_feedback,0,test,45,,,,,,,,,,,,,,,,,,,,,,
,,,,,,,,,,,html-button-response,97,2.0.0,720335,66aa67e1fb6c20fb6beae30e,3,21,10643,,,,,,,,,"<img src= ""rock_img/I_Peridotite_06.jpg"" style=""width:8cm; height:7.53cm;""><p>What type of rock is this?</p>",4,class_response,0,test,46,Obsidian,Peridotite,6,FALSE,5,7,,,,,,,,,,,,,,,,
,,,,,,,,,,,html-keyboard-response,98,2.0.0,720862,66aa67e1fb6c20fb6beae30e,3,21,null,,,,,,,,,<p style='font-size: 30px;'><strong>Okay</strong></p>,null,neutral_feedback,0,test,46,,,,,,,,,,,,,,,,,,,,,,
,,,,,,,,,,,html-button-response,99,2.0.0,725205,66aa67e1fb6c20fb6beae30e,3,21,4318,,,,,,,,,"<img src= ""rock_img/I_Basalt_05.jpg"" style=""width:8cm; height:8.18cm;""><p>What type of rock is this?</p>",4,class_response,0,test,47,Obsidian,Basalt,5,FALSE,5,2,,,,,,,,,,,,,,,,
,,,,,,,,,,,html-keyboard-response,100,2.0.0,725732,66aa67e1fb6c20fb6beae30e,3,21,null,,,,,,,,,<p style='font-size: 30px;'><strong>Okay</strong></p>,null,neutral_feedback,0,test,47,,,,,,,,,,,,,,,,,,,,,,
,,,,,,,,,,,html-button-response,101,2.0.0,739214,66aa67e1fb6c20fb6beae30e,3,21,13456,,,,,,,,,"<img src= ""rock_img/I_Basalt_09.jpg"" style=""width:8cm; height:6.2cm;""><p>What type of rock is this?</p>",7,class_response,0,test,48,Pumice,Basalt,9,FALSE,8,2,,,,,,,,,,,,,,,,
,,,,,,,,,,,html-keyboard-response,102,2.0.0,739742,66aa67e1fb6c20fb6beae30e,3,21,null,,,,,,,,,<p style='font-size: 30px;'><strong>Okay</strong></p>,null,neutral_feedback,0,test,48,,,,,,,,,,,,,,,,,,,,,,
,,,,,,,,,,,instructions,103,2.0.0,767389,66aa67e1fb6c20fb6beae30e,3,21,27621,,,,,,,,"[{""page_index"":0,""viewing_time"":22149},{""page_index"":1,""viewing_time"":5472}]",,,,,,,,,,,,,,,,,,,,,,,,,,,,
,,,,,,,,,,,html-button-response,104,2.0.0,776275,66aa67e1fb6c20fb6beae30e,3,21,8816,,,,,,,,,,0,start_train,,,,,,,,,,,,,,,,,,,,,,,,,
,,,,,,,,,,,html-button-response,106,2.0.0,801928,66aa67e1fb6c20fb6beae30e,3,21,25600,,,,,,,,,"<img src= ""rock_img/I_Gabbro_12.jpg"" style=""width:8cm; height:7.800000000000001cm;""><p>What type of rock is this?</p>",3,class_response,1,train,1,Gabbro,Gabbro,12,TRUE,4,4,,,,,,,,,,,,,,,,
,,,,,,,,,,,html-button-response,107,2.0.0,803286,66aa67e1fb6c20fb6beae30e,3,21,1310,,,,,,,,,"<img src= rock_img/I_Gabbro_12.jpg style=""width:8cm; height:7.800000000000001cm;""><p style='font-size: 30px; color: green;'><strong>Correct!</strong></p><p style='font-size: 30px;'><strong>This rock is gabbro</strong></p>",0,corr_feedback,1,train,1,,,,,,,,,,,,,,,,,,,,,,
,,,,,,,,,,,html-button-response,108,2.0.0,827477,66aa67e1fb6c20fb6beae30e,3,21,24142,,,,,,,,,"<img src= ""rock_img/I_Andesite_04.jpg"" style=""width:8cm; height:5.96cm;""><p>What type of rock is this?</p>",0,class_response,1,train,2,Andesite,Andesite,4,TRUE,1,1,,,,,,,,,,,,,,,,
,,,,,,,,,,,html-button-response,109,2.0.0,828855,66aa67e1fb6c20fb6beae30e,3,21,1329,,,,,,,,,"<img src= rock_img/I_Andesite_04.jpg style=""width:8cm; height:5.96cm;""><p style='font-size: 30px; color: green;'><strong>Correct!</strong></p><p style='font-size: 30px;'><strong>This rock is andesite</strong></p>",0,corr_feedback,1,train,2,,,,,,,,,,,,,,,,,,,,,,
,,,,,,,,,,,html-button-response,110,2.0.0,872175,66aa67e1fb6c20fb6beae30e,3,21,43270,,,,,,,,,"<img src= ""rock_img/I_Diorite_14.jpg"" style=""width:8cm; height:5.71cm;""><p>What type of rock is this?</p>",2,class_response,1,train,3,Diorite,Diorite,14,TRUE,3,3,,,,,,,,,,,,,,,,
,,,,,,,,,,,html-button-response,111,2.0.0,873074,66aa67e1fb6c20fb6beae30e,3,21,853,,,,,,,,,"<img src= rock_img/I_Diorite_14.jpg style=""width:8cm; height:5.71cm;""><p style='font-size: 30px; color: green;'><strong>Correct!</strong></p><p style='font-size: 30px;'><strong>This rock is diorite</strong></p>",0,corr_feedback,1,train,3,,,,,,,,,,,,,,,,,,,,,,
,,,,,,,,,,,html-button-response,112,2.0.0,874694,66aa67e1fb6c20fb6beae30e,3,21,1572,,,,,,,,,"<img src= ""rock_img/I_Obsidian_06.jpg"" style=""width:8cm; height:6.8cm;""><p>What type of rock is this?</p>",4,class_response,1,train,4,Obsidian,Obsidian,6,TRUE,5,5,,,,,,,,,,,,,,,,
,,,,,,,,,,,html-button-response,113,2.0.0,875781,66aa67e1fb6c20fb6beae30e,3,21,1041,,,,,,,,,"<img src= rock_img/I_Obsidian_06.jpg style=""width:8cm; height:6.8cm;""><p style='font-size: 30px; color: green;'><strong>Correct!</strong></p><p style='font-size: 30px;'><strong>This rock is obsidian</strong></p>",0,corr_feedback,1,train,4,,,,,,,,,,,,,,,,,,,,,,
,,,,,,,,,,,html-button-response,114,2.0.0,903451,66aa67e1fb6c20fb6beae30e,3,21,27624,,,,,,,,,"<img src= ""rock_img/I_Peridotite_14.jpg"" style=""width:8cm; height:5.3cm;""><p>What type of rock is this?</p>",6,class_response,1,train,5,Peridotite,Peridotite,14,TRUE,7,7,,,,,,,,,,,,,,,,
,,,,,,,,,,,html-button-response,115,2.0.0,904251,66aa67e1fb6c20fb6beae30e,3,21,752,,,,,,,,,"<img src= rock_img/I_Peridotite_14.jpg style=""width:8cm; height:5.3cm;""><p style='font-size: 30px; color: green;'><strong>Correct!</strong></p><p style='font-size: 30px;'><strong>This rock is peridotite</strong></p>",0,corr_feedback,1,train,5,,,,,,,,,,,,,,,,,,,,,,
,,,,,,,,,,,html-button-response,116,2.0.0,925325,66aa67e1fb6c20fb6beae30e,3,21,21023,,,,,,,,,"<img src= ""rock_img/I_Peridotite_02.jpg"" style=""width:8cm; height:5.859999999999999cm;""><p>What type of rock is this?</p>",6,class_response,1,train,6,Peridotite,Peridotite,2,TRUE,7,7,,,,,,,,,,,,,,,,
,,,,,,,,,,,html-button-response,117,2.0.0,926267,66aa67e1fb6c20fb6beae30e,3,21,895,,,,,,,,,"<img src= rock_img/I_Peridotite_02.jpg style=""width:8cm; height:5.859999999999999cm;""><p style='font-size: 30px; color: green;'><strong>Correct!</strong></p><p style='font-size: 30px;'><strong>This rock is peridotite</strong></p>",0,corr_feedback,1,train,6,,,,,,,,,,,,,,,,,,,,,,
,,,,,,,,,,,html-button-response,118,2.0.0,955511,66aa67e1fb6c20fb6beae30e,3,21,29198,,,,,,,,,"<img src= ""rock_img/I_Diorite_11.jpg"" style=""width:8cm; height:7.11cm;""><p>What type of rock is this?</p>",2,class_response,1,train,7,Diorite,Diorite,11,TRUE,3,3,,,,,,,,,,,,,,,,
,,,,,,,,,,,html-button-response,119,2.0.0,956473,66aa67e1fb6c20fb6beae30e,3,21,918,,,,,,,,,"<img src= rock_img/I_Diorite_11.jpg style=""width:8cm; height:7.11cm;""><p style='font-size: 30px; color: green;'><strong>Correct!</strong></p><p style='font-size: 30px;'><strong>This rock is diorite</strong></p>",0,corr_feedback,1,train,7,,,,,,,,,,,,,,,,,,,,,,
,,,,,,,,,,,html-button-response,120,2.0.0,958965,66aa67e1fb6c20fb6beae30e,3,21,2443,,,,,,,,,"<img src= ""rock_img/I_Pegmatite_11.jpg"" style=""width:8cm; height:8.14cm;""><p>What type of rock is this?</p>",4,class_response,1,train,8,Obsidian,Pegmatite,11,FALSE,5,6,,,,,,,,,,,,,,,,
,,,,,,,,,,,html-button-response,121,2.0.0,960052,66aa67e1fb6c20fb6beae30e,3,21,1041,,,,,,,,,"<img src= rock_img/I_Pegmatite_11.jpg style=""width:8cm; height:8.14cm;""><p style='font-size: 30px; color: red;'><strong>Incorrect!</strong></p><p style='font-size: 30px;'><strong>This rock is pegmatite</strong></p>",0,corr_feedback,1,train,8,,,,,,,,,,,,,,,,,,,,,,
,,,,,,,,,,,html-button-response,122,2.0.0,984010,66aa67e1fb6c20fb6beae30e,3,21,23911,,,,,,,,,"<img src= ""rock_img/I_Basalt_08.jpg"" style=""width:8cm; height:10.44cm;""><p>What type of rock is this?</p>",4,class_response,1,train,9,Obsidian,Basalt,8,FALSE,5,2,,,,,,,,,,,,,,,,
,,,,,,,,,,,html-button-response,123,2.0.0,985999,66aa67e1fb6c20fb6beae30e,3,21,1940,,,,,,,,,"<img src= rock_img/I_Basalt_08.jpg style=""width:8cm; height:10.44cm;""><p style='font-size: 30px; color: red;'><strong>Incorrect!</strong></p><p style='font-size: 30px;'><strong>This rock is basalt</strong></p>",0,corr_feedback,1,train,9,,,,,,,,,,,,,,,,,,,,,,
,,,,,,,,,,,html-button-response,124,2.0.0,988938,66aa67e1fb6c20fb6beae30e,3,21,2893,,,,,,,,,"<img src= ""rock_img/I_Gabbro_05.jpg"" style=""width:8cm; height:6cm;""><p>What type of rock is this?</p>",5,class_response,1,train,10,Pegmatite,Gabbro,5,FALSE,6,4,,,,,,,,,,,,,,,,
,,,,,,,,,,,html-button-response,125,2.0.0,989811,66aa67e1fb6c20fb6beae30e,3,21,829,,,,,,,,,"<img src= rock_img/I_Gabbro_05.jpg style=""width:8cm; height:6cm;""><p style='font-size: 30px; color: red;'><strong>Incorrect!</strong></p><p style='font-size: 30px;'><strong>This rock is gabbro</strong></p>",0,corr_feedback,1,train,10,,,,,,,,,,,,,,,,,,,,,,
,,,,,,,,,,,html-button-response,126,2.0.0,992803,66aa67e1fb6c20fb6beae30e,3,21,2942,,,,,,,,,"<img src= ""rock_img/I_Pegmatite_10.jpg"" style=""width:8cm; height:4.16cm;""><p>What type of rock is this?</p>",5,class_response,1,train,11,Pegmatite,Pegmatite,10,TRUE,6,6,,,,,,,,,,,,,,,,
,,,,,,,,,,,html-button-response,127,2.0.0,993608,66aa67e1fb6c20fb6beae30e,3,21,760,,,,,,,,,"<img src= rock_img/I_Pegmatite_10.jpg style=""width:8cm; height:4.16cm;""><p style='font-size: 30px; color: green;'><strong>Correct!</strong></p><p style='font-size: 30px;'><strong>This rock is pegmatite</strong></p>",0,corr_feedback,1,train,11,,,,,,,,,,,,,,,,,,,,,,
,,,,,,,,,,,html-button-response,128,2.0.0,995201,66aa67e1fb6c20fb6beae30e,3,21,1548,,,,,,,,,"<img src= ""rock_img/I_Pumice_14.jpg"" style=""width:8cm; height:6.39cm;""><p>What type of rock is this?</p>",7,class_response,1,train,12,Pumice,Pumice,14,TRUE,8,8,,,,,,,,,,,,,,,,
,,,,,,,,,,,html-button-response,129,2.0.0,995970,66aa67e1fb6c20fb6beae30e,3,21,727,,,,,,,,,"<img src= rock_img/I_Pumice_14.jpg style=""width:8cm; height:6.39cm;""><p style='font-size: 30px; color: green;'><strong>Correct!</strong></p><p style='font-size: 30px;'><strong>This rock is pumice</strong></p>",0,corr_feedback,1,train,12,,,,,,,,,,,,,,,,,,,,,,
,,,,,,,,,,,instructions,130,2.0.0,1118160,66aa67e1fb6c20fb6beae30e,3,21,122166,,,,,,,,"[{""page_index"":0,""viewing_time"":13873},{""page_index"":1,""viewing_time"":63971},{""page_index"":2,""viewing_time"":32680},{""page_index"":3,""viewing_time"":11643}]",,,,,,,,,,,,,,,,,,,,,,,,,,,,
,,,,,,,,,,,html-button-response,131,2.0.0,1119412,66aa67e1fb6c20fb6beae30e,3,21,1196,,,,,,,,,,0,start_train,,,,,,,,,,,,,,,,,,,,,,,,,
,,,,,,,,,,,html-button-response,132,2.0.0,1160443,66aa67e1fb6c20fb6beae30e,3,21,,,,,,,,,,,,cat_selection,1,train,1,,,,,,,3,4,41013.8,Diorite,Gabbro,"[0.12837837837837837,0.12837837837837837,0.12837837837837837,0.1554054054054054,0.07432432432432433,0.1554054054054054,0.18243243243243243,0.047297297297297286]","[0.0498068946053242,0.20498095842697966,null,0.22011035362457043,0.05889775479324288,0.06457265539539818,0.2068101496890336,0.19482123346545113]",,,,,,,,,
,,,,,,,,,,,paired-cat-display,133,1.0.0,1363517,66aa67e1fb6c20fb6beae30e,3,21,,,,,,,,,,,,paired_cat_display,1,train,1,,,,,,,,,63264.9,,,,,"grainy and salt kind of appearance, mixture of white and black minerals, kind of porus texture.","mostly either in black or green colour, grained and rough texture",139768.5,,,,,,
,,,,,,,,,,,html-button-response,134,2.0.0,1378422,66aa67e1fb6c20fb6beae30e,3,21,,,,,,,,,,,,cat_selection,1,train,2,,,,,,,6,7,14871.5,Pegmatite,Peridotite,"[0.12837837837837837,0.12837837837837837,0.12837837837837837,0.1554054054054054,0.07432432432432433,0.1554054054054054,0.18243243243243243,0.047297297297297286]","[0.050921712972774376,0.1734247102142087,0.06511045996518827,0.18662457820715128,0.18144685220991957,null,0.17598024021284236,0.1664914462179156]",,,,,,,,,
,,,,,,,,,,,paired-cat-display,135,1.0.0,1505011,66aa67e1fb6c20fb6beae30e,3,21,,,,,,,,,,,,paired_cat_display,1,train,2,,,,,,,,,14088.5,,,,,,,112459.2,"looks like crystals maybe quartrz, light coloured with different minerals","looks like grained texture, greenish colour and dense.",,,,
,,,,,,,,,,,html-button-response,136,2.0.0,1506963,66aa67e1fb6c20fb6beae30e,3,21,,,,,,,,,,,,cat_selection,1,train,3,,,,,,,1,8,1912.5,Andesite,Pumice,"[0.12837837837837837,0.12837837837837837,0.12837837837837837,0.1554054054054054,0.07432432432432433,0.1554054054054054,0.18243243243243243,0.047297297297297286]","[null,0.2105751397877713,0.3553933256156172,0.05448154164644045,0.059552545971136045,0.04477921545294773,0.05783289903251094,0.21738533249357633]",,,,,,,,,
,,,,,,,,,,,paired-cat-display,137,1.0.0,1632935,66aa67e1fb6c20fb6beae30e,3,21,,,,,,,,,,,,paired_cat_display,1,train,3,,,,,,,,,9856.4,,,,,,,116075.5,,,"looks gray or black in colour, may contains visible crystals and grained texture.","looks like porous, light coloured in shades of white, green and brown, rough texture",,
,,,,,,,,,,,instructions,138,2.0.0,1670322,66aa67e1fb6c20fb6beae30e,3,21,37347,,,,,,,,"[{""page_index"":0,""viewing_time"":7074},{""page_index"":1,""viewing_time"":27285},{""page_index"":0,""viewing_time"":977},{""page_index"":1,""viewing_time"":2011}]",,,,,,,,,,,,,,,,,,,,,,,,,,,,
,,,,,,,,,,,html-button-response,139,2.0.0,1672008,66aa67e1fb6c20fb6beae30e,3,21,1617,,,,,,,,,,0,start_test,,,,,,,,,,,,,,,,,,,,,,,,,
,,,,,,,,,,,html-button-response,140,2.0.0,1695926,66aa67e1fb6c20fb6beae30e,3,21,23870,,,,,,,,,"<img src= ""rock_img/I_Pegmatite_13.jpg"" style=""width:8cm; height:4.95cm;""><p>What type of rock is this?</p>",5,class_response,1,test,1,Pegmatite,Pegmatite,13,TRUE,6,6,,,,,,,,,,,,,,,,
,,,,,,,,,,,html-keyboard-response,141,2.0.0,1696452,66aa67e1fb6c20fb6beae30e,3,21,null,,,,,,,,,<p style='font-size: 30px;'><strong>Okay</strong></p>,null,neutral_feedback,1,test,1,,,,,,,,,,,,,,,,,,,,,,
,,,,,,,,,,,html-button-response,142,2.0.0,1731742,66aa67e1fb6c20fb6beae30e,3,21,35262,,,,,,,,,"<img src= ""rock_img/I_Peridotite_05.jpg"" style=""width:8cm; height:7.1499999999999995cm;""><p>What type of rock is this?</p>",2,class_response,1,test,2,Diorite,Peridotite,5,FALSE,3,7,,,,,,,,,,,,,,,,
,,,,,,,,,,,html-keyboard-response,143,2.0.0,1732269,66aa67e1fb6c20fb6beae30e,3,21,null,,,,,,,,,<p style='font-size: 30px;'><strong>Okay</strong></p>,null,neutral_feedback,1,test,2,,,,,,,,,,,,,,,,,,,,,,
,,,,,,,,,,,html-button-response,144,2.0.0,1755215,66aa67e1fb6c20fb6beae30e,3,21,22922,,,,,,,,,"<img src= ""rock_img/I_Basalt_16.jpg"" style=""width:8cm; height:7.659999999999999cm;""><p>What type of rock is this?</p>",1,class_response,1,test,3,Basalt,Basalt,16,TRUE,2,2,,,,,,,,,,,,,,,,
,,,,,,,,,,,html-keyboard-response,145,2.0.0,1755742,66aa67e1fb6c20fb6beae30e,3,21,null,,,,,,,,,<p style='font-size: 30px;'><strong>Okay</strong></p>,null,neutral_feedback,1,test,3,,,,,,,,,,,,,,,,,,,,,,
,,,,,,,,,,,html-button-response,146,2.0.0,1759239,66aa67e1fb6c20fb6beae30e,3,21,3474,,,,,,,,,"<img src= ""rock_img/I_Pumice_08.jpg"" style=""width:8cm; height:6.67cm;""><p>What type of rock is this?</p>",7,class_response,1,test,4,Pumice,Pumice,8,TRUE,8,8,,,,,,,,,,,,,,,,
,,,,,,,,,,,html-keyboard-response,147,2.0.0,1759763,66aa67e1fb6c20fb6beae30e,3,21,null,,,,,,,,,<p style='font-size: 30px;'><strong>Okay</strong></p>,null,neutral_feedback,1,test,4,,,,,,,,,,,,,,,,,,,,,,
,,,,,,,,,,,html-button-response,148,2.0.0,1810069,66aa67e1fb6c20fb6beae30e,3,21,50280,,,,,,,,,"<img src= ""rock_img/I_Andesite_09.jpg"" style=""width:8cm; height:6cm;""><p>What type of rock is this?</p>",0,class_response,1,test,5,Andesite,Andesite,9,TRUE,1,1,,,,,,,,,,,,,,,,
,,,,,,,,,,,html-keyboard-response,149,2.0.0,1810594,66aa67e1fb6c20fb6beae30e,3,21,null,,,,,,,,,<p style='font-size: 30px;'><strong>Okay</strong></p>,null,neutral_feedback,1,test,5,,,,,,,,,,,,,,,,,,,,,,
,,,,,,,,,,,html-button-response,150,2.0.0,1816900,66aa67e1fb6c20fb6beae30e,3,21,6278,,,,,,,,,"<img src= ""rock_img/I_Gabbro_13.jpg"" style=""width:8cm; height:5.08cm;""><p>What type of rock is this?</p>",1,class_response,1,test,6,Basalt,Gabbro,13,FALSE,2,4,,,,,,,,,,,,,,,,
,,,,,,,,,,,html-keyboard-response,151,2.0.0,1817427,66aa67e1fb6c20fb6beae30e,3,21,null,,,,,,,,,<p style='font-size: 30px;'><strong>Okay</strong></p>,null,neutral_feedback,1,test,6,,,,,,,,,,,,,,,,,,,,,,
,,,,,,,,,,,html-button-response,152,2.0.0,1819880,66aa67e1fb6c20fb6beae30e,3,21,2428,,,,,,,,,"<img src= ""rock_img/I_Pegmatite_09.jpg"" style=""width:8cm; height:4.03cm;""><p>What type of rock is this?</p>",4,class_response,1,test,7,Obsidian,Pegmatite,9,FALSE,5,6,,,,,,,,,,,,,,,,
,,,,,,,,,,,html-keyboard-response,153,2.0.0,1820407,66aa67e1fb6c20fb6beae30e,3,21,null,,,,,,,,,<p style='font-size: 30px;'><strong>Okay</strong></p>,null,neutral_feedback,1,test,7,,,,,,,,,,,,,,,,,,,,,,
,,,,,,,,,,,html-button-response,154,2.0.0,1827000,66aa67e1fb6c20fb6beae30e,3,21,6567,,,,,,,,,"<img src= ""rock_img/I_Gabbro_10.jpg"" style=""width:8cm; height:5.680000000000001cm;""><p>What type of rock is this?</p>",3,class_response,1,test,8,Gabbro,Gabbro,10,TRUE,4,4,,,,,,,,,,,,,,,,
,,,,,,,,,,,html-keyboard-response,155,2.0.0,1827525,66aa67e1fb6c20fb6beae30e,3,21,null,,,,,,,,,<p style='font-size: 30px;'><strong>Okay</strong></p>,null,neutral_feedback,1,test,8,,,,,,,,,,,,,,,,,,,,,,
,,,,,,,,,,,html-button-response,156,2.0.0,1829483,66aa67e1fb6c20fb6beae30e,3,21,1932,,,,,,,,,"<img src= ""rock_img/I_Basalt_12.jpg"" style=""width:8cm; height:6.010000000000001cm;""><p>What type of rock is this?</p>",7,class_response,1,test,9,Pumice,Basalt,12,FALSE,8,2,,,,,,,,,,,,,,,,
,,,,,,,,,,,html-keyboard-response,157,2.0.0,1830010,66aa67e1fb6c20fb6beae30e,3,21,null,,,,,,,,,<p style='font-size: 30px;'><strong>Okay</strong></p>,null,neutral_feedback,1,test,9,,,,,,,,,,,,,,,,,,,,,,
,,,,,,,,,,,html-button-response,158,2.0.0,1842268,66aa67e1fb6c20fb6beae30e,3,21,12240,,,,,,,,,"<img src= ""rock_img/I_Diorite_07.jpg"" style=""width:8cm; height:5.239999999999999cm;""><p>What type of rock is this?</p>",5,class_response,1,test,10,Pegmatite,Diorite,7,FALSE,6,3,,,,,,,,,,,,,,,,
,,,,,,,,,,,html-keyboard-response,159,2.0.0,1842798,66aa67e1fb6c20fb6beae30e,3,21,null,,,,,,,,,<p style='font-size: 30px;'><strong>Okay</strong></p>,null,neutral_feedback,1,test,10,,,,,,,,,,,,,,,,,,,,,,
,,,,,,,,,,,html-button-response,160,2.0.0,1850449,66aa67e1fb6c20fb6beae30e,3,21,7625,,,,,,,,,"<img src= ""rock_img/I_Gabbro_03.jpg"" style=""width:8cm; height:8.52cm;""><p>What type of rock is this?</p>",5,class_response,1,test,11,Pegmatite,Gabbro,3,FALSE,6,4,,,,,,,,,,,,,,,,
,,,,,,,,,,,html-keyboard-response,161,2.0.0,1850977,66aa67e1fb6c20fb6beae30e,3,21,null,,,,,,,,,<p style='font-size: 30px;'><strong>Okay</strong></p>,null,neutral_feedback,1,test,11,,,,,,,,,,,,,,,,,,,,,,
,,,,,,,,,,,html-button-response,162,2.0.0,1856663,66aa67e1fb6c20fb6beae30e,3,21,5659,,,,,,,,,"<img src= ""rock_img/I_Diorite_12.jpg"" style=""width:8cm; height:4.88cm;""><p>What type of rock is this?</p>",6,class_response,1,test,12,Peridotite,Diorite,12,FALSE,7,3,,,,,,,,,,,,,,,,
,,,,,,,,,,,html-keyboard-response,163,2.0.0,1857191,66aa67e1fb6c20fb6beae30e,3,21,null,,,,,,,,,<p style='font-size: 30px;'><strong>Okay</strong></p>,null,neutral_feedback,1,test,12,,,,,,,,,,,,,,,,,,,,,,
,,,,,,,,,,,html-button-response,164,2.0.0,1861564,66aa67e1fb6c20fb6beae30e,3,21,4348,,,,,,,,,"<img src= ""rock_img/I_Pegmatite_06.jpg"" style=""width:8cm; height:5.17cm;""><p>What type of rock is this?</p>",2,class_response,1,test,13,Diorite,Pegmatite,6,FALSE,3,6,,,,,,,,,,,,,,,,
,,,,,,,,,,,html-keyboard-response,165,2.0.0,1862091,66aa67e1fb6c20fb6beae30e,3,21,null,,,,,,,,,<p style='font-size: 30px;'><strong>Okay</strong></p>,null,neutral_feedback,1,test,13,,,,,,,,,,,,,,,,,,,,,,
,,,,,,,,,,,html-button-response,166,2.0.0,1866827,66aa67e1fb6c20fb6beae30e,3,21,4710,,,,,,,,,"<img src= ""rock_img/I_Peridotite_07.jpg"" style=""width:8cm; height:4.83cm;""><p>What type of rock is this?</p>",1,class_response,1,test,14,Basalt,Peridotite,7,FALSE,2,7,,,,,,,,,,,,,,,,
,,,,,,,,,,,html-keyboard-response,167,2.0.0,1867355,66aa67e1fb6c20fb6beae30e,3,21,null,,,,,,,,,<p style='font-size: 30px;'><strong>Okay</strong></p>,null,neutral_feedback,1,test,14,,,,,,,,,,,,,,,,,,,,,,
,,,,,,,,,,,html-button-response,168,2.0.0,1871891,66aa67e1fb6c20fb6beae30e,3,21,4509,,,,,,,,,"<img src= ""rock_img/I_Diorite_02.jpg"" style=""width:8cm; height:6.27cm;""><p>What type of rock is this?</p>",3,class_response,1,test,15,Gabbro,Diorite,2,FALSE,4,3,,,,,,,,,,,,,,,,
,,,,,,,,,,,html-keyboard-response,169,2.0.0,1872419,66aa67e1fb6c20fb6beae30e,3,21,null,,,,,,,,,<p style='font-size: 30px;'><strong>Okay</strong></p>,null,neutral_feedback,1,test,15,,,,,,,,,,,,,,,,,,,,,,
,,,,,,,,,,,html-button-response,170,2.0.0,1874244,66aa67e1fb6c20fb6beae30e,3,21,1800,,,,,,,,,"<img src= ""rock_img/I_Andesite_02.jpg"" style=""width:8cm; height:8.5cm;""><p>What type of rock is this?</p>",6,class_response,1,test,16,Peridotite,Andesite,2,FALSE,7,1,,,,,,,,,,,,,,,,
,,,,,,,,,,,html-keyboard-response,171,2.0.0,1874771,66aa67e1fb6c20fb6beae30e,3,21,null,,,,,,,,,<p style='font-size: 30px;'><strong>Okay</strong></p>,null,neutral_feedback,1,test,16,,,,,,,,,,,,,,,,,,,,,,
,,,,,,,,,,,html-button-response,172,2.0.0,1876174,66aa67e1fb6c20fb6beae30e,3,21,1378,,,,,,,,,"<img src= ""rock_img/I_Obsidian_07.jpg"" style=""width:8cm; height:4.76cm;""><p>What type of rock is this?</p>",4,class_response,1,test,17,Obsidian,Obsidian,7,TRUE,5,5,,,,,,,,,,,,,,,,
,,,,,,,,,,,html-keyboard-response,173,2.0.0,1876701,66aa67e1fb6c20fb6beae30e,3,21,null,,,,,,,,,<p style='font-size: 30px;'><strong>Okay</strong></p>,null,neutral_feedback,1,test,17,,,,,,,,,,,,,,,,,,,,,,
,,,,,,,,,,,html-button-response,174,2.0.0,1878184,66aa67e1fb6c20fb6beae30e,3,21,1459,,,,,,,,,"<img src= ""rock_img/I_Andesite_06.jpg"" style=""width:8cm; height:6.840000000000001cm;""><p>What type of rock is this?</p>",0,class_response,1,test,18,Andesite,Andesite,6,TRUE,1,1,,,,,,,,,,,,,,,,
,,,,,,,,,,,html-keyboard-response,175,2.0.0,1878711,66aa67e1fb6c20fb6beae30e,3,21,null,,,,,,,,,<p style='font-size: 30px;'><strong>Okay</strong></p>,null,neutral_feedback,1,test,18,,,,,,,,,,,,,,,,,,,,,,
,,,,,,,,,,,html-button-response,176,2.0.0,1879916,66aa67e1fb6c20fb6beae30e,3,21,1180,,,,,,,,,"<img src= ""rock_img/I_Pegmatite_08.jpg"" style=""width:8cm; height:7.68cm;""><p>What type of rock is this?</p>",4,class_response,1,test,19,Obsidian,Pegmatite,8,FALSE,5,6,,,,,,,,,,,,,,,,
,,,,,,,,,,,html-keyboard-response,177,2.0.0,1880444,66aa67e1fb6c20fb6beae30e,3,21,null,,,,,,,,,<p style='font-size: 30px;'><strong>Okay</strong></p>,null,neutral_feedback,1,test,19,,,,,,,,,,,,,,,,,,,,,,
,,,,,,,,,,,html-button-response,178,2.0.0,1882022,66aa67e1fb6c20fb6beae30e,3,21,1552,,,,,,,,,"<img src= ""rock_img/I_Pumice_09.jpg"" style=""width:8cm; height:6.44cm;""><p>What type of rock is this?</p>",7,class_response,1,test,20,Pumice,Pumice,9,TRUE,8,8,,,,,,,,,,,,,,,,
,,,,,,,,,,,html-keyboard-response,179,2.0.0,1882549,66aa67e1fb6c20fb6beae30e,3,21,null,,,,,,,,,<p style='font-size: 30px;'><strong>Okay</strong></p>,null,neutral_feedback,1,test,20,,,,,,,,,,,,,,,,,,,,,,
,,,,,,,,,,,html-button-response,180,2.0.0,1883867,66aa67e1fb6c20fb6beae30e,3,21,1293,,,,,,,,,"<img src= ""rock_img/I_Obsidian_02.jpg"" style=""width:8cm; height:7.51cm;""><p>What type of rock is this?</p>",4,class_response,1,test,21,Obsidian,Obsidian,2,TRUE,5,5,,,,,,,,,,,,,,,,
,,,,,,,,,,,html-keyboard-response,181,2.0.0,1884395,66aa67e1fb6c20fb6beae30e,3,21,null,,,,,,,,,<p style='font-size: 30px;'><strong>Okay</strong></p>,null,neutral_feedback,1,test,21,,,,,,,,,,,,,,,,,,,,,,
,,,,,,,,,,,html-button-response,182,2.0.0,1893550,66aa67e1fb6c20fb6beae30e,3,21,9129,,,,,,,,,"<img src= ""rock_img/I_Pegmatite_16.jpg"" style=""width:8cm; height:5.8cm;""><p>What type of rock is this?</p>",5,class_response,1,test,22,Pegmatite,Pegmatite,16,TRUE,6,6,,,,,,,,,,,,,,,,
,,,,,,,,,,,html-keyboard-response,183,2.0.0,1894075,66aa67e1fb6c20fb6beae30e,3,21,null,,,,,,,,,<p style='font-size: 30px;'><strong>Okay</strong></p>,null,neutral_feedback,1,test,22,,,,,,,,,,,,,,,,,,,,,,
,,,,,,,,,,,html-button-response,184,2.0.0,1902723,66aa67e1fb6c20fb6beae30e,3,21,8621,,,,,,,,,"<img src= ""rock_img/I_Diorite_10.jpg"" style=""width:8cm; height:5.949999999999999cm;""><p>What type of rock is this?</p>",6,class_response,1,test,23,Peridotite,Diorite,10,FALSE,7,3,,,,,,,,,,,,,,,,
,,,,,,,,,,,html-keyboard-response,185,2.0.0,1903250,66aa67e1fb6c20fb6beae30e,3,21,null,,,,,,,,,<p style='font-size: 30px;'><strong>Okay</strong></p>,null,neutral_feedback,1,test,23,,,,,,,,,,,,,,,,,,,,,,
,,,,,,,,,,,html-button-response,186,2.0.0,1909723,66aa67e1fb6c20fb6beae30e,3,21,6447,,,,,,,,,"<img src= ""rock_img/I_Diorite_16.jpg"" style=""width:8cm; height:6.74cm;""><p>What type of rock is this?</p>",0,class_response,1,test,24,Andesite,Diorite,16,FALSE,1,3,,,,,,,,,,,,,,,,
,,,,,,,,,,,html-keyboard-response,187,2.0.0,1910250,66aa67e1fb6c20fb6beae30e,3,21,null,,,,,,,,,<p style='font-size: 30px;'><strong>Okay</strong></p>,null,neutral_feedback,1,test,24,,,,,,,,,,,,,,,,,,,,,,
,,,,,,,,,,,html-button-response,188,2.0.0,1914384,66aa67e1fb6c20fb6beae30e,3,21,4110,,,,,,,,,"<img src= ""rock_img/I_Basalt_05.jpg"" style=""width:8cm; height:8.18cm;""><p>What type of rock is this?</p>",2,class_response,1,test,25,Diorite,Basalt,5,FALSE,3,2,,,,,,,,,,,,,,,,
,,,,,,,,,,,html-keyboard-response,189,2.0.0,1914910,66aa67e1fb6c20fb6beae30e,3,21,null,,,,,,,,,<p style='font-size: 30px;'><strong>Okay</strong></p>,null,neutral_feedback,1,test,25,,,,,,,,,,,,,,,,,,,,,,
,,,,,,,,,,,html-button-response,190,2.0.0,1916580,66aa67e1fb6c20fb6beae30e,3,21,1644,,,,,,,,,"<img src= ""rock_img/I_Pumice_16.jpg"" style=""width:8cm; height:6.79cm;""><p>What type of rock is this?</p>",7,class_response,1,test,26,Pumice,Pumice,16,TRUE,8,8,,,,,,,,,,,,,,,,
,,,,,,,,,,,html-keyboard-response,191,2.0.0,1917108,66aa67e1fb6c20fb6beae30e,3,21,null,,,,,,,,,<p style='font-size: 30px;'><strong>Okay</strong></p>,null,neutral_feedback,1,test,26,,,,,,,,,,,,,,,,,,,,,,
,,,,,,,,,,,html-button-response,192,2.0.0,1918806,66aa67e1fb6c20fb6beae30e,3,21,1673,,,,,,,,,"<img src= ""rock_img/I_Basalt_10.jpg"" style=""width:8cm; height:5.85cm;""><p>What type of rock is this?</p>",4,class_response,1,test,27,Obsidian,Basalt,10,FALSE,5,2,,,,,,,,,,,,,,,,
,,,,,,,,,,,html-keyboard-response,193,2.0.0,1919333,66aa67e1fb6c20fb6beae30e,3,21,null,,,,,,,,,<p style='font-size: 30px;'><strong>Okay</strong></p>,null,neutral_feedback,1,test,27,,,,,,,,,,,,,,,,,,,,,,
,,,,,,,,,,,html-button-response,194,2.0.0,1919972,66aa67e1fb6c20fb6beae30e,3,21,617,,,,,,,,,"<img src= ""rock_img/I_Obsidian_12.jpg"" style=""width:8cm; height:6.53cm;""><p>What type of rock is this?</p>",4,class_response,1,test,28,Obsidian,Obsidian,12,TRUE,5,5,,,,,,,,,,,,,,,,
,,,,,,,,,,,html-keyboard-response,195,2.0.0,1920497,66aa67e1fb6c20fb6beae30e,3,21,null,,,,,,,,,<p style='font-size: 30px;'><strong>Okay</strong></p>,null,neutral_feedback,1,test,28,,,,,,,,,,,,,,,,,,,,,,
,,,,,,,,,,,html-button-response,196,2.0.0,1925624,66aa67e1fb6c20fb6beae30e,3,21,5101,,,,,,,,,"<img src= ""rock_img/I_Pumice_13.jpg"" style=""width:8cm; height:8.200000000000001cm;""><p>What type of rock is this?</p>",7,class_response,1,test,29,Pumice,Pumice,13,TRUE,8,8,,,,,,,,,,,,,,,,
,,,,,,,,,,,html-keyboard-response,197,2.0.0,1926151,66aa67e1fb6c20fb6beae30e,3,21,null,,,,,,,,,<p style='font-size: 30px;'><strong>Okay</strong></p>,null,neutral_feedback,1,test,29,,,,,,,,,,,,,,,,,,,,,,
,,,,,,,,,,,html-button-response,198,2.0.0,1929786,66aa67e1fb6c20fb6beae30e,3,21,3612,,,,,,,,,"<img src= ""rock_img/I_Gabbro_11.jpg"" style=""width:8cm; height:6.2cm;""><p>What type of rock is this?</p>",3,class_response,1,test,30,Gabbro,Gabbro,11,TRUE,4,4,,,,,,,,,,,,,,,,
,,,,,,,,,,,html-keyboard-response,199,2.0.0,1930311,66aa67e1fb6c20fb6beae30e,3,21,null,,,,,,,,,<p style='font-size: 30px;'><strong>Okay</strong></p>,null,neutral_feedback,1,test,30,,,,,,,,,,,,,,,,,,,,,,
,,,,,,,,,,,html-button-response,200,2.0.0,1931851,66aa67e1fb6c20fb6beae30e,3,21,1518,,,,,,,,,"<img src= ""rock_img/I_Basalt_09.jpg"" style=""width:8cm; height:6.2cm;""><p>What type of rock is this?</p>",3,class_response,1,test,31,Gabbro,Basalt,9,FALSE,4,2,,,,,,,,,,,,,,,,
,,,,,,,,,,,html-keyboard-response,201,2.0.0,1932376,66aa67e1fb6c20fb6beae30e,3,21,null,,,,,,,,,<p style='font-size: 30px;'><strong>Okay</strong></p>,null,neutral_feedback,1,test,31,,,,,,,,,,,,,,,,,,,,,,
,,,,,,,,,,,html-button-response,202,2.0.0,1933668,66aa67e1fb6c20fb6beae30e,3,21,1267,,,,,,,,,"<img src= ""rock_img/I_Obsidian_16.jpg"" style=""width:8cm; height:9.3cm;""><p>What type of rock is this?</p>",4,class_response,1,test,32,Obsidian,Obsidian,16,TRUE,5,5,,,,,,,,,,,,,,,,
,,,,,,,,,,,html-keyboard-response,203,2.0.0,1934194,66aa67e1fb6c20fb6beae30e,3,21,null,,,,,,,,,<p style='font-size: 30px;'><strong>Okay</strong></p>,null,neutral_feedback,1,test,32,,,,,,,,,,,,,,,,,,,,,,
,,,,,,,,,,,html-button-response,204,2.0.0,1936906,66aa67e1fb6c20fb6beae30e,3,21,2688,,,,,,,,,"<img src= ""rock_img/I_Andesite_14.jpg"" style=""width:8cm; height:5.449999999999999cm;""><p>What type of rock is this?</p>",1,class_response,1,test,33,Basalt,Andesite,14,FALSE,2,1,,,,,,,,,,,,,,,,
,,,,,,,,,,,html-keyboard-response,205,2.0.0,1937433,66aa67e1fb6c20fb6beae30e,3,21,null,,,,,,,,,<p style='font-size: 30px;'><strong>Okay</strong></p>,null,neutral_feedback,1,test,33,,,,,,,,,,,,,,,,,,,,,,
,,,,,,,,,,,html-button-response,206,2.0.0,1940201,66aa67e1fb6c20fb6beae30e,3,21,2742,,,,,,,,,"<img src= ""rock_img/I_Basalt_02.jpg"" style=""width:8cm; height:6.45cm;""><p>What type of rock is this?</p>",5,class_response,1,test,34,Pegmatite,Basalt,2,FALSE,6,2,,,,,,,,,,,,,,,,
,,,,,,,,,,,html-keyboard-response,207,2.0.0,1940727,66aa67e1fb6c20fb6beae30e,3,21,null,,,,,,,,,<p style='font-size: 30px;'><strong>Okay</strong></p>,null,neutral_feedback,1,test,34,,,,,,,,,,,,,,,,,,,,,,
,,,,,,,,,,,html-button-response,208,2.0.0,1942272,66aa67e1fb6c20fb6beae30e,3,21,1521,,,,,,,,,"<img src= ""rock_img/I_Gabbro_15.jpg"" style=""width:8cm; height:6.29cm;""><p>What type of rock is this?</p>",0,class_response,1,test,35,Andesite,Gabbro,15,FALSE,1,4,,,,,,,,,,,,,,,,
,,,,,,,,,,,html-keyboard-response,209,2.0.0,1942801,66aa67e1fb6c20fb6beae30e,3,21,null,,,,,,,,,<p style='font-size: 30px;'><strong>Okay</strong></p>,null,neutral_feedback,1,test,35,,,,,,,,,,,,,,,,,,,,,,
,,,,,,,,,,,html-button-response,210,2.0.0,1945348,66aa67e1fb6c20fb6beae30e,3,21,2523,,,,,,,,,"<img src= ""rock_img/I_Peridotite_06.jpg"" style=""width:8cm; height:7.53cm;""><p>What type of rock is this?</p>",5,class_response,1,test,36,Pegmatite,Peridotite,6,FALSE,6,7,,,,,,,,,,,,,,,,
,,,,,,,,,,,html-keyboard-response,211,2.0.0,1945875,66aa67e1fb6c20fb6beae30e,3,21,null,,,,,,,,,<p style='font-size: 30px;'><strong>Okay</strong></p>,null,neutral_feedback,1,test,36,,,,,,,,,,,,,,,,,,,,,,
,,,,,,,,,,,html-button-response,212,2.0.0,1958994,66aa67e1fb6c20fb6beae30e,3,21,13093,,,,,,,,,"<img src= ""rock_img/I_Pegmatite_07.jpg"" style=""width:8cm; height:6.7cm;""><p>What type of rock is this?</p>",5,class_response,1,test,37,Pegmatite,Pegmatite,7,TRUE,6,6,,,,,,,,,,,,,,,,
,,,,,,,,,,,html-keyboard-response,213,2.0.0,1959522,66aa67e1fb6c20fb6beae30e,3,21,null,,,,,,,,,<p style='font-size: 30px;'><strong>Okay</strong></p>,null,neutral_feedback,1,test,37,,,,,,,,,,,,,,,,,,,,,,
,,,,,,,,,,,html-button-response,214,2.0.0,1960652,66aa67e1fb6c20fb6beae30e,3,21,1104,,,,,,,,,"<img src= ""rock_img/I_Pumice_10.jpg"" style=""width:8cm; height:7.609999999999999cm;""><p>What type of rock is this?</p>",7,class_response,1,test,38,Pumice,Pumice,10,TRUE,8,8,,,,,,,,,,,,,,,,
,,,,,,,,,,,html-keyboard-response,215,2.0.0,1961179,66aa67e1fb6c20fb6beae30e,3,21,null,,,,,,,,,<p style='font-size: 30px;'><strong>Okay</strong></p>,null,neutral_feedback,1,test,38,,,,,,,,,,,,,,,,,,,,,,
,,,,,,,,,,,html-button-response,216,2.0.0,1962262,66aa67e1fb6c20fb6beae30e,3,21,1059,,,,,,,,,"<img src= ""rock_img/I_Obsidian_14.jpg"" style=""width:8cm; height:7.64cm;""><p>What type of rock is this?</p>",4,class_response,1,test,39,Obsidian,Obsidian,14,TRUE,5,5,,,,,,,,,,,,,,,,
,,,,,,,,,,,html-keyboard-response,217,2.0.0,1962789,66aa67e1fb6c20fb6beae30e,3,21,null,,,,,,,,,<p style='font-size: 30px;'><strong>Okay</strong></p>,null,neutral_feedback,1,test,39,,,,,,,,,,,,,,,,,,,,,,
,,,,,,,,,,,html-button-response,218,2.0.0,1966320,66aa67e1fb6c20fb6beae30e,3,21,3506,,,,,,,,,"<img src= ""rock_img/I_Peridotite_04.jpg"" style=""width:8cm; height:6.680000000000001cm;""><p>What type of rock is this?</p>",5,class_response,1,test,40,Pegmatite,Peridotite,4,FALSE,6,7,,,,,,,,,,,,,,,,
,,,,,,,,,,,html-keyboard-response,219,2.0.0,1966846,66aa67e1fb6c20fb6beae30e,3,21,null,,,,,,,,,<p style='font-size: 30px;'><strong>Okay</strong></p>,null,neutral_feedback,1,test,40,,,,,,,,,,,,,,,,,,,,,,
,,,,,,,,,,,html-button-response,220,2.0.0,1968272,66aa67e1fb6c20fb6beae30e,3,21,1403,,,,,,,,,"<img src= ""rock_img/I_Andesite_03.jpg"" style=""width:8cm; height:5.73cm;""><p>What type of rock is this?</p>",6,class_response,1,test,41,Peridotite,Andesite,3,FALSE,7,1,,,,,,,,,,,,,,,,
,,,,,,,,,,,html-keyboard-response,221,2.0.0,1968800,66aa67e1fb6c20fb6beae30e,3,21,null,,,,,,,,,<p style='font-size: 30px;'><strong>Okay</strong></p>,null,neutral_feedback,1,test,41,,,,,,,,,,,,,,,,,,,,,,
,,,,,,,,,,,html-button-response,222,2.0.0,1970564,66aa67e1fb6c20fb6beae30e,3,21,1742,,,,,,,,,"<img src= ""rock_img/I_Gabbro_08.jpg"" style=""width:8cm; height:5.15cm;""><p>What type of rock is this?</p>",2,class_response,1,test,42,Diorite,Gabbro,8,FALSE,3,4,,,,,,,,,,,,,,,,
,,,,,,,,,,,html-keyboard-response,223,2.0.0,1971090,66aa67e1fb6c20fb6beae30e,3,21,null,,,,,,,,,<p style='font-size: 30px;'><strong>Okay</strong></p>,null,neutral_feedback,1,test,42,,,,,,,,,,,,,,,,,,,,,,
,,,,,,,,,,,html-button-response,224,2.0.0,1972394,66aa67e1fb6c20fb6beae30e,3,21,1280,,,,,,,,,"<img src= ""rock_img/I_Obsidian_08.jpg"" style=""width:8cm; height:7.39cm;""><p>What type of rock is this?</p>",4,class_response,1,test,43,Obsidian,Obsidian,8,TRUE,5,5,,,,,,,,,,,,,,,,
,,,,,,,,,,,html-keyboard-response,225,2.0.0,1972920,66aa67e1fb6c20fb6beae30e,3,21,null,,,,,,,,,<p style='font-size: 30px;'><strong>Okay</strong></p>,null,neutral_feedback,1,test,43,,,,,,,,,,,,,,,,,,,,,,
,,,,,,,,,,,html-button-response,226,2.0.0,1974373,66aa67e1fb6c20fb6beae30e,3,21,1427,,,,,,,,,"<img src= ""rock_img/I_Pumice_03.jpg"" style=""width:8cm; height:6.64cm;""><p>What type of rock is this?</p>",7,class_response,1,test,44,Pumice,Pumice,3,TRUE,8,8,,,,,,,,,,,,,,,,
,,,,,,,,,,,html-keyboard-response,227,2.0.0,1974900,66aa67e1fb6c20fb6beae30e,3,21,null,,,,,,,,,<p style='font-size: 30px;'><strong>Okay</strong></p>,null,neutral_feedback,1,test,44,,,,,,,,,,,,,,,,,,,,,,
,,,,,,,,,,,html-button-response,228,2.0.0,1976440,66aa67e1fb6c20fb6beae30e,3,21,1515,,,,,,,,,"<img src= ""rock_img/I_Peridotite_16.jpg"" style=""width:8cm; height:6.989999999999999cm;""><p>What type of rock is this?</p>",3,class_response,1,test,45,Gabbro,Peridotite,16,FALSE,4,7,,,,,,,,,,,,,,,,
,,,,,,,,,,,html-keyboard-response,229,2.0.0,1976967,66aa67e1fb6c20fb6beae30e,3,21,null,,,,,,,,,<p style='font-size: 30px;'><strong>Okay</strong></p>,null,neutral_feedback,1,test,45,,,,,,,,,,,,,,,,,,,,,,
,,,,,,,,,,,html-button-response,230,2.0.0,1978903,66aa67e1fb6c20fb6beae30e,3,21,1914,,,,,,,,,"<img src= ""rock_img/I_Peridotite_12.jpg"" style=""width:8cm; height:4.54cm;""><p>What type of rock is this?</p>",5,class_response,1,test,46,Pegmatite,Peridotite,12,FALSE,6,7,,,,,,,,,,,,,,,,
,,,,,,,,,,,html-keyboard-response,231,2.0.0,1979429,66aa67e1fb6c20fb6beae30e,3,21,null,,,,,,,,,<p style='font-size: 30px;'><strong>Okay</strong></p>,null,neutral_feedback,1,test,46,,,,,,,,,,,,,,,,,,,,,,
,,,,,,,,,,,html-button-response,232,2.0.0,1981005,66aa67e1fb6c20fb6beae30e,3,21,1552,,,,,,,,,"<img src= ""rock_img/I_Diorite_06.jpg"" style=""width:8cm; height:6.03cm;""><p>What type of rock is this?</p>",2,class_response,1,test,47,Diorite,Diorite,6,TRUE,3,3,,,,,,,,,,,,,,,,
,,,,,,,,,,,html-keyboard-response,233,2.0.0,1981532,66aa67e1fb6c20fb6beae30e,3,21,null,,,,,,,,,<p style='font-size: 30px;'><strong>Okay</strong></p>,null,neutral_feedback,1,test,47,,,,,,,,,,,,,,,,,,,,,,
,,,,,,,,,,,html-button-response,234,2.0.0,1983265,66aa67e1fb6c20fb6beae30e,3,21,1708,,,,,,,,,"<img src= ""rock_img/I_Andesite_05.jpg"" style=""width:8cm; height:4.12cm;""><p>What type of rock is this?</p>",1,class_response,1,test,48,Basalt,Andesite,5,FALSE,2,1,,,,,,,,,,,,,,,,
,,,,,,,,,,,html-keyboard-response,235,2.0.0,1983792,66aa67e1fb6c20fb6beae30e,3,21,null,,,,,,,,,<p style='font-size: 30px;'><strong>Okay</strong></p>,null,neutral_feedback,1,test,48,,,,,,,,,,,,,,,,,,,,,,
,,,,,,,,,,,html-button-response,236,2.0.0,3668991,66aa67e1fb6c20fb6beae30e,3,21,,,,,,,,,,,,cycle_feedback,,,,,,,,,,,,,,,,,,,,,,,,10602.8,1674619.2
,,,,,,,,,,,html-button-response,238,2.0.0,3671562,66aa67e1fb6c20fb6beae30e,3,21,2527,,,,,,,,,,0,start_train,,,,,,,,,,,,,,,,,,,,,,,,,
,,,,,,,,,,,html-button-response,240,2.0.0,3698866,66aa67e1fb6c20fb6beae30e,3,21,27258,,,,,,,,,"<img src= ""rock_img/I_Pumice_02.jpg"" style=""width:8cm; height:7.3999999999999995cm;""><p>What type of rock is this?</p>",7,class_response,2,train,1,Pumice,Pumice,2,TRUE,8,8,,,,,,,,,,,,,,,,
,,,,,,,,,,,html-button-response,241,2.0.0,3699891,66aa67e1fb6c20fb6beae30e,3,21,979,,,,,,,,,"<img src= rock_img/I_Pumice_02.jpg style=""width:8cm; height:7.3999999999999995cm;""><p style='font-size: 30px; color: green;'><strong>Correct!</strong></p><p style='font-size: 30px;'><strong>This rock is pumice</strong></p>",0,corr_feedback,2,train,1,,,,,,,,,,,,,,,,,,,,,,
,,,,,,,,,,,html-button-response,242,2.0.0,3729039,66aa67e1fb6c20fb6beae30e,3,21,29099,,,,,,,,,"<img src= ""rock_img/I_Gabbro_05.jpg"" style=""width:8cm; height:6cm;""><p>What type of rock is this?</p>",6,class_response,2,train,2,Peridotite,Gabbro,5,FALSE,7,4,,,,,,,,,,,,,,,,
,,,,,,,,,,,html-button-response,243,2.0.0,3731617,66aa67e1fb6c20fb6beae30e,3,21,2530,,,,,,,,,"<img src= rock_img/I_Gabbro_05.jpg style=""width:8cm; height:6cm;""><p style='font-size: 30px; color: red;'><strong>Incorrect!</strong></p><p style='font-size: 30px;'><strong>This rock is gabbro</strong></p>",0,corr_feedback,2,train,2,,,,,,,,,,,,,,,,,,,,,,
,,,,,,,,,,,html-button-response,244,2.0.0,3734172,66aa67e1fb6c20fb6beae30e,3,21,2511,,,,,,,,,"<img src= ""rock_img/I_Pumice_14.jpg"" style=""width:8cm; height:6.39cm;""><p>What type of rock is this?</p>",7,class_response,2,train,3,Pumice,Pumice,14,TRUE,8,8,,,,,,,,,,,,,,,,
,,,,,,,,,,,html-button-response,245,2.0.0,3734975,66aa67e1fb6c20fb6beae30e,3,21,756,,,,,,,,,"<img src= rock_img/I_Pumice_14.jpg style=""width:8cm; height:6.39cm;""><p style='font-size: 30px; color: green;'><strong>Correct!</strong></p><p style='font-size: 30px;'><strong>This rock is pumice</strong></p>",0,corr_feedback,2,train,3,,,,,,,,,,,,,,,,,,,,,,
,,,,,,,,,,,html-button-response,246,2.0.0,3767942,66aa67e1fb6c20fb6beae30e,3,21,32916,,,,,,,,,"<img src= ""rock_img/I_Andesite_04.jpg"" style=""width:8cm; height:5.96cm;""><p>What type of rock is this?</p>",1,class_response,2,train,4,Basalt,Andesite,4,FALSE,2,1,,,,,,,,,,,,,,,,
,,,,,,,,,,,html-button-response,247,2.0.0,3769479,66aa67e1fb6c20fb6beae30e,3,21,1488,,,,,,,,,"<img src= rock_img/I_Andesite_04.jpg style=""width:8cm; height:5.96cm;""><p style='font-size: 30px; color: red;'><strong>Incorrect!</strong></p><p style='font-size: 30px;'><strong>This rock is andesite</strong></p>",0,corr_feedback,2,train,4,,,,,,,,,,,,,,,,,,,,,,
,,,,,,,,,,,html-button-response,248,2.0.0,3770640,66aa67e1fb6c20fb6beae30e,3,21,1113,,,,,,,,,"<img src= ""rock_img/I_Obsidian_04.jpg"" style=""width:8cm; height:6.930000000000001cm;""><p>What type of rock is this?</p>",4,class_response,2,train,5,Obsidian,Obsidian,4,TRUE,5,5,,,,,,,,,,,,,,,,
,,,,,,,,,,,html-button-response,249,2.0.0,3771483,66aa67e1fb6c20fb6beae30e,3,21,794,,,,,,,,,"<img src= rock_img/I_Obsidian_04.jpg style=""width:8cm; height:6.930000000000001cm;""><p style='font-size: 30px; color: green;'><strong>Correct!</strong></p><p style='font-size: 30px;'><strong>This rock is obsidian</strong></p>",0,corr_feedback,2,train,5,,,,,,,,,,,,,,,,,,,,,,
,,,,,,,,,,,html-button-response,250,2.0.0,3794057,66aa67e1fb6c20fb6beae30e,3,21,22529,,,,,,,,,"<img src= ""rock_img/I_Diorite_11.jpg"" style=""width:8cm; height:7.11cm;""><p>What type of rock is this?</p>",2,class_response,2,train,6,Diorite,Diorite,11,TRUE,3,3,,,,,,,,,,,,,,,,
,,,,,,,,,,,html-button-response,251,2.0.0,3794876,66aa67e1fb6c20fb6beae30e,3,21,772,,,,,,,,,"<img src= rock_img/I_Diorite_11.jpg style=""width:8cm; height:7.11cm;""><p style='font-size: 30px; color: green;'><strong>Correct!</strong></p><p style='font-size: 30px;'><strong>This rock is diorite</strong></p>",0,corr_feedback,2,train,6,,,,,,,,,,,,,,,,,,,,,,
,,,,,,,,,,,html-button-response,252,2.0.0,3796110,66aa67e1fb6c20fb6beae30e,3,21,1187,,,,,,,,,"<img src= ""rock_img/I_Obsidian_06.jpg"" style=""width:8cm; height:6.8cm;""><p>What type of rock is this?</p>",4,class_response,2,train,7,Obsidian,Obsidian,6,TRUE,5,5,,,,,,,,,,,,,,,,
,,,,,,,,,,,html-button-response,253,2.0.0,3796888,66aa67e1fb6c20fb6beae30e,3,21,730,,,,,,,,,"<img src= rock_img/I_Obsidian_06.jpg style=""width:8cm; height:6.8cm;""><p style='font-size: 30px; color: green;'><strong>Correct!</strong></p><p style='font-size: 30px;'><strong>This rock is obsidian</strong></p>",0,corr_feedback,2,train,7,,,,,,,,,,,,,,,,,,,,,,
,,,,,,,,,,,html-button-response,254,2.0.0,3819076,66aa67e1fb6c20fb6beae30e,3,21,22139,,,,,,,,,"<img src= ""rock_img/I_Andesite_01.jpg"" style=""width:8cm; height:5.87cm;""><p>What type of rock is this?</p>",3,class_response,2,train,8,Gabbro,Andesite,1,FALSE,4,1,,,,,,,,,,,,,,,,
,,,,,,,,,,,html-button-response,255,2.0.0,3820298,66aa67e1fb6c20fb6beae30e,3,21,1175,,,,,,,,,"<img src= rock_img/I_Andesite_01.jpg style=""width:8cm; height:5.87cm;""><p style='font-size: 30px; color: red;'><strong>Incorrect!</strong></p><p style='font-size: 30px;'><strong>This rock is andesite</strong></p>",0,corr_feedback,2,train,8,,,,,,,,,,,,,,,,,,,,,,
,,,,,,,,,,,html-button-response,256,2.0.0,3828214,66aa67e1fb6c20fb6beae30e,3,21,7868,,,,,,,,,"<img src= ""rock_img/I_Basalt_08.jpg"" style=""width:8cm; height:10.44cm;""><p>What type of rock is this?</p>",4,class_response,2,train,9,Obsidian,Basalt,8,FALSE,5,2,,,,,,,,,,,,,,,,
,,,,,,,,,,,html-button-response,257,2.0.0,3829291,66aa67e1fb6c20fb6beae30e,3,21,1032,,,,,,,,,"<img src= rock_img/I_Basalt_08.jpg style=""width:8cm; height:10.44cm;""><p style='font-size: 30px; color: red;'><strong>Incorrect!</strong></p><p style='font-size: 30px;'><strong>This rock is basalt</strong></p>",0,corr_feedback,2,train,9,,,,,,,,,,,,,,,,,,,,,,
,,,,,,,,,,,html-button-response,258,2.0.0,3831799,66aa67e1fb6c20fb6beae30e,3,21,2462,,,,,,,,,"<img src= ""rock_img/I_Pegmatite_10.jpg"" style=""width:8cm; height:4.16cm;""><p>What type of rock is this?</p>",5,class_response,2,train,10,Pegmatite,Pegmatite,10,TRUE,6,6,,,,,,,,,,,,,,,,
,,,,,,,,,,,html-button-response,259,2.0.0,3832533,66aa67e1fb6c20fb6beae30e,3,21,690,,,,,,,,,"<img src= rock_img/I_Pegmatite_10.jpg style=""width:8cm; height:4.16cm;""><p style='font-size: 30px; color: green;'><strong>Correct!</strong></p><p style='font-size: 30px;'><strong>This rock is pegmatite</strong></p>",0,corr_feedback,2,train,10,,,,,,,,,,,,,,,,,,,,,,
,,,,,,,,,,,html-button-response,260,2.0.0,3833995,66aa67e1fb6c20fb6beae30e,3,21,1417,,,,,,,,,"<img src= ""rock_img/I_Peridotite_02.jpg"" style=""width:8cm; height:5.859999999999999cm;""><p>What type of rock is this?</p>",6,class_response,2,train,11,Peridotite,Peridotite,2,TRUE,7,7,,,,,,,,,,,,,,,,
,,,,,,,,,,,html-button-response,261,2.0.0,3834732,66aa67e1fb6c20fb6beae30e,3,21,690,,,,,,,,,"<img src= rock_img/I_Peridotite_02.jpg style=""width:8cm; height:5.859999999999999cm;""><p style='font-size: 30px; color: green;'><strong>Correct!</strong></p><p style='font-size: 30px;'><strong>This rock is peridotite</strong></p>",0,corr_feedback,2,train,11,,,,,,,,,,,,,,,,,,,,,,
,,,,,,,,,,,html-button-response,262,2.0.0,3841303,66aa67e1fb6c20fb6beae30e,3,21,6523,,,,,,,,,"<img src= ""rock_img/I_Basalt_04.jpg"" style=""width:8cm; height:7.53cm;""><p>What type of rock is this?</p>",3,class_response,2,train,12,Gabbro,Basalt,4,FALSE,4,2,,,,,,,,,,,,,,,,
,,,,,,,,,,,html-button-response,263,2.0.0,3842688,66aa67e1fb6c20fb6beae30e,3,21,1338,,,,,,,,,"<img src= rock_img/I_Basalt_04.jpg style=""width:8cm; height:7.53cm;""><p style='font-size: 30px; color: red;'><strong>Incorrect!</strong></p><p style='font-size: 30px;'><strong>This rock is basalt</strong></p>",0,corr_feedback,2,train,12,,,,,,,,,,,,,,,,,,,,,,
,,,,,,,,,,,html-button-response,265,2.0.0,3844560,66aa67e1fb6c20fb6beae30e,3,21,1823,,,,,,,,,,0,start_train,,,,,,,,,,,,,,,,,,,,,,,,,
,,,,,,,,,,,html-button-response,266,2.0.0,3846255,66aa67e1fb6c20fb6beae30e,3,21,,,,,,,,,,,,cat_selection,2,train,1,,,,,,,6,7,1669,Pegmatite,Peridotite,"[0.13764061458378776,0.15567760087853233,0.15567760087853233,0.14858059978036692,0.04361269901165112,0.13054361348562235,0.19559455756643523,0.03267271381507196]","[0.025130863873099835,0.08558849516620277,0.20096008575875757,0.0921028888561968,0.42720117358392473,null,0.086849699331774,0.08216679343004431]",,,,,,,,,
,,,,,,,,,,,paired-cat-display,267,1.0.0,3907797,66aa67e1fb6c20fb6beae30e,3,21,,,,,,,,,,,,paired_cat_display,2,train,1,,,,,,,,,5666.6,,,,,,,55835.8,"large and visible crystals, light coloured minerals grained.",green grained dense rocks,,,,
,,,,,,,,,,,html-button-response,268,2.0.0,3909319,66aa67e1fb6c20fb6beae30e,3,21,,,,,,,,,,,,cat_selection,2,train,2,,,,,,,3,4,1482.9,Diorite,Gabbro,"[0.13764061458378776,0.15567760087853233,0.15567760087853233,0.14858059978036692,0.04361269901165112,0.13054361348562235,0.19559455756643523,0.03267271381507196]","[0.12587675735948267,0.10116212244392025,null,0.2099248538565305,0.029067196913261206,0.13316394985036573,0.30465702062251515,0.09614809895392457]",,,,,,,,,
,,,,,,,,,,,paired-cat-display,269,1.0.0,3972883,66aa67e1fb6c20fb6beae30e,3,21,,,,,,,,,,,,paired_cat_display,2,train,2,,,,,,,,,15945.3,,,,,"salt like appearance, mixture of black white and little brown",grained dark colour,47577.8,,,,,,
,,,,,,,,,,,html-button-response,270,2.0.0,3974772,66aa67e1fb6c20fb6beae30e,3,21,,,,,,,,,,,,cat_selection,2,train,3,,,,,,,3,7,1850.7,Diorite,Peridotite,"[0.13764061458378776,0.15567760087853233,0.15567760087853233,0.14858059978036692,0.04361269901165112,0.13054361348562235,0.19559455756643523,0.03267271381507196]","[0.12587675735948267,0.10116212244392025,null,0.2099248538565305,0.029067196913261206,0.13316394985036573,0.30465702062251515,0.09614809895392457]",,,,,,,,,
,,,,,,,,,,,paired-cat-display,271,1.0.0,4029010,66aa67e1fb6c20fb6beae30e,3,21,,,,,,,,,,,,paired_cat_display,2,train,3,,,,,,,,,5869.7,,,,,"salt  appearance, white and black minerals",,48328,,grained greenish drak and igneous rock,,,,
,,,,,,,,,,,html-button-response,273,2.0.0,4032769,66aa67e1fb6c20fb6beae30e,3,21,3703,,,,,,,,,,0,start_test,,,,,,,,,,,,,,,,,,,,,,,,,
,,,,,,,,,,,html-button-response,274,2.0.0,4034404,66aa67e1fb6c20fb6beae30e,3,21,1587,,,,,,,,,"<img src= ""rock_img/I_Obsidian_14.jpg"" style=""width:8cm; height:7.64cm;""><p>What type of rock is this?</p>",4,class_response,2,test,1,Obsidian,Obsidian,14,TRUE,5,5,,,,,,,,,,,,,,,,
,,,,,,,,,,,html-keyboard-response,275,2.0.0,4034928,66aa67e1fb6c20fb6beae30e,3,21,null,,,,,,,,,<p style='font-size: 30px;'><strong>Okay</strong></p>,null,neutral_feedback,2,test,1,,,,,,,,,,,,,,,,,,,,,,
,,,,,,,,,,,html-button-response,276,2.0.0,4072721,66aa67e1fb6c20fb6beae30e,3,21,37771,,,,,,,,,"<img src= ""rock_img/I_Peridotite_04.jpg"" style=""width:8cm; height:6.680000000000001cm;""><p>What type of rock is this?</p>",6,class_response,2,test,2,Peridotite,Peridotite,4,TRUE,7,7,,,,,,,,,,,,,,,,
,,,,,,,,,,,html-keyboard-response,277,2.0.0,4073246,66aa67e1fb6c20fb6beae30e,3,21,null,,,,,,,,,<p style='font-size: 30px;'><strong>Okay</strong></p>,null,neutral_feedback,2,test,2,,,,,,,,,,,,,,,,,,,,,,
,,,,,,,,,,,html-button-response,278,2.0.0,4085301,66aa67e1fb6c20fb6beae30e,3,21,12030,,,,,,,,,"<img src= ""rock_img/I_Pegmatite_09.jpg"" style=""width:8cm; height:4.03cm;""><p>What type of rock is this?</p>",5,class_response,2,test,3,Pegmatite,Pegmatite,9,TRUE,6,6,,,,,,,,,,,,,,,,
,,,,,,,,,,,html-keyboard-response,279,2.0.0,4085828,66aa67e1fb6c20fb6beae30e,3,21,null,,,,,,,,,<p style='font-size: 30px;'><strong>Okay</strong></p>,null,neutral_feedback,2,test,3,,,,,,,,,,,,,,,,,,,,,,
,,,,,,,,,,,html-button-response,280,2.0.0,4087103,66aa67e1fb6c20fb6beae30e,3,21,1249,,,,,,,,,"<img src= ""rock_img/I_Pumice_10.jpg"" style=""width:8cm; height:7.609999999999999cm;""><p>What type of rock is this?</p>",7,class_response,2,test,4,Pumice,Pumice,10,TRUE,8,8,,,,,,,,,,,,,,,,
,,,,,,,,,,,html-keyboard-response,281,2.0.0,4087631,66aa67e1fb6c20fb6beae30e,3,21,null,,,,,,,,,<p style='font-size: 30px;'><strong>Okay</strong></p>,null,neutral_feedback,2,test,4,,,,,,,,,,,,,,,,,,,,,,
,,,,,,,,,,,html-button-response,282,2.0.0,4088778,66aa67e1fb6c20fb6beae30e,3,21,1120,,,,,,,,,"<img src= ""rock_img/I_Pumice_13.jpg"" style=""width:8cm; height:8.200000000000001cm;""><p>What type of rock is this?</p>",7,class_response,2,test,5,Pumice,Pumice,13,TRUE,8,8,,,,,,,,,,,,,,,,
,,,,,,,,,,,html-keyboard-response,283,2.0.0,4089305,66aa67e1fb6c20fb6beae30e,3,21,null,,,,,,,,,<p style='font-size: 30px;'><strong>Okay</strong></p>,null,neutral_feedback,2,test,5,,,,,,,,,,,,,,,,,,,,,,
,,,,,,,,,,,html-button-response,284,2.0.0,4090476,66aa67e1fb6c20fb6beae30e,3,21,1145,,,,,,,,,"<img src= ""rock_img/I_Obsidian_02.jpg"" style=""width:8cm; height:7.51cm;""><p>What type of rock is this?</p>",4,class_response,2,test,6,Obsidian,Obsidian,2,TRUE,5,5,,,,,,,,,,,,,,,,
,,,,,,,,,,,html-keyboard-response,285,2.0.0,4091002,66aa67e1fb6c20fb6beae30e,3,21,null,,,,,,,,,<p style='font-size: 30px;'><strong>Okay</strong></p>,null,neutral_feedback,2,test,6,,,,,,,,,,,,,,,,,,,,,,
,,,,,,,,,,,html-button-response,286,2.0.0,4092607,66aa67e1fb6c20fb6beae30e,3,21,1579,,,,,,,,,"<img src= ""rock_img/I_Pumice_16.jpg"" style=""width:8cm; height:6.79cm;""><p>What type of rock is this?</p>",7,class_response,2,test,7,Pumice,Pumice,16,TRUE,8,8,,,,,,,,,,,,,,,,
,,,,,,,,,,,html-keyboard-response,287,2.0.0,4093133,66aa67e1fb6c20fb6beae30e,3,21,null,,,,,,,,,<p style='font-size: 30px;'><strong>Okay</strong></p>,null,neutral_feedback,2,test,7,,,,,,,,,,,,,,,,,,,,,,
,,,,,,,,,,,html-button-response,288,2.0.0,4095752,66aa67e1fb6c20fb6beae30e,3,21,2596,,,,,,,,,"<img src= ""rock_img/I_Basalt_05.jpg"" style=""width:8cm; height:8.18cm;""><p>What type of rock is this?</p>",1,class_response,2,test,8,Basalt,Basalt,5,TRUE,2,2,,,,,,,,,,,,,,,,
,,,,,,,,,,,html-keyboard-response,289,2.0.0,4096278,66aa67e1fb6c20fb6beae30e,3,21,null,,,,,,,,,<p style='font-size: 30px;'><strong>Okay</strong></p>,null,neutral_feedback,2,test,8,,,,,,,,,,,,,,,,,,,,,,
,,,,,,,,,,,html-button-response,290,2.0.0,4097590,66aa67e1fb6c20fb6beae30e,3,21,1286,,,,,,,,,"<img src= ""rock_img/I_Obsidian_08.jpg"" style=""width:8cm; height:7.39cm;""><p>What type of rock is this?</p>",4,class_response,2,test,9,Obsidian,Obsidian,8,TRUE,5,5,,,,,,,,,,,,,,,,
,,,,,,,,,,,html-keyboard-response,291,2.0.0,4098117,66aa67e1fb6c20fb6beae30e,3,21,null,,,,,,,,,<p style='font-size: 30px;'><strong>Okay</strong></p>,null,neutral_feedback,2,test,9,,,,,,,,,,,,,,,,,,,,,,
,,,,,,,,,,,html-button-response,292,2.0.0,4099736,66aa67e1fb6c20fb6beae30e,3,21,1595,,,,,,,,,"<img src= ""rock_img/I_Obsidian_07.jpg"" style=""width:8cm; height:4.76cm;""><p>What type of rock is this?</p>",4,class_response,2,test,10,Obsidian,Obsidian,7,TRUE,5,5,,,,,,,,,,,,,,,,
,,,,,,,,,,,html-keyboard-response,293,2.0.0,4100264,66aa67e1fb6c20fb6beae30e,3,21,null,,,,,,,,,<p style='font-size: 30px;'><strong>Okay</strong></p>,null,neutral_feedback,2,test,10,,,,,,,,,,,,,,,,,,,,,,
,,,,,,,,,,,html-button-response,294,2.0.0,4108372,66aa67e1fb6c20fb6beae30e,3,21,8082,,,,,,,,,"<img src= ""rock_img/I_Peridotite_12.jpg"" style=""width:8cm; height:4.54cm;""><p>What type of rock is this?</p>",5,class_response,2,test,11,Pegmatite,Peridotite,12,FALSE,6,7,,,,,,,,,,,,,,,,
,,,,,,,,,,,html-keyboard-response,295,2.0.0,4108899,66aa67e1fb6c20fb6beae30e,3,21,null,,,,,,,,,<p style='font-size: 30px;'><strong>Okay</strong></p>,null,neutral_feedback,2,test,11,,,,,,,,,,,,,,,,,,,,,,
,,,,,,,,,,,html-button-response,296,2.0.0,4112256,66aa67e1fb6c20fb6beae30e,3,21,3332,,,,,,,,,"<img src= ""rock_img/I_Andesite_14.jpg"" style=""width:8cm; height:5.449999999999999cm;""><p>What type of rock is this?</p>",0,class_response,2,test,12,Andesite,Andesite,14,TRUE,1,1,,,,,,,,,,,,,,,,
,,,,,,,,,,,html-keyboard-response,297,2.0.0,4112782,66aa67e1fb6c20fb6beae30e,3,21,null,,,,,,,,,<p style='font-size: 30px;'><strong>Okay</strong></p>,null,neutral_feedback,2,test,12,,,,,,,,,,,,,,,,,,,,,,
,,,,,,,,,,,html-button-response,298,2.0.0,4115061,66aa67e1fb6c20fb6beae30e,3,21,2253,,,,,,,,,"<img src= ""rock_img/I_Basalt_10.jpg"" style=""width:8cm; height:5.85cm;""><p>What type of rock is this?</p>",4,class_response,2,test,13,Obsidian,Basalt,10,FALSE,5,2,,,,,,,,,,,,,,,,
,,,,,,,,,,,html-keyboard-response,299,2.0.0,4115588,66aa67e1fb6c20fb6beae30e,3,21,null,,,,,,,,,<p style='font-size: 30px;'><strong>Okay</strong></p>,null,neutral_feedback,2,test,13,,,,,,,,,,,,,,,,,,,,,,
,,,,,,,,,,,html-button-response,300,2.0.0,4126467,66aa67e1fb6c20fb6beae30e,3,21,10855,,,,,,,,,"<img src= ""rock_img/I_Andesite_02.jpg"" style=""width:8cm; height:8.5cm;""><p>What type of rock is this?</p>",0,class_response,2,test,14,Andesite,Andesite,2,TRUE,1,1,,,,,,,,,,,,,,,,
,,,,,,,,,,,html-keyboard-response,301,2.0.0,4126992,66aa67e1fb6c20fb6beae30e,3,21,null,,,,,,,,,<p style='font-size: 30px;'><strong>Okay</strong></p>,null,neutral_feedback,2,test,14,,,,,,,,,,,,,,,,,,,,,,
,,,,,,,,,,,html-button-response,302,2.0.0,4131995,66aa67e1fb6c20fb6beae30e,3,21,4978,,,,,,,,,"<img src= ""rock_img/I_Gabbro_08.jpg"" style=""width:8cm; height:5.15cm;""><p>What type of rock is this?</p>",3,class_response,2,test,15,Gabbro,Gabbro,8,TRUE,4,4,,,,,,,,,,,,,,,,
,,,,,,,,,,,html-keyboard-response,303,2.0.0,4132522,66aa67e1fb6c20fb6beae30e,3,21,null,,,,,,,,,<p style='font-size: 30px;'><strong>Okay</strong></p>,null,neutral_feedback,2,test,15,,,,,,,,,,,,,,,,,,,,,,
,,,,,,,,,,,html-button-response,304,2.0.0,4134687,66aa67e1fb6c20fb6beae30e,3,21,2141,,,,,,,,,"<img src= ""rock_img/I_Andesite_06.jpg"" style=""width:8cm; height:6.840000000000001cm;""><p>What type of rock is this?</p>",3,class_response,2,test,16,Gabbro,Andesite,6,FALSE,4,1,,,,,,,,,,,,,,,,
,,,,,,,,,,,html-keyboard-response,305,2.0.0,4135214,66aa67e1fb6c20fb6beae30e,3,21,null,,,,,,,,,<p style='font-size: 30px;'><strong>Okay</strong></p>,null,neutral_feedback,2,test,16,,,,,,,,,,,,,,,,,,,,,,
,,,,,,,,,,,html-button-response,306,2.0.0,4136416,66aa67e1fb6c20fb6beae30e,3,21,1179,,,,,,,,,"<img src= ""rock_img/I_Gabbro_03.jpg"" style=""width:8cm; height:8.52cm;""><p>What type of rock is this?</p>",3,class_response,2,test,17,Gabbro,Gabbro,3,TRUE,4,4,,,,,,,,,,,,,,,,
,,,,,,,,,,,html-keyboard-response,307,2.0.0,4136943,66aa67e1fb6c20fb6beae30e,3,21,null,,,,,,,,,<p style='font-size: 30px;'><strong>Okay</strong></p>,null,neutral_feedback,2,test,17,,,,,,,,,,,,,,,,,,,,,,
,,,,,,,,,,,html-button-response,308,2.0.0,4144614,66aa67e1fb6c20fb6beae30e,3,21,7646,,,,,,,,,"<img src= ""rock_img/I_Basalt_09.jpg"" style=""width:8cm; height:6.2cm;""><p>What type of rock is this?</p>",3,class_response,2,test,18,Gabbro,Basalt,9,FALSE,4,2,,,,,,,,,,,,,,,,
,,,,,,,,,,,html-keyboard-response,309,2.0.0,4145141,66aa67e1fb6c20fb6beae30e,3,21,null,,,,,,,,,<p style='font-size: 30px;'><strong>Okay</strong></p>,null,neutral_feedback,2,test,18,,,,,,,,,,,,,,,,,,,,,,
,,,,,,,,,,,html-button-response,310,2.0.0,4146705,66aa67e1fb6c20fb6beae30e,3,21,1537,,,,,,,,,"<img src= ""rock_img/I_Gabbro_13.jpg"" style=""width:8cm; height:5.08cm;""><p>What type of rock is this?</p>",0,class_response,2,test,19,Andesite,Gabbro,13,FALSE,1,4,,,,,,,,,,,,,,,,
,,,,,,,,,,,html-keyboard-response,311,2.0.0,4147232,66aa67e1fb6c20fb6beae30e,3,21,null,,,,,,,,,<p style='font-size: 30px;'><strong>Okay</strong></p>,null,neutral_feedback,2,test,19,,,,,,,,,,,,,,,,,,,,,,
,,,,,,,,,,,html-button-response,312,2.0.0,4149388,66aa67e1fb6c20fb6beae30e,3,21,2131,,,,,,,,,"<img src= ""rock_img/I_Basalt_16.jpg"" style=""width:8cm; height:7.659999999999999cm;""><p>What type of rock is this?</p>",7,class_response,2,test,20,Pumice,Basalt,16,FALSE,8,2,,,,,,,,,,,,,,,,
,,,,,,,,,,,html-keyboard-response,313,2.0.0,4149916,66aa67e1fb6c20fb6beae30e,3,21,null,,,,,,,,,<p style='font-size: 30px;'><strong>Okay</strong></p>,null,neutral_feedback,2,test,20,,,,,,,,,,,,,,,,,,,,,,
,,,,,,,,,,,html-button-response,314,2.0.0,4152930,66aa67e1fb6c20fb6beae30e,3,21,2987,,,,,,,,,"<img src= ""rock_img/I_Andesite_09.jpg"" style=""width:8cm; height:6cm;""><p>What type of rock is this?</p>",3,class_response,2,test,21,Gabbro,Andesite,9,FALSE,4,1,,,,,,,,,,,,,,,,
,,,,,,,,,,,html-keyboard-response,315,2.0.0,4153456,66aa67e1fb6c20fb6beae30e,3,21,null,,,,,,,,,<p style='font-size: 30px;'><strong>Okay</strong></p>,null,neutral_feedback,2,test,21,,,,,,,,,,,,,,,,,,,,,,
,,,,,,,,,,,html-button-response,316,2.0.0,4155838,66aa67e1fb6c20fb6beae30e,3,21,2356,,,,,,,,,"<img src= ""rock_img/I_Peridotite_05.jpg"" style=""width:8cm; height:7.1499999999999995cm;""><p>What type of rock is this?</p>",6,class_response,2,test,22,Peridotite,Peridotite,5,TRUE,7,7,,,,,,,,,,,,,,,,
,,,,,,,,,,,html-keyboard-response,317,2.0.0,4156367,66aa67e1fb6c20fb6beae30e,3,21,null,,,,,,,,,<p style='font-size: 30px;'><strong>Okay</strong></p>,null,neutral_feedback,2,test,22,,,,,,,,,,,,,,,,,,,,,,
,,,,,,,,,,,html-button-response,318,2.0.0,4157973,66aa67e1fb6c20fb6beae30e,3,21,1584,,,,,,,,,"<img src= ""rock_img/I_Peridotite_16.jpg"" style=""width:8cm; height:6.989999999999999cm;""><p>What type of rock is this?</p>",5,class_response,2,test,23,Pegmatite,Peridotite,16,FALSE,6,7,,,,,,,,,,,,,,,,
,,,,,,,,,,,html-keyboard-response,319,2.0.0,4158498,66aa67e1fb6c20fb6beae30e,3,21,null,,,,,,,,,<p style='font-size: 30px;'><strong>Okay</strong></p>,null,neutral_feedback,2,test,23,,,,,,,,,,,,,,,,,,,,,,
,,,,,,,,,,,html-button-response,320,2.0.0,4159644,66aa67e1fb6c20fb6beae30e,3,21,1120,,,,,,,,,"<img src= ""rock_img/I_Pumice_09.jpg"" style=""width:8cm; height:6.44cm;""><p>What type of rock is this?</p>",7,class_response,2,test,24,Pumice,Pumice,9,TRUE,8,8,,,,,,,,,,,,,,,,
,,,,,,,,,,,html-keyboard-response,321,2.0.0,4160172,66aa67e1fb6c20fb6beae30e,3,21,null,,,,,,,,,<p style='font-size: 30px;'><strong>Okay</strong></p>,null,neutral_feedback,2,test,24,,,,,,,,,,,,,,,,,,,,,,
,,,,,,,,,,,html-button-response,322,2.0.0,4163049,66aa67e1fb6c20fb6beae30e,3,21,2850,,,,,,,,,"<img src= ""rock_img/I_Pegmatite_06.jpg"" style=""width:8cm; height:5.17cm;""><p>What type of rock is this?</p>",2,class_response,2,test,25,Diorite,Pegmatite,6,FALSE,3,6,,,,,,,,,,,,,,,,
,,,,,,,,,,,html-keyboard-response,323,2.0.0,4163576,66aa67e1fb6c20fb6beae30e,3,21,null,,,,,,,,,<p style='font-size: 30px;'><strong>Okay</strong></p>,null,neutral_feedback,2,test,25,,,,,,,,,,,,,,,,,,,,,,
,,,,,,,,,,,html-button-response,324,2.0.0,4166829,66aa67e1fb6c20fb6beae30e,3,21,3227,,,,,,,,,"<img src= ""rock_img/I_Diorite_12.jpg"" style=""width:8cm; height:4.88cm;""><p>What type of rock is this?</p>",5,class_response,2,test,26,Pegmatite,Diorite,12,FALSE,6,3,,,,,,,,,,,,,,,,
,,,,,,,,,,,html-keyboard-response,325,2.0.0,4167357,66aa67e1fb6c20fb6beae30e,3,21,null,,,,,,,,,<p style='font-size: 30px;'><strong>Okay</strong></p>,null,neutral_feedback,2,test,26,,,,,,,,,,,,,,,,,,,,,,
,,,,,,,,,,,html-button-response,326,2.0.0,4168439,66aa67e1fb6c20fb6beae30e,3,21,1057,,,,,,,,,"<img src= ""rock_img/I_Peridotite_06.jpg"" style=""width:8cm; height:7.53cm;""><p>What type of rock is this?</p>",5,class_response,2,test,27,Pegmatite,Peridotite,6,FALSE,6,7,,,,,,,,,,,,,,,,
,,,,,,,,,,,html-keyboard-response,327,2.0.0,4168966,66aa67e1fb6c20fb6beae30e,3,21,null,,,,,,,,,<p style='font-size: 30px;'><strong>Okay</strong></p>,null,neutral_feedback,2,test,27,,,,,,,,,,,,,,,,,,,,,,
,,,,,,,,,,,html-button-response,328,2.0.0,4172305,66aa67e1fb6c20fb6beae30e,3,21,3314,,,,,,,,,"<img src= ""rock_img/I_Diorite_16.jpg"" style=""width:8cm; height:6.74cm;""><p>What type of rock is this?</p>",2,class_response,2,test,28,Diorite,Diorite,16,TRUE,3,3,,,,,,,,,,,,,,,,
,,,,,,,,,,,html-keyboard-response,329,2.0.0,4172832,66aa67e1fb6c20fb6beae30e,3,21,null,,,,,,,,,<p style='font-size: 30px;'><strong>Okay</strong></p>,null,neutral_feedback,2,test,28,,,,,,,,,,,,,,,,,,,,,,
,,,,,,,,,,,html-button-response,330,2.0.0,4178353,66aa67e1fb6c20fb6beae30e,3,21,5498,,,,,,,,,"<img src= ""rock_img/I_Diorite_06.jpg"" style=""width:8cm; height:6.03cm;""><p>What type of rock is this?</p>",0,class_response,2,test,29,Andesite,Diorite,6,FALSE,1,3,,,,,,,,,,,,,,,,
,,,,,,,,,,,html-keyboard-response,331,2.0.0,4178879,66aa67e1fb6c20fb6beae30e,3,21,null,,,,,,,,,<p style='font-size: 30px;'><strong>Okay</strong></p>,null,neutral_feedback,2,test,29,,,,,,,,,,,,,,,,,,,,,,
,,,,,,,,,,,html-button-response,332,2.0.0,4180080,66aa67e1fb6c20fb6beae30e,3,21,1175,,,,,,,,,"<img src= ""rock_img/I_Obsidian_12.jpg"" style=""width:8cm; height:6.53cm;""><p>What type of rock is this?</p>",4,class_response,2,test,30,Obsidian,Obsidian,12,TRUE,5,5,,,,,,,,,,,,,,,,
,,,,,,,,,,,html-keyboard-response,333,2.0.0,4180606,66aa67e1fb6c20fb6beae30e,3,21,null,,,,,,,,,<p style='font-size: 30px;'><strong>Okay</strong></p>,null,neutral_feedback,2,test,30,,,,,,,,,,,,,,,,,,,,,,
,,,,,,,,,,,html-button-response,334,2.0.0,4182368,66aa67e1fb6c20fb6beae30e,3,21,1739,,,,,,,,,"<img src= ""rock_img/I_Diorite_07.jpg"" style=""width:8cm; height:5.239999999999999cm;""><p>What type of rock is this?</p>",2,class_response,2,test,31,Diorite,Diorite,7,TRUE,3,3,,,,,,,,,,,,,,,,
,,,,,,,,,,,html-keyboard-response,335,2.0.0,4182893,66aa67e1fb6c20fb6beae30e,3,21,null,,,,,,,,,<p style='font-size: 30px;'><strong>Okay</strong></p>,null,neutral_feedback,2,test,31,,,,,,,,,,,,,,,,,,,,,,
,,,,,,,,,,,html-button-response,336,2.0.0,4196876,66aa67e1fb6c20fb6beae30e,3,21,13955,,,,,,,,,"<img src= ""rock_img/I_Andesite_03.jpg"" style=""width:8cm; height:5.73cm;""><p>What type of rock is this?</p>",3,class_response,2,test,32,Gabbro,Andesite,3,FALSE,4,1,,,,,,,,,,,,,,,,
,,,,,,,,,,,html-keyboard-response,337,2.0.0,4197403,66aa67e1fb6c20fb6beae30e,3,21,null,,,,,,,,,<p style='font-size: 30px;'><strong>Okay</strong></p>,null,neutral_feedback,2,test,32,,,,,,,,,,,,,,,,,,,,,,
,,,,,,,,,,,html-button-response,338,2.0.0,4233060,66aa67e1fb6c20fb6beae30e,3,21,35632,,,,,,,,,"<img src= ""rock_img/I_Gabbro_15.jpg"" style=""width:8cm; height:6.29cm;""><p>What type of rock is this?</p>",0,class_response,2,test,33,Andesite,Gabbro,15,FALSE,1,4,,,,,,,,,,,,,,,,
,,,,,,,,,,,html-keyboard-response,339,2.0.0,4233586,66aa67e1fb6c20fb6beae30e,3,21,null,,,,,,,,,<p style='font-size: 30px;'><strong>Okay</strong></p>,null,neutral_feedback,2,test,33,,,,,,,,,,,,,,,,,,,,,,
,,,,,,,,,,,html-button-response,340,2.0.0,4234748,66aa67e1fb6c20fb6beae30e,3,21,1138,,,,,,,,,"<img src= ""rock_img/I_Pumice_03.jpg"" style=""width:8cm; height:6.64cm;""><p>What type of rock is this?</p>",7,class_response,2,test,34,Pumice,Pumice,3,TRUE,8,8,,,,,,,,,,,,,,,,
,,,,,,,,,,,html-keyboard-response,341,2.0.0,4235274,66aa67e1fb6c20fb6beae30e,3,21,null,,,,,,,,,<p style='font-size: 30px;'><strong>Okay</strong></p>,null,neutral_feedback,2,test,34,,,,,,,,,,,,,,,,,,,,,,
,,,,,,,,,,,html-button-response,342,2.0.0,4236543,66aa67e1fb6c20fb6beae30e,3,21,1245,,,,,,,,,"<img src= ""rock_img/I_Obsidian_16.jpg"" style=""width:8cm; height:9.3cm;""><p>What type of rock is this?</p>",4,class_response,2,test,35,Obsidian,Obsidian,16,TRUE,5,5,,,,,,,,,,,,,,,,
,,,,,,,,,,,html-keyboard-response,343,2.0.0,4237069,66aa67e1fb6c20fb6beae30e,3,21,null,,,,,,,,,<p style='font-size: 30px;'><strong>Okay</strong></p>,null,neutral_feedback,2,test,35,,,,,,,,,,,,,,,,,,,,,,
,,,,,,,,,,,html-button-response,344,2.0.0,4238714,66aa67e1fb6c20fb6beae30e,3,21,1620,,,,,,,,,"<img src= ""rock_img/I_Pegmatite_07.jpg"" style=""width:8cm; height:6.7cm;""><p>What type of rock is this?</p>",5,class_response,2,test,36,Pegmatite,Pegmatite,7,TRUE,6,6,,,,,,,,,,,,,,,,
,,,,,,,,,,,html-keyboard-response,345,2.0.0,4239240,66aa67e1fb6c20fb6beae30e,3,21,null,,,,,,,,,<p style='font-size: 30px;'><strong>Okay</strong></p>,null,neutral_feedback,2,test,36,,,,,,,,,,,,,,,,,,,,,,
,,,,,,,,,,,html-button-response,346,2.0.0,4254144,66aa67e1fb6c20fb6beae30e,3,21,14877,,,,,,,,,"<img src= ""rock_img/I_Diorite_10.jpg"" style=""width:8cm; height:5.949999999999999cm;""><p>What type of rock is this?</p>",0,class_response,2,test,37,Andesite,Diorite,10,FALSE,1,3,,,,,,,,,,,,,,,,
,,,,,,,,,,,html-keyboard-response,347,2.0.0,4254673,66aa67e1fb6c20fb6beae30e,3,21,null,,,,,,,,,<p style='font-size: 30px;'><strong>Okay</strong></p>,null,neutral_feedback,2,test,37,,,,,,,,,,,,,,,,,,,,,,
,,,,,,,,,,,html-button-response,348,2.0.0,4256199,66aa67e1fb6c20fb6beae30e,3,21,1503,,,,,,,,,"<img src= ""rock_img/I_Basalt_12.jpg"" style=""width:8cm; height:6.010000000000001cm;""><p>What type of rock is this?</p>",0,class_response,2,test,38,Andesite,Basalt,12,FALSE,1,2,,,,,,,,,,,,,,,,
,,,,,,,,,,,html-keyboard-response,349,2.0.0,4256723,66aa67e1fb6c20fb6beae30e,3,21,null,,,,,,,,,<p style='font-size: 30px;'><strong>Okay</strong></p>,null,neutral_feedback,2,test,38,,,,,,,,,,,,,,,,,,,,,,
,,,,,,,,,,,html-button-response,350,2.0.0,4260231,66aa67e1fb6c20fb6beae30e,3,21,3483,,,,,,,,,"<img src= ""rock_img/I_Gabbro_10.jpg"" style=""width:8cm; height:5.680000000000001cm;""><p>What type of rock is this?</p>",3,class_response,2,test,39,Gabbro,Gabbro,10,TRUE,4,4,,,,,,,,,,,,,,,,
,,,,,,,,,,,html-keyboard-response,351,2.0.0,4260757,66aa67e1fb6c20fb6beae30e,3,21,null,,,,,,,,,<p style='font-size: 30px;'><strong>Okay</strong></p>,null,neutral_feedback,2,test,39,,,,,,,,,,,,,,,,,,,,,,
,,,,,,,,,,,html-button-response,352,2.0.0,4261959,66aa67e1fb6c20fb6beae30e,3,21,1180,,,,,,,,,"<img src= ""rock_img/I_Basalt_02.jpg"" style=""width:8cm; height:6.45cm;""><p>What type of rock is this?</p>",3,class_response,2,test,40,Gabbro,Basalt,2,FALSE,4,2,,,,,,,,,,,,,,,,
,,,,,,,,,,,html-keyboard-response,353,2.0.0,4262485,66aa67e1fb6c20fb6beae30e,3,21,null,,,,,,,,,<p style='font-size: 30px;'><strong>Okay</strong></p>,null,neutral_feedback,2,test,40,,,,,,,,,,,,,,,,,,,,,,
,,,,,,,,,,,html-button-response,354,2.0.0,4264717,66aa67e1fb6c20fb6beae30e,3,21,2207,,,,,,,,,"<img src= ""rock_img/I_Peridotite_07.jpg"" style=""width:8cm; height:4.83cm;""><p>What type of rock is this?</p>",6,class_response,2,test,41,Peridotite,Peridotite,7,TRUE,7,7,,,,,,,,,,,,,,,,
,,,,,,,,,,,html-keyboard-response,355,2.0.0,4265245,66aa67e1fb6c20fb6beae30e,3,21,null,,,,,,,,,<p style='font-size: 30px;'><strong>Okay</strong></p>,null,neutral_feedback,2,test,41,,,,,,,,,,,,,,,,,,,,,,
,,,,,,,,,,,html-button-response,356,2.0.0,4267000,66aa67e1fb6c20fb6beae30e,3,21,1730,,,,,,,,,"<img src= ""rock_img/I_Diorite_02.jpg"" style=""width:8cm; height:6.27cm;""><p>What type of rock is this?</p>",2,class_response,2,test,42,Diorite,Diorite,2,TRUE,3,3,,,,,,,,,,,,,,,,
,,,,,,,,,,,html-keyboard-response,357,2.0.0,4267526,66aa67e1fb6c20fb6beae30e,3,21,null,,,,,,,,,<p style='font-size: 30px;'><strong>Okay</strong></p>,null,neutral_feedback,2,test,42,,,,,,,,,,,,,,,,,,,,,,
,,,,,,,,,,,html-button-response,358,2.0.0,4268883,66aa67e1fb6c20fb6beae30e,3,21,1332,,,,,,,,,"<img src= ""rock_img/I_Pegmatite_16.jpg"" style=""width:8cm; height:5.8cm;""><p>What type of rock is this?</p>",5,class_response,2,test,43,Pegmatite,Pegmatite,16,TRUE,6,6,,,,,,,,,,,,,,,,
,,,,,,,,,,,html-keyboard-response,359,2.0.0,4269410,66aa67e1fb6c20fb6beae30e,3,21,null,,,,,,,,,<p style='font-size: 30px;'><strong>Okay</strong></p>,null,neutral_feedback,2,test,43,,,,,,,,,,,,,,,,,,,,,,
,,,,,,,,,,,html-button-response,360,2.0.0,4271038,66aa67e1fb6c20fb6beae30e,3,21,1602,,,,,,,,,"<img src= ""rock_img/I_Pumice_08.jpg"" style=""width:8cm; height:6.67cm;""><p>What type of rock is this?</p>",7,class_response,2,test,44,Pumice,Pumice,8,TRUE,8,8,,,,,,,,,,,,,,,,
,,,,,,,,,,,html-keyboard-response,361,2.0.0,4271566,66aa67e1fb6c20fb6beae30e,3,21,null,,,,,,,,,<p style='font-size: 30px;'><strong>Okay</strong></p>,null,neutral_feedback,2,test,44,,,,,,,,,,,,,,,,,,,,,,
,,,,,,,,,,,html-button-response,362,2.0.0,4274723,66aa67e1fb6c20fb6beae30e,3,21,3132,,,,,,,,,"<img src= ""rock_img/I_Andesite_05.jpg"" style=""width:8cm; height:4.12cm;""><p>What type of rock is this?</p>",0,class_response,2,test,45,Andesite,Andesite,5,TRUE,1,1,,,,,,,,,,,,,,,,
,,,,,,,,,,,html-keyboard-response,363,2.0.0,4275252,66aa67e1fb6c20fb6beae30e,3,21,null,,,,,,,,,<p style='font-size: 30px;'><strong>Okay</strong></p>,null,neutral_feedback,2,test,45,,,,,,,,,,,,,,,,,,,,,,
,,,,,,,,,,,html-button-response,364,2.0.0,4277865,66aa67e1fb6c20fb6beae30e,3,21,2587,,,,,,,,,"<img src= ""rock_img/I_Gabbro_11.jpg"" style=""width:8cm; height:6.2cm;""><p>What type of rock is this?</p>",1,class_response,2,test,46,Basalt,Gabbro,11,FALSE,2,4,,,,,,,,,,,,,,,,
,,,,,,,,,,,html-keyboard-response,365,2.0.0,4278390,66aa67e1fb6c20fb6beae30e,3,21,null,,,,,,,,,<p style='font-size: 30px;'><strong>Okay</strong></p>,null,neutral_feedback,2,test,46,,,,,,,,,,,,,,,,,,,,,,
,,,,,,,,,,,html-button-response,366,2.0.0,4280857,66aa67e1fb6c20fb6beae30e,3,21,2444,,,,,,,,,"<img src= ""rock_img/I_Pegmatite_08.jpg"" style=""width:8cm; height:7.68cm;""><p>What type of rock is this?</p>",5,class_response,2,test,47,Pegmatite,Pegmatite,8,TRUE,6,6,,,,,,,,,,,,,,,,
,,,,,,,,,,,html-keyboard-response,367,2.0.0,4281382,66aa67e1fb6c20fb6beae30e,3,21,null,,,,,,,,,<p style='font-size: 30px;'><strong>Okay</strong></p>,null,neutral_feedback,2,test,47,,,,,,,,,,,,,,,,,,,,,,
,,,,,,,,,,,html-button-response,368,2.0.0,4284208,66aa67e1fb6c20fb6beae30e,3,21,2801,,,,,,,,,"<img src= ""rock_img/I_Pegmatite_13.jpg"" style=""width:8cm; height:4.95cm;""><p>What type of rock is this?</p>",5,class_response,2,test,48,Pegmatite,Pegmatite,13,TRUE,6,6,,,,,,,,,,,,,,,,
,,,,,,,,,,,html-keyboard-response,369,2.0.0,4284735,66aa67e1fb6c20fb6beae30e,3,21,null,,,,,,,,,<p style='font-size: 30px;'><strong>Okay</strong></p>,null,neutral_feedback,2,test,48,,,,,,,,,,,,,,,,,,,,,,
,,,,,,,,,,,html-button-response,370,2.0.0,4313267,66aa67e1fb6c20fb6beae30e,3,21,,,,,,,,,,,,cycle_feedback,,,,,,,,,,,,,,,,,,,,,,,,5569.7,22942.9
,,,,,,,,,,,html-button-response,372,2.0.0,4317305,66aa67e1fb6c20fb6beae30e,3,21,3998,,,,,,,,,,0,start_train,,,,,,,,,,,,,,,,,,,,,,,,,
,,,,,,,,,,,html-button-response,374,2.0.0,4318960,66aa67e1fb6c20fb6beae30e,3,21,1609,,,,,,,,,"<img src= ""rock_img/I_Obsidian_06.jpg"" style=""width:8cm; height:6.8cm;""><p>What type of rock is this?</p>",4,class_response,3,train,1,Obsidian,Obsidian,6,TRUE,5,5,,,,,,,,,,,,,,,,
,,,,,,,,,,,html-button-response,375,2.0.0,4319923,66aa67e1fb6c20fb6beae30e,3,21,914,,,,,,,,,"<img src= rock_img/I_Obsidian_06.jpg style=""width:8cm; height:6.8cm;""><p style='font-size: 30px; color: green;'><strong>Correct!</strong></p><p style='font-size: 30px;'><strong>This rock is obsidian</strong></p>",0,corr_feedback,3,train,1,,,,,,,,,,,,,,,,,,,,,,
,,,,,,,,,,,html-button-response,376,2.0.0,4411444,66aa67e1fb6c20fb6beae30e,3,21,91433,,,,,,,,,"<img src= ""rock_img/I_Diorite_11.jpg"" style=""width:8cm; height:7.11cm;""><p>What type of rock is this?</p>",2,class_response,3,train,2,Diorite,Diorite,11,TRUE,3,3,,,,,,,,,,,,,,,,
,,,,,,,,,,,html-button-response,377,2.0.0,4412622,66aa67e1fb6c20fb6beae30e,3,21,1127,,,,,,,,,"<img src= rock_img/I_Diorite_11.jpg style=""width:8cm; height:7.11cm;""><p style='font-size: 30px; color: green;'><strong>Correct!</strong></p><p style='font-size: 30px;'><strong>This rock is diorite</strong></p>",0,corr_feedback,3,train,2,,,,,,,,,,,,,,,,,,,,,,
,,,,,,,,,,,html-button-response,378,2.0.0,4419088,66aa67e1fb6c20fb6beae30e,3,21,6416,,,,,,,,,"<img src= ""rock_img/I_Peridotite_02.jpg"" style=""width:8cm; height:5.859999999999999cm;""><p>What type of rock is this?</p>",5,class_response,3,train,3,Pegmatite,Peridotite,2,FALSE,6,7,,,,,,,,,,,,,,,,
,,,,,,,,,,,html-button-response,379,2.0.0,4421739,66aa67e1fb6c20fb6beae30e,3,21,2604,,,,,,,,,"<img src= rock_img/I_Peridotite_02.jpg style=""width:8cm; height:5.859999999999999cm;""><p style='font-size: 30px; color: red;'><strong>Incorrect!</strong></p><p style='font-size: 30px;'><strong>This rock is peridotite</strong></p>",0,corr_feedback,3,train,3,,,,,,,,,,,,,,,,,,,,,,
,,,,,,,,,,,html-button-response,380,2.0.0,4423107,66aa67e1fb6c20fb6beae30e,3,21,1321,,,,,,,,,"<img src= ""rock_img/I_Pegmatite_10.jpg"" style=""width:8cm; height:4.16cm;""><p>What type of rock is this?</p>",5,class_response,3,train,4,Pegmatite,Pegmatite,10,TRUE,6,6,,,,,,,,,,,,,,,,
,,,,,,,,,,,html-button-response,381,2.0.0,4423937,66aa67e1fb6c20fb6beae30e,3,21,789,,,,,,,,,"<img src= rock_img/I_Pegmatite_10.jpg style=""width:8cm; height:4.16cm;""><p style='font-size: 30px; color: green;'><strong>Correct!</strong></p><p style='font-size: 30px;'><strong>This rock is pegmatite</strong></p>",0,corr_feedback,3,train,4,,,,,,,,,,,,,,,,,,,,,,
,,,,,,,,,,,html-button-response,382,2.0.0,4425257,66aa67e1fb6c20fb6beae30e,3,21,1273,,,,,,,,,"<img src= ""rock_img/I_Pumice_14.jpg"" style=""width:8cm; height:6.39cm;""><p>What type of rock is this?</p>",7,class_response,3,train,5,Pumice,Pumice,14,TRUE,8,8,,,,,,,,,,,,,,,,
,,,,,,,,,,,html-button-response,383,2.0.0,4426041,66aa67e1fb6c20fb6beae30e,3,21,737,,,,,,,,,"<img src= rock_img/I_Pumice_14.jpg style=""width:8cm; height:6.39cm;""><p style='font-size: 30px; color: green;'><strong>Correct!</strong></p><p style='font-size: 30px;'><strong>This rock is pumice</strong></p>",0,corr_feedback,3,train,5,,,,,,,,,,,,,,,,,,,,,,
,,,,,,,,,,,html-button-response,384,2.0.0,4427763,66aa67e1fb6c20fb6beae30e,3,21,1677,,,,,,,,,"<img src= ""rock_img/I_Pumice_02.jpg"" style=""width:8cm; height:7.3999999999999995cm;""><p>What type of rock is this?</p>",7,class_response,3,train,6,Pumice,Pumice,2,TRUE,8,8,,,,,,,,,,,,,,,,
,,,,,,,,,,,html-button-response,385,2.0.0,4428610,66aa67e1fb6c20fb6beae30e,3,21,803,,,,,,,,,"<img src= rock_img/I_Pumice_02.jpg style=""width:8cm; height:7.3999999999999995cm;""><p style='font-size: 30px; color: green;'><strong>Correct!</strong></p><p style='font-size: 30px;'><strong>This rock is pumice</strong></p>",0,corr_feedback,3,train,6,,,,,,,,,,,,,,,,,,,,,,
,,,,,,,,,,,html-button-response,386,2.0.0,4432499,66aa67e1fb6c20fb6beae30e,3,21,3841,,,,,,,,,"<img src= ""rock_img/I_Basalt_08.jpg"" style=""width:8cm; height:10.44cm;""><p>What type of rock is this?</p>",1,class_response,3,train,7,Basalt,Basalt,8,TRUE,2,2,,,,,,,,,,,,,,,,
,,,,,,,,,,,html-button-response,387,2.0.0,4433420,66aa67e1fb6c20fb6beae30e,3,21,873,,,,,,,,,"<img src= rock_img/I_Basalt_08.jpg style=""width:8cm; height:10.44cm;""><p style='font-size: 30px; color: green;'><strong>Correct!</strong></p><p style='font-size: 30px;'><strong>This rock is basalt</strong></p>",0,corr_feedback,3,train,7,,,,,,,,,,,,,,,,,,,,,,
,,,,,,,,,,,html-button-response,388,2.0.0,4438598,66aa67e1fb6c20fb6beae30e,3,21,5137,,,,,,,,,"<img src= ""rock_img/I_Gabbro_05.jpg"" style=""width:8cm; height:6cm;""><p>What type of rock is this?</p>",3,class_response,3,train,8,Gabbro,Gabbro,5,TRUE,4,4,,,,,,,,,,,,,,,,
,,,,,,,,,,,html-button-response,389,2.0.0,4439767,66aa67e1fb6c20fb6beae30e,3,21,1122,,,,,,,,,"<img src= rock_img/I_Gabbro_05.jpg style=""width:8cm; height:6cm;""><p style='font-size: 30px; color: green;'><strong>Correct!</strong></p><p style='font-size: 30px;'><strong>This rock is gabbro</strong></p>",0,corr_feedback,3,train,8,,,,,,,,,,,,,,,,,,,,,,
,,,,,,,,,,,html-button-response,390,2.0.0,4441113,66aa67e1fb6c20fb6beae30e,3,21,1297,,,,,,,,,"<img src= ""rock_img/I_Diorite_14.jpg"" style=""width:8cm; height:5.71cm;""><p>What type of rock is this?</p>",2,class_response,3,train,9,Diorite,Diorite,14,TRUE,3,3,,,,,,,,,,,,,,,,
,,,,,,,,,,,html-button-response,391,2.0.0,4441920,66aa67e1fb6c20fb6beae30e,3,21,759,,,,,,,,,"<img src= rock_img/I_Diorite_14.jpg style=""width:8cm; height:5.71cm;""><p style='font-size: 30px; color: green;'><strong>Correct!</strong></p><p style='font-size: 30px;'><strong>This rock is diorite</strong></p>",0,corr_feedback,3,train,9,,,,,,,,,,,,,,,,,,,,,,
,,,,,,,,,,,html-button-response,392,2.0.0,4443562,66aa67e1fb6c20fb6beae30e,3,21,1595,,,,,,,,,"<img src= ""rock_img/I_Andesite_04.jpg"" style=""width:8cm; height:5.96cm;""><p>What type of rock is this?</p>",0,class_response,3,train,10,Andesite,Andesite,4,TRUE,1,1,,,,,,,,,,,,,,,,
,,,,,,,,,,,html-button-response,393,2.0.0,4444452,66aa67e1fb6c20fb6beae30e,3,21,845,,,,,,,,,"<img src= rock_img/I_Andesite_04.jpg style=""width:8cm; height:5.96cm;""><p style='font-size: 30px; color: green;'><strong>Correct!</strong></p><p style='font-size: 30px;'><strong>This rock is andesite</strong></p>",0,corr_feedback,3,train,10,,,,,,,,,,,,,,,,,,,,,,
,,,,,,,,,,,html-button-response,394,2.0.0,4445710,66aa67e1fb6c20fb6beae30e,3,21,1211,,,,,,,,,"<img src= ""rock_img/I_Basalt_04.jpg"" style=""width:8cm; height:7.53cm;""><p>What type of rock is this?</p>",1,class_response,3,train,11,Basalt,Basalt,4,TRUE,2,2,,,,,,,,,,,,,,,,
,,,,,,,,,,,html-button-response,395,2.0.0,4446495,66aa67e1fb6c20fb6beae30e,3,21,738,,,,,,,,,"<img src= rock_img/I_Basalt_04.jpg style=""width:8cm; height:7.53cm;""><p style='font-size: 30px; color: green;'><strong>Correct!</strong></p><p style='font-size: 30px;'><strong>This rock is basalt</strong></p>",0,corr_feedback,3,train,11,,,,,,,,,,,,,,,,,,,,,,
,,,,,,,,,,,html-button-response,396,2.0.0,4448546,66aa67e1fb6c20fb6beae30e,3,21,2003,,,,,,,,,"<img src= ""rock_img/I_Pegmatite_11.jpg"" style=""width:8cm; height:8.14cm;""><p>What type of rock is this?</p>",5,class_response,3,train,12,Pegmatite,Pegmatite,11,TRUE,6,6,,,,,,,,,,,,,,,,
