width,height,webaudio,browser,browser_version,mobile,os,fullscreen,vsync_rate,webcam,microphone,trial_type,trial_index,plugin_version,time_elapsed,subjID,condition,stimID,rt,url,success,value,timeout,failed_images,failed_audio,failed_video,view_history,stimulus,response,trialType,cycle,phase,trial,resp,cat,token,corr,resp_num,cat_num,ref_cat_num,paired_cat_num,time_obs,ref_cat,paired_cat,ref_prob_dist,paired_prob_dist,text_Diorite,text_Gabbro,time_resp,text_Peridotite,text_Basalt,text_Pumice,time_fb1,time_fb2,text_Andesite,text_Pegmatite
1536,718,TRUE,chrome,130.0.0,FALSE,Windows 10,TRUE,146.66,TRUE,TRUE,browser-check,0,2.0.0,416,614b3d6a4f76b8dfc939adf0,3,5,,,,,,,,,,,,,,,,,,,,,,,,,,,,,,,,,,,,,,
,,,,,,,,,,,external-html,1,2.0.0,15895,614b3d6a4f76b8dfc939adf0,3,5,15116,consent_form.html,,,,,,,,,,,,,,,,,,,,,,,,,,,,,,,,,,,,
,,,,,,,,,,,fullscreen,2,2.0.0,19063,614b3d6a4f76b8dfc939adf0,3,5,2167,,TRUE,,,,,,,,,,,,,,,,,,,,,,,,,,,,,,,,,,,
,,,,,,,,,,,call-function,3,2.0.0,19065,614b3d6a4f76b8dfc939adf0,3,5,,,,{},,,,,,,,,,,,,,,,,,,,,,,,,,,,,,,,,,
,,,,,,,,,,,preload,4,2.0.0,41342,614b3d6a4f76b8dfc939adf0,3,5,,,TRUE,,FALSE,[],[],[],,,,,,,,,,,,,,,,,,,,,,,,,,,,,,
,,,,,,,,,,,instructions,5,2.0.0,74985,614b3d6a4f76b8dfc939adf0,3,5,33640,,,,,,,,"[{""page_index"":0,""viewing_time"":6735},{""page_index"":1,""viewing_time"":16217},{""page_index"":2,""viewing_time"":10688}]",,,,,,,,,,,,,,,,,,,,,,,,,,,,,
,,,,,,,,,,,html-button-response,6,2.0.0,78211,614b3d6a4f76b8dfc939adf0,3,5,3222,,,,,,,,,,0,start_test,,,,,,,,,,,,,,,,,,,,,,,,,,
,,,,,,,,,,,html-button-response,7,2.0.0,84185,614b3d6a4f76b8dfc939adf0,3,5,5971,,,,,,,,,"<img src= ""rock_img/I_Gabbro_16.jpg"" style=""width:8cm; height:6.44cm;""><p>What type of rock is this?</p>",2,class_response,0,test,1,Diorite,Gabbro,16,FALSE,3,4,,,,,,,,,,,,,,,,,
,,,,,,,,,,,html-keyboard-response,8,2.0.0,84701,614b3d6a4f76b8dfc939adf0,3,5,null,,,,,,,,,<p style='font-size: 30px;'><strong>Okay</strong></p>,null,neutral_feedback,0,test,1,,,,,,,,,,,,,,,,,,,,,,,
,,,,,,,,,,,html-button-response,9,2.0.0,90386,614b3d6a4f76b8dfc939adf0,3,5,5681,,,,,,,,,"<img src= ""rock_img/I_Andesite_11.jpg"" style=""width:8cm; height:4.92cm;""><p>What type of rock is this?</p>",7,class_response,0,test,2,Pumice,Andesite,11,FALSE,8,1,,,,,,,,,,,,,,,,,
,,,,,,,,,,,html-keyboard-response,10,2.0.0,90902,614b3d6a4f76b8dfc939adf0,3,5,null,,,,,,,,,<p style='font-size: 30px;'><strong>Okay</strong></p>,null,neutral_feedback,0,test,2,,,,,,,,,,,,,,,,,,,,,,,
,,,,,,,,,,,html-button-response,11,2.0.0,96073,614b3d6a4f76b8dfc939adf0,3,5,5168,,,,,,,,,"<img src= ""rock_img/I_Pumice_06.jpg"" style=""width:8cm; height:6.9399999999999995cm;""><p>What type of rock is this?</p>",5,class_response,0,test,3,Pegmatite,Pumice,6,FALSE,6,8,,,,,,,,,,,,,,,,,
,,,,,,,,,,,html-keyboard-response,12,2.0.0,96584,614b3d6a4f76b8dfc939adf0,3,5,null,,,,,,,,,<p style='font-size: 30px;'><strong>Okay</strong></p>,null,neutral_feedback,0,test,3,,,,,,,,,,,,,,,,,,,,,,,
,,,,,,,,,,,html-button-response,13,2.0.0,102945,614b3d6a4f76b8dfc939adf0,3,5,6358,,,,,,,,,"<img src= ""rock_img/I_Pegmatite_07.jpg"" style=""width:8cm; height:6.7cm;""><p>What type of rock is this?</p>",6,class_response,0,test,4,Peridotite,Pegmatite,7,FALSE,7,6,,,,,,,,,,,,,,,,,
,,,,,,,,,,,html-keyboard-response,14,2.0.0,103456,614b3d6a4f76b8dfc939adf0,3,5,null,,,,,,,,,<p style='font-size: 30px;'><strong>Okay</strong></p>,null,neutral_feedback,0,test,4,,,,,,,,,,,,,,,,,,,,,,,
,,,,,,,,,,,html-button-response,15,2.0.0,105985,614b3d6a4f76b8dfc939adf0,3,5,2526,,,,,,,,,"<img src= ""rock_img/I_Gabbro_03.jpg"" style=""width:8cm; height:8.52cm;""><p>What type of rock is this?</p>",5,class_response,0,test,5,Pegmatite,Gabbro,3,FALSE,6,4,,,,,,,,,,,,,,,,,
,,,,,,,,,,,html-keyboard-response,16,2.0.0,106496,614b3d6a4f76b8dfc939adf0,3,5,null,,,,,,,,,<p style='font-size: 30px;'><strong>Okay</strong></p>,null,neutral_feedback,0,test,5,,,,,,,,,,,,,,,,,,,,,,,
,,,,,,,,,,,html-button-response,17,2.0.0,108865,614b3d6a4f76b8dfc939adf0,3,5,2367,,,,,,,,,"<img src= ""rock_img/I_Peridotite_07.jpg"" style=""width:8cm; height:4.83cm;""><p>What type of rock is this?</p>",0,class_response,0,test,6,Andesite,Peridotite,7,FALSE,1,7,,,,,,,,,,,,,,,,,
,,,,,,,,,,,html-keyboard-response,18,2.0.0,109367,614b3d6a4f76b8dfc939adf0,3,5,null,,,,,,,,,<p style='font-size: 30px;'><strong>Okay</strong></p>,null,neutral_feedback,0,test,6,,,,,,,,,,,,,,,,,,,,,,,
,,,,,,,,,,,html-button-response,19,2.0.0,112034,614b3d6a4f76b8dfc939adf0,3,5,2664,,,,,,,,,"<img src= ""rock_img/I_Pegmatite_09.jpg"" style=""width:8cm; height:4.03cm;""><p>What type of rock is this?</p>",5,class_response,0,test,7,Pegmatite,Pegmatite,9,TRUE,6,6,,,,,,,,,,,,,,,,,
,,,,,,,,,,,html-keyboard-response,20,2.0.0,112535,614b3d6a4f76b8dfc939adf0,3,5,null,,,,,,,,,<p style='font-size: 30px;'><strong>Okay</strong></p>,null,neutral_feedback,0,test,7,,,,,,,,,,,,,,,,,,,,,,,
,,,,,,,,,,,html-button-response,21,2.0.0,114538,614b3d6a4f76b8dfc939adf0,3,5,2000,,,,,,,,,"<img src= ""rock_img/I_Obsidian_16.jpg"" style=""width:8cm; height:9.3cm;""><p>What type of rock is this?</p>",4,class_response,0,test,8,Obsidian,Obsidian,16,TRUE,5,5,,,,,,,,,,,,,,,,,
,,,,,,,,,,,html-keyboard-response,22,2.0.0,115040,614b3d6a4f76b8dfc939adf0,3,5,null,,,,,,,,,<p style='font-size: 30px;'><strong>Okay</strong></p>,null,neutral_feedback,0,test,8,,,,,,,,,,,,,,,,,,,,,,,
,,,,,,,,,,,html-button-response,23,2.0.0,117473,614b3d6a4f76b8dfc939adf0,3,5,2431,,,,,,,,,"<img src= ""rock_img/I_Pumice_13.jpg"" style=""width:8cm; height:8.200000000000001cm;""><p>What type of rock is this?</p>",3,class_response,0,test,9,Gabbro,Pumice,13,FALSE,4,8,,,,,,,,,,,,,,,,,
,,,,,,,,,,,html-keyboard-response,24,2.0.0,117976,614b3d6a4f76b8dfc939adf0,3,5,null,,,,,,,,,<p style='font-size: 30px;'><strong>Okay</strong></p>,null,neutral_feedback,0,test,9,,,,,,,,,,,,,,,,,,,,,,,
,,,,,,,,,,,html-button-response,25,2.0.0,121628,614b3d6a4f76b8dfc939adf0,3,5,3646,,,,,,,,,"<img src= ""rock_img/I_Peridotite_16.jpg"" style=""width:8cm; height:6.989999999999999cm;""><p>What type of rock is this?</p>",6,class_response,0,test,10,Peridotite,Peridotite,16,TRUE,7,7,,,,,,,,,,,,,,,,,
,,,,,,,,,,,html-keyboard-response,26,2.0.0,122137,614b3d6a4f76b8dfc939adf0,3,5,null,,,,,,,,,<p style='font-size: 30px;'><strong>Okay</strong></p>,null,neutral_feedback,0,test,10,,,,,,,,,,,,,,,,,,,,,,,
,,,,,,,,,,,html-button-response,27,2.0.0,125018,614b3d6a4f76b8dfc939adf0,3,5,2877,,,,,,,,,"<img src= ""rock_img/I_Diorite_07.jpg"" style=""width:8cm; height:5.239999999999999cm;""><p>What type of rock is this?</p>",1,class_response,0,test,11,Basalt,Diorite,7,FALSE,2,3,,,,,,,,,,,,,,,,,
,,,,,,,,,,,html-keyboard-response,28,2.0.0,125520,614b3d6a4f76b8dfc939adf0,3,5,null,,,,,,,,,<p style='font-size: 30px;'><strong>Okay</strong></p>,null,neutral_feedback,0,test,11,,,,,,,,,,,,,,,,,,,,,,,
,,,,,,,,,,,html-button-response,29,2.0.0,127617,614b3d6a4f76b8dfc939adf0,3,5,2094,,,,,,,,,"<img src= ""rock_img/I_Obsidian_07.jpg"" style=""width:8cm; height:4.76cm;""><p>What type of rock is this?</p>",4,class_response,0,test,12,Obsidian,Obsidian,7,TRUE,5,5,,,,,,,,,,,,,,,,,
,,,,,,,,,,,html-keyboard-response,30,2.0.0,128119,614b3d6a4f76b8dfc939adf0,3,5,null,,,,,,,,,<p style='font-size: 30px;'><strong>Okay</strong></p>,null,neutral_feedback,0,test,12,,,,,,,,,,,,,,,,,,,,,,,
,,,,,,,,,,,html-button-response,31,2.0.0,132819,614b3d6a4f76b8dfc939adf0,3,5,4696,,,,,,,,,"<img src= ""rock_img/I_Diorite_16.jpg"" style=""width:8cm; height:6.74cm;""><p>What type of rock is this?</p>",6,class_response,0,test,13,Peridotite,Diorite,16,FALSE,7,3,,,,,,,,,,,,,,,,,
,,,,,,,,,,,html-keyboard-response,32,2.0.0,133334,614b3d6a4f76b8dfc939adf0,3,5,null,,,,,,,,,<p style='font-size: 30px;'><strong>Okay</strong></p>,null,neutral_feedback,0,test,13,,,,,,,,,,,,,,,,,,,,,,,
,,,,,,,,,,,html-button-response,33,2.0.0,137116,614b3d6a4f76b8dfc939adf0,3,5,3777,,,,,,,,,"<img src= ""rock_img/I_Pegmatite_03.jpg"" style=""width:8cm; height:5.239999999999999cm;""><p>What type of rock is this?</p>",6,class_response,0,test,14,Peridotite,Pegmatite,3,FALSE,7,6,,,,,,,,,,,,,,,,,
,,,,,,,,,,,html-keyboard-response,34,2.0.0,137623,614b3d6a4f76b8dfc939adf0,3,5,null,,,,,,,,,<p style='font-size: 30px;'><strong>Okay</strong></p>,null,neutral_feedback,0,test,14,,,,,,,,,,,,,,,,,,,,,,,
,,,,,,,,,,,html-button-response,35,2.0.0,139618,614b3d6a4f76b8dfc939adf0,3,5,1991,,,,,,,,,"<img src= ""rock_img/I_Basalt_11.jpg"" style=""width:8cm; height:5.359999999999999cm;""><p>What type of rock is this?</p>",0,class_response,0,test,15,Andesite,Basalt,11,FALSE,1,2,,,,,,,,,,,,,,,,,
,,,,,,,,,,,html-keyboard-response,36,2.0.0,140132,614b3d6a4f76b8dfc939adf0,3,5,null,,,,,,,,,<p style='font-size: 30px;'><strong>Okay</strong></p>,null,neutral_feedback,0,test,15,,,,,,,,,,,,,,,,,,,,,,,
,,,,,,,,,,,html-button-response,37,2.0.0,142204,614b3d6a4f76b8dfc939adf0,3,5,2069,,,,,,,,,"<img src= ""rock_img/I_Andesite_03.jpg"" style=""width:8cm; height:5.73cm;""><p>What type of rock is this?</p>",7,class_response,0,test,16,Pumice,Andesite,3,FALSE,8,1,,,,,,,,,,,,,,,,,
,,,,,,,,,,,html-keyboard-response,38,2.0.0,142711,614b3d6a4f76b8dfc939adf0,3,5,null,,,,,,,,,<p style='font-size: 30px;'><strong>Okay</strong></p>,null,neutral_feedback,0,test,16,,,,,,,,,,,,,,,,,,,,,,,
,,,,,,,,,,,html-button-response,39,2.0.0,144698,614b3d6a4f76b8dfc939adf0,3,5,1983,,,,,,,,,"<img src= ""rock_img/I_Diorite_11.jpg"" style=""width:8cm; height:7.11cm;""><p>What type of rock is this?</p>",5,class_response,0,test,17,Pegmatite,Diorite,11,FALSE,6,3,,,,,,,,,,,,,,,,,
,,,,,,,,,,,html-keyboard-response,40,2.0.0,145208,614b3d6a4f76b8dfc939adf0,3,5,null,,,,,,,,,<p style='font-size: 30px;'><strong>Okay</strong></p>,null,neutral_feedback,0,test,17,,,,,,,,,,,,,,,,,,,,,,,
,,,,,,,,,,,html-button-response,41,2.0.0,146419,614b3d6a4f76b8dfc939adf0,3,5,1208,,,,,,,,,"<img src= ""rock_img/I_Pumice_02.jpg"" style=""width:8cm; height:7.3999999999999995cm;""><p>What type of rock is this?</p>",1,class_response,0,test,18,Basalt,Pumice,2,FALSE,2,8,,,,,,,,,,,,,,,,,
,,,,,,,,,,,html-keyboard-response,42,2.0.0,146929,614b3d6a4f76b8dfc939adf0,3,5,null,,,,,,,,,<p style='font-size: 30px;'><strong>Okay</strong></p>,null,neutral_feedback,0,test,18,,,,,,,,,,,,,,,,,,,,,,,
,,,,,,,,,,,html-button-response,43,2.0.0,148208,614b3d6a4f76b8dfc939adf0,3,5,1277,,,,,,,,,"<img src= ""rock_img/I_Gabbro_05.jpg"" style=""width:8cm; height:6cm;""><p>What type of rock is this?</p>",2,class_response,0,test,19,Diorite,Gabbro,5,FALSE,3,4,,,,,,,,,,,,,,,,,
,,,,,,,,,,,html-keyboard-response,44,2.0.0,148712,614b3d6a4f76b8dfc939adf0,3,5,null,,,,,,,,,<p style='font-size: 30px;'><strong>Okay</strong></p>,null,neutral_feedback,0,test,19,,,,,,,,,,,,,,,,,,,,,,,
,,,,,,,,,,,html-button-response,45,2.0.0,151192,614b3d6a4f76b8dfc939adf0,3,5,2477,,,,,,,,,"<img src= ""rock_img/I_Pegmatite_11.jpg"" style=""width:8cm; height:8.14cm;""><p>What type of rock is this?</p>",4,class_response,0,test,20,Obsidian,Pegmatite,11,FALSE,5,6,,,,,,,,,,,,,,,,,
,,,,,,,,,,,html-keyboard-response,46,2.0.0,151693,614b3d6a4f76b8dfc939adf0,3,5,null,,,,,,,,,<p style='font-size: 30px;'><strong>Okay</strong></p>,null,neutral_feedback,0,test,20,,,,,,,,,,,,,,,,,,,,,,,
,,,,,,,,,,,html-button-response,47,2.0.0,153120,614b3d6a4f76b8dfc939adf0,3,5,1424,,,,,,,,,"<img src= ""rock_img/I_Diorite_12.jpg"" style=""width:8cm; height:4.88cm;""><p>What type of rock is this?</p>",6,class_response,0,test,21,Peridotite,Diorite,12,FALSE,7,3,,,,,,,,,,,,,,,,,
,,,,,,,,,,,html-keyboard-response,48,2.0.0,153631,614b3d6a4f76b8dfc939adf0,3,5,null,,,,,,,,,<p style='font-size: 30px;'><strong>Okay</strong></p>,null,neutral_feedback,0,test,21,,,,,,,,,,,,,,,,,,,,,,,
,,,,,,,,,,,html-button-response,49,2.0.0,155169,614b3d6a4f76b8dfc939adf0,3,5,1536,,,,,,,,,"<img src= ""rock_img/I_Andesite_01.jpg"" style=""width:8cm; height:5.87cm;""><p>What type of rock is this?</p>",5,class_response,0,test,22,Pegmatite,Andesite,1,FALSE,6,1,,,,,,,,,,,,,,,,,
,,,,,,,,,,,html-keyboard-response,50,2.0.0,155675,614b3d6a4f76b8dfc939adf0,3,5,null,,,,,,,,,<p style='font-size: 30px;'><strong>Okay</strong></p>,null,neutral_feedback,0,test,22,,,,,,,,,,,,,,,,,,,,,,,
,,,,,,,,,,,html-button-response,51,2.0.0,157324,614b3d6a4f76b8dfc939adf0,3,5,1643,,,,,,,,,"<img src= ""rock_img/I_Andesite_06.jpg"" style=""width:8cm; height:6.840000000000001cm;""><p>What type of rock is this?</p>",0,class_response,0,test,23,Andesite,Andesite,6,TRUE,1,1,,,,,,,,,,,,,,,,,
,,,,,,,,,,,html-keyboard-response,52,2.0.0,157831,614b3d6a4f76b8dfc939adf0,3,5,null,,,,,,,,,<p style='font-size: 30px;'><strong>Okay</strong></p>,null,neutral_feedback,0,test,23,,,,,,,,,,,,,,,,,,,,,,,
,,,,,,,,,,,html-button-response,53,2.0.0,160090,614b3d6a4f76b8dfc939adf0,3,5,2256,,,,,,,,,"<img src= ""rock_img/I_Basalt_16.jpg"" style=""width:8cm; height:7.659999999999999cm;""><p>What type of rock is this?</p>",2,class_response,0,test,24,Diorite,Basalt,16,FALSE,3,2,,,,,,,,,,,,,,,,,
,,,,,,,,,,,html-keyboard-response,54,2.0.0,160596,614b3d6a4f76b8dfc939adf0,3,5,null,,,,,,,,,<p style='font-size: 30px;'><strong>Okay</strong></p>,null,neutral_feedback,0,test,24,,,,,,,,,,,,,,,,,,,,,,,
,,,,,,,,,,,html-button-response,55,2.0.0,162146,614b3d6a4f76b8dfc939adf0,3,5,1547,,,,,,,,,"<img src= ""rock_img/I_Obsidian_11.jpg"" style=""width:8cm; height:6.05cm;""><p>What type of rock is this?</p>",4,class_response,0,test,25,Obsidian,Obsidian,11,TRUE,5,5,,,,,,,,,,,,,,,,,
,,,,,,,,,,,html-keyboard-response,56,2.0.0,162651,614b3d6a4f76b8dfc939adf0,3,5,null,,,,,,,,,<p style='font-size: 30px;'><strong>Okay</strong></p>,null,neutral_feedback,0,test,25,,,,,,,,,,,,,,,,,,,,,,,
,,,,,,,,,,,html-button-response,57,2.0.0,165149,614b3d6a4f76b8dfc939adf0,3,5,2495,,,,,,,,,"<img src= ""rock_img/I_Pumice_09.jpg"" style=""width:8cm; height:6.44cm;""><p>What type of rock is this?</p>",3,class_response,0,test,26,Gabbro,Pumice,9,FALSE,4,8,,,,,,,,,,,,,,,,,
,,,,,,,,,,,html-keyboard-response,58,2.0.0,165654,614b3d6a4f76b8dfc939adf0,3,5,null,,,,,,,,,<p style='font-size: 30px;'><strong>Okay</strong></p>,null,neutral_feedback,0,test,26,,,,,,,,,,,,,,,,,,,,,,,
,,,,,,,,,,,html-button-response,59,2.0.0,167202,614b3d6a4f76b8dfc939adf0,3,5,1544,,,,,,,,,"<img src= ""rock_img/I_Gabbro_01.jpg"" style=""width:8cm; height:5.21cm;""><p>What type of rock is this?</p>",2,class_response,0,test,27,Diorite,Gabbro,1,FALSE,3,4,,,,,,,,,,,,,,,,,
,,,,,,,,,,,html-keyboard-response,60,2.0.0,167707,614b3d6a4f76b8dfc939adf0,3,5,null,,,,,,,,,<p style='font-size: 30px;'><strong>Okay</strong></p>,null,neutral_feedback,0,test,27,,,,,,,,,,,,,,,,,,,,,,,
,,,,,,,,,,,html-button-response,61,2.0.0,169004,614b3d6a4f76b8dfc939adf0,3,5,1293,,,,,,,,,"<img src= ""rock_img/I_Pumice_05.jpg"" style=""width:8cm; height:7.25cm;""><p>What type of rock is this?</p>",1,class_response,0,test,28,Basalt,Pumice,5,FALSE,2,8,,,,,,,,,,,,,,,,,
,,,,,,,,,,,html-keyboard-response,62,2.0.0,169510,614b3d6a4f76b8dfc939adf0,3,5,null,,,,,,,,,<p style='font-size: 30px;'><strong>Okay</strong></p>,null,neutral_feedback,0,test,28,,,,,,,,,,,,,,,,,,,,,,,
,,,,,,,,,,,html-button-response,63,2.0.0,171099,614b3d6a4f76b8dfc939adf0,3,5,1585,,,,,,,,,"<img src= ""rock_img/I_Peridotite_15.jpg"" style=""width:8cm; height:6cm;""><p>What type of rock is this?</p>",6,class_response,0,test,29,Peridotite,Peridotite,15,TRUE,7,7,,,,,,,,,,,,,,,,,
,,,,,,,,,,,html-keyboard-response,64,2.0.0,171601,614b3d6a4f76b8dfc939adf0,3,5,null,,,,,,,,,<p style='font-size: 30px;'><strong>Okay</strong></p>,null,neutral_feedback,0,test,29,,,,,,,,,,,,,,,,,,,,,,,
,,,,,,,,,,,html-button-response,65,2.0.0,173835,614b3d6a4f76b8dfc939adf0,3,5,2230,,,,,,,,,"<img src= ""rock_img/I_Peridotite_10.jpg"" style=""width:8cm; height:5.390000000000001cm;""><p>What type of rock is this?</p>",5,class_response,0,test,30,Pegmatite,Peridotite,10,FALSE,6,7,,,,,,,,,,,,,,,,,
,,,,,,,,,,,html-keyboard-response,66,2.0.0,174348,614b3d6a4f76b8dfc939adf0,3,5,null,,,,,,,,,<p style='font-size: 30px;'><strong>Okay</strong></p>,null,neutral_feedback,0,test,30,,,,,,,,,,,,,,,,,,,,,,,
,,,,,,,,,,,html-button-response,67,2.0.0,175634,614b3d6a4f76b8dfc939adf0,3,5,1282,,,,,,,,,"<img src= ""rock_img/I_Andesite_09.jpg"" style=""width:8cm; height:6cm;""><p>What type of rock is this?</p>",1,class_response,0,test,31,Basalt,Andesite,9,FALSE,2,1,,,,,,,,,,,,,,,,,
,,,,,,,,,,,html-keyboard-response,68,2.0.0,176144,614b3d6a4f76b8dfc939adf0,3,5,null,,,,,,,,,<p style='font-size: 30px;'><strong>Okay</strong></p>,null,neutral_feedback,0,test,31,,,,,,,,,,,,,,,,,,,,,,,
,,,,,,,,,,,html-button-response,69,2.0.0,177650,614b3d6a4f76b8dfc939adf0,3,5,1503,,,,,,,,,"<img src= ""rock_img/I_Basalt_12.jpg"" style=""width:8cm; height:6.010000000000001cm;""><p>What type of rock is this?</p>",2,class_response,0,test,32,Diorite,Basalt,12,FALSE,3,2,,,,,,,,,,,,,,,,,
,,,,,,,,,,,html-keyboard-response,70,2.0.0,178156,614b3d6a4f76b8dfc939adf0,3,5,null,,,,,,,,,<p style='font-size: 30px;'><strong>Okay</strong></p>,null,neutral_feedback,0,test,32,,,,,,,,,,,,,,,,,,,,,,,
,,,,,,,,,,,html-button-response,71,2.0.0,179682,614b3d6a4f76b8dfc939adf0,3,5,1522,,,,,,,,,"<img src= ""rock_img/I_Basalt_02.jpg"" style=""width:8cm; height:6.45cm;""><p>What type of rock is this?</p>",6,class_response,0,test,33,Peridotite,Basalt,2,FALSE,7,2,,,,,,,,,,,,,,,,,
,,,,,,,,,,,html-keyboard-response,72,2.0.0,180182,614b3d6a4f76b8dfc939adf0,3,5,null,,,,,,,,,<p style='font-size: 30px;'><strong>Okay</strong></p>,null,neutral_feedback,0,test,33,,,,,,,,,,,,,,,,,,,,,,,
,,,,,,,,,,,html-button-response,73,2.0.0,181386,614b3d6a4f76b8dfc939adf0,3,5,1200,,,,,,,,,"<img src= ""rock_img/I_Diorite_09.jpg"" style=""width:8cm; height:5.27cm;""><p>What type of rock is this?</p>",5,class_response,0,test,34,Pegmatite,Diorite,9,FALSE,6,3,,,,,,,,,,,,,,,,,
,,,,,,,,,,,html-keyboard-response,74,2.0.0,181902,614b3d6a4f76b8dfc939adf0,3,5,null,,,,,,,,,<p style='font-size: 30px;'><strong>Okay</strong></p>,null,neutral_feedback,0,test,34,,,,,,,,,,,,,,,,,,,,,,,
,,,,,,,,,,,html-button-response,75,2.0.0,184017,614b3d6a4f76b8dfc939adf0,3,5,2112,,,,,,,,,"<img src= ""rock_img/I_Obsidian_09.jpg"" style=""width:8cm; height:5cm;""><p>What type of rock is this?</p>",4,class_response,0,test,35,Obsidian,Obsidian,9,TRUE,5,5,,,,,,,,,,,,,,,,,
,,,,,,,,,,,html-keyboard-response,76,2.0.0,184527,614b3d6a4f76b8dfc939adf0,3,5,null,,,,,,,,,<p style='font-size: 30px;'><strong>Okay</strong></p>,null,neutral_feedback,0,test,35,,,,,,,,,,,,,,,,,,,,,,,
,,,,,,,,,,,html-button-response,77,2.0.0,185793,614b3d6a4f76b8dfc939adf0,3,5,1263,,,,,,,,,"<img src= ""rock_img/I_Gabbro_08.jpg"" style=""width:8cm; height:5.15cm;""><p>What type of rock is this?</p>",0,class_response,0,test,36,Andesite,Gabbro,8,FALSE,1,4,,,,,,,,,,,,,,,,,
,,,,,,,,,,,html-keyboard-response,78,2.0.0,186309,614b3d6a4f76b8dfc939adf0,3,5,null,,,,,,,,,<p style='font-size: 30px;'><strong>Okay</strong></p>,null,neutral_feedback,0,test,36,,,,,,,,,,,,,,,,,,,,,,,
,,,,,,,,,,,html-button-response,79,2.0.0,187698,614b3d6a4f76b8dfc939adf0,3,5,1385,,,,,,,,,"<img src= ""rock_img/I_Gabbro_15.jpg"" style=""width:8cm; height:6.29cm;""><p>What type of rock is this?</p>",2,class_response,0,test,37,Diorite,Gabbro,15,FALSE,3,4,,,,,,,,,,,,,,,,,
,,,,,,,,,,,html-keyboard-response,80,2.0.0,188199,614b3d6a4f76b8dfc939adf0,3,5,null,,,,,,,,,<p style='font-size: 30px;'><strong>Okay</strong></p>,null,neutral_feedback,0,test,37,,,,,,,,,,,,,,,,,,,,,,,
,,,,,,,,,,,html-button-response,81,2.0.0,189786,614b3d6a4f76b8dfc939adf0,3,5,1584,,,,,,,,,"<img src= ""rock_img/I_Andesite_02.jpg"" style=""width:8cm; height:8.5cm;""><p>What type of rock is this?</p>",3,class_response,0,test,38,Gabbro,Andesite,2,FALSE,4,1,,,,,,,,,,,,,,,,,
,,,,,,,,,,,html-keyboard-response,82,2.0.0,190295,614b3d6a4f76b8dfc939adf0,3,5,null,,,,,,,,,<p style='font-size: 30px;'><strong>Okay</strong></p>,null,neutral_feedback,0,test,38,,,,,,,,,,,,,,,,,,,,,,,
,,,,,,,,,,,html-button-response,83,2.0.0,191873,614b3d6a4f76b8dfc939adf0,3,5,1574,,,,,,,,,"<img src= ""rock_img/I_Pegmatite_16.jpg"" style=""width:8cm; height:5.8cm;""><p>What type of rock is this?</p>",5,class_response,0,test,39,Pegmatite,Pegmatite,16,TRUE,6,6,,,,,,,,,,,,,,,,,
,,,,,,,,,,,html-keyboard-response,84,2.0.0,192376,614b3d6a4f76b8dfc939adf0,3,5,null,,,,,,,,,<p style='font-size: 30px;'><strong>Okay</strong></p>,null,neutral_feedback,0,test,39,,,,,,,,,,,,,,,,,,,,,,,
,,,,,,,,,,,html-button-response,85,2.0.0,193378,614b3d6a4f76b8dfc939adf0,3,5,997,,,,,,,,,"<img src= ""rock_img/I_Basalt_01.jpg"" style=""width:8cm; height:7.880000000000001cm;""><p>What type of rock is this?</p>",6,class_response,0,test,40,Peridotite,Basalt,1,FALSE,7,2,,,,,,,,,,,,,,,,,
,,,,,,,,,,,html-keyboard-response,86,2.0.0,193894,614b3d6a4f76b8dfc939adf0,3,5,null,,,,,,,,,<p style='font-size: 30px;'><strong>Okay</strong></p>,null,neutral_feedback,0,test,40,,,,,,,,,,,,,,,,,,,,,,,
,,,,,,,,,,,html-button-response,87,2.0.0,195674,614b3d6a4f76b8dfc939adf0,3,5,1776,,,,,,,,,"<img src= ""rock_img/I_Basalt_04.jpg"" style=""width:8cm; height:7.53cm;""><p>What type of rock is this?</p>",7,class_response,0,test,41,Pumice,Basalt,4,FALSE,8,2,,,,,,,,,,,,,,,,,
,,,,,,,,,,,html-keyboard-response,88,2.0.0,196176,614b3d6a4f76b8dfc939adf0,3,5,null,,,,,,,,,<p style='font-size: 30px;'><strong>Okay</strong></p>,null,neutral_feedback,0,test,41,,,,,,,,,,,,,,,,,,,,,,,
,,,,,,,,,,,html-button-response,89,2.0.0,197560,614b3d6a4f76b8dfc939adf0,3,5,1382,,,,,,,,,"<img src= ""rock_img/I_Pegmatite_12.jpg"" style=""width:8cm; height:5.7cm;""><p>What type of rock is this?</p>",1,class_response,0,test,42,Basalt,Pegmatite,12,FALSE,2,6,,,,,,,,,,,,,,,,,
,,,,,,,,,,,html-keyboard-response,90,2.0.0,198062,614b3d6a4f76b8dfc939adf0,3,5,null,,,,,,,,,<p style='font-size: 30px;'><strong>Okay</strong></p>,null,neutral_feedback,0,test,42,,,,,,,,,,,,,,,,,,,,,,,
,,,,,,,,,,,html-button-response,91,2.0.0,199017,614b3d6a4f76b8dfc939adf0,3,5,952,,,,,,,,,"<img src= ""rock_img/I_Peridotite_02.jpg"" style=""width:8cm; height:5.859999999999999cm;""><p>What type of rock is this?</p>",2,class_response,0,test,43,Diorite,Peridotite,2,FALSE,3,7,,,,,,,,,,,,,,,,,
,,,,,,,,,,,html-keyboard-response,92,2.0.0,199520,614b3d6a4f76b8dfc939adf0,3,5,null,,,,,,,,,<p style='font-size: 30px;'><strong>Okay</strong></p>,null,neutral_feedback,0,test,43,,,,,,,,,,,,,,,,,,,,,,,
,,,,,,,,,,,html-button-response,93,2.0.0,200649,614b3d6a4f76b8dfc939adf0,3,5,1125,,,,,,,,,"<img src= ""rock_img/I_Peridotite_06.jpg"" style=""width:8cm; height:7.53cm;""><p>What type of rock is this?</p>",2,class_response,0,test,44,Diorite,Peridotite,6,FALSE,3,7,,,,,,,,,,,,,,,,,
,,,,,,,,,,,html-keyboard-response,94,2.0.0,201164,614b3d6a4f76b8dfc939adf0,3,5,null,,,,,,,,,<p style='font-size: 30px;'><strong>Okay</strong></p>,null,neutral_feedback,0,test,44,,,,,,,,,,,,,,,,,,,,,,,
,,,,,,,,,,,html-button-response,95,2.0.0,202337,614b3d6a4f76b8dfc939adf0,3,5,1169,,,,,,,,,"<img src= ""rock_img/I_Obsidian_10.jpg"" style=""width:8cm; height:6.260000000000001cm;""><p>What type of rock is this?</p>",4,class_response,0,test,45,Obsidian,Obsidian,10,TRUE,5,5,,,,,,,,,,,,,,,,,
,,,,,,,,,,,html-keyboard-response,96,2.0.0,202844,614b3d6a4f76b8dfc939adf0,3,5,null,,,,,,,,,<p style='font-size: 30px;'><strong>Okay</strong></p>,null,neutral_feedback,0,test,45,,,,,,,,,,,,,,,,,,,,,,,
,,,,,,,,,,,html-button-response,97,2.0.0,203930,614b3d6a4f76b8dfc939adf0,3,5,1082,,,,,,,,,"<img src= ""rock_img/I_Obsidian_05.jpg"" style=""width:8cm; height:6.33cm;""><p>What type of rock is this?</p>",4,class_response,0,test,46,Obsidian,Obsidian,5,TRUE,5,5,,,,,,,,,,,,,,,,,
,,,,,,,,,,,html-keyboard-response,98,2.0.0,204443,614b3d6a4f76b8dfc939adf0,3,5,null,,,,,,,,,<p style='font-size: 30px;'><strong>Okay</strong></p>,null,neutral_feedback,0,test,46,,,,,,,,,,,,,,,,,,,,,,,
,,,,,,,,,,,html-button-response,99,2.0.0,205770,614b3d6a4f76b8dfc939adf0,3,5,1323,,,,,,,,,"<img src= ""rock_img/I_Diorite_15.jpg"" style=""width:8cm; height:5.54cm;""><p>What type of rock is this?</p>",5,class_response,0,test,47,Pegmatite,Diorite,15,FALSE,6,3,,,,,,,,,,,,,,,,,
,,,,,,,,,,,html-keyboard-response,100,2.0.0,206276,614b3d6a4f76b8dfc939adf0,3,5,null,,,,,,,,,<p style='font-size: 30px;'><strong>Okay</strong></p>,null,neutral_feedback,0,test,47,,,,,,,,,,,,,,,,,,,,,,,
,,,,,,,,,,,html-button-response,101,2.0.0,208089,614b3d6a4f76b8dfc939adf0,3,5,1810,,,,,,,,,"<img src= ""rock_img/I_Pumice_10.jpg"" style=""width:8cm; height:7.609999999999999cm;""><p>What type of rock is this?</p>",3,class_response,0,test,48,Gabbro,Pumice,10,FALSE,4,8,,,,,,,,,,,,,,,,,
,,,,,,,,,,,html-keyboard-response,102,2.0.0,208604,614b3d6a4f76b8dfc939adf0,3,5,null,,,,,,,,,<p style='font-size: 30px;'><strong>Okay</strong></p>,null,neutral_feedback,0,test,48,,,,,,,,,,,,,,,,,,,,,,,
,,,,,,,,,,,instructions,103,2.0.0,222354,614b3d6a4f76b8dfc939adf0,3,5,13733,,,,,,,,"[{""page_index"":0,""viewing_time"":10597},{""page_index"":1,""viewing_time"":3136}]",,,,,,,,,,,,,,,,,,,,,,,,,,,,,
,,,,,,,,,,,html-button-response,104,2.0.0,224340,614b3d6a4f76b8dfc939adf0,3,5,1982,,,,,,,,,,0,start_train,,,,,,,,,,,,,,,,,,,,,,,,,,
,,,,,,,,,,,html-button-response,106,2.0.0,229706,614b3d6a4f76b8dfc939adf0,3,5,5362,,,,,,,,,"<img src= ""rock_img/I_Andesite_05.jpg"" style=""width:8cm; height:4.12cm;""><p>What type of rock is this?</p>",7,class_response,1,train,1,Pumice,Andesite,5,FALSE,8,1,,,,,,,,,,,,,,,,,
,,,,,,,,,,,html-button-response,107,2.0.0,244121,614b3d6a4f76b8dfc939adf0,3,5,14412,,,,,,,,,"<img src= rock_img/I_Andesite_05.jpg style=""width:8cm; height:4.12cm;""><p style='font-size: 30px; color: red;'><strong>Incorrect!</strong></p><p style='font-size: 30px;'><strong>This rock is andesite</strong></p>",0,corr_feedback,1,train,1,,,,,,,,,,,,,,,,,,,,,,,
,,,,,,,,,,,html-button-response,108,2.0.0,245880,614b3d6a4f76b8dfc939adf0,3,5,1756,,,,,,,,,"<img src= ""rock_img/I_Pegmatite_05.jpg"" style=""width:8cm; height:7.300000000000001cm;""><p>What type of rock is this?</p>",4,class_response,1,train,2,Obsidian,Pegmatite,5,FALSE,5,6,,,,,,,,,,,,,,,,,
,,,,,,,,,,,html-button-response,109,2.0.0,257002,614b3d6a4f76b8dfc939adf0,3,5,11118,,,,,,,,,"<img src= rock_img/I_Pegmatite_05.jpg style=""width:8cm; height:7.300000000000001cm;""><p style='font-size: 30px; color: red;'><strong>Incorrect!</strong></p><p style='font-size: 30px;'><strong>This rock is pegmatite</strong></p>",0,corr_feedback,1,train,2,,,,,,,,,,,,,,,,,,,,,,,
,,,,,,,,,,,html-button-response,110,2.0.0,259428,614b3d6a4f76b8dfc939adf0,3,5,2422,,,,,,,,,"<img src= ""rock_img/I_Peridotite_12.jpg"" style=""width:8cm; height:4.54cm;""><p>What type of rock is this?</p>",3,class_response,1,train,3,Gabbro,Peridotite,12,FALSE,4,7,,,,,,,,,,,,,,,,,
,,,,,,,,,,,html-button-response,111,2.0.0,268883,614b3d6a4f76b8dfc939adf0,3,5,9452,,,,,,,,,"<img src= rock_img/I_Peridotite_12.jpg style=""width:8cm; height:4.54cm;""><p style='font-size: 30px; color: red;'><strong>Incorrect!</strong></p><p style='font-size: 30px;'><strong>This rock is peridotite</strong></p>",0,corr_feedback,1,train,3,,,,,,,,,,,,,,,,,,,,,,,
,,,,,,,,,,,html-button-response,112,2.0.0,270516,614b3d6a4f76b8dfc939adf0,3,5,1629,,,,,,,,,"<img src= ""rock_img/I_Peridotite_08.jpg"" style=""width:8cm; height:6.7cm;""><p>What type of rock is this?</p>",1,class_response,1,train,4,Basalt,Peridotite,8,FALSE,2,7,,,,,,,,,,,,,,,,,
,,,,,,,,,,,html-button-response,113,2.0.0,280426,614b3d6a4f76b8dfc939adf0,3,5,9906,,,,,,,,,"<img src= rock_img/I_Peridotite_08.jpg style=""width:8cm; height:6.7cm;""><p style='font-size: 30px; color: red;'><strong>Incorrect!</strong></p><p style='font-size: 30px;'><strong>This rock is peridotite</strong></p>",0,corr_feedback,1,train,4,,,,,,,,,,,,,,,,,,,,,,,
,,,,,,,,,,,html-button-response,114,2.0.0,283129,614b3d6a4f76b8dfc939adf0,3,5,2700,,,,,,,,,"<img src= ""rock_img/I_Diorite_06.jpg"" style=""width:8cm; height:6.03cm;""><p>What type of rock is this?</p>",7,class_response,1,train,5,Pumice,Diorite,6,FALSE,8,3,,,,,,,,,,,,,,,,,
,,,,,,,,,,,html-button-response,115,2.0.0,292536,614b3d6a4f76b8dfc939adf0,3,5,9404,,,,,,,,,"<img src= rock_img/I_Diorite_06.jpg style=""width:8cm; height:6.03cm;""><p style='font-size: 30px; color: red;'><strong>Incorrect!</strong></p><p style='font-size: 30px;'><strong>This rock is diorite</strong></p>",0,corr_feedback,1,train,5,,,,,,,,,,,,,,,,,,,,,,,
,,,,,,,,,,,html-button-response,116,2.0.0,294280,614b3d6a4f76b8dfc939adf0,3,5,1741,,,,,,,,,"<img src= ""rock_img/I_Obsidian_02.jpg"" style=""width:8cm; height:7.51cm;""><p>What type of rock is this?</p>",4,class_response,1,train,6,Obsidian,Obsidian,2,TRUE,5,5,,,,,,,,,,,,,,,,,
,,,,,,,,,,,html-button-response,117,2.0.0,303993,614b3d6a4f76b8dfc939adf0,3,5,9710,,,,,,,,,"<img src= rock_img/I_Obsidian_02.jpg style=""width:8cm; height:7.51cm;""><p style='font-size: 30px; color: green;'><strong>Correct!</strong></p><p style='font-size: 30px;'><strong>This rock is obsidian</strong></p>",0,corr_feedback,1,train,6,,,,,,,,,,,,,,,,,,,,,,,
,,,,,,,,,,,html-button-response,118,2.0.0,307690,614b3d6a4f76b8dfc939adf0,3,5,3693,,,,,,,,,"<img src= ""rock_img/I_Gabbro_09.jpg"" style=""width:8cm; height:7.279999999999999cm;""><p>What type of rock is this?</p>",0,class_response,1,train,7,Andesite,Gabbro,9,FALSE,1,4,,,,,,,,,,,,,,,,,
,,,,,,,,,,,html-button-response,119,2.0.0,316777,614b3d6a4f76b8dfc939adf0,3,5,9084,,,,,,,,,"<img src= rock_img/I_Gabbro_09.jpg style=""width:8cm; height:7.279999999999999cm;""><p style='font-size: 30px; color: red;'><strong>Incorrect!</strong></p><p style='font-size: 30px;'><strong>This rock is gabbro</strong></p>",0,corr_feedback,1,train,7,,,,,,,,,,,,,,,,,,,,,,,
,,,,,,,,,,,html-button-response,120,2.0.0,318330,614b3d6a4f76b8dfc939adf0,3,5,1549,,,,,,,,,"<img src= ""rock_img/I_Obsidian_04.jpg"" style=""width:8cm; height:6.930000000000001cm;""><p>What type of rock is this?</p>",4,class_response,1,train,8,Obsidian,Obsidian,4,TRUE,5,5,,,,,,,,,,,,,,,,,
,,,,,,,,,,,html-button-response,121,2.0.0,320025,614b3d6a4f76b8dfc939adf0,3,5,1692,,,,,,,,,"<img src= rock_img/I_Obsidian_04.jpg style=""width:8cm; height:6.930000000000001cm;""><p style='font-size: 30px; color: green;'><strong>Correct!</strong></p><p style='font-size: 30px;'><strong>This rock is obsidian</strong></p>",0,corr_feedback,1,train,8,,,,,,,,,,,,,,,,,,,,,,,
,,,,,,,,,,,html-button-response,122,2.0.0,326473,614b3d6a4f76b8dfc939adf0,3,5,6445,,,,,,,,,"<img src= ""rock_img/I_Basalt_10.jpg"" style=""width:8cm; height:5.85cm;""><p>What type of rock is this?</p>",0,class_response,1,train,9,Andesite,Basalt,10,FALSE,1,2,,,,,,,,,,,,,,,,,
,,,,,,,,,,,html-button-response,123,2.0.0,335418,614b3d6a4f76b8dfc939adf0,3,5,8940,,,,,,,,,"<img src= rock_img/I_Basalt_10.jpg style=""width:8cm; height:5.85cm;""><p style='font-size: 30px; color: red;'><strong>Incorrect!</strong></p><p style='font-size: 30px;'><strong>This rock is basalt</strong></p>",0,corr_feedback,1,train,9,,,,,,,,,,,,,,,,,,,,,,,
,,,,,,,,,,,html-button-response,124,2.0.0,337634,614b3d6a4f76b8dfc939adf0,3,5,2212,,,,,,,,,"<img src= ""rock_img/I_Pumice_14.jpg"" style=""width:8cm; height:6.39cm;""><p>What type of rock is this?</p>",2,class_response,1,train,10,Diorite,Pumice,14,FALSE,3,8,,,,,,,,,,,,,,,,,
,,,,,,,,,,,html-button-response,125,2.0.0,347193,614b3d6a4f76b8dfc939adf0,3,5,9556,,,,,,,,,"<img src= rock_img/I_Pumice_14.jpg style=""width:8cm; height:6.39cm;""><p style='font-size: 30px; color: red;'><strong>Incorrect!</strong></p><p style='font-size: 30px;'><strong>This rock is pumice</strong></p>",0,corr_feedback,1,train,10,,,,,,,,,,,,,,,,,,,,,,,
,,,,,,,,,,,html-button-response,126,2.0.0,349826,614b3d6a4f76b8dfc939adf0,3,5,2629,,,,,,,,,"<img src= ""rock_img/I_Gabbro_11.jpg"" style=""width:8cm; height:6.2cm;""><p>What type of rock is this?</p>",2,class_response,1,train,11,Diorite,Gabbro,11,FALSE,3,4,,,,,,,,,,,,,,,,,
,,,,,,,,,,,html-button-response,127,2.0.0,358978,614b3d6a4f76b8dfc939adf0,3,5,9149,,,,,,,,,"<img src= rock_img/I_Gabbro_11.jpg style=""width:8cm; height:6.2cm;""><p style='font-size: 30px; color: red;'><strong>Incorrect!</strong></p><p style='font-size: 30px;'><strong>This rock is gabbro</strong></p>",0,corr_feedback,1,train,11,,,,,,,,,,,,,,,,,,,,,,,
,,,,,,,,,,,html-button-response,128,2.0.0,365140,614b3d6a4f76b8dfc939adf0,3,5,6158,,,,,,,,,"<img src= ""rock_img/I_Andesite_14.jpg"" style=""width:8cm; height:5.449999999999999cm;""><p>What type of rock is this?</p>",1,class_response,1,train,12,Basalt,Andesite,14,FALSE,2,1,,,,,,,,,,,,,,,,,
,,,,,,,,,,,html-button-response,129,2.0.0,373330,614b3d6a4f76b8dfc939adf0,3,5,8187,,,,,,,,,"<img src= rock_img/I_Andesite_14.jpg style=""width:8cm; height:5.449999999999999cm;""><p style='font-size: 30px; color: red;'><strong>Incorrect!</strong></p><p style='font-size: 30px;'><strong>This rock is andesite</strong></p>",0,corr_feedback,1,train,12,,,,,,,,,,,,,,,,,,,,,,,
,,,,,,,,,,,instructions,130,2.0.0,420418,614b3d6a4f76b8dfc939adf0,3,5,47085,,,,,,,,"[{""page_index"":0,""viewing_time"":3182},{""page_index"":1,""viewing_time"":19966},{""page_index"":2,""viewing_time"":18937},{""page_index"":3,""viewing_time"":5000}]",,,,,,,,,,,,,,,,,,,,,,,,,,,,,
,,,,,,,,,,,html-button-response,131,2.0.0,421690,614b3d6a4f76b8dfc939adf0,3,5,1268,,,,,,,,,,0,start_train,,,,,,,,,,,,,,,,,,,,,,,,,,
,,,,,,,,,,,html-button-response,132,2.0.0,431178,614b3d6a4f76b8dfc939adf0,3,5,,,,,,,,,,,,cat_selection,1,train,1,,,,,,,3,4,9484.7,Diorite,Gabbro,"[0.13372093023255813,0.15697674418604649,0.15697674418604649,0.15697674418604649,0.017441860465116275,0.11046511627906976,0.11046511627906976,0.15697674418604649]","[0.049806894605324184,0.15310934749349175,null,0.06449552082410676,0.058897754793242864,0.3758023209963254,0.2586817606225214,0.039206400664987484]",,,,,,,,,,
,,,,,,,,,,,paired-cat-display,133,1.0.0,489040,614b3d6a4f76b8dfc939adf0,3,5,,,,,,,,,,,,paired_cat_display,1,train,1,,,,,,,,,13452.3,,,,,Has a snowflake like pattern with varying colors,Looks grainy and cragged,44406.9,,,,,,,
,,,,,,,,,,,html-button-response,134,2.0.0,491610,614b3d6a4f76b8dfc939adf0,3,5,,,,,,,,,,,,cat_selection,1,train,2,,,,,,,3,7,2566.6,Diorite,Peridotite,"[0.13372093023255813,0.15697674418604649,0.15697674418604649,0.15697674418604649,0.017441860465116275,0.11046511627906976,0.11046511627906976,0.15697674418604649]","[0.049806894605324184,0.15310934749349175,null,0.06449552082410676,0.058897754793242864,0.3758023209963254,0.2586817606225214,0.039206400664987484]",,,,,,,,,,
,,,,,,,,,,,paired-cat-display,135,1.0.0,530768,614b3d6a4f76b8dfc939adf0,3,5,,,,,,,,,,,,paired_cat_display,1,train,2,,,,,,,,,12076.6,,,,,has snowflake like patterns,,27079.3,has a greenish hue,,,,,,
,,,,,,,,,,,html-button-response,136,2.0.0,533059,614b3d6a4f76b8dfc939adf0,3,5,,,,,,,,,,,,cat_selection,1,train,3,,,,,,,2,8,2286.2,Basalt,Pumice,"[0.13372093023255813,0.15697674418604649,0.15697674418604649,0.15697674418604649,0.017441860465116275,0.11046511627906976,0.11046511627906976,0.15697674418604649]","[0.1608448395161266,null,0.25296470987940856,0.05546724245954847,0.05948719634204867,0.04470675984477516,0.26533926488639786,0.1611899870716948]",,,,,,,,,,
,,,,,,,,,,,paired-cat-display,137,1.0.0,581846,614b3d6a4f76b8dfc939adf0,3,5,,,,,,,,,,,,paired_cat_display,1,train,3,,,,,,,,,13596,,,,,,,35190,,Usually dark in color,has circular shaped holes,,,,
,,,,,,,,,,,instructions,138,2.0.0,594506,614b3d6a4f76b8dfc939adf0,3,5,12656,,,,,,,,"[{""page_index"":0,""viewing_time"":3568},{""page_index"":1,""viewing_time"":9088}]",,,,,,,,,,,,,,,,,,,,,,,,,,,,,
,,,,,,,,,,,html-button-response,139,2.0.0,595986,614b3d6a4f76b8dfc939adf0,3,5,1477,,,,,,,,,,0,start_test,,,,,,,,,,,,,,,,,,,,,,,,,,
,,,,,,,,,,,html-button-response,140,2.0.0,616010,614b3d6a4f76b8dfc939adf0,3,5,20019,,,,,,,,,"<img src= ""rock_img/I_Pumice_02.jpg"" style=""width:8cm; height:7.3999999999999995cm;""><p>What type of rock is this?</p>",7,class_response,1,test,1,Pumice,Pumice,2,TRUE,8,8,,,,,,,,,,,,,,,,,
,,,,,,,,,,,html-keyboard-response,141,2.0.0,616513,614b3d6a4f76b8dfc939adf0,3,5,null,,,,,,,,,<p style='font-size: 30px;'><strong>Okay</strong></p>,null,neutral_feedback,1,test,1,,,,,,,,,,,,,,,,,,,,,,,
,,,,,,,,,,,html-button-response,142,2.0.0,644970,614b3d6a4f76b8dfc939adf0,3,5,28453,,,,,,,,,"<img src= ""rock_img/I_Obsidian_07.jpg"" style=""width:8cm; height:4.76cm;""><p>What type of rock is this?</p>",4,class_response,1,test,2,Obsidian,Obsidian,7,TRUE,5,5,,,,,,,,,,,,,,,,,
,,,,,,,,,,,html-keyboard-response,143,2.0.0,645472,614b3d6a4f76b8dfc939adf0,3,5,null,,,,,,,,,<p style='font-size: 30px;'><strong>Okay</strong></p>,null,neutral_feedback,1,test,2,,,,,,,,,,,,,,,,,,,,,,,
,,,,,,,,,,,html-button-response,144,2.0.0,647468,614b3d6a4f76b8dfc939adf0,3,5,1992,,,,,,,,,"<img src= ""rock_img/I_Pumice_06.jpg"" style=""width:8cm; height:6.9399999999999995cm;""><p>What type of rock is this?</p>",7,class_response,1,test,3,Pumice,Pumice,6,TRUE,8,8,,,,,,,,,,,,,,,,,
,,,,,,,,,,,html-keyboard-response,145,2.0.0,647974,614b3d6a4f76b8dfc939adf0,3,5,null,,,,,,,,,<p style='font-size: 30px;'><strong>Okay</strong></p>,null,neutral_feedback,1,test,3,,,,,,,,,,,,,,,,,,,,,,,
,,,,,,,,,,,html-button-response,146,2.0.0,663459,614b3d6a4f76b8dfc939adf0,3,5,15481,,,,,,,,,"<img src= ""rock_img/I_Gabbro_16.jpg"" style=""width:8cm; height:6.44cm;""><p>What type of rock is this?</p>",1,class_response,1,test,4,Basalt,Gabbro,16,FALSE,2,4,,,,,,,,,,,,,,,,,
,,,,,,,,,,,html-keyboard-response,147,2.0.0,663960,614b3d6a4f76b8dfc939adf0,3,5,null,,,,,,,,,<p style='font-size: 30px;'><strong>Okay</strong></p>,null,neutral_feedback,1,test,4,,,,,,,,,,,,,,,,,,,,,,,
,,,,,,,,,,,html-button-response,148,2.0.0,672737,614b3d6a4f76b8dfc939adf0,3,5,8774,,,,,,,,,"<img src= ""rock_img/I_Basalt_11.jpg"" style=""width:8cm; height:5.359999999999999cm;""><p>What type of rock is this?</p>",3,class_response,1,test,5,Gabbro,Basalt,11,FALSE,4,2,,,,,,,,,,,,,,,,,
,,,,,,,,,,,html-keyboard-response,149,2.0.0,673244,614b3d6a4f76b8dfc939adf0,3,5,null,,,,,,,,,<p style='font-size: 30px;'><strong>Okay</strong></p>,null,neutral_feedback,1,test,5,,,,,,,,,,,,,,,,,,,,,,,
,,,,,,,,,,,html-button-response,150,2.0.0,676791,614b3d6a4f76b8dfc939adf0,3,5,3545,,,,,,,,,"<img src= ""rock_img/I_Peridotite_07.jpg"" style=""width:8cm; height:4.83cm;""><p>What type of rock is this?</p>",6,class_response,1,test,6,Peridotite,Peridotite,7,TRUE,7,7,,,,,,,,,,,,,,,,,
,,,,,,,,,,,html-keyboard-response,151,2.0.0,677306,614b3d6a4f76b8dfc939adf0,3,5,null,,,,,,,,,<p style='font-size: 30px;'><strong>Okay</strong></p>,null,neutral_feedback,1,test,6,,,,,,,,,,,,,,,,,,,,,,,
,,,,,,,,,,,html-button-response,152,2.0.0,678794,614b3d6a4f76b8dfc939adf0,3,5,1483,,,,,,,,,"<img src= ""rock_img/I_Obsidian_10.jpg"" style=""width:8cm; height:6.260000000000001cm;""><p>What type of rock is this?</p>",4,class_response,1,test,7,Obsidian,Obsidian,10,TRUE,5,5,,,,,,,,,,,,,,,,,
,,,,,,,,,,,html-keyboard-response,153,2.0.0,679308,614b3d6a4f76b8dfc939adf0,3,5,null,,,,,,,,,<p style='font-size: 30px;'><strong>Okay</strong></p>,null,neutral_feedback,1,test,7,,,,,,,,,,,,,,,,,,,,,,,
,,,,,,,,,,,html-button-response,154,2.0.0,689794,614b3d6a4f76b8dfc939adf0,3,5,10482,,,,,,,,,"<img src= ""rock_img/I_Pumice_13.jpg"" style=""width:8cm; height:8.200000000000001cm;""><p>What type of rock is this?</p>",7,class_response,1,test,8,Pumice,Pumice,13,TRUE,8,8,,,,,,,,,,,,,,,,,
,,,,,,,,,,,html-keyboard-response,155,2.0.0,690296,614b3d6a4f76b8dfc939adf0,3,5,null,,,,,,,,,<p style='font-size: 30px;'><strong>Okay</strong></p>,null,neutral_feedback,1,test,8,,,,,,,,,,,,,,,,,,,,,,,
,,,,,,,,,,,html-button-response,156,2.0.0,692617,614b3d6a4f76b8dfc939adf0,3,5,2317,,,,,,,,,"<img src= ""rock_img/I_Peridotite_06.jpg"" style=""width:8cm; height:7.53cm;""><p>What type of rock is this?</p>",6,class_response,1,test,9,Peridotite,Peridotite,6,TRUE,7,7,,,,,,,,,,,,,,,,,
,,,,,,,,,,,html-keyboard-response,157,2.0.0,693118,614b3d6a4f76b8dfc939adf0,3,5,null,,,,,,,,,<p style='font-size: 30px;'><strong>Okay</strong></p>,null,neutral_feedback,1,test,9,,,,,,,,,,,,,,,,,,,,,,,
,,,,,,,,,,,html-button-response,158,2.0.0,694459,614b3d6a4f76b8dfc939adf0,3,5,1337,,,,,,,,,"<img src= ""rock_img/I_Peridotite_15.jpg"" style=""width:8cm; height:6cm;""><p>What type of rock is this?</p>",6,class_response,1,test,10,Peridotite,Peridotite,15,TRUE,7,7,,,,,,,,,,,,,,,,,
,,,,,,,,,,,html-keyboard-response,159,2.0.0,694964,614b3d6a4f76b8dfc939adf0,3,5,null,,,,,,,,,<p style='font-size: 30px;'><strong>Okay</strong></p>,null,neutral_feedback,1,test,10,,,,,,,,,,,,,,,,,,,,,,,
,,,,,,,,,,,html-button-response,160,2.0.0,709314,614b3d6a4f76b8dfc939adf0,3,5,14345,,,,,,,,,"<img src= ""rock_img/I_Gabbro_01.jpg"" style=""width:8cm; height:5.21cm;""><p>What type of rock is this?</p>",2,class_response,1,test,11,Diorite,Gabbro,1,FALSE,3,4,,,,,,,,,,,,,,,,,
,,,,,,,,,,,html-keyboard-response,161,2.0.0,709821,614b3d6a4f76b8dfc939adf0,3,5,null,,,,,,,,,<p style='font-size: 30px;'><strong>Okay</strong></p>,null,neutral_feedback,1,test,11,,,,,,,,,,,,,,,,,,,,,,,
,,,,,,,,,,,html-button-response,162,2.0.0,711905,614b3d6a4f76b8dfc939adf0,3,5,2080,,,,,,,,,"<img src= ""rock_img/I_Pegmatite_03.jpg"" style=""width:8cm; height:5.239999999999999cm;""><p>What type of rock is this?</p>",4,class_response,1,test,12,Obsidian,Pegmatite,3,FALSE,5,6,,,,,,,,,,,,,,,,,
,,,,,,,,,,,html-keyboard-response,163,2.0.0,712417,614b3d6a4f76b8dfc939adf0,3,5,null,,,,,,,,,<p style='font-size: 30px;'><strong>Okay</strong></p>,null,neutral_feedback,1,test,12,,,,,,,,,,,,,,,,,,,,,,,
,,,,,,,,,,,html-button-response,164,2.0.0,722256,614b3d6a4f76b8dfc939adf0,3,5,9836,,,,,,,,,"<img src= ""rock_img/I_Peridotite_16.jpg"" style=""width:8cm; height:6.989999999999999cm;""><p>What type of rock is this?</p>",6,class_response,1,test,13,Peridotite,Peridotite,16,TRUE,7,7,,,,,,,,,,,,,,,,,
,,,,,,,,,,,html-keyboard-response,165,2.0.0,722766,614b3d6a4f76b8dfc939adf0,3,5,null,,,,,,,,,<p style='font-size: 30px;'><strong>Okay</strong></p>,null,neutral_feedback,1,test,13,,,,,,,,,,,,,,,,,,,,,,,
,,,,,,,,,,,html-button-response,166,2.0.0,726637,614b3d6a4f76b8dfc939adf0,3,5,3867,,,,,,,,,"<img src= ""rock_img/I_Diorite_07.jpg"" style=""width:8cm; height:5.239999999999999cm;""><p>What type of rock is this?</p>",2,class_response,1,test,14,Diorite,Diorite,7,TRUE,3,3,,,,,,,,,,,,,,,,,
,,,,,,,,,,,html-keyboard-response,167,2.0.0,727141,614b3d6a4f76b8dfc939adf0,3,5,null,,,,,,,,,<p style='font-size: 30px;'><strong>Okay</strong></p>,null,neutral_feedback,1,test,14,,,,,,,,,,,,,,,,,,,,,,,
,,,,,,,,,,,html-button-response,168,2.0.0,728474,614b3d6a4f76b8dfc939adf0,3,5,1329,,,,,,,,,"<img src= ""rock_img/I_Pegmatite_12.jpg"" style=""width:8cm; height:5.7cm;""><p>What type of rock is this?</p>",2,class_response,1,test,15,Diorite,Pegmatite,12,FALSE,3,6,,,,,,,,,,,,,,,,,
,,,,,,,,,,,html-keyboard-response,169,2.0.0,728984,614b3d6a4f76b8dfc939adf0,3,5,null,,,,,,,,,<p style='font-size: 30px;'><strong>Okay</strong></p>,null,neutral_feedback,1,test,15,,,,,,,,,,,,,,,,,,,,,,,
,,,,,,,,,,,html-button-response,170,2.0.0,730249,614b3d6a4f76b8dfc939adf0,3,5,1262,,,,,,,,,"<img src= ""rock_img/I_Obsidian_16.jpg"" style=""width:8cm; height:9.3cm;""><p>What type of rock is this?</p>",4,class_response,1,test,16,Obsidian,Obsidian,16,TRUE,5,5,,,,,,,,,,,,,,,,,
,,,,,,,,,,,html-keyboard-response,171,2.0.0,730752,614b3d6a4f76b8dfc939adf0,3,5,null,,,,,,,,,<p style='font-size: 30px;'><strong>Okay</strong></p>,null,neutral_feedback,1,test,16,,,,,,,,,,,,,,,,,,,,,,,
,,,,,,,,,,,html-button-response,172,2.0.0,734842,614b3d6a4f76b8dfc939adf0,3,5,4085,,,,,,,,,"<img src= ""rock_img/I_Basalt_04.jpg"" style=""width:8cm; height:7.53cm;""><p>What type of rock is this?</p>",1,class_response,1,test,17,Basalt,Basalt,4,TRUE,2,2,,,,,,,,,,,,,,,,,
,,,,,,,,,,,html-keyboard-response,173,2.0.0,735343,614b3d6a4f76b8dfc939adf0,3,5,null,,,,,,,,,<p style='font-size: 30px;'><strong>Okay</strong></p>,null,neutral_feedback,1,test,17,,,,,,,,,,,,,,,,,,,,,,,
,,,,,,,,,,,html-button-response,174,2.0.0,738498,614b3d6a4f76b8dfc939adf0,3,5,3152,,,,,,,,,"<img src= ""rock_img/I_Diorite_16.jpg"" style=""width:8cm; height:6.74cm;""><p>What type of rock is this?</p>",2,class_response,1,test,18,Diorite,Diorite,16,TRUE,3,3,,,,,,,,,,,,,,,,,
,,,,,,,,,,,html-keyboard-response,175,2.0.0,739011,614b3d6a4f76b8dfc939adf0,3,5,null,,,,,,,,,<p style='font-size: 30px;'><strong>Okay</strong></p>,null,neutral_feedback,1,test,18,,,,,,,,,,,,,,,,,,,,,,,
,,,,,,,,,,,html-button-response,176,2.0.0,743193,614b3d6a4f76b8dfc939adf0,3,5,4177,,,,,,,,,"<img src= ""rock_img/I_Andesite_01.jpg"" style=""width:8cm; height:5.87cm;""><p>What type of rock is this?</p>",2,class_response,1,test,19,Diorite,Andesite,1,FALSE,3,1,,,,,,,,,,,,,,,,,
,,,,,,,,,,,html-keyboard-response,177,2.0.0,743695,614b3d6a4f76b8dfc939adf0,3,5,null,,,,,,,,,<p style='font-size: 30px;'><strong>Okay</strong></p>,null,neutral_feedback,1,test,19,,,,,,,,,,,,,,,,,,,,,,,
,,,,,,,,,,,html-button-response,178,2.0.0,747946,614b3d6a4f76b8dfc939adf0,3,5,4247,,,,,,,,,"<img src= ""rock_img/I_Andesite_03.jpg"" style=""width:8cm; height:5.73cm;""><p>What type of rock is this?</p>",2,class_response,1,test,20,Diorite,Andesite,3,FALSE,3,1,,,,,,,,,,,,,,,,,
,,,,,,,,,,,html-keyboard-response,179,2.0.0,748452,614b3d6a4f76b8dfc939adf0,3,5,null,,,,,,,,,<p style='font-size: 30px;'><strong>Okay</strong></p>,null,neutral_feedback,1,test,20,,,,,,,,,,,,,,,,,,,,,,,
,,,,,,,,,,,html-button-response,180,2.0.0,750088,614b3d6a4f76b8dfc939adf0,3,5,1633,,,,,,,,,"<img src= ""rock_img/I_Peridotite_02.jpg"" style=""width:8cm; height:5.859999999999999cm;""><p>What type of rock is this?</p>",6,class_response,1,test,21,Peridotite,Peridotite,2,TRUE,7,7,,,,,,,,,,,,,,,,,
,,,,,,,,,,,html-keyboard-response,181,2.0.0,750595,614b3d6a4f76b8dfc939adf0,3,5,null,,,,,,,,,<p style='font-size: 30px;'><strong>Okay</strong></p>,null,neutral_feedback,1,test,21,,,,,,,,,,,,,,,,,,,,,,,
,,,,,,,,,,,html-button-response,182,2.0.0,754824,614b3d6a4f76b8dfc939adf0,3,5,4226,,,,,,,,,"<img src= ""rock_img/I_Andesite_02.jpg"" style=""width:8cm; height:8.5cm;""><p>What type of rock is this?</p>",2,class_response,1,test,22,Diorite,Andesite,2,FALSE,3,1,,,,,,,,,,,,,,,,,
,,,,,,,,,,,html-keyboard-response,183,2.0.0,755329,614b3d6a4f76b8dfc939adf0,3,5,null,,,,,,,,,<p style='font-size: 30px;'><strong>Okay</strong></p>,null,neutral_feedback,1,test,22,,,,,,,,,,,,,,,,,,,,,,,
,,,,,,,,,,,html-button-response,184,2.0.0,759560,614b3d6a4f76b8dfc939adf0,3,5,4229,,,,,,,,,"<img src= ""rock_img/I_Andesite_06.jpg"" style=""width:8cm; height:6.840000000000001cm;""><p>What type of rock is this?</p>",2,class_response,1,test,23,Diorite,Andesite,6,FALSE,3,1,,,,,,,,,,,,,,,,,
,,,,,,,,,,,html-keyboard-response,185,2.0.0,760062,614b3d6a4f76b8dfc939adf0,3,5,null,,,,,,,,,<p style='font-size: 30px;'><strong>Okay</strong></p>,null,neutral_feedback,1,test,23,,,,,,,,,,,,,,,,,,,,,,,
,,,,,,,,,,,html-button-response,186,2.0.0,761576,614b3d6a4f76b8dfc939adf0,3,5,1511,,,,,,,,,"<img src= ""rock_img/I_Diorite_12.jpg"" style=""width:8cm; height:4.88cm;""><p>What type of rock is this?</p>",2,class_response,1,test,24,Diorite,Diorite,12,TRUE,3,3,,,,,,,,,,,,,,,,,
,,,,,,,,,,,html-keyboard-response,187,2.0.0,762081,614b3d6a4f76b8dfc939adf0,3,5,null,,,,,,,,,<p style='font-size: 30px;'><strong>Okay</strong></p>,null,neutral_feedback,1,test,24,,,,,,,,,,,,,,,,,,,,,,,
,,,,,,,,,,,html-button-response,188,2.0.0,767720,614b3d6a4f76b8dfc939adf0,3,5,5636,,,,,,,,,"<img src= ""rock_img/I_Andesite_09.jpg"" style=""width:8cm; height:6cm;""><p>What type of rock is this?</p>",2,class_response,1,test,25,Diorite,Andesite,9,FALSE,3,1,,,,,,,,,,,,,,,,,
,,,,,,,,,,,html-keyboard-response,189,2.0.0,768224,614b3d6a4f76b8dfc939adf0,3,5,null,,,,,,,,,<p style='font-size: 30px;'><strong>Okay</strong></p>,null,neutral_feedback,1,test,25,,,,,,,,,,,,,,,,,,,,,,,
,,,,,,,,,,,html-button-response,190,2.0.0,781418,614b3d6a4f76b8dfc939adf0,3,5,13190,,,,,,,,,"<img src= ""rock_img/I_Diorite_15.jpg"" style=""width:8cm; height:5.54cm;""><p>What type of rock is this?</p>",2,class_response,1,test,26,Diorite,Diorite,15,TRUE,3,3,,,,,,,,,,,,,,,,,
,,,,,,,,,,,html-keyboard-response,191,2.0.0,781927,614b3d6a4f76b8dfc939adf0,3,5,null,,,,,,,,,<p style='font-size: 30px;'><strong>Okay</strong></p>,null,neutral_feedback,1,test,26,,,,,,,,,,,,,,,,,,,,,,,
,,,,,,,,,,,html-button-response,192,2.0.0,783636,614b3d6a4f76b8dfc939adf0,3,5,1705,,,,,,,,,"<img src= ""rock_img/I_Peridotite_10.jpg"" style=""width:8cm; height:5.390000000000001cm;""><p>What type of rock is this?</p>",6,class_response,1,test,27,Peridotite,Peridotite,10,TRUE,7,7,,,,,,,,,,,,,,,,,
,,,,,,,,,,,html-keyboard-response,193,2.0.0,784141,614b3d6a4f76b8dfc939adf0,3,5,null,,,,,,,,,<p style='font-size: 30px;'><strong>Okay</strong></p>,null,neutral_feedback,1,test,27,,,,,,,,,,,,,,,,,,,,,,,
,,,,,,,,,,,html-button-response,194,2.0.0,787776,614b3d6a4f76b8dfc939adf0,3,5,3633,,,,,,,,,"<img src= ""rock_img/I_Gabbro_03.jpg"" style=""width:8cm; height:8.52cm;""><p>What type of rock is this?</p>",2,class_response,1,test,28,Diorite,Gabbro,3,FALSE,3,4,,,,,,,,,,,,,,,,,
,,,,,,,,,,,html-keyboard-response,195,2.0.0,788279,614b3d6a4f76b8dfc939adf0,3,5,null,,,,,,,,,<p style='font-size: 30px;'><strong>Okay</strong></p>,null,neutral_feedback,1,test,28,,,,,,,,,,,,,,,,,,,,,,,
,,,,,,,,,,,html-button-response,196,2.0.0,789456,614b3d6a4f76b8dfc939adf0,3,5,1174,,,,,,,,,"<img src= ""rock_img/I_Diorite_11.jpg"" style=""width:8cm; height:7.11cm;""><p>What type of rock is this?</p>",2,class_response,1,test,29,Diorite,Diorite,11,TRUE,3,3,,,,,,,,,,,,,,,,,
,,,,,,,,,,,html-keyboard-response,197,2.0.0,789970,614b3d6a4f76b8dfc939adf0,3,5,null,,,,,,,,,<p style='font-size: 30px;'><strong>Okay</strong></p>,null,neutral_feedback,1,test,29,,,,,,,,,,,,,,,,,,,,,,,
,,,,,,,,,,,html-button-response,198,2.0.0,791546,614b3d6a4f76b8dfc939adf0,3,5,1571,,,,,,,,,"<img src= ""rock_img/I_Obsidian_05.jpg"" style=""width:8cm; height:6.33cm;""><p>What type of rock is this?</p>",4,class_response,1,test,30,Obsidian,Obsidian,5,TRUE,5,5,,,,,,,,,,,,,,,,,
,,,,,,,,,,,html-keyboard-response,199,2.0.0,792050,614b3d6a4f76b8dfc939adf0,3,5,null,,,,,,,,,<p style='font-size: 30px;'><strong>Okay</strong></p>,null,neutral_feedback,1,test,30,,,,,,,,,,,,,,,,,,,,,,,
,,,,,,,,,,,html-button-response,200,2.0.0,793011,614b3d6a4f76b8dfc939adf0,3,5,957,,,,,,,,,"<img src= ""rock_img/I_Obsidian_11.jpg"" style=""width:8cm; height:6.05cm;""><p>What type of rock is this?</p>",4,class_response,1,test,31,Obsidian,Obsidian,11,TRUE,5,5,,,,,,,,,,,,,,,,,
,,,,,,,,,,,html-keyboard-response,201,2.0.0,793516,614b3d6a4f76b8dfc939adf0,3,5,null,,,,,,,,,<p style='font-size: 30px;'><strong>Okay</strong></p>,null,neutral_feedback,1,test,31,,,,,,,,,,,,,,,,,,,,,,,
,,,,,,,,,,,html-button-response,202,2.0.0,800129,614b3d6a4f76b8dfc939adf0,3,5,6610,,,,,,,,,"<img src= ""rock_img/I_Basalt_16.jpg"" style=""width:8cm; height:7.659999999999999cm;""><p>What type of rock is this?</p>",1,class_response,1,test,32,Basalt,Basalt,16,TRUE,2,2,,,,,,,,,,,,,,,,,
,,,,,,,,,,,html-keyboard-response,203,2.0.0,800630,614b3d6a4f76b8dfc939adf0,3,5,null,,,,,,,,,<p style='font-size: 30px;'><strong>Okay</strong></p>,null,neutral_feedback,1,test,32,,,,,,,,,,,,,,,,,,,,,,,
,,,,,,,,,,,html-button-response,204,2.0.0,803337,614b3d6a4f76b8dfc939adf0,3,5,2703,,,,,,,,,"<img src= ""rock_img/I_Basalt_01.jpg"" style=""width:8cm; height:7.880000000000001cm;""><p>What type of rock is this?</p>",1,class_response,1,test,33,Basalt,Basalt,1,TRUE,2,2,,,,,,,,,,,,,,,,,
,,,,,,,,,,,html-keyboard-response,205,2.0.0,803842,614b3d6a4f76b8dfc939adf0,3,5,null,,,,,,,,,<p style='font-size: 30px;'><strong>Okay</strong></p>,null,neutral_feedback,1,test,33,,,,,,,,,,,,,,,,,,,,,,,
,,,,,,,,,,,html-button-response,206,2.0.0,805233,614b3d6a4f76b8dfc939adf0,3,5,1387,,,,,,,,,"<img src= ""rock_img/I_Pumice_09.jpg"" style=""width:8cm; height:6.44cm;""><p>What type of rock is this?</p>",7,class_response,1,test,34,Pumice,Pumice,9,TRUE,8,8,,,,,,,,,,,,,,,,,
,,,,,,,,,,,html-keyboard-response,207,2.0.0,805746,614b3d6a4f76b8dfc939adf0,3,5,null,,,,,,,,,<p style='font-size: 30px;'><strong>Okay</strong></p>,null,neutral_feedback,1,test,34,,,,,,,,,,,,,,,,,,,,,,,
,,,,,,,,,,,html-button-response,208,2.0.0,808921,614b3d6a4f76b8dfc939adf0,3,5,3172,,,,,,,,,"<img src= ""rock_img/I_Basalt_12.jpg"" style=""width:8cm; height:6.010000000000001cm;""><p>What type of rock is this?</p>",7,class_response,1,test,35,Pumice,Basalt,12,FALSE,8,2,,,,,,,,,,,,,,,,,
,,,,,,,,,,,html-keyboard-response,209,2.0.0,809431,614b3d6a4f76b8dfc939adf0,3,5,null,,,,,,,,,<p style='font-size: 30px;'><strong>Okay</strong></p>,null,neutral_feedback,1,test,35,,,,,,,,,,,,,,,,,,,,,,,
,,,,,,,,,,,html-button-response,210,2.0.0,810842,614b3d6a4f76b8dfc939adf0,3,5,1407,,,,,,,,,"<img src= ""rock_img/I_Obsidian_09.jpg"" style=""width:8cm; height:5cm;""><p>What type of rock is this?</p>",4,class_response,1,test,36,Obsidian,Obsidian,9,TRUE,5,5,,,,,,,,,,,,,,,,,
,,,,,,,,,,,html-keyboard-response,211,2.0.0,811356,614b3d6a4f76b8dfc939adf0,3,5,null,,,,,,,,,<p style='font-size: 30px;'><strong>Okay</strong></p>,null,neutral_feedback,1,test,36,,,,,,,,,,,,,,,,,,,,,,,
,,,,,,,,,,,html-button-response,212,2.0.0,813169,614b3d6a4f76b8dfc939adf0,3,5,1810,,,,,,,,,"<img src= ""rock_img/I_Gabbro_15.jpg"" style=""width:8cm; height:6.29cm;""><p>What type of rock is this?</p>",2,class_response,1,test,37,Diorite,Gabbro,15,FALSE,3,4,,,,,,,,,,,,,,,,,
,,,,,,,,,,,html-keyboard-response,213,2.0.0,813684,614b3d6a4f76b8dfc939adf0,3,5,null,,,,,,,,,<p style='font-size: 30px;'><strong>Okay</strong></p>,null,neutral_feedback,1,test,37,,,,,,,,,,,,,,,,,,,,,,,
,,,,,,,,,,,html-button-response,214,2.0.0,824992,614b3d6a4f76b8dfc939adf0,3,5,11306,,,,,,,,,"<img src= ""rock_img/I_Andesite_11.jpg"" style=""width:8cm; height:4.92cm;""><p>What type of rock is this?</p>",3,class_response,1,test,38,Gabbro,Andesite,11,FALSE,4,1,,,,,,,,,,,,,,,,,
,,,,,,,,,,,html-keyboard-response,215,2.0.0,825505,614b3d6a4f76b8dfc939adf0,3,5,null,,,,,,,,,<p style='font-size: 30px;'><strong>Okay</strong></p>,null,neutral_feedback,1,test,38,,,,,,,,,,,,,,,,,,,,,,,
,,,,,,,,,,,html-button-response,216,2.0.0,827514,614b3d6a4f76b8dfc939adf0,3,5,2005,,,,,,,,,"<img src= ""rock_img/I_Pegmatite_07.jpg"" style=""width:8cm; height:6.7cm;""><p>What type of rock is this?</p>",2,class_response,1,test,39,Diorite,Pegmatite,7,FALSE,3,6,,,,,,,,,,,,,,,,,
,,,,,,,,,,,html-keyboard-response,217,2.0.0,828015,614b3d6a4f76b8dfc939adf0,3,5,null,,,,,,,,,<p style='font-size: 30px;'><strong>Okay</strong></p>,null,neutral_feedback,1,test,39,,,,,,,,,,,,,,,,,,,,,,,
,,,,,,,,,,,html-button-response,218,2.0.0,828929,614b3d6a4f76b8dfc939adf0,3,5,911,,,,,,,,,"<img src= ""rock_img/I_Diorite_09.jpg"" style=""width:8cm; height:5.27cm;""><p>What type of rock is this?</p>",2,class_response,1,test,40,Diorite,Diorite,9,TRUE,3,3,,,,,,,,,,,,,,,,,
,,,,,,,,,,,html-keyboard-response,219,2.0.0,829442,614b3d6a4f76b8dfc939adf0,3,5,null,,,,,,,,,<p style='font-size: 30px;'><strong>Okay</strong></p>,null,neutral_feedback,1,test,40,,,,,,,,,,,,,,,,,,,,,,,
,,,,,,,,,,,html-button-response,220,2.0.0,830625,614b3d6a4f76b8dfc939adf0,3,5,1181,,,,,,,,,"<img src= ""rock_img/I_Pumice_05.jpg"" style=""width:8cm; height:7.25cm;""><p>What type of rock is this?</p>",7,class_response,1,test,41,Pumice,Pumice,5,TRUE,8,8,,,,,,,,,,,,,,,,,
,,,,,,,,,,,html-keyboard-response,221,2.0.0,831134,614b3d6a4f76b8dfc939adf0,3,5,null,,,,,,,,,<p style='font-size: 30px;'><strong>Okay</strong></p>,null,neutral_feedback,1,test,41,,,,,,,,,,,,,,,,,,,,,,,
,,,,,,,,,,,html-button-response,222,2.0.0,837179,614b3d6a4f76b8dfc939adf0,3,5,6042,,,,,,,,,"<img src= ""rock_img/I_Gabbro_05.jpg"" style=""width:8cm; height:6cm;""><p>What type of rock is this?</p>",2,class_response,1,test,42,Diorite,Gabbro,5,FALSE,3,4,,,,,,,,,,,,,,,,,
,,,,,,,,,,,html-keyboard-response,223,2.0.0,837685,614b3d6a4f76b8dfc939adf0,3,5,null,,,,,,,,,<p style='font-size: 30px;'><strong>Okay</strong></p>,null,neutral_feedback,1,test,42,,,,,,,,,,,,,,,,,,,,,,,
,,,,,,,,,,,html-button-response,224,2.0.0,839324,614b3d6a4f76b8dfc939adf0,3,5,1634,,,,,,,,,"<img src= ""rock_img/I_Pegmatite_11.jpg"" style=""width:8cm; height:8.14cm;""><p>What type of rock is this?</p>",4,class_response,1,test,43,Obsidian,Pegmatite,11,FALSE,5,6,,,,,,,,,,,,,,,,,
,,,,,,,,,,,html-keyboard-response,225,2.0.0,839824,614b3d6a4f76b8dfc939adf0,3,5,null,,,,,,,,,<p style='font-size: 30px;'><strong>Okay</strong></p>,null,neutral_feedback,1,test,43,,,,,,,,,,,,,,,,,,,,,,,
,,,,,,,,,,,html-button-response,226,2.0.0,841819,614b3d6a4f76b8dfc939adf0,3,5,1991,,,,,,,,,"<img src= ""rock_img/I_Pegmatite_16.jpg"" style=""width:8cm; height:5.8cm;""><p>What type of rock is this?</p>",2,class_response,1,test,44,Diorite,Pegmatite,16,FALSE,3,6,,,,,,,,,,,,,,,,,
,,,,,,,,,,,html-keyboard-response,227,2.0.0,842329,614b3d6a4f76b8dfc939adf0,3,5,null,,,,,,,,,<p style='font-size: 30px;'><strong>Okay</strong></p>,null,neutral_feedback,1,test,44,,,,,,,,,,,,,,,,,,,,,,,
,,,,,,,,,,,html-button-response,228,2.0.0,850538,614b3d6a4f76b8dfc939adf0,3,5,8204,,,,,,,,,"<img src= ""rock_img/I_Gabbro_08.jpg"" style=""width:8cm; height:5.15cm;""><p>What type of rock is this?</p>",7,class_response,1,test,45,Pumice,Gabbro,8,FALSE,8,4,,,,,,,,,,,,,,,,,
,,,,,,,,,,,html-keyboard-response,229,2.0.0,851048,614b3d6a4f76b8dfc939adf0,3,5,null,,,,,,,,,<p style='font-size: 30px;'><strong>Okay</strong></p>,null,neutral_feedback,1,test,45,,,,,,,,,,,,,,,,,,,,,,,
,,,,,,,,,,,html-button-response,230,2.0.0,862890,614b3d6a4f76b8dfc939adf0,3,5,11838,,,,,,,,,"<img src= ""rock_img/I_Pegmatite_09.jpg"" style=""width:8cm; height:4.03cm;""><p>What type of rock is this?</p>",0,class_response,1,test,46,Andesite,Pegmatite,9,FALSE,1,6,,,,,,,,,,,,,,,,,
,,,,,,,,,,,html-keyboard-response,231,2.0.0,863398,614b3d6a4f76b8dfc939adf0,3,5,null,,,,,,,,,<p style='font-size: 30px;'><strong>Okay</strong></p>,null,neutral_feedback,1,test,46,,,,,,,,,,,,,,,,,,,,,,,
,,,,,,,,,,,html-button-response,232,2.0.0,864801,614b3d6a4f76b8dfc939adf0,3,5,1400,,,,,,,,,"<img src= ""rock_img/I_Pumice_10.jpg"" style=""width:8cm; height:7.609999999999999cm;""><p>What type of rock is this?</p>",7,class_response,1,test,47,Pumice,Pumice,10,TRUE,8,8,,,,,,,,,,,,,,,,,
,,,,,,,,,,,html-keyboard-response,233,2.0.0,865306,614b3d6a4f76b8dfc939adf0,3,5,null,,,,,,,,,<p style='font-size: 30px;'><strong>Okay</strong></p>,null,neutral_feedback,1,test,47,,,,,,,,,,,,,,,,,,,,,,,
,,,,,,,,,,,html-button-response,234,2.0.0,870744,614b3d6a4f76b8dfc939adf0,3,5,5436,,,,,,,,,"<img src= ""rock_img/I_Basalt_02.jpg"" style=""width:8cm; height:6.45cm;""><p>What type of rock is this?</p>",3,class_response,1,test,48,Gabbro,Basalt,2,FALSE,4,2,,,,,,,,,,,,,,,,,
,,,,,,,,,,,html-keyboard-response,235,2.0.0,871253,614b3d6a4f76b8dfc939adf0,3,5,null,,,,,,,,,<p style='font-size: 30px;'><strong>Okay</strong></p>,null,neutral_feedback,1,test,48,,,,,,,,,,,,,,,,,,,,,,,
,,,,,,,,,,,html-button-response,236,2.0.0,895922,614b3d6a4f76b8dfc939adf0,3,5,,,,,,,,,,,,cycle_feedback,,,,,,,,,,,,,,,,,,,,,,,7326.3,17335.9,,
,,,,,,,,,,,html-button-response,238,2.0.0,897226,614b3d6a4f76b8dfc939adf0,3,5,1300,,,,,,,,,,0,start_train,,,,,,,,,,,,,,,,,,,,,,,,,,
,,,,,,,,,,,html-button-response,240,2.0.0,900930,614b3d6a4f76b8dfc939adf0,3,5,3700,,,,,,,,,"<img src= ""rock_img/I_Basalt_09.jpg"" style=""width:8cm; height:6.2cm;""><p>What type of rock is this?</p>",3,class_response,2,train,1,Gabbro,Basalt,9,FALSE,4,2,,,,,,,,,,,,,,,,,
,,,,,,,,,,,html-button-response,241,2.0.0,902308,614b3d6a4f76b8dfc939adf0,3,5,1375,,,,,,,,,"<img src= rock_img/I_Basalt_09.jpg style=""width:8cm; height:6.2cm;""><p style='font-size: 30px; color: red;'><strong>Incorrect!</strong></p><p style='font-size: 30px;'><strong>This rock is basalt</strong></p>",0,corr_feedback,2,train,1,,,,,,,,,,,,,,,,,,,,,,,
,,,,,,,,,,,html-button-response,242,2.0.0,904001,614b3d6a4f76b8dfc939adf0,3,5,1691,,,,,,,,,"<img src= ""rock_img/I_Pegmatite_05.jpg"" style=""width:8cm; height:7.300000000000001cm;""><p>What type of rock is this?</p>",4,class_response,2,train,2,Obsidian,Pegmatite,5,FALSE,5,6,,,,,,,,,,,,,,,,,
,,,,,,,,,,,html-button-response,243,2.0.0,904882,614b3d6a4f76b8dfc939adf0,3,5,877,,,,,,,,,"<img src= rock_img/I_Pegmatite_05.jpg style=""width:8cm; height:7.300000000000001cm;""><p style='font-size: 30px; color: red;'><strong>Incorrect!</strong></p><p style='font-size: 30px;'><strong>This rock is pegmatite</strong></p>",0,corr_feedback,2,train,2,,,,,,,,,,,,,,,,,,,,,,,
,,,,,,,,,,,html-button-response,244,2.0.0,906522,614b3d6a4f76b8dfc939adf0,3,5,1637,,,,,,,,,"<img src= ""rock_img/I_Pumice_14.jpg"" style=""width:8cm; height:6.39cm;""><p>What type of rock is this?</p>",7,class_response,2,train,3,Pumice,Pumice,14,TRUE,8,8,,,,,,,,,,,,,,,,,
,,,,,,,,,,,html-button-response,245,2.0.0,907458,614b3d6a4f76b8dfc939adf0,3,5,933,,,,,,,,,"<img src= rock_img/I_Pumice_14.jpg style=""width:8cm; height:6.39cm;""><p style='font-size: 30px; color: green;'><strong>Correct!</strong></p><p style='font-size: 30px;'><strong>This rock is pumice</strong></p>",0,corr_feedback,2,train,3,,,,,,,,,,,,,,,,,,,,,,,
,,,,,,,,,,,html-button-response,246,2.0.0,909225,614b3d6a4f76b8dfc939adf0,3,5,1764,,,,,,,,,"<img src= ""rock_img/I_Andesite_14.jpg"" style=""width:8cm; height:5.449999999999999cm;""><p>What type of rock is this?</p>",2,class_response,2,train,4,Diorite,Andesite,14,FALSE,3,1,,,,,,,,,,,,,,,,,
,,,,,,,,,,,html-button-response,247,2.0.0,910164,614b3d6a4f76b8dfc939adf0,3,5,936,,,,,,,,,"<img src= rock_img/I_Andesite_14.jpg style=""width:8cm; height:5.449999999999999cm;""><p style='font-size: 30px; color: red;'><strong>Incorrect!</strong></p><p style='font-size: 30px;'><strong>This rock is andesite</strong></p>",0,corr_feedback,2,train,4,,,,,,,,,,,,,,,,,,,,,,,
,,,,,,,,,,,html-button-response,248,2.0.0,913682,614b3d6a4f76b8dfc939adf0,3,5,3514,,,,,,,,,"<img src= ""rock_img/I_Gabbro_11.jpg"" style=""width:8cm; height:6.2cm;""><p>What type of rock is this?</p>",2,class_response,2,train,5,Diorite,Gabbro,11,FALSE,3,4,,,,,,,,,,,,,,,,,
,,,,,,,,,,,html-button-response,249,2.0.0,914546,614b3d6a4f76b8dfc939adf0,3,5,861,,,,,,,,,"<img src= rock_img/I_Gabbro_11.jpg style=""width:8cm; height:6.2cm;""><p style='font-size: 30px; color: red;'><strong>Incorrect!</strong></p><p style='font-size: 30px;'><strong>This rock is gabbro</strong></p>",0,corr_feedback,2,train,5,,,,,,,,,,,,,,,,,,,,,,,
,,,,,,,,,,,html-button-response,250,2.0.0,915930,614b3d6a4f76b8dfc939adf0,3,5,1381,,,,,,,,,"<img src= ""rock_img/I_Peridotite_08.jpg"" style=""width:8cm; height:6.7cm;""><p>What type of rock is this?</p>",3,class_response,2,train,6,Gabbro,Peridotite,8,FALSE,4,7,,,,,,,,,,,,,,,,,
,,,,,,,,,,,html-button-response,251,2.0.0,916690,614b3d6a4f76b8dfc939adf0,3,5,757,,,,,,,,,"<img src= rock_img/I_Peridotite_08.jpg style=""width:8cm; height:6.7cm;""><p style='font-size: 30px; color: red;'><strong>Incorrect!</strong></p><p style='font-size: 30px;'><strong>This rock is peridotite</strong></p>",0,corr_feedback,2,train,6,,,,,,,,,,,,,,,,,,,,,,,
,,,,,,,,,,,html-button-response,252,2.0.0,918257,614b3d6a4f76b8dfc939adf0,3,5,1564,,,,,,,,,"<img src= ""rock_img/I_Pegmatite_13.jpg"" style=""width:8cm; height:4.95cm;""><p>What type of rock is this?</p>",6,class_response,2,train,7,Peridotite,Pegmatite,13,FALSE,7,6,,,,,,,,,,,,,,,,,
,,,,,,,,,,,html-button-response,253,2.0.0,919108,614b3d6a4f76b8dfc939adf0,3,5,848,,,,,,,,,"<img src= rock_img/I_Pegmatite_13.jpg style=""width:8cm; height:4.95cm;""><p style='font-size: 30px; color: red;'><strong>Incorrect!</strong></p><p style='font-size: 30px;'><strong>This rock is pegmatite</strong></p>",0,corr_feedback,2,train,7,,,,,,,,,,,,,,,,,,,,,,,
,,,,,,,,,,,html-button-response,254,2.0.0,920489,614b3d6a4f76b8dfc939adf0,3,5,1377,,,,,,,,,"<img src= ""rock_img/I_Diorite_14.jpg"" style=""width:8cm; height:5.71cm;""><p>What type of rock is this?</p>",2,class_response,2,train,8,Diorite,Diorite,14,TRUE,3,3,,,,,,,,,,,,,,,,,
,,,,,,,,,,,html-button-response,255,2.0.0,921539,614b3d6a4f76b8dfc939adf0,3,5,1046,,,,,,,,,"<img src= rock_img/I_Diorite_14.jpg style=""width:8cm; height:5.71cm;""><p style='font-size: 30px; color: green;'><strong>Correct!</strong></p><p style='font-size: 30px;'><strong>This rock is diorite</strong></p>",0,corr_feedback,2,train,8,,,,,,,,,,,,,,,,,,,,,,,
,,,,,,,,,,,html-button-response,256,2.0.0,922753,614b3d6a4f76b8dfc939adf0,3,5,1211,,,,,,,,,"<img src= ""rock_img/I_Obsidian_04.jpg"" style=""width:8cm; height:6.930000000000001cm;""><p>What type of rock is this?</p>",4,class_response,2,train,9,Obsidian,Obsidian,4,TRUE,5,5,,,,,,,,,,,,,,,,,
,,,,,,,,,,,html-button-response,257,2.0.0,923578,614b3d6a4f76b8dfc939adf0,3,5,821,,,,,,,,,"<img src= rock_img/I_Obsidian_04.jpg style=""width:8cm; height:6.930000000000001cm;""><p style='font-size: 30px; color: green;'><strong>Correct!</strong></p><p style='font-size: 30px;'><strong>This rock is obsidian</strong></p>",0,corr_feedback,2,train,9,,,,,,,,,,,,,,,,,,,,,,,
,,,,,,,,,,,html-button-response,258,2.0.0,925345,614b3d6a4f76b8dfc939adf0,3,5,1764,,,,,,,,,"<img src= ""rock_img/I_Pumice_16.jpg"" style=""width:8cm; height:6.79cm;""><p>What type of rock is this?</p>",7,class_response,2,train,10,Pumice,Pumice,16,TRUE,8,8,,,,,,,,,,,,,,,,,
,,,,,,,,,,,html-button-response,259,2.0.0,926171,614b3d6a4f76b8dfc939adf0,3,5,823,,,,,,,,,"<img src= rock_img/I_Pumice_16.jpg style=""width:8cm; height:6.79cm;""><p style='font-size: 30px; color: green;'><strong>Correct!</strong></p><p style='font-size: 30px;'><strong>This rock is pumice</strong></p>",0,corr_feedback,2,train,10,,,,,,,,,,,,,,,,,,,,,,,
,,,,,,,,,,,html-button-response,260,2.0.0,927521,614b3d6a4f76b8dfc939adf0,3,5,1347,,,,,,,,,"<img src= ""rock_img/I_Basalt_10.jpg"" style=""width:8cm; height:5.85cm;""><p>What type of rock is this?</p>",4,class_response,2,train,11,Obsidian,Basalt,10,FALSE,5,2,,,,,,,,,,,,,,,,,
,,,,,,,,,,,html-button-response,261,2.0.0,928482,614b3d6a4f76b8dfc939adf0,3,5,958,,,,,,,,,"<img src= rock_img/I_Basalt_10.jpg style=""width:8cm; height:5.85cm;""><p style='font-size: 30px; color: red;'><strong>Incorrect!</strong></p><p style='font-size: 30px;'><strong>This rock is basalt</strong></p>",0,corr_feedback,2,train,11,,,,,,,,,,,,,,,,,,,,,,,
,,,,,,,,,,,html-button-response,262,2.0.0,929962,614b3d6a4f76b8dfc939adf0,3,5,1477,,,,,,,,,"<img src= ""rock_img/I_Diorite_06.jpg"" style=""width:8cm; height:6.03cm;""><p>What type of rock is this?</p>",2,class_response,2,train,12,Diorite,Diorite,6,TRUE,3,3,,,,,,,,,,,,,,,,,
,,,,,,,,,,,html-button-response,263,2.0.0,930778,614b3d6a4f76b8dfc939adf0,3,5,812,,,,,,,,,"<img src= rock_img/I_Diorite_06.jpg style=""width:8cm; height:6.03cm;""><p style='font-size: 30px; color: green;'><strong>Correct!</strong></p><p style='font-size: 30px;'><strong>This rock is diorite</strong></p>",0,corr_feedback,2,train,12,,,,,,,,,,,,,,,,,,,,,,,
,,,,,,,,,,,html-button-response,265,2.0.0,931978,614b3d6a4f76b8dfc939adf0,3,5,1197,,,,,,,,,,0,start_train,,,,,,,,,,,,,,,,,,,,,,,,,,
,,,,,,,,,,,html-button-response,266,2.0.0,934645,614b3d6a4f76b8dfc939adf0,3,5,,,,,,,,,,,,cat_selection,2,train,1,,,,,,,3,4,2662.6,Diorite,Gabbro,"[0.19286724674139918,0.147776206062449,0.09125861473177867,0.20429379739311934,0.022699310821457704,0.18144069608967903,0.06840551342833837,0.09125861473177867]","[0.049806894605324184,0.15310934749349175,null,0.06449552082410676,0.058897754793242864,0.3758023209963254,0.2586817606225214,0.039206400664987484]",,,,,,,,,,
,,,,,,,,,,,paired-cat-display,267,1.0.0,973415,614b3d6a4f76b8dfc939adf0,3,5,,,,,,,,,,,,paired_cat_display,2,train,1,,,,,,,,,5641.1,,,,,has snowflake like patterns ,dark craggly shape,33127.3,,,,,,,
,,,,,,,,,,,html-button-response,268,2.0.0,975005,614b3d6a4f76b8dfc939adf0,3,5,,,,,,,,,,,,cat_selection,2,train,2,,,,,,,1,3,1585,Andesite,Diorite,"[0.19286724674139918,0.147776206062449,0.09125861473177867,0.20429379739311934,0.022699310821457704,0.18144069608967903,0.06840551342833837,0.09125861473177867]","[null,0.08856316635553696,0.4438626247663791,0.1727402847810117,0.02939034919931524,0.08353859804287304,0.028541669714642635,0.15336330714024118]",,,,,,,,,,
,,,,,,,,,,,paired-cat-display,269,1.0.0,1030319,614b3d6a4f76b8dfc939adf0,3,5,,,,,,,,,,,,paired_cat_display,2,train,2,,,,,,,,,13992.3,,,,,speckled flakes are smaller,,41319.2,,,,,,has speckled flakes,
,,,,,,,,,,,html-button-response,270,2.0.0,1031834,614b3d6a4f76b8dfc939adf0,3,5,,,,,,,,,,,,cat_selection,2,train,3,,,,,,,3,6,1511.8,Diorite,Pegmatite,"[0.19286724674139918,0.147776206062449,0.09125861473177867,0.20429379739311934,0.022699310821457704,0.18144069608967903,0.06840551342833837,0.09125861473177867]","[0.049806894605324184,0.15310934749349175,null,0.06449552082410676,0.058897754793242864,0.3758023209963254,0.2586817606225214,0.039206400664987484]",,,,,,,,,,
,,,,,,,,,,,paired-cat-display,271,1.0.0,1093951,614b3d6a4f76b8dfc939adf0,3,5,,,,,,,,,,,,paired_cat_display,2,train,3,,,,,,,,,12535.7,,,,,snowflake like pattern,,49580.5,,,,,,,"usually has three different colors, in different patterns"
,,,,,,,,,,,html-button-response,273,2.0.0,1095354,614b3d6a4f76b8dfc939adf0,3,5,1399,,,,,,,,,,0,start_test,,,,,,,,,,,,,,,,,,,,,,,,,,
,,,,,,,,,,,html-button-response,274,2.0.0,1102264,614b3d6a4f76b8dfc939adf0,3,5,6908,,,,,,,,,"<img src= ""rock_img/I_Gabbro_03.jpg"" style=""width:8cm; height:8.52cm;""><p>What type of rock is this?</p>",2,class_response,2,test,1,Diorite,Gabbro,3,FALSE,3,4,,,,,,,,,,,,,,,,,
,,,,,,,,,,,html-keyboard-response,275,2.0.0,1102771,614b3d6a4f76b8dfc939adf0,3,5,null,,,,,,,,,<p style='font-size: 30px;'><strong>Okay</strong></p>,null,neutral_feedback,2,test,1,,,,,,,,,,,,,,,,,,,,,,,
,,,,,,,,,,,html-button-response,276,2.0.0,1112521,614b3d6a4f76b8dfc939adf0,3,5,9746,,,,,,,,,"<img src= ""rock_img/I_Andesite_02.jpg"" style=""width:8cm; height:8.5cm;""><p>What type of rock is this?</p>",0,class_response,2,test,2,Andesite,Andesite,2,TRUE,1,1,,,,,,,,,,,,,,,,,
,,,,,,,,,,,html-keyboard-response,277,2.0.0,1113022,614b3d6a4f76b8dfc939adf0,3,5,null,,,,,,,,,<p style='font-size: 30px;'><strong>Okay</strong></p>,null,neutral_feedback,2,test,2,,,,,,,,,,,,,,,,,,,,,,,
,,,,,,,,,,,html-button-response,278,2.0.0,1122305,614b3d6a4f76b8dfc939adf0,3,5,9280,,,,,,,,,"<img src= ""rock_img/I_Peridotite_15.jpg"" style=""width:8cm; height:6cm;""><p>What type of rock is this?</p>",6,class_response,2,test,3,Peridotite,Peridotite,15,TRUE,7,7,,,,,,,,,,,,,,,,,
,,,,,,,,,,,html-keyboard-response,279,2.0.0,1122809,614b3d6a4f76b8dfc939adf0,3,5,null,,,,,,,,,<p style='font-size: 30px;'><strong>Okay</strong></p>,null,neutral_feedback,2,test,3,,,,,,,,,,,,,,,,,,,,,,,
,,,,,,,,,,,html-button-response,280,2.0.0,1129178,614b3d6a4f76b8dfc939adf0,3,5,6365,,,,,,,,,"<img src= ""rock_img/I_Pegmatite_03.jpg"" style=""width:8cm; height:5.239999999999999cm;""><p>What type of rock is this?</p>",5,class_response,2,test,4,Pegmatite,Pegmatite,3,TRUE,6,6,,,,,,,,,,,,,,,,,
,,,,,,,,,,,html-keyboard-response,281,2.0.0,1129682,614b3d6a4f76b8dfc939adf0,3,5,null,,,,,,,,,<p style='font-size: 30px;'><strong>Okay</strong></p>,null,neutral_feedback,2,test,4,,,,,,,,,,,,,,,,,,,,,,,
,,,,,,,,,,,html-button-response,282,2.0.0,1134682,614b3d6a4f76b8dfc939adf0,3,5,4997,,,,,,,,,"<img src= ""rock_img/I_Pegmatite_12.jpg"" style=""width:8cm; height:5.7cm;""><p>What type of rock is this?</p>",5,class_response,2,test,5,Pegmatite,Pegmatite,12,TRUE,6,6,,,,,,,,,,,,,,,,,
,,,,,,,,,,,html-keyboard-response,283,2.0.0,1135193,614b3d6a4f76b8dfc939adf0,3,5,null,,,,,,,,,<p style='font-size: 30px;'><strong>Okay</strong></p>,null,neutral_feedback,2,test,5,,,,,,,,,,,,,,,,,,,,,,,
,,,,,,,,,,,html-button-response,284,2.0.0,1138842,614b3d6a4f76b8dfc939adf0,3,5,3645,,,,,,,,,"<img src= ""rock_img/I_Pegmatite_16.jpg"" style=""width:8cm; height:5.8cm;""><p>What type of rock is this?</p>",5,class_response,2,test,6,Pegmatite,Pegmatite,16,TRUE,6,6,,,,,,,,,,,,,,,,,
,,,,,,,,,,,html-keyboard-response,285,2.0.0,1139343,614b3d6a4f76b8dfc939adf0,3,5,null,,,,,,,,,<p style='font-size: 30px;'><strong>Okay</strong></p>,null,neutral_feedback,2,test,6,,,,,,,,,,,,,,,,,,,,,,,
,,,,,,,,,,,html-button-response,286,2.0.0,1142601,614b3d6a4f76b8dfc939adf0,3,5,3254,,,,,,,,,"<img src= ""rock_img/I_Obsidian_10.jpg"" style=""width:8cm; height:6.260000000000001cm;""><p>What type of rock is this?</p>",5,class_response,2,test,7,Obsidian,Obsidian,10,TRUE,5,5,,,,,,,,,,,,,,,,,
,,,,,,,,,,,html-keyboard-response,287,2.0.0,1143102,614b3d6a4f76b8dfc939adf0,3,5,null,,,,,,,,,<p style='font-size: 30px;'><strong>Okay</strong></p>,null,neutral_feedback,2,test,7,,,,,,,,,,,,,,,,,,,,,,,
,,,,,,,,,,,html-button-response,288,2.0.0,1145410,614b3d6a4f76b8dfc939adf0,3,5,2304,,,,,,,,,"<img src= ""rock_img/I_Basalt_04.jpg"" style=""width:8cm; height:7.53cm;""><p>What type of rock is this?</p>",1,class_response,2,test,8,Basalt,Basalt,4,TRUE,2,2,,,,,,,,,,,,,,,,,
,,,,,,,,,,,html-keyboard-response,289,2.0.0,1145920,614b3d6a4f76b8dfc939adf0,3,5,null,,,,,,,,,<p style='font-size: 30px;'><strong>Okay</strong></p>,null,neutral_feedback,2,test,8,,,,,,,,,,,,,,,,,,,,,,,
,,,,,,,,,,,html-button-response,290,2.0.0,1152626,614b3d6a4f76b8dfc939adf0,3,5,6702,,,,,,,,,"<img src= ""rock_img/I_Gabbro_16.jpg"" style=""width:8cm; height:6.44cm;""><p>What type of rock is this?</p>",1,class_response,2,test,9,Gabbro,Gabbro,16,TRUE,4,4,,,,,,,,,,,,,,,,,
,,,,,,,,,,,html-keyboard-response,291,2.0.0,1153129,614b3d6a4f76b8dfc939adf0,3,5,null,,,,,,,,,<p style='font-size: 30px;'><strong>Okay</strong></p>,null,neutral_feedback,2,test,9,,,,,,,,,,,,,,,,,,,,,,,
,,,,,,,,,,,html-button-response,292,2.0.0,1154858,614b3d6a4f76b8dfc939adf0,3,5,1725,,,,,,,,,"<img src= ""rock_img/I_Pumice_02.jpg"" style=""width:8cm; height:7.3999999999999995cm;""><p>What type of rock is this?</p>",7,class_response,2,test,10,Pumice,Pumice,2,TRUE,8,8,,,,,,,,,,,,,,,,,
,,,,,,,,,,,html-keyboard-response,293,2.0.0,1155359,614b3d6a4f76b8dfc939adf0,3,5,null,,,,,,,,,<p style='font-size: 30px;'><strong>Okay</strong></p>,null,neutral_feedback,2,test,10,,,,,,,,,,,,,,,,,,,,,,,
,,,,,,,,,,,html-button-response,294,2.0.0,1170624,614b3d6a4f76b8dfc939adf0,3,5,15262,,,,,,,,,"<img src= ""rock_img/I_Peridotite_07.jpg"" style=""width:8cm; height:4.83cm;""><p>What type of rock is this?</p>",0,class_response,2,test,11,Peridotite,Peridotite,7,TRUE,7,7,,,,,,,,,,,,,,,,,
,,,,,,,,,,,html-keyboard-response,295,2.0.0,1171126,614b3d6a4f76b8dfc939adf0,3,5,null,,,,,,,,,<p style='font-size: 30px;'><strong>Okay</strong></p>,null,neutral_feedback,2,test,11,,,,,,,,,,,,,,,,,,,,,,,
,,,,,,,,,,,html-button-response,296,2.0.0,1188233,614b3d6a4f76b8dfc939adf0,3,5,17104,,,,,,,,,"<img src= ""rock_img/I_Andesite_09.jpg"" style=""width:8cm; height:6cm;""><p>What type of rock is this?</p>",0,class_response,2,test,12,Andesite,Andesite,9,TRUE,1,1,,,,,,,,,,,,,,,,,
,,,,,,,,,,,html-keyboard-response,297,2.0.0,1188743,614b3d6a4f76b8dfc939adf0,3,5,null,,,,,,,,,<p style='font-size: 30px;'><strong>Okay</strong></p>,null,neutral_feedback,2,test,12,,,,,,,,,,,,,,,,,,,,,,,
,,,,,,,,,,,html-button-response,298,2.0.0,1191769,614b3d6a4f76b8dfc939adf0,3,5,3023,,,,,,,,,"<img src= ""rock_img/I_Pegmatite_11.jpg"" style=""width:8cm; height:8.14cm;""><p>What type of rock is this?</p>",5,class_response,2,test,13,Pegmatite,Pegmatite,11,TRUE,6,6,,,,,,,,,,,,,,,,,
,,,,,,,,,,,html-keyboard-response,299,2.0.0,1192270,614b3d6a4f76b8dfc939adf0,3,5,null,,,,,,,,,<p style='font-size: 30px;'><strong>Okay</strong></p>,null,neutral_feedback,2,test,13,,,,,,,,,,,,,,,,,,,,,,,
,,,,,,,,,,,html-button-response,300,2.0.0,1193560,614b3d6a4f76b8dfc939adf0,3,5,1287,,,,,,,,,"<img src= ""rock_img/I_Obsidian_09.jpg"" style=""width:8cm; height:5cm;""><p>What type of rock is this?</p>",4,class_response,2,test,14,Obsidian,Obsidian,9,TRUE,5,5,,,,,,,,,,,,,,,,,
,,,,,,,,,,,html-keyboard-response,301,2.0.0,1194064,614b3d6a4f76b8dfc939adf0,3,5,null,,,,,,,,,<p style='font-size: 30px;'><strong>Okay</strong></p>,null,neutral_feedback,2,test,14,,,,,,,,,,,,,,,,,,,,,,,
,,,,,,,,,,,html-button-response,302,2.0.0,1195641,614b3d6a4f76b8dfc939adf0,3,5,1573,,,,,,,,,"<img src= ""rock_img/I_Pumice_05.jpg"" style=""width:8cm; height:7.25cm;""><p>What type of rock is this?</p>",7,class_response,2,test,15,Pumice,Pumice,5,TRUE,8,8,,,,,,,,,,,,,,,,,
,,,,,,,,,,,html-keyboard-response,303,2.0.0,1196156,614b3d6a4f76b8dfc939adf0,3,5,null,,,,,,,,,<p style='font-size: 30px;'><strong>Okay</strong></p>,null,neutral_feedback,2,test,15,,,,,,,,,,,,,,,,,,,,,,,
,,,,,,,,,,,html-button-response,304,2.0.0,1198024,614b3d6a4f76b8dfc939adf0,3,5,1865,,,,,,,,,"<img src= ""rock_img/I_Basalt_02.jpg"" style=""width:8cm; height:6.45cm;""><p>What type of rock is this?</p>",1,class_response,2,test,16,Basalt,Basalt,2,TRUE,2,2,,,,,,,,,,,,,,,,,
,,,,,,,,,,,html-keyboard-response,305,2.0.0,1198539,614b3d6a4f76b8dfc939adf0,3,5,null,,,,,,,,,<p style='font-size: 30px;'><strong>Okay</strong></p>,null,neutral_feedback,2,test,16,,,,,,,,,,,,,,,,,,,,,,,
,,,,,,,,,,,html-button-response,306,2.0.0,1204105,614b3d6a4f76b8dfc939adf0,3,5,5562,,,,,,,,,"<img src= ""rock_img/I_Basalt_11.jpg"" style=""width:8cm; height:5.359999999999999cm;""><p>What type of rock is this?</p>",0,class_response,2,test,17,Basalt,Basalt,11,TRUE,2,2,,,,,,,,,,,,,,,,,
,,,,,,,,,,,html-keyboard-response,307,2.0.0,1204608,614b3d6a4f76b8dfc939adf0,3,5,null,,,,,,,,,<p style='font-size: 30px;'><strong>Okay</strong></p>,null,neutral_feedback,2,test,17,,,,,,,,,,,,,,,,,,,,,,,
,,,,,,,,,,,html-button-response,308,2.0.0,1218786,614b3d6a4f76b8dfc939adf0,3,5,14174,,,,,,,,,"<img src= ""rock_img/I_Andesite_11.jpg"" style=""width:8cm; height:4.92cm;""><p>What type of rock is this?</p>",0,class_response,2,test,18,Andesite,Andesite,11,TRUE,1,1,,,,,,,,,,,,,,,,,
,,,,,,,,,,,html-keyboard-response,309,2.0.0,1219292,614b3d6a4f76b8dfc939adf0,3,5,null,,,,,,,,,<p style='font-size: 30px;'><strong>Okay</strong></p>,null,neutral_feedback,2,test,18,,,,,,,,,,,,,,,,,,,,,,,
,,,,,,,,,,,html-button-response,310,2.0.0,1220690,614b3d6a4f76b8dfc939adf0,3,5,1394,,,,,,,,,"<img src= ""rock_img/I_Basalt_01.jpg"" style=""width:8cm; height:7.880000000000001cm;""><p>What type of rock is this?</p>",1,class_response,2,test,19,Basalt,Basalt,1,TRUE,2,2,,,,,,,,,,,,,,,,,
,,,,,,,,,,,html-keyboard-response,311,2.0.0,1221194,614b3d6a4f76b8dfc939adf0,3,5,null,,,,,,,,,<p style='font-size: 30px;'><strong>Okay</strong></p>,null,neutral_feedback,2,test,19,,,,,,,,,,,,,,,,,,,,,,,
,,,,,,,,,,,html-button-response,312,2.0.0,1225984,614b3d6a4f76b8dfc939adf0,3,5,4787,,,,,,,,,"<img src= ""rock_img/I_Basalt_16.jpg"" style=""width:8cm; height:7.659999999999999cm;""><p>What type of rock is this?</p>",7,class_response,2,test,20,Pumice,Basalt,16,FALSE,8,2,,,,,,,,,,,,,,,,,
,,,,,,,,,,,html-keyboard-response,313,2.0.0,1226486,614b3d6a4f76b8dfc939adf0,3,5,null,,,,,,,,,<p style='font-size: 30px;'><strong>Okay</strong></p>,null,neutral_feedback,2,test,20,,,,,,,,,,,,,,,,,,,,,,,
,,,,,,,,,,,html-button-response,314,2.0.0,1227929,614b3d6a4f76b8dfc939adf0,3,5,1440,,,,,,,,,"<img src= ""rock_img/I_Pegmatite_09.jpg"" style=""width:8cm; height:4.03cm;""><p>What type of rock is this?</p>",5,class_response,2,test,21,Pegmatite,Pegmatite,9,TRUE,6,6,,,,,,,,,,,,,,,,,
,,,,,,,,,,,html-keyboard-response,315,2.0.0,1228441,614b3d6a4f76b8dfc939adf0,3,5,null,,,,,,,,,<p style='font-size: 30px;'><strong>Okay</strong></p>,null,neutral_feedback,2,test,21,,,,,,,,,,,,,,,,,,,,,,,
,,,,,,,,,,,html-button-response,316,2.0.0,1235004,614b3d6a4f76b8dfc939adf0,3,5,6558,,,,,,,,,"<img src= ""rock_img/I_Andesite_03.jpg"" style=""width:8cm; height:5.73cm;""><p>What type of rock is this?</p>",0,class_response,2,test,22,Andesite,Andesite,3,TRUE,1,1,,,,,,,,,,,,,,,,,
,,,,,,,,,,,html-keyboard-response,317,2.0.0,1235510,614b3d6a4f76b8dfc939adf0,3,5,null,,,,,,,,,<p style='font-size: 30px;'><strong>Okay</strong></p>,null,neutral_feedback,2,test,22,,,,,,,,,,,,,,,,,,,,,,,
,,,,,,,,,,,html-button-response,318,2.0.0,1240569,614b3d6a4f76b8dfc939adf0,3,5,5056,,,,,,,,,"<img src= ""rock_img/I_Peridotite_06.jpg"" style=""width:8cm; height:7.53cm;""><p>What type of rock is this?</p>",6,class_response,2,test,23,Peridotite,Peridotite,6,TRUE,7,7,,,,,,,,,,,,,,,,,
,,,,,,,,,,,html-keyboard-response,319,2.0.0,1241072,614b3d6a4f76b8dfc939adf0,3,5,null,,,,,,,,,<p style='font-size: 30px;'><strong>Okay</strong></p>,null,neutral_feedback,2,test,23,,,,,,,,,,,,,,,,,,,,,,,
,,,,,,,,,,,html-button-response,320,2.0.0,1245050,614b3d6a4f76b8dfc939adf0,3,5,3973,,,,,,,,,"<img src= ""rock_img/I_Diorite_16.jpg"" style=""width:8cm; height:6.74cm;""><p>What type of rock is this?</p>",2,class_response,2,test,24,Diorite,Diorite,16,TRUE,3,3,,,,,,,,,,,,,,,,,
,,,,,,,,,,,html-keyboard-response,321,2.0.0,1245552,614b3d6a4f76b8dfc939adf0,3,5,null,,,,,,,,,<p style='font-size: 30px;'><strong>Okay</strong></p>,null,neutral_feedback,2,test,24,,,,,,,,,,,,,,,,,,,,,,,
,,,,,,,,,,,html-button-response,322,2.0.0,1247329,614b3d6a4f76b8dfc939adf0,3,5,1773,,,,,,,,,"<img src= ""rock_img/I_Basalt_12.jpg"" style=""width:8cm; height:6.010000000000001cm;""><p>What type of rock is this?</p>",7,class_response,2,test,25,Pumice,Basalt,12,FALSE,8,2,,,,,,,,,,,,,,,,,
,,,,,,,,,,,html-keyboard-response,323,2.0.0,1247838,614b3d6a4f76b8dfc939adf0,3,5,null,,,,,,,,,<p style='font-size: 30px;'><strong>Okay</strong></p>,null,neutral_feedback,2,test,25,,,,,,,,,,,,,,,,,,,,,,,
,,,,,,,,,,,html-button-response,324,2.0.0,1248698,614b3d6a4f76b8dfc939adf0,3,5,857,,,,,,,,,"<img src= ""rock_img/I_Pumice_06.jpg"" style=""width:8cm; height:6.9399999999999995cm;""><p>What type of rock is this?</p>",7,class_response,2,test,26,Pumice,Pumice,6,TRUE,8,8,,,,,,,,,,,,,,,,,
,,,,,,,,,,,html-keyboard-response,325,2.0.0,1249203,614b3d6a4f76b8dfc939adf0,3,5,null,,,,,,,,,<p style='font-size: 30px;'><strong>Okay</strong></p>,null,neutral_feedback,2,test,26,,,,,,,,,,,,,,,,,,,,,,,
,,,,,,,,,,,html-button-response,326,2.0.0,1250058,614b3d6a4f76b8dfc939adf0,3,5,851,,,,,,,,,"<img src= ""rock_img/I_Pumice_10.jpg"" style=""width:8cm; height:7.609999999999999cm;""><p>What type of rock is this?</p>",7,class_response,2,test,27,Pumice,Pumice,10,TRUE,8,8,,,,,,,,,,,,,,,,,
,,,,,,,,,,,html-keyboard-response,327,2.0.0,1250572,614b3d6a4f76b8dfc939adf0,3,5,null,,,,,,,,,<p style='font-size: 30px;'><strong>Okay</strong></p>,null,neutral_feedback,2,test,27,,,,,,,,,,,,,,,,,,,,,,,
,,,,,,,,,,,html-button-response,328,2.0.0,1254442,614b3d6a4f76b8dfc939adf0,3,5,3866,,,,,,,,,"<img src= ""rock_img/I_Diorite_15.jpg"" style=""width:8cm; height:5.54cm;""><p>What type of rock is this?</p>",0,class_response,2,test,28,Diorite,Diorite,15,TRUE,3,3,,,,,,,,,,,,,,,,,
,,,,,,,,,,,html-keyboard-response,329,2.0.0,1254947,614b3d6a4f76b8dfc939adf0,3,5,null,,,,,,,,,<p style='font-size: 30px;'><strong>Okay</strong></p>,null,neutral_feedback,2,test,28,,,,,,,,,,,,,,,,,,,,,,,
,,,,,,,,,,,html-button-response,330,2.0.0,1257851,614b3d6a4f76b8dfc939adf0,3,5,2900,,,,,,,,,"<img src= ""rock_img/I_Peridotite_16.jpg"" style=""width:8cm; height:6.989999999999999cm;""><p>What type of rock is this?</p>",6,class_response,2,test,29,Peridotite,Peridotite,16,TRUE,7,7,,,,,,,,,,,,,,,,,
,,,,,,,,,,,html-keyboard-response,331,2.0.0,1258358,614b3d6a4f76b8dfc939adf0,3,5,null,,,,,,,,,<p style='font-size: 30px;'><strong>Okay</strong></p>,null,neutral_feedback,2,test,29,,,,,,,,,,,,,,,,,,,,,,,
,,,,,,,,,,,html-button-response,332,2.0.0,1259811,614b3d6a4f76b8dfc939adf0,3,5,1448,,,,,,,,,"<img src= ""rock_img/I_Pumice_13.jpg"" style=""width:8cm; height:8.200000000000001cm;""><p>What type of rock is this?</p>",7,class_response,2,test,30,Pumice,Pumice,13,TRUE,8,8,,,,,,,,,,,,,,,,,
,,,,,,,,,,,html-keyboard-response,333,2.0.0,1260312,614b3d6a4f76b8dfc939adf0,3,5,null,,,,,,,,,<p style='font-size: 30px;'><strong>Okay</strong></p>,null,neutral_feedback,2,test,30,,,,,,,,,,,,,,,,,,,,,,,
,,,,,,,,,,,html-button-response,334,2.0.0,1264035,614b3d6a4f76b8dfc939adf0,3,5,3718,,,,,,,,,"<img src= ""rock_img/I_Diorite_09.jpg"" style=""width:8cm; height:5.27cm;""><p>What type of rock is this?</p>",2,class_response,2,test,31,Diorite,Diorite,9,TRUE,3,3,,,,,,,,,,,,,,,,,
,,,,,,,,,,,html-keyboard-response,335,2.0.0,1264547,614b3d6a4f76b8dfc939adf0,3,5,null,,,,,,,,,<p style='font-size: 30px;'><strong>Okay</strong></p>,null,neutral_feedback,2,test,31,,,,,,,,,,,,,,,,,,,,,,,
,,,,,,,,,,,html-button-response,336,2.0.0,1279386,614b3d6a4f76b8dfc939adf0,3,5,14835,,,,,,,,,"<img src= ""rock_img/I_Gabbro_15.jpg"" style=""width:8cm; height:6.29cm;""><p>What type of rock is this?</p>",2,class_response,2,test,32,Diorite,Gabbro,15,FALSE,3,4,,,,,,,,,,,,,,,,,
,,,,,,,,,,,html-keyboard-response,337,2.0.0,1279888,614b3d6a4f76b8dfc939adf0,3,5,null,,,,,,,,,<p style='font-size: 30px;'><strong>Okay</strong></p>,null,neutral_feedback,2,test,32,,,,,,,,,,,,,,,,,,,,,,,
,,,,,,,,,,,html-button-response,338,2.0.0,1281893,614b3d6a4f76b8dfc939adf0,3,5,2001,,,,,,,,,"<img src= ""rock_img/I_Diorite_07.jpg"" style=""width:8cm; height:5.239999999999999cm;""><p>What type of rock is this?</p>",2,class_response,2,test,33,Diorite,Diorite,7,TRUE,3,3,,,,,,,,,,,,,,,,,
,,,,,,,,,,,html-keyboard-response,339,2.0.0,1282397,614b3d6a4f76b8dfc939adf0,3,5,null,,,,,,,,,<p style='font-size: 30px;'><strong>Okay</strong></p>,null,neutral_feedback,2,test,33,,,,,,,,,,,,,,,,,,,,,,,
,,,,,,,,,,,html-button-response,340,2.0.0,1289738,614b3d6a4f76b8dfc939adf0,3,5,7337,,,,,,,,,"<img src= ""rock_img/I_Andesite_06.jpg"" style=""width:8cm; height:6.840000000000001cm;""><p>What type of rock is this?</p>",0,class_response,2,test,34,Andesite,Andesite,6,TRUE,1,1,,,,,,,,,,,,,,,,,
,,,,,,,,,,,html-keyboard-response,341,2.0.0,1290241,614b3d6a4f76b8dfc939adf0,3,5,null,,,,,,,,,<p style='font-size: 30px;'><strong>Okay</strong></p>,null,neutral_feedback,2,test,34,,,,,,,,,,,,,,,,,,,,,,,
,,,,,,,,,,,html-button-response,342,2.0.0,1291561,614b3d6a4f76b8dfc939adf0,3,5,1317,,,,,,,,,"<img src= ""rock_img/I_Gabbro_01.jpg"" style=""width:8cm; height:5.21cm;""><p>What type of rock is this?</p>",0,class_response,2,test,35,Andesite,Gabbro,1,FALSE,1,4,,,,,,,,,,,,,,,,,
,,,,,,,,,,,html-keyboard-response,343,2.0.0,1292072,614b3d6a4f76b8dfc939adf0,3,5,null,,,,,,,,,<p style='font-size: 30px;'><strong>Okay</strong></p>,null,neutral_feedback,2,test,35,,,,,,,,,,,,,,,,,,,,,,,
,,,,,,,,,,,html-button-response,344,2.0.0,1295425,614b3d6a4f76b8dfc939adf0,3,5,3349,,,,,,,,,"<img src= ""rock_img/I_Peridotite_10.jpg"" style=""width:8cm; height:5.390000000000001cm;""><p>What type of rock is this?</p>",0,class_response,2,test,36,Andesite,Peridotite,10,FALSE,1,7,,,,,,,,,,,,,,,,,
,,,,,,,,,,,html-keyboard-response,345,2.0.0,1295927,614b3d6a4f76b8dfc939adf0,3,5,null,,,,,,,,,<p style='font-size: 30px;'><strong>Okay</strong></p>,null,neutral_feedback,2,test,36,,,,,,,,,,,,,,,,,,,,,,,
,,,,,,,,,,,html-button-response,346,2.0.0,1297250,614b3d6a4f76b8dfc939adf0,3,5,1319,,,,,,,,,"<img src= ""rock_img/I_Pegmatite_07.jpg"" style=""width:8cm; height:6.7cm;""><p>What type of rock is this?</p>",5,class_response,2,test,37,Pegmatite,Pegmatite,7,TRUE,6,6,,,,,,,,,,,,,,,,,
,,,,,,,,,,,html-keyboard-response,347,2.0.0,1297757,614b3d6a4f76b8dfc939adf0,3,5,null,,,,,,,,,<p style='font-size: 30px;'><strong>Okay</strong></p>,null,neutral_feedback,2,test,37,,,,,,,,,,,,,,,,,,,,,,,
,,,,,,,,,,,html-button-response,348,2.0.0,1302017,614b3d6a4f76b8dfc939adf0,3,5,4257,,,,,,,,,"<img src= ""rock_img/I_Diorite_11.jpg"" style=""width:8cm; height:7.11cm;""><p>What type of rock is this?</p>",2,class_response,2,test,38,Diorite,Diorite,11,TRUE,3,3,,,,,,,,,,,,,,,,,
,,,,,,,,,,,html-keyboard-response,349,2.0.0,1302523,614b3d6a4f76b8dfc939adf0,3,5,null,,,,,,,,,<p style='font-size: 30px;'><strong>Okay</strong></p>,null,neutral_feedback,2,test,38,,,,,,,,,,,,,,,,,,,,,,,
,,,,,,,,,,,html-button-response,350,2.0.0,1304138,614b3d6a4f76b8dfc939adf0,3,5,1611,,,,,,,,,"<img src= ""rock_img/I_Diorite_12.jpg"" style=""width:8cm; height:4.88cm;""><p>What type of rock is this?</p>",2,class_response,2,test,39,Diorite,Diorite,12,TRUE,3,3,,,,,,,,,,,,,,,,,
,,,,,,,,,,,html-keyboard-response,351,2.0.0,1304649,614b3d6a4f76b8dfc939adf0,3,5,null,,,,,,,,,<p style='font-size: 30px;'><strong>Okay</strong></p>,null,neutral_feedback,2,test,39,,,,,,,,,,,,,,,,,,,,,,,
,,,,,,,,,,,html-button-response,352,2.0.0,1312106,614b3d6a4f76b8dfc939adf0,3,5,7453,,,,,,,,,"<img src= ""rock_img/I_Gabbro_05.jpg"" style=""width:8cm; height:6cm;""><p>What type of rock is this?</p>",0,class_response,2,test,40,Andesite,Gabbro,5,FALSE,1,4,,,,,,,,,,,,,,,,,
,,,,,,,,,,,html-keyboard-response,353,2.0.0,1312619,614b3d6a4f76b8dfc939adf0,3,5,null,,,,,,,,,<p style='font-size: 30px;'><strong>Okay</strong></p>,null,neutral_feedback,2,test,40,,,,,,,,,,,,,,,,,,,,,,,
,,,,,,,,,,,html-button-response,354,2.0.0,1313873,614b3d6a4f76b8dfc939adf0,3,5,1250,,,,,,,,,"<img src= ""rock_img/I_Obsidian_16.jpg"" style=""width:8cm; height:9.3cm;""><p>What type of rock is this?</p>",4,class_response,2,test,41,Obsidian,Obsidian,16,TRUE,5,5,,,,,,,,,,,,,,,,,
,,,,,,,,,,,html-keyboard-response,355,2.0.0,1314388,614b3d6a4f76b8dfc939adf0,3,5,null,,,,,,,,,<p style='font-size: 30px;'><strong>Okay</strong></p>,null,neutral_feedback,2,test,41,,,,,,,,,,,,,,,,,,,,,,,
,,,,,,,,,,,html-button-response,356,2.0.0,1320601,614b3d6a4f76b8dfc939adf0,3,5,6210,,,,,,,,,"<img src= ""rock_img/I_Andesite_01.jpg"" style=""width:8cm; height:5.87cm;""><p>What type of rock is this?</p>",2,class_response,2,test,42,Andesite,Andesite,1,TRUE,1,1,,,,,,,,,,,,,,,,,
,,,,,,,,,,,html-keyboard-response,357,2.0.0,1321107,614b3d6a4f76b8dfc939adf0,3,5,null,,,,,,,,,<p style='font-size: 30px;'><strong>Okay</strong></p>,null,neutral_feedback,2,test,42,,,,,,,,,,,,,,,,,,,,,,,
,,,,,,,,,,,html-button-response,358,2.0.0,1322649,614b3d6a4f76b8dfc939adf0,3,5,1539,,,,,,,,,"<img src= ""rock_img/I_Obsidian_05.jpg"" style=""width:8cm; height:6.33cm;""><p>What type of rock is this?</p>",4,class_response,2,test,43,Obsidian,Obsidian,5,TRUE,5,5,,,,,,,,,,,,,,,,,
,,,,,,,,,,,html-keyboard-response,359,2.0.0,1323154,614b3d6a4f76b8dfc939adf0,3,5,null,,,,,,,,,<p style='font-size: 30px;'><strong>Okay</strong></p>,null,neutral_feedback,2,test,43,,,,,,,,,,,,,,,,,,,,,,,
,,,,,,,,,,,html-button-response,360,2.0.0,1328089,614b3d6a4f76b8dfc939adf0,3,5,4932,,,,,,,,,"<img src= ""rock_img/I_Gabbro_08.jpg"" style=""width:8cm; height:5.15cm;""><p>What type of rock is this?</p>",0,class_response,2,test,44,Andesite,Gabbro,8,FALSE,1,4,,,,,,,,,,,,,,,,,
,,,,,,,,,,,html-keyboard-response,361,2.0.0,1328594,614b3d6a4f76b8dfc939adf0,3,5,null,,,,,,,,,<p style='font-size: 30px;'><strong>Okay</strong></p>,null,neutral_feedback,2,test,44,,,,,,,,,,,,,,,,,,,,,,,
,,,,,,,,,,,html-button-response,362,2.0.0,1329969,614b3d6a4f76b8dfc939adf0,3,5,1371,,,,,,,,,"<img src= ""rock_img/I_Peridotite_02.jpg"" style=""width:8cm; height:5.859999999999999cm;""><p>What type of rock is this?</p>",6,class_response,2,test,45,Peridotite,Peridotite,2,TRUE,7,7,,,,,,,,,,,,,,,,,
,,,,,,,,,,,html-keyboard-response,363,2.0.0,1330481,614b3d6a4f76b8dfc939adf0,3,5,null,,,,,,,,,<p style='font-size: 30px;'><strong>Okay</strong></p>,null,neutral_feedback,2,test,45,,,,,,,,,,,,,,,,,,,,,,,
,,,,,,,,,,,html-button-response,364,2.0.0,1332665,614b3d6a4f76b8dfc939adf0,3,5,2181,,,,,,,,,"<img src= ""rock_img/I_Obsidian_07.jpg"" style=""width:8cm; height:4.76cm;""><p>What type of rock is this?</p>",4,class_response,2,test,46,Obsidian,Obsidian,7,TRUE,5,5,,,,,,,,,,,,,,,,,
,,,,,,,,,,,html-keyboard-response,365,2.0.0,1333168,614b3d6a4f76b8dfc939adf0,3,5,null,,,,,,,,,<p style='font-size: 30px;'><strong>Okay</strong></p>,null,neutral_feedback,2,test,46,,,,,,,,,,,,,,,,,,,,,,,
,,,,,,,,,,,html-button-response,366,2.0.0,1334441,614b3d6a4f76b8dfc939adf0,3,5,1270,,,,,,,,,"<img src= ""rock_img/I_Pumice_09.jpg"" style=""width:8cm; height:6.44cm;""><p>What type of rock is this?</p>",7,class_response,2,test,47,Pumice,Pumice,9,TRUE,8,8,,,,,,,,,,,,,,,,,
,,,,,,,,,,,html-keyboard-response,367,2.0.0,1334951,614b3d6a4f76b8dfc939adf0,3,5,null,,,,,,,,,<p style='font-size: 30px;'><strong>Okay</strong></p>,null,neutral_feedback,2,test,47,,,,,,,,,,,,,,,,,,,,,,,
,,,,,,,,,,,html-button-response,368,2.0.0,1336002,614b3d6a4f76b8dfc939adf0,3,5,1047,,,,,,,,,"<img src= ""rock_img/I_Obsidian_11.jpg"" style=""width:8cm; height:6.05cm;""><p>What type of rock is this?</p>",4,class_response,2,test,48,Obsidian,Obsidian,11,TRUE,5,5,,,,,,,,,,,,,,,,,
,,,,,,,,,,,html-keyboard-response,369,2.0.0,1336515,614b3d6a4f76b8dfc939adf0,3,5,null,,,,,,,,,<p style='font-size: 30px;'><strong>Okay</strong></p>,null,neutral_feedback,2,test,48,,,,,,,,,,,,,,,,,,,,,,,
,,,,,,,,,,,html-button-response,370,2.0.0,1343297,614b3d6a4f76b8dfc939adf0,3,5,,,,,,,,,,,,cycle_feedback,,,,,,,,,,,,,,,,,,,,,,,2921,3855.6,,
,,,,,,,,,,,html-button-response,372,2.0.0,1344794,614b3d6a4f76b8dfc939adf0,3,5,1493,,,,,,,,,,0,start_train,,,,,,,,,,,,,,,,,,,,,,,,,,
,,,,,,,,,,,html-button-response,374,2.0.0,1347273,614b3d6a4f76b8dfc939adf0,3,5,2476,,,,,,,,,"<img src= ""rock_img/I_Basalt_10.jpg"" style=""width:8cm; height:5.85cm;""><p>What type of rock is this?</p>",1,class_response,3,train,1,Basalt,Basalt,10,TRUE,2,2,,,,,,,,,,,,,,,,,
,,,,,,,,,,,html-button-response,375,2.0.0,1348337,614b3d6a4f76b8dfc939adf0,3,5,1061,,,,,,,,,"<img src= rock_img/I_Basalt_10.jpg style=""width:8cm; height:5.85cm;""><p style='font-size: 30px; color: green;'><strong>Correct!</strong></p><p style='font-size: 30px;'><strong>This rock is basalt</strong></p>",0,corr_feedback,3,train,1,,,,,,,,,,,,,,,,,,,,,,,
,,,,,,,,,,,html-button-response,376,2.0.0,1350561,614b3d6a4f76b8dfc939adf0,3,5,2222,,,,,,,,,"<img src= ""rock_img/I_Peridotite_12.jpg"" style=""width:8cm; height:4.54cm;""><p>What type of rock is this?</p>",0,class_response,3,train,2,Andesite,Peridotite,12,FALSE,1,7,,,,,,,,,,,,,,,,,
,,,,,,,,,,,html-button-response,377,2.0.0,1352105,614b3d6a4f76b8dfc939adf0,3,5,1541,,,,,,,,,"<img src= rock_img/I_Peridotite_12.jpg style=""width:8cm; height:4.54cm;""><p style='font-size: 30px; color: red;'><strong>Incorrect!</strong></p><p style='font-size: 30px;'><strong>This rock is peridotite</strong></p>",0,corr_feedback,3,train,2,,,,,,,,,,,,,,,,,,,,,,,
,,,,,,,,,,,html-button-response,378,2.0.0,1353820,614b3d6a4f76b8dfc939adf0,3,5,1711,,,,,,,,,"<img src= ""rock_img/I_Diorite_14.jpg"" style=""width:8cm; height:5.71cm;""><p>What type of rock is this?</p>",2,class_response,3,train,3,Diorite,Diorite,14,TRUE,3,3,,,,,,,,,,,,,,,,,
,,,,,,,,,,,html-button-response,379,2.0.0,1354736,614b3d6a4f76b8dfc939adf0,3,5,914,,,,,,,,,"<img src= rock_img/I_Diorite_14.jpg style=""width:8cm; height:5.71cm;""><p style='font-size: 30px; color: green;'><strong>Correct!</strong></p><p style='font-size: 30px;'><strong>This rock is diorite</strong></p>",0,corr_feedback,3,train,3,,,,,,,,,,,,,,,,,,,,,,,
,,,,,,,,,,,html-button-response,380,2.0.0,1355978,614b3d6a4f76b8dfc939adf0,3,5,1238,,,,,,,,,"<img src= ""rock_img/I_Obsidian_04.jpg"" style=""width:8cm; height:6.930000000000001cm;""><p>What type of rock is this?</p>",4,class_response,3,train,4,Obsidian,Obsidian,4,TRUE,5,5,,,,,,,,,,,,,,,,,
,,,,,,,,,,,html-button-response,381,2.0.0,1356762,614b3d6a4f76b8dfc939adf0,3,5,779,,,,,,,,,"<img src= rock_img/I_Obsidian_04.jpg style=""width:8cm; height:6.930000000000001cm;""><p style='font-size: 30px; color: green;'><strong>Correct!</strong></p><p style='font-size: 30px;'><strong>This rock is obsidian</strong></p>",0,corr_feedback,3,train,4,,,,,,,,,,,,,,,,,,,,,,,
,,,,,,,,,,,html-button-response,382,2.0.0,1359201,614b3d6a4f76b8dfc939adf0,3,5,2436,,,,,,,,,"<img src= ""rock_img/I_Andesite_14.jpg"" style=""width:8cm; height:5.449999999999999cm;""><p>What type of rock is this?</p>",5,class_response,3,train,5,Pegmatite,Andesite,14,FALSE,6,1,,,,,,,,,,,,,,,,,
,,,,,,,,,,,html-button-response,383,2.0.0,1360305,614b3d6a4f76b8dfc939adf0,3,5,1100,,,,,,,,,"<img src= rock_img/I_Andesite_14.jpg style=""width:8cm; height:5.449999999999999cm;""><p style='font-size: 30px; color: red;'><strong>Incorrect!</strong></p><p style='font-size: 30px;'><strong>This rock is andesite</strong></p>",0,corr_feedback,3,train,5,,,,,,,,,,,,,,,,,,,,,,,
,,,,,,,,,,,html-button-response,384,2.0.0,1361424,614b3d6a4f76b8dfc939adf0,3,5,1116,,,,,,,,,"<img src= ""rock_img/I_Basalt_09.jpg"" style=""width:8cm; height:6.2cm;""><p>What type of rock is this?</p>",1,class_response,3,train,6,Basalt,Basalt,9,TRUE,2,2,,,,,,,,,,,,,,,,,
,,,,,,,,,,,html-button-response,385,2.0.0,1362137,614b3d6a4f76b8dfc939adf0,3,5,710,,,,,,,,,"<img src= rock_img/I_Basalt_09.jpg style=""width:8cm; height:6.2cm;""><p style='font-size: 30px; color: green;'><strong>Correct!</strong></p><p style='font-size: 30px;'><strong>This rock is basalt</strong></p>",0,corr_feedback,3,train,6,,,,,,,,,,,,,,,,,,,,,,,
,,,,,,,,,,,html-button-response,386,2.0.0,1365441,614b3d6a4f76b8dfc939adf0,3,5,3300,,,,,,,,,"<img src= ""rock_img/I_Peridotite_08.jpg"" style=""width:8cm; height:6.7cm;""><p>What type of rock is this?</p>",0,class_response,3,train,7,Andesite,Peridotite,8,FALSE,1,7,,,,,,,,,,,,,,,,,
,,,,,,,,,,,html-button-response,387,2.0.0,1366420,614b3d6a4f76b8dfc939adf0,3,5,976,,,,,,,,,"<img src= rock_img/I_Peridotite_08.jpg style=""width:8cm; height:6.7cm;""><p style='font-size: 30px; color: red;'><strong>Incorrect!</strong></p><p style='font-size: 30px;'><strong>This rock is peridotite</strong></p>",0,corr_feedback,3,train,7,,,,,,,,,,,,,,,,,,,,,,,
,,,,,,,,,,,html-button-response,388,2.0.0,1368053,614b3d6a4f76b8dfc939adf0,3,5,1628,,,,,,,,,"<img src= ""rock_img/I_Pumice_16.jpg"" style=""width:8cm; height:6.79cm;""><p>What type of rock is this?</p>",7,class_response,3,train,8,Pumice,Pumice,16,TRUE,8,8,,,,,,,,,,,,,,,,,
,,,,,,,,,,,html-button-response,389,2.0.0,1368890,614b3d6a4f76b8dfc939adf0,3,5,833,,,,,,,,,"<img src= rock_img/I_Pumice_16.jpg style=""width:8cm; height:6.79cm;""><p style='font-size: 30px; color: green;'><strong>Correct!</strong></p><p style='font-size: 30px;'><strong>This rock is pumice</strong></p>",0,corr_feedback,3,train,8,,,,,,,,,,,,,,,,,,,,,,,
,,,,,,,,,,,html-button-response,390,2.0.0,1371048,614b3d6a4f76b8dfc939adf0,3,5,2155,,,,,,,,,"<img src= ""rock_img/I_Diorite_06.jpg"" style=""width:8cm; height:6.03cm;""><p>What type of rock is this?</p>",2,class_response,3,train,9,Diorite,Diorite,6,TRUE,3,3,,,,,,,,,,,,,,,,,
,,,,,,,,,,,html-button-response,391,2.0.0,1371881,614b3d6a4f76b8dfc939adf0,3,5,829,,,,,,,,,"<img src= rock_img/I_Diorite_06.jpg style=""width:8cm; height:6.03cm;""><p style='font-size: 30px; color: green;'><strong>Correct!</strong></p><p style='font-size: 30px;'><strong>This rock is diorite</strong></p>",0,corr_feedback,3,train,9,,,,,,,,,,,,,,,,,,,,,,,
,,,,,,,,,,,html-button-response,392,2.0.0,1375523,614b3d6a4f76b8dfc939adf0,3,5,3639,,,,,,,,,"<img src= ""rock_img/I_Gabbro_11.jpg"" style=""width:8cm; height:6.2cm;""><p>What type of rock is this?</p>",6,class_response,3,train,10,Peridotite,Gabbro,11,FALSE,7,4,,,,,,,,,,,,,,,,,
,,,,,,,,,,,html-button-response,393,2.0.0,1376282,614b3d6a4f76b8dfc939adf0,3,5,755,,,,,,,,,"<img src= rock_img/I_Gabbro_11.jpg style=""width:8cm; height:6.2cm;""><p style='font-size: 30px; color: red;'><strong>Incorrect!</strong></p><p style='font-size: 30px;'><strong>This rock is gabbro</strong></p>",0,corr_feedback,3,train,10,,,,,,,,,,,,,,,,,,,,,,,
,,,,,,,,,,,html-button-response,394,2.0.0,1378737,614b3d6a4f76b8dfc939adf0,3,5,2452,,,,,,,,,"<img src= ""rock_img/I_Pegmatite_05.jpg"" style=""width:8cm; height:7.300000000000001cm;""><p>What type of rock is this?</p>",5,class_response,3,train,11,Pegmatite,Pegmatite,5,TRUE,6,6,,,,,,,,,,,,,,,,,
,,,,,,,,,,,html-button-response,395,2.0.0,1379529,614b3d6a4f76b8dfc939adf0,3,5,789,,,,,,,,,"<img src= rock_img/I_Pegmatite_05.jpg style=""width:8cm; height:7.300000000000001cm;""><p style='font-size: 30px; color: green;'><strong>Correct!</strong></p><p style='font-size: 30px;'><strong>This rock is pegmatite</strong></p>",0,corr_feedback,3,train,11,,,,,,,,,,,,,,,,,,,,,,,
,,,,,,,,,,,html-button-response,396,2.0.0,1381752,614b3d6a4f76b8dfc939adf0,3,5,2220,,,,,,,,,"<img src= ""rock_img/I_Pumice_14.jpg"" style=""width:8cm; height:6.39cm;""><p>What type of rock is this?</p>",7,class_response,3,train,12,Pumice,Pumice,14,TRUE,8,8,,,,,,,,,,,,,,,,,
,,,,,,,,,,,html-button-response,397,2.0.0,1382641,614b3d6a4f76b8dfc939adf0,3,5,885,,,,,,,,,"<img src= rock_img/I_Pumice_14.jpg style=""width:8cm; height:6.39cm;""><p style='font-size: 30px; color: green;'><strong>Correct!</strong></p><p style='font-size: 30px;'><strong>This rock is pumice</strong></p>",0,corr_feedback,3,train,12,,,,,,,,,,,,,,,,,,,,,,,
