width,height,webaudio,browser,browser_version,mobile,os,fullscreen,vsync_rate,webcam,microphone,trial_type,trial_index,plugin_version,time_elapsed,subjID,condition,stimID,rt,url,success,value,timeout,failed_images,failed_audio,failed_video,view_history,stimulus,response,trialType,cycle,phase,trial,resp,cat,token,corr,resp_num,cat_num,rt_ref,rt_paired,ref_cat_num,paired_cat_num,ref_cat,paired_cat,text_Gabbro,text_Basalt,time_obs,time_resp,text_Peridotite,text_Pegmatite,text_Andesite,text_Diorite,time_fb1,time_fb2
1440,717,TRUE,chrome,124.0.0,FALSE,Mac OS,TRUE,45.97,TRUE,TRUE,browser-check,0,2.0.0,1337,60fc2ec58ad0da367daee3c1,4,19,,,,,,,,,,,,,,,,,,,,,,,,,,,,,,,,,,,,,
,,,,,,,,,,,external-html,1,2.0.0,12401,60fc2ec58ad0da367daee3c1,4,19,11004,consent_form.html,,,,,,,,,,,,,,,,,,,,,,,,,,,,,,,,,,,
,,,,,,,,,,,fullscreen,2,2.0.0,15988,60fc2ec58ad0da367daee3c1,4,19,2555,,TRUE,,,,,,,,,,,,,,,,,,,,,,,,,,,,,,,,,,
,,,,,,,,,,,call-function,3,2.0.0,15992,60fc2ec58ad0da367daee3c1,4,19,,,,{},,,,,,,,,,,,,,,,,,,,,,,,,,,,,,,,,
,,,,,,,,,,,preload,4,2.0.0,20088,60fc2ec58ad0da367daee3c1,4,19,,,TRUE,,FALSE,[],[],[],,,,,,,,,,,,,,,,,,,,,,,,,,,,,
,,,,,,,,,,,instructions,5,2.0.0,52668,60fc2ec58ad0da367daee3c1,4,19,32579,,,,,,,,"[{""page_index"":0,""viewing_time"":7196},{""page_index"":1,""viewing_time"":17549},{""page_index"":2,""viewing_time"":1883},{""page_index"":1,""viewing_time"":2684},{""page_index"":2,""viewing_time"":3267}]",,,,,,,,,,,,,,,,,,,,,,,,,,,,
,,,,,,,,,,,html-button-response,6,2.0.0,54792,60fc2ec58ad0da367daee3c1,4,19,2073,,,,,,,,,,0,start_test,,,,,,,,,,,,,,,,,,,,,,,,,
,,,,,,,,,,,html-button-response,7,2.0.0,177640,60fc2ec58ad0da367daee3c1,4,19,122732,,,,,,,,,"<img src= ""rock_img/I_Basalt_16.jpg"" style=""width:8cm; height:7.659999999999999cm;""><p>What type of rock is this?</p>",7,class_response,0,test,1,Pumice,Basalt,16,FALSE,8,2,,,,,,,,,,,,,,,,
,,,,,,,,,,,html-keyboard-response,8,2.0.0,178218,60fc2ec58ad0da367daee3c1,4,19,null,,,,,,,,,<p style='font-size: 30px;'><strong>Okay</strong></p>,null,neutral_feedback,0,test,1,,,,,,,,,,,,,,,,,,,,,,
,,,,,,,,,,,html-button-response,9,2.0.0,305382,60fc2ec58ad0da367daee3c1,4,19,127134,,,,,,,,,"<img src= ""rock_img/I_Pegmatite_07.jpg"" style=""width:8cm; height:6.7cm;""><p>What type of rock is this?</p>",5,class_response,0,test,2,Pegmatite,Pegmatite,7,TRUE,6,6,,,,,,,,,,,,,,,,
,,,,,,,,,,,html-keyboard-response,10,2.0.0,305913,60fc2ec58ad0da367daee3c1,4,19,null,,,,,,,,,<p style='font-size: 30px;'><strong>Okay</strong></p>,null,neutral_feedback,0,test,2,,,,,,,,,,,,,,,,,,,,,,
,,,,,,,,,,,html-button-response,11,2.0.0,397249,60fc2ec58ad0da367daee3c1,4,19,91305,,,,,,,,,"<img src= ""rock_img/I_Pegmatite_16.jpg"" style=""width:8cm; height:5.8cm;""><p>What type of rock is this?</p>",5,class_response,0,test,3,Pegmatite,Pegmatite,16,TRUE,6,6,,,,,,,,,,,,,,,,
,,,,,,,,,,,html-keyboard-response,12,2.0.0,397779,60fc2ec58ad0da367daee3c1,4,19,null,,,,,,,,,<p style='font-size: 30px;'><strong>Okay</strong></p>,null,neutral_feedback,0,test,3,,,,,,,,,,,,,,,,,,,,,,
,,,,,,,,,,,html-button-response,13,2.0.0,412364,60fc2ec58ad0da367daee3c1,4,19,14554,,,,,,,,,"<img src= ""rock_img/I_Peridotite_05.jpg"" style=""width:8cm; height:7.1499999999999995cm;""><p>What type of rock is this?</p>",6,class_response,0,test,4,Peridotite,Peridotite,5,TRUE,7,7,,,,,,,,,,,,,,,,
,,,,,,,,,,,html-keyboard-response,14,2.0.0,412894,60fc2ec58ad0da367daee3c1,4,19,null,,,,,,,,,<p style='font-size: 30px;'><strong>Okay</strong></p>,null,neutral_feedback,0,test,4,,,,,,,,,,,,,,,,,,,,,,
,,,,,,,,,,,html-button-response,15,2.0.0,440681,60fc2ec58ad0da367daee3c1,4,19,27756,,,,,,,,,"<img src= ""rock_img/I_Peridotite_08.jpg"" style=""width:8cm; height:6.7cm;""><p>What type of rock is this?</p>",3,class_response,0,test,5,Gabbro,Peridotite,8,FALSE,4,7,,,,,,,,,,,,,,,,
,,,,,,,,,,,html-keyboard-response,16,2.0.0,441213,60fc2ec58ad0da367daee3c1,4,19,null,,,,,,,,,<p style='font-size: 30px;'><strong>Okay</strong></p>,null,neutral_feedback,0,test,5,,,,,,,,,,,,,,,,,,,,,,
,,,,,,,,,,,html-button-response,17,2.0.0,443931,60fc2ec58ad0da367daee3c1,4,19,2687,,,,,,,,,"<img src= ""rock_img/I_Obsidian_14.jpg"" style=""width:8cm; height:7.64cm;""><p>What type of rock is this?</p>",4,class_response,0,test,6,Obsidian,Obsidian,14,TRUE,5,5,,,,,,,,,,,,,,,,
,,,,,,,,,,,html-keyboard-response,18,2.0.0,444462,60fc2ec58ad0da367daee3c1,4,19,null,,,,,,,,,<p style='font-size: 30px;'><strong>Okay</strong></p>,null,neutral_feedback,0,test,6,,,,,,,,,,,,,,,,,,,,,,
,,,,,,,,,,,html-button-response,19,2.0.0,460849,60fc2ec58ad0da367daee3c1,4,19,16354,,,,,,,,,"<img src= ""rock_img/I_Diorite_12.jpg"" style=""width:8cm; height:4.88cm;""><p>What type of rock is this?</p>",0,class_response,0,test,7,Andesite,Diorite,12,FALSE,1,3,,,,,,,,,,,,,,,,
,,,,,,,,,,,html-keyboard-response,20,2.0.0,461381,60fc2ec58ad0da367daee3c1,4,19,null,,,,,,,,,<p style='font-size: 30px;'><strong>Okay</strong></p>,null,neutral_feedback,0,test,7,,,,,,,,,,,,,,,,,,,,,,
,,,,,,,,,,,html-button-response,21,2.0.0,469580,60fc2ec58ad0da367daee3c1,4,19,8169,,,,,,,,,"<img src= ""rock_img/I_Gabbro_08.jpg"" style=""width:8cm; height:5.15cm;""><p>What type of rock is this?</p>",1,class_response,0,test,8,Basalt,Gabbro,8,FALSE,2,4,,,,,,,,,,,,,,,,
,,,,,,,,,,,html-keyboard-response,22,2.0.0,470112,60fc2ec58ad0da367daee3c1,4,19,null,,,,,,,,,<p style='font-size: 30px;'><strong>Okay</strong></p>,null,neutral_feedback,0,test,8,,,,,,,,,,,,,,,,,,,,,,
,,,,,,,,,,,html-button-response,23,2.0.0,519931,60fc2ec58ad0da367daee3c1,4,19,49789,,,,,,,,,"<img src= ""rock_img/I_Diorite_15.jpg"" style=""width:8cm; height:5.54cm;""><p>What type of rock is this?</p>",3,class_response,0,test,9,Gabbro,Diorite,15,FALSE,4,3,,,,,,,,,,,,,,,,
,,,,,,,,,,,html-keyboard-response,24,2.0.0,520460,60fc2ec58ad0da367daee3c1,4,19,null,,,,,,,,,<p style='font-size: 30px;'><strong>Okay</strong></p>,null,neutral_feedback,0,test,9,,,,,,,,,,,,,,,,,,,,,,
,,,,,,,,,,,html-button-response,25,2.0.0,564881,60fc2ec58ad0da367daee3c1,4,19,44391,,,,,,,,,"<img src= ""rock_img/I_Basalt_04.jpg"" style=""width:8cm; height:7.53cm;""><p>What type of rock is this?</p>",1,class_response,0,test,10,Basalt,Basalt,4,TRUE,2,2,,,,,,,,,,,,,,,,
,,,,,,,,,,,html-keyboard-response,26,2.0.0,565412,60fc2ec58ad0da367daee3c1,4,19,null,,,,,,,,,<p style='font-size: 30px;'><strong>Okay</strong></p>,null,neutral_feedback,0,test,10,,,,,,,,,,,,,,,,,,,,,,
,,,,,,,,,,,html-button-response,27,2.0.0,658031,60fc2ec58ad0da367daee3c1,4,19,92591,,,,,,,,,"<img src= ""rock_img/I_Peridotite_02.jpg"" style=""width:8cm; height:5.859999999999999cm;""><p>What type of rock is this?</p>",6,class_response,0,test,11,Peridotite,Peridotite,2,TRUE,7,7,,,,,,,,,,,,,,,,
,,,,,,,,,,,html-keyboard-response,28,2.0.0,658561,60fc2ec58ad0da367daee3c1,4,19,null,,,,,,,,,<p style='font-size: 30px;'><strong>Okay</strong></p>,null,neutral_feedback,0,test,11,,,,,,,,,,,,,,,,,,,,,,
,,,,,,,,,,,html-button-response,29,2.0.0,719050,60fc2ec58ad0da367daee3c1,4,19,60458,,,,,,,,,"<img src= ""rock_img/I_Andesite_02.jpg"" style=""width:8cm; height:8.5cm;""><p>What type of rock is this?</p>",0,class_response,0,test,12,Andesite,Andesite,2,TRUE,1,1,,,,,,,,,,,,,,,,
,,,,,,,,,,,html-keyboard-response,30,2.0.0,719581,60fc2ec58ad0da367daee3c1,4,19,null,,,,,,,,,<p style='font-size: 30px;'><strong>Okay</strong></p>,null,neutral_feedback,0,test,12,,,,,,,,,,,,,,,,,,,,,,
,,,,,,,,,,,html-button-response,31,2.0.0,751364,60fc2ec58ad0da367daee3c1,4,19,31755,,,,,,,,,"<img src= ""rock_img/I_Pegmatite_13.jpg"" style=""width:8cm; height:4.95cm;""><p>What type of rock is this?</p>",5,class_response,0,test,13,Pegmatite,Pegmatite,13,TRUE,6,6,,,,,,,,,,,,,,,,
,,,,,,,,,,,html-keyboard-response,32,2.0.0,751896,60fc2ec58ad0da367daee3c1,4,19,null,,,,,,,,,<p style='font-size: 30px;'><strong>Okay</strong></p>,null,neutral_feedback,0,test,13,,,,,,,,,,,,,,,,,,,,,,
,,,,,,,,,,,html-button-response,33,2.0.0,827317,60fc2ec58ad0da367daee3c1,4,19,75390,,,,,,,,,"<img src= ""rock_img/I_Pegmatite_15.jpg"" style=""width:8cm; height:6cm;""><p>What type of rock is this?</p>",2,class_response,0,test,14,Diorite,Pegmatite,15,FALSE,3,6,,,,,,,,,,,,,,,,
,,,,,,,,,,,html-keyboard-response,34,2.0.0,827847,60fc2ec58ad0da367daee3c1,4,19,null,,,,,,,,,<p style='font-size: 30px;'><strong>Okay</strong></p>,null,neutral_feedback,0,test,14,,,,,,,,,,,,,,,,,,,,,,
,,,,,,,,,,,html-button-response,35,2.0.0,830331,60fc2ec58ad0da367daee3c1,4,19,2455,,,,,,,,,"<img src= ""rock_img/I_Pumice_15.jpg"" style=""width:8cm; height:7.86cm;""><p>What type of rock is this?</p>",7,class_response,0,test,15,Pumice,Pumice,15,TRUE,8,8,,,,,,,,,,,,,,,,
,,,,,,,,,,,html-keyboard-response,36,2.0.0,830861,60fc2ec58ad0da367daee3c1,4,19,null,,,,,,,,,<p style='font-size: 30px;'><strong>Okay</strong></p>,null,neutral_feedback,0,test,15,,,,,,,,,,,,,,,,,,,,,,
,,,,,,,,,,,html-button-response,37,2.0.0,832831,60fc2ec58ad0da367daee3c1,4,19,1940,,,,,,,,,"<img src= ""rock_img/I_Gabbro_12.jpg"" style=""width:8cm; height:7.800000000000001cm;""><p>What type of rock is this?</p>",1,class_response,0,test,16,Basalt,Gabbro,12,FALSE,2,4,,,,,,,,,,,,,,,,
,,,,,,,,,,,html-keyboard-response,38,2.0.0,833364,60fc2ec58ad0da367daee3c1,4,19,null,,,,,,,,,<p style='font-size: 30px;'><strong>Okay</strong></p>,null,neutral_feedback,0,test,16,,,,,,,,,,,,,,,,,,,,,,
,,,,,,,,,,,html-button-response,39,2.0.0,847451,60fc2ec58ad0da367daee3c1,4,19,14055,,,,,,,,,"<img src= ""rock_img/I_Andesite_06.jpg"" style=""width:8cm; height:6.840000000000001cm;""><p>What type of rock is this?</p>",3,class_response,0,test,17,Gabbro,Andesite,6,FALSE,4,1,,,,,,,,,,,,,,,,
,,,,,,,,,,,html-keyboard-response,40,2.0.0,847980,60fc2ec58ad0da367daee3c1,4,19,null,,,,,,,,,<p style='font-size: 30px;'><strong>Okay</strong></p>,null,neutral_feedback,0,test,17,,,,,,,,,,,,,,,,,,,,,,
,,,,,,,,,,,html-button-response,41,2.0.0,893684,60fc2ec58ad0da367daee3c1,4,19,45673,,,,,,,,,"<img src= ""rock_img/I_Diorite_07.jpg"" style=""width:8cm; height:5.239999999999999cm;""><p>What type of rock is this?</p>",2,class_response,0,test,18,Diorite,Diorite,7,TRUE,3,3,,,,,,,,,,,,,,,,
,,,,,,,,,,,html-keyboard-response,42,2.0.0,894214,60fc2ec58ad0da367daee3c1,4,19,null,,,,,,,,,<p style='font-size: 30px;'><strong>Okay</strong></p>,null,neutral_feedback,0,test,18,,,,,,,,,,,,,,,,,,,,,,
,,,,,,,,,,,html-button-response,43,2.0.0,896299,60fc2ec58ad0da367daee3c1,4,19,2054,,,,,,,,,"<img src= ""rock_img/I_Pumice_05.jpg"" style=""width:8cm; height:7.25cm;""><p>What type of rock is this?</p>",7,class_response,0,test,19,Pumice,Pumice,5,TRUE,8,8,,,,,,,,,,,,,,,,
,,,,,,,,,,,html-keyboard-response,44,2.0.0,896830,60fc2ec58ad0da367daee3c1,4,19,null,,,,,,,,,<p style='font-size: 30px;'><strong>Okay</strong></p>,null,neutral_feedback,0,test,19,,,,,,,,,,,,,,,,,,,,,,
,,,,,,,,,,,html-button-response,45,2.0.0,898366,60fc2ec58ad0da367daee3c1,4,19,1505,,,,,,,,,"<img src= ""rock_img/I_Basalt_09.jpg"" style=""width:8cm; height:6.2cm;""><p>What type of rock is this?</p>",1,class_response,0,test,20,Basalt,Basalt,9,TRUE,2,2,,,,,,,,,,,,,,,,
,,,,,,,,,,,html-keyboard-response,46,2.0.0,898895,60fc2ec58ad0da367daee3c1,4,19,null,,,,,,,,,<p style='font-size: 30px;'><strong>Okay</strong></p>,null,neutral_feedback,0,test,20,,,,,,,,,,,,,,,,,,,,,,
,,,,,,,,,,,html-button-response,47,2.0.0,906350,60fc2ec58ad0da367daee3c1,4,19,7424,,,,,,,,,"<img src= ""rock_img/I_Peridotite_07.jpg"" style=""width:8cm; height:4.83cm;""><p>What type of rock is this?</p>",6,class_response,0,test,21,Peridotite,Peridotite,7,TRUE,7,7,,,,,,,,,,,,,,,,
,,,,,,,,,,,html-keyboard-response,48,2.0.0,906880,60fc2ec58ad0da367daee3c1,4,19,null,,,,,,,,,<p style='font-size: 30px;'><strong>Okay</strong></p>,null,neutral_feedback,0,test,21,,,,,,,,,,,,,,,,,,,,,,
,,,,,,,,,,,html-button-response,49,2.0.0,909317,60fc2ec58ad0da367daee3c1,4,19,2405,,,,,,,,,"<img src= ""rock_img/I_Pumice_04.jpg"" style=""width:8cm; height:6.819999999999999cm;""><p>What type of rock is this?</p>",7,class_response,0,test,22,Pumice,Pumice,4,TRUE,8,8,,,,,,,,,,,,,,,,
,,,,,,,,,,,html-keyboard-response,50,2.0.0,909848,60fc2ec58ad0da367daee3c1,4,19,null,,,,,,,,,<p style='font-size: 30px;'><strong>Okay</strong></p>,null,neutral_feedback,0,test,22,,,,,,,,,,,,,,,,,,,,,,
,,,,,,,,,,,html-button-response,51,2.0.0,923201,60fc2ec58ad0da367daee3c1,4,19,13321,,,,,,,,,"<img src= ""rock_img/I_Pegmatite_10.jpg"" style=""width:8cm; height:4.16cm;""><p>What type of rock is this?</p>",5,class_response,0,test,23,Pegmatite,Pegmatite,10,TRUE,6,6,,,,,,,,,,,,,,,,
,,,,,,,,,,,html-keyboard-response,52,2.0.0,923731,60fc2ec58ad0da367daee3c1,4,19,null,,,,,,,,,<p style='font-size: 30px;'><strong>Okay</strong></p>,null,neutral_feedback,0,test,23,,,,,,,,,,,,,,,,,,,,,,
,,,,,,,,,,,html-button-response,53,2.0.0,925081,60fc2ec58ad0da367daee3c1,4,19,1321,,,,,,,,,"<img src= ""rock_img/I_Pumice_09.jpg"" style=""width:8cm; height:6.44cm;""><p>What type of rock is this?</p>",7,class_response,0,test,24,Pumice,Pumice,9,TRUE,8,8,,,,,,,,,,,,,,,,
,,,,,,,,,,,html-keyboard-response,54,2.0.0,925613,60fc2ec58ad0da367daee3c1,4,19,null,,,,,,,,,<p style='font-size: 30px;'><strong>Okay</strong></p>,null,neutral_feedback,0,test,24,,,,,,,,,,,,,,,,,,,,,,
,,,,,,,,,,,html-button-response,55,2.0.0,927233,60fc2ec58ad0da367daee3c1,4,19,1589,,,,,,,,,"<img src= ""rock_img/I_Basalt_08.jpg"" style=""width:8cm; height:10.44cm;""><p>What type of rock is this?</p>",1,class_response,0,test,25,Basalt,Basalt,8,TRUE,2,2,,,,,,,,,,,,,,,,
,,,,,,,,,,,html-keyboard-response,56,2.0.0,927764,60fc2ec58ad0da367daee3c1,4,19,null,,,,,,,,,<p style='font-size: 30px;'><strong>Okay</strong></p>,null,neutral_feedback,0,test,25,,,,,,,,,,,,,,,,,,,,,,
,,,,,,,,,,,html-button-response,57,2.0.0,929251,60fc2ec58ad0da367daee3c1,4,19,1455,,,,,,,,,"<img src= ""rock_img/I_Obsidian_04.jpg"" style=""width:8cm; height:6.930000000000001cm;""><p>What type of rock is this?</p>",4,class_response,0,test,26,Obsidian,Obsidian,4,TRUE,5,5,,,,,,,,,,,,,,,,
,,,,,,,,,,,html-keyboard-response,58,2.0.0,929781,60fc2ec58ad0da367daee3c1,4,19,null,,,,,,,,,<p style='font-size: 30px;'><strong>Okay</strong></p>,null,neutral_feedback,0,test,26,,,,,,,,,,,,,,,,,,,,,,
,,,,,,,,,,,html-button-response,59,2.0.0,934282,60fc2ec58ad0da367daee3c1,4,19,4472,,,,,,,,,"<img src= ""rock_img/I_Diorite_11.jpg"" style=""width:8cm; height:7.11cm;""><p>What type of rock is this?</p>",6,class_response,0,test,27,Peridotite,Diorite,11,FALSE,7,3,,,,,,,,,,,,,,,,
,,,,,,,,,,,html-keyboard-response,60,2.0.0,934816,60fc2ec58ad0da367daee3c1,4,19,null,,,,,,,,,<p style='font-size: 30px;'><strong>Okay</strong></p>,null,neutral_feedback,0,test,27,,,,,,,,,,,,,,,,,,,,,,
,,,,,,,,,,,html-button-response,61,2.0.0,936249,60fc2ec58ad0da367daee3c1,4,19,1405,,,,,,,,,"<img src= ""rock_img/I_Basalt_06.jpg"" style=""width:8cm; height:7.06cm;""><p>What type of rock is this?</p>",1,class_response,0,test,28,Basalt,Basalt,6,TRUE,2,2,,,,,,,,,,,,,,,,
,,,,,,,,,,,html-keyboard-response,62,2.0.0,936781,60fc2ec58ad0da367daee3c1,4,19,null,,,,,,,,,<p style='font-size: 30px;'><strong>Okay</strong></p>,null,neutral_feedback,0,test,28,,,,,,,,,,,,,,,,,,,,,,
,,,,,,,,,,,html-button-response,63,2.0.0,943516,60fc2ec58ad0da367daee3c1,4,19,6705,,,,,,,,,"<img src= ""rock_img/I_Diorite_16.jpg"" style=""width:8cm; height:6.74cm;""><p>What type of rock is this?</p>",2,class_response,0,test,29,Diorite,Diorite,16,TRUE,3,3,,,,,,,,,,,,,,,,
,,,,,,,,,,,html-keyboard-response,64,2.0.0,944046,60fc2ec58ad0da367daee3c1,4,19,null,,,,,,,,,<p style='font-size: 30px;'><strong>Okay</strong></p>,null,neutral_feedback,0,test,29,,,,,,,,,,,,,,,,,,,,,,
,,,,,,,,,,,html-button-response,65,2.0.0,948119,60fc2ec58ad0da367daee3c1,4,19,4043,,,,,,,,,"<img src= ""rock_img/I_Andesite_05.jpg"" style=""width:8cm; height:4.12cm;""><p>What type of rock is this?</p>",3,class_response,0,test,30,Gabbro,Andesite,5,FALSE,4,1,,,,,,,,,,,,,,,,
,,,,,,,,,,,html-keyboard-response,66,2.0.0,948648,60fc2ec58ad0da367daee3c1,4,19,null,,,,,,,,,<p style='font-size: 30px;'><strong>Okay</strong></p>,null,neutral_feedback,0,test,30,,,,,,,,,,,,,,,,,,,,,,
,,,,,,,,,,,html-button-response,67,2.0.0,951683,60fc2ec58ad0da367daee3c1,4,19,3004,,,,,,,,,"<img src= ""rock_img/I_Peridotite_12.jpg"" style=""width:8cm; height:4.54cm;""><p>What type of rock is this?</p>",6,class_response,0,test,31,Peridotite,Peridotite,12,TRUE,7,7,,,,,,,,,,,,,,,,
,,,,,,,,,,,html-keyboard-response,68,2.0.0,952212,60fc2ec58ad0da367daee3c1,4,19,null,,,,,,,,,<p style='font-size: 30px;'><strong>Okay</strong></p>,null,neutral_feedback,0,test,31,,,,,,,,,,,,,,,,,,,,,,
,,,,,,,,,,,html-button-response,69,2.0.0,954115,60fc2ec58ad0da367daee3c1,4,19,1873,,,,,,,,,"<img src= ""rock_img/I_Diorite_06.jpg"" style=""width:8cm; height:6.03cm;""><p>What type of rock is this?</p>",5,class_response,0,test,32,Pegmatite,Diorite,6,FALSE,6,3,,,,,,,,,,,,,,,,
,,,,,,,,,,,html-keyboard-response,70,2.0.0,954645,60fc2ec58ad0da367daee3c1,4,19,null,,,,,,,,,<p style='font-size: 30px;'><strong>Okay</strong></p>,null,neutral_feedback,0,test,32,,,,,,,,,,,,,,,,,,,,,,
,,,,,,,,,,,html-button-response,71,2.0.0,976949,60fc2ec58ad0da367daee3c1,4,19,22275,,,,,,,,,"<img src= ""rock_img/I_Andesite_07.jpg"" style=""width:8cm; height:5.93cm;""><p>What type of rock is this?</p>",0,class_response,0,test,33,Andesite,Andesite,7,TRUE,1,1,,,,,,,,,,,,,,,,
,,,,,,,,,,,html-keyboard-response,72,2.0.0,977480,60fc2ec58ad0da367daee3c1,4,19,null,,,,,,,,,<p style='font-size: 30px;'><strong>Okay</strong></p>,null,neutral_feedback,0,test,33,,,,,,,,,,,,,,,,,,,,,,
,,,,,,,,,,,html-button-response,73,2.0.0,986250,60fc2ec58ad0da367daee3c1,4,19,8739,,,,,,,,,"<img src= ""rock_img/I_Gabbro_01.jpg"" style=""width:8cm; height:5.21cm;""><p>What type of rock is this?</p>",3,class_response,0,test,34,Gabbro,Gabbro,1,TRUE,4,4,,,,,,,,,,,,,,,,
,,,,,,,,,,,html-keyboard-response,74,2.0.0,986781,60fc2ec58ad0da367daee3c1,4,19,null,,,,,,,,,<p style='font-size: 30px;'><strong>Okay</strong></p>,null,neutral_feedback,0,test,34,,,,,,,,,,,,,,,,,,,,,,
,,,,,,,,,,,html-button-response,75,2.0.0,988182,60fc2ec58ad0da367daee3c1,4,19,1371,,,,,,,,,"<img src= ""rock_img/I_Pumice_14.jpg"" style=""width:8cm; height:6.39cm;""><p>What type of rock is this?</p>",7,class_response,0,test,35,Pumice,Pumice,14,TRUE,8,8,,,,,,,,,,,,,,,,
,,,,,,,,,,,html-keyboard-response,76,2.0.0,988713,60fc2ec58ad0da367daee3c1,4,19,null,,,,,,,,,<p style='font-size: 30px;'><strong>Okay</strong></p>,null,neutral_feedback,0,test,35,,,,,,,,,,,,,,,,,,,,,,
,,,,,,,,,,,html-button-response,77,2.0.0,990316,60fc2ec58ad0da367daee3c1,4,19,1572,,,,,,,,,"<img src= ""rock_img/I_Obsidian_09.jpg"" style=""width:8cm; height:5cm;""><p>What type of rock is this?</p>",4,class_response,0,test,36,Obsidian,Obsidian,9,TRUE,5,5,,,,,,,,,,,,,,,,
,,,,,,,,,,,html-keyboard-response,78,2.0.0,990846,60fc2ec58ad0da367daee3c1,4,19,null,,,,,,,,,<p style='font-size: 30px;'><strong>Okay</strong></p>,null,neutral_feedback,0,test,36,,,,,,,,,,,,,,,,,,,,,,
,,,,,,,,,,,html-button-response,79,2.0.0,992749,60fc2ec58ad0da367daee3c1,4,19,1873,,,,,,,,,"<img src= ""rock_img/I_Obsidian_10.jpg"" style=""width:8cm; height:6.260000000000001cm;""><p>What type of rock is this?</p>",4,class_response,0,test,37,Obsidian,Obsidian,10,TRUE,5,5,,,,,,,,,,,,,,,,
,,,,,,,,,,,html-keyboard-response,80,2.0.0,993280,60fc2ec58ad0da367daee3c1,4,19,null,,,,,,,,,<p style='font-size: 30px;'><strong>Okay</strong></p>,null,neutral_feedback,0,test,37,,,,,,,,,,,,,,,,,,,,,,
,,,,,,,,,,,html-button-response,81,2.0.0,994967,60fc2ec58ad0da367daee3c1,4,19,1656,,,,,,,,,"<img src= ""rock_img/I_Andesite_03.jpg"" style=""width:8cm; height:5.73cm;""><p>What type of rock is this?</p>",1,class_response,0,test,38,Basalt,Andesite,3,FALSE,2,1,,,,,,,,,,,,,,,,
,,,,,,,,,,,html-keyboard-response,82,2.0.0,995500,60fc2ec58ad0da367daee3c1,4,19,null,,,,,,,,,<p style='font-size: 30px;'><strong>Okay</strong></p>,null,neutral_feedback,0,test,38,,,,,,,,,,,,,,,,,,,,,,
,,,,,,,,,,,html-button-response,83,2.0.0,996933,60fc2ec58ad0da367daee3c1,4,19,1405,,,,,,,,,"<img src= ""rock_img/I_Obsidian_02.jpg"" style=""width:8cm; height:7.51cm;""><p>What type of rock is this?</p>",4,class_response,0,test,39,Obsidian,Obsidian,2,TRUE,5,5,,,,,,,,,,,,,,,,
,,,,,,,,,,,html-keyboard-response,84,2.0.0,997466,60fc2ec58ad0da367daee3c1,4,19,null,,,,,,,,,<p style='font-size: 30px;'><strong>Okay</strong></p>,null,neutral_feedback,0,test,39,,,,,,,,,,,,,,,,,,,,,,
,,,,,,,,,,,html-button-response,85,2.0.0,999281,60fc2ec58ad0da367daee3c1,4,19,1787,,,,,,,,,"<img src= ""rock_img/I_Gabbro_16.jpg"" style=""width:8cm; height:6.44cm;""><p>What type of rock is this?</p>",1,class_response,0,test,40,Basalt,Gabbro,16,FALSE,2,4,,,,,,,,,,,,,,,,
,,,,,,,,,,,html-keyboard-response,86,2.0.0,999812,60fc2ec58ad0da367daee3c1,4,19,null,,,,,,,,,<p style='font-size: 30px;'><strong>Okay</strong></p>,null,neutral_feedback,0,test,40,,,,,,,,,,,,,,,,,,,,,,
,,,,,,,,,,,html-button-response,87,2.0.0,1011667,60fc2ec58ad0da367daee3c1,4,19,11827,,,,,,,,,"<img src= ""rock_img/I_Andesite_01.jpg"" style=""width:8cm; height:5.87cm;""><p>What type of rock is this?</p>",6,class_response,0,test,41,Peridotite,Andesite,1,FALSE,7,1,,,,,,,,,,,,,,,,
,,,,,,,,,,,html-keyboard-response,88,2.0.0,1012196,60fc2ec58ad0da367daee3c1,4,19,null,,,,,,,,,<p style='font-size: 30px;'><strong>Okay</strong></p>,null,neutral_feedback,0,test,41,,,,,,,,,,,,,,,,,,,,,,
,,,,,,,,,,,html-button-response,89,2.0.0,1013500,60fc2ec58ad0da367daee3c1,4,19,1273,,,,,,,,,"<img src= ""rock_img/I_Obsidian_07.jpg"" style=""width:8cm; height:4.76cm;""><p>What type of rock is this?</p>",4,class_response,0,test,42,Obsidian,Obsidian,7,TRUE,5,5,,,,,,,,,,,,,,,,
,,,,,,,,,,,html-keyboard-response,90,2.0.0,1014031,60fc2ec58ad0da367daee3c1,4,19,null,,,,,,,,,<p style='font-size: 30px;'><strong>Okay</strong></p>,null,neutral_feedback,0,test,42,,,,,,,,,,,,,,,,,,,,,,
,,,,,,,,,,,html-button-response,91,2.0.0,1046718,60fc2ec58ad0da367daee3c1,4,19,32656,,,,,,,,,"<img src= ""rock_img/I_Gabbro_14.jpg"" style=""width:8cm; height:8.48cm;""><p>What type of rock is this?</p>",0,class_response,0,test,43,Andesite,Gabbro,14,FALSE,1,4,,,,,,,,,,,,,,,,
,,,,,,,,,,,html-keyboard-response,92,2.0.0,1047247,60fc2ec58ad0da367daee3c1,4,19,null,,,,,,,,,<p style='font-size: 30px;'><strong>Okay</strong></p>,null,neutral_feedback,0,test,43,,,,,,,,,,,,,,,,,,,,,,
,,,,,,,,,,,html-button-response,93,2.0.0,1049001,60fc2ec58ad0da367daee3c1,4,19,1722,,,,,,,,,"<img src= ""rock_img/I_Pegmatite_12.jpg"" style=""width:8cm; height:5.7cm;""><p>What type of rock is this?</p>",5,class_response,0,test,44,Pegmatite,Pegmatite,12,TRUE,6,6,,,,,,,,,,,,,,,,
,,,,,,,,,,,html-keyboard-response,94,2.0.0,1049531,60fc2ec58ad0da367daee3c1,4,19,null,,,,,,,,,<p style='font-size: 30px;'><strong>Okay</strong></p>,null,neutral_feedback,0,test,44,,,,,,,,,,,,,,,,,,,,,,
,,,,,,,,,,,html-button-response,95,2.0.0,1051234,60fc2ec58ad0da367daee3c1,4,19,1672,,,,,,,,,"<img src= ""rock_img/I_Pumice_03.jpg"" style=""width:8cm; height:6.64cm;""><p>What type of rock is this?</p>",7,class_response,0,test,45,Pumice,Pumice,3,TRUE,8,8,,,,,,,,,,,,,,,,
,,,,,,,,,,,html-keyboard-response,96,2.0.0,1051765,60fc2ec58ad0da367daee3c1,4,19,null,,,,,,,,,<p style='font-size: 30px;'><strong>Okay</strong></p>,null,neutral_feedback,0,test,45,,,,,,,,,,,,,,,,,,,,,,
,,,,,,,,,,,html-button-response,97,2.0.0,1053883,60fc2ec58ad0da367daee3c1,4,19,2089,,,,,,,,,"<img src= ""rock_img/I_Basalt_10.jpg"" style=""width:8cm; height:5.85cm;""><p>What type of rock is this?</p>",1,class_response,0,test,46,Basalt,Basalt,10,TRUE,2,2,,,,,,,,,,,,,,,,
,,,,,,,,,,,html-keyboard-response,98,2.0.0,1054413,60fc2ec58ad0da367daee3c1,4,19,null,,,,,,,,,<p style='font-size: 30px;'><strong>Okay</strong></p>,null,neutral_feedback,0,test,46,,,,,,,,,,,,,,,,,,,,,,
,,,,,,,,,,,html-button-response,99,2.0.0,1056949,60fc2ec58ad0da367daee3c1,4,19,2506,,,,,,,,,"<img src= ""rock_img/I_Gabbro_10.jpg"" style=""width:8cm; height:5.680000000000001cm;""><p>What type of rock is this?</p>",3,class_response,0,test,47,Gabbro,Gabbro,10,TRUE,4,4,,,,,,,,,,,,,,,,
,,,,,,,,,,,html-keyboard-response,100,2.0.0,1057480,60fc2ec58ad0da367daee3c1,4,19,null,,,,,,,,,<p style='font-size: 30px;'><strong>Okay</strong></p>,null,neutral_feedback,0,test,47,,,,,,,,,,,,,,,,,,,,,,
,,,,,,,,,,,html-button-response,101,2.0.0,1060515,60fc2ec58ad0da367daee3c1,4,19,3006,,,,,,,,,"<img src= ""rock_img/I_Peridotite_16.jpg"" style=""width:8cm; height:6.989999999999999cm;""><p>What type of rock is this?</p>",6,class_response,0,test,48,Peridotite,Peridotite,16,TRUE,7,7,,,,,,,,,,,,,,,,
,,,,,,,,,,,html-keyboard-response,102,2.0.0,1061047,60fc2ec58ad0da367daee3c1,4,19,null,,,,,,,,,<p style='font-size: 30px;'><strong>Okay</strong></p>,null,neutral_feedback,0,test,48,,,,,,,,,,,,,,,,,,,,,,
,,,,,,,,,,,instructions,103,2.0.0,1082193,60fc2ec58ad0da367daee3c1,4,19,21117,,,,,,,,"[{""page_index"":0,""viewing_time"":16747},{""page_index"":1,""viewing_time"":4369}]",,,,,,,,,,,,,,,,,,,,,,,,,,,,
,,,,,,,,,,,html-button-response,104,2.0.0,1090368,60fc2ec58ad0da367daee3c1,4,19,8092,,,,,,,,,,0,start_train,,,,,,,,,,,,,,,,,,,,,,,,,
,,,,,,,,,,,html-button-response,106,2.0.0,1092235,60fc2ec58ad0da367daee3c1,4,19,1808,,,,,,,,,"<img src= ""rock_img/I_Basalt_05.jpg"" style=""width:8cm; height:8.18cm;""><p>What type of rock is this?</p>",1,class_response,1,train,1,Basalt,Basalt,5,TRUE,2,2,,,,,,,,,,,,,,,,
,,,,,,,,,,,html-button-response,107,2.0.0,1093983,60fc2ec58ad0da367daee3c1,4,19,1691,,,,,,,,,"<img src= rock_img/I_Basalt_05.jpg style=""width:8cm; height:8.18cm;""><p style='font-size: 30px; color: green;'><strong>Correct!</strong></p><p style='font-size: 30px;'><strong>This rock is basalt</strong></p>",0,corr_feedback,1,train,1,,,,,,,,,,,,,,,,,,,,,,
,,,,,,,,,,,html-button-response,108,2.0.0,1097882,60fc2ec58ad0da367daee3c1,4,19,3846,,,,,,,,,"<img src= ""rock_img/I_Pegmatite_03.jpg"" style=""width:8cm; height:5.239999999999999cm;""><p>What type of rock is this?</p>",2,class_response,1,train,2,Diorite,Pegmatite,3,FALSE,3,6,,,,,,,,,,,,,,,,
,,,,,,,,,,,html-button-response,109,2.0.0,1099400,60fc2ec58ad0da367daee3c1,4,19,1463,,,,,,,,,"<img src= rock_img/I_Pegmatite_03.jpg style=""width:8cm; height:5.239999999999999cm;""><p style='font-size: 30px; color: red;'><strong>Incorrect!</strong></p><p style='font-size: 30px;'><strong>This rock is pegmatite</strong></p>",0,corr_feedback,1,train,2,,,,,,,,,,,,,,,,,,,,,,
,,,,,,,,,,,html-button-response,110,2.0.0,1103685,60fc2ec58ad0da367daee3c1,4,19,4229,,,,,,,,,"<img src= ""rock_img/I_Gabbro_05.jpg"" style=""width:8cm; height:6cm;""><p>What type of rock is this?</p>",6,class_response,1,train,3,Peridotite,Gabbro,5,FALSE,7,4,,,,,,,,,,,,,,,,
,,,,,,,,,,,html-button-response,111,2.0.0,1104899,60fc2ec58ad0da367daee3c1,4,19,1161,,,,,,,,,"<img src= rock_img/I_Gabbro_05.jpg style=""width:8cm; height:6cm;""><p style='font-size: 30px; color: red;'><strong>Incorrect!</strong></p><p style='font-size: 30px;'><strong>This rock is gabbro</strong></p>",0,corr_feedback,1,train,3,,,,,,,,,,,,,,,,,,,,,,
,,,,,,,,,,,html-button-response,112,2.0.0,1114184,60fc2ec58ad0da367daee3c1,4,19,9227,,,,,,,,,"<img src= ""rock_img/I_Peridotite_10.jpg"" style=""width:8cm; height:5.390000000000001cm;""><p>What type of rock is this?</p>",7,class_response,1,train,4,Pumice,Peridotite,10,FALSE,8,7,,,,,,,,,,,,,,,,
,,,,,,,,,,,html-button-response,113,2.0.0,1115618,60fc2ec58ad0da367daee3c1,4,19,1377,,,,,,,,,"<img src= rock_img/I_Peridotite_10.jpg style=""width:8cm; height:5.390000000000001cm;""><p style='font-size: 30px; color: red;'><strong>Incorrect!</strong></p><p style='font-size: 30px;'><strong>This rock is peridotite</strong></p>",0,corr_feedback,1,train,4,,,,,,,,,,,,,,,,,,,,,,
,,,,,,,,,,,html-button-response,114,2.0.0,1124766,60fc2ec58ad0da367daee3c1,4,19,9092,,,,,,,,,"<img src= ""rock_img/I_Basalt_14.jpg"" style=""width:8cm; height:5.82cm;""><p>What type of rock is this?</p>",5,class_response,1,train,5,Pegmatite,Basalt,14,FALSE,6,2,,,,,,,,,,,,,,,,
,,,,,,,,,,,html-button-response,115,2.0.0,1125999,60fc2ec58ad0da367daee3c1,4,19,1177,,,,,,,,,"<img src= rock_img/I_Basalt_14.jpg style=""width:8cm; height:5.82cm;""><p style='font-size: 30px; color: red;'><strong>Incorrect!</strong></p><p style='font-size: 30px;'><strong>This rock is basalt</strong></p>",0,corr_feedback,1,train,5,,,,,,,,,,,,,,,,,,,,,,
,,,,,,,,,,,html-button-response,116,2.0.0,1131102,60fc2ec58ad0da367daee3c1,4,19,5045,,,,,,,,,"<img src= ""rock_img/I_Diorite_02.jpg"" style=""width:8cm; height:6.27cm;""><p>What type of rock is this?</p>",5,class_response,1,train,6,Pegmatite,Diorite,2,FALSE,6,3,,,,,,,,,,,,,,,,
,,,,,,,,,,,html-button-response,117,2.0.0,1132315,60fc2ec58ad0da367daee3c1,4,19,1157,,,,,,,,,"<img src= rock_img/I_Diorite_02.jpg style=""width:8cm; height:6.27cm;""><p style='font-size: 30px; color: red;'><strong>Incorrect!</strong></p><p style='font-size: 30px;'><strong>This rock is diorite</strong></p>",0,corr_feedback,1,train,6,,,,,,,,,,,,,,,,,,,,,,
,,,,,,,,,,,html-button-response,118,2.0.0,1135382,60fc2ec58ad0da367daee3c1,4,19,3015,,,,,,,,,"<img src= ""rock_img/I_Peridotite_14.jpg"" style=""width:8cm; height:5.3cm;""><p>What type of rock is this?</p>",0,class_response,1,train,7,Andesite,Peridotite,14,FALSE,1,7,,,,,,,,,,,,,,,,
,,,,,,,,,,,html-button-response,119,2.0.0,1136564,60fc2ec58ad0da367daee3c1,4,19,1128,,,,,,,,,"<img src= rock_img/I_Peridotite_14.jpg style=""width:8cm; height:5.3cm;""><p style='font-size: 30px; color: red;'><strong>Incorrect!</strong></p><p style='font-size: 30px;'><strong>This rock is peridotite</strong></p>",0,corr_feedback,1,train,7,,,,,,,,,,,,,,,,,,,,,,
,,,,,,,,,,,html-button-response,120,2.0.0,1138547,60fc2ec58ad0da367daee3c1,4,19,1928,,,,,,,,,"<img src= ""rock_img/I_Pumice_08.jpg"" style=""width:8cm; height:6.67cm;""><p>What type of rock is this?</p>",7,class_response,1,train,8,Pumice,Pumice,8,TRUE,8,8,,,,,,,,,,,,,,,,
,,,,,,,,,,,html-button-response,121,2.0.0,1139563,60fc2ec58ad0da367daee3c1,4,19,963,,,,,,,,,"<img src= rock_img/I_Pumice_08.jpg style=""width:8cm; height:6.67cm;""><p style='font-size: 30px; color: green;'><strong>Correct!</strong></p><p style='font-size: 30px;'><strong>This rock is pumice</strong></p>",0,corr_feedback,1,train,8,,,,,,,,,,,,,,,,,,,,,,
,,,,,,,,,,,html-button-response,122,2.0.0,1141049,60fc2ec58ad0da367daee3c1,4,19,1429,,,,,,,,,"<img src= ""rock_img/I_Gabbro_13.jpg"" style=""width:8cm; height:5.08cm;""><p>What type of rock is this?</p>",1,class_response,1,train,9,Basalt,Gabbro,13,FALSE,2,4,,,,,,,,,,,,,,,,
,,,,,,,,,,,html-button-response,123,2.0.0,1142316,60fc2ec58ad0da367daee3c1,4,19,1208,,,,,,,,,"<img src= rock_img/I_Gabbro_13.jpg style=""width:8cm; height:5.08cm;""><p style='font-size: 30px; color: red;'><strong>Incorrect!</strong></p><p style='font-size: 30px;'><strong>This rock is gabbro</strong></p>",0,corr_feedback,1,train,9,,,,,,,,,,,,,,,,,,,,,,
,,,,,,,,,,,html-button-response,124,2.0.0,1144200,60fc2ec58ad0da367daee3c1,4,19,1826,,,,,,,,,"<img src= ""rock_img/I_Andesite_11.jpg"" style=""width:8cm; height:4.92cm;""><p>What type of rock is this?</p>",5,class_response,1,train,10,Pegmatite,Andesite,11,FALSE,6,1,,,,,,,,,,,,,,,,
,,,,,,,,,,,html-button-response,125,2.0.0,1145216,60fc2ec58ad0da367daee3c1,4,19,958,,,,,,,,,"<img src= rock_img/I_Andesite_11.jpg style=""width:8cm; height:4.92cm;""><p style='font-size: 30px; color: red;'><strong>Incorrect!</strong></p><p style='font-size: 30px;'><strong>This rock is andesite</strong></p>",0,corr_feedback,1,train,10,,,,,,,,,,,,,,,,,,,,,,
,,,,,,,,,,,html-button-response,126,2.0.0,1147815,60fc2ec58ad0da367daee3c1,4,19,2543,,,,,,,,,"<img src= ""rock_img/I_Andesite_10.jpg"" style=""width:8cm; height:4.16cm;""><p>What type of rock is this?</p>",1,class_response,1,train,11,Basalt,Andesite,10,FALSE,2,1,,,,,,,,,,,,,,,,
,,,,,,,,,,,html-button-response,127,2.0.0,1148849,60fc2ec58ad0da367daee3c1,4,19,977,,,,,,,,,"<img src= rock_img/I_Andesite_10.jpg style=""width:8cm; height:4.16cm;""><p style='font-size: 30px; color: red;'><strong>Incorrect!</strong></p><p style='font-size: 30px;'><strong>This rock is andesite</strong></p>",0,corr_feedback,1,train,11,,,,,,,,,,,,,,,,,,,,,,
,,,,,,,,,,,html-button-response,128,2.0.0,1150832,60fc2ec58ad0da367daee3c1,4,19,1925,,,,,,,,,"<img src= ""rock_img/I_Obsidian_05.jpg"" style=""width:8cm; height:6.33cm;""><p>What type of rock is this?</p>",4,class_response,1,train,12,Obsidian,Obsidian,5,TRUE,5,5,,,,,,,,,,,,,,,,
,,,,,,,,,,,html-button-response,129,2.0.0,1152050,60fc2ec58ad0da367daee3c1,4,19,1159,,,,,,,,,"<img src= rock_img/I_Obsidian_05.jpg style=""width:8cm; height:6.33cm;""><p style='font-size: 30px; color: green;'><strong>Correct!</strong></p><p style='font-size: 30px;'><strong>This rock is obsidian</strong></p>",0,corr_feedback,1,train,12,,,,,,,,,,,,,,,,,,,,,,
,,,,,,,,,,,instructions,130,2.0.0,1172625,60fc2ec58ad0da367daee3c1,4,19,20544,,,,,,,,"[{""page_index"":0,""viewing_time"":1408},{""page_index"":1,""viewing_time"":13801},{""page_index"":2,""viewing_time"":3669},{""page_index"":3,""viewing_time"":1667}]",,,,,,,,,,,,,,,,,,,,,,,,,,,,
,,,,,,,,,,,html-button-response,131,2.0.0,1176549,60fc2ec58ad0da367daee3c1,4,19,3841,,,,,,,,,,0,start_train,,,,,,,,,,,,,,,,,,,,,,,,,
,,,,,,,,,,,html-button-response,132,2.0.0,1186351,60fc2ec58ad0da367daee3c1,4,19,,,,,,,,,,,,cat_selection,1,train,1,,,,,,,5874.8,3882.8,4,2,Gabbro,Basalt,,,,,,,,,,
,,,,,,,,,,,paired-cat-display,133,1.0.0,1279341,60fc2ec58ad0da367daee3c1,4,19,,,,,,,,,,,,paired_cat_display,1,train,1,,,,,,,,,,,,,Grained texture and dark in color.,"High density, fine grained structure and dark in color.",12179.8,80782.1,,,,,,
,,,,,,,,,,,html-button-response,134,2.0.0,1291551,60fc2ec58ad0da367daee3c1,4,19,,,,,,,,,,,,cat_selection,1,train,2,,,,,,,7336.8,4815.1,7,6,Peridotite,Pegmatite,,,,,,,,,,
,,,,,,,,,,,paired-cat-display,135,1.0.0,1398009,60fc2ec58ad0da367daee3c1,4,19,,,,,,,,,,,,paired_cat_display,1,train,2,,,,,,,,,,,,,,,18131.5,88301.3,"Green in color, fine coarse grain type structure.","A composition of crystals, variab;e texture and coarseness.",,,,
,,,,,,,,,,,html-button-response,136,2.0.0,1412303,60fc2ec58ad0da367daee3c1,4,19,,,,,,,,,,,,cat_selection,1,train,3,,,,,,,5337.2,8900.2,1,3,Andesite,Diorite,,,,,,,,,,
,,,,,,,,,,,paired-cat-display,137,1.0.0,1539742,60fc2ec58ad0da367daee3c1,4,19,,,,,,,,,,,,paired_cat_display,1,train,3,,,,,,,,,,,,,,,11428.6,115984.9,,,"Greyish in color,Igneous rock.","Large crystal type structure involving two types of crystals, coarse grained in type.",,
,,,,,,,,,,,instructions,138,2.0.0,1545875,60fc2ec58ad0da367daee3c1,4,19,6090,,,,,,,,"[{""page_index"":0,""viewing_time"":1672},{""page_index"":1,""viewing_time"":4418}]",,,,,,,,,,,,,,,,,,,,,,,,,,,,
,,,,,,,,,,,html-button-response,139,2.0.0,1551137,60fc2ec58ad0da367daee3c1,4,19,5178,,,,,,,,,,0,start_test,,,,,,,,,,,,,,,,,,,,,,,,,
,,,,,,,,,,,html-button-response,140,2.0.0,1569586,60fc2ec58ad0da367daee3c1,4,19,18393,,,,,,,,,"<img src= ""rock_img/I_Pegmatite_16.jpg"" style=""width:8cm; height:5.8cm;""><p>What type of rock is this?</p>",5,class_response,1,test,1,Pegmatite,Pegmatite,16,TRUE,6,6,,,,,,,,,,,,,,,,
,,,,,,,,,,,html-keyboard-response,141,2.0.0,1570116,60fc2ec58ad0da367daee3c1,4,19,null,,,,,,,,,<p style='font-size: 30px;'><strong>Okay</strong></p>,null,neutral_feedback,1,test,1,,,,,,,,,,,,,,,,,,,,,,
,,,,,,,,,,,html-button-response,142,2.0.0,1571470,60fc2ec58ad0da367daee3c1,4,19,1324,,,,,,,,,"<img src= ""rock_img/I_Obsidian_14.jpg"" style=""width:8cm; height:7.64cm;""><p>What type of rock is this?</p>",4,class_response,1,test,2,Obsidian,Obsidian,14,TRUE,5,5,,,,,,,,,,,,,,,,
,,,,,,,,,,,html-keyboard-response,143,2.0.0,1572001,60fc2ec58ad0da367daee3c1,4,19,null,,,,,,,,,<p style='font-size: 30px;'><strong>Okay</strong></p>,null,neutral_feedback,1,test,2,,,,,,,,,,,,,,,,,,,,,,
,,,,,,,,,,,html-button-response,144,2.0.0,1584066,60fc2ec58ad0da367daee3c1,4,19,12037,,,,,,,,,"<img src= ""rock_img/I_Gabbro_16.jpg"" style=""width:8cm; height:6.44cm;""><p>What type of rock is this?</p>",1,class_response,1,test,3,Basalt,Gabbro,16,FALSE,2,4,,,,,,,,,,,,,,,,
,,,,,,,,,,,html-keyboard-response,145,2.0.0,1584595,60fc2ec58ad0da367daee3c1,4,19,null,,,,,,,,,<p style='font-size: 30px;'><strong>Okay</strong></p>,null,neutral_feedback,1,test,3,,,,,,,,,,,,,,,,,,,,,,
,,,,,,,,,,,html-button-response,146,2.0.0,1587185,60fc2ec58ad0da367daee3c1,4,19,2561,,,,,,,,,"<img src= ""rock_img/I_Basalt_16.jpg"" style=""width:8cm; height:7.659999999999999cm;""><p>What type of rock is this?</p>",1,class_response,1,test,4,Basalt,Basalt,16,TRUE,2,2,,,,,,,,,,,,,,,,
,,,,,,,,,,,html-keyboard-response,147,2.0.0,1587715,60fc2ec58ad0da367daee3c1,4,19,null,,,,,,,,,<p style='font-size: 30px;'><strong>Okay</strong></p>,null,neutral_feedback,1,test,4,,,,,,,,,,,,,,,,,,,,,,
,,,,,,,,,,,html-button-response,148,2.0.0,1589402,60fc2ec58ad0da367daee3c1,4,19,1658,,,,,,,,,"<img src= ""rock_img/I_Obsidian_07.jpg"" style=""width:8cm; height:4.76cm;""><p>What type of rock is this?</p>",4,class_response,1,test,5,Obsidian,Obsidian,7,TRUE,5,5,,,,,,,,,,,,,,,,
,,,,,,,,,,,html-keyboard-response,149,2.0.0,1589933,60fc2ec58ad0da367daee3c1,4,19,null,,,,,,,,,<p style='font-size: 30px;'><strong>Okay</strong></p>,null,neutral_feedback,1,test,5,,,,,,,,,,,,,,,,,,,,,,
,,,,,,,,,,,html-button-response,150,2.0.0,1611988,60fc2ec58ad0da367daee3c1,4,19,22026,,,,,,,,,"<img src= ""rock_img/I_Diorite_11.jpg"" style=""width:8cm; height:7.11cm;""><p>What type of rock is this?</p>",2,class_response,1,test,6,Diorite,Diorite,11,TRUE,3,3,,,,,,,,,,,,,,,,
,,,,,,,,,,,html-keyboard-response,151,2.0.0,1612518,60fc2ec58ad0da367daee3c1,4,19,null,,,,,,,,,<p style='font-size: 30px;'><strong>Okay</strong></p>,null,neutral_feedback,1,test,6,,,,,,,,,,,,,,,,,,,,,,
,,,,,,,,,,,html-button-response,152,2.0.0,1614369,60fc2ec58ad0da367daee3c1,4,19,1820,,,,,,,,,"<img src= ""rock_img/I_Obsidian_10.jpg"" style=""width:8cm; height:6.260000000000001cm;""><p>What type of rock is this?</p>",4,class_response,1,test,7,Obsidian,Obsidian,10,TRUE,5,5,,,,,,,,,,,,,,,,
,,,,,,,,,,,html-keyboard-response,153,2.0.0,1614897,60fc2ec58ad0da367daee3c1,4,19,null,,,,,,,,,<p style='font-size: 30px;'><strong>Okay</strong></p>,null,neutral_feedback,1,test,7,,,,,,,,,,,,,,,,,,,,,,
,,,,,,,,,,,html-button-response,154,2.0.0,1616737,60fc2ec58ad0da367daee3c1,4,19,1811,,,,,,,,,"<img src= ""rock_img/I_Obsidian_09.jpg"" style=""width:8cm; height:5cm;""><p>What type of rock is this?</p>",4,class_response,1,test,8,Obsidian,Obsidian,9,TRUE,5,5,,,,,,,,,,,,,,,,
,,,,,,,,,,,html-keyboard-response,155,2.0.0,1617267,60fc2ec58ad0da367daee3c1,4,19,null,,,,,,,,,<p style='font-size: 30px;'><strong>Okay</strong></p>,null,neutral_feedback,1,test,8,,,,,,,,,,,,,,,,,,,,,,
,,,,,,,,,,,html-button-response,156,2.0.0,1653170,60fc2ec58ad0da367daee3c1,4,19,35874,,,,,,,,,"<img src= ""rock_img/I_Pegmatite_12.jpg"" style=""width:8cm; height:5.7cm;""><p>What type of rock is this?</p>",3,class_response,1,test,9,Gabbro,Pegmatite,12,FALSE,4,6,,,,,,,,,,,,,,,,
,,,,,,,,,,,html-keyboard-response,157,2.0.0,1653700,60fc2ec58ad0da367daee3c1,4,19,null,,,,,,,,,<p style='font-size: 30px;'><strong>Okay</strong></p>,null,neutral_feedback,1,test,9,,,,,,,,,,,,,,,,,,,,,,
,,,,,,,,,,,html-button-response,158,2.0.0,1673573,60fc2ec58ad0da367daee3c1,4,19,19841,,,,,,,,,"<img src= ""rock_img/I_Pegmatite_07.jpg"" style=""width:8cm; height:6.7cm;""><p>What type of rock is this?</p>",6,class_response,1,test,10,Peridotite,Pegmatite,7,FALSE,7,6,,,,,,,,,,,,,,,,
,,,,,,,,,,,html-keyboard-response,159,2.0.0,1674104,60fc2ec58ad0da367daee3c1,4,19,null,,,,,,,,,<p style='font-size: 30px;'><strong>Okay</strong></p>,null,neutral_feedback,1,test,10,,,,,,,,,,,,,,,,,,,,,,
,,,,,,,,,,,html-button-response,160,2.0.0,1684936,60fc2ec58ad0da367daee3c1,4,19,10803,,,,,,,,,"<img src= ""rock_img/I_Andesite_06.jpg"" style=""width:8cm; height:6.840000000000001cm;""><p>What type of rock is this?</p>",0,class_response,1,test,11,Andesite,Andesite,6,TRUE,1,1,,,,,,,,,,,,,,,,
,,,,,,,,,,,html-keyboard-response,161,2.0.0,1685465,60fc2ec58ad0da367daee3c1,4,19,null,,,,,,,,,<p style='font-size: 30px;'><strong>Okay</strong></p>,null,neutral_feedback,1,test,11,,,,,,,,,,,,,,,,,,,,,,
,,,,,,,,,,,html-button-response,162,2.0.0,1687239,60fc2ec58ad0da367daee3c1,4,19,1741,,,,,,,,,"<img src= ""rock_img/I_Pumice_15.jpg"" style=""width:8cm; height:7.86cm;""><p>What type of rock is this?</p>",7,class_response,1,test,12,Pumice,Pumice,15,TRUE,8,8,,,,,,,,,,,,,,,,
,,,,,,,,,,,html-keyboard-response,163,2.0.0,1687769,60fc2ec58ad0da367daee3c1,4,19,null,,,,,,,,,<p style='font-size: 30px;'><strong>Okay</strong></p>,null,neutral_feedback,1,test,12,,,,,,,,,,,,,,,,,,,,,,
,,,,,,,,,,,html-button-response,164,2.0.0,1701105,60fc2ec58ad0da367daee3c1,4,19,13306,,,,,,,,,"<img src= ""rock_img/I_Peridotite_05.jpg"" style=""width:8cm; height:7.1499999999999995cm;""><p>What type of rock is this?</p>",6,class_response,1,test,13,Peridotite,Peridotite,5,TRUE,7,7,,,,,,,,,,,,,,,,
,,,,,,,,,,,html-keyboard-response,165,2.0.0,1701635,60fc2ec58ad0da367daee3c1,4,19,null,,,,,,,,,<p style='font-size: 30px;'><strong>Okay</strong></p>,null,neutral_feedback,1,test,13,,,,,,,,,,,,,,,,,,,,,,
,,,,,,,,,,,html-button-response,166,2.0.0,1703503,60fc2ec58ad0da367daee3c1,4,19,1838,,,,,,,,,"<img src= ""rock_img/I_Pumice_05.jpg"" style=""width:8cm; height:7.25cm;""><p>What type of rock is this?</p>",7,class_response,1,test,14,Pumice,Pumice,5,TRUE,8,8,,,,,,,,,,,,,,,,
,,,,,,,,,,,html-keyboard-response,167,2.0.0,1704032,60fc2ec58ad0da367daee3c1,4,19,null,,,,,,,,,<p style='font-size: 30px;'><strong>Okay</strong></p>,null,neutral_feedback,1,test,14,,,,,,,,,,,,,,,,,,,,,,
,,,,,,,,,,,html-button-response,168,2.0.0,1714237,60fc2ec58ad0da367daee3c1,4,19,10175,,,,,,,,,"<img src= ""rock_img/I_Gabbro_10.jpg"" style=""width:8cm; height:5.680000000000001cm;""><p>What type of rock is this?</p>",1,class_response,1,test,15,Basalt,Gabbro,10,FALSE,2,4,,,,,,,,,,,,,,,,
,,,,,,,,,,,html-keyboard-response,169,2.0.0,1714767,60fc2ec58ad0da367daee3c1,4,19,null,,,,,,,,,<p style='font-size: 30px;'><strong>Okay</strong></p>,null,neutral_feedback,1,test,15,,,,,,,,,,,,,,,,,,,,,,
,,,,,,,,,,,html-button-response,170,2.0.0,1723821,60fc2ec58ad0da367daee3c1,4,19,9022,,,,,,,,,"<img src= ""rock_img/I_Pegmatite_10.jpg"" style=""width:8cm; height:4.16cm;""><p>What type of rock is this?</p>",5,class_response,1,test,16,Pegmatite,Pegmatite,10,TRUE,6,6,,,,,,,,,,,,,,,,
,,,,,,,,,,,html-keyboard-response,171,2.0.0,1724351,60fc2ec58ad0da367daee3c1,4,19,null,,,,,,,,,<p style='font-size: 30px;'><strong>Okay</strong></p>,null,neutral_feedback,1,test,16,,,,,,,,,,,,,,,,,,,,,,
,,,,,,,,,,,html-button-response,172,2.0.0,1740520,60fc2ec58ad0da367daee3c1,4,19,16139,,,,,,,,,"<img src= ""rock_img/I_Andesite_05.jpg"" style=""width:8cm; height:4.12cm;""><p>What type of rock is this?</p>",0,class_response,1,test,17,Andesite,Andesite,5,TRUE,1,1,,,,,,,,,,,,,,,,
,,,,,,,,,,,html-keyboard-response,173,2.0.0,1741049,60fc2ec58ad0da367daee3c1,4,19,null,,,,,,,,,<p style='font-size: 30px;'><strong>Okay</strong></p>,null,neutral_feedback,1,test,17,,,,,,,,,,,,,,,,,,,,,,
,,,,,,,,,,,html-button-response,174,2.0.0,1742838,60fc2ec58ad0da367daee3c1,4,19,1758,,,,,,,,,"<img src= ""rock_img/I_Obsidian_02.jpg"" style=""width:8cm; height:7.51cm;""><p>What type of rock is this?</p>",4,class_response,1,test,18,Obsidian,Obsidian,2,TRUE,5,5,,,,,,,,,,,,,,,,
,,,,,,,,,,,html-keyboard-response,175,2.0.0,1743368,60fc2ec58ad0da367daee3c1,4,19,null,,,,,,,,,<p style='font-size: 30px;'><strong>Okay</strong></p>,null,neutral_feedback,1,test,18,,,,,,,,,,,,,,,,,,,,,,
,,,,,,,,,,,html-button-response,176,2.0.0,1756754,60fc2ec58ad0da367daee3c1,4,19,13354,,,,,,,,,"<img src= ""rock_img/I_Diorite_07.jpg"" style=""width:8cm; height:5.239999999999999cm;""><p>What type of rock is this?</p>",2,class_response,1,test,19,Diorite,Diorite,7,TRUE,3,3,,,,,,,,,,,,,,,,
,,,,,,,,,,,html-keyboard-response,177,2.0.0,1757284,60fc2ec58ad0da367daee3c1,4,19,null,,,,,,,,,<p style='font-size: 30px;'><strong>Okay</strong></p>,null,neutral_feedback,1,test,19,,,,,,,,,,,,,,,,,,,,,,
,,,,,,,,,,,html-button-response,178,2.0.0,1794755,60fc2ec58ad0da367daee3c1,4,19,37439,,,,,,,,,"<img src= ""rock_img/I_Andesite_07.jpg"" style=""width:8cm; height:5.93cm;""><p>What type of rock is this?</p>",3,class_response,1,test,20,Gabbro,Andesite,7,FALSE,4,1,,,,,,,,,,,,,,,,
,,,,,,,,,,,html-keyboard-response,179,2.0.0,1795286,60fc2ec58ad0da367daee3c1,4,19,null,,,,,,,,,<p style='font-size: 30px;'><strong>Okay</strong></p>,null,neutral_feedback,1,test,20,,,,,,,,,,,,,,,,,,,,,,
,,,,,,,,,,,html-button-response,180,2.0.0,1798006,60fc2ec58ad0da367daee3c1,4,19,2687,,,,,,,,,"<img src= ""rock_img/I_Gabbro_08.jpg"" style=""width:8cm; height:5.15cm;""><p>What type of rock is this?</p>",1,class_response,1,test,21,Basalt,Gabbro,8,FALSE,2,4,,,,,,,,,,,,,,,,
,,,,,,,,,,,html-keyboard-response,181,2.0.0,1798535,60fc2ec58ad0da367daee3c1,4,19,null,,,,,,,,,<p style='font-size: 30px;'><strong>Okay</strong></p>,null,neutral_feedback,1,test,21,,,,,,,,,,,,,,,,,,,,,,
,,,,,,,,,,,html-button-response,182,2.0.0,1820621,60fc2ec58ad0da367daee3c1,4,19,22057,,,,,,,,,"<img src= ""rock_img/I_Gabbro_12.jpg"" style=""width:8cm; height:7.800000000000001cm;""><p>What type of rock is this?</p>",1,class_response,1,test,22,Basalt,Gabbro,12,FALSE,2,4,,,,,,,,,,,,,,,,
,,,,,,,,,,,html-keyboard-response,183,2.0.0,1821151,60fc2ec58ad0da367daee3c1,4,19,null,,,,,,,,,<p style='font-size: 30px;'><strong>Okay</strong></p>,null,neutral_feedback,1,test,22,,,,,,,,,,,,,,,,,,,,,,
,,,,,,,,,,,html-button-response,184,2.0.0,1864952,60fc2ec58ad0da367daee3c1,4,19,43774,,,,,,,,,"<img src= ""rock_img/I_Diorite_06.jpg"" style=""width:8cm; height:6.03cm;""><p>What type of rock is this?</p>",0,class_response,1,test,23,Andesite,Diorite,6,FALSE,1,3,,,,,,,,,,,,,,,,
,,,,,,,,,,,html-keyboard-response,185,2.0.0,1865481,60fc2ec58ad0da367daee3c1,4,19,null,,,,,,,,,<p style='font-size: 30px;'><strong>Okay</strong></p>,null,neutral_feedback,1,test,23,,,,,,,,,,,,,,,,,,,,,,
,,,,,,,,,,,html-button-response,186,2.0.0,1871173,60fc2ec58ad0da367daee3c1,4,19,5660,,,,,,,,,"<img src= ""rock_img/I_Gabbro_01.jpg"" style=""width:8cm; height:5.21cm;""><p>What type of rock is this?</p>",0,class_response,1,test,24,Andesite,Gabbro,1,FALSE,1,4,,,,,,,,,,,,,,,,
,,,,,,,,,,,html-keyboard-response,187,2.0.0,1871704,60fc2ec58ad0da367daee3c1,4,19,null,,,,,,,,,<p style='font-size: 30px;'><strong>Okay</strong></p>,null,neutral_feedback,1,test,24,,,,,,,,,,,,,,,,,,,,,,
,,,,,,,,,,,html-button-response,188,2.0.0,1873254,60fc2ec58ad0da367daee3c1,4,19,1519,,,,,,,,,"<img src= ""rock_img/I_Pumice_14.jpg"" style=""width:8cm; height:6.39cm;""><p>What type of rock is this?</p>",7,class_response,1,test,25,Pumice,Pumice,14,TRUE,8,8,,,,,,,,,,,,,,,,
,,,,,,,,,,,html-keyboard-response,189,2.0.0,1873785,60fc2ec58ad0da367daee3c1,4,19,null,,,,,,,,,<p style='font-size: 30px;'><strong>Okay</strong></p>,null,neutral_feedback,1,test,25,,,,,,,,,,,,,,,,,,,,,,
,,,,,,,,,,,html-button-response,190,2.0.0,1927254,60fc2ec58ad0da367daee3c1,4,19,53440,,,,,,,,,"<img src= ""rock_img/I_Pegmatite_13.jpg"" style=""width:8cm; height:4.95cm;""><p>What type of rock is this?</p>",5,class_response,1,test,26,Pegmatite,Pegmatite,13,TRUE,6,6,,,,,,,,,,,,,,,,
,,,,,,,,,,,html-keyboard-response,191,2.0.0,1927785,60fc2ec58ad0da367daee3c1,4,19,null,,,,,,,,,<p style='font-size: 30px;'><strong>Okay</strong></p>,null,neutral_feedback,1,test,26,,,,,,,,,,,,,,,,,,,,,,
,,,,,,,,,,,html-button-response,192,2.0.0,1932040,60fc2ec58ad0da367daee3c1,4,19,4223,,,,,,,,,"<img src= ""rock_img/I_Obsidian_04.jpg"" style=""width:8cm; height:6.930000000000001cm;""><p>What type of rock is this?</p>",4,class_response,1,test,27,Obsidian,Obsidian,4,TRUE,5,5,,,,,,,,,,,,,,,,
,,,,,,,,,,,html-keyboard-response,193,2.0.0,1932569,60fc2ec58ad0da367daee3c1,4,19,null,,,,,,,,,<p style='font-size: 30px;'><strong>Okay</strong></p>,null,neutral_feedback,1,test,27,,,,,,,,,,,,,,,,,,,,,,
,,,,,,,,,,,html-button-response,194,2.0.0,1978605,60fc2ec58ad0da367daee3c1,4,19,46005,,,,,,,,,"<img src= ""rock_img/I_Diorite_15.jpg"" style=""width:8cm; height:5.54cm;""><p>What type of rock is this?</p>",2,class_response,1,test,28,Diorite,Diorite,15,TRUE,3,3,,,,,,,,,,,,,,,,
,,,,,,,,,,,html-keyboard-response,195,2.0.0,1979135,60fc2ec58ad0da367daee3c1,4,19,null,,,,,,,,,<p style='font-size: 30px;'><strong>Okay</strong></p>,null,neutral_feedback,1,test,28,,,,,,,,,,,,,,,,,,,,,,
,,,,,,,,,,,html-button-response,196,2.0.0,1983406,60fc2ec58ad0da367daee3c1,4,19,4241,,,,,,,,,"<img src= ""rock_img/I_Basalt_10.jpg"" style=""width:8cm; height:5.85cm;""><p>What type of rock is this?</p>",1,class_response,1,test,29,Basalt,Basalt,10,TRUE,2,2,,,,,,,,,,,,,,,,
,,,,,,,,,,,html-keyboard-response,197,2.0.0,1983936,60fc2ec58ad0da367daee3c1,4,19,null,,,,,,,,,<p style='font-size: 30px;'><strong>Okay</strong></p>,null,neutral_feedback,1,test,29,,,,,,,,,,,,,,,,,,,,,,
,,,,,,,,,,,html-button-response,198,2.0.0,1985155,60fc2ec58ad0da367daee3c1,4,19,1191,,,,,,,,,"<img src= ""rock_img/I_Basalt_08.jpg"" style=""width:8cm; height:10.44cm;""><p>What type of rock is this?</p>",1,class_response,1,test,30,Basalt,Basalt,8,TRUE,2,2,,,,,,,,,,,,,,,,
,,,,,,,,,,,html-keyboard-response,199,2.0.0,1985685,60fc2ec58ad0da367daee3c1,4,19,null,,,,,,,,,<p style='font-size: 30px;'><strong>Okay</strong></p>,null,neutral_feedback,1,test,30,,,,,,,,,,,,,,,,,,,,,,
,,,,,,,,,,,html-button-response,200,2.0.0,1992105,60fc2ec58ad0da367daee3c1,4,19,6391,,,,,,,,,"<img src= ""rock_img/I_Andesite_03.jpg"" style=""width:8cm; height:5.73cm;""><p>What type of rock is this?</p>",0,class_response,1,test,31,Andesite,Andesite,3,TRUE,1,1,,,,,,,,,,,,,,,,
,,,,,,,,,,,html-keyboard-response,201,2.0.0,1992635,60fc2ec58ad0da367daee3c1,4,19,null,,,,,,,,,<p style='font-size: 30px;'><strong>Okay</strong></p>,null,neutral_feedback,1,test,31,,,,,,,,,,,,,,,,,,,,,,
,,,,,,,,,,,html-button-response,202,2.0.0,1994788,60fc2ec58ad0da367daee3c1,4,19,2122,,,,,,,,,"<img src= ""rock_img/I_Pumice_04.jpg"" style=""width:8cm; height:6.819999999999999cm;""><p>What type of rock is this?</p>",7,class_response,1,test,32,Pumice,Pumice,4,TRUE,8,8,,,,,,,,,,,,,,,,
,,,,,,,,,,,html-keyboard-response,203,2.0.0,1995317,60fc2ec58ad0da367daee3c1,4,19,null,,,,,,,,,<p style='font-size: 30px;'><strong>Okay</strong></p>,null,neutral_feedback,1,test,32,,,,,,,,,,,,,,,,,,,,,,
,,,,,,,,,,,html-button-response,204,2.0.0,1997303,60fc2ec58ad0da367daee3c1,4,19,1957,,,,,,,,,"<img src= ""rock_img/I_Basalt_04.jpg"" style=""width:8cm; height:7.53cm;""><p>What type of rock is this?</p>",1,class_response,1,test,33,Basalt,Basalt,4,TRUE,2,2,,,,,,,,,,,,,,,,
,,,,,,,,,,,html-keyboard-response,205,2.0.0,1997834,60fc2ec58ad0da367daee3c1,4,19,null,,,,,,,,,<p style='font-size: 30px;'><strong>Okay</strong></p>,null,neutral_feedback,1,test,33,,,,,,,,,,,,,,,,,,,,,,
,,,,,,,,,,,html-button-response,206,2.0.0,2005073,60fc2ec58ad0da367daee3c1,4,19,7207,,,,,,,,,"<img src= ""rock_img/I_Peridotite_07.jpg"" style=""width:8cm; height:4.83cm;""><p>What type of rock is this?</p>",6,class_response,1,test,34,Peridotite,Peridotite,7,TRUE,7,7,,,,,,,,,,,,,,,,
,,,,,,,,,,,html-keyboard-response,207,2.0.0,2005602,60fc2ec58ad0da367daee3c1,4,19,null,,,,,,,,,<p style='font-size: 30px;'><strong>Okay</strong></p>,null,neutral_feedback,1,test,34,,,,,,,,,,,,,,,,,,,,,,
,,,,,,,,,,,html-button-response,208,2.0.0,2012220,60fc2ec58ad0da367daee3c1,4,19,6590,,,,,,,,,"<img src= ""rock_img/I_Basalt_09.jpg"" style=""width:8cm; height:6.2cm;""><p>What type of rock is this?</p>",0,class_response,1,test,35,Andesite,Basalt,9,FALSE,1,2,,,,,,,,,,,,,,,,
,,,,,,,,,,,html-keyboard-response,209,2.0.0,2012750,60fc2ec58ad0da367daee3c1,4,19,null,,,,,,,,,<p style='font-size: 30px;'><strong>Okay</strong></p>,null,neutral_feedback,1,test,35,,,,,,,,,,,,,,,,,,,,,,
,,,,,,,,,,,html-button-response,210,2.0.0,2026840,60fc2ec58ad0da367daee3c1,4,19,14060,,,,,,,,,"<img src= ""rock_img/I_Peridotite_08.jpg"" style=""width:8cm; height:6.7cm;""><p>What type of rock is this?</p>",2,class_response,1,test,36,Diorite,Peridotite,8,FALSE,3,7,,,,,,,,,,,,,,,,
,,,,,,,,,,,html-keyboard-response,211,2.0.0,2027370,60fc2ec58ad0da367daee3c1,4,19,null,,,,,,,,,<p style='font-size: 30px;'><strong>Okay</strong></p>,null,neutral_feedback,1,test,36,,,,,,,,,,,,,,,,,,,,,,
,,,,,,,,,,,html-button-response,212,2.0.0,2032373,60fc2ec58ad0da367daee3c1,4,19,4971,,,,,,,,,"<img src= ""rock_img/I_Andesite_01.jpg"" style=""width:8cm; height:5.87cm;""><p>What type of rock is this?</p>",3,class_response,1,test,37,Gabbro,Andesite,1,FALSE,4,1,,,,,,,,,,,,,,,,
,,,,,,,,,,,html-keyboard-response,213,2.0.0,2032903,60fc2ec58ad0da367daee3c1,4,19,null,,,,,,,,,<p style='font-size: 30px;'><strong>Okay</strong></p>,null,neutral_feedback,1,test,37,,,,,,,,,,,,,,,,,,,,,,
,,,,,,,,,,,html-button-response,214,2.0.0,2038157,60fc2ec58ad0da367daee3c1,4,19,5224,,,,,,,,,"<img src= ""rock_img/I_Diorite_12.jpg"" style=""width:8cm; height:4.88cm;""><p>What type of rock is this?</p>",2,class_response,1,test,38,Diorite,Diorite,12,TRUE,3,3,,,,,,,,,,,,,,,,
,,,,,,,,,,,html-keyboard-response,215,2.0.0,2038685,60fc2ec58ad0da367daee3c1,4,19,null,,,,,,,,,<p style='font-size: 30px;'><strong>Okay</strong></p>,null,neutral_feedback,1,test,38,,,,,,,,,,,,,,,,,,,,,,
,,,,,,,,,,,html-button-response,216,2.0.0,2042291,60fc2ec58ad0da367daee3c1,4,19,3573,,,,,,,,,"<img src= ""rock_img/I_Pegmatite_15.jpg"" style=""width:8cm; height:6cm;""><p>What type of rock is this?</p>",5,class_response,1,test,39,Pegmatite,Pegmatite,15,TRUE,6,6,,,,,,,,,,,,,,,,
,,,,,,,,,,,html-keyboard-response,217,2.0.0,2042821,60fc2ec58ad0da367daee3c1,4,19,null,,,,,,,,,<p style='font-size: 30px;'><strong>Okay</strong></p>,null,neutral_feedback,1,test,39,,,,,,,,,,,,,,,,,,,,,,
,,,,,,,,,,,html-button-response,218,2.0.0,2044200,60fc2ec58ad0da367daee3c1,4,19,1353,,,,,,,,,"<img src= ""rock_img/I_Pumice_09.jpg"" style=""width:8cm; height:6.44cm;""><p>What type of rock is this?</p>",7,class_response,1,test,40,Pumice,Pumice,9,TRUE,8,8,,,,,,,,,,,,,,,,
,,,,,,,,,,,html-keyboard-response,219,2.0.0,2044732,60fc2ec58ad0da367daee3c1,4,19,null,,,,,,,,,<p style='font-size: 30px;'><strong>Okay</strong></p>,null,neutral_feedback,1,test,40,,,,,,,,,,,,,,,,,,,,,,
,,,,,,,,,,,html-button-response,220,2.0.0,2046990,60fc2ec58ad0da367daee3c1,4,19,2226,,,,,,,,,"<img src= ""rock_img/I_Peridotite_12.jpg"" style=""width:8cm; height:4.54cm;""><p>What type of rock is this?</p>",6,class_response,1,test,41,Peridotite,Peridotite,12,TRUE,7,7,,,,,,,,,,,,,,,,
,,,,,,,,,,,html-keyboard-response,221,2.0.0,2047520,60fc2ec58ad0da367daee3c1,4,19,null,,,,,,,,,<p style='font-size: 30px;'><strong>Okay</strong></p>,null,neutral_feedback,1,test,41,,,,,,,,,,,,,,,,,,,,,,
,,,,,,,,,,,html-button-response,222,2.0.0,2049521,60fc2ec58ad0da367daee3c1,4,19,1971,,,,,,,,,"<img src= ""rock_img/I_Peridotite_16.jpg"" style=""width:8cm; height:6.989999999999999cm;""><p>What type of rock is this?</p>",6,class_response,1,test,42,Peridotite,Peridotite,16,TRUE,7,7,,,,,,,,,,,,,,,,
,,,,,,,,,,,html-keyboard-response,223,2.0.0,2050050,60fc2ec58ad0da367daee3c1,4,19,null,,,,,,,,,<p style='font-size: 30px;'><strong>Okay</strong></p>,null,neutral_feedback,1,test,42,,,,,,,,,,,,,,,,,,,,,,
,,,,,,,,,,,html-button-response,224,2.0.0,2051454,60fc2ec58ad0da367daee3c1,4,19,1375,,,,,,,,,"<img src= ""rock_img/I_Basalt_06.jpg"" style=""width:8cm; height:7.06cm;""><p>What type of rock is this?</p>",1,class_response,1,test,43,Basalt,Basalt,6,TRUE,2,2,,,,,,,,,,,,,,,,
,,,,,,,,,,,html-keyboard-response,225,2.0.0,2051986,60fc2ec58ad0da367daee3c1,4,19,null,,,,,,,,,<p style='font-size: 30px;'><strong>Okay</strong></p>,null,neutral_feedback,1,test,43,,,,,,,,,,,,,,,,,,,,,,
,,,,,,,,,,,html-button-response,226,2.0.0,2054819,60fc2ec58ad0da367daee3c1,4,19,2805,,,,,,,,,"<img src= ""rock_img/I_Andesite_02.jpg"" style=""width:8cm; height:8.5cm;""><p>What type of rock is this?</p>",0,class_response,1,test,44,Andesite,Andesite,2,TRUE,1,1,,,,,,,,,,,,,,,,
,,,,,,,,,,,html-keyboard-response,227,2.0.0,2055351,60fc2ec58ad0da367daee3c1,4,19,null,,,,,,,,,<p style='font-size: 30px;'><strong>Okay</strong></p>,null,neutral_feedback,1,test,44,,,,,,,,,,,,,,,,,,,,,,
,,,,,,,,,,,html-button-response,228,2.0.0,2056820,60fc2ec58ad0da367daee3c1,4,19,1440,,,,,,,,,"<img src= ""rock_img/I_Pumice_03.jpg"" style=""width:8cm; height:6.64cm;""><p>What type of rock is this?</p>",7,class_response,1,test,45,Pumice,Pumice,3,TRUE,8,8,,,,,,,,,,,,,,,,
,,,,,,,,,,,html-keyboard-response,229,2.0.0,2057353,60fc2ec58ad0da367daee3c1,4,19,null,,,,,,,,,<p style='font-size: 30px;'><strong>Okay</strong></p>,null,neutral_feedback,1,test,45,,,,,,,,,,,,,,,,,,,,,,
,,,,,,,,,,,html-button-response,230,2.0.0,2071655,60fc2ec58ad0da367daee3c1,4,19,14271,,,,,,,,,"<img src= ""rock_img/I_Diorite_16.jpg"" style=""width:8cm; height:6.74cm;""><p>What type of rock is this?</p>",2,class_response,1,test,46,Diorite,Diorite,16,TRUE,3,3,,,,,,,,,,,,,,,,
,,,,,,,,,,,html-keyboard-response,231,2.0.0,2072185,60fc2ec58ad0da367daee3c1,4,19,null,,,,,,,,,<p style='font-size: 30px;'><strong>Okay</strong></p>,null,neutral_feedback,1,test,46,,,,,,,,,,,,,,,,,,,,,,
,,,,,,,,,,,html-button-response,232,2.0.0,2073881,60fc2ec58ad0da367daee3c1,4,19,1672,,,,,,,,,"<img src= ""rock_img/I_Peridotite_02.jpg"" style=""width:8cm; height:5.859999999999999cm;""><p>What type of rock is this?</p>",6,class_response,1,test,47,Peridotite,Peridotite,2,TRUE,7,7,,,,,,,,,,,,,,,,
,,,,,,,,,,,html-keyboard-response,233,2.0.0,2074409,60fc2ec58ad0da367daee3c1,4,19,null,,,,,,,,,<p style='font-size: 30px;'><strong>Okay</strong></p>,null,neutral_feedback,1,test,47,,,,,,,,,,,,,,,,,,,,,,
,,,,,,,,,,,html-button-response,234,2.0.0,2091506,60fc2ec58ad0da367daee3c1,4,19,17066,,,,,,,,,"<img src= ""rock_img/I_Gabbro_14.jpg"" style=""width:8cm; height:8.48cm;""><p>What type of rock is this?</p>",0,class_response,1,test,48,Andesite,Gabbro,14,FALSE,1,4,,,,,,,,,,,,,,,,
,,,,,,,,,,,html-keyboard-response,235,2.0.0,2092035,60fc2ec58ad0da367daee3c1,4,19,null,,,,,,,,,<p style='font-size: 30px;'><strong>Okay</strong></p>,null,neutral_feedback,1,test,48,,,,,,,,,,,,,,,,,,,,,,
,,,,,,,,,,,html-button-response,236,2.0.0,2114255,60fc2ec58ad0da367daee3c1,4,19,,,,,,,,,,,,cycle_feedback,,,,,,,,,,,,,,,,,,,,,,,,18688.8,3503.2
,,,,,,,,,,,html-button-response,238,2.0.0,2115637,60fc2ec58ad0da367daee3c1,4,19,1333,,,,,,,,,,0,start_train,,,,,,,,,,,,,,,,,,,,,,,,,
,,,,,,,,,,,html-button-response,240,2.0.0,2130789,60fc2ec58ad0da367daee3c1,4,19,15096,,,,,,,,,"<img src= ""rock_img/I_Andesite_11.jpg"" style=""width:8cm; height:4.92cm;""><p>What type of rock is this?</p>",0,class_response,2,train,1,Andesite,Andesite,11,TRUE,1,1,,,,,,,,,,,,,,,,
,,,,,,,,,,,html-button-response,241,2.0.0,2132021,60fc2ec58ad0da367daee3c1,4,19,1179,,,,,,,,,"<img src= rock_img/I_Andesite_11.jpg style=""width:8cm; height:4.92cm;""><p style='font-size: 30px; color: green;'><strong>Correct!</strong></p><p style='font-size: 30px;'><strong>This rock is andesite</strong></p>",0,corr_feedback,2,train,1,,,,,,,,,,,,,,,,,,,,,,
,,,,,,,,,,,html-button-response,242,2.0.0,2138391,60fc2ec58ad0da367daee3c1,4,19,6311,,,,,,,,,"<img src= ""rock_img/I_Diorite_02.jpg"" style=""width:8cm; height:6.27cm;""><p>What type of rock is this?</p>",2,class_response,2,train,2,Diorite,Diorite,2,TRUE,3,3,,,,,,,,,,,,,,,,
,,,,,,,,,,,html-button-response,243,2.0.0,2139371,60fc2ec58ad0da367daee3c1,4,19,924,,,,,,,,,"<img src= rock_img/I_Diorite_02.jpg style=""width:8cm; height:6.27cm;""><p style='font-size: 30px; color: green;'><strong>Correct!</strong></p><p style='font-size: 30px;'><strong>This rock is diorite</strong></p>",0,corr_feedback,2,train,2,,,,,,,,,,,,,,,,,,,,,,
,,,,,,,,,,,html-button-response,244,2.0.0,2148584,60fc2ec58ad0da367daee3c1,4,19,9160,,,,,,,,,"<img src= ""rock_img/I_Basalt_05.jpg"" style=""width:8cm; height:8.18cm;""><p>What type of rock is this?</p>",3,class_response,2,train,3,Gabbro,Basalt,5,FALSE,4,2,,,,,,,,,,,,,,,,
,,,,,,,,,,,html-button-response,245,2.0.0,2149741,60fc2ec58ad0da367daee3c1,4,19,1099,,,,,,,,,"<img src= rock_img/I_Basalt_05.jpg style=""width:8cm; height:8.18cm;""><p style='font-size: 30px; color: red;'><strong>Incorrect!</strong></p><p style='font-size: 30px;'><strong>This rock is basalt</strong></p>",0,corr_feedback,2,train,3,,,,,,,,,,,,,,,,,,,,,,
,,,,,,,,,,,html-button-response,246,2.0.0,2153641,60fc2ec58ad0da367daee3c1,4,19,3844,,,,,,,,,"<img src= ""rock_img/I_Peridotite_14.jpg"" style=""width:8cm; height:5.3cm;""><p>What type of rock is this?</p>",5,class_response,2,train,4,Pegmatite,Peridotite,14,FALSE,6,7,,,,,,,,,,,,,,,,
,,,,,,,,,,,html-button-response,247,2.0.0,2155288,60fc2ec58ad0da367daee3c1,4,19,1591,,,,,,,,,"<img src= rock_img/I_Peridotite_14.jpg style=""width:8cm; height:5.3cm;""><p style='font-size: 30px; color: red;'><strong>Incorrect!</strong></p><p style='font-size: 30px;'><strong>This rock is peridotite</strong></p>",0,corr_feedback,2,train,4,,,,,,,,,,,,,,,,,,,,,,
,,,,,,,,,,,html-button-response,248,2.0.0,2159521,60fc2ec58ad0da367daee3c1,4,19,4181,,,,,,,,,"<img src= ""rock_img/I_Pumice_02.jpg"" style=""width:8cm; height:7.3999999999999995cm;""><p>What type of rock is this?</p>",7,class_response,2,train,5,Pumice,Pumice,2,TRUE,8,8,,,,,,,,,,,,,,,,
,,,,,,,,,,,html-button-response,249,2.0.0,2160739,60fc2ec58ad0da367daee3c1,4,19,1160,,,,,,,,,"<img src= rock_img/I_Pumice_02.jpg style=""width:8cm; height:7.3999999999999995cm;""><p style='font-size: 30px; color: green;'><strong>Correct!</strong></p><p style='font-size: 30px;'><strong>This rock is pumice</strong></p>",0,corr_feedback,2,train,5,,,,,,,,,,,,,,,,,,,,,,
,,,,,,,,,,,html-button-response,250,2.0.0,2161955,60fc2ec58ad0da367daee3c1,4,19,1162,,,,,,,,,"<img src= ""rock_img/I_Obsidian_08.jpg"" style=""width:8cm; height:7.39cm;""><p>What type of rock is this?</p>",4,class_response,2,train,6,Obsidian,Obsidian,8,TRUE,5,5,,,,,,,,,,,,,,,,
,,,,,,,,,,,html-button-response,251,2.0.0,2162936,60fc2ec58ad0da367daee3c1,4,19,925,,,,,,,,,"<img src= rock_img/I_Obsidian_08.jpg style=""width:8cm; height:7.39cm;""><p style='font-size: 30px; color: green;'><strong>Correct!</strong></p><p style='font-size: 30px;'><strong>This rock is obsidian</strong></p>",0,corr_feedback,2,train,6,,,,,,,,,,,,,,,,,,,,,,
,,,,,,,,,,,html-button-response,252,2.0.0,2165155,60fc2ec58ad0da367daee3c1,4,19,2163,,,,,,,,,"<img src= ""rock_img/I_Pegmatite_08.jpg"" style=""width:8cm; height:7.68cm;""><p>What type of rock is this?</p>",5,class_response,2,train,7,Pegmatite,Pegmatite,8,TRUE,6,6,,,,,,,,,,,,,,,,
,,,,,,,,,,,html-button-response,253,2.0.0,2166103,60fc2ec58ad0da367daee3c1,4,19,891,,,,,,,,,"<img src= rock_img/I_Pegmatite_08.jpg style=""width:8cm; height:7.68cm;""><p style='font-size: 30px; color: green;'><strong>Correct!</strong></p><p style='font-size: 30px;'><strong>This rock is pegmatite</strong></p>",0,corr_feedback,2,train,7,,,,,,,,,,,,,,,,,,,,,,
,,,,,,,,,,,html-button-response,254,2.0.0,2168322,60fc2ec58ad0da367daee3c1,4,19,2163,,,,,,,,,"<img src= ""rock_img/I_Obsidian_05.jpg"" style=""width:8cm; height:6.33cm;""><p>What type of rock is this?</p>",4,class_response,2,train,8,Obsidian,Obsidian,5,TRUE,5,5,,,,,,,,,,,,,,,,
,,,,,,,,,,,html-button-response,255,2.0.0,2169370,60fc2ec58ad0da367daee3c1,4,19,990,,,,,,,,,"<img src= rock_img/I_Obsidian_05.jpg style=""width:8cm; height:6.33cm;""><p style='font-size: 30px; color: green;'><strong>Correct!</strong></p><p style='font-size: 30px;'><strong>This rock is obsidian</strong></p>",0,corr_feedback,2,train,8,,,,,,,,,,,,,,,,,,,,,,
,,,,,,,,,,,html-button-response,256,2.0.0,2171270,60fc2ec58ad0da367daee3c1,4,19,1846,,,,,,,,,"<img src= ""rock_img/I_Pegmatite_03.jpg"" style=""width:8cm; height:5.239999999999999cm;""><p>What type of rock is this?</p>",5,class_response,2,train,9,Pegmatite,Pegmatite,3,TRUE,6,6,,,,,,,,,,,,,,,,
,,,,,,,,,,,html-button-response,257,2.0.0,2172138,60fc2ec58ad0da367daee3c1,4,19,813,,,,,,,,,"<img src= rock_img/I_Pegmatite_03.jpg style=""width:8cm; height:5.239999999999999cm;""><p style='font-size: 30px; color: green;'><strong>Correct!</strong></p><p style='font-size: 30px;'><strong>This rock is pegmatite</strong></p>",0,corr_feedback,2,train,9,,,,,,,,,,,,,,,,,,,,,,
,,,,,,,,,,,html-button-response,258,2.0.0,2185957,60fc2ec58ad0da367daee3c1,4,19,13760,,,,,,,,,"<img src= ""rock_img/I_Gabbro_13.jpg"" style=""width:8cm; height:5.08cm;""><p>What type of rock is this?</p>",3,class_response,2,train,10,Gabbro,Gabbro,13,TRUE,4,4,,,,,,,,,,,,,,,,
,,,,,,,,,,,html-button-response,259,2.0.0,2187254,60fc2ec58ad0da367daee3c1,4,19,1240,,,,,,,,,"<img src= rock_img/I_Gabbro_13.jpg style=""width:8cm; height:5.08cm;""><p style='font-size: 30px; color: green;'><strong>Correct!</strong></p><p style='font-size: 30px;'><strong>This rock is gabbro</strong></p>",0,corr_feedback,2,train,10,,,,,,,,,,,,,,,,,,,,,,
,,,,,,,,,,,html-button-response,260,2.0.0,2189103,60fc2ec58ad0da367daee3c1,4,19,1794,,,,,,,,,"<img src= ""rock_img/I_Pumice_08.jpg"" style=""width:8cm; height:6.67cm;""><p>What type of rock is this?</p>",7,class_response,2,train,11,Pumice,Pumice,8,TRUE,8,8,,,,,,,,,,,,,,,,
,,,,,,,,,,,html-button-response,261,2.0.0,2190389,60fc2ec58ad0da367daee3c1,4,19,1227,,,,,,,,,"<img src= rock_img/I_Pumice_08.jpg style=""width:8cm; height:6.67cm;""><p style='font-size: 30px; color: green;'><strong>Correct!</strong></p><p style='font-size: 30px;'><strong>This rock is pumice</strong></p>",0,corr_feedback,2,train,11,,,,,,,,,,,,,,,,,,,,,,
,,,,,,,,,,,html-button-response,262,2.0.0,2192405,60fc2ec58ad0da367daee3c1,4,19,1962,,,,,,,,,"<img src= ""rock_img/I_Diorite_14.jpg"" style=""width:8cm; height:5.71cm;""><p>What type of rock is this?</p>",2,class_response,2,train,12,Diorite,Diorite,14,TRUE,3,3,,,,,,,,,,,,,,,,
,,,,,,,,,,,html-button-response,263,2.0.0,2193405,60fc2ec58ad0da367daee3c1,4,19,945,,,,,,,,,"<img src= rock_img/I_Diorite_14.jpg style=""width:8cm; height:5.71cm;""><p style='font-size: 30px; color: green;'><strong>Correct!</strong></p><p style='font-size: 30px;'><strong>This rock is diorite</strong></p>",0,corr_feedback,2,train,12,,,,,,,,,,,,,,,,,,,,,,
,,,,,,,,,,,html-button-response,265,2.0.0,2195055,60fc2ec58ad0da367daee3c1,4,19,1594,,,,,,,,,,0,start_train,,,,,,,,,,,,,,,,,,,,,,,,,
,,,,,,,,,,,html-button-response,266,2.0.0,2205073,60fc2ec58ad0da367daee3c1,4,19,,,,,,,,,,,,cat_selection,2,train,1,,,,,,,5838.9,4134.8,4,2,Gabbro,Basalt,,,,,,,,,,
,,,,,,,,,,,paired-cat-display,267,1.0.0,2310046,60fc2ec58ad0da367daee3c1,4,19,,,,,,,,,,,,paired_cat_display,2,train,1,,,,,,,,,,,,,Dark in color and coarse grained type structure.,Dark in color. Usually is of one single color.,17062.3,87884.3,,,,,,
,,,,,,,,,,,html-button-response,268,2.0.0,2319055,60fc2ec58ad0da367daee3c1,4,19,,,,,,,,,,,,cat_selection,2,train,2,,,,,,,7917.3,1032.7,1,3,Andesite,Diorite,,,,,,,,,,
,,,,,,,,,,,paired-cat-display,269,1.0.0,2407163,60fc2ec58ad0da367daee3c1,4,19,,,,,,,,,,,,paired_cat_display,2,train,2,,,,,,,,,,,,,,,6264.5,81817.2,,,light to dark grey and coarse grained structure.,Usually has 2 colors. Crystal like color and has small to medium size grained structure.,,
,,,,,,,,,,,html-button-response,270,2.0.0,2413041,60fc2ec58ad0da367daee3c1,4,19,,,,,,,,,,,,cat_selection,2,train,3,,,,,,,5100.3,716.8,6,7,Pegmatite,Peridotite,,,,,,,,,,
,,,,,,,,,,,paired-cat-display,271,1.0.0,2481463,60fc2ec58ad0da367daee3c1,4,19,,,,,,,,,,,,paired_cat_display,2,train,3,,,,,,,,,,,,,,,6077.2,62316.2,Greenish rock. Looks like a mineral or small crystal composition.,Looks like large crystals mixed together. Looks beautiful and sometimes it looks shiny.,,,,
,,,,,,,,,,,html-button-response,273,2.0.0,2483159,60fc2ec58ad0da367daee3c1,4,19,1622,,,,,,,,,,0,start_test,,,,,,,,,,,,,,,,,,,,,,,,,
,,,,,,,,,,,html-button-response,274,2.0.0,2484525,60fc2ec58ad0da367daee3c1,4,19,1311,,,,,,,,,"<img src= ""rock_img/I_Obsidian_14.jpg"" style=""width:8cm; height:7.64cm;""><p>What type of rock is this?</p>",4,class_response,2,test,1,Obsidian,Obsidian,14,TRUE,5,5,,,,,,,,,,,,,,,,
,,,,,,,,,,,html-keyboard-response,275,2.0.0,2485055,60fc2ec58ad0da367daee3c1,4,19,null,,,,,,,,,<p style='font-size: 30px;'><strong>Okay</strong></p>,null,neutral_feedback,2,test,1,,,,,,,,,,,,,,,,,,,,,,
,,,,,,,,,,,html-button-response,276,2.0.0,2506557,60fc2ec58ad0da367daee3c1,4,19,21475,,,,,,,,,"<img src= ""rock_img/I_Diorite_06.jpg"" style=""width:8cm; height:6.03cm;""><p>What type of rock is this?</p>",3,class_response,2,test,2,Gabbro,Diorite,6,FALSE,4,3,,,,,,,,,,,,,,,,
,,,,,,,,,,,html-keyboard-response,277,2.0.0,2507087,60fc2ec58ad0da367daee3c1,4,19,null,,,,,,,,,<p style='font-size: 30px;'><strong>Okay</strong></p>,null,neutral_feedback,2,test,2,,,,,,,,,,,,,,,,,,,,,,
,,,,,,,,,,,html-button-response,278,2.0.0,2519242,60fc2ec58ad0da367daee3c1,4,19,12124,,,,,,,,,"<img src= ""rock_img/I_Basalt_06.jpg"" style=""width:8cm; height:7.06cm;""><p>What type of rock is this?</p>",1,class_response,2,test,3,Basalt,Basalt,6,TRUE,2,2,,,,,,,,,,,,,,,,
,,,,,,,,,,,html-keyboard-response,279,2.0.0,2519771,60fc2ec58ad0da367daee3c1,4,19,null,,,,,,,,,<p style='font-size: 30px;'><strong>Okay</strong></p>,null,neutral_feedback,2,test,3,,,,,,,,,,,,,,,,,,,,,,
,,,,,,,,,,,html-button-response,280,2.0.0,2521173,60fc2ec58ad0da367daee3c1,4,19,1373,,,,,,,,,"<img src= ""rock_img/I_Pumice_05.jpg"" style=""width:8cm; height:7.25cm;""><p>What type of rock is this?</p>",7,class_response,2,test,4,Pumice,Pumice,5,TRUE,8,8,,,,,,,,,,,,,,,,
,,,,,,,,,,,html-keyboard-response,281,2.0.0,2521703,60fc2ec58ad0da367daee3c1,4,19,null,,,,,,,,,<p style='font-size: 30px;'><strong>Okay</strong></p>,null,neutral_feedback,2,test,4,,,,,,,,,,,,,,,,,,,,,,
,,,,,,,,,,,html-button-response,282,2.0.0,2526374,60fc2ec58ad0da367daee3c1,4,19,4641,,,,,,,,,"<img src= ""rock_img/I_Diorite_07.jpg"" style=""width:8cm; height:5.239999999999999cm;""><p>What type of rock is this?</p>",2,class_response,2,test,5,Diorite,Diorite,7,TRUE,3,3,,,,,,,,,,,,,,,,
,,,,,,,,,,,html-keyboard-response,283,2.0.0,2526905,60fc2ec58ad0da367daee3c1,4,19,null,,,,,,,,,<p style='font-size: 30px;'><strong>Okay</strong></p>,null,neutral_feedback,2,test,5,,,,,,,,,,,,,,,,,,,,,,
,,,,,,,,,,,html-button-response,284,2.0.0,2528106,60fc2ec58ad0da367daee3c1,4,19,1174,,,,,,,,,"<img src= ""rock_img/I_Obsidian_02.jpg"" style=""width:8cm; height:7.51cm;""><p>What type of rock is this?</p>",4,class_response,2,test,6,Obsidian,Obsidian,2,TRUE,5,5,,,,,,,,,,,,,,,,
,,,,,,,,,,,html-keyboard-response,285,2.0.0,2528636,60fc2ec58ad0da367daee3c1,4,19,null,,,,,,,,,<p style='font-size: 30px;'><strong>Okay</strong></p>,null,neutral_feedback,2,test,6,,,,,,,,,,,,,,,,,,,,,,
,,,,,,,,,,,html-button-response,286,2.0.0,2530937,60fc2ec58ad0da367daee3c1,4,19,2273,,,,,,,,,"<img src= ""rock_img/I_Andesite_02.jpg"" style=""width:8cm; height:8.5cm;""><p>What type of rock is this?</p>",0,class_response,2,test,7,Andesite,Andesite,2,TRUE,1,1,,,,,,,,,,,,,,,,
,,,,,,,,,,,html-keyboard-response,287,2.0.0,2531469,60fc2ec58ad0da367daee3c1,4,19,null,,,,,,,,,<p style='font-size: 30px;'><strong>Okay</strong></p>,null,neutral_feedback,2,test,7,,,,,,,,,,,,,,,,,,,,,,
,,,,,,,,,,,html-button-response,288,2.0.0,2541657,60fc2ec58ad0da367daee3c1,4,19,10158,,,,,,,,,"<img src= ""rock_img/I_Pegmatite_07.jpg"" style=""width:8cm; height:6.7cm;""><p>What type of rock is this?</p>",5,class_response,2,test,8,Pegmatite,Pegmatite,7,TRUE,6,6,,,,,,,,,,,,,,,,
,,,,,,,,,,,html-keyboard-response,289,2.0.0,2542188,60fc2ec58ad0da367daee3c1,4,19,null,,,,,,,,,<p style='font-size: 30px;'><strong>Okay</strong></p>,null,neutral_feedback,2,test,8,,,,,,,,,,,,,,,,,,,,,,
,,,,,,,,,,,html-button-response,290,2.0.0,2546123,60fc2ec58ad0da367daee3c1,4,19,3906,,,,,,,,,"<img src= ""rock_img/I_Andesite_06.jpg"" style=""width:8cm; height:6.840000000000001cm;""><p>What type of rock is this?</p>",0,class_response,2,test,9,Andesite,Andesite,6,TRUE,1,1,,,,,,,,,,,,,,,,
,,,,,,,,,,,html-keyboard-response,291,2.0.0,2546654,60fc2ec58ad0da367daee3c1,4,19,null,,,,,,,,,<p style='font-size: 30px;'><strong>Okay</strong></p>,null,neutral_feedback,2,test,9,,,,,,,,,,,,,,,,,,,,,,
,,,,,,,,,,,html-button-response,292,2.0.0,2548123,60fc2ec58ad0da367daee3c1,4,19,1439,,,,,,,,,"<img src= ""rock_img/I_Pumice_04.jpg"" style=""width:8cm; height:6.819999999999999cm;""><p>What type of rock is this?</p>",7,class_response,2,test,10,Pumice,Pumice,4,TRUE,8,8,,,,,,,,,,,,,,,,
,,,,,,,,,,,html-keyboard-response,293,2.0.0,2548652,60fc2ec58ad0da367daee3c1,4,19,null,,,,,,,,,<p style='font-size: 30px;'><strong>Okay</strong></p>,null,neutral_feedback,2,test,10,,,,,,,,,,,,,,,,,,,,,,
,,,,,,,,,,,html-button-response,294,2.0.0,2554007,60fc2ec58ad0da367daee3c1,4,19,5324,,,,,,,,,"<img src= ""rock_img/I_Gabbro_01.jpg"" style=""width:8cm; height:5.21cm;""><p>What type of rock is this?</p>",3,class_response,2,test,11,Gabbro,Gabbro,1,TRUE,4,4,,,,,,,,,,,,,,,,
,,,,,,,,,,,html-keyboard-response,295,2.0.0,2554535,60fc2ec58ad0da367daee3c1,4,19,null,,,,,,,,,<p style='font-size: 30px;'><strong>Okay</strong></p>,null,neutral_feedback,2,test,11,,,,,,,,,,,,,,,,,,,,,,
,,,,,,,,,,,html-button-response,296,2.0.0,2555841,60fc2ec58ad0da367daee3c1,4,19,1275,,,,,,,,,"<img src= ""rock_img/I_Obsidian_04.jpg"" style=""width:8cm; height:6.930000000000001cm;""><p>What type of rock is this?</p>",4,class_response,2,test,12,Obsidian,Obsidian,4,TRUE,5,5,,,,,,,,,,,,,,,,
,,,,,,,,,,,html-keyboard-response,297,2.0.0,2556371,60fc2ec58ad0da367daee3c1,4,19,null,,,,,,,,,<p style='font-size: 30px;'><strong>Okay</strong></p>,null,neutral_feedback,2,test,12,,,,,,,,,,,,,,,,,,,,,,
,,,,,,,,,,,html-button-response,298,2.0.0,2562017,60fc2ec58ad0da367daee3c1,4,19,5621,,,,,,,,,"<img src= ""rock_img/I_Diorite_15.jpg"" style=""width:8cm; height:5.54cm;""><p>What type of rock is this?</p>",2,class_response,2,test,13,Diorite,Diorite,15,TRUE,3,3,,,,,,,,,,,,,,,,
,,,,,,,,,,,html-keyboard-response,299,2.0.0,2562545,60fc2ec58ad0da367daee3c1,4,19,null,,,,,,,,,<p style='font-size: 30px;'><strong>Okay</strong></p>,null,neutral_feedback,2,test,13,,,,,,,,,,,,,,,,,,,,,,
,,,,,,,,,,,html-button-response,300,2.0.0,2563956,60fc2ec58ad0da367daee3c1,4,19,1383,,,,,,,,,"<img src= ""rock_img/I_Obsidian_10.jpg"" style=""width:8cm; height:6.260000000000001cm;""><p>What type of rock is this?</p>",4,class_response,2,test,14,Obsidian,Obsidian,10,TRUE,5,5,,,,,,,,,,,,,,,,
,,,,,,,,,,,html-keyboard-response,301,2.0.0,2564485,60fc2ec58ad0da367daee3c1,4,19,null,,,,,,,,,<p style='font-size: 30px;'><strong>Okay</strong></p>,null,neutral_feedback,2,test,14,,,,,,,,,,,,,,,,,,,,,,
,,,,,,,,,,,html-button-response,302,2.0.0,2566807,60fc2ec58ad0da367daee3c1,4,19,2292,,,,,,,,,"<img src= ""rock_img/I_Pegmatite_15.jpg"" style=""width:8cm; height:6cm;""><p>What type of rock is this?</p>",5,class_response,2,test,15,Pegmatite,Pegmatite,15,TRUE,6,6,,,,,,,,,,,,,,,,
,,,,,,,,,,,html-keyboard-response,303,2.0.0,2567336,60fc2ec58ad0da367daee3c1,4,19,null,,,,,,,,,<p style='font-size: 30px;'><strong>Okay</strong></p>,null,neutral_feedback,2,test,15,,,,,,,,,,,,,,,,,,,,,,
,,,,,,,,,,,html-button-response,304,2.0.0,2578427,60fc2ec58ad0da367daee3c1,4,19,11060,,,,,,,,,"<img src= ""rock_img/I_Andesite_01.jpg"" style=""width:8cm; height:5.87cm;""><p>What type of rock is this?</p>",3,class_response,2,test,16,Gabbro,Andesite,1,FALSE,4,1,,,,,,,,,,,,,,,,
,,,,,,,,,,,html-keyboard-response,305,2.0.0,2578956,60fc2ec58ad0da367daee3c1,4,19,null,,,,,,,,,<p style='font-size: 30px;'><strong>Okay</strong></p>,null,neutral_feedback,2,test,16,,,,,,,,,,,,,,,,,,,,,,
,,,,,,,,,,,html-button-response,306,2.0.0,2580407,60fc2ec58ad0da367daee3c1,4,19,1420,,,,,,,,,"<img src= ""rock_img/I_Pumice_15.jpg"" style=""width:8cm; height:7.86cm;""><p>What type of rock is this?</p>",7,class_response,2,test,17,Pumice,Pumice,15,TRUE,8,8,,,,,,,,,,,,,,,,
,,,,,,,,,,,html-keyboard-response,307,2.0.0,2580936,60fc2ec58ad0da367daee3c1,4,19,null,,,,,,,,,<p style='font-size: 30px;'><strong>Okay</strong></p>,null,neutral_feedback,2,test,17,,,,,,,,,,,,,,,,,,,,,,
,,,,,,,,,,,html-button-response,308,2.0.0,2582508,60fc2ec58ad0da367daee3c1,4,19,1541,,,,,,,,,"<img src= ""rock_img/I_Gabbro_10.jpg"" style=""width:8cm; height:5.680000000000001cm;""><p>What type of rock is this?</p>",1,class_response,2,test,18,Basalt,Gabbro,10,FALSE,2,4,,,,,,,,,,,,,,,,
,,,,,,,,,,,html-keyboard-response,309,2.0.0,2583038,60fc2ec58ad0da367daee3c1,4,19,null,,,,,,,,,<p style='font-size: 30px;'><strong>Okay</strong></p>,null,neutral_feedback,2,test,18,,,,,,,,,,,,,,,,,,,,,,
,,,,,,,,,,,html-button-response,310,2.0.0,2584338,60fc2ec58ad0da367daee3c1,4,19,1272,,,,,,,,,"<img src= ""rock_img/I_Obsidian_09.jpg"" style=""width:8cm; height:5cm;""><p>What type of rock is this?</p>",4,class_response,2,test,19,Obsidian,Obsidian,9,TRUE,5,5,,,,,,,,,,,,,,,,
,,,,,,,,,,,html-keyboard-response,311,2.0.0,2584868,60fc2ec58ad0da367daee3c1,4,19,null,,,,,,,,,<p style='font-size: 30px;'><strong>Okay</strong></p>,null,neutral_feedback,2,test,19,,,,,,,,,,,,,,,,,,,,,,
,,,,,,,,,,,html-button-response,312,2.0.0,2588572,60fc2ec58ad0da367daee3c1,4,19,3676,,,,,,,,,"<img src= ""rock_img/I_Andesite_05.jpg"" style=""width:8cm; height:4.12cm;""><p>What type of rock is this?</p>",0,class_response,2,test,20,Andesite,Andesite,5,TRUE,1,1,,,,,,,,,,,,,,,,
,,,,,,,,,,,html-keyboard-response,313,2.0.0,2589102,60fc2ec58ad0da367daee3c1,4,19,null,,,,,,,,,<p style='font-size: 30px;'><strong>Okay</strong></p>,null,neutral_feedback,2,test,20,,,,,,,,,,,,,,,,,,,,,,
,,,,,,,,,,,html-button-response,314,2.0.0,2591122,60fc2ec58ad0da367daee3c1,4,19,1991,,,,,,,,,"<img src= ""rock_img/I_Peridotite_08.jpg"" style=""width:8cm; height:6.7cm;""><p>What type of rock is this?</p>",6,class_response,2,test,21,Peridotite,Peridotite,8,TRUE,7,7,,,,,,,,,,,,,,,,
,,,,,,,,,,,html-keyboard-response,315,2.0.0,2591654,60fc2ec58ad0da367daee3c1,4,19,null,,,,,,,,,<p style='font-size: 30px;'><strong>Okay</strong></p>,null,neutral_feedback,2,test,21,,,,,,,,,,,,,,,,,,,,,,
,,,,,,,,,,,html-button-response,316,2.0.0,2593188,60fc2ec58ad0da367daee3c1,4,19,1506,,,,,,,,,"<img src= ""rock_img/I_Peridotite_05.jpg"" style=""width:8cm; height:7.1499999999999995cm;""><p>What type of rock is this?</p>",6,class_response,2,test,22,Peridotite,Peridotite,5,TRUE,7,7,,,,,,,,,,,,,,,,
,,,,,,,,,,,html-keyboard-response,317,2.0.0,2593720,60fc2ec58ad0da367daee3c1,4,19,null,,,,,,,,,<p style='font-size: 30px;'><strong>Okay</strong></p>,null,neutral_feedback,2,test,22,,,,,,,,,,,,,,,,,,,,,,
,,,,,,,,,,,html-button-response,318,2.0.0,2595323,60fc2ec58ad0da367daee3c1,4,19,1573,,,,,,,,,"<img src= ""rock_img/I_Pumice_03.jpg"" style=""width:8cm; height:6.64cm;""><p>What type of rock is this?</p>",7,class_response,2,test,23,Pumice,Pumice,3,TRUE,8,8,,,,,,,,,,,,,,,,
,,,,,,,,,,,html-keyboard-response,319,2.0.0,2595855,60fc2ec58ad0da367daee3c1,4,19,null,,,,,,,,,<p style='font-size: 30px;'><strong>Okay</strong></p>,null,neutral_feedback,2,test,23,,,,,,,,,,,,,,,,,,,,,,
,,,,,,,,,,,html-button-response,320,2.0.0,2598057,60fc2ec58ad0da367daee3c1,4,19,2174,,,,,,,,,"<img src= ""rock_img/I_Peridotite_07.jpg"" style=""width:8cm; height:4.83cm;""><p>What type of rock is this?</p>",6,class_response,2,test,24,Peridotite,Peridotite,7,TRUE,7,7,,,,,,,,,,,,,,,,
,,,,,,,,,,,html-keyboard-response,321,2.0.0,2598587,60fc2ec58ad0da367daee3c1,4,19,null,,,,,,,,,<p style='font-size: 30px;'><strong>Okay</strong></p>,null,neutral_feedback,2,test,24,,,,,,,,,,,,,,,,,,,,,,
,,,,,,,,,,,html-button-response,322,2.0.0,2599937,60fc2ec58ad0da367daee3c1,4,19,1323,,,,,,,,,"<img src= ""rock_img/I_Basalt_04.jpg"" style=""width:8cm; height:7.53cm;""><p>What type of rock is this?</p>",1,class_response,2,test,25,Basalt,Basalt,4,TRUE,2,2,,,,,,,,,,,,,,,,
,,,,,,,,,,,html-keyboard-response,323,2.0.0,2600467,60fc2ec58ad0da367daee3c1,4,19,null,,,,,,,,,<p style='font-size: 30px;'><strong>Okay</strong></p>,null,neutral_feedback,2,test,25,,,,,,,,,,,,,,,,,,,,,,
,,,,,,,,,,,html-button-response,324,2.0.0,2602290,60fc2ec58ad0da367daee3c1,4,19,1793,,,,,,,,,"<img src= ""rock_img/I_Pegmatite_12.jpg"" style=""width:8cm; height:5.7cm;""><p>What type of rock is this?</p>",2,class_response,2,test,26,Diorite,Pegmatite,12,FALSE,3,6,,,,,,,,,,,,,,,,
,,,,,,,,,,,html-keyboard-response,325,2.0.0,2602822,60fc2ec58ad0da367daee3c1,4,19,null,,,,,,,,,<p style='font-size: 30px;'><strong>Okay</strong></p>,null,neutral_feedback,2,test,26,,,,,,,,,,,,,,,,,,,,,,
,,,,,,,,,,,html-button-response,326,2.0.0,2605224,60fc2ec58ad0da367daee3c1,4,19,2374,,,,,,,,,"<img src= ""rock_img/I_Peridotite_02.jpg"" style=""width:8cm; height:5.859999999999999cm;""><p>What type of rock is this?</p>",6,class_response,2,test,27,Peridotite,Peridotite,2,TRUE,7,7,,,,,,,,,,,,,,,,
,,,,,,,,,,,html-keyboard-response,327,2.0.0,2605755,60fc2ec58ad0da367daee3c1,4,19,null,,,,,,,,,<p style='font-size: 30px;'><strong>Okay</strong></p>,null,neutral_feedback,2,test,27,,,,,,,,,,,,,,,,,,,,,,
,,,,,,,,,,,html-button-response,328,2.0.0,2621826,60fc2ec58ad0da367daee3c1,4,19,16041,,,,,,,,,"<img src= ""rock_img/I_Diorite_11.jpg"" style=""width:8cm; height:7.11cm;""><p>What type of rock is this?</p>",2,class_response,2,test,28,Diorite,Diorite,11,TRUE,3,3,,,,,,,,,,,,,,,,
,,,,,,,,,,,html-keyboard-response,329,2.0.0,2622356,60fc2ec58ad0da367daee3c1,4,19,null,,,,,,,,,<p style='font-size: 30px;'><strong>Okay</strong></p>,null,neutral_feedback,2,test,28,,,,,,,,,,,,,,,,,,,,,,
,,,,,,,,,,,html-button-response,330,2.0.0,2624707,60fc2ec58ad0da367daee3c1,4,19,2323,,,,,,,,,"<img src= ""rock_img/I_Andesite_03.jpg"" style=""width:8cm; height:5.73cm;""><p>What type of rock is this?</p>",0,class_response,2,test,29,Andesite,Andesite,3,TRUE,1,1,,,,,,,,,,,,,,,,
,,,,,,,,,,,html-keyboard-response,331,2.0.0,2625237,60fc2ec58ad0da367daee3c1,4,19,null,,,,,,,,,<p style='font-size: 30px;'><strong>Okay</strong></p>,null,neutral_feedback,2,test,29,,,,,,,,,,,,,,,,,,,,,,
,,,,,,,,,,,html-button-response,332,2.0.0,2626873,60fc2ec58ad0da367daee3c1,4,19,1607,,,,,,,,,"<img src= ""rock_img/I_Basalt_09.jpg"" style=""width:8cm; height:6.2cm;""><p>What type of rock is this?</p>",1,class_response,2,test,30,Basalt,Basalt,9,TRUE,2,2,,,,,,,,,,,,,,,,
,,,,,,,,,,,html-keyboard-response,333,2.0.0,2627404,60fc2ec58ad0da367daee3c1,4,19,null,,,,,,,,,<p style='font-size: 30px;'><strong>Okay</strong></p>,null,neutral_feedback,2,test,30,,,,,,,,,,,,,,,,,,,,,,
,,,,,,,,,,,html-button-response,334,2.0.0,2629372,60fc2ec58ad0da367daee3c1,4,19,1939,,,,,,,,,"<img src= ""rock_img/I_Pegmatite_13.jpg"" style=""width:8cm; height:4.95cm;""><p>What type of rock is this?</p>",5,class_response,2,test,31,Pegmatite,Pegmatite,13,TRUE,6,6,,,,,,,,,,,,,,,,
,,,,,,,,,,,html-keyboard-response,335,2.0.0,2629902,60fc2ec58ad0da367daee3c1,4,19,null,,,,,,,,,<p style='font-size: 30px;'><strong>Okay</strong></p>,null,neutral_feedback,2,test,31,,,,,,,,,,,,,,,,,,,,,,
,,,,,,,,,,,html-button-response,336,2.0.0,2635693,60fc2ec58ad0da367daee3c1,4,19,5761,,,,,,,,,"<img src= ""rock_img/I_Diorite_16.jpg"" style=""width:8cm; height:6.74cm;""><p>What type of rock is this?</p>",2,class_response,2,test,32,Diorite,Diorite,16,TRUE,3,3,,,,,,,,,,,,,,,,
,,,,,,,,,,,html-keyboard-response,337,2.0.0,2636222,60fc2ec58ad0da367daee3c1,4,19,null,,,,,,,,,<p style='font-size: 30px;'><strong>Okay</strong></p>,null,neutral_feedback,2,test,32,,,,,,,,,,,,,,,,,,,,,,
,,,,,,,,,,,html-button-response,338,2.0.0,2637425,60fc2ec58ad0da367daee3c1,4,19,1171,,,,,,,,,"<img src= ""rock_img/I_Pegmatite_16.jpg"" style=""width:8cm; height:5.8cm;""><p>What type of rock is this?</p>",5,class_response,2,test,33,Pegmatite,Pegmatite,16,TRUE,6,6,,,,,,,,,,,,,,,,
,,,,,,,,,,,html-keyboard-response,339,2.0.0,2637953,60fc2ec58ad0da367daee3c1,4,19,null,,,,,,,,,<p style='font-size: 30px;'><strong>Okay</strong></p>,null,neutral_feedback,2,test,33,,,,,,,,,,,,,,,,,,,,,,
,,,,,,,,,,,html-button-response,340,2.0.0,2639441,60fc2ec58ad0da367daee3c1,4,19,1457,,,,,,,,,"<img src= ""rock_img/I_Obsidian_07.jpg"" style=""width:8cm; height:4.76cm;""><p>What type of rock is this?</p>",4,class_response,2,test,34,Obsidian,Obsidian,7,TRUE,5,5,,,,,,,,,,,,,,,,
,,,,,,,,,,,html-keyboard-response,341,2.0.0,2639972,60fc2ec58ad0da367daee3c1,4,19,null,,,,,,,,,<p style='font-size: 30px;'><strong>Okay</strong></p>,null,neutral_feedback,2,test,34,,,,,,,,,,,,,,,,,,,,,,
,,,,,,,,,,,html-button-response,342,2.0.0,2642141,60fc2ec58ad0da367daee3c1,4,19,2143,,,,,,,,,"<img src= ""rock_img/I_Basalt_16.jpg"" style=""width:8cm; height:7.659999999999999cm;""><p>What type of rock is this?</p>",3,class_response,2,test,35,Gabbro,Basalt,16,FALSE,4,2,,,,,,,,,,,,,,,,
,,,,,,,,,,,html-keyboard-response,343,2.0.0,2642670,60fc2ec58ad0da367daee3c1,4,19,null,,,,,,,,,<p style='font-size: 30px;'><strong>Okay</strong></p>,null,neutral_feedback,2,test,35,,,,,,,,,,,,,,,,,,,,,,
,,,,,,,,,,,html-button-response,344,2.0.0,2644242,60fc2ec58ad0da367daee3c1,4,19,1543,,,,,,,,,"<img src= ""rock_img/I_Pegmatite_10.jpg"" style=""width:8cm; height:4.16cm;""><p>What type of rock is this?</p>",5,class_response,2,test,36,Pegmatite,Pegmatite,10,TRUE,6,6,,,,,,,,,,,,,,,,
,,,,,,,,,,,html-keyboard-response,345,2.0.0,2644772,60fc2ec58ad0da367daee3c1,4,19,null,,,,,,,,,<p style='font-size: 30px;'><strong>Okay</strong></p>,null,neutral_feedback,2,test,36,,,,,,,,,,,,,,,,,,,,,,
,,,,,,,,,,,html-button-response,346,2.0.0,2652756,60fc2ec58ad0da367daee3c1,4,19,7957,,,,,,,,,"<img src= ""rock_img/I_Basalt_10.jpg"" style=""width:8cm; height:5.85cm;""><p>What type of rock is this?</p>",1,class_response,2,test,37,Basalt,Basalt,10,TRUE,2,2,,,,,,,,,,,,,,,,
,,,,,,,,,,,html-keyboard-response,347,2.0.0,2653287,60fc2ec58ad0da367daee3c1,4,19,null,,,,,,,,,<p style='font-size: 30px;'><strong>Okay</strong></p>,null,neutral_feedback,2,test,37,,,,,,,,,,,,,,,,,,,,,,
,,,,,,,,,,,html-button-response,348,2.0.0,2654893,60fc2ec58ad0da367daee3c1,4,19,1576,,,,,,,,,"<img src= ""rock_img/I_Gabbro_16.jpg"" style=""width:8cm; height:6.44cm;""><p>What type of rock is this?</p>",3,class_response,2,test,38,Gabbro,Gabbro,16,TRUE,4,4,,,,,,,,,,,,,,,,
,,,,,,,,,,,html-keyboard-response,349,2.0.0,2655423,60fc2ec58ad0da367daee3c1,4,19,null,,,,,,,,,<p style='font-size: 30px;'><strong>Okay</strong></p>,null,neutral_feedback,2,test,38,,,,,,,,,,,,,,,,,,,,,,
,,,,,,,,,,,html-button-response,350,2.0.0,2657358,60fc2ec58ad0da367daee3c1,4,19,1906,,,,,,,,,"<img src= ""rock_img/I_Peridotite_12.jpg"" style=""width:8cm; height:4.54cm;""><p>What type of rock is this?</p>",6,class_response,2,test,39,Peridotite,Peridotite,12,TRUE,7,7,,,,,,,,,,,,,,,,
,,,,,,,,,,,html-keyboard-response,351,2.0.0,2657887,60fc2ec58ad0da367daee3c1,4,19,null,,,,,,,,,<p style='font-size: 30px;'><strong>Okay</strong></p>,null,neutral_feedback,2,test,39,,,,,,,,,,,,,,,,,,,,,,
,,,,,,,,,,,html-button-response,352,2.0.0,2685126,60fc2ec58ad0da367daee3c1,4,19,27208,,,,,,,,,"<img src= ""rock_img/I_Gabbro_14.jpg"" style=""width:8cm; height:8.48cm;""><p>What type of rock is this?</p>",3,class_response,2,test,40,Gabbro,Gabbro,14,TRUE,4,4,,,,,,,,,,,,,,,,
,,,,,,,,,,,html-keyboard-response,353,2.0.0,2685657,60fc2ec58ad0da367daee3c1,4,19,null,,,,,,,,,<p style='font-size: 30px;'><strong>Okay</strong></p>,null,neutral_feedback,2,test,40,,,,,,,,,,,,,,,,,,,,,,
,,,,,,,,,,,html-button-response,354,2.0.0,2691008,60fc2ec58ad0da367daee3c1,4,19,5321,,,,,,,,,"<img src= ""rock_img/I_Gabbro_08.jpg"" style=""width:8cm; height:5.15cm;""><p>What type of rock is this?</p>",0,class_response,2,test,41,Andesite,Gabbro,8,FALSE,1,4,,,,,,,,,,,,,,,,
,,,,,,,,,,,html-keyboard-response,355,2.0.0,2691538,60fc2ec58ad0da367daee3c1,4,19,null,,,,,,,,,<p style='font-size: 30px;'><strong>Okay</strong></p>,null,neutral_feedback,2,test,41,,,,,,,,,,,,,,,,,,,,,,
,,,,,,,,,,,html-button-response,356,2.0.0,2693009,60fc2ec58ad0da367daee3c1,4,19,1441,,,,,,,,,"<img src= ""rock_img/I_Gabbro_12.jpg"" style=""width:8cm; height:7.800000000000001cm;""><p>What type of rock is this?</p>",1,class_response,2,test,42,Basalt,Gabbro,12,FALSE,2,4,,,,,,,,,,,,,,,,
,,,,,,,,,,,html-keyboard-response,357,2.0.0,2693538,60fc2ec58ad0da367daee3c1,4,19,null,,,,,,,,,<p style='font-size: 30px;'><strong>Okay</strong></p>,null,neutral_feedback,2,test,42,,,,,,,,,,,,,,,,,,,,,,
,,,,,,,,,,,html-button-response,358,2.0.0,2695025,60fc2ec58ad0da367daee3c1,4,19,1458,,,,,,,,,"<img src= ""rock_img/I_Andesite_07.jpg"" style=""width:8cm; height:5.93cm;""><p>What type of rock is this?</p>",2,class_response,2,test,43,Diorite,Andesite,7,FALSE,3,1,,,,,,,,,,,,,,,,
,,,,,,,,,,,html-keyboard-response,359,2.0.0,2695554,60fc2ec58ad0da367daee3c1,4,19,null,,,,,,,,,<p style='font-size: 30px;'><strong>Okay</strong></p>,null,neutral_feedback,2,test,43,,,,,,,,,,,,,,,,,,,,,,
,,,,,,,,,,,html-button-response,360,2.0.0,2696939,60fc2ec58ad0da367daee3c1,4,19,1356,,,,,,,,,"<img src= ""rock_img/I_Pumice_14.jpg"" style=""width:8cm; height:6.39cm;""><p>What type of rock is this?</p>",7,class_response,2,test,44,Pumice,Pumice,14,TRUE,8,8,,,,,,,,,,,,,,,,
,,,,,,,,,,,html-keyboard-response,361,2.0.0,2697469,60fc2ec58ad0da367daee3c1,4,19,null,,,,,,,,,<p style='font-size: 30px;'><strong>Okay</strong></p>,null,neutral_feedback,2,test,44,,,,,,,,,,,,,,,,,,,,,,
,,,,,,,,,,,html-button-response,362,2.0.0,2702242,60fc2ec58ad0da367daee3c1,4,19,4744,,,,,,,,,"<img src= ""rock_img/I_Diorite_12.jpg"" style=""width:8cm; height:4.88cm;""><p>What type of rock is this?</p>",2,class_response,2,test,45,Diorite,Diorite,12,TRUE,3,3,,,,,,,,,,,,,,,,
,,,,,,,,,,,html-keyboard-response,363,2.0.0,2702771,60fc2ec58ad0da367daee3c1,4,19,null,,,,,,,,,<p style='font-size: 30px;'><strong>Okay</strong></p>,null,neutral_feedback,2,test,45,,,,,,,,,,,,,,,,,,,,,,
,,,,,,,,,,,html-button-response,364,2.0.0,2704256,60fc2ec58ad0da367daee3c1,4,19,1456,,,,,,,,,"<img src= ""rock_img/I_Pumice_09.jpg"" style=""width:8cm; height:6.44cm;""><p>What type of rock is this?</p>",7,class_response,2,test,46,Pumice,Pumice,9,TRUE,8,8,,,,,,,,,,,,,,,,
,,,,,,,,,,,html-keyboard-response,365,2.0.0,2704788,60fc2ec58ad0da367daee3c1,4,19,null,,,,,,,,,<p style='font-size: 30px;'><strong>Okay</strong></p>,null,neutral_feedback,2,test,46,,,,,,,,,,,,,,,,,,,,,,
,,,,,,,,,,,html-button-response,366,2.0.0,2706540,60fc2ec58ad0da367daee3c1,4,19,1723,,,,,,,,,"<img src= ""rock_img/I_Peridotite_16.jpg"" style=""width:8cm; height:6.989999999999999cm;""><p>What type of rock is this?</p>",6,class_response,2,test,47,Peridotite,Peridotite,16,TRUE,7,7,,,,,,,,,,,,,,,,
,,,,,,,,,,,html-keyboard-response,367,2.0.0,2707073,60fc2ec58ad0da367daee3c1,4,19,null,,,,,,,,,<p style='font-size: 30px;'><strong>Okay</strong></p>,null,neutral_feedback,2,test,47,,,,,,,,,,,,,,,,,,,,,,
,,,,,,,,,,,html-button-response,368,2.0.0,2708457,60fc2ec58ad0da367daee3c1,4,19,1354,,,,,,,,,"<img src= ""rock_img/I_Basalt_08.jpg"" style=""width:8cm; height:10.44cm;""><p>What type of rock is this?</p>",1,class_response,2,test,48,Basalt,Basalt,8,TRUE,2,2,,,,,,,,,,,,,,,,
,,,,,,,,,,,html-keyboard-response,369,2.0.0,2708988,60fc2ec58ad0da367daee3c1,4,19,null,,,,,,,,,<p style='font-size: 30px;'><strong>Okay</strong></p>,null,neutral_feedback,2,test,48,,,,,,,,,,,,,,,,,,,,,,
,,,,,,,,,,,html-button-response,370,2.0.0,2725139,60fc2ec58ad0da367daee3c1,4,19,,,,,,,,,,,,cycle_feedback,,,,,,,,,,,,,,,,,,,,,,,,14825.3,1297.8
,,,,,,,,,,,html-button-response,372,2.0.0,2727242,60fc2ec58ad0da367daee3c1,4,19,2049,,,,,,,,,,0,start_train,,,,,,,,,,,,,,,,,,,,,,,,,
,,,,,,,,,,,html-button-response,374,2.0.0,2740175,60fc2ec58ad0da367daee3c1,4,19,12875,,,,,,,,,"<img src= ""rock_img/I_Gabbro_13.jpg"" style=""width:8cm; height:5.08cm;""><p>What type of rock is this?</p>",3,class_response,3,train,1,Gabbro,Gabbro,13,TRUE,4,4,,,,,,,,,,,,,,,,
,,,,,,,,,,,html-button-response,375,2.0.0,2741774,60fc2ec58ad0da367daee3c1,4,19,1542,,,,,,,,,"<img src= rock_img/I_Gabbro_13.jpg style=""width:8cm; height:5.08cm;""><p style='font-size: 30px; color: green;'><strong>Correct!</strong></p><p style='font-size: 30px;'><strong>This rock is gabbro</strong></p>",0,corr_feedback,3,train,1,,,,,,,,,,,,,,,,,,,,,,
,,,,,,,,,,,html-button-response,376,2.0.0,2743659,60fc2ec58ad0da367daee3c1,4,19,1828,,,,,,,,,"<img src= ""rock_img/I_Peridotite_10.jpg"" style=""width:8cm; height:5.390000000000001cm;""><p>What type of rock is this?</p>",6,class_response,3,train,2,Peridotite,Peridotite,10,TRUE,7,7,,,,,,,,,,,,,,,,
,,,,,,,,,,,html-button-response,377,2.0.0,2744658,60fc2ec58ad0da367daee3c1,4,19,945,,,,,,,,,"<img src= rock_img/I_Peridotite_10.jpg style=""width:8cm; height:5.390000000000001cm;""><p style='font-size: 30px; color: green;'><strong>Correct!</strong></p><p style='font-size: 30px;'><strong>This rock is peridotite</strong></p>",0,corr_feedback,3,train,2,,,,,,,,,,,,,,,,,,,,,,
,,,,,,,,,,,html-button-response,378,2.0.0,2747191,60fc2ec58ad0da367daee3c1,4,19,2481,,,,,,,,,"<img src= ""rock_img/I_Gabbro_05.jpg"" style=""width:8cm; height:6cm;""><p>What type of rock is this?</p>",6,class_response,3,train,3,Peridotite,Gabbro,5,FALSE,7,4,,,,,,,,,,,,,,,,
,,,,,,,,,,,html-button-response,379,2.0.0,2748639,60fc2ec58ad0da367daee3c1,4,19,1396,,,,,,,,,"<img src= rock_img/I_Gabbro_05.jpg style=""width:8cm; height:6cm;""><p style='font-size: 30px; color: red;'><strong>Incorrect!</strong></p><p style='font-size: 30px;'><strong>This rock is gabbro</strong></p>",0,corr_feedback,3,train,3,,,,,,,,,,,,,,,,,,,,,,
,,,,,,,,,,,html-button-response,380,2.0.0,2756859,60fc2ec58ad0da367daee3c1,4,19,8166,,,,,,,,,"<img src= ""rock_img/I_Andesite_11.jpg"" style=""width:8cm; height:4.92cm;""><p>What type of rock is this?</p>",0,class_response,3,train,4,Andesite,Andesite,11,TRUE,1,1,,,,,,,,,,,,,,,,
,,,,,,,,,,,html-button-response,381,2.0.0,2757941,60fc2ec58ad0da367daee3c1,4,19,1025,,,,,,,,,"<img src= rock_img/I_Andesite_11.jpg style=""width:8cm; height:4.92cm;""><p style='font-size: 30px; color: green;'><strong>Correct!</strong></p><p style='font-size: 30px;'><strong>This rock is andesite</strong></p>",0,corr_feedback,3,train,4,,,,,,,,,,,,,,,,,,,,,,
,,,,,,,,,,,html-button-response,382,2.0.0,2760107,60fc2ec58ad0da367daee3c1,4,19,2110,,,,,,,,,"<img src= ""rock_img/I_Pegmatite_03.jpg"" style=""width:8cm; height:5.239999999999999cm;""><p>What type of rock is this?</p>",5,class_response,3,train,5,Pegmatite,Pegmatite,3,TRUE,6,6,,,,,,,,,,,,,,,,
,,,,,,,,,,,html-button-response,383,2.0.0,2761123,60fc2ec58ad0da367daee3c1,4,19,962,,,,,,,,,"<img src= rock_img/I_Pegmatite_03.jpg style=""width:8cm; height:5.239999999999999cm;""><p style='font-size: 30px; color: green;'><strong>Correct!</strong></p><p style='font-size: 30px;'><strong>This rock is pegmatite</strong></p>",0,corr_feedback,3,train,5,,,,,,,,,,,,,,,,,,,,,,
,,,,,,,,,,,html-button-response,384,2.0.0,2762626,60fc2ec58ad0da367daee3c1,4,19,1446,,,,,,,,,"<img src= ""rock_img/I_Obsidian_05.jpg"" style=""width:8cm; height:6.33cm;""><p>What type of rock is this?</p>",4,class_response,3,train,6,Obsidian,Obsidian,5,TRUE,5,5,,,,,,,,,,,,,,,,
,,,,,,,,,,,html-button-response,385,2.0.0,2763841,60fc2ec58ad0da367daee3c1,4,19,1160,,,,,,,,,"<img src= rock_img/I_Obsidian_05.jpg style=""width:8cm; height:6.33cm;""><p style='font-size: 30px; color: green;'><strong>Correct!</strong></p><p style='font-size: 30px;'><strong>This rock is obsidian</strong></p>",0,corr_feedback,3,train,6,,,,,,,,,,,,,,,,,,,,,,
,,,,,,,,,,,html-button-response,386,2.0.0,2765574,60fc2ec58ad0da367daee3c1,4,19,1677,,,,,,,,,"<img src= ""rock_img/I_Pumice_08.jpg"" style=""width:8cm; height:6.67cm;""><p>What type of rock is this?</p>",7,class_response,3,train,7,Pumice,Pumice,8,TRUE,8,8,,,,,,,,,,,,,,,,
,,,,,,,,,,,html-button-response,387,2.0.0,2766790,60fc2ec58ad0da367daee3c1,4,19,1161,,,,,,,,,"<img src= rock_img/I_Pumice_08.jpg style=""width:8cm; height:6.67cm;""><p style='font-size: 30px; color: green;'><strong>Correct!</strong></p><p style='font-size: 30px;'><strong>This rock is pumice</strong></p>",0,corr_feedback,3,train,7,,,,,,,,,,,,,,,,,,,,,,
,,,,,,,,,,,html-button-response,388,2.0.0,2769724,60fc2ec58ad0da367daee3c1,4,19,2880,,,,,,,,,"<img src= ""rock_img/I_Diorite_02.jpg"" style=""width:8cm; height:6.27cm;""><p>What type of rock is this?</p>",2,class_response,3,train,8,Diorite,Diorite,2,TRUE,3,3,,,,,,,,,,,,,,,,
,,,,,,,,,,,html-button-response,389,2.0.0,2771391,60fc2ec58ad0da367daee3c1,4,19,1610,,,,,,,,,"<img src= rock_img/I_Diorite_02.jpg style=""width:8cm; height:6.27cm;""><p style='font-size: 30px; color: green;'><strong>Correct!</strong></p><p style='font-size: 30px;'><strong>This rock is diorite</strong></p>",0,corr_feedback,3,train,8,,,,,,,,,,,,,,,,,,,,,,
,,,,,,,,,,,html-button-response,390,2.0.0,2773274,60fc2ec58ad0da367daee3c1,4,19,1826,,,,,,,,,"<img src= ""rock_img/I_Pegmatite_08.jpg"" style=""width:8cm; height:7.68cm;""><p>What type of rock is this?</p>",5,class_response,3,train,9,Pegmatite,Pegmatite,8,TRUE,6,6,,,,,,,,,,,,,,,,
,,,,,,,,,,,html-button-response,391,2.0.0,2774174,60fc2ec58ad0da367daee3c1,4,19,840,,,,,,,,,"<img src= rock_img/I_Pegmatite_08.jpg style=""width:8cm; height:7.68cm;""><p style='font-size: 30px; color: green;'><strong>Correct!</strong></p><p style='font-size: 30px;'><strong>This rock is pegmatite</strong></p>",0,corr_feedback,3,train,9,,,,,,,,,,,,,,,,,,,,,,
,,,,,,,,,,,html-button-response,392,2.0.0,2775707,60fc2ec58ad0da367daee3c1,4,19,1476,,,,,,,,,"<img src= ""rock_img/I_Peridotite_14.jpg"" style=""width:8cm; height:5.3cm;""><p>What type of rock is this?</p>",6,class_response,3,train,10,Peridotite,Peridotite,14,TRUE,7,7,,,,,,,,,,,,,,,,
,,,,,,,,,,,html-button-response,393,2.0.0,2776823,60fc2ec58ad0da367daee3c1,4,19,1059,,,,,,,,,"<img src= rock_img/I_Peridotite_14.jpg style=""width:8cm; height:5.3cm;""><p style='font-size: 30px; color: green;'><strong>Correct!</strong></p><p style='font-size: 30px;'><strong>This rock is peridotite</strong></p>",0,corr_feedback,3,train,10,,,,,,,,,,,,,,,,,,,,,,
,,,,,,,,,,,html-button-response,394,2.0.0,2778676,60fc2ec58ad0da367daee3c1,4,19,1797,,,,,,,,,"<img src= ""rock_img/I_Basalt_05.jpg"" style=""width:8cm; height:8.18cm;""><p>What type of rock is this?</p>",1,class_response,3,train,11,Basalt,Basalt,5,TRUE,2,2,,,,,,,,,,,,,,,,
,,,,,,,,,,,html-button-response,395,2.0.0,2779857,60fc2ec58ad0da367daee3c1,4,19,1124,,,,,,,,,"<img src= rock_img/I_Basalt_05.jpg style=""width:8cm; height:8.18cm;""><p style='font-size: 30px; color: green;'><strong>Correct!</strong></p><p style='font-size: 30px;'><strong>This rock is basalt</strong></p>",0,corr_feedback,3,train,11,,,,,,,,,,,,,,,,,,,,,,
,,,,,,,,,,,html-button-response,396,2.0.0,2781541,60fc2ec58ad0da367daee3c1,4,19,1627,,,,,,,,,"<img src= ""rock_img/I_Pumice_02.jpg"" style=""width:8cm; height:7.3999999999999995cm;""><p>What type of rock is this?</p>",7,class_response,3,train,12,Pumice,Pumice,2,TRUE,8,8,,,,,,,,,,,,,,,,
,,,,,,,,,,,html-button-response,397,2.0.0,2782756,60fc2ec58ad0da367daee3c1,4,19,1158,,,,,,,,,"<img src= rock_img/I_Pumice_02.jpg style=""width:8cm; height:7.3999999999999995cm;""><p style='font-size: 30px; color: green;'><strong>Correct!</strong></p><p style='font-size: 30px;'><strong>This rock is pumice</strong></p>",0,corr_feedback,3,train,12,,,,,,,,,,,,,,,,,,,,,,
,,,,,,,,,,,html-button-response,399,2.0.0,2784241,60fc2ec58ad0da367daee3c1,4,19,1429,,,,,,,,,,0,start_train,,,,,,,,,,,,,,,,,,,,,,,,,
,,,,,,,,,,,html-button-response,400,2.0.0,2794574,60fc2ec58ad0da367daee3c1,4,19,,,,,,,,,,,,cat_selection,3,train,1,,,,,,,3336,6950.6,4,2,Gabbro,Basalt,,,,,,,,,,
,,,,,,,,,,,paired-cat-display,401,1.0.0,2879384,60fc2ec58ad0da367daee3c1,4,19,,,,,,,,,,,,paired_cat_display,3,train,1,,,,,,,,,,,,,Gabbro has usually 2 colors. It has very fine coarse grained structure.,Basalt is usually a single color rock. It has more of a plain surface and doesn't shine at all.,8862.1,75918.8,,,,,,
,,,,,,,,,,,html-button-response,402,2.0.0,2885656,60fc2ec58ad0da367daee3c1,4,19,,,,,,,,,,,,cat_selection,3,train,2,,,,,,,5499.7,713.2,7,6,Peridotite,Pegmatite,,,,,,,,,,
,,,,,,,,,,,paired-cat-display,403,1.0.0,2940282,60fc2ec58ad0da367daee3c1,4,19,,,,,,,,,,,,paired_cat_display,3,train,2,,,,,,,,,,,,,,,7282.4,47315.6,Greenish small crystal composition structure.,Shiny large crystal combination. Looks elegant and rich in color.,,,,
,,,,,,,,,,,html-button-response,404,2.0.0,2950175,60fc2ec58ad0da367daee3c1,4,19,,,,,,,,,,,,cat_selection,3,train,3,,,,,,,2099.1,7732.8,1,3,Andesite,Diorite,,,,,,,,,,
,,,,,,,,,,,paired-cat-display,405,1.0.0,3016384,60fc2ec58ad0da367daee3c1,4,19,,,,,,,,,,,,paired_cat_display,3,train,3,,,,,,,,,,,,,,,15114.9,51067.6,,,Has less spots and usually has white spots on it. Greyish in color.,Usually has black spots and has a grainy structure.,,
