width,height,webaudio,browser,browser_version,mobile,os,fullscreen,vsync_rate,webcam,microphone,trial_type,trial_index,plugin_version,time_elapsed,subjID,condition,stimID,rt,url,success,value,timeout,failed_images,failed_audio,failed_video,view_history,stimulus,response,trialType,cycle,phase,trial,resp,cat,token,corr,resp_num,cat_num,rt_ref,rt_paired,ref_cat_num,paired_cat_num,ref_cat,paired_cat,text_Andesite,text_Basalt,time_obs,time_resp,text_Gabbro,text_Diorite,text_Peridotite,text_Pegmatite,time_fb1,time_fb2,text_Obsidian
1366,599,TRUE,chrome,130.0.0,FALSE,Windows 10,TRUE,58.2,TRUE,TRUE,browser-check,0,2.0.0,1062,66ca332e94754270be72c08f,4,14,,,,,,,,,,,,,,,,,,,,,,,,,,,,,,,,,,,,,,
,,,,,,,,,,,external-html,1,2.0.0,28363,66ca332e94754270be72c08f,4,14,27000,consent_form.html,,,,,,,,,,,,,,,,,,,,,,,,,,,,,,,,,,,,
,,,,,,,,,,,fullscreen,2,2.0.0,33162,66ca332e94754270be72c08f,4,14,3780,,TRUE,,,,,,,,,,,,,,,,,,,,,,,,,,,,,,,,,,,
,,,,,,,,,,,call-function,3,2.0.0,33165,66ca332e94754270be72c08f,4,14,,,,{},,,,,,,,,,,,,,,,,,,,,,,,,,,,,,,,,,
,,,,,,,,,,,preload,4,2.0.0,37414,66ca332e94754270be72c08f,4,14,,,TRUE,,FALSE,[],[],[],,,,,,,,,,,,,,,,,,,,,,,,,,,,,,
,,,,,,,,,,,instructions,5,2.0.0,86478,66ca332e94754270be72c08f,4,14,49049,,,,,,,,"[{""page_index"":0,""viewing_time"":11328},{""page_index"":1,""viewing_time"":22121},{""page_index"":2,""viewing_time"":15598}]",,,,,,,,,,,,,,,,,,,,,,,,,,,,,
,,,,,,,,,,,html-button-response,6,2.0.0,91890,66ca332e94754270be72c08f,4,14,5405,,,,,,,,,,0,start_test,,,,,,,,,,,,,,,,,,,,,,,,,,
,,,,,,,,,,,html-button-response,7,2.0.0,127897,66ca332e94754270be72c08f,4,14,35999,,,,,,,,,"<img src= ""rock_img/I_Obsidian_09.jpg"" style=""width:8cm; height:5cm;""><p>What type of rock is this?</p>",4,class_response,0,test,1,Obsidian,Obsidian,9,TRUE,5,5,,,,,,,,,,,,,,,,,
,,,,,,,,,,,html-keyboard-response,8,2.0.0,128407,66ca332e94754270be72c08f,4,14,null,,,,,,,,,<p style='font-size: 30px;'><strong>Okay</strong></p>,null,neutral_feedback,0,test,1,,,,,,,,,,,,,,,,,,,,,,,
,,,,,,,,,,,html-button-response,9,2.0.0,153369,66ca332e94754270be72c08f,4,14,24957,,,,,,,,,"<img src= ""rock_img/I_Andesite_14.jpg"" style=""width:8cm; height:5.449999999999999cm;""><p>What type of rock is this?</p>",2,class_response,0,test,2,Diorite,Andesite,14,FALSE,3,1,,,,,,,,,,,,,,,,,
,,,,,,,,,,,html-keyboard-response,10,2.0.0,153878,66ca332e94754270be72c08f,4,14,null,,,,,,,,,<p style='font-size: 30px;'><strong>Okay</strong></p>,null,neutral_feedback,0,test,2,,,,,,,,,,,,,,,,,,,,,,,
,,,,,,,,,,,html-button-response,11,2.0.0,194882,66ca332e94754270be72c08f,4,14,40999,,,,,,,,,"<img src= ""rock_img/I_Diorite_11.jpg"" style=""width:8cm; height:7.11cm;""><p>What type of rock is this?</p>",1,class_response,0,test,3,Basalt,Diorite,11,FALSE,2,3,,,,,,,,,,,,,,,,,
,,,,,,,,,,,html-keyboard-response,12,2.0.0,195389,66ca332e94754270be72c08f,4,14,null,,,,,,,,,<p style='font-size: 30px;'><strong>Okay</strong></p>,null,neutral_feedback,0,test,3,,,,,,,,,,,,,,,,,,,,,,,
,,,,,,,,,,,html-button-response,13,2.0.0,226339,66ca332e94754270be72c08f,4,14,30946,,,,,,,,,"<img src= ""rock_img/I_Peridotite_05.jpg"" style=""width:8cm; height:7.1499999999999995cm;""><p>What type of rock is this?</p>",1,class_response,0,test,4,Basalt,Peridotite,5,FALSE,2,7,,,,,,,,,,,,,,,,,
,,,,,,,,,,,html-keyboard-response,14,2.0.0,226849,66ca332e94754270be72c08f,4,14,null,,,,,,,,,<p style='font-size: 30px;'><strong>Okay</strong></p>,null,neutral_feedback,0,test,4,,,,,,,,,,,,,,,,,,,,,,,
,,,,,,,,,,,html-button-response,15,2.0.0,252249,66ca332e94754270be72c08f,4,14,25395,,,,,,,,,"<img src= ""rock_img/I_Basalt_02.jpg"" style=""width:8cm; height:6.45cm;""><p>What type of rock is this?</p>",0,class_response,0,test,5,Andesite,Basalt,2,FALSE,1,2,,,,,,,,,,,,,,,,,
,,,,,,,,,,,html-keyboard-response,16,2.0.0,252764,66ca332e94754270be72c08f,4,14,null,,,,,,,,,<p style='font-size: 30px;'><strong>Okay</strong></p>,null,neutral_feedback,0,test,5,,,,,,,,,,,,,,,,,,,,,,,
,,,,,,,,,,,html-button-response,17,2.0.0,275444,66ca332e94754270be72c08f,4,14,22675,,,,,,,,,"<img src= ""rock_img/I_Pumice_04.jpg"" style=""width:8cm; height:6.819999999999999cm;""><p>What type of rock is this?</p>",7,class_response,0,test,6,Pumice,Pumice,4,TRUE,8,8,,,,,,,,,,,,,,,,,
,,,,,,,,,,,html-keyboard-response,18,2.0.0,275958,66ca332e94754270be72c08f,4,14,null,,,,,,,,,<p style='font-size: 30px;'><strong>Okay</strong></p>,null,neutral_feedback,0,test,6,,,,,,,,,,,,,,,,,,,,,,,
,,,,,,,,,,,html-button-response,19,2.0.0,297459,66ca332e94754270be72c08f,4,14,21496,,,,,,,,,"<img src= ""rock_img/I_Andesite_02.jpg"" style=""width:8cm; height:8.5cm;""><p>What type of rock is this?</p>",3,class_response,0,test,7,Gabbro,Andesite,2,FALSE,4,1,,,,,,,,,,,,,,,,,
,,,,,,,,,,,html-keyboard-response,20,2.0.0,297972,66ca332e94754270be72c08f,4,14,null,,,,,,,,,<p style='font-size: 30px;'><strong>Okay</strong></p>,null,neutral_feedback,0,test,7,,,,,,,,,,,,,,,,,,,,,,,
,,,,,,,,,,,html-button-response,21,2.0.0,317648,66ca332e94754270be72c08f,4,14,19671,,,,,,,,,"<img src= ""rock_img/I_Gabbro_14.jpg"" style=""width:8cm; height:8.48cm;""><p>What type of rock is this?</p>",6,class_response,0,test,8,Peridotite,Gabbro,14,FALSE,7,4,,,,,,,,,,,,,,,,,
,,,,,,,,,,,html-keyboard-response,22,2.0.0,318153,66ca332e94754270be72c08f,4,14,null,,,,,,,,,<p style='font-size: 30px;'><strong>Okay</strong></p>,null,neutral_feedback,0,test,8,,,,,,,,,,,,,,,,,,,,,,,
,,,,,,,,,,,html-button-response,23,2.0.0,345875,66ca332e94754270be72c08f,4,14,27717,,,,,,,,,"<img src= ""rock_img/I_Peridotite_10.jpg"" style=""width:8cm; height:5.390000000000001cm;""><p>What type of rock is this?</p>",2,class_response,0,test,9,Diorite,Peridotite,10,FALSE,3,7,,,,,,,,,,,,,,,,,
,,,,,,,,,,,html-keyboard-response,24,2.0.0,346388,66ca332e94754270be72c08f,4,14,null,,,,,,,,,<p style='font-size: 30px;'><strong>Okay</strong></p>,null,neutral_feedback,0,test,9,,,,,,,,,,,,,,,,,,,,,,,
,,,,,,,,,,,html-button-response,25,2.0.0,370501,66ca332e94754270be72c08f,4,14,24109,,,,,,,,,"<img src= ""rock_img/I_Pegmatite_03.jpg"" style=""width:8cm; height:5.239999999999999cm;""><p>What type of rock is this?</p>",5,class_response,0,test,10,Pegmatite,Pegmatite,3,TRUE,6,6,,,,,,,,,,,,,,,,,
,,,,,,,,,,,html-keyboard-response,26,2.0.0,371017,66ca332e94754270be72c08f,4,14,null,,,,,,,,,<p style='font-size: 30px;'><strong>Okay</strong></p>,null,neutral_feedback,0,test,10,,,,,,,,,,,,,,,,,,,,,,,
,,,,,,,,,,,html-button-response,27,2.0.0,405211,66ca332e94754270be72c08f,4,14,34205,,,,,,,,,"<img src= ""rock_img/I_Pegmatite_09.jpg"" style=""width:8cm; height:4.03cm;""><p>What type of rock is this?</p>",2,class_response,0,test,11,Diorite,Pegmatite,9,FALSE,3,6,,,,,,,,,,,,,,,,,
,,,,,,,,,,,html-keyboard-response,28,2.0.0,405719,66ca332e94754270be72c08f,4,14,null,,,,,,,,,<p style='font-size: 30px;'><strong>Okay</strong></p>,null,neutral_feedback,0,test,11,,,,,,,,,,,,,,,,,,,,,,,
,,,,,,,,,,,html-button-response,29,2.0.0,534095,66ca332e94754270be72c08f,4,14,128356,,,,,,,,,"<img src= ""rock_img/I_Basalt_08.jpg"" style=""width:8cm; height:10.44cm;""><p>What type of rock is this?</p>",1,class_response,0,test,12,Basalt,Basalt,8,TRUE,2,2,,,,,,,,,,,,,,,,,
,,,,,,,,,,,html-keyboard-response,30,2.0.0,534610,66ca332e94754270be72c08f,4,14,null,,,,,,,,,<p style='font-size: 30px;'><strong>Okay</strong></p>,null,neutral_feedback,0,test,12,,,,,,,,,,,,,,,,,,,,,,,
,,,,,,,,,,,html-button-response,31,2.0.0,556278,66ca332e94754270be72c08f,4,14,21663,,,,,,,,,"<img src= ""rock_img/I_Gabbro_16.jpg"" style=""width:8cm; height:6.44cm;""><p>What type of rock is this?</p>",5,class_response,0,test,13,Pegmatite,Gabbro,16,FALSE,6,4,,,,,,,,,,,,,,,,,
,,,,,,,,,,,html-keyboard-response,32,2.0.0,556784,66ca332e94754270be72c08f,4,14,null,,,,,,,,,<p style='font-size: 30px;'><strong>Okay</strong></p>,null,neutral_feedback,0,test,13,,,,,,,,,,,,,,,,,,,,,,,
,,,,,,,,,,,html-button-response,33,2.0.0,578236,66ca332e94754270be72c08f,4,14,21447,,,,,,,,,"<img src= ""rock_img/I_Obsidian_07.jpg"" style=""width:8cm; height:4.76cm;""><p>What type of rock is this?</p>",4,class_response,0,test,14,Obsidian,Obsidian,7,TRUE,5,5,,,,,,,,,,,,,,,,,
,,,,,,,,,,,html-keyboard-response,34,2.0.0,578747,66ca332e94754270be72c08f,4,14,null,,,,,,,,,<p style='font-size: 30px;'><strong>Okay</strong></p>,null,neutral_feedback,0,test,14,,,,,,,,,,,,,,,,,,,,,,,
,,,,,,,,,,,html-button-response,35,2.0.0,622607,66ca332e94754270be72c08f,4,14,43856,,,,,,,,,"<img src= ""rock_img/I_Pegmatite_13.jpg"" style=""width:8cm; height:4.95cm;""><p>What type of rock is this?</p>",2,class_response,0,test,15,Diorite,Pegmatite,13,FALSE,3,6,,,,,,,,,,,,,,,,,
,,,,,,,,,,,html-keyboard-response,36,2.0.0,623111,66ca332e94754270be72c08f,4,14,null,,,,,,,,,<p style='font-size: 30px;'><strong>Okay</strong></p>,null,neutral_feedback,0,test,15,,,,,,,,,,,,,,,,,,,,,,,
,,,,,,,,,,,html-button-response,37,2.0.0,648918,66ca332e94754270be72c08f,4,14,25802,,,,,,,,,"<img src= ""rock_img/I_Basalt_16.jpg"" style=""width:8cm; height:7.659999999999999cm;""><p>What type of rock is this?</p>",1,class_response,0,test,16,Basalt,Basalt,16,TRUE,2,2,,,,,,,,,,,,,,,,,
,,,,,,,,,,,html-keyboard-response,38,2.0.0,649428,66ca332e94754270be72c08f,4,14,null,,,,,,,,,<p style='font-size: 30px;'><strong>Okay</strong></p>,null,neutral_feedback,0,test,16,,,,,,,,,,,,,,,,,,,,,,,
,,,,,,,,,,,html-button-response,39,2.0.0,675195,66ca332e94754270be72c08f,4,14,25763,,,,,,,,,"<img src= ""rock_img/I_Obsidian_05.jpg"" style=""width:8cm; height:6.33cm;""><p>What type of rock is this?</p>",2,class_response,0,test,17,Diorite,Obsidian,5,FALSE,3,5,,,,,,,,,,,,,,,,,
,,,,,,,,,,,html-keyboard-response,40,2.0.0,675703,66ca332e94754270be72c08f,4,14,null,,,,,,,,,<p style='font-size: 30px;'><strong>Okay</strong></p>,null,neutral_feedback,0,test,17,,,,,,,,,,,,,,,,,,,,,,,
,,,,,,,,,,,html-button-response,41,2.0.0,698079,66ca332e94754270be72c08f,4,14,22371,,,,,,,,,"<img src= ""rock_img/I_Pumice_06.jpg"" style=""width:8cm; height:6.9399999999999995cm;""><p>What type of rock is this?</p>",7,class_response,0,test,18,Pumice,Pumice,6,TRUE,8,8,,,,,,,,,,,,,,,,,
,,,,,,,,,,,html-keyboard-response,42,2.0.0,698595,66ca332e94754270be72c08f,4,14,null,,,,,,,,,<p style='font-size: 30px;'><strong>Okay</strong></p>,null,neutral_feedback,0,test,18,,,,,,,,,,,,,,,,,,,,,,,
,,,,,,,,,,,html-button-response,43,2.0.0,724332,66ca332e94754270be72c08f,4,14,25732,,,,,,,,,"<img src= ""rock_img/I_Pegmatite_05.jpg"" style=""width:8cm; height:7.300000000000001cm;""><p>What type of rock is this?</p>",2,class_response,0,test,19,Diorite,Pegmatite,5,FALSE,3,6,,,,,,,,,,,,,,,,,
,,,,,,,,,,,html-keyboard-response,44,2.0.0,724838,66ca332e94754270be72c08f,4,14,null,,,,,,,,,<p style='font-size: 30px;'><strong>Okay</strong></p>,null,neutral_feedback,0,test,19,,,,,,,,,,,,,,,,,,,,,,,
,,,,,,,,,,,html-button-response,45,2.0.0,752202,66ca332e94754270be72c08f,4,14,27360,,,,,,,,,"<img src= ""rock_img/I_Peridotite_13.jpg"" style=""width:8cm; height:7.58cm;""><p>What type of rock is this?</p>",3,class_response,0,test,20,Gabbro,Peridotite,13,FALSE,4,7,,,,,,,,,,,,,,,,,
,,,,,,,,,,,html-keyboard-response,46,2.0.0,752709,66ca332e94754270be72c08f,4,14,null,,,,,,,,,<p style='font-size: 30px;'><strong>Okay</strong></p>,null,neutral_feedback,0,test,20,,,,,,,,,,,,,,,,,,,,,,,
,,,,,,,,,,,html-button-response,47,2.0.0,774349,66ca332e94754270be72c08f,4,14,21637,,,,,,,,,"<img src= ""rock_img/I_Gabbro_08.jpg"" style=""width:8cm; height:5.15cm;""><p>What type of rock is this?</p>",1,class_response,0,test,21,Basalt,Gabbro,8,FALSE,2,4,,,,,,,,,,,,,,,,,
,,,,,,,,,,,html-keyboard-response,48,2.0.0,774858,66ca332e94754270be72c08f,4,14,null,,,,,,,,,<p style='font-size: 30px;'><strong>Okay</strong></p>,null,neutral_feedback,0,test,21,,,,,,,,,,,,,,,,,,,,,,,
,,,,,,,,,,,html-button-response,49,2.0.0,794597,66ca332e94754270be72c08f,4,14,19740,,,,,,,,,"<img src= ""rock_img/I_Gabbro_05.jpg"" style=""width:8cm; height:6cm;""><p>What type of rock is this?</p>",0,class_response,0,test,22,Andesite,Gabbro,5,FALSE,1,4,,,,,,,,,,,,,,,,,
,,,,,,,,,,,html-keyboard-response,50,2.0.0,795114,66ca332e94754270be72c08f,4,14,null,,,,,,,,,<p style='font-size: 30px;'><strong>Okay</strong></p>,null,neutral_feedback,0,test,22,,,,,,,,,,,,,,,,,,,,,,,
,,,,,,,,,,,html-button-response,51,2.0.0,818198,66ca332e94754270be72c08f,4,14,23080,,,,,,,,,"<img src= ""rock_img/I_Pumice_05.jpg"" style=""width:8cm; height:7.25cm;""><p>What type of rock is this?</p>",7,class_response,0,test,23,Pumice,Pumice,5,TRUE,8,8,,,,,,,,,,,,,,,,,
,,,,,,,,,,,html-keyboard-response,52,2.0.0,818702,66ca332e94754270be72c08f,4,14,null,,,,,,,,,<p style='font-size: 30px;'><strong>Okay</strong></p>,null,neutral_feedback,0,test,23,,,,,,,,,,,,,,,,,,,,,,,
,,,,,,,,,,,html-button-response,53,2.0.0,855803,66ca332e94754270be72c08f,4,14,37091,,,,,,,,,"<img src= ""rock_img/I_Gabbro_10.jpg"" style=""width:8cm; height:5.680000000000001cm;""><p>What type of rock is this?</p>",1,class_response,0,test,24,Basalt,Gabbro,10,FALSE,2,4,,,,,,,,,,,,,,,,,
,,,,,,,,,,,html-keyboard-response,54,2.0.0,856311,66ca332e94754270be72c08f,4,14,null,,,,,,,,,<p style='font-size: 30px;'><strong>Okay</strong></p>,null,neutral_feedback,0,test,24,,,,,,,,,,,,,,,,,,,,,,,
,,,,,,,,,,,html-button-response,55,2.0.0,861107,66ca332e94754270be72c08f,4,14,4791,,,,,,,,,"<img src= ""rock_img/I_Obsidian_10.jpg"" style=""width:8cm; height:6.260000000000001cm;""><p>What type of rock is this?</p>",4,class_response,0,test,25,Obsidian,Obsidian,10,TRUE,5,5,,,,,,,,,,,,,,,,,
,,,,,,,,,,,html-keyboard-response,56,2.0.0,861619,66ca332e94754270be72c08f,4,14,null,,,,,,,,,<p style='font-size: 30px;'><strong>Okay</strong></p>,null,neutral_feedback,0,test,25,,,,,,,,,,,,,,,,,,,,,,,
,,,,,,,,,,,html-button-response,57,2.0.0,863892,66ca332e94754270be72c08f,4,14,2268,,,,,,,,,"<img src= ""rock_img/I_Diorite_10.jpg"" style=""width:8cm; height:5.949999999999999cm;""><p>What type of rock is this?</p>",2,class_response,0,test,26,Diorite,Diorite,10,TRUE,3,3,,,,,,,,,,,,,,,,,
,,,,,,,,,,,html-keyboard-response,58,2.0.0,864401,66ca332e94754270be72c08f,4,14,null,,,,,,,,,<p style='font-size: 30px;'><strong>Okay</strong></p>,null,neutral_feedback,0,test,26,,,,,,,,,,,,,,,,,,,,,,,
,,,,,,,,,,,html-button-response,59,2.0.0,872508,66ca332e94754270be72c08f,4,14,8103,,,,,,,,,"<img src= ""rock_img/I_Diorite_06.jpg"" style=""width:8cm; height:6.03cm;""><p>What type of rock is this?</p>",2,class_response,0,test,27,Diorite,Diorite,6,TRUE,3,3,,,,,,,,,,,,,,,,,
,,,,,,,,,,,html-keyboard-response,60,2.0.0,873024,66ca332e94754270be72c08f,4,14,null,,,,,,,,,<p style='font-size: 30px;'><strong>Okay</strong></p>,null,neutral_feedback,0,test,27,,,,,,,,,,,,,,,,,,,,,,,
,,,,,,,,,,,html-button-response,61,2.0.0,877414,66ca332e94754270be72c08f,4,14,4386,,,,,,,,,"<img src= ""rock_img/I_Basalt_09.jpg"" style=""width:8cm; height:6.2cm;""><p>What type of rock is this?</p>",4,class_response,0,test,28,Obsidian,Basalt,9,FALSE,5,2,,,,,,,,,,,,,,,,,
,,,,,,,,,,,html-keyboard-response,62,2.0.0,877920,66ca332e94754270be72c08f,4,14,null,,,,,,,,,<p style='font-size: 30px;'><strong>Okay</strong></p>,null,neutral_feedback,0,test,28,,,,,,,,,,,,,,,,,,,,,,,
,,,,,,,,,,,html-button-response,63,2.0.0,908166,66ca332e94754270be72c08f,4,14,30242,,,,,,,,,"<img src= ""rock_img/I_Diorite_14.jpg"" style=""width:8cm; height:5.71cm;""><p>What type of rock is this?</p>",3,class_response,0,test,29,Gabbro,Diorite,14,FALSE,4,3,,,,,,,,,,,,,,,,,
,,,,,,,,,,,html-keyboard-response,64,2.0.0,908674,66ca332e94754270be72c08f,4,14,null,,,,,,,,,<p style='font-size: 30px;'><strong>Okay</strong></p>,null,neutral_feedback,0,test,29,,,,,,,,,,,,,,,,,,,,,,,
,,,,,,,,,,,html-button-response,65,2.0.0,936887,66ca332e94754270be72c08f,4,14,28209,,,,,,,,,"<img src= ""rock_img/I_Peridotite_15.jpg"" style=""width:8cm; height:6cm;""><p>What type of rock is this?</p>",6,class_response,0,test,30,Peridotite,Peridotite,15,TRUE,7,7,,,,,,,,,,,,,,,,,
,,,,,,,,,,,html-keyboard-response,66,2.0.0,937396,66ca332e94754270be72c08f,4,14,null,,,,,,,,,<p style='font-size: 30px;'><strong>Okay</strong></p>,null,neutral_feedback,0,test,30,,,,,,,,,,,,,,,,,,,,,,,
,,,,,,,,,,,html-button-response,67,2.0.0,939879,66ca332e94754270be72c08f,4,14,2478,,,,,,,,,"<img src= ""rock_img/I_Obsidian_02.jpg"" style=""width:8cm; height:7.51cm;""><p>What type of rock is this?</p>",4,class_response,0,test,31,Obsidian,Obsidian,2,TRUE,5,5,,,,,,,,,,,,,,,,,
,,,,,,,,,,,html-keyboard-response,68,2.0.0,940392,66ca332e94754270be72c08f,4,14,null,,,,,,,,,<p style='font-size: 30px;'><strong>Okay</strong></p>,null,neutral_feedback,0,test,31,,,,,,,,,,,,,,,,,,,,,,,
,,,,,,,,,,,html-button-response,69,2.0.0,942316,66ca332e94754270be72c08f,4,14,1919,,,,,,,,,"<img src= ""rock_img/I_Andesite_11.jpg"" style=""width:8cm; height:4.92cm;""><p>What type of rock is this?</p>",6,class_response,0,test,32,Peridotite,Andesite,11,FALSE,7,1,,,,,,,,,,,,,,,,,
,,,,,,,,,,,html-keyboard-response,70,2.0.0,942825,66ca332e94754270be72c08f,4,14,null,,,,,,,,,<p style='font-size: 30px;'><strong>Okay</strong></p>,null,neutral_feedback,0,test,32,,,,,,,,,,,,,,,,,,,,,,,
,,,,,,,,,,,html-button-response,71,2.0.0,945168,66ca332e94754270be72c08f,4,14,2336,,,,,,,,,"<img src= ""rock_img/I_Pumice_15.jpg"" style=""width:8cm; height:7.86cm;""><p>What type of rock is this?</p>",7,class_response,0,test,33,Pumice,Pumice,15,TRUE,8,8,,,,,,,,,,,,,,,,,
,,,,,,,,,,,html-keyboard-response,72,2.0.0,945686,66ca332e94754270be72c08f,4,14,null,,,,,,,,,<p style='font-size: 30px;'><strong>Okay</strong></p>,null,neutral_feedback,0,test,33,,,,,,,,,,,,,,,,,,,,,,,
,,,,,,,,,,,html-button-response,73,2.0.0,948195,66ca332e94754270be72c08f,4,14,2504,,,,,,,,,"<img src= ""rock_img/I_Basalt_06.jpg"" style=""width:8cm; height:7.06cm;""><p>What type of rock is this?</p>",4,class_response,0,test,34,Obsidian,Basalt,6,FALSE,5,2,,,,,,,,,,,,,,,,,
,,,,,,,,,,,html-keyboard-response,74,2.0.0,948703,66ca332e94754270be72c08f,4,14,null,,,,,,,,,<p style='font-size: 30px;'><strong>Okay</strong></p>,null,neutral_feedback,0,test,34,,,,,,,,,,,,,,,,,,,,,,,
,,,,,,,,,,,html-button-response,75,2.0.0,951255,66ca332e94754270be72c08f,4,14,2548,,,,,,,,,"<img src= ""rock_img/I_Gabbro_12.jpg"" style=""width:8cm; height:7.800000000000001cm;""><p>What type of rock is this?</p>",1,class_response,0,test,35,Basalt,Gabbro,12,FALSE,2,4,,,,,,,,,,,,,,,,,
,,,,,,,,,,,html-keyboard-response,76,2.0.0,951765,66ca332e94754270be72c08f,4,14,null,,,,,,,,,<p style='font-size: 30px;'><strong>Okay</strong></p>,null,neutral_feedback,0,test,35,,,,,,,,,,,,,,,,,,,,,,,
,,,,,,,,,,,html-button-response,77,2.0.0,953434,66ca332e94754270be72c08f,4,14,1664,,,,,,,,,"<img src= ""rock_img/I_Peridotite_16.jpg"" style=""width:8cm; height:6.989999999999999cm;""><p>What type of rock is this?</p>",5,class_response,0,test,36,Pegmatite,Peridotite,16,FALSE,6,7,,,,,,,,,,,,,,,,,
,,,,,,,,,,,html-keyboard-response,78,2.0.0,953947,66ca332e94754270be72c08f,4,14,null,,,,,,,,,<p style='font-size: 30px;'><strong>Okay</strong></p>,null,neutral_feedback,0,test,36,,,,,,,,,,,,,,,,,,,,,,,
,,,,,,,,,,,html-button-response,79,2.0.0,957460,66ca332e94754270be72c08f,4,14,3508,,,,,,,,,"<img src= ""rock_img/I_Diorite_16.jpg"" style=""width:8cm; height:6.74cm;""><p>What type of rock is this?</p>",2,class_response,0,test,37,Diorite,Diorite,16,TRUE,3,3,,,,,,,,,,,,,,,,,
,,,,,,,,,,,html-keyboard-response,80,2.0.0,957975,66ca332e94754270be72c08f,4,14,null,,,,,,,,,<p style='font-size: 30px;'><strong>Okay</strong></p>,null,neutral_feedback,0,test,37,,,,,,,,,,,,,,,,,,,,,,,
,,,,,,,,,,,html-button-response,81,2.0.0,959692,66ca332e94754270be72c08f,4,14,1713,,,,,,,,,"<img src= ""rock_img/I_Pumice_09.jpg"" style=""width:8cm; height:6.44cm;""><p>What type of rock is this?</p>",7,class_response,0,test,38,Pumice,Pumice,9,TRUE,8,8,,,,,,,,,,,,,,,,,
,,,,,,,,,,,html-keyboard-response,82,2.0.0,960208,66ca332e94754270be72c08f,4,14,null,,,,,,,,,<p style='font-size: 30px;'><strong>Okay</strong></p>,null,neutral_feedback,0,test,38,,,,,,,,,,,,,,,,,,,,,,,
,,,,,,,,,,,html-button-response,83,2.0.0,963145,66ca332e94754270be72c08f,4,14,2932,,,,,,,,,"<img src= ""rock_img/I_Andesite_03.jpg"" style=""width:8cm; height:5.73cm;""><p>What type of rock is this?</p>",3,class_response,0,test,39,Gabbro,Andesite,3,FALSE,4,1,,,,,,,,,,,,,,,,,
,,,,,,,,,,,html-keyboard-response,84,2.0.0,963653,66ca332e94754270be72c08f,4,14,null,,,,,,,,,<p style='font-size: 30px;'><strong>Okay</strong></p>,null,neutral_feedback,0,test,39,,,,,,,,,,,,,,,,,,,,,,,
,,,,,,,,,,,html-button-response,85,2.0.0,967150,66ca332e94754270be72c08f,4,14,3492,,,,,,,,,"<img src= ""rock_img/I_Pegmatite_08.jpg"" style=""width:8cm; height:7.68cm;""><p>What type of rock is this?</p>",4,class_response,0,test,40,Obsidian,Pegmatite,8,FALSE,5,6,,,,,,,,,,,,,,,,,
,,,,,,,,,,,html-keyboard-response,86,2.0.0,967665,66ca332e94754270be72c08f,4,14,null,,,,,,,,,<p style='font-size: 30px;'><strong>Okay</strong></p>,null,neutral_feedback,0,test,40,,,,,,,,,,,,,,,,,,,,,,,
,,,,,,,,,,,html-button-response,87,2.0.0,969360,66ca332e94754270be72c08f,4,14,1691,,,,,,,,,"<img src= ""rock_img/I_Andesite_16.jpg"" style=""width:8cm; height:6.010000000000001cm;""><p>What type of rock is this?</p>",6,class_response,0,test,41,Peridotite,Andesite,16,FALSE,7,1,,,,,,,,,,,,,,,,,
,,,,,,,,,,,html-keyboard-response,88,2.0.0,969877,66ca332e94754270be72c08f,4,14,null,,,,,,,,,<p style='font-size: 30px;'><strong>Okay</strong></p>,null,neutral_feedback,0,test,41,,,,,,,,,,,,,,,,,,,,,,,
,,,,,,,,,,,html-button-response,89,2.0.0,971434,66ca332e94754270be72c08f,4,14,1552,,,,,,,,,"<img src= ""rock_img/I_Peridotite_14.jpg"" style=""width:8cm; height:5.3cm;""><p>What type of rock is this?</p>",5,class_response,0,test,42,Pegmatite,Peridotite,14,FALSE,6,7,,,,,,,,,,,,,,,,,
,,,,,,,,,,,html-keyboard-response,90,2.0.0,971946,66ca332e94754270be72c08f,4,14,null,,,,,,,,,<p style='font-size: 30px;'><strong>Okay</strong></p>,null,neutral_feedback,0,test,42,,,,,,,,,,,,,,,,,,,,,,,
,,,,,,,,,,,html-button-response,91,2.0.0,973555,66ca332e94754270be72c08f,4,14,1604,,,,,,,,,"<img src= ""rock_img/I_Obsidian_12.jpg"" style=""width:8cm; height:6.53cm;""><p>What type of rock is this?</p>",4,class_response,0,test,43,Obsidian,Obsidian,12,TRUE,5,5,,,,,,,,,,,,,,,,,
,,,,,,,,,,,html-keyboard-response,92,2.0.0,974062,66ca332e94754270be72c08f,4,14,null,,,,,,,,,<p style='font-size: 30px;'><strong>Okay</strong></p>,null,neutral_feedback,0,test,43,,,,,,,,,,,,,,,,,,,,,,,
,,,,,,,,,,,html-button-response,93,2.0.0,977055,66ca332e94754270be72c08f,4,14,2989,,,,,,,,,"<img src= ""rock_img/I_Diorite_12.jpg"" style=""width:8cm; height:4.88cm;""><p>What type of rock is this?</p>",0,class_response,0,test,44,Andesite,Diorite,12,FALSE,1,3,,,,,,,,,,,,,,,,,
,,,,,,,,,,,html-keyboard-response,94,2.0.0,977571,66ca332e94754270be72c08f,4,14,null,,,,,,,,,<p style='font-size: 30px;'><strong>Okay</strong></p>,null,neutral_feedback,0,test,44,,,,,,,,,,,,,,,,,,,,,,,
,,,,,,,,,,,html-button-response,95,2.0.0,983092,66ca332e94754270be72c08f,4,14,5516,,,,,,,,,"<img src= ""rock_img/I_Basalt_10.jpg"" style=""width:8cm; height:5.85cm;""><p>What type of rock is this?</p>",6,class_response,0,test,45,Peridotite,Basalt,10,FALSE,7,2,,,,,,,,,,,,,,,,,
,,,,,,,,,,,html-keyboard-response,96,2.0.0,983600,66ca332e94754270be72c08f,4,14,null,,,,,,,,,<p style='font-size: 30px;'><strong>Okay</strong></p>,null,neutral_feedback,0,test,45,,,,,,,,,,,,,,,,,,,,,,,
,,,,,,,,,,,html-button-response,97,2.0.0,985400,66ca332e94754270be72c08f,4,14,1796,,,,,,,,,"<img src= ""rock_img/I_Pumice_16.jpg"" style=""width:8cm; height:6.79cm;""><p>What type of rock is this?</p>",7,class_response,0,test,46,Pumice,Pumice,16,TRUE,8,8,,,,,,,,,,,,,,,,,
,,,,,,,,,,,html-keyboard-response,98,2.0.0,985914,66ca332e94754270be72c08f,4,14,null,,,,,,,,,<p style='font-size: 30px;'><strong>Okay</strong></p>,null,neutral_feedback,0,test,46,,,,,,,,,,,,,,,,,,,,,,,
,,,,,,,,,,,html-button-response,99,2.0.0,988449,66ca332e94754270be72c08f,4,14,2531,,,,,,,,,"<img src= ""rock_img/I_Pegmatite_16.jpg"" style=""width:8cm; height:5.8cm;""><p>What type of rock is this?</p>",3,class_response,0,test,47,Gabbro,Pegmatite,16,FALSE,4,6,,,,,,,,,,,,,,,,,
,,,,,,,,,,,html-keyboard-response,100,2.0.0,988960,66ca332e94754270be72c08f,4,14,null,,,,,,,,,<p style='font-size: 30px;'><strong>Okay</strong></p>,null,neutral_feedback,0,test,47,,,,,,,,,,,,,,,,,,,,,,,
,,,,,,,,,,,html-button-response,101,2.0.0,991966,66ca332e94754270be72c08f,4,14,3001,,,,,,,,,"<img src= ""rock_img/I_Andesite_05.jpg"" style=""width:8cm; height:4.12cm;""><p>What type of rock is this?</p>",5,class_response,0,test,48,Pegmatite,Andesite,5,FALSE,6,1,,,,,,,,,,,,,,,,,
,,,,,,,,,,,html-keyboard-response,102,2.0.0,992474,66ca332e94754270be72c08f,4,14,null,,,,,,,,,<p style='font-size: 30px;'><strong>Okay</strong></p>,null,neutral_feedback,0,test,48,,,,,,,,,,,,,,,,,,,,,,,
,,,,,,,,,,,instructions,103,2.0.0,1071388,66ca332e94754270be72c08f,4,14,78859,,,,,,,,"[{""page_index"":0,""viewing_time"":23854},{""page_index"":1,""viewing_time"":55004}]",,,,,,,,,,,,,,,,,,,,,,,,,,,,,
,,,,,,,,,,,html-button-response,104,2.0.0,1076973,66ca332e94754270be72c08f,4,14,5581,,,,,,,,,,0,start_train,,,,,,,,,,,,,,,,,,,,,,,,,,
,,,,,,,,,,,html-button-response,106,2.0.0,1169170,66ca332e94754270be72c08f,4,14,92190,,,,,,,,,"<img src= ""rock_img/I_Pegmatite_06.jpg"" style=""width:8cm; height:5.17cm;""><p>What type of rock is this?</p>",5,class_response,1,train,1,Pegmatite,Pegmatite,6,TRUE,6,6,,,,,,,,,,,,,,,,,
,,,,,,,,,,,html-button-response,107,2.0.0,1173627,66ca332e94754270be72c08f,4,14,4451,,,,,,,,,"<img src= rock_img/I_Pegmatite_06.jpg style=""width:8cm; height:5.17cm;""><p style='font-size: 30px; color: green;'><strong>Correct!</strong></p><p style='font-size: 30px;'><strong>This rock is pegmatite</strong></p>",0,corr_feedback,1,train,1,,,,,,,,,,,,,,,,,,,,,,,
,,,,,,,,,,,html-button-response,108,2.0.0,1199222,66ca332e94754270be72c08f,4,14,25590,,,,,,,,,"<img src= ""rock_img/I_Basalt_12.jpg"" style=""width:8cm; height:6.010000000000001cm;""><p>What type of rock is this?</p>",1,class_response,1,train,2,Basalt,Basalt,12,TRUE,2,2,,,,,,,,,,,,,,,,,
,,,,,,,,,,,html-button-response,109,2.0.0,1201029,66ca332e94754270be72c08f,4,14,1803,,,,,,,,,"<img src= rock_img/I_Basalt_12.jpg style=""width:8cm; height:6.010000000000001cm;""><p style='font-size: 30px; color: green;'><strong>Correct!</strong></p><p style='font-size: 30px;'><strong>This rock is basalt</strong></p>",0,corr_feedback,1,train,2,,,,,,,,,,,,,,,,,,,,,,,
,,,,,,,,,,,html-button-response,110,2.0.0,1229937,66ca332e94754270be72c08f,4,14,28902,,,,,,,,,"<img src= ""rock_img/I_Diorite_13.jpg"" style=""width:8cm; height:6.29cm;""><p>What type of rock is this?</p>",2,class_response,1,train,3,Diorite,Diorite,13,TRUE,3,3,,,,,,,,,,,,,,,,,
,,,,,,,,,,,html-button-response,111,2.0.0,1232372,66ca332e94754270be72c08f,4,14,2430,,,,,,,,,"<img src= rock_img/I_Diorite_13.jpg style=""width:8cm; height:6.29cm;""><p style='font-size: 30px; color: green;'><strong>Correct!</strong></p><p style='font-size: 30px;'><strong>This rock is diorite</strong></p>",0,corr_feedback,1,train,3,,,,,,,,,,,,,,,,,,,,,,,
,,,,,,,,,,,html-button-response,112,2.0.0,1236133,66ca332e94754270be72c08f,4,14,3756,,,,,,,,,"<img src= ""rock_img/I_Obsidian_16.jpg"" style=""width:8cm; height:9.3cm;""><p>What type of rock is this?</p>",4,class_response,1,train,4,Obsidian,Obsidian,16,TRUE,5,5,,,,,,,,,,,,,,,,,
,,,,,,,,,,,html-button-response,113,2.0.0,1237876,66ca332e94754270be72c08f,4,14,1739,,,,,,,,,"<img src= rock_img/I_Obsidian_16.jpg style=""width:8cm; height:9.3cm;""><p style='font-size: 30px; color: green;'><strong>Correct!</strong></p><p style='font-size: 30px;'><strong>This rock is obsidian</strong></p>",0,corr_feedback,1,train,4,,,,,,,,,,,,,,,,,,,,,,,
,,,,,,,,,,,html-button-response,114,2.0.0,1263430,66ca332e94754270be72c08f,4,14,25547,,,,,,,,,"<img src= ""rock_img/I_Pegmatite_15.jpg"" style=""width:8cm; height:6cm;""><p>What type of rock is this?</p>",1,class_response,1,train,5,Basalt,Pegmatite,15,FALSE,2,6,,,,,,,,,,,,,,,,,
,,,,,,,,,,,html-button-response,115,2.0.0,1278542,66ca332e94754270be72c08f,4,14,15107,,,,,,,,,"<img src= rock_img/I_Pegmatite_15.jpg style=""width:8cm; height:6cm;""><p style='font-size: 30px; color: red;'><strong>Incorrect!</strong></p><p style='font-size: 30px;'><strong>This rock is pegmatite</strong></p>",0,corr_feedback,1,train,5,,,,,,,,,,,,,,,,,,,,,,,
,,,,,,,,,,,html-button-response,116,2.0.0,1321715,66ca332e94754270be72c08f,4,14,43168,,,,,,,,,"<img src= ""rock_img/I_Obsidian_06.jpg"" style=""width:8cm; height:6.8cm;""><p>What type of rock is this?</p>",0,class_response,1,train,6,Andesite,Obsidian,6,FALSE,1,5,,,,,,,,,,,,,,,,,
,,,,,,,,,,,html-button-response,117,2.0.0,1350604,66ca332e94754270be72c08f,4,14,28884,,,,,,,,,"<img src= rock_img/I_Obsidian_06.jpg style=""width:8cm; height:6.8cm;""><p style='font-size: 30px; color: red;'><strong>Incorrect!</strong></p><p style='font-size: 30px;'><strong>This rock is obsidian</strong></p>",0,corr_feedback,1,train,6,,,,,,,,,,,,,,,,,,,,,,,
,,,,,,,,,,,html-button-response,118,2.0.0,1375718,66ca332e94754270be72c08f,4,14,25109,,,,,,,,,"<img src= ""rock_img/I_Peridotite_06.jpg"" style=""width:8cm; height:7.53cm;""><p>What type of rock is this?</p>",2,class_response,1,train,7,Diorite,Peridotite,6,FALSE,3,7,,,,,,,,,,,,,,,,,
,,,,,,,,,,,html-button-response,119,2.0.0,1405799,66ca332e94754270be72c08f,4,14,30077,,,,,,,,,"<img src= rock_img/I_Peridotite_06.jpg style=""width:8cm; height:7.53cm;""><p style='font-size: 30px; color: red;'><strong>Incorrect!</strong></p><p style='font-size: 30px;'><strong>This rock is peridotite</strong></p>",0,corr_feedback,1,train,7,,,,,,,,,,,,,,,,,,,,,,,
,,,,,,,,,,,html-button-response,120,2.0.0,1438551,66ca332e94754270be72c08f,4,14,32759,,,,,,,,,"<img src= ""rock_img/I_Gabbro_09.jpg"" style=""width:8cm; height:7.279999999999999cm;""><p>What type of rock is this?</p>",6,class_response,1,train,8,Peridotite,Gabbro,9,FALSE,7,4,,,,,,,,,,,,,,,,,
,,,,,,,,,,,html-button-response,121,2.0.0,1454762,66ca332e94754270be72c08f,4,14,16206,,,,,,,,,"<img src= rock_img/I_Gabbro_09.jpg style=""width:8cm; height:7.279999999999999cm;""><p style='font-size: 30px; color: red;'><strong>Incorrect!</strong></p><p style='font-size: 30px;'><strong>This rock is gabbro</strong></p>",0,corr_feedback,1,train,8,,,,,,,,,,,,,,,,,,,,,,,
,,,,,,,,,,,html-button-response,122,2.0.0,1487597,66ca332e94754270be72c08f,4,14,32818,,,,,,,,,"<img src= ""rock_img/I_Andesite_09.jpg"" style=""width:8cm; height:6cm;""><p>What type of rock is this?</p>",1,class_response,1,train,9,Basalt,Andesite,9,FALSE,2,1,,,,,,,,,,,,,,,,,
,,,,,,,,,,,html-button-response,123,2.0.0,1505228,66ca332e94754270be72c08f,4,14,17627,,,,,,,,,"<img src= rock_img/I_Andesite_09.jpg style=""width:8cm; height:6cm;""><p style='font-size: 30px; color: red;'><strong>Incorrect!</strong></p><p style='font-size: 30px;'><strong>This rock is andesite</strong></p>",0,corr_feedback,1,train,9,,,,,,,,,,,,,,,,,,,,,,,
,,,,,,,,,,,html-button-response,124,2.0.0,1508181,66ca332e94754270be72c08f,4,14,2950,,,,,,,,,"<img src= ""rock_img/I_Pumice_14.jpg"" style=""width:8cm; height:6.39cm;""><p>What type of rock is this?</p>",7,class_response,1,train,10,Pumice,Pumice,14,TRUE,8,8,,,,,,,,,,,,,,,,,
,,,,,,,,,,,html-button-response,125,2.0.0,1509739,66ca332e94754270be72c08f,4,14,1554,,,,,,,,,"<img src= rock_img/I_Pumice_14.jpg style=""width:8cm; height:6.39cm;""><p style='font-size: 30px; color: green;'><strong>Correct!</strong></p><p style='font-size: 30px;'><strong>This rock is pumice</strong></p>",0,corr_feedback,1,train,10,,,,,,,,,,,,,,,,,,,,,,,
,,,,,,,,,,,html-button-response,126,2.0.0,1533706,66ca332e94754270be72c08f,4,14,23962,,,,,,,,,"<img src= ""rock_img/I_Pumice_03.jpg"" style=""width:8cm; height:6.64cm;""><p>What type of rock is this?</p>",7,class_response,1,train,11,Pumice,Pumice,3,TRUE,8,8,,,,,,,,,,,,,,,,,
,,,,,,,,,,,html-button-response,127,2.0.0,1535610,66ca332e94754270be72c08f,4,14,1899,,,,,,,,,"<img src= rock_img/I_Pumice_03.jpg style=""width:8cm; height:6.64cm;""><p style='font-size: 30px; color: green;'><strong>Correct!</strong></p><p style='font-size: 30px;'><strong>This rock is pumice</strong></p>",0,corr_feedback,1,train,11,,,,,,,,,,,,,,,,,,,,,,,
,,,,,,,,,,,html-button-response,128,2.0.0,1559626,66ca332e94754270be72c08f,4,14,24012,,,,,,,,,"<img src= ""rock_img/I_Andesite_10.jpg"" style=""width:8cm; height:4.16cm;""><p>What type of rock is this?</p>",0,class_response,1,train,12,Andesite,Andesite,10,TRUE,1,1,,,,,,,,,,,,,,,,,
,,,,,,,,,,,html-button-response,129,2.0.0,1577859,66ca332e94754270be72c08f,4,14,18229,,,,,,,,,"<img src= rock_img/I_Andesite_10.jpg style=""width:8cm; height:4.16cm;""><p style='font-size: 30px; color: green;'><strong>Correct!</strong></p><p style='font-size: 30px;'><strong>This rock is andesite</strong></p>",0,corr_feedback,1,train,12,,,,,,,,,,,,,,,,,,,,,,,
,,,,,,,,,,,instructions,130,2.0.0,1711272,66ca332e94754270be72c08f,4,14,133410,,,,,,,,"[{""page_index"":0,""viewing_time"":22910},{""page_index"":1,""viewing_time"":55484},{""page_index"":2,""viewing_time"":26833},{""page_index"":3,""viewing_time"":28182}]",,,,,,,,,,,,,,,,,,,,,,,,,,,,,
,,,,,,,,,,,html-button-response,131,2.0.0,1714186,66ca332e94754270be72c08f,4,14,2910,,,,,,,,,,0,start_train,,,,,,,,,,,,,,,,,,,,,,,,,,
,,,,,,,,,,,html-button-response,132,2.0.0,1732873,66ca332e94754270be72c08f,4,14,,,,,,,,,,,,cat_selection,1,train,1,,,,,,,13866.1,4818.3,1,2,,,,,,,,,,,,,
,,,,,,,,,,,paired-cat-display,133,1.0.0,1907729,66ca332e94754270be72c08f,4,14,,,,,,,,,,,,paired_cat_display,1,train,1,,,,,,,,,,,,,"Lighter gray color
possible larger cyrstals
slightly rougher texture","dark grey to black color
fine-grained, uniform texture
possibly has smaller holes
",68111.6,106711.4,,,,,,,
,,,,,,,,,,,html-button-response,134,2.0.0,1952100,66ca332e94754270be72c08f,4,14,,,,,,,,,,,,cat_selection,1,train,2,,,,,,,9892.3,34471.2,4,3,Andesite,Basalt,,,,,,,,,,,
,,,,,,,,,,,paired-cat-display,135,1.0.0,2123588,66ca332e94754270be72c08f,4,14,,,,,,,,,,,,paired_cat_display,1,train,2,,,,,,,,,,,,,,,27840.3,143602.3,"darker overall color
less variation in color
may have a lightly greasy appearance ","has a mix of light and dark colors
varies in color
have rougher texture",,,,,
,,,,,,,,,,,html-button-response,136,2.0.0,2136402,66ca332e94754270be72c08f,4,14,,,,,,,,,,,,cat_selection,1,train,3,,,,,,,10334.2,2468.7,7,6,Gabbro,Diorite,,,,,,,,,,,
,,,,,,,,,,,paired-cat-display,137,1.0.0,2381336,66ca332e94754270be72c08f,4,14,,,,,,,,,,,,paired_cat_display,1,train,3,,,,,,,,,,,,,,,23829.5,221073.2,,,"dark color with a greenish tint
coarse-grained texture
dense appearance","very large crystals
variety of minerals and colors
often associated with granate",,,
,,,,,,,,,,,instructions,138,2.0.0,2474025,66ca332e94754270be72c08f,4,14,92680,,,,,,,,"[{""page_index"":0,""viewing_time"":10090},{""page_index"":1,""viewing_time"":82589}]",,,,,,,,,,,,,,,,,,,,,,,,,,,,,
,,,,,,,,,,,html-button-response,139,2.0.0,2476879,66ca332e94754270be72c08f,4,14,2847,,,,,,,,,,0,start_test,,,,,,,,,,,,,,,,,,,,,,,,,,
,,,,,,,,,,,html-button-response,140,2.0.0,2500019,66ca332e94754270be72c08f,4,14,23130,,,,,,,,,"<img src= ""rock_img/I_Andesite_02.jpg"" style=""width:8cm; height:8.5cm;""><p>What type of rock is this?</p>",2,class_response,1,test,1,Diorite,Andesite,2,FALSE,3,1,,,,,,,,,,,,,,,,,
,,,,,,,,,,,html-keyboard-response,141,2.0.0,2500533,66ca332e94754270be72c08f,4,14,null,,,,,,,,,<p style='font-size: 30px;'><strong>Okay</strong></p>,null,neutral_feedback,1,test,1,,,,,,,,,,,,,,,,,,,,,,,
,,,,,,,,,,,html-button-response,142,2.0.0,2526897,66ca332e94754270be72c08f,4,14,26359,,,,,,,,,"<img src= ""rock_img/I_Basalt_16.jpg"" style=""width:8cm; height:7.659999999999999cm;""><p>What type of rock is this?</p>",2,class_response,1,test,2,Diorite,Basalt,16,FALSE,3,2,,,,,,,,,,,,,,,,,
,,,,,,,,,,,html-keyboard-response,143,2.0.0,2527407,66ca332e94754270be72c08f,4,14,null,,,,,,,,,<p style='font-size: 30px;'><strong>Okay</strong></p>,null,neutral_feedback,1,test,2,,,,,,,,,,,,,,,,,,,,,,,
,,,,,,,,,,,html-button-response,144,2.0.0,2579898,66ca332e94754270be72c08f,4,14,52487,,,,,,,,,"<img src= ""rock_img/I_Diorite_16.jpg"" style=""width:8cm; height:6.74cm;""><p>What type of rock is this?</p>",2,class_response,1,test,3,Diorite,Diorite,16,TRUE,3,3,,,,,,,,,,,,,,,,,
,,,,,,,,,,,html-keyboard-response,145,2.0.0,2580403,66ca332e94754270be72c08f,4,14,null,,,,,,,,,<p style='font-size: 30px;'><strong>Okay</strong></p>,null,neutral_feedback,1,test,3,,,,,,,,,,,,,,,,,,,,,,,
,,,,,,,,,,,html-button-response,146,2.0.0,2605035,66ca332e94754270be72c08f,4,14,24629,,,,,,,,,"<img src= ""rock_img/I_Gabbro_12.jpg"" style=""width:8cm; height:7.800000000000001cm;""><p>What type of rock is this?</p>",3,class_response,1,test,4,Gabbro,Gabbro,12,TRUE,4,4,,,,,,,,,,,,,,,,,
,,,,,,,,,,,html-keyboard-response,147,2.0.0,2605544,66ca332e94754270be72c08f,4,14,null,,,,,,,,,<p style='font-size: 30px;'><strong>Okay</strong></p>,null,neutral_feedback,1,test,4,,,,,,,,,,,,,,,,,,,,,,,
,,,,,,,,,,,html-button-response,148,2.0.0,2630182,66ca332e94754270be72c08f,4,14,24633,,,,,,,,,"<img src= ""rock_img/I_Basalt_02.jpg"" style=""width:8cm; height:6.45cm;""><p>What type of rock is this?</p>",1,class_response,1,test,5,Basalt,Basalt,2,TRUE,2,2,,,,,,,,,,,,,,,,,
,,,,,,,,,,,html-keyboard-response,149,2.0.0,2630689,66ca332e94754270be72c08f,4,14,null,,,,,,,,,<p style='font-size: 30px;'><strong>Okay</strong></p>,null,neutral_feedback,1,test,5,,,,,,,,,,,,,,,,,,,,,,,
,,,,,,,,,,,html-button-response,150,2.0.0,2664781,66ca332e94754270be72c08f,4,14,34088,,,,,,,,,"<img src= ""rock_img/I_Andesite_11.jpg"" style=""width:8cm; height:4.92cm;""><p>What type of rock is this?</p>",0,class_response,1,test,6,Andesite,Andesite,11,TRUE,1,1,,,,,,,,,,,,,,,,,
,,,,,,,,,,,html-keyboard-response,151,2.0.0,2665288,66ca332e94754270be72c08f,4,14,null,,,,,,,,,<p style='font-size: 30px;'><strong>Okay</strong></p>,null,neutral_feedback,1,test,6,,,,,,,,,,,,,,,,,,,,,,,
,,,,,,,,,,,html-button-response,152,2.0.0,2670418,66ca332e94754270be72c08f,4,14,5124,,,,,,,,,"<img src= ""rock_img/I_Obsidian_10.jpg"" style=""width:8cm; height:6.260000000000001cm;""><p>What type of rock is this?</p>",4,class_response,1,test,7,Obsidian,Obsidian,10,TRUE,5,5,,,,,,,,,,,,,,,,,
,,,,,,,,,,,html-keyboard-response,153,2.0.0,2670931,66ca332e94754270be72c08f,4,14,null,,,,,,,,,<p style='font-size: 30px;'><strong>Okay</strong></p>,null,neutral_feedback,1,test,7,,,,,,,,,,,,,,,,,,,,,,,
,,,,,,,,,,,html-button-response,154,2.0.0,2672940,66ca332e94754270be72c08f,4,14,2005,,,,,,,,,"<img src= ""rock_img/I_Pumice_16.jpg"" style=""width:8cm; height:6.79cm;""><p>What type of rock is this?</p>",7,class_response,1,test,8,Pumice,Pumice,16,TRUE,8,8,,,,,,,,,,,,,,,,,
,,,,,,,,,,,html-keyboard-response,155,2.0.0,2673447,66ca332e94754270be72c08f,4,14,null,,,,,,,,,<p style='font-size: 30px;'><strong>Okay</strong></p>,null,neutral_feedback,1,test,8,,,,,,,,,,,,,,,,,,,,,,,
,,,,,,,,,,,html-button-response,156,2.0.0,2712457,66ca332e94754270be72c08f,4,14,39008,,,,,,,,,"<img src= ""rock_img/I_Basalt_10.jpg"" style=""width:8cm; height:5.85cm;""><p>What type of rock is this?</p>",0,class_response,1,test,9,Andesite,Basalt,10,FALSE,1,2,,,,,,,,,,,,,,,,,
,,,,,,,,,,,html-keyboard-response,157,2.0.0,2712971,66ca332e94754270be72c08f,4,14,null,,,,,,,,,<p style='font-size: 30px;'><strong>Okay</strong></p>,null,neutral_feedback,1,test,9,,,,,,,,,,,,,,,,,,,,,,,
,,,,,,,,,,,html-button-response,158,2.0.0,2741456,66ca332e94754270be72c08f,4,14,28479,,,,,,,,,"<img src= ""rock_img/I_Peridotite_14.jpg"" style=""width:8cm; height:5.3cm;""><p>What type of rock is this?</p>",1,class_response,1,test,10,Basalt,Peridotite,14,FALSE,2,7,,,,,,,,,,,,,,,,,
,,,,,,,,,,,html-keyboard-response,159,2.0.0,2741960,66ca332e94754270be72c08f,4,14,null,,,,,,,,,<p style='font-size: 30px;'><strong>Okay</strong></p>,null,neutral_feedback,1,test,10,,,,,,,,,,,,,,,,,,,,,,,
,,,,,,,,,,,html-button-response,160,2.0.0,2769193,66ca332e94754270be72c08f,4,14,27229,,,,,,,,,"<img src= ""rock_img/I_Peridotite_05.jpg"" style=""width:8cm; height:7.1499999999999995cm;""><p>What type of rock is this?</p>",1,class_response,1,test,11,Basalt,Peridotite,5,FALSE,2,7,,,,,,,,,,,,,,,,,
,,,,,,,,,,,html-keyboard-response,161,2.0.0,2769703,66ca332e94754270be72c08f,4,14,null,,,,,,,,,<p style='font-size: 30px;'><strong>Okay</strong></p>,null,neutral_feedback,1,test,11,,,,,,,,,,,,,,,,,,,,,,,
,,,,,,,,,,,html-button-response,162,2.0.0,2829502,66ca332e94754270be72c08f,4,14,59799,,,,,,,,,"<img src= ""rock_img/I_Gabbro_14.jpg"" style=""width:8cm; height:8.48cm;""><p>What type of rock is this?</p>",3,class_response,1,test,12,Gabbro,Gabbro,14,TRUE,4,4,,,,,,,,,,,,,,,,,
,,,,,,,,,,,html-keyboard-response,163,2.0.0,2830005,66ca332e94754270be72c08f,4,14,null,,,,,,,,,<p style='font-size: 30px;'><strong>Okay</strong></p>,null,neutral_feedback,1,test,12,,,,,,,,,,,,,,,,,,,,,,,
,,,,,,,,,,,html-button-response,164,2.0.0,2856222,66ca332e94754270be72c08f,4,14,26210,,,,,,,,,"<img src= ""rock_img/I_Gabbro_16.jpg"" style=""width:8cm; height:6.44cm;""><p>What type of rock is this?</p>",1,class_response,1,test,13,Basalt,Gabbro,16,FALSE,2,4,,,,,,,,,,,,,,,,,
,,,,,,,,,,,html-keyboard-response,165,2.0.0,2856733,66ca332e94754270be72c08f,4,14,null,,,,,,,,,<p style='font-size: 30px;'><strong>Okay</strong></p>,null,neutral_feedback,1,test,13,,,,,,,,,,,,,,,,,,,,,,,
,,,,,,,,,,,html-button-response,166,2.0.0,2906601,66ca332e94754270be72c08f,4,14,49864,,,,,,,,,"<img src= ""rock_img/I_Pegmatite_16.jpg"" style=""width:8cm; height:5.8cm;""><p>What type of rock is this?</p>",3,class_response,1,test,14,Gabbro,Pegmatite,16,FALSE,4,6,,,,,,,,,,,,,,,,,
,,,,,,,,,,,html-keyboard-response,167,2.0.0,2907116,66ca332e94754270be72c08f,4,14,null,,,,,,,,,<p style='font-size: 30px;'><strong>Okay</strong></p>,null,neutral_feedback,1,test,14,,,,,,,,,,,,,,,,,,,,,,,
,,,,,,,,,,,html-button-response,168,2.0.0,2913022,66ca332e94754270be72c08f,4,14,5905,,,,,,,,,"<img src= ""rock_img/I_Obsidian_05.jpg"" style=""width:8cm; height:6.33cm;""><p>What type of rock is this?</p>",4,class_response,1,test,15,Obsidian,Obsidian,5,TRUE,5,5,,,,,,,,,,,,,,,,,
,,,,,,,,,,,html-keyboard-response,169,2.0.0,2913537,66ca332e94754270be72c08f,4,14,null,,,,,,,,,<p style='font-size: 30px;'><strong>Okay</strong></p>,null,neutral_feedback,1,test,15,,,,,,,,,,,,,,,,,,,,,,,
,,,,,,,,,,,html-button-response,170,2.0.0,2916772,66ca332e94754270be72c08f,4,14,3233,,,,,,,,,"<img src= ""rock_img/I_Obsidian_09.jpg"" style=""width:8cm; height:5cm;""><p>What type of rock is this?</p>",4,class_response,1,test,16,Obsidian,Obsidian,9,TRUE,5,5,,,,,,,,,,,,,,,,,
,,,,,,,,,,,html-keyboard-response,171,2.0.0,2917288,66ca332e94754270be72c08f,4,14,null,,,,,,,,,<p style='font-size: 30px;'><strong>Okay</strong></p>,null,neutral_feedback,1,test,16,,,,,,,,,,,,,,,,,,,,,,,
,,,,,,,,,,,html-button-response,172,2.0.0,2921263,66ca332e94754270be72c08f,4,14,3969,,,,,,,,,"<img src= ""rock_img/I_Obsidian_02.jpg"" style=""width:8cm; height:7.51cm;""><p>What type of rock is this?</p>",4,class_response,1,test,17,Obsidian,Obsidian,2,TRUE,5,5,,,,,,,,,,,,,,,,,
,,,,,,,,,,,html-keyboard-response,173,2.0.0,2921768,66ca332e94754270be72c08f,4,14,null,,,,,,,,,<p style='font-size: 30px;'><strong>Okay</strong></p>,null,neutral_feedback,1,test,17,,,,,,,,,,,,,,,,,,,,,,,
,,,,,,,,,,,html-button-response,174,2.0.0,2944822,66ca332e94754270be72c08f,4,14,23049,,,,,,,,,"<img src= ""rock_img/I_Diorite_12.jpg"" style=""width:8cm; height:4.88cm;""><p>What type of rock is this?</p>",2,class_response,1,test,18,Diorite,Diorite,12,TRUE,3,3,,,,,,,,,,,,,,,,,
,,,,,,,,,,,html-keyboard-response,175,2.0.0,2945329,66ca332e94754270be72c08f,4,14,null,,,,,,,,,<p style='font-size: 30px;'><strong>Okay</strong></p>,null,neutral_feedback,1,test,18,,,,,,,,,,,,,,,,,,,,,,,
,,,,,,,,,,,html-button-response,176,2.0.0,2970894,66ca332e94754270be72c08f,4,14,25561,,,,,,,,,"<img src= ""rock_img/I_Peridotite_16.jpg"" style=""width:8cm; height:6.989999999999999cm;""><p>What type of rock is this?</p>",6,class_response,1,test,19,Peridotite,Peridotite,16,TRUE,7,7,,,,,,,,,,,,,,,,,
,,,,,,,,,,,html-keyboard-response,177,2.0.0,2971403,66ca332e94754270be72c08f,4,14,null,,,,,,,,,<p style='font-size: 30px;'><strong>Okay</strong></p>,null,neutral_feedback,1,test,19,,,,,,,,,,,,,,,,,,,,,,,
,,,,,,,,,,,html-button-response,178,2.0.0,2998235,66ca332e94754270be72c08f,4,14,26828,,,,,,,,,"<img src= ""rock_img/I_Peridotite_13.jpg"" style=""width:8cm; height:7.58cm;""><p>What type of rock is this?</p>",2,class_response,1,test,20,Diorite,Peridotite,13,FALSE,3,7,,,,,,,,,,,,,,,,,
,,,,,,,,,,,html-keyboard-response,179,2.0.0,2998743,66ca332e94754270be72c08f,4,14,null,,,,,,,,,<p style='font-size: 30px;'><strong>Okay</strong></p>,null,neutral_feedback,1,test,20,,,,,,,,,,,,,,,,,,,,,,,
,,,,,,,,,,,html-button-response,180,2.0.0,3000816,66ca332e94754270be72c08f,4,14,2069,,,,,,,,,"<img src= ""rock_img/I_Pumice_15.jpg"" style=""width:8cm; height:7.86cm;""><p>What type of rock is this?</p>",7,class_response,1,test,21,Pumice,Pumice,15,TRUE,8,8,,,,,,,,,,,,,,,,,
,,,,,,,,,,,html-keyboard-response,181,2.0.0,3001325,66ca332e94754270be72c08f,4,14,null,,,,,,,,,<p style='font-size: 30px;'><strong>Okay</strong></p>,null,neutral_feedback,1,test,21,,,,,,,,,,,,,,,,,,,,,,,
,,,,,,,,,,,html-button-response,182,2.0.0,3021214,66ca332e94754270be72c08f,4,14,19884,,,,,,,,,"<img src= ""rock_img/I_Pegmatite_13.jpg"" style=""width:8cm; height:4.95cm;""><p>What type of rock is this?</p>",2,class_response,1,test,22,Diorite,Pegmatite,13,FALSE,3,6,,,,,,,,,,,,,,,,,
,,,,,,,,,,,html-keyboard-response,183,2.0.0,3021720,66ca332e94754270be72c08f,4,14,null,,,,,,,,,<p style='font-size: 30px;'><strong>Okay</strong></p>,null,neutral_feedback,1,test,22,,,,,,,,,,,,,,,,,,,,,,,
,,,,,,,,,,,html-button-response,184,2.0.0,3024085,66ca332e94754270be72c08f,4,14,2361,,,,,,,,,"<img src= ""rock_img/I_Pumice_04.jpg"" style=""width:8cm; height:6.819999999999999cm;""><p>What type of rock is this?</p>",7,class_response,1,test,23,Pumice,Pumice,4,TRUE,8,8,,,,,,,,,,,,,,,,,
,,,,,,,,,,,html-keyboard-response,185,2.0.0,3024600,66ca332e94754270be72c08f,4,14,null,,,,,,,,,<p style='font-size: 30px;'><strong>Okay</strong></p>,null,neutral_feedback,1,test,23,,,,,,,,,,,,,,,,,,,,,,,
,,,,,,,,,,,html-button-response,186,2.0.0,3048237,66ca332e94754270be72c08f,4,14,23632,,,,,,,,,"<img src= ""rock_img/I_Diorite_06.jpg"" style=""width:8cm; height:6.03cm;""><p>What type of rock is this?</p>",2,class_response,1,test,24,Diorite,Diorite,6,TRUE,3,3,,,,,,,,,,,,,,,,,
,,,,,,,,,,,html-keyboard-response,187,2.0.0,3048745,66ca332e94754270be72c08f,4,14,null,,,,,,,,,<p style='font-size: 30px;'><strong>Okay</strong></p>,null,neutral_feedback,1,test,24,,,,,,,,,,,,,,,,,,,,,,,
,,,,,,,,,,,html-button-response,188,2.0.0,3071261,66ca332e94754270be72c08f,4,14,22511,,,,,,,,,"<img src= ""rock_img/I_Basalt_09.jpg"" style=""width:8cm; height:6.2cm;""><p>What type of rock is this?</p>",2,class_response,1,test,25,Diorite,Basalt,9,FALSE,3,2,,,,,,,,,,,,,,,,,
,,,,,,,,,,,html-keyboard-response,189,2.0.0,3071772,66ca332e94754270be72c08f,4,14,null,,,,,,,,,<p style='font-size: 30px;'><strong>Okay</strong></p>,null,neutral_feedback,1,test,25,,,,,,,,,,,,,,,,,,,,,,,
,,,,,,,,,,,html-button-response,190,2.0.0,3102885,66ca332e94754270be72c08f,4,14,31111,,,,,,,,,"<img src= ""rock_img/I_Basalt_08.jpg"" style=""width:8cm; height:10.44cm;""><p>What type of rock is this?</p>",2,class_response,1,test,26,Diorite,Basalt,8,FALSE,3,2,,,,,,,,,,,,,,,,,
,,,,,,,,,,,html-keyboard-response,191,2.0.0,3103392,66ca332e94754270be72c08f,4,14,null,,,,,,,,,<p style='font-size: 30px;'><strong>Okay</strong></p>,null,neutral_feedback,1,test,26,,,,,,,,,,,,,,,,,,,,,,,
,,,,,,,,,,,html-button-response,192,2.0.0,3125180,66ca332e94754270be72c08f,4,14,21783,,,,,,,,,"<img src= ""rock_img/I_Andesite_05.jpg"" style=""width:8cm; height:4.12cm;""><p>What type of rock is this?</p>",1,class_response,1,test,27,Basalt,Andesite,5,FALSE,2,1,,,,,,,,,,,,,,,,,
,,,,,,,,,,,html-keyboard-response,193,2.0.0,3125688,66ca332e94754270be72c08f,4,14,null,,,,,,,,,<p style='font-size: 30px;'><strong>Okay</strong></p>,null,neutral_feedback,1,test,27,,,,,,,,,,,,,,,,,,,,,,,
,,,,,,,,,,,html-button-response,194,2.0.0,3127974,66ca332e94754270be72c08f,4,14,2282,,,,,,,,,"<img src= ""rock_img/I_Pumice_05.jpg"" style=""width:8cm; height:7.25cm;""><p>What type of rock is this?</p>",7,class_response,1,test,28,Pumice,Pumice,5,TRUE,8,8,,,,,,,,,,,,,,,,,
,,,,,,,,,,,html-keyboard-response,195,2.0.0,3128484,66ca332e94754270be72c08f,4,14,null,,,,,,,,,<p style='font-size: 30px;'><strong>Okay</strong></p>,null,neutral_feedback,1,test,28,,,,,,,,,,,,,,,,,,,,,,,
,,,,,,,,,,,html-button-response,196,2.0.0,3148988,66ca332e94754270be72c08f,4,14,20500,,,,,,,,,"<img src= ""rock_img/I_Diorite_11.jpg"" style=""width:8cm; height:7.11cm;""><p>What type of rock is this?</p>",2,class_response,1,test,29,Diorite,Diorite,11,TRUE,3,3,,,,,,,,,,,,,,,,,
,,,,,,,,,,,html-keyboard-response,197,2.0.0,3149497,66ca332e94754270be72c08f,4,14,null,,,,,,,,,<p style='font-size: 30px;'><strong>Okay</strong></p>,null,neutral_feedback,1,test,29,,,,,,,,,,,,,,,,,,,,,,,
,,,,,,,,,,,html-button-response,198,2.0.0,3209224,66ca332e94754270be72c08f,4,14,59723,,,,,,,,,"<img src= ""rock_img/I_Peridotite_15.jpg"" style=""width:8cm; height:6cm;""><p>What type of rock is this?</p>",6,class_response,1,test,30,Peridotite,Peridotite,15,TRUE,7,7,,,,,,,,,,,,,,,,,
,,,,,,,,,,,html-keyboard-response,199,2.0.0,3209734,66ca332e94754270be72c08f,4,14,null,,,,,,,,,<p style='font-size: 30px;'><strong>Okay</strong></p>,null,neutral_feedback,1,test,30,,,,,,,,,,,,,,,,,,,,,,,
,,,,,,,,,,,html-button-response,200,2.0.0,3372172,66ca332e94754270be72c08f,4,14,162433,,,,,,,,,"<img src= ""rock_img/I_Obsidian_07.jpg"" style=""width:8cm; height:4.76cm;""><p>What type of rock is this?</p>",3,class_response,1,test,31,Gabbro,Obsidian,7,FALSE,4,5,,,,,,,,,,,,,,,,,
,,,,,,,,,,,html-keyboard-response,201,2.0.0,3372675,66ca332e94754270be72c08f,4,14,null,,,,,,,,,<p style='font-size: 30px;'><strong>Okay</strong></p>,null,neutral_feedback,1,test,31,,,,,,,,,,,,,,,,,,,,,,,
,,,,,,,,,,,html-button-response,202,2.0.0,3375790,66ca332e94754270be72c08f,4,14,3112,,,,,,,,,"<img src= ""rock_img/I_Pumice_06.jpg"" style=""width:8cm; height:6.9399999999999995cm;""><p>What type of rock is this?</p>",7,class_response,1,test,32,Pumice,Pumice,6,TRUE,8,8,,,,,,,,,,,,,,,,,
,,,,,,,,,,,html-keyboard-response,203,2.0.0,3376303,66ca332e94754270be72c08f,4,14,null,,,,,,,,,<p style='font-size: 30px;'><strong>Okay</strong></p>,null,neutral_feedback,1,test,32,,,,,,,,,,,,,,,,,,,,,,,
,,,,,,,,,,,html-button-response,204,2.0.0,3417893,66ca332e94754270be72c08f,4,14,41591,,,,,,,,,"<img src= ""rock_img/I_Pegmatite_09.jpg"" style=""width:8cm; height:4.03cm;""><p>What type of rock is this?</p>",6,class_response,1,test,33,Peridotite,Pegmatite,9,FALSE,7,6,,,,,,,,,,,,,,,,,
,,,,,,,,,,,html-keyboard-response,205,2.0.0,3418410,66ca332e94754270be72c08f,4,14,null,,,,,,,,,<p style='font-size: 30px;'><strong>Okay</strong></p>,null,neutral_feedback,1,test,33,,,,,,,,,,,,,,,,,,,,,,,
,,,,,,,,,,,html-button-response,206,2.0.0,3472429,66ca332e94754270be72c08f,4,14,54010,,,,,,,,,"<img src= ""rock_img/I_Gabbro_10.jpg"" style=""width:8cm; height:5.680000000000001cm;""><p>What type of rock is this?</p>",2,class_response,1,test,34,Diorite,Gabbro,10,FALSE,3,4,,,,,,,,,,,,,,,,,
,,,,,,,,,,,html-keyboard-response,207,2.0.0,3472945,66ca332e94754270be72c08f,4,14,null,,,,,,,,,<p style='font-size: 30px;'><strong>Okay</strong></p>,null,neutral_feedback,1,test,34,,,,,,,,,,,,,,,,,,,,,,,
,,,,,,,,,,,html-button-response,208,2.0.0,3526490,66ca332e94754270be72c08f,4,14,53540,,,,,,,,,"<img src= ""rock_img/I_Diorite_14.jpg"" style=""width:8cm; height:5.71cm;""><p>What type of rock is this?</p>",3,class_response,1,test,35,Gabbro,Diorite,14,FALSE,4,3,,,,,,,,,,,,,,,,,
,,,,,,,,,,,html-keyboard-response,209,2.0.0,3527007,66ca332e94754270be72c08f,4,14,null,,,,,,,,,<p style='font-size: 30px;'><strong>Okay</strong></p>,null,neutral_feedback,1,test,35,,,,,,,,,,,,,,,,,,,,,,,
,,,,,,,,,,,html-button-response,210,2.0.0,3583753,66ca332e94754270be72c08f,4,14,56748,,,,,,,,,"<img src= ""rock_img/I_Basalt_06.jpg"" style=""width:8cm; height:7.06cm;""><p>What type of rock is this?</p>",1,class_response,1,test,36,Basalt,Basalt,6,TRUE,2,2,,,,,,,,,,,,,,,,,
,,,,,,,,,,,html-keyboard-response,211,2.0.0,3584262,66ca332e94754270be72c08f,4,14,null,,,,,,,,,<p style='font-size: 30px;'><strong>Okay</strong></p>,null,neutral_feedback,1,test,36,,,,,,,,,,,,,,,,,,,,,,,
,,,,,,,,,,,html-button-response,212,2.0.0,3585708,66ca332e94754270be72c08f,4,14,1440,,,,,,,,,"<img src= ""rock_img/I_Pumice_09.jpg"" style=""width:8cm; height:6.44cm;""><p>What type of rock is this?</p>",7,class_response,1,test,37,Pumice,Pumice,9,TRUE,8,8,,,,,,,,,,,,,,,,,
,,,,,,,,,,,html-keyboard-response,213,2.0.0,3586220,66ca332e94754270be72c08f,4,14,null,,,,,,,,,<p style='font-size: 30px;'><strong>Okay</strong></p>,null,neutral_feedback,1,test,37,,,,,,,,,,,,,,,,,,,,,,,
,,,,,,,,,,,html-button-response,214,2.0.0,3659082,66ca332e94754270be72c08f,4,14,72850,,,,,,,,,"<img src= ""rock_img/I_Obsidian_12.jpg"" style=""width:8cm; height:6.53cm;""><p>What type of rock is this?</p>",3,class_response,1,test,38,Gabbro,Obsidian,12,FALSE,4,5,,,,,,,,,,,,,,,,,
,,,,,,,,,,,html-keyboard-response,215,2.0.0,3659598,66ca332e94754270be72c08f,4,14,null,,,,,,,,,<p style='font-size: 30px;'><strong>Okay</strong></p>,null,neutral_feedback,1,test,38,,,,,,,,,,,,,,,,,,,,,,,
,,,,,,,,,,,html-button-response,216,2.0.0,3669927,66ca332e94754270be72c08f,4,14,10325,,,,,,,,,"<img src= ""rock_img/I_Pegmatite_03.jpg"" style=""width:8cm; height:5.239999999999999cm;""><p>What type of rock is this?</p>",6,class_response,1,test,39,Peridotite,Pegmatite,3,FALSE,7,6,,,,,,,,,,,,,,,,,
,,,,,,,,,,,html-keyboard-response,217,2.0.0,3670442,66ca332e94754270be72c08f,4,14,null,,,,,,,,,<p style='font-size: 30px;'><strong>Okay</strong></p>,null,neutral_feedback,1,test,39,,,,,,,,,,,,,,,,,,,,,,,
,,,,,,,,,,,html-button-response,218,2.0.0,3732565,66ca332e94754270be72c08f,4,14,62119,,,,,,,,,"<img src= ""rock_img/I_Andesite_03.jpg"" style=""width:8cm; height:5.73cm;""><p>What type of rock is this?</p>",3,class_response,1,test,40,Gabbro,Andesite,3,FALSE,4,1,,,,,,,,,,,,,,,,,
,,,,,,,,,,,html-keyboard-response,219,2.0.0,3733076,66ca332e94754270be72c08f,4,14,null,,,,,,,,,<p style='font-size: 30px;'><strong>Okay</strong></p>,null,neutral_feedback,1,test,40,,,,,,,,,,,,,,,,,,,,,,,
,,,,,,,,,,,html-button-response,220,2.0.0,3793317,66ca332e94754270be72c08f,4,14,60247,,,,,,,,,"<img src= ""rock_img/I_Andesite_16.jpg"" style=""width:8cm; height:6.010000000000001cm;""><p>What type of rock is this?</p>",2,class_response,1,test,41,Diorite,Andesite,16,FALSE,3,1,,,,,,,,,,,,,,,,,
,,,,,,,,,,,html-keyboard-response,221,2.0.0,3793826,66ca332e94754270be72c08f,4,14,null,,,,,,,,,<p style='font-size: 30px;'><strong>Okay</strong></p>,null,neutral_feedback,1,test,41,,,,,,,,,,,,,,,,,,,,,,,
,,,,,,,,,,,html-button-response,222,2.0.0,3843242,66ca332e94754270be72c08f,4,14,49413,,,,,,,,,"<img src= ""rock_img/I_Andesite_14.jpg"" style=""width:8cm; height:5.449999999999999cm;""><p>What type of rock is this?</p>",3,class_response,1,test,42,Gabbro,Andesite,14,FALSE,4,1,,,,,,,,,,,,,,,,,
,,,,,,,,,,,html-keyboard-response,223,2.0.0,3843756,66ca332e94754270be72c08f,4,14,null,,,,,,,,,<p style='font-size: 30px;'><strong>Okay</strong></p>,null,neutral_feedback,1,test,42,,,,,,,,,,,,,,,,,,,,,,,
,,,,,,,,,,,html-button-response,224,2.0.0,3873172,66ca332e94754270be72c08f,4,14,29402,,,,,,,,,"<img src= ""rock_img/I_Diorite_10.jpg"" style=""width:8cm; height:5.949999999999999cm;""><p>What type of rock is this?</p>",2,class_response,1,test,43,Diorite,Diorite,10,TRUE,3,3,,,,,,,,,,,,,,,,,
,,,,,,,,,,,html-keyboard-response,225,2.0.0,3873683,66ca332e94754270be72c08f,4,14,null,,,,,,,,,<p style='font-size: 30px;'><strong>Okay</strong></p>,null,neutral_feedback,1,test,43,,,,,,,,,,,,,,,,,,,,,,,
,,,,,,,,,,,html-button-response,226,2.0.0,3948016,66ca332e94754270be72c08f,4,14,74329,,,,,,,,,"<img src= ""rock_img/I_Pegmatite_05.jpg"" style=""width:8cm; height:7.300000000000001cm;""><p>What type of rock is this?</p>",0,class_response,1,test,44,Andesite,Pegmatite,5,FALSE,1,6,,,,,,,,,,,,,,,,,
,,,,,,,,,,,html-keyboard-response,227,2.0.0,3948529,66ca332e94754270be72c08f,4,14,null,,,,,,,,,<p style='font-size: 30px;'><strong>Okay</strong></p>,null,neutral_feedback,1,test,44,,,,,,,,,,,,,,,,,,,,,,,
,,,,,,,,,,,html-button-response,228,2.0.0,3998232,66ca332e94754270be72c08f,4,14,49698,,,,,,,,,"<img src= ""rock_img/I_Gabbro_08.jpg"" style=""width:8cm; height:5.15cm;""><p>What type of rock is this?</p>",1,class_response,1,test,45,Basalt,Gabbro,8,FALSE,2,4,,,,,,,,,,,,,,,,,
,,,,,,,,,,,html-keyboard-response,229,2.0.0,3998748,66ca332e94754270be72c08f,4,14,null,,,,,,,,,<p style='font-size: 30px;'><strong>Okay</strong></p>,null,neutral_feedback,1,test,45,,,,,,,,,,,,,,,,,,,,,,,
,,,,,,,,,,,html-button-response,230,2.0.0,4005212,66ca332e94754270be72c08f,4,14,6459,,,,,,,,,"<img src= ""rock_img/I_Gabbro_05.jpg"" style=""width:8cm; height:6cm;""><p>What type of rock is this?</p>",6,class_response,1,test,46,Peridotite,Gabbro,5,FALSE,7,4,,,,,,,,,,,,,,,,,
,,,,,,,,,,,html-keyboard-response,231,2.0.0,4005724,66ca332e94754270be72c08f,4,14,null,,,,,,,,,<p style='font-size: 30px;'><strong>Okay</strong></p>,null,neutral_feedback,1,test,46,,,,,,,,,,,,,,,,,,,,,,,
,,,,,,,,,,,html-button-response,232,2.0.0,4008933,66ca332e94754270be72c08f,4,14,3204,,,,,,,,,"<img src= ""rock_img/I_Peridotite_10.jpg"" style=""width:8cm; height:5.390000000000001cm;""><p>What type of rock is this?</p>",2,class_response,1,test,47,Diorite,Peridotite,10,FALSE,3,7,,,,,,,,,,,,,,,,,
,,,,,,,,,,,html-keyboard-response,233,2.0.0,4009452,66ca332e94754270be72c08f,4,14,null,,,,,,,,,<p style='font-size: 30px;'><strong>Okay</strong></p>,null,neutral_feedback,1,test,47,,,,,,,,,,,,,,,,,,,,,,,
,,,,,,,,,,,html-button-response,234,2.0.0,4015144,66ca332e94754270be72c08f,4,14,5688,,,,,,,,,"<img src= ""rock_img/I_Pegmatite_08.jpg"" style=""width:8cm; height:7.68cm;""><p>What type of rock is this?</p>",0,class_response,1,test,48,Andesite,Pegmatite,8,FALSE,1,6,,,,,,,,,,,,,,,,,
,,,,,,,,,,,html-keyboard-response,235,2.0.0,4015664,66ca332e94754270be72c08f,4,14,null,,,,,,,,,<p style='font-size: 30px;'><strong>Okay</strong></p>,null,neutral_feedback,1,test,48,,,,,,,,,,,,,,,,,,,,,,,
,,,,,,,,,,,html-button-response,236,2.0.0,4078062,66ca332e94754270be72c08f,4,14,,,,,,,,,,,,cycle_feedback,,,,,,,,,,,,,,,,,,,,,,,,20796.4,41576.2,
,,,,,,,,,,,html-button-response,238,2.0.0,4082689,66ca332e94754270be72c08f,4,14,4624,,,,,,,,,,0,start_train,,,,,,,,,,,,,,,,,,,,,,,,,,
,,,,,,,,,,,html-button-response,240,2.0.0,4161590,66ca332e94754270be72c08f,4,14,78897,,,,,,,,,"<img src= ""rock_img/I_Diorite_13.jpg"" style=""width:8cm; height:6.29cm;""><p>What type of rock is this?</p>",2,class_response,2,train,1,Diorite,Diorite,13,TRUE,3,3,,,,,,,,,,,,,,,,,
,,,,,,,,,,,html-button-response,241,2.0.0,4165757,66ca332e94754270be72c08f,4,14,4162,,,,,,,,,"<img src= rock_img/I_Diorite_13.jpg style=""width:8cm; height:6.29cm;""><p style='font-size: 30px; color: green;'><strong>Correct!</strong></p><p style='font-size: 30px;'><strong>This rock is diorite</strong></p>",0,corr_feedback,2,train,1,,,,,,,,,,,,,,,,,,,,,,,
,,,,,,,,,,,html-button-response,242,2.0.0,4202428,66ca332e94754270be72c08f,4,14,36665,,,,,,,,,"<img src= ""rock_img/I_Basalt_01.jpg"" style=""width:8cm; height:7.880000000000001cm;""><p>What type of rock is this?</p>",3,class_response,2,train,2,Gabbro,Basalt,1,FALSE,4,2,,,,,,,,,,,,,,,,,
,,,,,,,,,,,html-button-response,243,2.0.0,4229908,66ca332e94754270be72c08f,4,14,27475,,,,,,,,,"<img src= rock_img/I_Basalt_01.jpg style=""width:8cm; height:7.880000000000001cm;""><p style='font-size: 30px; color: red;'><strong>Incorrect!</strong></p><p style='font-size: 30px;'><strong>This rock is basalt</strong></p>",0,corr_feedback,2,train,2,,,,,,,,,,,,,,,,,,,,,,,
,,,,,,,,,,,html-button-response,244,2.0.0,4271704,66ca332e94754270be72c08f,4,14,41789,,,,,,,,,"<img src= ""rock_img/I_Gabbro_15.jpg"" style=""width:8cm; height:6.29cm;""><p>What type of rock is this?</p>",2,class_response,2,train,3,Diorite,Gabbro,15,FALSE,3,4,,,,,,,,,,,,,,,,,
,,,,,,,,,,,html-button-response,245,2.0.0,4285076,66ca332e94754270be72c08f,4,14,13368,,,,,,,,,"<img src= rock_img/I_Gabbro_15.jpg style=""width:8cm; height:6.29cm;""><p style='font-size: 30px; color: red;'><strong>Incorrect!</strong></p><p style='font-size: 30px;'><strong>This rock is gabbro</strong></p>",0,corr_feedback,2,train,3,,,,,,,,,,,,,,,,,,,,,,,
,,,,,,,,,,,html-button-response,246,2.0.0,4339240,66ca332e94754270be72c08f,4,14,54166,,,,,,,,,"<img src= ""rock_img/I_Andesite_09.jpg"" style=""width:8cm; height:6cm;""><p>What type of rock is this?</p>",2,class_response,2,train,4,Diorite,Andesite,9,FALSE,3,1,,,,,,,,,,,,,,,,,
,,,,,,,,,,,html-button-response,247,2.0.0,4362187,66ca332e94754270be72c08f,4,14,22940,,,,,,,,,"<img src= rock_img/I_Andesite_09.jpg style=""width:8cm; height:6cm;""><p style='font-size: 30px; color: red;'><strong>Incorrect!</strong></p><p style='font-size: 30px;'><strong>This rock is andesite</strong></p>",0,corr_feedback,2,train,4,,,,,,,,,,,,,,,,,,,,,,,
,,,,,,,,,,,html-button-response,248,2.0.0,4366297,66ca332e94754270be72c08f,4,14,4108,,,,,,,,,"<img src= ""rock_img/I_Peridotite_06.jpg"" style=""width:8cm; height:7.53cm;""><p>What type of rock is this?</p>",6,class_response,2,train,5,Peridotite,Peridotite,6,TRUE,7,7,,,,,,,,,,,,,,,,,
,,,,,,,,,,,html-button-response,249,2.0.0,4368649,66ca332e94754270be72c08f,4,14,2349,,,,,,,,,"<img src= rock_img/I_Peridotite_06.jpg style=""width:8cm; height:7.53cm;""><p style='font-size: 30px; color: green;'><strong>Correct!</strong></p><p style='font-size: 30px;'><strong>This rock is peridotite</strong></p>",0,corr_feedback,2,train,5,,,,,,,,,,,,,,,,,,,,,,,
,,,,,,,,,,,html-button-response,250,2.0.0,4377492,66ca332e94754270be72c08f,4,14,8841,,,,,,,,,"<img src= ""rock_img/I_Basalt_12.jpg"" style=""width:8cm; height:6.010000000000001cm;""><p>What type of rock is this?</p>",0,class_response,2,train,6,Andesite,Basalt,12,FALSE,1,2,,,,,,,,,,,,,,,,,
,,,,,,,,,,,html-button-response,251,2.0.0,4396514,66ca332e94754270be72c08f,4,14,19019,,,,,,,,,"<img src= rock_img/I_Basalt_12.jpg style=""width:8cm; height:6.010000000000001cm;""><p style='font-size: 30px; color: red;'><strong>Incorrect!</strong></p><p style='font-size: 30px;'><strong>This rock is basalt</strong></p>",0,corr_feedback,2,train,6,,,,,,,,,,,,,,,,,,,,,,,
,,,,,,,,,,,html-button-response,252,2.0.0,4399196,66ca332e94754270be72c08f,4,14,2675,,,,,,,,,"<img src= ""rock_img/I_Peridotite_08.jpg"" style=""width:8cm; height:6.7cm;""><p>What type of rock is this?</p>",6,class_response,2,train,7,Peridotite,Peridotite,8,TRUE,7,7,,,,,,,,,,,,,,,,,
,,,,,,,,,,,html-button-response,253,2.0.0,4412166,66ca332e94754270be72c08f,4,14,12964,,,,,,,,,"<img src= rock_img/I_Peridotite_08.jpg style=""width:8cm; height:6.7cm;""><p style='font-size: 30px; color: green;'><strong>Correct!</strong></p><p style='font-size: 30px;'><strong>This rock is peridotite</strong></p>",0,corr_feedback,2,train,7,,,,,,,,,,,,,,,,,,,,,,,
,,,,,,,,,,,html-button-response,254,2.0.0,4413957,66ca332e94754270be72c08f,4,14,1785,,,,,,,,,"<img src= ""rock_img/I_Obsidian_16.jpg"" style=""width:8cm; height:9.3cm;""><p>What type of rock is this?</p>",4,class_response,2,train,8,Obsidian,Obsidian,16,TRUE,5,5,,,,,,,,,,,,,,,,,
,,,,,,,,,,,html-button-response,255,2.0.0,4415660,66ca332e94754270be72c08f,4,14,1700,,,,,,,,,"<img src= rock_img/I_Obsidian_16.jpg style=""width:8cm; height:9.3cm;""><p style='font-size: 30px; color: green;'><strong>Correct!</strong></p><p style='font-size: 30px;'><strong>This rock is obsidian</strong></p>",0,corr_feedback,2,train,8,,,,,,,,,,,,,,,,,,,,,,,
,,,,,,,,,,,html-button-response,256,2.0.0,4542237,66ca332e94754270be72c08f,4,14,126573,,,,,,,,,"<img src= ""rock_img/I_Pegmatite_15.jpg"" style=""width:8cm; height:6cm;""><p>What type of rock is this?</p>",3,class_response,2,train,9,Gabbro,Pegmatite,15,FALSE,4,6,,,,,,,,,,,,,,,,,
,,,,,,,,,,,html-button-response,257,2.0.0,4557725,66ca332e94754270be72c08f,4,14,15485,,,,,,,,,"<img src= rock_img/I_Pegmatite_15.jpg style=""width:8cm; height:6cm;""><p style='font-size: 30px; color: red;'><strong>Incorrect!</strong></p><p style='font-size: 30px;'><strong>This rock is pegmatite</strong></p>",0,corr_feedback,2,train,9,,,,,,,,,,,,,,,,,,,,,,,
,,,,,,,,,,,html-button-response,258,2.0.0,4559681,66ca332e94754270be72c08f,4,14,1949,,,,,,,,,"<img src= ""rock_img/I_Pumice_14.jpg"" style=""width:8cm; height:6.39cm;""><p>What type of rock is this?</p>",7,class_response,2,train,10,Pumice,Pumice,14,TRUE,8,8,,,,,,,,,,,,,,,,,
,,,,,,,,,,,html-button-response,259,2.0.0,4561425,66ca332e94754270be72c08f,4,14,1740,,,,,,,,,"<img src= rock_img/I_Pumice_14.jpg style=""width:8cm; height:6.39cm;""><p style='font-size: 30px; color: green;'><strong>Correct!</strong></p><p style='font-size: 30px;'><strong>This rock is pumice</strong></p>",0,corr_feedback,2,train,10,,,,,,,,,,,,,,,,,,,,,,,
,,,,,,,,,,,html-button-response,260,2.0.0,4564776,66ca332e94754270be72c08f,4,14,3345,,,,,,,,,"<img src= ""rock_img/I_Gabbro_09.jpg"" style=""width:8cm; height:7.279999999999999cm;""><p>What type of rock is this?</p>",0,class_response,2,train,11,Andesite,Gabbro,9,FALSE,1,4,,,,,,,,,,,,,,,,,
,,,,,,,,,,,html-button-response,261,2.0.0,4567260,66ca332e94754270be72c08f,4,14,2480,,,,,,,,,"<img src= rock_img/I_Gabbro_09.jpg style=""width:8cm; height:7.279999999999999cm;""><p style='font-size: 30px; color: red;'><strong>Incorrect!</strong></p><p style='font-size: 30px;'><strong>This rock is gabbro</strong></p>",0,corr_feedback,2,train,11,,,,,,,,,,,,,,,,,,,,,,,
,,,,,,,,,,,html-button-response,262,2.0.0,4575039,66ca332e94754270be72c08f,4,14,7776,,,,,,,,,"<img src= ""rock_img/I_Diorite_08.jpg"" style=""width:8cm; height:6.37cm;""><p>What type of rock is this?</p>",1,class_response,2,train,12,Basalt,Diorite,8,FALSE,2,3,,,,,,,,,,,,,,,,,
,,,,,,,,,,,html-button-response,263,2.0.0,4576728,66ca332e94754270be72c08f,4,14,1684,,,,,,,,,"<img src= rock_img/I_Diorite_08.jpg style=""width:8cm; height:6.37cm;""><p style='font-size: 30px; color: red;'><strong>Incorrect!</strong></p><p style='font-size: 30px;'><strong>This rock is diorite</strong></p>",0,corr_feedback,2,train,12,,,,,,,,,,,,,,,,,,,,,,,
,,,,,,,,,,,html-button-response,265,2.0.0,4578711,66ca332e94754270be72c08f,4,14,1979,,,,,,,,,,0,start_train,,,,,,,,,,,,,,,,,,,,,,,,,,
,,,,,,,,,,,html-button-response,266,2.0.0,4589552,66ca332e94754270be72c08f,4,14,,,,,,,,,,,,cat_selection,2,train,1,,,,,,,8315.8,2518.8,4,2,Peridotite,Pegmatite,,,,,,,,,,,
,,,,,,,,,,,paired-cat-display,267,1.0.0,4746654,66ca332e94754270be72c08f,4,14,,,,,,,,,,,,paired_cat_display,2,train,1,,,,,,,,,,,,,,"fine grained texture
dark grey to black color
can have small holes",17212.2,139847.1,"has a darker color
coarser grained texture
slightly grease appearance ",,,,,,
,,,,,,,,,,,html-button-response,268,2.0.0,4752089,66ca332e94754270be72c08f,4,14,,,,,,,,,,,,cat_selection,2,train,2,,,,,,,2802.5,2621.3,1,6,Gabbro,Basalt,,,,,,,,,,,
,,,,,,,,,,,paired-cat-display,269,1.0.0,4885704,66ca332e94754270be72c08f,4,14,,,,,,,,,,,,paired_cat_display,2,train,2,,,,,,,,,,,,,"generally darker gray collr
fine grained texture
smaller holes",,13501.1,120080.2,,,,"larger cystals
variety of colors
often associated with grante ",,,
,,,,,,,,,,,html-button-response,270,2.0.0,4922945,66ca332e94754270be72c08f,4,14,,,,,,,,,,,,cat_selection,2,train,3,,,,,,,30009.4,7223.3,3,7,Andesite,Pegmatite,,,,,,,,,,,
,,,,,,,,,,,paired-cat-display,271,1.0.0,5069979,66ca332e94754270be72c08f,4,14,,,,,,,,,,,,paired_cat_display,2,train,3,,,,,,,,,,,,,,,16739.2,130256.1,,"salt & pepper appearance
coarse-grained texture
variable color ","greenish color
coarse-grained texture
may have dense, granular appearance ",,,,
,,,,,,,,,,,html-button-response,273,2.0.0,5072393,66ca332e94754270be72c08f,4,14,2408,,,,,,,,,,0,start_test,,,,,,,,,,,,,,,,,,,,,,,,,,
,,,,,,,,,,,html-button-response,274,2.0.0,5106209,66ca332e94754270be72c08f,4,14,33812,,,,,,,,,"<img src= ""rock_img/I_Diorite_16.jpg"" style=""width:8cm; height:6.74cm;""><p>What type of rock is this?</p>",2,class_response,2,test,1,Diorite,Diorite,16,TRUE,3,3,,,,,,,,,,,,,,,,,
,,,,,,,,,,,html-keyboard-response,275,2.0.0,5106727,66ca332e94754270be72c08f,4,14,null,,,,,,,,,<p style='font-size: 30px;'><strong>Okay</strong></p>,null,neutral_feedback,2,test,1,,,,,,,,,,,,,,,,,,,,,,,
,,,,,,,,,,,html-button-response,276,2.0.0,5157170,66ca332e94754270be72c08f,4,14,50438,,,,,,,,,"<img src= ""rock_img/I_Andesite_05.jpg"" style=""width:8cm; height:4.12cm;""><p>What type of rock is this?</p>",5,class_response,2,test,2,Pegmatite,Andesite,5,FALSE,6,1,,,,,,,,,,,,,,,,,
,,,,,,,,,,,html-keyboard-response,277,2.0.0,5157679,66ca332e94754270be72c08f,4,14,null,,,,,,,,,<p style='font-size: 30px;'><strong>Okay</strong></p>,null,neutral_feedback,2,test,2,,,,,,,,,,,,,,,,,,,,,,,
,,,,,,,,,,,html-button-response,278,2.0.0,5198199,66ca332e94754270be72c08f,4,14,40515,,,,,,,,,"<img src= ""rock_img/I_Pegmatite_13.jpg"" style=""width:8cm; height:4.95cm;""><p>What type of rock is this?</p>",1,class_response,2,test,3,Basalt,Pegmatite,13,FALSE,2,6,,,,,,,,,,,,,,,,,
,,,,,,,,,,,html-keyboard-response,279,2.0.0,5198708,66ca332e94754270be72c08f,4,14,null,,,,,,,,,<p style='font-size: 30px;'><strong>Okay</strong></p>,null,neutral_feedback,2,test,3,,,,,,,,,,,,,,,,,,,,,,,
,,,,,,,,,,,html-button-response,280,2.0.0,5200811,66ca332e94754270be72c08f,4,14,2098,,,,,,,,,"<img src= ""rock_img/I_Pumice_09.jpg"" style=""width:8cm; height:6.44cm;""><p>What type of rock is this?</p>",7,class_response,2,test,4,Pumice,Pumice,9,TRUE,8,8,,,,,,,,,,,,,,,,,
,,,,,,,,,,,html-keyboard-response,281,2.0.0,5201319,66ca332e94754270be72c08f,4,14,null,,,,,,,,,<p style='font-size: 30px;'><strong>Okay</strong></p>,null,neutral_feedback,2,test,4,,,,,,,,,,,,,,,,,,,,,,,
,,,,,,,,,,,html-button-response,282,2.0.0,5217529,66ca332e94754270be72c08f,4,14,16206,,,,,,,,,"<img src= ""rock_img/I_Peridotite_05.jpg"" style=""width:8cm; height:7.1499999999999995cm;""><p>What type of rock is this?</p>",3,class_response,2,test,5,Gabbro,Peridotite,5,FALSE,4,7,,,,,,,,,,,,,,,,,
,,,,,,,,,,,html-keyboard-response,283,2.0.0,5218036,66ca332e94754270be72c08f,4,14,null,,,,,,,,,<p style='font-size: 30px;'><strong>Okay</strong></p>,null,neutral_feedback,2,test,5,,,,,,,,,,,,,,,,,,,,,,,
,,,,,,,,,,,html-button-response,284,2.0.0,5234318,66ca332e94754270be72c08f,4,14,16277,,,,,,,,,"<img src= ""rock_img/I_Pegmatite_08.jpg"" style=""width:8cm; height:7.68cm;""><p>What type of rock is this?</p>",5,class_response,2,test,6,Pegmatite,Pegmatite,8,TRUE,6,6,,,,,,,,,,,,,,,,,
,,,,,,,,,,,html-keyboard-response,285,2.0.0,5234834,66ca332e94754270be72c08f,4,14,null,,,,,,,,,<p style='font-size: 30px;'><strong>Okay</strong></p>,null,neutral_feedback,2,test,6,,,,,,,,,,,,,,,,,,,,,,,
,,,,,,,,,,,html-button-response,286,2.0.0,5245249,66ca332e94754270be72c08f,4,14,10410,,,,,,,,,"<img src= ""rock_img/I_Pegmatite_05.jpg"" style=""width:8cm; height:7.300000000000001cm;""><p>What type of rock is this?</p>",5,class_response,2,test,7,Pegmatite,Pegmatite,5,TRUE,6,6,,,,,,,,,,,,,,,,,
,,,,,,,,,,,html-keyboard-response,287,2.0.0,5245759,66ca332e94754270be72c08f,4,14,null,,,,,,,,,<p style='font-size: 30px;'><strong>Okay</strong></p>,null,neutral_feedback,2,test,7,,,,,,,,,,,,,,,,,,,,,,,
,,,,,,,,,,,html-button-response,288,2.0.0,5255578,66ca332e94754270be72c08f,4,14,9815,,,,,,,,,"<img src= ""rock_img/I_Basalt_06.jpg"" style=""width:8cm; height:7.06cm;""><p>What type of rock is this?</p>",0,class_response,2,test,8,Andesite,Basalt,6,FALSE,1,2,,,,,,,,,,,,,,,,,
,,,,,,,,,,,html-keyboard-response,289,2.0.0,5256083,66ca332e94754270be72c08f,4,14,null,,,,,,,,,<p style='font-size: 30px;'><strong>Okay</strong></p>,null,neutral_feedback,2,test,8,,,,,,,,,,,,,,,,,,,,,,,
,,,,,,,,,,,html-button-response,290,2.0.0,5298651,66ca332e94754270be72c08f,4,14,42567,,,,,,,,,"<img src= ""rock_img/I_Pegmatite_09.jpg"" style=""width:8cm; height:4.03cm;""><p>What type of rock is this?</p>",6,class_response,2,test,9,Peridotite,Pegmatite,9,FALSE,7,6,,,,,,,,,,,,,,,,,
,,,,,,,,,,,html-keyboard-response,291,2.0.0,5299154,66ca332e94754270be72c08f,4,14,null,,,,,,,,,<p style='font-size: 30px;'><strong>Okay</strong></p>,null,neutral_feedback,2,test,9,,,,,,,,,,,,,,,,,,,,,,,
,,,,,,,,,,,html-button-response,292,2.0.0,5315562,66ca332e94754270be72c08f,4,14,16405,,,,,,,,,"<img src= ""rock_img/I_Basalt_16.jpg"" style=""width:8cm; height:7.659999999999999cm;""><p>What type of rock is this?</p>",1,class_response,2,test,10,Basalt,Basalt,16,TRUE,2,2,,,,,,,,,,,,,,,,,
,,,,,,,,,,,html-keyboard-response,293,2.0.0,5316072,66ca332e94754270be72c08f,4,14,null,,,,,,,,,<p style='font-size: 30px;'><strong>Okay</strong></p>,null,neutral_feedback,2,test,10,,,,,,,,,,,,,,,,,,,,,,,
,,,,,,,,,,,html-button-response,294,2.0.0,5347154,66ca332e94754270be72c08f,4,14,31078,,,,,,,,,"<img src= ""rock_img/I_Andesite_02.jpg"" style=""width:8cm; height:8.5cm;""><p>What type of rock is this?</p>",0,class_response,2,test,11,Andesite,Andesite,2,TRUE,1,1,,,,,,,,,,,,,,,,,
,,,,,,,,,,,html-keyboard-response,295,2.0.0,5347658,66ca332e94754270be72c08f,4,14,null,,,,,,,,,<p style='font-size: 30px;'><strong>Okay</strong></p>,null,neutral_feedback,2,test,11,,,,,,,,,,,,,,,,,,,,,,,
,,,,,,,,,,,html-button-response,296,2.0.0,5354365,66ca332e94754270be72c08f,4,14,6697,,,,,,,,,"<img src= ""rock_img/I_Peridotite_14.jpg"" style=""width:8cm; height:5.3cm;""><p>What type of rock is this?</p>",6,class_response,2,test,12,Peridotite,Peridotite,14,TRUE,7,7,,,,,,,,,,,,,,,,,
,,,,,,,,,,,html-keyboard-response,297,2.0.0,5354870,66ca332e94754270be72c08f,4,14,null,,,,,,,,,<p style='font-size: 30px;'><strong>Okay</strong></p>,null,neutral_feedback,2,test,12,,,,,,,,,,,,,,,,,,,,,,,
,,,,,,,,,,,html-button-response,298,2.0.0,5357820,66ca332e94754270be72c08f,4,14,2945,,,,,,,,,"<img src= ""rock_img/I_Obsidian_12.jpg"" style=""width:8cm; height:6.53cm;""><p>What type of rock is this?</p>",4,class_response,2,test,13,Obsidian,Obsidian,12,TRUE,5,5,,,,,,,,,,,,,,,,,
,,,,,,,,,,,html-keyboard-response,299,2.0.0,5358332,66ca332e94754270be72c08f,4,14,null,,,,,,,,,<p style='font-size: 30px;'><strong>Okay</strong></p>,null,neutral_feedback,2,test,13,,,,,,,,,,,,,,,,,,,,,,,
,,,,,,,,,,,html-button-response,300,2.0.0,5397299,66ca332e94754270be72c08f,4,14,38964,,,,,,,,,"<img src= ""rock_img/I_Gabbro_10.jpg"" style=""width:8cm; height:5.680000000000001cm;""><p>What type of rock is this?</p>",0,class_response,2,test,14,Andesite,Gabbro,10,FALSE,1,4,,,,,,,,,,,,,,,,,
,,,,,,,,,,,html-keyboard-response,301,2.0.0,5397811,66ca332e94754270be72c08f,4,14,null,,,,,,,,,<p style='font-size: 30px;'><strong>Okay</strong></p>,null,neutral_feedback,2,test,14,,,,,,,,,,,,,,,,,,,,,,,
,,,,,,,,,,,html-button-response,302,2.0.0,5400459,66ca332e94754270be72c08f,4,14,2644,,,,,,,,,"<img src= ""rock_img/I_Obsidian_02.jpg"" style=""width:8cm; height:7.51cm;""><p>What type of rock is this?</p>",4,class_response,2,test,15,Obsidian,Obsidian,2,TRUE,5,5,,,,,,,,,,,,,,,,,
,,,,,,,,,,,html-keyboard-response,303,2.0.0,5400973,66ca332e94754270be72c08f,4,14,null,,,,,,,,,<p style='font-size: 30px;'><strong>Okay</strong></p>,null,neutral_feedback,2,test,15,,,,,,,,,,,,,,,,,,,,,,,
,,,,,,,,,,,html-button-response,304,2.0.0,5403502,66ca332e94754270be72c08f,4,14,2525,,,,,,,,,"<img src= ""rock_img/I_Pegmatite_03.jpg"" style=""width:8cm; height:5.239999999999999cm;""><p>What type of rock is this?</p>",6,class_response,2,test,16,Peridotite,Pegmatite,3,FALSE,7,6,,,,,,,,,,,,,,,,,
,,,,,,,,,,,html-keyboard-response,305,2.0.0,5404005,66ca332e94754270be72c08f,4,14,null,,,,,,,,,<p style='font-size: 30px;'><strong>Okay</strong></p>,null,neutral_feedback,2,test,16,,,,,,,,,,,,,,,,,,,,,,,
,,,,,,,,,,,html-button-response,306,2.0.0,5449369,66ca332e94754270be72c08f,4,14,45359,,,,,,,,,"<img src= ""rock_img/I_Gabbro_12.jpg"" style=""width:8cm; height:7.800000000000001cm;""><p>What type of rock is this?</p>",5,class_response,2,test,17,Gabbro,Gabbro,12,TRUE,4,4,,,,,,,,,,,,,,,,,
,,,,,,,,,,,html-keyboard-response,307,2.0.0,5449878,66ca332e94754270be72c08f,4,14,null,,,,,,,,,<p style='font-size: 30px;'><strong>Okay</strong></p>,null,neutral_feedback,2,test,17,,,,,,,,,,,,,,,,,,,,,,,
,,,,,,,,,,,html-button-response,308,2.0.0,5452001,66ca332e94754270be72c08f,4,14,2118,,,,,,,,,"<img src= ""rock_img/I_Pumice_05.jpg"" style=""width:8cm; height:7.25cm;""><p>What type of rock is this?</p>",7,class_response,2,test,18,Pumice,Pumice,5,TRUE,8,8,,,,,,,,,,,,,,,,,
,,,,,,,,,,,html-keyboard-response,309,2.0.0,5452521,66ca332e94754270be72c08f,4,14,null,,,,,,,,,<p style='font-size: 30px;'><strong>Okay</strong></p>,null,neutral_feedback,2,test,18,,,,,,,,,,,,,,,,,,,,,,,
,,,,,,,,,,,html-button-response,310,2.0.0,5467532,66ca332e94754270be72c08f,4,14,15008,,,,,,,,,"<img src= ""rock_img/I_Pumice_06.jpg"" style=""width:8cm; height:6.9399999999999995cm;""><p>What type of rock is this?</p>",7,class_response,2,test,19,Pumice,Pumice,6,TRUE,8,8,,,,,,,,,,,,,,,,,
,,,,,,,,,,,html-keyboard-response,311,2.0.0,5468042,66ca332e94754270be72c08f,4,14,null,,,,,,,,,<p style='font-size: 30px;'><strong>Okay</strong></p>,null,neutral_feedback,2,test,19,,,,,,,,,,,,,,,,,,,,,,,
,,,,,,,,,,,html-button-response,312,2.0.0,5486273,66ca332e94754270be72c08f,4,14,18227,,,,,,,,,"<img src= ""rock_img/I_Basalt_02.jpg"" style=""width:8cm; height:6.45cm;""><p>What type of rock is this?</p>",0,class_response,2,test,20,Andesite,Basalt,2,FALSE,1,2,,,,,,,,,,,,,,,,,
,,,,,,,,,,,html-keyboard-response,313,2.0.0,5486788,66ca332e94754270be72c08f,4,14,null,,,,,,,,,<p style='font-size: 30px;'><strong>Okay</strong></p>,null,neutral_feedback,2,test,20,,,,,,,,,,,,,,,,,,,,,,,
,,,,,,,,,,,html-button-response,314,2.0.0,5498853,66ca332e94754270be72c08f,4,14,12061,,,,,,,,,"<img src= ""rock_img/I_Obsidian_10.jpg"" style=""width:8cm; height:6.260000000000001cm;""><p>What type of rock is this?</p>",4,class_response,2,test,21,Obsidian,Obsidian,10,TRUE,5,5,,,,,,,,,,,,,,,,,
,,,,,,,,,,,html-keyboard-response,315,2.0.0,5499362,66ca332e94754270be72c08f,4,14,null,,,,,,,,,<p style='font-size: 30px;'><strong>Okay</strong></p>,null,neutral_feedback,2,test,21,,,,,,,,,,,,,,,,,,,,,,,
,,,,,,,,,,,html-button-response,316,2.0.0,5501242,66ca332e94754270be72c08f,4,14,1875,,,,,,,,,"<img src= ""rock_img/I_Peridotite_13.jpg"" style=""width:8cm; height:7.58cm;""><p>What type of rock is this?</p>",6,class_response,2,test,22,Peridotite,Peridotite,13,TRUE,7,7,,,,,,,,,,,,,,,,,
,,,,,,,,,,,html-keyboard-response,317,2.0.0,5501759,66ca332e94754270be72c08f,4,14,null,,,,,,,,,<p style='font-size: 30px;'><strong>Okay</strong></p>,null,neutral_feedback,2,test,22,,,,,,,,,,,,,,,,,,,,,,,
,,,,,,,,,,,html-button-response,318,2.0.0,5510093,66ca332e94754270be72c08f,4,14,8329,,,,,,,,,"<img src= ""rock_img/I_Pegmatite_16.jpg"" style=""width:8cm; height:5.8cm;""><p>What type of rock is this?</p>",5,class_response,2,test,23,Pegmatite,Pegmatite,16,TRUE,6,6,,,,,,,,,,,,,,,,,
,,,,,,,,,,,html-keyboard-response,319,2.0.0,5510601,66ca332e94754270be72c08f,4,14,null,,,,,,,,,<p style='font-size: 30px;'><strong>Okay</strong></p>,null,neutral_feedback,2,test,23,,,,,,,,,,,,,,,,,,,,,,,
,,,,,,,,,,,html-button-response,320,2.0.0,5512584,66ca332e94754270be72c08f,4,14,1978,,,,,,,,,"<img src= ""rock_img/I_Pumice_16.jpg"" style=""width:8cm; height:6.79cm;""><p>What type of rock is this?</p>",7,class_response,2,test,24,Pumice,Pumice,16,TRUE,8,8,,,,,,,,,,,,,,,,,
,,,,,,,,,,,html-keyboard-response,321,2.0.0,5513098,66ca332e94754270be72c08f,4,14,null,,,,,,,,,<p style='font-size: 30px;'><strong>Okay</strong></p>,null,neutral_feedback,2,test,24,,,,,,,,,,,,,,,,,,,,,,,
,,,,,,,,,,,html-button-response,322,2.0.0,5514972,66ca332e94754270be72c08f,4,14,1869,,,,,,,,,"<img src= ""rock_img/I_Peridotite_15.jpg"" style=""width:8cm; height:6cm;""><p>What type of rock is this?</p>",6,class_response,2,test,25,Peridotite,Peridotite,15,TRUE,7,7,,,,,,,,,,,,,,,,,
,,,,,,,,,,,html-keyboard-response,323,2.0.0,5515481,66ca332e94754270be72c08f,4,14,null,,,,,,,,,<p style='font-size: 30px;'><strong>Okay</strong></p>,null,neutral_feedback,2,test,25,,,,,,,,,,,,,,,,,,,,,,,
,,,,,,,,,,,html-button-response,324,2.0.0,5517163,66ca332e94754270be72c08f,4,14,1678,,,,,,,,,"<img src= ""rock_img/I_Obsidian_09.jpg"" style=""width:8cm; height:5cm;""><p>What type of rock is this?</p>",4,class_response,2,test,26,Obsidian,Obsidian,9,TRUE,5,5,,,,,,,,,,,,,,,,,
,,,,,,,,,,,html-keyboard-response,325,2.0.0,5517678,66ca332e94754270be72c08f,4,14,null,,,,,,,,,<p style='font-size: 30px;'><strong>Okay</strong></p>,null,neutral_feedback,2,test,26,,,,,,,,,,,,,,,,,,,,,,,
,,,,,,,,,,,html-button-response,326,2.0.0,5519607,66ca332e94754270be72c08f,4,14,1925,,,,,,,,,"<img src= ""rock_img/I_Pumice_04.jpg"" style=""width:8cm; height:6.819999999999999cm;""><p>What type of rock is this?</p>",7,class_response,2,test,27,Pumice,Pumice,4,TRUE,8,8,,,,,,,,,,,,,,,,,
,,,,,,,,,,,html-keyboard-response,327,2.0.0,5520122,66ca332e94754270be72c08f,4,14,null,,,,,,,,,<p style='font-size: 30px;'><strong>Okay</strong></p>,null,neutral_feedback,2,test,27,,,,,,,,,,,,,,,,,,,,,,,
,,,,,,,,,,,html-button-response,328,2.0.0,5558116,66ca332e94754270be72c08f,4,14,37990,,,,,,,,,"<img src= ""rock_img/I_Andesite_14.jpg"" style=""width:8cm; height:5.449999999999999cm;""><p>What type of rock is this?</p>",0,class_response,2,test,28,Andesite,Andesite,14,TRUE,1,1,,,,,,,,,,,,,,,,,
,,,,,,,,,,,html-keyboard-response,329,2.0.0,5558635,66ca332e94754270be72c08f,4,14,null,,,,,,,,,<p style='font-size: 30px;'><strong>Okay</strong></p>,null,neutral_feedback,2,test,28,,,,,,,,,,,,,,,,,,,,,,,
,,,,,,,,,,,html-button-response,330,2.0.0,5582992,66ca332e94754270be72c08f,4,14,24352,,,,,,,,,"<img src= ""rock_img/I_Diorite_12.jpg"" style=""width:8cm; height:4.88cm;""><p>What type of rock is this?</p>",1,class_response,2,test,29,Diorite,Diorite,12,TRUE,3,3,,,,,,,,,,,,,,,,,
,,,,,,,,,,,html-keyboard-response,331,2.0.0,5583510,66ca332e94754270be72c08f,4,14,null,,,,,,,,,<p style='font-size: 30px;'><strong>Okay</strong></p>,null,neutral_feedback,2,test,29,,,,,,,,,,,,,,,,,,,,,,,
,,,,,,,,,,,html-button-response,332,2.0.0,5620136,66ca332e94754270be72c08f,4,14,36621,,,,,,,,,"<img src= ""rock_img/I_Obsidian_05.jpg"" style=""width:8cm; height:6.33cm;""><p>What type of rock is this?</p>",5,class_response,2,test,30,Obsidian,Obsidian,5,TRUE,5,5,,,,,,,,,,,,,,,,,
,,,,,,,,,,,html-keyboard-response,333,2.0.0,5620643,66ca332e94754270be72c08f,4,14,null,,,,,,,,,<p style='font-size: 30px;'><strong>Okay</strong></p>,null,neutral_feedback,2,test,30,,,,,,,,,,,,,,,,,,,,,,,
,,,,,,,,,,,html-button-response,334,2.0.0,5623689,66ca332e94754270be72c08f,4,14,3042,,,,,,,,,"<img src= ""rock_img/I_Gabbro_08.jpg"" style=""width:8cm; height:5.15cm;""><p>What type of rock is this?</p>",2,class_response,2,test,31,Gabbro,Gabbro,8,TRUE,4,4,,,,,,,,,,,,,,,,,
,,,,,,,,,,,html-keyboard-response,335,2.0.0,5624203,66ca332e94754270be72c08f,4,14,null,,,,,,,,,<p style='font-size: 30px;'><strong>Okay</strong></p>,null,neutral_feedback,2,test,31,,,,,,,,,,,,,,,,,,,,,,,
,,,,,,,,,,,html-button-response,336,2.0.0,5648315,66ca332e94754270be72c08f,4,14,24107,,,,,,,,,"<img src= ""rock_img/I_Basalt_08.jpg"" style=""width:8cm; height:10.44cm;""><p>What type of rock is this?</p>",0,class_response,2,test,32,Andesite,Basalt,8,FALSE,1,2,,,,,,,,,,,,,,,,,
,,,,,,,,,,,html-keyboard-response,337,2.0.0,5648829,66ca332e94754270be72c08f,4,14,null,,,,,,,,,<p style='font-size: 30px;'><strong>Okay</strong></p>,null,neutral_feedback,2,test,32,,,,,,,,,,,,,,,,,,,,,,,
,,,,,,,,,,,html-button-response,338,2.0.0,5651226,66ca332e94754270be72c08f,4,14,2392,,,,,,,,,"<img src= ""rock_img/I_Peridotite_10.jpg"" style=""width:8cm; height:5.390000000000001cm;""><p>What type of rock is this?</p>",6,class_response,2,test,33,Peridotite,Peridotite,10,TRUE,7,7,,,,,,,,,,,,,,,,,
,,,,,,,,,,,html-keyboard-response,339,2.0.0,5651742,66ca332e94754270be72c08f,4,14,null,,,,,,,,,<p style='font-size: 30px;'><strong>Okay</strong></p>,null,neutral_feedback,2,test,33,,,,,,,,,,,,,,,,,,,,,,,
,,,,,,,,,,,html-button-response,340,2.0.0,5653383,66ca332e94754270be72c08f,4,14,1636,,,,,,,,,"<img src= ""rock_img/I_Peridotite_16.jpg"" style=""width:8cm; height:6.989999999999999cm;""><p>What type of rock is this?</p>",6,class_response,2,test,34,Peridotite,Peridotite,16,TRUE,7,7,,,,,,,,,,,,,,,,,
,,,,,,,,,,,html-keyboard-response,341,2.0.0,5653892,66ca332e94754270be72c08f,4,14,null,,,,,,,,,<p style='font-size: 30px;'><strong>Okay</strong></p>,null,neutral_feedback,2,test,34,,,,,,,,,,,,,,,,,,,,,,,
,,,,,,,,,,,html-button-response,342,2.0.0,5673615,66ca332e94754270be72c08f,4,14,19719,,,,,,,,,"<img src= ""rock_img/I_Diorite_11.jpg"" style=""width:8cm; height:7.11cm;""><p>What type of rock is this?</p>",0,class_response,2,test,35,Diorite,Diorite,11,TRUE,3,3,,,,,,,,,,,,,,,,,
,,,,,,,,,,,html-keyboard-response,343,2.0.0,5674118,66ca332e94754270be72c08f,4,14,null,,,,,,,,,<p style='font-size: 30px;'><strong>Okay</strong></p>,null,neutral_feedback,2,test,35,,,,,,,,,,,,,,,,,,,,,,,
,,,,,,,,,,,html-button-response,344,2.0.0,5690909,66ca332e94754270be72c08f,4,14,16786,,,,,,,,,"<img src= ""rock_img/I_Andesite_11.jpg"" style=""width:8cm; height:4.92cm;""><p>What type of rock is this?</p>",3,class_response,2,test,36,Andesite,Andesite,11,TRUE,1,1,,,,,,,,,,,,,,,,,
,,,,,,,,,,,html-keyboard-response,345,2.0.0,5691422,66ca332e94754270be72c08f,4,14,null,,,,,,,,,<p style='font-size: 30px;'><strong>Okay</strong></p>,null,neutral_feedback,2,test,36,,,,,,,,,,,,,,,,,,,,,,,
,,,,,,,,,,,html-button-response,346,2.0.0,5697164,66ca332e94754270be72c08f,4,14,5738,,,,,,,,,"<img src= ""rock_img/I_Gabbro_16.jpg"" style=""width:8cm; height:6.44cm;""><p>What type of rock is this?</p>",1,class_response,2,test,37,Basalt,Gabbro,16,FALSE,2,4,,,,,,,,,,,,,,,,,
,,,,,,,,,,,html-keyboard-response,347,2.0.0,5697683,66ca332e94754270be72c08f,4,14,null,,,,,,,,,<p style='font-size: 30px;'><strong>Okay</strong></p>,null,neutral_feedback,2,test,37,,,,,,,,,,,,,,,,,,,,,,,
,,,,,,,,,,,html-button-response,348,2.0.0,5702246,66ca332e94754270be72c08f,4,14,4559,,,,,,,,,"<img src= ""rock_img/I_Gabbro_14.jpg"" style=""width:8cm; height:8.48cm;""><p>What type of rock is this?</p>",3,class_response,2,test,38,Gabbro,Gabbro,14,TRUE,4,4,,,,,,,,,,,,,,,,,
,,,,,,,,,,,html-keyboard-response,349,2.0.0,5702763,66ca332e94754270be72c08f,4,14,null,,,,,,,,,<p style='font-size: 30px;'><strong>Okay</strong></p>,null,neutral_feedback,2,test,38,,,,,,,,,,,,,,,,,,,,,,,
,,,,,,,,,,,html-button-response,350,2.0.0,5707983,66ca332e94754270be72c08f,4,14,5215,,,,,,,,,"<img src= ""rock_img/I_Obsidian_07.jpg"" style=""width:8cm; height:4.76cm;""><p>What type of rock is this?</p>",3,class_response,2,test,39,Gabbro,Obsidian,7,FALSE,4,5,,,,,,,,,,,,,,,,,
,,,,,,,,,,,html-keyboard-response,351,2.0.0,5708490,66ca332e94754270be72c08f,4,14,null,,,,,,,,,<p style='font-size: 30px;'><strong>Okay</strong></p>,null,neutral_feedback,2,test,39,,,,,,,,,,,,,,,,,,,,,,,
,,,,,,,,,,,html-button-response,352,2.0.0,5711191,66ca332e94754270be72c08f,4,14,2697,,,,,,,,,"<img src= ""rock_img/I_Gabbro_05.jpg"" style=""width:8cm; height:6cm;""><p>What type of rock is this?</p>",6,class_response,2,test,40,Peridotite,Gabbro,5,FALSE,7,4,,,,,,,,,,,,,,,,,
,,,,,,,,,,,html-keyboard-response,353,2.0.0,5711701,66ca332e94754270be72c08f,4,14,null,,,,,,,,,<p style='font-size: 30px;'><strong>Okay</strong></p>,null,neutral_feedback,2,test,40,,,,,,,,,,,,,,,,,,,,,,,
,,,,,,,,,,,html-button-response,354,2.0.0,5715982,66ca332e94754270be72c08f,4,14,4276,,,,,,,,,"<img src= ""rock_img/I_Basalt_09.jpg"" style=""width:8cm; height:6.2cm;""><p>What type of rock is this?</p>",0,class_response,2,test,41,Basalt,Basalt,9,TRUE,2,2,,,,,,,,,,,,,,,,,
,,,,,,,,,,,html-keyboard-response,355,2.0.0,5716497,66ca332e94754270be72c08f,4,14,null,,,,,,,,,<p style='font-size: 30px;'><strong>Okay</strong></p>,null,neutral_feedback,2,test,41,,,,,,,,,,,,,,,,,,,,,,,
,,,,,,,,,,,html-button-response,356,2.0.0,5740475,66ca332e94754270be72c08f,4,14,23974,,,,,,,,,"<img src= ""rock_img/I_Basalt_10.jpg"" style=""width:8cm; height:5.85cm;""><p>What type of rock is this?</p>",0,class_response,2,test,42,Basalt,Basalt,10,TRUE,2,2,,,,,,,,,,,,,,,,,
,,,,,,,,,,,html-keyboard-response,357,2.0.0,5740991,66ca332e94754270be72c08f,4,14,null,,,,,,,,,<p style='font-size: 30px;'><strong>Okay</strong></p>,null,neutral_feedback,2,test,42,,,,,,,,,,,,,,,,,,,,,,,
,,,,,,,,,,,html-button-response,358,2.0.0,5754171,66ca332e94754270be72c08f,4,14,13175,,,,,,,,,"<img src= ""rock_img/I_Pumice_15.jpg"" style=""width:8cm; height:7.86cm;""><p>What type of rock is this?</p>",2,class_response,2,test,43,Pumice,Pumice,15,TRUE,8,8,,,,,,,,,,,,,,,,,
,,,,,,,,,,,html-keyboard-response,359,2.0.0,5754677,66ca332e94754270be72c08f,4,14,null,,,,,,,,,<p style='font-size: 30px;'><strong>Okay</strong></p>,null,neutral_feedback,2,test,43,,,,,,,,,,,,,,,,,,,,,,,
,,,,,,,,,,,html-button-response,360,2.0.0,5765448,66ca332e94754270be72c08f,4,14,10768,,,,,,,,,"<img src= ""rock_img/I_Diorite_14.jpg"" style=""width:8cm; height:5.71cm;""><p>What type of rock is this?</p>",0,class_response,2,test,44,Andesite,Diorite,14,FALSE,1,3,,,,,,,,,,,,,,,,,
,,,,,,,,,,,html-keyboard-response,361,2.0.0,5765965,66ca332e94754270be72c08f,4,14,null,,,,,,,,,<p style='font-size: 30px;'><strong>Okay</strong></p>,null,neutral_feedback,2,test,44,,,,,,,,,,,,,,,,,,,,,,,
,,,,,,,,,,,html-button-response,362,2.0.0,5769891,66ca332e94754270be72c08f,4,14,3923,,,,,,,,,"<img src= ""rock_img/I_Andesite_16.jpg"" style=""width:8cm; height:6.010000000000001cm;""><p>What type of rock is this?</p>",5,class_response,2,test,45,Andesite,Andesite,16,TRUE,1,1,,,,,,,,,,,,,,,,,
,,,,,,,,,,,html-keyboard-response,363,2.0.0,5770409,66ca332e94754270be72c08f,4,14,null,,,,,,,,,<p style='font-size: 30px;'><strong>Okay</strong></p>,null,neutral_feedback,2,test,45,,,,,,,,,,,,,,,,,,,,,,,
,,,,,,,,,,,html-button-response,364,2.0.0,5775224,66ca332e94754270be72c08f,4,14,4810,,,,,,,,,"<img src= ""rock_img/I_Diorite_06.jpg"" style=""width:8cm; height:6.03cm;""><p>What type of rock is this?</p>",5,class_response,2,test,46,Pegmatite,Diorite,6,FALSE,6,3,,,,,,,,,,,,,,,,,
,,,,,,,,,,,html-keyboard-response,365,2.0.0,5775738,66ca332e94754270be72c08f,4,14,null,,,,,,,,,<p style='font-size: 30px;'><strong>Okay</strong></p>,null,neutral_feedback,2,test,46,,,,,,,,,,,,,,,,,,,,,,,
,,,,,,,,,,,html-button-response,366,2.0.0,5780201,66ca332e94754270be72c08f,4,14,4459,,,,,,,,,"<img src= ""rock_img/I_Andesite_03.jpg"" style=""width:8cm; height:5.73cm;""><p>What type of rock is this?</p>",0,class_response,2,test,47,Andesite,Andesite,3,TRUE,1,1,,,,,,,,,,,,,,,,,
,,,,,,,,,,,html-keyboard-response,367,2.0.0,5780718,66ca332e94754270be72c08f,4,14,null,,,,,,,,,<p style='font-size: 30px;'><strong>Okay</strong></p>,null,neutral_feedback,2,test,47,,,,,,,,,,,,,,,,,,,,,,,
,,,,,,,,,,,html-button-response,368,2.0.0,5793982,66ca332e94754270be72c08f,4,14,13260,,,,,,,,,"<img src= ""rock_img/I_Diorite_10.jpg"" style=""width:8cm; height:5.949999999999999cm;""><p>What type of rock is this?</p>",2,class_response,2,test,48,Diorite,Diorite,10,TRUE,3,3,,,,,,,,,,,,,,,,,
,,,,,,,,,,,html-keyboard-response,369,2.0.0,5794490,66ca332e94754270be72c08f,4,14,null,,,,,,,,,<p style='font-size: 30px;'><strong>Okay</strong></p>,null,neutral_feedback,2,test,48,,,,,,,,,,,,,,,,,,,,,,,
,,,,,,,,,,,html-button-response,370,2.0.0,5830644,66ca332e94754270be72c08f,4,14,,,,,,,,,,,,cycle_feedback,,,,,,,,,,,,,,,,,,,,,,,,14679.6,21453.8,
,,,,,,,,,,,html-button-response,372,2.0.0,5832823,66ca332e94754270be72c08f,4,14,2177,,,,,,,,,,0,start_train,,,,,,,,,,,,,,,,,,,,,,,,,,
,,,,,,,,,,,html-button-response,374,2.0.0,5842138,66ca332e94754270be72c08f,4,14,9308,,,,,,,,,"<img src= ""rock_img/I_Pegmatite_15.jpg"" style=""width:8cm; height:6cm;""><p>What type of rock is this?</p>",5,class_response,3,train,1,Pegmatite,Pegmatite,15,TRUE,6,6,,,,,,,,,,,,,,,,,
,,,,,,,,,,,html-button-response,375,2.0.0,5844161,66ca332e94754270be72c08f,4,14,2018,,,,,,,,,"<img src= rock_img/I_Pegmatite_15.jpg style=""width:8cm; height:6cm;""><p style='font-size: 30px; color: green;'><strong>Correct!</strong></p><p style='font-size: 30px;'><strong>This rock is pegmatite</strong></p>",0,corr_feedback,3,train,1,,,,,,,,,,,,,,,,,,,,,,,
,,,,,,,,,,,html-button-response,376,2.0.0,5854863,66ca332e94754270be72c08f,4,14,10696,,,,,,,,,"<img src= ""rock_img/I_Diorite_13.jpg"" style=""width:8cm; height:6.29cm;""><p>What type of rock is this?</p>",2,class_response,3,train,2,Diorite,Diorite,13,TRUE,3,3,,,,,,,,,,,,,,,,,
,,,,,,,,,,,html-button-response,377,2.0.0,5856664,66ca332e94754270be72c08f,4,14,1796,,,,,,,,,"<img src= rock_img/I_Diorite_13.jpg style=""width:8cm; height:6.29cm;""><p style='font-size: 30px; color: green;'><strong>Correct!</strong></p><p style='font-size: 30px;'><strong>This rock is diorite</strong></p>",0,corr_feedback,3,train,2,,,,,,,,,,,,,,,,,,,,,,,
,,,,,,,,,,,html-button-response,378,2.0.0,5870596,66ca332e94754270be72c08f,4,14,13928,,,,,,,,,"<img src= ""rock_img/I_Andesite_09.jpg"" style=""width:8cm; height:6cm;""><p>What type of rock is this?</p>",0,class_response,3,train,3,Andesite,Andesite,9,TRUE,1,1,,,,,,,,,,,,,,,,,
,,,,,,,,,,,html-button-response,379,2.0.0,5873751,66ca332e94754270be72c08f,4,14,3150,,,,,,,,,"<img src= rock_img/I_Andesite_09.jpg style=""width:8cm; height:6cm;""><p style='font-size: 30px; color: green;'><strong>Correct!</strong></p><p style='font-size: 30px;'><strong>This rock is andesite</strong></p>",0,corr_feedback,3,train,3,,,,,,,,,,,,,,,,,,,,,,,
,,,,,,,,,,,html-button-response,380,2.0.0,5879699,66ca332e94754270be72c08f,4,14,5943,,,,,,,,,"<img src= ""rock_img/I_Obsidian_06.jpg"" style=""width:8cm; height:6.8cm;""><p>What type of rock is this?</p>",3,class_response,3,train,4,Gabbro,Obsidian,6,FALSE,4,5,,,,,,,,,,,,,,,,,
,,,,,,,,,,,html-button-response,381,2.0.0,5882635,66ca332e94754270be72c08f,4,14,2931,,,,,,,,,"<img src= rock_img/I_Obsidian_06.jpg style=""width:8cm; height:6.8cm;""><p style='font-size: 30px; color: red;'><strong>Incorrect!</strong></p><p style='font-size: 30px;'><strong>This rock is obsidian</strong></p>",0,corr_feedback,3,train,4,,,,,,,,,,,,,,,,,,,,,,,
,,,,,,,,,,,html-button-response,382,2.0.0,5886938,66ca332e94754270be72c08f,4,14,4299,,,,,,,,,"<img src= ""rock_img/I_Basalt_12.jpg"" style=""width:8cm; height:6.010000000000001cm;""><p>What type of rock is this?</p>",1,class_response,3,train,5,Basalt,Basalt,12,TRUE,2,2,,,,,,,,,,,,,,,,,
,,,,,,,,,,,html-button-response,383,2.0.0,5888480,66ca332e94754270be72c08f,4,14,1535,,,,,,,,,"<img src= rock_img/I_Basalt_12.jpg style=""width:8cm; height:6.010000000000001cm;""><p style='font-size: 30px; color: green;'><strong>Correct!</strong></p><p style='font-size: 30px;'><strong>This rock is basalt</strong></p>",0,corr_feedback,3,train,5,,,,,,,,,,,,,,,,,,,,,,,
,,,,,,,,,,,html-button-response,384,2.0.0,5890156,66ca332e94754270be72c08f,4,14,1671,,,,,,,,,"<img src= ""rock_img/I_Obsidian_16.jpg"" style=""width:8cm; height:9.3cm;""><p>What type of rock is this?</p>",4,class_response,3,train,6,Obsidian,Obsidian,16,TRUE,5,5,,,,,,,,,,,,,,,,,
,,,,,,,,,,,html-button-response,385,2.0.0,5891843,66ca332e94754270be72c08f,4,14,1683,,,,,,,,,"<img src= rock_img/I_Obsidian_16.jpg style=""width:8cm; height:9.3cm;""><p style='font-size: 30px; color: green;'><strong>Correct!</strong></p><p style='font-size: 30px;'><strong>This rock is obsidian</strong></p>",0,corr_feedback,3,train,6,,,,,,,,,,,,,,,,,,,,,,,
,,,,,,,,,,,html-button-response,386,2.0.0,5894623,66ca332e94754270be72c08f,4,14,2776,,,,,,,,,"<img src= ""rock_img/I_Pumice_03.jpg"" style=""width:8cm; height:6.64cm;""><p>What type of rock is this?</p>",7,class_response,3,train,7,Pumice,Pumice,3,TRUE,8,8,,,,,,,,,,,,,,,,,
,,,,,,,,,,,html-button-response,387,2.0.0,5896039,66ca332e94754270be72c08f,4,14,1412,,,,,,,,,"<img src= rock_img/I_Pumice_03.jpg style=""width:8cm; height:6.64cm;""><p style='font-size: 30px; color: green;'><strong>Correct!</strong></p><p style='font-size: 30px;'><strong>This rock is pumice</strong></p>",0,corr_feedback,3,train,7,,,,,,,,,,,,,,,,,,,,,,,
,,,,,,,,,,,html-button-response,388,2.0.0,5897939,66ca332e94754270be72c08f,4,14,1894,,,,,,,,,"<img src= ""rock_img/I_Peridotite_06.jpg"" style=""width:8cm; height:7.53cm;""><p>What type of rock is this?</p>",6,class_response,3,train,8,Peridotite,Peridotite,6,TRUE,7,7,,,,,,,,,,,,,,,,,
,,,,,,,,,,,html-button-response,389,2.0.0,5899279,66ca332e94754270be72c08f,4,14,1333,,,,,,,,,"<img src= rock_img/I_Peridotite_06.jpg style=""width:8cm; height:7.53cm;""><p style='font-size: 30px; color: green;'><strong>Correct!</strong></p><p style='font-size: 30px;'><strong>This rock is peridotite</strong></p>",0,corr_feedback,3,train,8,,,,,,,,,,,,,,,,,,,,,,,
,,,,,,,,,,,html-button-response,390,2.0.0,5909359,66ca332e94754270be72c08f,4,14,10074,,,,,,,,,"<img src= ""rock_img/I_Pegmatite_06.jpg"" style=""width:8cm; height:5.17cm;""><p>What type of rock is this?</p>",5,class_response,3,train,9,Pegmatite,Pegmatite,6,TRUE,6,6,,,,,,,,,,,,,,,,,
,,,,,,,,,,,html-button-response,391,2.0.0,5910657,66ca332e94754270be72c08f,4,14,1293,,,,,,,,,"<img src= rock_img/I_Pegmatite_06.jpg style=""width:8cm; height:5.17cm;""><p style='font-size: 30px; color: green;'><strong>Correct!</strong></p><p style='font-size: 30px;'><strong>This rock is pegmatite</strong></p>",0,corr_feedback,3,train,9,,,,,,,,,,,,,,,,,,,,,,,
,,,,,,,,,,,html-button-response,392,2.0.0,5912374,66ca332e94754270be72c08f,4,14,1713,,,,,,,,,"<img src= ""rock_img/I_Pumice_14.jpg"" style=""width:8cm; height:6.39cm;""><p>What type of rock is this?</p>",7,class_response,3,train,10,Pumice,Pumice,14,TRUE,8,8,,,,,,,,,,,,,,,,,
,,,,,,,,,,,html-button-response,393,2.0.0,5913734,66ca332e94754270be72c08f,4,14,1356,,,,,,,,,"<img src= rock_img/I_Pumice_14.jpg style=""width:8cm; height:6.39cm;""><p style='font-size: 30px; color: green;'><strong>Correct!</strong></p><p style='font-size: 30px;'><strong>This rock is pumice</strong></p>",0,corr_feedback,3,train,10,,,,,,,,,,,,,,,,,,,,,,,
,,,,,,,,,,,html-button-response,394,2.0.0,5917567,66ca332e94754270be72c08f,4,14,3830,,,,,,,,,"<img src= ""rock_img/I_Gabbro_09.jpg"" style=""width:8cm; height:7.279999999999999cm;""><p>What type of rock is this?</p>",0,class_response,3,train,11,Andesite,Gabbro,9,FALSE,1,4,,,,,,,,,,,,,,,,,
,,,,,,,,,,,html-button-response,395,2.0.0,5921679,66ca332e94754270be72c08f,4,14,4108,,,,,,,,,"<img src= rock_img/I_Gabbro_09.jpg style=""width:8cm; height:7.279999999999999cm;""><p style='font-size: 30px; color: red;'><strong>Incorrect!</strong></p><p style='font-size: 30px;'><strong>This rock is gabbro</strong></p>",0,corr_feedback,3,train,11,,,,,,,,,,,,,,,,,,,,,,,
,,,,,,,,,,,html-button-response,396,2.0.0,5924016,66ca332e94754270be72c08f,4,14,2333,,,,,,,,,"<img src= ""rock_img/I_Diorite_08.jpg"" style=""width:8cm; height:6.37cm;""><p>What type of rock is this?</p>",0,class_response,3,train,12,Andesite,Diorite,8,FALSE,1,3,,,,,,,,,,,,,,,,,
,,,,,,,,,,,html-button-response,397,2.0.0,5934747,66ca332e94754270be72c08f,4,14,10726,,,,,,,,,"<img src= rock_img/I_Diorite_08.jpg style=""width:8cm; height:6.37cm;""><p style='font-size: 30px; color: red;'><strong>Incorrect!</strong></p><p style='font-size: 30px;'><strong>This rock is diorite</strong></p>",0,corr_feedback,3,train,12,,,,,,,,,,,,,,,,,,,,,,,
,,,,,,,,,,,html-button-response,399,2.0.0,5937169,66ca332e94754270be72c08f,4,14,2417,,,,,,,,,,0,start_train,,,,,,,,,,,,,,,,,,,,,,,,,,
,,,,,,,,,,,html-button-response,400,2.0.0,5994254,66ca332e94754270be72c08f,4,14,,,,,,,,,,,,cat_selection,3,train,1,,,,,,,8051.3,49026.7,4,2,Diorite,Peridotite,,,,,,,,,,,
,,,,,,,,,,,paired-cat-display,401,1.0.0,6043404,66ca332e94754270be72c08f,4,14,,,,,,,,,,,,paired_cat_display,3,train,1,,,,,,,,,,,,,,fine grained texture ,13061.7,36056.8,has a darker color,,,,,,
,,,,,,,,,,,html-button-response,402,2.0.0,6048868,66ca332e94754270be72c08f,4,14,,,,,,,,,,,,cat_selection,3,train,2,,,,,,,4330.1,1128,6,1,Gabbro,Basalt,,,,,,,,,,,
