width,height,webaudio,browser,browser_version,mobile,os,fullscreen,vsync_rate,webcam,microphone,trial_type,trial_index,plugin_version,time_elapsed,subjID,condition,stimID,rt,url,success,value,timeout,failed_images,failed_audio,failed_video,view_history,stimulus,response,trialType,cycle,phase,trial,resp,cat,token,corr,resp_num,cat_num,time_fb1,time_fb2
1366,599,TRUE,chrome,130.0.0,FALSE,Windows 10,TRUE,51.77,TRUE,TRUE,browser-check,0,2.0.0,1331,64d518b2a5e95098500a176c,2,10,,,,,,,,,,,,,,,,,,,,,,,
,,,,,,,,,,,external-html,1,2.0.0,28827,64d518b2a5e95098500a176c,2,10,27395,consent_form.html,,,,,,,,,,,,,,,,,,,,,
,,,,,,,,,,,fullscreen,2,2.0.0,51514,64d518b2a5e95098500a176c,2,10,21677,,TRUE,,,,,,,,,,,,,,,,,,,,
,,,,,,,,,,,call-function,3,2.0.0,51518,64d518b2a5e95098500a176c,2,10,,,,{},,,,,,,,,,,,,,,,,,,
,,,,,,,,,,,preload,4,2.0.0,54165,64d518b2a5e95098500a176c,2,10,,,TRUE,,FALSE,[],[],[],,,,,,,,,,,,,,,
,,,,,,,,,,,instructions,5,2.0.0,90366,64d518b2a5e95098500a176c,2,10,36199,,,,,,,,"[{""page_index"":0,""viewing_time"":15157},{""page_index"":1,""viewing_time"":14478},{""page_index"":2,""viewing_time"":6563}]",,,,,,,,,,,,,,
,,,,,,,,,,,html-button-response,6,2.0.0,93170,64d518b2a5e95098500a176c,2,10,2801,,,,,,,,,,0,start_test,,,,,,,,,,,
,,,,,,,,,,,html-button-response,7,2.0.0,101080,64d518b2a5e95098500a176c,2,10,7906,,,,,,,,,"<img src= ""rock_img/I_Basalt_01.jpg"" style=""width:8cm; height:7.880000000000001cm;""><p>What type of rock is this?</p>",4,class_response,0,test,1,Obsidian,Basalt,1,FALSE,5,2,,
,,,,,,,,,,,html-keyboard-response,8,2.0.0,101584,64d518b2a5e95098500a176c,2,10,null,,,,,,,,,<p style='font-size: 30px;'><strong>Okay</strong></p>,null,neutral_feedback,0,test,1,,,,,,,,
,,,,,,,,,,,html-button-response,9,2.0.0,106198,64d518b2a5e95098500a176c,2,10,4610,,,,,,,,,"<img src= ""rock_img/I_Basalt_05.jpg"" style=""width:8cm; height:8.18cm;""><p>What type of rock is this?</p>",2,class_response,0,test,2,Diorite,Basalt,5,FALSE,3,2,,
,,,,,,,,,,,html-keyboard-response,10,2.0.0,106704,64d518b2a5e95098500a176c,2,10,null,,,,,,,,,<p style='font-size: 30px;'><strong>Okay</strong></p>,null,neutral_feedback,0,test,2,,,,,,,,
,,,,,,,,,,,html-button-response,11,2.0.0,108250,64d518b2a5e95098500a176c,2,10,1542,,,,,,,,,"<img src= ""rock_img/I_Gabbro_08.jpg"" style=""width:8cm; height:5.15cm;""><p>What type of rock is this?</p>",7,class_response,0,test,3,Pumice,Gabbro,8,FALSE,8,4,,
,,,,,,,,,,,html-keyboard-response,12,2.0.0,108755,64d518b2a5e95098500a176c,2,10,null,,,,,,,,,<p style='font-size: 30px;'><strong>Okay</strong></p>,null,neutral_feedback,0,test,3,,,,,,,,
,,,,,,,,,,,html-button-response,13,2.0.0,112113,64d518b2a5e95098500a176c,2,10,3356,,,,,,,,,"<img src= ""rock_img/I_Obsidian_05.jpg"" style=""width:8cm; height:6.33cm;""><p>What type of rock is this?</p>",1,class_response,0,test,4,Basalt,Obsidian,5,FALSE,2,5,,
,,,,,,,,,,,html-keyboard-response,14,2.0.0,112627,64d518b2a5e95098500a176c,2,10,null,,,,,,,,,<p style='font-size: 30px;'><strong>Okay</strong></p>,null,neutral_feedback,0,test,4,,,,,,,,
,,,,,,,,,,,html-button-response,15,2.0.0,116689,64d518b2a5e95098500a176c,2,10,4060,,,,,,,,,"<img src= ""rock_img/I_Pegmatite_05.jpg"" style=""width:8cm; height:7.300000000000001cm;""><p>What type of rock is this?</p>",7,class_response,0,test,5,Pumice,Pegmatite,5,FALSE,8,6,,
,,,,,,,,,,,html-keyboard-response,16,2.0.0,117207,64d518b2a5e95098500a176c,2,10,null,,,,,,,,,<p style='font-size: 30px;'><strong>Okay</strong></p>,null,neutral_feedback,0,test,5,,,,,,,,
,,,,,,,,,,,html-button-response,17,2.0.0,118654,64d518b2a5e95098500a176c,2,10,1443,,,,,,,,,"<img src= ""rock_img/I_Basalt_11.jpg"" style=""width:8cm; height:5.359999999999999cm;""><p>What type of rock is this?</p>",7,class_response,0,test,6,Pumice,Basalt,11,FALSE,8,2,,
,,,,,,,,,,,html-keyboard-response,18,2.0.0,119163,64d518b2a5e95098500a176c,2,10,null,,,,,,,,,<p style='font-size: 30px;'><strong>Okay</strong></p>,null,neutral_feedback,0,test,6,,,,,,,,
,,,,,,,,,,,html-button-response,19,2.0.0,120754,64d518b2a5e95098500a176c,2,10,1588,,,,,,,,,"<img src= ""rock_img/I_Obsidian_06.jpg"" style=""width:8cm; height:6.8cm;""><p>What type of rock is this?</p>",3,class_response,0,test,7,Gabbro,Obsidian,6,FALSE,4,5,,
,,,,,,,,,,,html-keyboard-response,20,2.0.0,121270,64d518b2a5e95098500a176c,2,10,null,,,,,,,,,<p style='font-size: 30px;'><strong>Okay</strong></p>,null,neutral_feedback,0,test,7,,,,,,,,
,,,,,,,,,,,html-button-response,21,2.0.0,123006,64d518b2a5e95098500a176c,2,10,1733,,,,,,,,,"<img src= ""rock_img/I_Peridotite_12.jpg"" style=""width:8cm; height:4.54cm;""><p>What type of rock is this?</p>",5,class_response,0,test,8,Pegmatite,Peridotite,12,FALSE,6,7,,
,,,,,,,,,,,html-keyboard-response,22,2.0.0,123516,64d518b2a5e95098500a176c,2,10,null,,,,,,,,,<p style='font-size: 30px;'><strong>Okay</strong></p>,null,neutral_feedback,0,test,8,,,,,,,,
,,,,,,,,,,,html-button-response,23,2.0.0,126274,64d518b2a5e95098500a176c,2,10,2756,,,,,,,,,"<img src= ""rock_img/I_Peridotite_13.jpg"" style=""width:8cm; height:7.58cm;""><p>What type of rock is this?</p>",6,class_response,0,test,9,Peridotite,Peridotite,13,TRUE,7,7,,
,,,,,,,,,,,html-keyboard-response,24,2.0.0,126792,64d518b2a5e95098500a176c,2,10,null,,,,,,,,,<p style='font-size: 30px;'><strong>Okay</strong></p>,null,neutral_feedback,0,test,9,,,,,,,,
,,,,,,,,,,,html-button-response,25,2.0.0,128134,64d518b2a5e95098500a176c,2,10,1340,,,,,,,,,"<img src= ""rock_img/I_Andesite_04.jpg"" style=""width:8cm; height:5.96cm;""><p>What type of rock is this?</p>",2,class_response,0,test,10,Diorite,Andesite,4,FALSE,3,1,,
,,,,,,,,,,,html-keyboard-response,26,2.0.0,128639,64d518b2a5e95098500a176c,2,10,null,,,,,,,,,<p style='font-size: 30px;'><strong>Okay</strong></p>,null,neutral_feedback,0,test,10,,,,,,,,
,,,,,,,,,,,html-button-response,27,2.0.0,130242,64d518b2a5e95098500a176c,2,10,1601,,,,,,,,,"<img src= ""rock_img/I_Gabbro_03.jpg"" style=""width:8cm; height:8.52cm;""><p>What type of rock is this?</p>",0,class_response,0,test,11,Andesite,Gabbro,3,FALSE,1,4,,
,,,,,,,,,,,html-keyboard-response,28,2.0.0,130753,64d518b2a5e95098500a176c,2,10,null,,,,,,,,,<p style='font-size: 30px;'><strong>Okay</strong></p>,null,neutral_feedback,0,test,11,,,,,,,,
,,,,,,,,,,,html-button-response,29,2.0.0,133150,64d518b2a5e95098500a176c,2,10,2394,,,,,,,,,"<img src= ""rock_img/I_Pumice_15.jpg"" style=""width:8cm; height:7.86cm;""><p>What type of rock is this?</p>",7,class_response,0,test,12,Pumice,Pumice,15,TRUE,8,8,,
,,,,,,,,,,,html-keyboard-response,30,2.0.0,133655,64d518b2a5e95098500a176c,2,10,null,,,,,,,,,<p style='font-size: 30px;'><strong>Okay</strong></p>,null,neutral_feedback,0,test,12,,,,,,,,
,,,,,,,,,,,html-button-response,31,2.0.0,134992,64d518b2a5e95098500a176c,2,10,1334,,,,,,,,,"<img src= ""rock_img/I_Pegmatite_16.jpg"" style=""width:8cm; height:5.8cm;""><p>What type of rock is this?</p>",4,class_response,0,test,13,Obsidian,Pegmatite,16,FALSE,5,6,,
,,,,,,,,,,,html-keyboard-response,32,2.0.0,135508,64d518b2a5e95098500a176c,2,10,null,,,,,,,,,<p style='font-size: 30px;'><strong>Okay</strong></p>,null,neutral_feedback,0,test,13,,,,,,,,
,,,,,,,,,,,html-button-response,33,2.0.0,139696,64d518b2a5e95098500a176c,2,10,4186,,,,,,,,,"<img src= ""rock_img/I_Diorite_11.jpg"" style=""width:8cm; height:7.11cm;""><p>What type of rock is this?</p>",2,class_response,0,test,14,Diorite,Diorite,11,TRUE,3,3,,
,,,,,,,,,,,html-keyboard-response,34,2.0.0,140200,64d518b2a5e95098500a176c,2,10,null,,,,,,,,,<p style='font-size: 30px;'><strong>Okay</strong></p>,null,neutral_feedback,0,test,14,,,,,,,,
,,,,,,,,,,,html-button-response,35,2.0.0,144000,64d518b2a5e95098500a176c,2,10,3797,,,,,,,,,"<img src= ""rock_img/I_Pumice_04.jpg"" style=""width:8cm; height:6.819999999999999cm;""><p>What type of rock is this?</p>",7,class_response,0,test,15,Pumice,Pumice,4,TRUE,8,8,,
,,,,,,,,,,,html-keyboard-response,36,2.0.0,144507,64d518b2a5e95098500a176c,2,10,null,,,,,,,,,<p style='font-size: 30px;'><strong>Okay</strong></p>,null,neutral_feedback,0,test,15,,,,,,,,
,,,,,,,,,,,html-button-response,37,2.0.0,146196,64d518b2a5e95098500a176c,2,10,1686,,,,,,,,,"<img src= ""rock_img/I_Gabbro_14.jpg"" style=""width:8cm; height:8.48cm;""><p>What type of rock is this?</p>",3,class_response,0,test,16,Gabbro,Gabbro,14,TRUE,4,4,,
,,,,,,,,,,,html-keyboard-response,38,2.0.0,146709,64d518b2a5e95098500a176c,2,10,null,,,,,,,,,<p style='font-size: 30px;'><strong>Okay</strong></p>,null,neutral_feedback,0,test,16,,,,,,,,
,,,,,,,,,,,html-button-response,39,2.0.0,148922,64d518b2a5e95098500a176c,2,10,2210,,,,,,,,,"<img src= ""rock_img/I_Pegmatite_10.jpg"" style=""width:8cm; height:4.16cm;""><p>What type of rock is this?</p>",4,class_response,0,test,17,Obsidian,Pegmatite,10,FALSE,5,6,,
,,,,,,,,,,,html-keyboard-response,40,2.0.0,149431,64d518b2a5e95098500a176c,2,10,null,,,,,,,,,<p style='font-size: 30px;'><strong>Okay</strong></p>,null,neutral_feedback,0,test,17,,,,,,,,
,,,,,,,,,,,html-button-response,41,2.0.0,150772,64d518b2a5e95098500a176c,2,10,1339,,,,,,,,,"<img src= ""rock_img/I_Andesite_05.jpg"" style=""width:8cm; height:4.12cm;""><p>What type of rock is this?</p>",0,class_response,0,test,18,Andesite,Andesite,5,TRUE,1,1,,
,,,,,,,,,,,html-keyboard-response,42,2.0.0,151287,64d518b2a5e95098500a176c,2,10,null,,,,,,,,,<p style='font-size: 30px;'><strong>Okay</strong></p>,null,neutral_feedback,0,test,18,,,,,,,,
,,,,,,,,,,,html-button-response,43,2.0.0,152960,64d518b2a5e95098500a176c,2,10,1670,,,,,,,,,"<img src= ""rock_img/I_Andesite_10.jpg"" style=""width:8cm; height:4.16cm;""><p>What type of rock is this?</p>",5,class_response,0,test,19,Pegmatite,Andesite,10,FALSE,6,1,,
,,,,,,,,,,,html-keyboard-response,44,2.0.0,153470,64d518b2a5e95098500a176c,2,10,null,,,,,,,,,<p style='font-size: 30px;'><strong>Okay</strong></p>,null,neutral_feedback,0,test,19,,,,,,,,
,,,,,,,,,,,html-button-response,45,2.0.0,160530,64d518b2a5e95098500a176c,2,10,7057,,,,,,,,,"<img src= ""rock_img/I_Andesite_01.jpg"" style=""width:8cm; height:5.87cm;""><p>What type of rock is this?</p>",1,class_response,0,test,20,Basalt,Andesite,1,FALSE,2,1,,
,,,,,,,,,,,html-keyboard-response,46,2.0.0,161046,64d518b2a5e95098500a176c,2,10,null,,,,,,,,,<p style='font-size: 30px;'><strong>Okay</strong></p>,null,neutral_feedback,0,test,20,,,,,,,,
,,,,,,,,,,,html-button-response,47,2.0.0,167184,64d518b2a5e95098500a176c,2,10,6135,,,,,,,,,"<img src= ""rock_img/I_Peridotite_10.jpg"" style=""width:8cm; height:5.390000000000001cm;""><p>What type of rock is this?</p>",7,class_response,0,test,21,Pumice,Peridotite,10,FALSE,8,7,,
,,,,,,,,,,,html-keyboard-response,48,2.0.0,167687,64d518b2a5e95098500a176c,2,10,null,,,,,,,,,<p style='font-size: 30px;'><strong>Okay</strong></p>,null,neutral_feedback,0,test,21,,,,,,,,
,,,,,,,,,,,html-button-response,49,2.0.0,169516,64d518b2a5e95098500a176c,2,10,1826,,,,,,,,,"<img src= ""rock_img/I_Basalt_14.jpg"" style=""width:8cm; height:5.82cm;""><p>What type of rock is this?</p>",6,class_response,0,test,22,Peridotite,Basalt,14,FALSE,7,2,,
,,,,,,,,,,,html-keyboard-response,50,2.0.0,170022,64d518b2a5e95098500a176c,2,10,null,,,,,,,,,<p style='font-size: 30px;'><strong>Okay</strong></p>,null,neutral_feedback,0,test,22,,,,,,,,
,,,,,,,,,,,html-button-response,51,2.0.0,172416,64d518b2a5e95098500a176c,2,10,2392,,,,,,,,,"<img src= ""rock_img/I_Obsidian_14.jpg"" style=""width:8cm; height:7.64cm;""><p>What type of rock is this?</p>",4,class_response,0,test,23,Obsidian,Obsidian,14,TRUE,5,5,,
,,,,,,,,,,,html-keyboard-response,52,2.0.0,172922,64d518b2a5e95098500a176c,2,10,null,,,,,,,,,<p style='font-size: 30px;'><strong>Okay</strong></p>,null,neutral_feedback,0,test,23,,,,,,,,
,,,,,,,,,,,html-button-response,53,2.0.0,174572,64d518b2a5e95098500a176c,2,10,1648,,,,,,,,,"<img src= ""rock_img/I_Andesite_07.jpg"" style=""width:8cm; height:5.93cm;""><p>What type of rock is this?</p>",5,class_response,0,test,24,Pegmatite,Andesite,7,FALSE,6,1,,
,,,,,,,,,,,html-keyboard-response,54,2.0.0,175088,64d518b2a5e95098500a176c,2,10,null,,,,,,,,,<p style='font-size: 30px;'><strong>Okay</strong></p>,null,neutral_feedback,0,test,24,,,,,,,,
,,,,,,,,,,,html-button-response,55,2.0.0,177158,64d518b2a5e95098500a176c,2,10,2067,,,,,,,,,"<img src= ""rock_img/I_Pumice_06.jpg"" style=""width:8cm; height:6.9399999999999995cm;""><p>What type of rock is this?</p>",7,class_response,0,test,25,Pumice,Pumice,6,TRUE,8,8,,
,,,,,,,,,,,html-keyboard-response,56,2.0.0,177669,64d518b2a5e95098500a176c,2,10,null,,,,,,,,,<p style='font-size: 30px;'><strong>Okay</strong></p>,null,neutral_feedback,0,test,25,,,,,,,,
,,,,,,,,,,,html-button-response,57,2.0.0,179948,64d518b2a5e95098500a176c,2,10,2277,,,,,,,,,"<img src= ""rock_img/I_Obsidian_09.jpg"" style=""width:8cm; height:5cm;""><p>What type of rock is this?</p>",4,class_response,0,test,26,Obsidian,Obsidian,9,TRUE,5,5,,
,,,,,,,,,,,html-keyboard-response,58,2.0.0,180460,64d518b2a5e95098500a176c,2,10,null,,,,,,,,,<p style='font-size: 30px;'><strong>Okay</strong></p>,null,neutral_feedback,0,test,26,,,,,,,,
,,,,,,,,,,,html-button-response,59,2.0.0,182255,64d518b2a5e95098500a176c,2,10,1792,,,,,,,,,"<img src= ""rock_img/I_Pegmatite_11.jpg"" style=""width:8cm; height:8.14cm;""><p>What type of rock is this?</p>",4,class_response,0,test,27,Obsidian,Pegmatite,11,FALSE,5,6,,
,,,,,,,,,,,html-keyboard-response,60,2.0.0,182767,64d518b2a5e95098500a176c,2,10,null,,,,,,,,,<p style='font-size: 30px;'><strong>Okay</strong></p>,null,neutral_feedback,0,test,27,,,,,,,,
,,,,,,,,,,,html-button-response,61,2.0.0,184530,64d518b2a5e95098500a176c,2,10,1761,,,,,,,,,"<img src= ""rock_img/I_Basalt_04.jpg"" style=""width:8cm; height:7.53cm;""><p>What type of rock is this?</p>",1,class_response,0,test,28,Basalt,Basalt,4,TRUE,2,2,,
,,,,,,,,,,,html-keyboard-response,62,2.0.0,185038,64d518b2a5e95098500a176c,2,10,null,,,,,,,,,<p style='font-size: 30px;'><strong>Okay</strong></p>,null,neutral_feedback,0,test,28,,,,,,,,
,,,,,,,,,,,html-button-response,63,2.0.0,187865,64d518b2a5e95098500a176c,2,10,2824,,,,,,,,,"<img src= ""rock_img/I_Obsidian_11.jpg"" style=""width:8cm; height:6.05cm;""><p>What type of rock is this?</p>",4,class_response,0,test,29,Obsidian,Obsidian,11,TRUE,5,5,,
,,,,,,,,,,,html-keyboard-response,64,2.0.0,188372,64d518b2a5e95098500a176c,2,10,null,,,,,,,,,<p style='font-size: 30px;'><strong>Okay</strong></p>,null,neutral_feedback,0,test,29,,,,,,,,
,,,,,,,,,,,html-button-response,65,2.0.0,190044,64d518b2a5e95098500a176c,2,10,1670,,,,,,,,,"<img src= ""rock_img/I_Gabbro_01.jpg"" style=""width:8cm; height:5.21cm;""><p>What type of rock is this?</p>",6,class_response,0,test,30,Peridotite,Gabbro,1,FALSE,7,4,,
,,,,,,,,,,,html-keyboard-response,66,2.0.0,190551,64d518b2a5e95098500a176c,2,10,null,,,,,,,,,<p style='font-size: 30px;'><strong>Okay</strong></p>,null,neutral_feedback,0,test,30,,,,,,,,
,,,,,,,,,,,html-button-response,67,2.0.0,192024,64d518b2a5e95098500a176c,2,10,1471,,,,,,,,,"<img src= ""rock_img/I_Basalt_02.jpg"" style=""width:8cm; height:6.45cm;""><p>What type of rock is this?</p>",2,class_response,0,test,31,Diorite,Basalt,2,FALSE,3,2,,
,,,,,,,,,,,html-keyboard-response,68,2.0.0,192534,64d518b2a5e95098500a176c,2,10,null,,,,,,,,,<p style='font-size: 30px;'><strong>Okay</strong></p>,null,neutral_feedback,0,test,31,,,,,,,,
,,,,,,,,,,,html-button-response,69,2.0.0,193788,64d518b2a5e95098500a176c,2,10,1252,,,,,,,,,"<img src= ""rock_img/I_Peridotite_16.jpg"" style=""width:8cm; height:6.989999999999999cm;""><p>What type of rock is this?</p>",2,class_response,0,test,32,Diorite,Peridotite,16,FALSE,3,7,,
,,,,,,,,,,,html-keyboard-response,70,2.0.0,194304,64d518b2a5e95098500a176c,2,10,null,,,,,,,,,<p style='font-size: 30px;'><strong>Okay</strong></p>,null,neutral_feedback,0,test,32,,,,,,,,
,,,,,,,,,,,html-button-response,71,2.0.0,195878,64d518b2a5e95098500a176c,2,10,1572,,,,,,,,,"<img src= ""rock_img/I_Pumice_14.jpg"" style=""width:8cm; height:6.39cm;""><p>What type of rock is this?</p>",7,class_response,0,test,33,Pumice,Pumice,14,TRUE,8,8,,
,,,,,,,,,,,html-keyboard-response,72,2.0.0,196381,64d518b2a5e95098500a176c,2,10,null,,,,,,,,,<p style='font-size: 30px;'><strong>Okay</strong></p>,null,neutral_feedback,0,test,33,,,,,,,,
,,,,,,,,,,,html-button-response,73,2.0.0,197923,64d518b2a5e95098500a176c,2,10,1539,,,,,,,,,"<img src= ""rock_img/I_Diorite_06.jpg"" style=""width:8cm; height:6.03cm;""><p>What type of rock is this?</p>",5,class_response,0,test,34,Pegmatite,Diorite,6,FALSE,6,3,,
,,,,,,,,,,,html-keyboard-response,74,2.0.0,198437,64d518b2a5e95098500a176c,2,10,null,,,,,,,,,<p style='font-size: 30px;'><strong>Okay</strong></p>,null,neutral_feedback,0,test,34,,,,,,,,
,,,,,,,,,,,html-button-response,75,2.0.0,199983,64d518b2a5e95098500a176c,2,10,1543,,,,,,,,,"<img src= ""rock_img/I_Pumice_09.jpg"" style=""width:8cm; height:6.44cm;""><p>What type of rock is this?</p>",7,class_response,0,test,35,Pumice,Pumice,9,TRUE,8,8,,
,,,,,,,,,,,html-keyboard-response,76,2.0.0,200493,64d518b2a5e95098500a176c,2,10,null,,,,,,,,,<p style='font-size: 30px;'><strong>Okay</strong></p>,null,neutral_feedback,0,test,35,,,,,,,,
,,,,,,,,,,,html-button-response,77,2.0.0,204534,64d518b2a5e95098500a176c,2,10,4039,,,,,,,,,"<img src= ""rock_img/I_Diorite_16.jpg"" style=""width:8cm; height:6.74cm;""><p>What type of rock is this?</p>",1,class_response,0,test,36,Basalt,Diorite,16,FALSE,2,3,,
,,,,,,,,,,,html-keyboard-response,78,2.0.0,205050,64d518b2a5e95098500a176c,2,10,null,,,,,,,,,<p style='font-size: 30px;'><strong>Okay</strong></p>,null,neutral_feedback,0,test,36,,,,,,,,
,,,,,,,,,,,html-button-response,79,2.0.0,206979,64d518b2a5e95098500a176c,2,10,1926,,,,,,,,,"<img src= ""rock_img/I_Gabbro_13.jpg"" style=""width:8cm; height:5.08cm;""><p>What type of rock is this?</p>",5,class_response,0,test,37,Pegmatite,Gabbro,13,FALSE,6,4,,
,,,,,,,,,,,html-keyboard-response,80,2.0.0,207481,64d518b2a5e95098500a176c,2,10,null,,,,,,,,,<p style='font-size: 30px;'><strong>Okay</strong></p>,null,neutral_feedback,0,test,37,,,,,,,,
,,,,,,,,,,,html-button-response,81,2.0.0,208740,64d518b2a5e95098500a176c,2,10,1256,,,,,,,,,"<img src= ""rock_img/I_Peridotite_04.jpg"" style=""width:8cm; height:6.680000000000001cm;""><p>What type of rock is this?</p>",0,class_response,0,test,38,Andesite,Peridotite,4,FALSE,1,7,,
,,,,,,,,,,,html-keyboard-response,82,2.0.0,209254,64d518b2a5e95098500a176c,2,10,null,,,,,,,,,<p style='font-size: 30px;'><strong>Okay</strong></p>,null,neutral_feedback,0,test,38,,,,,,,,
,,,,,,,,,,,html-button-response,83,2.0.0,211376,64d518b2a5e95098500a176c,2,10,2120,,,,,,,,,"<img src= ""rock_img/I_Gabbro_16.jpg"" style=""width:8cm; height:6.44cm;""><p>What type of rock is this?</p>",2,class_response,0,test,39,Diorite,Gabbro,16,FALSE,3,4,,
,,,,,,,,,,,html-keyboard-response,84,2.0.0,211888,64d518b2a5e95098500a176c,2,10,null,,,,,,,,,<p style='font-size: 30px;'><strong>Okay</strong></p>,null,neutral_feedback,0,test,39,,,,,,,,
,,,,,,,,,,,html-button-response,85,2.0.0,213589,64d518b2a5e95098500a176c,2,10,1698,,,,,,,,,"<img src= ""rock_img/I_Pegmatite_13.jpg"" style=""width:8cm; height:4.95cm;""><p>What type of rock is this?</p>",3,class_response,0,test,40,Gabbro,Pegmatite,13,FALSE,4,6,,
,,,,,,,,,,,html-keyboard-response,86,2.0.0,214104,64d518b2a5e95098500a176c,2,10,null,,,,,,,,,<p style='font-size: 30px;'><strong>Okay</strong></p>,null,neutral_feedback,0,test,40,,,,,,,,
,,,,,,,,,,,html-button-response,87,2.0.0,215648,64d518b2a5e95098500a176c,2,10,1542,,,,,,,,,"<img src= ""rock_img/I_Diorite_02.jpg"" style=""width:8cm; height:6.27cm;""><p>What type of rock is this?</p>",6,class_response,0,test,41,Peridotite,Diorite,2,FALSE,7,3,,
,,,,,,,,,,,html-keyboard-response,88,2.0.0,216164,64d518b2a5e95098500a176c,2,10,null,,,,,,,,,<p style='font-size: 30px;'><strong>Okay</strong></p>,null,neutral_feedback,0,test,41,,,,,,,,
,,,,,,,,,,,html-button-response,89,2.0.0,217924,64d518b2a5e95098500a176c,2,10,1758,,,,,,,,,"<img src= ""rock_img/I_Peridotite_14.jpg"" style=""width:8cm; height:5.3cm;""><p>What type of rock is this?</p>",5,class_response,0,test,42,Pegmatite,Peridotite,14,FALSE,6,7,,
,,,,,,,,,,,html-keyboard-response,90,2.0.0,218438,64d518b2a5e95098500a176c,2,10,null,,,,,,,,,<p style='font-size: 30px;'><strong>Okay</strong></p>,null,neutral_feedback,0,test,42,,,,,,,,
,,,,,,,,,,,html-button-response,91,2.0.0,219840,64d518b2a5e95098500a176c,2,10,1400,,,,,,,,,"<img src= ""rock_img/I_Obsidian_07.jpg"" style=""width:8cm; height:4.76cm;""><p>What type of rock is this?</p>",4,class_response,0,test,43,Obsidian,Obsidian,7,TRUE,5,5,,
,,,,,,,,,,,html-keyboard-response,92,2.0.0,220356,64d518b2a5e95098500a176c,2,10,null,,,,,,,,,<p style='font-size: 30px;'><strong>Okay</strong></p>,null,neutral_feedback,0,test,43,,,,,,,,
,,,,,,,,,,,html-button-response,93,2.0.0,221898,64d518b2a5e95098500a176c,2,10,1541,,,,,,,,,"<img src= ""rock_img/I_Pegmatite_06.jpg"" style=""width:8cm; height:5.17cm;""><p>What type of rock is this?</p>",1,class_response,0,test,44,Basalt,Pegmatite,6,FALSE,2,6,,
,,,,,,,,,,,html-keyboard-response,94,2.0.0,222415,64d518b2a5e95098500a176c,2,10,null,,,,,,,,,<p style='font-size: 30px;'><strong>Okay</strong></p>,null,neutral_feedback,0,test,44,,,,,,,,
,,,,,,,,,,,html-button-response,95,2.0.0,224095,64d518b2a5e95098500a176c,2,10,1677,,,,,,,,,"<img src= ""rock_img/I_Pumice_03.jpg"" style=""width:8cm; height:6.64cm;""><p>What type of rock is this?</p>",7,class_response,0,test,45,Pumice,Pumice,3,TRUE,8,8,,
,,,,,,,,,,,html-keyboard-response,96,2.0.0,224609,64d518b2a5e95098500a176c,2,10,null,,,,,,,,,<p style='font-size: 30px;'><strong>Okay</strong></p>,null,neutral_feedback,0,test,45,,,,,,,,
,,,,,,,,,,,html-button-response,97,2.0.0,227452,64d518b2a5e95098500a176c,2,10,2841,,,,,,,,,"<img src= ""rock_img/I_Diorite_14.jpg"" style=""width:8cm; height:5.71cm;""><p>What type of rock is this?</p>",3,class_response,0,test,46,Gabbro,Diorite,14,FALSE,4,3,,
,,,,,,,,,,,html-keyboard-response,98,2.0.0,227962,64d518b2a5e95098500a176c,2,10,null,,,,,,,,,<p style='font-size: 30px;'><strong>Okay</strong></p>,null,neutral_feedback,0,test,46,,,,,,,,
,,,,,,,,,,,html-button-response,99,2.0.0,230137,64d518b2a5e95098500a176c,2,10,2172,,,,,,,,,"<img src= ""rock_img/I_Diorite_13.jpg"" style=""width:8cm; height:6.29cm;""><p>What type of rock is this?</p>",2,class_response,0,test,47,Diorite,Diorite,13,TRUE,3,3,,
,,,,,,,,,,,html-keyboard-response,100,2.0.0,230652,64d518b2a5e95098500a176c,2,10,null,,,,,,,,,<p style='font-size: 30px;'><strong>Okay</strong></p>,null,neutral_feedback,0,test,47,,,,,,,,
,,,,,,,,,,,html-button-response,101,2.0.0,232237,64d518b2a5e95098500a176c,2,10,1583,,,,,,,,,"<img src= ""rock_img/I_Andesite_16.jpg"" style=""width:8cm; height:6.010000000000001cm;""><p>What type of rock is this?</p>",3,class_response,0,test,48,Gabbro,Andesite,16,FALSE,4,1,,
,,,,,,,,,,,html-keyboard-response,102,2.0.0,232743,64d518b2a5e95098500a176c,2,10,null,,,,,,,,,<p style='font-size: 30px;'><strong>Okay</strong></p>,null,neutral_feedback,0,test,48,,,,,,,,
,,,,,,,,,,,instructions,103,2.0.0,274406,64d518b2a5e95098500a176c,2,10,41623,,,,,,,,"[{""page_index"":0,""viewing_time"":32723},{""page_index"":1,""viewing_time"":4634},{""page_index"":2,""viewing_time"":4266}]",,,,,,,,,,,,,,
,,,,,,,,,,,html-button-response,104,2.0.0,277340,64d518b2a5e95098500a176c,2,10,2932,,,,,,,,,,0,start_train,,,,,,,,,,,
,,,,,,,,,,,html-button-response,105,2.0.0,279279,64d518b2a5e95098500a176c,2,10,1935,,,,,,,,,"<img src= ""rock_img/I_Basalt_12.jpg"" style=""width:8cm; height:6.010000000000001cm;""><p>What type of rock is this?</p>",2,class_response,1,train,1,Diorite,Basalt,12,FALSE,3,2,,
,,,,,,,,,,,html-button-response,106,2.0.0,281298,64d518b2a5e95098500a176c,2,10,2017,,,,,,,,,"<img src= rock_img/I_Basalt_12.jpg style=""width:8cm; height:6.010000000000001cm;""><p style='font-size: 30px; color: red;'><strong>Incorrect!</strong></p><p style='font-size: 30px;'><strong>This rock is basalt</strong></p>",0,corr_feedback,1,train,1,,,,,,,,
,,,,,,,,,,,html-button-response,107,2.0.0,283148,64d518b2a5e95098500a176c,2,10,1847,,,,,,,,,"<img src= ""rock_img/I_Obsidian_08.jpg"" style=""width:8cm; height:7.39cm;""><p>What type of rock is this?</p>",4,class_response,1,train,2,Obsidian,Obsidian,8,TRUE,5,5,,
,,,,,,,,,,,html-button-response,108,2.0.0,285110,64d518b2a5e95098500a176c,2,10,1960,,,,,,,,,"<img src= rock_img/I_Obsidian_08.jpg style=""width:8cm; height:7.39cm;""><p style='font-size: 30px; color: green;'><strong>Correct!</strong></p><p style='font-size: 30px;'><strong>This rock is obsidian</strong></p>",0,corr_feedback,1,train,2,,,,,,,,
,,,,,,,,,,,html-button-response,109,2.0.0,287210,64d518b2a5e95098500a176c,2,10,2097,,,,,,,,,"<img src= ""rock_img/I_Andesite_09.jpg"" style=""width:8cm; height:6cm;""><p>What type of rock is this?</p>",5,class_response,1,train,3,Pegmatite,Andesite,9,FALSE,6,1,,
,,,,,,,,,,,html-button-response,110,2.0.0,288788,64d518b2a5e95098500a176c,2,10,1576,,,,,,,,,"<img src= rock_img/I_Andesite_09.jpg style=""width:8cm; height:6cm;""><p style='font-size: 30px; color: red;'><strong>Incorrect!</strong></p><p style='font-size: 30px;'><strong>This rock is andesite</strong></p>",0,corr_feedback,1,train,3,,,,,,,,
,,,,,,,,,,,html-button-response,111,2.0.0,289558,64d518b2a5e95098500a176c,2,10,767,,,,,,,,,"<img src= ""rock_img/I_Gabbro_05.jpg"" style=""width:8cm; height:6cm;""><p>What type of rock is this?</p>",0,class_response,1,train,4,Andesite,Gabbro,5,FALSE,1,4,,
,,,,,,,,,,,html-button-response,112,2.0.0,293822,64d518b2a5e95098500a176c,2,10,4261,,,,,,,,,"<img src= rock_img/I_Gabbro_05.jpg style=""width:8cm; height:6cm;""><p style='font-size: 30px; color: red;'><strong>Incorrect!</strong></p><p style='font-size: 30px;'><strong>This rock is gabbro</strong></p>",0,corr_feedback,1,train,4,,,,,,,,
,,,,,,,,,,,html-button-response,113,2.0.0,296499,64d518b2a5e95098500a176c,2,10,2674,,,,,,,,,"<img src= ""rock_img/I_Gabbro_15.jpg"" style=""width:8cm; height:6.29cm;""><p>What type of rock is this?</p>",6,class_response,1,train,5,Peridotite,Gabbro,15,FALSE,7,4,,
,,,,,,,,,,,html-button-response,114,2.0.0,298086,64d518b2a5e95098500a176c,2,10,1585,,,,,,,,,"<img src= rock_img/I_Gabbro_15.jpg style=""width:8cm; height:6.29cm;""><p style='font-size: 30px; color: red;'><strong>Incorrect!</strong></p><p style='font-size: 30px;'><strong>This rock is gabbro</strong></p>",0,corr_feedback,1,train,5,,,,,,,,
,,,,,,,,,,,html-button-response,115,2.0.0,301316,64d518b2a5e95098500a176c,2,10,3227,,,,,,,,,"<img src= ""rock_img/I_Basalt_16.jpg"" style=""width:8cm; height:7.659999999999999cm;""><p>What type of rock is this?</p>",7,class_response,1,train,6,Pumice,Basalt,16,FALSE,8,2,,
,,,,,,,,,,,html-button-response,116,2.0.0,302846,64d518b2a5e95098500a176c,2,10,1527,,,,,,,,,"<img src= rock_img/I_Basalt_16.jpg style=""width:8cm; height:7.659999999999999cm;""><p style='font-size: 30px; color: red;'><strong>Incorrect!</strong></p><p style='font-size: 30px;'><strong>This rock is basalt</strong></p>",0,corr_feedback,1,train,6,,,,,,,,
,,,,,,,,,,,html-button-response,117,2.0.0,305546,64d518b2a5e95098500a176c,2,10,2698,,,,,,,,,"<img src= ""rock_img/I_Peridotite_06.jpg"" style=""width:8cm; height:7.53cm;""><p>What type of rock is this?</p>",2,class_response,1,train,7,Diorite,Peridotite,6,FALSE,3,7,,
,,,,,,,,,,,html-button-response,118,2.0.0,307372,64d518b2a5e95098500a176c,2,10,1824,,,,,,,,,"<img src= rock_img/I_Peridotite_06.jpg style=""width:8cm; height:7.53cm;""><p style='font-size: 30px; color: red;'><strong>Incorrect!</strong></p><p style='font-size: 30px;'><strong>This rock is peridotite</strong></p>",0,corr_feedback,1,train,7,,,,,,,,
,,,,,,,,,,,html-button-response,119,2.0.0,310826,64d518b2a5e95098500a176c,2,10,3451,,,,,,,,,"<img src= ""rock_img/I_Pegmatite_08.jpg"" style=""width:8cm; height:7.68cm;""><p>What type of rock is this?</p>",0,class_response,1,train,8,Andesite,Pegmatite,8,FALSE,1,6,,
,,,,,,,,,,,html-button-response,120,2.0.0,312204,64d518b2a5e95098500a176c,2,10,1376,,,,,,,,,"<img src= rock_img/I_Pegmatite_08.jpg style=""width:8cm; height:7.68cm;""><p style='font-size: 30px; color: red;'><strong>Incorrect!</strong></p><p style='font-size: 30px;'><strong>This rock is pegmatite</strong></p>",0,corr_feedback,1,train,8,,,,,,,,
,,,,,,,,,,,html-button-response,121,2.0.0,313116,64d518b2a5e95098500a176c,2,10,910,,,,,,,,,"<img src= ""rock_img/I_Diorite_15.jpg"" style=""width:8cm; height:5.54cm;""><p>What type of rock is this?</p>",5,class_response,1,train,9,Pegmatite,Diorite,15,FALSE,6,3,,
,,,,,,,,,,,html-button-response,122,2.0.0,316251,64d518b2a5e95098500a176c,2,10,3131,,,,,,,,,"<img src= rock_img/I_Diorite_15.jpg style=""width:8cm; height:5.54cm;""><p style='font-size: 30px; color: red;'><strong>Incorrect!</strong></p><p style='font-size: 30px;'><strong>This rock is diorite</strong></p>",0,corr_feedback,1,train,9,,,,,,,,
,,,,,,,,,,,html-button-response,123,2.0.0,318110,64d518b2a5e95098500a176c,2,10,1857,,,,,,,,,"<img src= ""rock_img/I_Andesite_02.jpg"" style=""width:8cm; height:8.5cm;""><p>What type of rock is this?</p>",6,class_response,1,train,10,Peridotite,Andesite,2,FALSE,7,1,,
,,,,,,,,,,,html-button-response,124,2.0.0,319872,64d518b2a5e95098500a176c,2,10,1760,,,,,,,,,"<img src= rock_img/I_Andesite_02.jpg style=""width:8cm; height:8.5cm;""><p style='font-size: 30px; color: red;'><strong>Incorrect!</strong></p><p style='font-size: 30px;'><strong>This rock is andesite</strong></p>",0,corr_feedback,1,train,10,,,,,,,,
,,,,,,,,,,,html-button-response,125,2.0.0,321874,64d518b2a5e95098500a176c,2,10,1999,,,,,,,,,"<img src= ""rock_img/I_Pumice_13.jpg"" style=""width:8cm; height:8.200000000000001cm;""><p>What type of rock is this?</p>",7,class_response,1,train,11,Pumice,Pumice,13,TRUE,8,8,,
,,,,,,,,,,,html-button-response,126,2.0.0,331168,64d518b2a5e95098500a176c,2,10,9292,,,,,,,,,"<img src= rock_img/I_Pumice_13.jpg style=""width:8cm; height:8.200000000000001cm;""><p style='font-size: 30px; color: green;'><strong>Correct!</strong></p><p style='font-size: 30px;'><strong>This rock is pumice</strong></p>",0,corr_feedback,1,train,11,,,,,,,,
,,,,,,,,,,,html-button-response,127,2.0.0,333122,64d518b2a5e95098500a176c,2,10,1951,,,,,,,,,"<img src= ""rock_img/I_Pegmatite_09.jpg"" style=""width:8cm; height:4.03cm;""><p>What type of rock is this?</p>",4,class_response,1,train,12,Obsidian,Pegmatite,9,FALSE,5,6,,
,,,,,,,,,,,html-button-response,128,2.0.0,334500,64d518b2a5e95098500a176c,2,10,1376,,,,,,,,,"<img src= rock_img/I_Pegmatite_09.jpg style=""width:8cm; height:4.03cm;""><p style='font-size: 30px; color: red;'><strong>Incorrect!</strong></p><p style='font-size: 30px;'><strong>This rock is pegmatite</strong></p>",0,corr_feedback,1,train,12,,,,,,,,
,,,,,,,,,,,html-button-response,129,2.0.0,337408,64d518b2a5e95098500a176c,2,10,2906,,,,,,,,,"<img src= ""rock_img/I_Andesite_11.jpg"" style=""width:8cm; height:4.92cm;""><p>What type of rock is this?</p>",1,class_response,1,train,13,Basalt,Andesite,11,FALSE,2,1,,
,,,,,,,,,,,html-button-response,130,2.0.0,338610,64d518b2a5e95098500a176c,2,10,1200,,,,,,,,,"<img src= rock_img/I_Andesite_11.jpg style=""width:8cm; height:4.92cm;""><p style='font-size: 30px; color: red;'><strong>Incorrect!</strong></p><p style='font-size: 30px;'><strong>This rock is andesite</strong></p>",0,corr_feedback,1,train,13,,,,,,,,
,,,,,,,,,,,html-button-response,131,2.0.0,340533,64d518b2a5e95098500a176c,2,10,1919,,,,,,,,,"<img src= ""rock_img/I_Obsidian_02.jpg"" style=""width:8cm; height:7.51cm;""><p>What type of rock is this?</p>",4,class_response,1,train,14,Obsidian,Obsidian,2,TRUE,5,5,,
,,,,,,,,,,,html-button-response,132,2.0.0,341966,64d518b2a5e95098500a176c,2,10,1430,,,,,,,,,"<img src= rock_img/I_Obsidian_02.jpg style=""width:8cm; height:7.51cm;""><p style='font-size: 30px; color: green;'><strong>Correct!</strong></p><p style='font-size: 30px;'><strong>This rock is obsidian</strong></p>",0,corr_feedback,1,train,14,,,,,,,,
,,,,,,,,,,,html-button-response,133,2.0.0,343376,64d518b2a5e95098500a176c,2,10,1407,,,,,,,,,"<img src= ""rock_img/I_Diorite_12.jpg"" style=""width:8cm; height:4.88cm;""><p>What type of rock is this?</p>",7,class_response,1,train,15,Pumice,Diorite,12,FALSE,8,3,,
,,,,,,,,,,,html-button-response,134,2.0.0,344882,64d518b2a5e95098500a176c,2,10,1504,,,,,,,,,"<img src= rock_img/I_Diorite_12.jpg style=""width:8cm; height:4.88cm;""><p style='font-size: 30px; color: red;'><strong>Incorrect!</strong></p><p style='font-size: 30px;'><strong>This rock is diorite</strong></p>",0,corr_feedback,1,train,15,,,,,,,,
,,,,,,,,,,,html-button-response,135,2.0.0,347374,64d518b2a5e95098500a176c,2,10,2490,,,,,,,,,"<img src= ""rock_img/I_Basalt_09.jpg"" style=""width:8cm; height:6.2cm;""><p>What type of rock is this?</p>",3,class_response,1,train,16,Gabbro,Basalt,9,FALSE,4,2,,
,,,,,,,,,,,html-button-response,136,2.0.0,348729,64d518b2a5e95098500a176c,2,10,1351,,,,,,,,,"<img src= rock_img/I_Basalt_09.jpg style=""width:8cm; height:6.2cm;""><p style='font-size: 30px; color: red;'><strong>Incorrect!</strong></p><p style='font-size: 30px;'><strong>This rock is basalt</strong></p>",0,corr_feedback,1,train,16,,,,,,,,
,,,,,,,,,,,html-button-response,137,2.0.0,350954,64d518b2a5e95098500a176c,2,10,2223,,,,,,,,,"<img src= ""rock_img/I_Pegmatite_07.jpg"" style=""width:8cm; height:6.7cm;""><p>What type of rock is this?</p>",3,class_response,1,train,17,Gabbro,Pegmatite,7,FALSE,4,6,,
,,,,,,,,,,,html-button-response,138,2.0.0,352300,64d518b2a5e95098500a176c,2,10,1344,,,,,,,,,"<img src= rock_img/I_Pegmatite_07.jpg style=""width:8cm; height:6.7cm;""><p style='font-size: 30px; color: red;'><strong>Incorrect!</strong></p><p style='font-size: 30px;'><strong>This rock is pegmatite</strong></p>",0,corr_feedback,1,train,17,,,,,,,,
,,,,,,,,,,,html-button-response,139,2.0.0,356091,64d518b2a5e95098500a176c,2,10,3787,,,,,,,,,"<img src= ""rock_img/I_Basalt_06.jpg"" style=""width:8cm; height:7.06cm;""><p>What type of rock is this?</p>",6,class_response,1,train,18,Peridotite,Basalt,6,FALSE,7,2,,
,,,,,,,,,,,html-button-response,140,2.0.0,357148,64d518b2a5e95098500a176c,2,10,1055,,,,,,,,,"<img src= rock_img/I_Basalt_06.jpg style=""width:8cm; height:7.06cm;""><p style='font-size: 30px; color: red;'><strong>Incorrect!</strong></p><p style='font-size: 30px;'><strong>This rock is basalt</strong></p>",0,corr_feedback,1,train,18,,,,,,,,
,,,,,,,,,,,html-button-response,141,2.0.0,359519,64d518b2a5e95098500a176c,2,10,2368,,,,,,,,,"<img src= ""rock_img/I_Diorite_10.jpg"" style=""width:8cm; height:5.949999999999999cm;""><p>What type of rock is this?</p>",7,class_response,1,train,19,Pumice,Diorite,10,FALSE,8,3,,
,,,,,,,,,,,html-button-response,142,2.0.0,362742,64d518b2a5e95098500a176c,2,10,3221,,,,,,,,,"<img src= rock_img/I_Diorite_10.jpg style=""width:8cm; height:5.949999999999999cm;""><p style='font-size: 30px; color: red;'><strong>Incorrect!</strong></p><p style='font-size: 30px;'><strong>This rock is diorite</strong></p>",0,corr_feedback,1,train,19,,,,,,,,
,,,,,,,,,,,html-button-response,143,2.0.0,364728,64d518b2a5e95098500a176c,2,10,1984,,,,,,,,,"<img src= ""rock_img/I_Pegmatite_08.jpg"" style=""width:8cm; height:7.68cm;""><p>What type of rock is this?</p>",5,class_response,1,train,20,Pegmatite,Pegmatite,8,TRUE,6,6,,
,,,,,,,,,,,html-button-response,144,2.0.0,365842,64d518b2a5e95098500a176c,2,10,1111,,,,,,,,,"<img src= rock_img/I_Pegmatite_08.jpg style=""width:8cm; height:7.68cm;""><p style='font-size: 30px; color: green;'><strong>Correct!</strong></p><p style='font-size: 30px;'><strong>This rock is pegmatite</strong></p>",0,corr_feedback,1,train,20,,,,,,,,
,,,,,,,,,,,html-button-response,145,2.0.0,367974,64d518b2a5e95098500a176c,2,10,2130,,,,,,,,,"<img src= ""rock_img/I_Andesite_14.jpg"" style=""width:8cm; height:5.449999999999999cm;""><p>What type of rock is this?</p>",6,class_response,1,train,21,Peridotite,Andesite,14,FALSE,7,1,,
,,,,,,,,,,,html-button-response,146,2.0.0,369031,64d518b2a5e95098500a176c,2,10,1054,,,,,,,,,"<img src= rock_img/I_Andesite_14.jpg style=""width:8cm; height:5.449999999999999cm;""><p style='font-size: 30px; color: red;'><strong>Incorrect!</strong></p><p style='font-size: 30px;'><strong>This rock is andesite</strong></p>",0,corr_feedback,1,train,21,,,,,,,,
,,,,,,,,,,,html-button-response,147,2.0.0,370520,64d518b2a5e95098500a176c,2,10,1486,,,,,,,,,"<img src= ""rock_img/I_Diorite_09.jpg"" style=""width:8cm; height:5.27cm;""><p>What type of rock is this?</p>",6,class_response,1,train,22,Peridotite,Diorite,9,FALSE,7,3,,
,,,,,,,,,,,html-button-response,148,2.0.0,371610,64d518b2a5e95098500a176c,2,10,1088,,,,,,,,,"<img src= rock_img/I_Diorite_09.jpg style=""width:8cm; height:5.27cm;""><p style='font-size: 30px; color: red;'><strong>Incorrect!</strong></p><p style='font-size: 30px;'><strong>This rock is diorite</strong></p>",0,corr_feedback,1,train,22,,,,,,,,
,,,,,,,,,,,html-button-response,149,2.0.0,374207,64d518b2a5e95098500a176c,2,10,2594,,,,,,,,,"<img src= ""rock_img/I_Gabbro_10.jpg"" style=""width:8cm; height:5.680000000000001cm;""><p>What type of rock is this?</p>",7,class_response,1,train,23,Pumice,Gabbro,10,FALSE,8,4,,
,,,,,,,,,,,html-button-response,150,2.0.0,376498,64d518b2a5e95098500a176c,2,10,2289,,,,,,,,,"<img src= rock_img/I_Gabbro_10.jpg style=""width:8cm; height:5.680000000000001cm;""><p style='font-size: 30px; color: red;'><strong>Incorrect!</strong></p><p style='font-size: 30px;'><strong>This rock is gabbro</strong></p>",0,corr_feedback,1,train,23,,,,,,,,
,,,,,,,,,,,html-button-response,151,2.0.0,378078,64d518b2a5e95098500a176c,2,10,1578,,,,,,,,,"<img src= ""rock_img/I_Peridotite_05.jpg"" style=""width:8cm; height:7.1499999999999995cm;""><p>What type of rock is this?</p>",1,class_response,1,train,24,Basalt,Peridotite,5,FALSE,2,7,,
,,,,,,,,,,,html-button-response,152,2.0.0,379166,64d518b2a5e95098500a176c,2,10,1084,,,,,,,,,"<img src= rock_img/I_Peridotite_05.jpg style=""width:8cm; height:7.1499999999999995cm;""><p style='font-size: 30px; color: red;'><strong>Incorrect!</strong></p><p style='font-size: 30px;'><strong>This rock is peridotite</strong></p>",0,corr_feedback,1,train,24,,,,,,,,
,,,,,,,,,,,html-button-response,153,2.0.0,381836,64d518b2a5e95098500a176c,2,10,2667,,,,,,,,,"<img src= ""rock_img/I_Gabbro_11.jpg"" style=""width:8cm; height:6.2cm;""><p>What type of rock is this?</p>",5,class_response,1,train,25,Pegmatite,Gabbro,11,FALSE,6,4,,
,,,,,,,,,,,html-button-response,154,2.0.0,382828,64d518b2a5e95098500a176c,2,10,989,,,,,,,,,"<img src= rock_img/I_Gabbro_11.jpg style=""width:8cm; height:6.2cm;""><p style='font-size: 30px; color: red;'><strong>Incorrect!</strong></p><p style='font-size: 30px;'><strong>This rock is gabbro</strong></p>",0,corr_feedback,1,train,25,,,,,,,,
,,,,,,,,,,,html-button-response,155,2.0.0,384270,64d518b2a5e95098500a176c,2,10,1439,,,,,,,,,"<img src= ""rock_img/I_Peridotite_02.jpg"" style=""width:8cm; height:5.859999999999999cm;""><p>What type of rock is this?</p>",6,class_response,1,train,26,Peridotite,Peridotite,2,TRUE,7,7,,
,,,,,,,,,,,html-button-response,156,2.0.0,385938,64d518b2a5e95098500a176c,2,10,1666,,,,,,,,,"<img src= rock_img/I_Peridotite_02.jpg style=""width:8cm; height:5.859999999999999cm;""><p style='font-size: 30px; color: green;'><strong>Correct!</strong></p><p style='font-size: 30px;'><strong>This rock is peridotite</strong></p>",0,corr_feedback,1,train,26,,,,,,,,
,,,,,,,,,,,html-button-response,157,2.0.0,387357,64d518b2a5e95098500a176c,2,10,1415,,,,,,,,,"<img src= ""rock_img/I_Diorite_08.jpg"" style=""width:8cm; height:6.37cm;""><p>What type of rock is this?</p>",6,class_response,1,train,27,Peridotite,Diorite,8,FALSE,7,3,,
,,,,,,,,,,,html-button-response,158,2.0.0,388390,64d518b2a5e95098500a176c,2,10,1031,,,,,,,,,"<img src= rock_img/I_Diorite_08.jpg style=""width:8cm; height:6.37cm;""><p style='font-size: 30px; color: red;'><strong>Incorrect!</strong></p><p style='font-size: 30px;'><strong>This rock is diorite</strong></p>",0,corr_feedback,1,train,27,,,,,,,,
,,,,,,,,,,,html-button-response,159,2.0.0,389800,64d518b2a5e95098500a176c,2,10,1408,,,,,,,,,"<img src= ""rock_img/I_Obsidian_16.jpg"" style=""width:8cm; height:9.3cm;""><p>What type of rock is this?</p>",4,class_response,1,train,28,Obsidian,Obsidian,16,TRUE,5,5,,
,,,,,,,,,,,html-button-response,160,2.0.0,391032,64d518b2a5e95098500a176c,2,10,1229,,,,,,,,,"<img src= rock_img/I_Obsidian_16.jpg style=""width:8cm; height:9.3cm;""><p style='font-size: 30px; color: green;'><strong>Correct!</strong></p><p style='font-size: 30px;'><strong>This rock is obsidian</strong></p>",0,corr_feedback,1,train,28,,,,,,,,
,,,,,,,,,,,html-button-response,161,2.0.0,392980,64d518b2a5e95098500a176c,2,10,1946,,,,,,,,,"<img src= ""rock_img/I_Andesite_09.jpg"" style=""width:8cm; height:6cm;""><p>What type of rock is this?</p>",3,class_response,1,train,29,Gabbro,Andesite,9,FALSE,4,1,,
,,,,,,,,,,,html-button-response,162,2.0.0,394062,64d518b2a5e95098500a176c,2,10,1079,,,,,,,,,"<img src= rock_img/I_Andesite_09.jpg style=""width:8cm; height:6cm;""><p style='font-size: 30px; color: red;'><strong>Incorrect!</strong></p><p style='font-size: 30px;'><strong>This rock is andesite</strong></p>",0,corr_feedback,1,train,29,,,,,,,,
,,,,,,,,,,,html-button-response,163,2.0.0,395198,64d518b2a5e95098500a176c,2,10,1133,,,,,,,,,"<img src= ""rock_img/I_Obsidian_10.jpg"" style=""width:8cm; height:6.260000000000001cm;""><p>What type of rock is this?</p>",4,class_response,1,train,30,Obsidian,Obsidian,10,TRUE,5,5,,
,,,,,,,,,,,html-button-response,164,2.0.0,402880,64d518b2a5e95098500a176c,2,10,7680,,,,,,,,,"<img src= rock_img/I_Obsidian_10.jpg style=""width:8cm; height:6.260000000000001cm;""><p style='font-size: 30px; color: green;'><strong>Correct!</strong></p><p style='font-size: 30px;'><strong>This rock is obsidian</strong></p>",0,corr_feedback,1,train,30,,,,,,,,
,,,,,,,,,,,html-button-response,165,2.0.0,406318,64d518b2a5e95098500a176c,2,10,3436,,,,,,,,,"<img src= ""rock_img/I_Pegmatite_12.jpg"" style=""width:8cm; height:5.7cm;""><p>What type of rock is this?</p>",2,class_response,1,train,31,Diorite,Pegmatite,12,FALSE,3,6,,
,,,,,,,,,,,html-button-response,166,2.0.0,407392,64d518b2a5e95098500a176c,2,10,1072,,,,,,,,,"<img src= rock_img/I_Pegmatite_12.jpg style=""width:8cm; height:5.7cm;""><p style='font-size: 30px; color: red;'><strong>Incorrect!</strong></p><p style='font-size: 30px;'><strong>This rock is pegmatite</strong></p>",0,corr_feedback,1,train,31,,,,,,,,
,,,,,,,,,,,html-button-response,167,2.0.0,410284,64d518b2a5e95098500a176c,2,10,2890,,,,,,,,,"<img src= ""rock_img/I_Pegmatite_12.jpg"" style=""width:8cm; height:5.7cm;""><p>What type of rock is this?</p>",5,class_response,1,train,32,Pegmatite,Pegmatite,12,TRUE,6,6,,
,,,,,,,,,,,html-button-response,168,2.0.0,411678,64d518b2a5e95098500a176c,2,10,1391,,,,,,,,,"<img src= rock_img/I_Pegmatite_12.jpg style=""width:8cm; height:5.7cm;""><p style='font-size: 30px; color: green;'><strong>Correct!</strong></p><p style='font-size: 30px;'><strong>This rock is pegmatite</strong></p>",0,corr_feedback,1,train,32,,,,,,,,
,,,,,,,,,,,html-button-response,169,2.0.0,413450,64d518b2a5e95098500a176c,2,10,1769,,,,,,,,,"<img src= ""rock_img/I_Peridotite_15.jpg"" style=""width:8cm; height:6cm;""><p>What type of rock is this?</p>",1,class_response,1,train,33,Basalt,Peridotite,15,FALSE,2,7,,
,,,,,,,,,,,html-button-response,170,2.0.0,414490,64d518b2a5e95098500a176c,2,10,1038,,,,,,,,,"<img src= rock_img/I_Peridotite_15.jpg style=""width:8cm; height:6cm;""><p style='font-size: 30px; color: red;'><strong>Incorrect!</strong></p><p style='font-size: 30px;'><strong>This rock is peridotite</strong></p>",0,corr_feedback,1,train,33,,,,,,,,
,,,,,,,,,,,html-button-response,171,2.0.0,415764,64d518b2a5e95098500a176c,2,10,1271,,,,,,,,,"<img src= ""rock_img/I_Gabbro_05.jpg"" style=""width:8cm; height:6cm;""><p>What type of rock is this?</p>",5,class_response,1,train,34,Pegmatite,Gabbro,5,FALSE,6,4,,
,,,,,,,,,,,html-button-response,172,2.0.0,417632,64d518b2a5e95098500a176c,2,10,1866,,,,,,,,,"<img src= rock_img/I_Gabbro_05.jpg style=""width:8cm; height:6cm;""><p style='font-size: 30px; color: red;'><strong>Incorrect!</strong></p><p style='font-size: 30px;'><strong>This rock is gabbro</strong></p>",0,corr_feedback,1,train,34,,,,,,,,
,,,,,,,,,,,html-button-response,173,2.0.0,419210,64d518b2a5e95098500a176c,2,10,1575,,,,,,,,,"<img src= ""rock_img/I_Pegmatite_03.jpg"" style=""width:8cm; height:5.239999999999999cm;""><p>What type of rock is this?</p>",6,class_response,1,train,35,Peridotite,Pegmatite,3,FALSE,7,6,,
,,,,,,,,,,,html-button-response,174,2.0.0,420548,64d518b2a5e95098500a176c,2,10,1335,,,,,,,,,"<img src= rock_img/I_Pegmatite_03.jpg style=""width:8cm; height:5.239999999999999cm;""><p style='font-size: 30px; color: red;'><strong>Incorrect!</strong></p><p style='font-size: 30px;'><strong>This rock is pegmatite</strong></p>",0,corr_feedback,1,train,35,,,,,,,,
,,,,,,,,,,,html-button-response,175,2.0.0,422359,64d518b2a5e95098500a176c,2,10,1808,,,,,,,,,"<img src= ""rock_img/I_Peridotite_15.jpg"" style=""width:8cm; height:6cm;""><p>What type of rock is this?</p>",7,class_response,1,train,36,Pumice,Peridotite,15,FALSE,8,7,,
,,,,,,,,,,,html-button-response,176,2.0.0,423608,64d518b2a5e95098500a176c,2,10,1248,,,,,,,,,"<img src= rock_img/I_Peridotite_15.jpg style=""width:8cm; height:6cm;""><p style='font-size: 30px; color: red;'><strong>Incorrect!</strong></p><p style='font-size: 30px;'><strong>This rock is peridotite</strong></p>",0,corr_feedback,1,train,36,,,,,,,,
,,,,,,,,,,,html-button-response,177,2.0.0,425426,64d518b2a5e95098500a176c,2,10,1815,,,,,,,,,"<img src= ""rock_img/I_Peridotite_08.jpg"" style=""width:8cm; height:6.7cm;""><p>What type of rock is this?</p>",7,class_response,1,train,37,Pumice,Peridotite,8,FALSE,8,7,,
,,,,,,,,,,,html-button-response,178,2.0.0,426476,64d518b2a5e95098500a176c,2,10,1047,,,,,,,,,"<img src= rock_img/I_Peridotite_08.jpg style=""width:8cm; height:6.7cm;""><p style='font-size: 30px; color: red;'><strong>Incorrect!</strong></p><p style='font-size: 30px;'><strong>This rock is peridotite</strong></p>",0,corr_feedback,1,train,37,,,,,,,,
,,,,,,,,,,,html-button-response,179,2.0.0,427926,64d518b2a5e95098500a176c,2,10,1448,,,,,,,,,"<img src= ""rock_img/I_Andesite_06.jpg"" style=""width:8cm; height:6.840000000000001cm;""><p>What type of rock is this?</p>",2,class_response,1,train,38,Diorite,Andesite,6,FALSE,3,1,,
,,,,,,,,,,,html-button-response,180,2.0.0,429008,64d518b2a5e95098500a176c,2,10,1079,,,,,,,,,"<img src= rock_img/I_Andesite_06.jpg style=""width:8cm; height:6.840000000000001cm;""><p style='font-size: 30px; color: red;'><strong>Incorrect!</strong></p><p style='font-size: 30px;'><strong>This rock is andesite</strong></p>",0,corr_feedback,1,train,38,,,,,,,,
,,,,,,,,,,,html-button-response,181,2.0.0,430650,64d518b2a5e95098500a176c,2,10,1639,,,,,,,,,"<img src= ""rock_img/I_Peridotite_07.jpg"" style=""width:8cm; height:4.83cm;""><p>What type of rock is this?</p>",0,class_response,1,train,39,Andesite,Peridotite,7,FALSE,1,7,,
,,,,,,,,,,,html-button-response,182,2.0.0,431964,64d518b2a5e95098500a176c,2,10,1312,,,,,,,,,"<img src= rock_img/I_Peridotite_07.jpg style=""width:8cm; height:4.83cm;""><p style='font-size: 30px; color: red;'><strong>Incorrect!</strong></p><p style='font-size: 30px;'><strong>This rock is peridotite</strong></p>",0,corr_feedback,1,train,39,,,,,,,,
,,,,,,,,,,,html-button-response,183,2.0.0,434009,64d518b2a5e95098500a176c,2,10,2042,,,,,,,,,"<img src= ""rock_img/I_Gabbro_12.jpg"" style=""width:8cm; height:7.800000000000001cm;""><p>What type of rock is this?</p>",6,class_response,1,train,40,Peridotite,Gabbro,12,FALSE,7,4,,
,,,,,,,,,,,html-button-response,184,2.0.0,435570,64d518b2a5e95098500a176c,2,10,1559,,,,,,,,,"<img src= rock_img/I_Gabbro_12.jpg style=""width:8cm; height:7.800000000000001cm;""><p style='font-size: 30px; color: red;'><strong>Incorrect!</strong></p><p style='font-size: 30px;'><strong>This rock is gabbro</strong></p>",0,corr_feedback,1,train,40,,,,,,,,
,,,,,,,,,,,html-button-response,185,2.0.0,437029,64d518b2a5e95098500a176c,2,10,1456,,,,,,,,,"<img src= ""rock_img/I_Basalt_16.jpg"" style=""width:8cm; height:7.659999999999999cm;""><p>What type of rock is this?</p>",7,class_response,1,train,41,Pumice,Basalt,16,FALSE,8,2,,
,,,,,,,,,,,html-button-response,186,2.0.0,438132,64d518b2a5e95098500a176c,2,10,1102,,,,,,,,,"<img src= rock_img/I_Basalt_16.jpg style=""width:8cm; height:7.659999999999999cm;""><p style='font-size: 30px; color: red;'><strong>Incorrect!</strong></p><p style='font-size: 30px;'><strong>This rock is basalt</strong></p>",0,corr_feedback,1,train,41,,,,,,,,
,,,,,,,,,,,html-button-response,187,2.0.0,439502,64d518b2a5e95098500a176c,2,10,1368,,,,,,,,,"<img src= ""rock_img/I_Basalt_08.jpg"" style=""width:8cm; height:10.44cm;""><p>What type of rock is this?</p>",4,class_response,1,train,42,Obsidian,Basalt,8,FALSE,5,2,,
,,,,,,,,,,,html-button-response,188,2.0.0,440912,64d518b2a5e95098500a176c,2,10,1408,,,,,,,,,"<img src= rock_img/I_Basalt_08.jpg style=""width:8cm; height:10.44cm;""><p style='font-size: 30px; color: red;'><strong>Incorrect!</strong></p><p style='font-size: 30px;'><strong>This rock is basalt</strong></p>",0,corr_feedback,1,train,42,,,,,,,,
,,,,,,,,,,,html-button-response,189,2.0.0,442861,64d518b2a5e95098500a176c,2,10,1946,,,,,,,,,"<img src= ""rock_img/I_Gabbro_09.jpg"" style=""width:8cm; height:7.279999999999999cm;""><p>What type of rock is this?</p>",7,class_response,1,train,43,Pumice,Gabbro,9,FALSE,8,4,,
,,,,,,,,,,,html-button-response,190,2.0.0,443892,64d518b2a5e95098500a176c,2,10,1029,,,,,,,,,"<img src= rock_img/I_Gabbro_09.jpg style=""width:8cm; height:7.279999999999999cm;""><p style='font-size: 30px; color: red;'><strong>Incorrect!</strong></p><p style='font-size: 30px;'><strong>This rock is gabbro</strong></p>",0,corr_feedback,1,train,43,,,,,,,,
,,,,,,,,,,,html-button-response,191,2.0.0,445447,64d518b2a5e95098500a176c,2,10,1551,,,,,,,,,"<img src= ""rock_img/I_Andesite_03.jpg"" style=""width:8cm; height:5.73cm;""><p>What type of rock is this?</p>",2,class_response,1,train,44,Diorite,Andesite,3,FALSE,3,1,,
,,,,,,,,,,,html-button-response,192,2.0.0,446464,64d518b2a5e95098500a176c,2,10,1015,,,,,,,,,"<img src= rock_img/I_Andesite_03.jpg style=""width:8cm; height:5.73cm;""><p style='font-size: 30px; color: red;'><strong>Incorrect!</strong></p><p style='font-size: 30px;'><strong>This rock is andesite</strong></p>",0,corr_feedback,1,train,44,,,,,,,,
,,,,,,,,,,,html-button-response,193,2.0.0,447723,64d518b2a5e95098500a176c,2,10,1256,,,,,,,,,"<img src= ""rock_img/I_Pegmatite_15.jpg"" style=""width:8cm; height:6cm;""><p>What type of rock is this?</p>",5,class_response,1,train,45,Pegmatite,Pegmatite,15,TRUE,6,6,,
,,,,,,,,,,,html-button-response,194,2.0.0,449140,64d518b2a5e95098500a176c,2,10,1416,,,,,,,,,"<img src= rock_img/I_Pegmatite_15.jpg style=""width:8cm; height:6cm;""><p style='font-size: 30px; color: green;'><strong>Correct!</strong></p><p style='font-size: 30px;'><strong>This rock is pegmatite</strong></p>",0,corr_feedback,1,train,45,,,,,,,,
,,,,,,,,,,,html-button-response,195,2.0.0,450583,64d518b2a5e95098500a176c,2,10,1440,,,,,,,,,"<img src= ""rock_img/I_Basalt_10.jpg"" style=""width:8cm; height:5.85cm;""><p>What type of rock is this?</p>",4,class_response,1,train,46,Obsidian,Basalt,10,FALSE,5,2,,
,,,,,,,,,,,html-button-response,196,2.0.0,451576,64d518b2a5e95098500a176c,2,10,992,,,,,,,,,"<img src= rock_img/I_Basalt_10.jpg style=""width:8cm; height:5.85cm;""><p style='font-size: 30px; color: red;'><strong>Incorrect!</strong></p><p style='font-size: 30px;'><strong>This rock is basalt</strong></p>",0,corr_feedback,1,train,46,,,,,,,,
,,,,,,,,,,,html-button-response,197,2.0.0,453859,64d518b2a5e95098500a176c,2,10,2279,,,,,,,,,"<img src= ""rock_img/I_Diorite_07.jpg"" style=""width:8cm; height:5.239999999999999cm;""><p>What type of rock is this?</p>",6,class_response,1,train,47,Peridotite,Diorite,7,FALSE,7,3,,
,,,,,,,,,,,html-button-response,198,2.0.0,454764,64d518b2a5e95098500a176c,2,10,903,,,,,,,,,"<img src= rock_img/I_Diorite_07.jpg style=""width:8cm; height:5.239999999999999cm;""><p style='font-size: 30px; color: red;'><strong>Incorrect!</strong></p><p style='font-size: 30px;'><strong>This rock is diorite</strong></p>",0,corr_feedback,1,train,47,,,,,,,,
,,,,,,,,,,,html-button-response,199,2.0.0,456639,64d518b2a5e95098500a176c,2,10,1872,,,,,,,,,"<img src= ""rock_img/I_Pegmatite_09.jpg"" style=""width:8cm; height:4.03cm;""><p>What type of rock is this?</p>",6,class_response,1,train,48,Peridotite,Pegmatite,9,FALSE,7,6,,
,,,,,,,,,,,html-button-response,200,2.0.0,457552,64d518b2a5e95098500a176c,2,10,911,,,,,,,,,"<img src= rock_img/I_Pegmatite_09.jpg style=""width:8cm; height:4.03cm;""><p style='font-size: 30px; color: red;'><strong>Incorrect!</strong></p><p style='font-size: 30px;'><strong>This rock is pegmatite</strong></p>",0,corr_feedback,1,train,48,,,,,,,,
,,,,,,,,,,,instructions,203,2.0.0,493790,64d518b2a5e95098500a176c,2,10,36236,,,,,,,,"[{""page_index"":0,""viewing_time"":31964},{""page_index"":1,""viewing_time"":4272}]",,,,,,,,,,,,,,
,,,,,,,,,,,html-button-response,204,2.0.0,495322,64d518b2a5e95098500a176c,2,10,1530,,,,,,,,,,0,start_test,,,,,,,,,,,
,,,,,,,,,,,html-button-response,205,2.0.0,498743,64d518b2a5e95098500a176c,2,10,3417,,,,,,,,,"<img src= ""rock_img/I_Pegmatite_11.jpg"" style=""width:8cm; height:8.14cm;""><p>What type of rock is this?</p>",5,class_response,1,test,1,Pegmatite,Pegmatite,11,TRUE,6,6,,
,,,,,,,,,,,html-keyboard-response,206,2.0.0,499258,64d518b2a5e95098500a176c,2,10,null,,,,,,,,,<p style='font-size: 30px;'><strong>Okay</strong></p>,null,neutral_feedback,1,test,1,,,,,,,,
,,,,,,,,,,,html-button-response,207,2.0.0,502557,64d518b2a5e95098500a176c,2,10,3296,,,,,,,,,"<img src= ""rock_img/I_Andesite_05.jpg"" style=""width:8cm; height:4.12cm;""><p>What type of rock is this?</p>",2,class_response,1,test,2,Diorite,Andesite,5,FALSE,3,1,,
,,,,,,,,,,,html-keyboard-response,208,2.0.0,503060,64d518b2a5e95098500a176c,2,10,null,,,,,,,,,<p style='font-size: 30px;'><strong>Okay</strong></p>,null,neutral_feedback,1,test,2,,,,,,,,
,,,,,,,,,,,html-button-response,209,2.0.0,504343,64d518b2a5e95098500a176c,2,10,1280,,,,,,,,,"<img src= ""rock_img/I_Pumice_09.jpg"" style=""width:8cm; height:6.44cm;""><p>What type of rock is this?</p>",7,class_response,1,test,3,Pumice,Pumice,9,TRUE,8,8,,
,,,,,,,,,,,html-keyboard-response,210,2.0.0,504859,64d518b2a5e95098500a176c,2,10,null,,,,,,,,,<p style='font-size: 30px;'><strong>Okay</strong></p>,null,neutral_feedback,1,test,3,,,,,,,,
,,,,,,,,,,,html-button-response,211,2.0.0,506844,64d518b2a5e95098500a176c,2,10,1983,,,,,,,,,"<img src= ""rock_img/I_Basalt_04.jpg"" style=""width:8cm; height:7.53cm;""><p>What type of rock is this?</p>",1,class_response,1,test,4,Basalt,Basalt,4,TRUE,2,2,,
,,,,,,,,,,,html-keyboard-response,212,2.0.0,507354,64d518b2a5e95098500a176c,2,10,null,,,,,,,,,<p style='font-size: 30px;'><strong>Okay</strong></p>,null,neutral_feedback,1,test,4,,,,,,,,
,,,,,,,,,,,html-button-response,213,2.0.0,508926,64d518b2a5e95098500a176c,2,10,1569,,,,,,,,,"<img src= ""rock_img/I_Pegmatite_06.jpg"" style=""width:8cm; height:5.17cm;""><p>What type of rock is this?</p>",5,class_response,1,test,5,Pegmatite,Pegmatite,6,TRUE,6,6,,
,,,,,,,,,,,html-keyboard-response,214,2.0.0,509439,64d518b2a5e95098500a176c,2,10,null,,,,,,,,,<p style='font-size: 30px;'><strong>Okay</strong></p>,null,neutral_feedback,1,test,5,,,,,,,,
,,,,,,,,,,,html-button-response,215,2.0.0,512711,64d518b2a5e95098500a176c,2,10,3269,,,,,,,,,"<img src= ""rock_img/I_Pegmatite_10.jpg"" style=""width:8cm; height:4.16cm;""><p>What type of rock is this?</p>",5,class_response,1,test,6,Pegmatite,Pegmatite,10,TRUE,6,6,,
,,,,,,,,,,,html-keyboard-response,216,2.0.0,513223,64d518b2a5e95098500a176c,2,10,null,,,,,,,,,<p style='font-size: 30px;'><strong>Okay</strong></p>,null,neutral_feedback,1,test,6,,,,,,,,
,,,,,,,,,,,html-button-response,217,2.0.0,517607,64d518b2a5e95098500a176c,2,10,4381,,,,,,,,,"<img src= ""rock_img/I_Peridotite_10.jpg"" style=""width:8cm; height:5.390000000000001cm;""><p>What type of rock is this?</p>",6,class_response,1,test,7,Peridotite,Peridotite,10,TRUE,7,7,,
,,,,,,,,,,,html-keyboard-response,218,2.0.0,518120,64d518b2a5e95098500a176c,2,10,null,,,,,,,,,<p style='font-size: 30px;'><strong>Okay</strong></p>,null,neutral_feedback,1,test,7,,,,,,,,
,,,,,,,,,,,html-button-response,219,2.0.0,519448,64d518b2a5e95098500a176c,2,10,1326,,,,,,,,,"<img src= ""rock_img/I_Diorite_11.jpg"" style=""width:8cm; height:7.11cm;""><p>What type of rock is this?</p>",6,class_response,1,test,8,Peridotite,Diorite,11,FALSE,7,3,,
,,,,,,,,,,,html-keyboard-response,220,2.0.0,519965,64d518b2a5e95098500a176c,2,10,null,,,,,,,,,<p style='font-size: 30px;'><strong>Okay</strong></p>,null,neutral_feedback,1,test,8,,,,,,,,
,,,,,,,,,,,html-button-response,221,2.0.0,521885,64d518b2a5e95098500a176c,2,10,1918,,,,,,,,,"<img src= ""rock_img/I_Gabbro_14.jpg"" style=""width:8cm; height:8.48cm;""><p>What type of rock is this?</p>",2,class_response,1,test,9,Diorite,Gabbro,14,FALSE,3,4,,
,,,,,,,,,,,html-keyboard-response,222,2.0.0,522398,64d518b2a5e95098500a176c,2,10,null,,,,,,,,,<p style='font-size: 30px;'><strong>Okay</strong></p>,null,neutral_feedback,1,test,9,,,,,,,,
,,,,,,,,,,,html-button-response,223,2.0.0,524867,64d518b2a5e95098500a176c,2,10,2466,,,,,,,,,"<img src= ""rock_img/I_Pegmatite_05.jpg"" style=""width:8cm; height:7.300000000000001cm;""><p>What type of rock is this?</p>",3,class_response,1,test,10,Gabbro,Pegmatite,5,FALSE,4,6,,
,,,,,,,,,,,html-keyboard-response,224,2.0.0,525369,64d518b2a5e95098500a176c,2,10,null,,,,,,,,,<p style='font-size: 30px;'><strong>Okay</strong></p>,null,neutral_feedback,1,test,10,,,,,,,,
,,,,,,,,,,,html-button-response,225,2.0.0,526308,64d518b2a5e95098500a176c,2,10,937,,,,,,,,,"<img src= ""rock_img/I_Diorite_06.jpg"" style=""width:8cm; height:6.03cm;""><p>What type of rock is this?</p>",3,class_response,1,test,11,Gabbro,Diorite,6,FALSE,4,3,,
,,,,,,,,,,,html-keyboard-response,226,2.0.0,526824,64d518b2a5e95098500a176c,2,10,null,,,,,,,,,<p style='font-size: 30px;'><strong>Okay</strong></p>,null,neutral_feedback,1,test,11,,,,,,,,
,,,,,,,,,,,html-button-response,227,2.0.0,529139,64d518b2a5e95098500a176c,2,10,2312,,,,,,,,,"<img src= ""rock_img/I_Obsidian_05.jpg"" style=""width:8cm; height:6.33cm;""><p>What type of rock is this?</p>",4,class_response,1,test,12,Obsidian,Obsidian,5,TRUE,5,5,,
,,,,,,,,,,,html-keyboard-response,228,2.0.0,529656,64d518b2a5e95098500a176c,2,10,null,,,,,,,,,<p style='font-size: 30px;'><strong>Okay</strong></p>,null,neutral_feedback,1,test,12,,,,,,,,
,,,,,,,,,,,html-button-response,229,2.0.0,531372,64d518b2a5e95098500a176c,2,10,1714,,,,,,,,,"<img src= ""rock_img/I_Peridotite_16.jpg"" style=""width:8cm; height:6.989999999999999cm;""><p>What type of rock is this?</p>",0,class_response,1,test,13,Andesite,Peridotite,16,FALSE,1,7,,
,,,,,,,,,,,html-keyboard-response,230,2.0.0,531888,64d518b2a5e95098500a176c,2,10,null,,,,,,,,,<p style='font-size: 30px;'><strong>Okay</strong></p>,null,neutral_feedback,1,test,13,,,,,,,,
,,,,,,,,,,,html-button-response,231,2.0.0,534203,64d518b2a5e95098500a176c,2,10,2312,,,,,,,,,"<img src= ""rock_img/I_Peridotite_13.jpg"" style=""width:8cm; height:7.58cm;""><p>What type of rock is this?</p>",5,class_response,1,test,14,Pegmatite,Peridotite,13,FALSE,6,7,,
,,,,,,,,,,,html-keyboard-response,232,2.0.0,534720,64d518b2a5e95098500a176c,2,10,null,,,,,,,,,<p style='font-size: 30px;'><strong>Okay</strong></p>,null,neutral_feedback,1,test,14,,,,,,,,
,,,,,,,,,,,html-button-response,233,2.0.0,535957,64d518b2a5e95098500a176c,2,10,1235,,,,,,,,,"<img src= ""rock_img/I_Obsidian_09.jpg"" style=""width:8cm; height:5cm;""><p>What type of rock is this?</p>",4,class_response,1,test,15,Obsidian,Obsidian,9,TRUE,5,5,,
,,,,,,,,,,,html-keyboard-response,234,2.0.0,536470,64d518b2a5e95098500a176c,2,10,null,,,,,,,,,<p style='font-size: 30px;'><strong>Okay</strong></p>,null,neutral_feedback,1,test,15,,,,,,,,
,,,,,,,,,,,html-button-response,235,2.0.0,538056,64d518b2a5e95098500a176c,2,10,1584,,,,,,,,,"<img src= ""rock_img/I_Obsidian_11.jpg"" style=""width:8cm; height:6.05cm;""><p>What type of rock is this?</p>",4,class_response,1,test,16,Obsidian,Obsidian,11,TRUE,5,5,,
,,,,,,,,,,,html-keyboard-response,236,2.0.0,538571,64d518b2a5e95098500a176c,2,10,null,,,,,,,,,<p style='font-size: 30px;'><strong>Okay</strong></p>,null,neutral_feedback,1,test,16,,,,,,,,
,,,,,,,,,,,html-button-response,237,2.0.0,539965,64d518b2a5e95098500a176c,2,10,1391,,,,,,,,,"<img src= ""rock_img/I_Pumice_06.jpg"" style=""width:8cm; height:6.9399999999999995cm;""><p>What type of rock is this?</p>",7,class_response,1,test,17,Pumice,Pumice,6,TRUE,8,8,,
,,,,,,,,,,,html-keyboard-response,238,2.0.0,540470,64d518b2a5e95098500a176c,2,10,null,,,,,,,,,<p style='font-size: 30px;'><strong>Okay</strong></p>,null,neutral_feedback,1,test,17,,,,,,,,
,,,,,,,,,,,html-button-response,239,2.0.0,542056,64d518b2a5e95098500a176c,2,10,1585,,,,,,,,,"<img src= ""rock_img/I_Basalt_11.jpg"" style=""width:8cm; height:5.359999999999999cm;""><p>What type of rock is this?</p>",1,class_response,1,test,18,Basalt,Basalt,11,TRUE,2,2,,
,,,,,,,,,,,html-keyboard-response,240,2.0.0,542572,64d518b2a5e95098500a176c,2,10,null,,,,,,,,,<p style='font-size: 30px;'><strong>Okay</strong></p>,null,neutral_feedback,1,test,18,,,,,,,,
,,,,,,,,,,,html-button-response,241,2.0.0,544252,64d518b2a5e95098500a176c,2,10,1678,,,,,,,,,"<img src= ""rock_img/I_Pumice_14.jpg"" style=""width:8cm; height:6.39cm;""><p>What type of rock is this?</p>",7,class_response,1,test,19,Pumice,Pumice,14,TRUE,8,8,,
,,,,,,,,,,,html-keyboard-response,242,2.0.0,544760,64d518b2a5e95098500a176c,2,10,null,,,,,,,,,<p style='font-size: 30px;'><strong>Okay</strong></p>,null,neutral_feedback,1,test,19,,,,,,,,
,,,,,,,,,,,html-button-response,243,2.0.0,546840,64d518b2a5e95098500a176c,2,10,2078,,,,,,,,,"<img src= ""rock_img/I_Gabbro_03.jpg"" style=""width:8cm; height:8.52cm;""><p>What type of rock is this?</p>",2,class_response,1,test,20,Diorite,Gabbro,3,FALSE,3,4,,
,,,,,,,,,,,html-keyboard-response,244,2.0.0,547355,64d518b2a5e95098500a176c,2,10,null,,,,,,,,,<p style='font-size: 30px;'><strong>Okay</strong></p>,null,neutral_feedback,1,test,20,,,,,,,,
,,,,,,,,,,,html-button-response,245,2.0.0,549507,64d518b2a5e95098500a176c,2,10,2151,,,,,,,,,"<img src= ""rock_img/I_Gabbro_01.jpg"" style=""width:8cm; height:5.21cm;""><p>What type of rock is this?</p>",3,class_response,1,test,21,Gabbro,Gabbro,1,TRUE,4,4,,
,,,,,,,,,,,html-keyboard-response,246,2.0.0,550022,64d518b2a5e95098500a176c,2,10,null,,,,,,,,,<p style='font-size: 30px;'><strong>Okay</strong></p>,null,neutral_feedback,1,test,21,,,,,,,,
,,,,,,,,,,,html-button-response,247,2.0.0,551422,64d518b2a5e95098500a176c,2,10,1397,,,,,,,,,"<img src= ""rock_img/I_Pumice_03.jpg"" style=""width:8cm; height:6.64cm;""><p>What type of rock is this?</p>",7,class_response,1,test,22,Pumice,Pumice,3,TRUE,8,8,,
,,,,,,,,,,,html-keyboard-response,248,2.0.0,551931,64d518b2a5e95098500a176c,2,10,null,,,,,,,,,<p style='font-size: 30px;'><strong>Okay</strong></p>,null,neutral_feedback,1,test,22,,,,,,,,
,,,,,,,,,,,html-button-response,249,2.0.0,553506,64d518b2a5e95098500a176c,2,10,1573,,,,,,,,,"<img src= ""rock_img/I_Andesite_16.jpg"" style=""width:8cm; height:6.010000000000001cm;""><p>What type of rock is this?</p>",6,class_response,1,test,23,Peridotite,Andesite,16,FALSE,7,1,,
,,,,,,,,,,,html-keyboard-response,250,2.0.0,554012,64d518b2a5e95098500a176c,2,10,null,,,,,,,,,<p style='font-size: 30px;'><strong>Okay</strong></p>,null,neutral_feedback,1,test,23,,,,,,,,
,,,,,,,,,,,html-button-response,251,2.0.0,556360,64d518b2a5e95098500a176c,2,10,2346,,,,,,,,,"<img src= ""rock_img/I_Andesite_01.jpg"" style=""width:8cm; height:5.87cm;""><p>What type of rock is this?</p>",5,class_response,1,test,24,Pegmatite,Andesite,1,FALSE,6,1,,
,,,,,,,,,,,html-keyboard-response,252,2.0.0,556864,64d518b2a5e95098500a176c,2,10,null,,,,,,,,,<p style='font-size: 30px;'><strong>Okay</strong></p>,null,neutral_feedback,1,test,24,,,,,,,,
,,,,,,,,,,,html-button-response,253,2.0.0,558482,64d518b2a5e95098500a176c,2,10,1616,,,,,,,,,"<img src= ""rock_img/I_Peridotite_04.jpg"" style=""width:8cm; height:6.680000000000001cm;""><p>What type of rock is this?</p>",5,class_response,1,test,25,Pegmatite,Peridotite,4,FALSE,6,7,,
,,,,,,,,,,,html-keyboard-response,254,2.0.0,558987,64d518b2a5e95098500a176c,2,10,null,,,,,,,,,<p style='font-size: 30px;'><strong>Okay</strong></p>,null,neutral_feedback,1,test,25,,,,,,,,
,,,,,,,,,,,html-button-response,255,2.0.0,560728,64d518b2a5e95098500a176c,2,10,1738,,,,,,,,,"<img src= ""rock_img/I_Pumice_04.jpg"" style=""width:8cm; height:6.819999999999999cm;""><p>What type of rock is this?</p>",7,class_response,1,test,26,Pumice,Pumice,4,TRUE,8,8,,
,,,,,,,,,,,html-keyboard-response,256,2.0.0,561233,64d518b2a5e95098500a176c,2,10,null,,,,,,,,,<p style='font-size: 30px;'><strong>Okay</strong></p>,null,neutral_feedback,1,test,26,,,,,,,,
,,,,,,,,,,,html-button-response,257,2.0.0,563436,64d518b2a5e95098500a176c,2,10,2200,,,,,,,,,"<img src= ""rock_img/I_Peridotite_12.jpg"" style=""width:8cm; height:4.54cm;""><p>What type of rock is this?</p>",2,class_response,1,test,27,Diorite,Peridotite,12,FALSE,3,7,,
,,,,,,,,,,,html-keyboard-response,258,2.0.0,563950,64d518b2a5e95098500a176c,2,10,null,,,,,,,,,<p style='font-size: 30px;'><strong>Okay</strong></p>,null,neutral_feedback,1,test,27,,,,,,,,
,,,,,,,,,,,html-button-response,259,2.0.0,565061,64d518b2a5e95098500a176c,2,10,1109,,,,,,,,,"<img src= ""rock_img/I_Andesite_07.jpg"" style=""width:8cm; height:5.93cm;""><p>What type of rock is this?</p>",6,class_response,1,test,28,Peridotite,Andesite,7,FALSE,7,1,,
,,,,,,,,,,,html-keyboard-response,260,2.0.0,565565,64d518b2a5e95098500a176c,2,10,null,,,,,,,,,<p style='font-size: 30px;'><strong>Okay</strong></p>,null,neutral_feedback,1,test,28,,,,,,,,
,,,,,,,,,,,html-button-response,261,2.0.0,566778,64d518b2a5e95098500a176c,2,10,1210,,,,,,,,,"<img src= ""rock_img/I_Andesite_04.jpg"" style=""width:8cm; height:5.96cm;""><p>What type of rock is this?</p>",6,class_response,1,test,29,Peridotite,Andesite,4,FALSE,7,1,,
,,,,,,,,,,,html-keyboard-response,262,2.0.0,567286,64d518b2a5e95098500a176c,2,10,null,,,,,,,,,<p style='font-size: 30px;'><strong>Okay</strong></p>,null,neutral_feedback,1,test,29,,,,,,,,
,,,,,,,,,,,html-button-response,263,2.0.0,568909,64d518b2a5e95098500a176c,2,10,1621,,,,,,,,,"<img src= ""rock_img/I_Andesite_10.jpg"" style=""width:8cm; height:4.16cm;""><p>What type of rock is this?</p>",3,class_response,1,test,30,Gabbro,Andesite,10,FALSE,4,1,,
,,,,,,,,,,,html-keyboard-response,264,2.0.0,569419,64d518b2a5e95098500a176c,2,10,null,,,,,,,,,<p style='font-size: 30px;'><strong>Okay</strong></p>,null,neutral_feedback,1,test,30,,,,,,,,
,,,,,,,,,,,html-button-response,265,2.0.0,571314,64d518b2a5e95098500a176c,2,10,1892,,,,,,,,,"<img src= ""rock_img/I_Peridotite_14.jpg"" style=""width:8cm; height:5.3cm;""><p>What type of rock is this?</p>",5,class_response,1,test,31,Pegmatite,Peridotite,14,FALSE,6,7,,
,,,,,,,,,,,html-keyboard-response,266,2.0.0,571817,64d518b2a5e95098500a176c,2,10,null,,,,,,,,,<p style='font-size: 30px;'><strong>Okay</strong></p>,null,neutral_feedback,1,test,31,,,,,,,,
,,,,,,,,,,,html-button-response,267,2.0.0,573236,64d518b2a5e95098500a176c,2,10,1417,,,,,,,,,"<img src= ""rock_img/I_Pegmatite_16.jpg"" style=""width:8cm; height:5.8cm;""><p>What type of rock is this?</p>",5,class_response,1,test,32,Pegmatite,Pegmatite,16,TRUE,6,6,,
,,,,,,,,,,,html-keyboard-response,268,2.0.0,573746,64d518b2a5e95098500a176c,2,10,null,,,,,,,,,<p style='font-size: 30px;'><strong>Okay</strong></p>,null,neutral_feedback,1,test,32,,,,,,,,
,,,,,,,,,,,html-button-response,269,2.0.0,576834,64d518b2a5e95098500a176c,2,10,3085,,,,,,,,,"<img src= ""rock_img/I_Diorite_14.jpg"" style=""width:8cm; height:5.71cm;""><p>What type of rock is this?</p>",0,class_response,1,test,33,Andesite,Diorite,14,FALSE,1,3,,
,,,,,,,,,,,html-keyboard-response,270,2.0.0,577350,64d518b2a5e95098500a176c,2,10,null,,,,,,,,,<p style='font-size: 30px;'><strong>Okay</strong></p>,null,neutral_feedback,1,test,33,,,,,,,,
,,,,,,,,,,,html-button-response,271,2.0.0,579021,64d518b2a5e95098500a176c,2,10,1669,,,,,,,,,"<img src= ""rock_img/I_Diorite_13.jpg"" style=""width:8cm; height:6.29cm;""><p>What type of rock is this?</p>",2,class_response,1,test,34,Diorite,Diorite,13,TRUE,3,3,,
,,,,,,,,,,,html-keyboard-response,272,2.0.0,579533,64d518b2a5e95098500a176c,2,10,null,,,,,,,,,<p style='font-size: 30px;'><strong>Okay</strong></p>,null,neutral_feedback,1,test,34,,,,,,,,
,,,,,,,,,,,html-button-response,273,2.0.0,582236,64d518b2a5e95098500a176c,2,10,2701,,,,,,,,,"<img src= ""rock_img/I_Basalt_02.jpg"" style=""width:8cm; height:6.45cm;""><p>What type of rock is this?</p>",1,class_response,1,test,35,Basalt,Basalt,2,TRUE,2,2,,
,,,,,,,,,,,html-keyboard-response,274,2.0.0,582750,64d518b2a5e95098500a176c,2,10,null,,,,,,,,,<p style='font-size: 30px;'><strong>Okay</strong></p>,null,neutral_feedback,1,test,35,,,,,,,,
,,,,,,,,,,,html-button-response,275,2.0.0,584270,64d518b2a5e95098500a176c,2,10,1517,,,,,,,,,"<img src= ""rock_img/I_Obsidian_07.jpg"" style=""width:8cm; height:4.76cm;""><p>What type of rock is this?</p>",4,class_response,1,test,36,Obsidian,Obsidian,7,TRUE,5,5,,
,,,,,,,,,,,html-keyboard-response,276,2.0.0,584777,64d518b2a5e95098500a176c,2,10,null,,,,,,,,,<p style='font-size: 30px;'><strong>Okay</strong></p>,null,neutral_feedback,1,test,36,,,,,,,,
,,,,,,,,,,,html-button-response,277,2.0.0,587870,64d518b2a5e95098500a176c,2,10,3091,,,,,,,,,"<img src= ""rock_img/I_Basalt_01.jpg"" style=""width:8cm; height:7.880000000000001cm;""><p>What type of rock is this?</p>",1,class_response,1,test,37,Basalt,Basalt,1,TRUE,2,2,,
,,,,,,,,,,,html-keyboard-response,278,2.0.0,588384,64d518b2a5e95098500a176c,2,10,null,,,,,,,,,<p style='font-size: 30px;'><strong>Okay</strong></p>,null,neutral_feedback,1,test,37,,,,,,,,
,,,,,,,,,,,html-button-response,279,2.0.0,592520,64d518b2a5e95098500a176c,2,10,4133,,,,,,,,,"<img src= ""rock_img/I_Diorite_02.jpg"" style=""width:8cm; height:6.27cm;""><p>What type of rock is this?</p>",6,class_response,1,test,38,Peridotite,Diorite,2,FALSE,7,3,,
,,,,,,,,,,,html-keyboard-response,280,2.0.0,593028,64d518b2a5e95098500a176c,2,10,null,,,,,,,,,<p style='font-size: 30px;'><strong>Okay</strong></p>,null,neutral_feedback,1,test,38,,,,,,,,
,,,,,,,,,,,html-button-response,281,2.0.0,595518,64d518b2a5e95098500a176c,2,10,2488,,,,,,,,,"<img src= ""rock_img/I_Pumice_15.jpg"" style=""width:8cm; height:7.86cm;""><p>What type of rock is this?</p>",7,class_response,1,test,39,Pumice,Pumice,15,TRUE,8,8,,
,,,,,,,,,,,html-keyboard-response,282,2.0.0,596023,64d518b2a5e95098500a176c,2,10,null,,,,,,,,,<p style='font-size: 30px;'><strong>Okay</strong></p>,null,neutral_feedback,1,test,39,,,,,,,,
,,,,,,,,,,,html-button-response,283,2.0.0,597416,64d518b2a5e95098500a176c,2,10,1390,,,,,,,,,"<img src= ""rock_img/I_Gabbro_13.jpg"" style=""width:8cm; height:5.08cm;""><p>What type of rock is this?</p>",3,class_response,1,test,40,Gabbro,Gabbro,13,TRUE,4,4,,
,,,,,,,,,,,html-keyboard-response,284,2.0.0,597927,64d518b2a5e95098500a176c,2,10,null,,,,,,,,,<p style='font-size: 30px;'><strong>Okay</strong></p>,null,neutral_feedback,1,test,40,,,,,,,,
,,,,,,,,,,,html-button-response,285,2.0.0,599308,64d518b2a5e95098500a176c,2,10,1379,,,,,,,,,"<img src= ""rock_img/I_Obsidian_14.jpg"" style=""width:8cm; height:7.64cm;""><p>What type of rock is this?</p>",4,class_response,1,test,41,Obsidian,Obsidian,14,TRUE,5,5,,
,,,,,,,,,,,html-keyboard-response,286,2.0.0,599818,64d518b2a5e95098500a176c,2,10,null,,,,,,,,,<p style='font-size: 30px;'><strong>Okay</strong></p>,null,neutral_feedback,1,test,41,,,,,,,,
,,,,,,,,,,,html-button-response,287,2.0.0,601390,64d518b2a5e95098500a176c,2,10,1569,,,,,,,,,"<img src= ""rock_img/I_Gabbro_08.jpg"" style=""width:8cm; height:5.15cm;""><p>What type of rock is this?</p>",1,class_response,1,test,42,Basalt,Gabbro,8,FALSE,2,4,,
,,,,,,,,,,,html-keyboard-response,288,2.0.0,601905,64d518b2a5e95098500a176c,2,10,null,,,,,,,,,<p style='font-size: 30px;'><strong>Okay</strong></p>,null,neutral_feedback,1,test,42,,,,,,,,
,,,,,,,,,,,html-button-response,289,2.0.0,603114,64d518b2a5e95098500a176c,2,10,1206,,,,,,,,,"<img src= ""rock_img/I_Basalt_14.jpg"" style=""width:8cm; height:5.82cm;""><p>What type of rock is this?</p>",5,class_response,1,test,43,Pegmatite,Basalt,14,FALSE,6,2,,
,,,,,,,,,,,html-keyboard-response,290,2.0.0,603620,64d518b2a5e95098500a176c,2,10,null,,,,,,,,,<p style='font-size: 30px;'><strong>Okay</strong></p>,null,neutral_feedback,1,test,43,,,,,,,,
,,,,,,,,,,,html-button-response,291,2.0.0,604974,64d518b2a5e95098500a176c,2,10,1351,,,,,,,,,"<img src= ""rock_img/I_Gabbro_16.jpg"" style=""width:8cm; height:6.44cm;""><p>What type of rock is this?</p>",6,class_response,1,test,44,Peridotite,Gabbro,16,FALSE,7,4,,
,,,,,,,,,,,html-keyboard-response,292,2.0.0,605482,64d518b2a5e95098500a176c,2,10,null,,,,,,,,,<p style='font-size: 30px;'><strong>Okay</strong></p>,null,neutral_feedback,1,test,44,,,,,,,,
,,,,,,,,,,,html-button-response,293,2.0.0,608034,64d518b2a5e95098500a176c,2,10,2550,,,,,,,,,"<img src= ""rock_img/I_Obsidian_06.jpg"" style=""width:8cm; height:6.8cm;""><p>What type of rock is this?</p>",4,class_response,1,test,45,Obsidian,Obsidian,6,TRUE,5,5,,
,,,,,,,,,,,html-keyboard-response,294,2.0.0,608550,64d518b2a5e95098500a176c,2,10,null,,,,,,,,,<p style='font-size: 30px;'><strong>Okay</strong></p>,null,neutral_feedback,1,test,45,,,,,,,,
,,,,,,,,,,,html-button-response,295,2.0.0,611915,64d518b2a5e95098500a176c,2,10,3362,,,,,,,,,"<img src= ""rock_img/I_Diorite_16.jpg"" style=""width:8cm; height:6.74cm;""><p>What type of rock is this?</p>",6,class_response,1,test,46,Peridotite,Diorite,16,FALSE,7,3,,
,,,,,,,,,,,html-keyboard-response,296,2.0.0,612419,64d518b2a5e95098500a176c,2,10,null,,,,,,,,,<p style='font-size: 30px;'><strong>Okay</strong></p>,null,neutral_feedback,1,test,46,,,,,,,,
,,,,,,,,,,,html-button-response,297,2.0.0,614086,64d518b2a5e95098500a176c,2,10,1665,,,,,,,,,"<img src= ""rock_img/I_Basalt_05.jpg"" style=""width:8cm; height:8.18cm;""><p>What type of rock is this?</p>",1,class_response,1,test,47,Basalt,Basalt,5,TRUE,2,2,,
,,,,,,,,,,,html-keyboard-response,298,2.0.0,614603,64d518b2a5e95098500a176c,2,10,null,,,,,,,,,<p style='font-size: 30px;'><strong>Okay</strong></p>,null,neutral_feedback,1,test,47,,,,,,,,
,,,,,,,,,,,html-button-response,299,2.0.0,616387,64d518b2a5e95098500a176c,2,10,1781,,,,,,,,,"<img src= ""rock_img/I_Pegmatite_13.jpg"" style=""width:8cm; height:4.95cm;""><p>What type of rock is this?</p>",6,class_response,1,test,48,Peridotite,Pegmatite,13,FALSE,7,6,,
,,,,,,,,,,,html-keyboard-response,300,2.0.0,616896,64d518b2a5e95098500a176c,2,10,null,,,,,,,,,<p style='font-size: 30px;'><strong>Okay</strong></p>,null,neutral_feedback,1,test,48,,,,,,,,
,,,,,,,,,,,html-button-response,301,2.0.0,629703,64d518b2a5e95098500a176c,2,10,,,,,,,,,,,,cycle_feedback,,,,,,,,,,6247.6,6549.7
,,,,,,,,,,,html-button-response,303,2.0.0,631866,64d518b2a5e95098500a176c,2,10,2161,,,,,,,,,,0,start_train,,,,,,,,,,,
,,,,,,,,,,,html-button-response,304,2.0.0,634535,64d518b2a5e95098500a176c,2,10,2665,,,,,,,,,"<img src= ""rock_img/I_Peridotite_08.jpg"" style=""width:8cm; height:6.7cm;""><p>What type of rock is this?</p>",6,class_response,2,train,1,Peridotite,Peridotite,8,TRUE,7,7,,
,,,,,,,,,,,html-button-response,305,2.0.0,637250,64d518b2a5e95098500a176c,2,10,2713,,,,,,,,,"<img src= rock_img/I_Peridotite_08.jpg style=""width:8cm; height:6.7cm;""><p style='font-size: 30px; color: green;'><strong>Correct!</strong></p><p style='font-size: 30px;'><strong>This rock is peridotite</strong></p>",0,corr_feedback,2,train,1,,,,,,,,
,,,,,,,,,,,html-button-response,306,2.0.0,638636,64d518b2a5e95098500a176c,2,10,1384,,,,,,,,,"<img src= ""rock_img/I_Diorite_15.jpg"" style=""width:8cm; height:5.54cm;""><p>What type of rock is this?</p>",5,class_response,2,train,2,Pegmatite,Diorite,15,FALSE,6,3,,
,,,,,,,,,,,html-button-response,307,2.0.0,639598,64d518b2a5e95098500a176c,2,10,960,,,,,,,,,"<img src= rock_img/I_Diorite_15.jpg style=""width:8cm; height:5.54cm;""><p style='font-size: 30px; color: red;'><strong>Incorrect!</strong></p><p style='font-size: 30px;'><strong>This rock is diorite</strong></p>",0,corr_feedback,2,train,2,,,,,,,,
,,,,,,,,,,,html-button-response,308,2.0.0,641113,64d518b2a5e95098500a176c,2,10,1512,,,,,,,,,"<img src= ""rock_img/I_Basalt_08.jpg"" style=""width:8cm; height:10.44cm;""><p>What type of rock is this?</p>",1,class_response,2,train,3,Basalt,Basalt,8,TRUE,2,2,,
,,,,,,,,,,,html-button-response,309,2.0.0,642099,64d518b2a5e95098500a176c,2,10,984,,,,,,,,,"<img src= rock_img/I_Basalt_08.jpg style=""width:8cm; height:10.44cm;""><p style='font-size: 30px; color: green;'><strong>Correct!</strong></p><p style='font-size: 30px;'><strong>This rock is basalt</strong></p>",0,corr_feedback,2,train,3,,,,,,,,
,,,,,,,,,,,html-button-response,310,2.0.0,643522,64d518b2a5e95098500a176c,2,10,1421,,,,,,,,,"<img src= ""rock_img/I_Peridotite_05.jpg"" style=""width:8cm; height:7.1499999999999995cm;""><p>What type of rock is this?</p>",2,class_response,2,train,4,Diorite,Peridotite,5,FALSE,3,7,,
,,,,,,,,,,,html-button-response,311,2.0.0,644692,64d518b2a5e95098500a176c,2,10,1168,,,,,,,,,"<img src= rock_img/I_Peridotite_05.jpg style=""width:8cm; height:7.1499999999999995cm;""><p style='font-size: 30px; color: red;'><strong>Incorrect!</strong></p><p style='font-size: 30px;'><strong>This rock is peridotite</strong></p>",0,corr_feedback,2,train,4,,,,,,,,
,,,,,,,,,,,html-button-response,312,2.0.0,646207,64d518b2a5e95098500a176c,2,10,1512,,,,,,,,,"<img src= ""rock_img/I_Andesite_11.jpg"" style=""width:8cm; height:4.92cm;""><p>What type of rock is this?</p>",5,class_response,2,train,5,Pegmatite,Andesite,11,FALSE,6,1,,
,,,,,,,,,,,html-button-response,313,2.0.0,647408,64d518b2a5e95098500a176c,2,10,1200,,,,,,,,,"<img src= rock_img/I_Andesite_11.jpg style=""width:8cm; height:4.92cm;""><p style='font-size: 30px; color: red;'><strong>Incorrect!</strong></p><p style='font-size: 30px;'><strong>This rock is andesite</strong></p>",0,corr_feedback,2,train,5,,,,,,,,
,,,,,,,,,,,html-button-response,314,2.0.0,649083,64d518b2a5e95098500a176c,2,10,1672,,,,,,,,,"<img src= ""rock_img/I_Pegmatite_07.jpg"" style=""width:8cm; height:6.7cm;""><p>What type of rock is this?</p>",5,class_response,2,train,6,Pegmatite,Pegmatite,7,TRUE,6,6,,
,,,,,,,,,,,html-button-response,315,2.0.0,650196,64d518b2a5e95098500a176c,2,10,1111,,,,,,,,,"<img src= rock_img/I_Pegmatite_07.jpg style=""width:8cm; height:6.7cm;""><p style='font-size: 30px; color: green;'><strong>Correct!</strong></p><p style='font-size: 30px;'><strong>This rock is pegmatite</strong></p>",0,corr_feedback,2,train,6,,,,,,,,
,,,,,,,,,,,html-button-response,316,2.0.0,651647,64d518b2a5e95098500a176c,2,10,1448,,,,,,,,,"<img src= ""rock_img/I_Peridotite_06.jpg"" style=""width:8cm; height:7.53cm;""><p>What type of rock is this?</p>",5,class_response,2,train,7,Pegmatite,Peridotite,6,FALSE,6,7,,
,,,,,,,,,,,html-button-response,317,2.0.0,652928,64d518b2a5e95098500a176c,2,10,1280,,,,,,,,,"<img src= rock_img/I_Peridotite_06.jpg style=""width:8cm; height:7.53cm;""><p style='font-size: 30px; color: red;'><strong>Incorrect!</strong></p><p style='font-size: 30px;'><strong>This rock is peridotite</strong></p>",0,corr_feedback,2,train,7,,,,,,,,
,,,,,,,,,,,html-button-response,318,2.0.0,654186,64d518b2a5e95098500a176c,2,10,1255,,,,,,,,,"<img src= ""rock_img/I_Obsidian_04.jpg"" style=""width:8cm; height:6.930000000000001cm;""><p>What type of rock is this?</p>",4,class_response,2,train,8,Obsidian,Obsidian,4,TRUE,5,5,,
,,,,,,,,,,,html-button-response,319,2.0.0,655197,64d518b2a5e95098500a176c,2,10,1008,,,,,,,,,"<img src= rock_img/I_Obsidian_04.jpg style=""width:8cm; height:6.930000000000001cm;""><p style='font-size: 30px; color: green;'><strong>Correct!</strong></p><p style='font-size: 30px;'><strong>This rock is obsidian</strong></p>",0,corr_feedback,2,train,8,,,,,,,,
,,,,,,,,,,,html-button-response,320,2.0.0,656687,64d518b2a5e95098500a176c,2,10,1488,,,,,,,,,"<img src= ""rock_img/I_Basalt_09.jpg"" style=""width:8cm; height:6.2cm;""><p>What type of rock is this?</p>",1,class_response,2,train,9,Basalt,Basalt,9,TRUE,2,2,,
,,,,,,,,,,,html-button-response,321,2.0.0,657768,64d518b2a5e95098500a176c,2,10,1079,,,,,,,,,"<img src= rock_img/I_Basalt_09.jpg style=""width:8cm; height:6.2cm;""><p style='font-size: 30px; color: green;'><strong>Correct!</strong></p><p style='font-size: 30px;'><strong>This rock is basalt</strong></p>",0,corr_feedback,2,train,9,,,,,,,,
,,,,,,,,,,,html-button-response,322,2.0.0,660028,64d518b2a5e95098500a176c,2,10,2258,,,,,,,,,"<img src= ""rock_img/I_Peridotite_05.jpg"" style=""width:8cm; height:7.1499999999999995cm;""><p>What type of rock is this?</p>",0,class_response,2,train,10,Andesite,Peridotite,5,FALSE,1,7,,
,,,,,,,,,,,html-button-response,323,2.0.0,661180,64d518b2a5e95098500a176c,2,10,1150,,,,,,,,,"<img src= rock_img/I_Peridotite_05.jpg style=""width:8cm; height:7.1499999999999995cm;""><p style='font-size: 30px; color: red;'><strong>Incorrect!</strong></p><p style='font-size: 30px;'><strong>This rock is peridotite</strong></p>",0,corr_feedback,2,train,10,,,,,,,,
,,,,,,,,,,,html-button-response,324,2.0.0,662471,64d518b2a5e95098500a176c,2,10,1288,,,,,,,,,"<img src= ""rock_img/I_Pegmatite_03.jpg"" style=""width:8cm; height:5.239999999999999cm;""><p>What type of rock is this?</p>",5,class_response,2,train,11,Pegmatite,Pegmatite,3,TRUE,6,6,,
,,,,,,,,,,,html-button-response,325,2.0.0,663632,64d518b2a5e95098500a176c,2,10,1160,,,,,,,,,"<img src= rock_img/I_Pegmatite_03.jpg style=""width:8cm; height:5.239999999999999cm;""><p style='font-size: 30px; color: green;'><strong>Correct!</strong></p><p style='font-size: 30px;'><strong>This rock is pegmatite</strong></p>",0,corr_feedback,2,train,11,,,,,,,,
,,,,,,,,,,,html-button-response,326,2.0.0,665765,64d518b2a5e95098500a176c,2,10,2130,,,,,,,,,"<img src= ""rock_img/I_Gabbro_15.jpg"" style=""width:8cm; height:6.29cm;""><p>What type of rock is this?</p>",2,class_response,2,train,12,Diorite,Gabbro,15,FALSE,3,4,,
,,,,,,,,,,,html-button-response,327,2.0.0,666828,64d518b2a5e95098500a176c,2,10,1061,,,,,,,,,"<img src= rock_img/I_Gabbro_15.jpg style=""width:8cm; height:6.29cm;""><p style='font-size: 30px; color: red;'><strong>Incorrect!</strong></p><p style='font-size: 30px;'><strong>This rock is gabbro</strong></p>",0,corr_feedback,2,train,12,,,,,,,,
,,,,,,,,,,,html-button-response,328,2.0.0,669281,64d518b2a5e95098500a176c,2,10,2450,,,,,,,,,"<img src= ""rock_img/I_Peridotite_02.jpg"" style=""width:8cm; height:5.859999999999999cm;""><p>What type of rock is this?</p>",2,class_response,2,train,13,Diorite,Peridotite,2,FALSE,3,7,,
,,,,,,,,,,,html-button-response,329,2.0.0,670298,64d518b2a5e95098500a176c,2,10,1016,,,,,,,,,"<img src= rock_img/I_Peridotite_02.jpg style=""width:8cm; height:5.859999999999999cm;""><p style='font-size: 30px; color: red;'><strong>Incorrect!</strong></p><p style='font-size: 30px;'><strong>This rock is peridotite</strong></p>",0,corr_feedback,2,train,13,,,,,,,,
,,,,,,,,,,,html-button-response,330,2.0.0,671556,64d518b2a5e95098500a176c,2,10,1255,,,,,,,,,"<img src= ""rock_img/I_Gabbro_11.jpg"" style=""width:8cm; height:6.2cm;""><p>What type of rock is this?</p>",2,class_response,2,train,14,Diorite,Gabbro,11,FALSE,3,4,,
,,,,,,,,,,,html-button-response,331,2.0.0,672742,64d518b2a5e95098500a176c,2,10,1184,,,,,,,,,"<img src= rock_img/I_Gabbro_11.jpg style=""width:8cm; height:6.2cm;""><p style='font-size: 30px; color: red;'><strong>Incorrect!</strong></p><p style='font-size: 30px;'><strong>This rock is gabbro</strong></p>",0,corr_feedback,2,train,14,,,,,,,,
,,,,,,,,,,,html-button-response,332,2.0.0,674105,64d518b2a5e95098500a176c,2,10,1360,,,,,,,,,"<img src= ""rock_img/I_Andesite_06.jpg"" style=""width:8cm; height:6.840000000000001cm;""><p>What type of rock is this?</p>",2,class_response,2,train,15,Diorite,Andesite,6,FALSE,3,1,,
,,,,,,,,,,,html-button-response,333,2.0.0,675971,64d518b2a5e95098500a176c,2,10,1864,,,,,,,,,"<img src= rock_img/I_Andesite_06.jpg style=""width:8cm; height:6.840000000000001cm;""><p style='font-size: 30px; color: red;'><strong>Incorrect!</strong></p><p style='font-size: 30px;'><strong>This rock is andesite</strong></p>",0,corr_feedback,2,train,15,,,,,,,,
,,,,,,,,,,,html-button-response,334,2.0.0,677589,64d518b2a5e95098500a176c,2,10,1615,,,,,,,,,"<img src= ""rock_img/I_Pegmatite_15.jpg"" style=""width:8cm; height:6cm;""><p>What type of rock is this?</p>",5,class_response,2,train,16,Pegmatite,Pegmatite,15,TRUE,6,6,,
,,,,,,,,,,,html-button-response,335,2.0.0,678886,64d518b2a5e95098500a176c,2,10,1295,,,,,,,,,"<img src= rock_img/I_Pegmatite_15.jpg style=""width:8cm; height:6cm;""><p style='font-size: 30px; color: green;'><strong>Correct!</strong></p><p style='font-size: 30px;'><strong>This rock is pegmatite</strong></p>",0,corr_feedback,2,train,16,,,,,,,,
,,,,,,,,,,,html-button-response,336,2.0.0,680737,64d518b2a5e95098500a176c,2,10,1848,,,,,,,,,"<img src= ""rock_img/I_Basalt_06.jpg"" style=""width:8cm; height:7.06cm;""><p>What type of rock is this?</p>",1,class_response,2,train,17,Basalt,Basalt,6,TRUE,2,2,,
,,,,,,,,,,,html-button-response,337,2.0.0,681803,64d518b2a5e95098500a176c,2,10,1064,,,,,,,,,"<img src= rock_img/I_Basalt_06.jpg style=""width:8cm; height:7.06cm;""><p style='font-size: 30px; color: green;'><strong>Correct!</strong></p><p style='font-size: 30px;'><strong>This rock is basalt</strong></p>",0,corr_feedback,2,train,17,,,,,,,,
,,,,,,,,,,,html-button-response,338,2.0.0,683517,64d518b2a5e95098500a176c,2,10,1711,,,,,,,,,"<img src= ""rock_img/I_Gabbro_12.jpg"" style=""width:8cm; height:7.800000000000001cm;""><p>What type of rock is this?</p>",3,class_response,2,train,18,Gabbro,Gabbro,12,TRUE,4,4,,
,,,,,,,,,,,html-button-response,339,2.0.0,684823,64d518b2a5e95098500a176c,2,10,1304,,,,,,,,,"<img src= rock_img/I_Gabbro_12.jpg style=""width:8cm; height:7.800000000000001cm;""><p style='font-size: 30px; color: green;'><strong>Correct!</strong></p><p style='font-size: 30px;'><strong>This rock is gabbro</strong></p>",0,corr_feedback,2,train,18,,,,,,,,
,,,,,,,,,,,html-button-response,340,2.0.0,686585,64d518b2a5e95098500a176c,2,10,1759,,,,,,,,,"<img src= ""rock_img/I_Peridotite_15.jpg"" style=""width:8cm; height:6cm;""><p>What type of rock is this?</p>",2,class_response,2,train,19,Diorite,Peridotite,15,FALSE,3,7,,
,,,,,,,,,,,html-button-response,341,2.0.0,687618,64d518b2a5e95098500a176c,2,10,1031,,,,,,,,,"<img src= rock_img/I_Peridotite_15.jpg style=""width:8cm; height:6cm;""><p style='font-size: 30px; color: red;'><strong>Incorrect!</strong></p><p style='font-size: 30px;'><strong>This rock is peridotite</strong></p>",0,corr_feedback,2,train,19,,,,,,,,
,,,,,,,,,,,html-button-response,342,2.0.0,688908,64d518b2a5e95098500a176c,2,10,1288,,,,,,,,,"<img src= ""rock_img/I_Diorite_07.jpg"" style=""width:8cm; height:5.239999999999999cm;""><p>What type of rock is this?</p>",5,class_response,2,train,20,Pegmatite,Diorite,7,FALSE,6,3,,
,,,,,,,,,,,html-button-response,343,2.0.0,689887,64d518b2a5e95098500a176c,2,10,976,,,,,,,,,"<img src= rock_img/I_Diorite_07.jpg style=""width:8cm; height:5.239999999999999cm;""><p style='font-size: 30px; color: red;'><strong>Incorrect!</strong></p><p style='font-size: 30px;'><strong>This rock is diorite</strong></p>",0,corr_feedback,2,train,20,,,,,,,,
,,,,,,,,,,,html-button-response,344,2.0.0,691281,64d518b2a5e95098500a176c,2,10,1392,,,,,,,,,"<img src= ""rock_img/I_Pegmatite_15.jpg"" style=""width:8cm; height:6cm;""><p>What type of rock is this?</p>",5,class_response,2,train,21,Pegmatite,Pegmatite,15,TRUE,6,6,,
,,,,,,,,,,,html-button-response,345,2.0.0,692483,64d518b2a5e95098500a176c,2,10,1199,,,,,,,,,"<img src= rock_img/I_Pegmatite_15.jpg style=""width:8cm; height:6cm;""><p style='font-size: 30px; color: green;'><strong>Correct!</strong></p><p style='font-size: 30px;'><strong>This rock is pegmatite</strong></p>",0,corr_feedback,2,train,21,,,,,,,,
,,,,,,,,,,,html-button-response,346,2.0.0,694269,64d518b2a5e95098500a176c,2,10,1783,,,,,,,,,"<img src= ""rock_img/I_Andesite_14.jpg"" style=""width:8cm; height:5.449999999999999cm;""><p>What type of rock is this?</p>",5,class_response,2,train,22,Pegmatite,Andesite,14,FALSE,6,1,,
,,,,,,,,,,,html-button-response,347,2.0.0,695327,64d518b2a5e95098500a176c,2,10,1056,,,,,,,,,"<img src= rock_img/I_Andesite_14.jpg style=""width:8cm; height:5.449999999999999cm;""><p style='font-size: 30px; color: red;'><strong>Incorrect!</strong></p><p style='font-size: 30px;'><strong>This rock is andesite</strong></p>",0,corr_feedback,2,train,22,,,,,,,,
,,,,,,,,,,,html-button-response,348,2.0.0,696391,64d518b2a5e95098500a176c,2,10,1062,,,,,,,,,"<img src= ""rock_img/I_Pegmatite_12.jpg"" style=""width:8cm; height:5.7cm;""><p>What type of rock is this?</p>",5,class_response,2,train,23,Pegmatite,Pegmatite,12,TRUE,6,6,,
,,,,,,,,,,,html-button-response,349,2.0.0,697249,64d518b2a5e95098500a176c,2,10,856,,,,,,,,,"<img src= rock_img/I_Pegmatite_12.jpg style=""width:8cm; height:5.7cm;""><p style='font-size: 30px; color: green;'><strong>Correct!</strong></p><p style='font-size: 30px;'><strong>This rock is pegmatite</strong></p>",0,corr_feedback,2,train,23,,,,,,,,
,,,,,,,,,,,html-button-response,350,2.0.0,698635,64d518b2a5e95098500a176c,2,10,1383,,,,,,,,,"<img src= ""rock_img/I_Andesite_02.jpg"" style=""width:8cm; height:8.5cm;""><p>What type of rock is this?</p>",6,class_response,2,train,24,Peridotite,Andesite,2,FALSE,7,1,,
,,,,,,,,,,,html-button-response,351,2.0.0,699701,64d518b2a5e95098500a176c,2,10,1063,,,,,,,,,"<img src= rock_img/I_Andesite_02.jpg style=""width:8cm; height:8.5cm;""><p style='font-size: 30px; color: red;'><strong>Incorrect!</strong></p><p style='font-size: 30px;'><strong>This rock is andesite</strong></p>",0,corr_feedback,2,train,24,,,,,,,,
,,,,,,,,,,,html-button-response,352,2.0.0,703193,64d518b2a5e95098500a176c,2,10,3490,,,,,,,,,"<img src= ""rock_img/I_Andesite_03.jpg"" style=""width:8cm; height:5.73cm;""><p>What type of rock is this?</p>",3,class_response,2,train,25,Gabbro,Andesite,3,FALSE,4,1,,
,,,,,,,,,,,html-button-response,353,2.0.0,704363,64d518b2a5e95098500a176c,2,10,1167,,,,,,,,,"<img src= rock_img/I_Andesite_03.jpg style=""width:8cm; height:5.73cm;""><p style='font-size: 30px; color: red;'><strong>Incorrect!</strong></p><p style='font-size: 30px;'><strong>This rock is andesite</strong></p>",0,corr_feedback,2,train,25,,,,,,,,
,,,,,,,,,,,html-button-response,354,2.0.0,705909,64d518b2a5e95098500a176c,2,10,1543,,,,,,,,,"<img src= ""rock_img/I_Pumice_02.jpg"" style=""width:8cm; height:7.3999999999999995cm;""><p>What type of rock is this?</p>",7,class_response,2,train,26,Pumice,Pumice,2,TRUE,8,8,,
,,,,,,,,,,,html-button-response,355,2.0.0,706967,64d518b2a5e95098500a176c,2,10,1056,,,,,,,,,"<img src= rock_img/I_Pumice_02.jpg style=""width:8cm; height:7.3999999999999995cm;""><p style='font-size: 30px; color: green;'><strong>Correct!</strong></p><p style='font-size: 30px;'><strong>This rock is pumice</strong></p>",0,corr_feedback,2,train,26,,,,,,,,
,,,,,,,,,,,html-button-response,356,2.0.0,708769,64d518b2a5e95098500a176c,2,10,1800,,,,,,,,,"<img src= ""rock_img/I_Peridotite_07.jpg"" style=""width:8cm; height:4.83cm;""><p>What type of rock is this?</p>",6,class_response,2,train,27,Peridotite,Peridotite,7,TRUE,7,7,,
,,,,,,,,,,,html-button-response,357,2.0.0,709867,64d518b2a5e95098500a176c,2,10,1096,,,,,,,,,"<img src= rock_img/I_Peridotite_07.jpg style=""width:8cm; height:4.83cm;""><p style='font-size: 30px; color: green;'><strong>Correct!</strong></p><p style='font-size: 30px;'><strong>This rock is peridotite</strong></p>",0,corr_feedback,2,train,27,,,,,,,,
,,,,,,,,,,,html-button-response,358,2.0.0,711109,64d518b2a5e95098500a176c,2,10,1240,,,,,,,,,"<img src= ""rock_img/I_Pegmatite_07.jpg"" style=""width:8cm; height:6.7cm;""><p>What type of rock is this?</p>",5,class_response,2,train,28,Pegmatite,Pegmatite,7,TRUE,6,6,,
,,,,,,,,,,,html-button-response,359,2.0.0,712173,64d518b2a5e95098500a176c,2,10,1062,,,,,,,,,"<img src= rock_img/I_Pegmatite_07.jpg style=""width:8cm; height:6.7cm;""><p style='font-size: 30px; color: green;'><strong>Correct!</strong></p><p style='font-size: 30px;'><strong>This rock is pegmatite</strong></p>",0,corr_feedback,2,train,28,,,,,,,,
,,,,,,,,,,,html-button-response,360,2.0.0,713673,64d518b2a5e95098500a176c,2,10,1498,,,,,,,,,"<img src= ""rock_img/I_Andesite_14.jpg"" style=""width:8cm; height:5.449999999999999cm;""><p>What type of rock is this?</p>",5,class_response,2,train,29,Pegmatite,Andesite,14,FALSE,6,1,,
,,,,,,,,,,,html-button-response,361,2.0.0,716301,64d518b2a5e95098500a176c,2,10,2626,,,,,,,,,"<img src= rock_img/I_Andesite_14.jpg style=""width:8cm; height:5.449999999999999cm;""><p style='font-size: 30px; color: red;'><strong>Incorrect!</strong></p><p style='font-size: 30px;'><strong>This rock is andesite</strong></p>",0,corr_feedback,2,train,29,,,,,,,,
,,,,,,,,,,,html-button-response,362,2.0.0,718150,64d518b2a5e95098500a176c,2,10,1847,,,,,,,,,"<img src= ""rock_img/I_Diorite_15.jpg"" style=""width:8cm; height:5.54cm;""><p>What type of rock is this?</p>",6,class_response,2,train,30,Peridotite,Diorite,15,FALSE,7,3,,
,,,,,,,,,,,html-button-response,363,2.0.0,719065,64d518b2a5e95098500a176c,2,10,912,,,,,,,,,"<img src= rock_img/I_Diorite_15.jpg style=""width:8cm; height:5.54cm;""><p style='font-size: 30px; color: red;'><strong>Incorrect!</strong></p><p style='font-size: 30px;'><strong>This rock is diorite</strong></p>",0,corr_feedback,2,train,30,,,,,,,,
,,,,,,,,,,,html-button-response,364,2.0.0,720322,64d518b2a5e95098500a176c,2,10,1255,,,,,,,,,"<img src= ""rock_img/I_Diorite_12.jpg"" style=""width:8cm; height:4.88cm;""><p>What type of rock is this?</p>",2,class_response,2,train,31,Diorite,Diorite,12,TRUE,3,3,,
,,,,,,,,,,,html-button-response,365,2.0.0,721493,64d518b2a5e95098500a176c,2,10,1168,,,,,,,,,"<img src= rock_img/I_Diorite_12.jpg style=""width:8cm; height:4.88cm;""><p style='font-size: 30px; color: green;'><strong>Correct!</strong></p><p style='font-size: 30px;'><strong>This rock is diorite</strong></p>",0,corr_feedback,2,train,31,,,,,,,,
,,,,,,,,,,,html-button-response,366,2.0.0,723047,64d518b2a5e95098500a176c,2,10,1551,,,,,,,,,"<img src= ""rock_img/I_Basalt_10.jpg"" style=""width:8cm; height:5.85cm;""><p>What type of rock is this?</p>",1,class_response,2,train,32,Basalt,Basalt,10,TRUE,2,2,,
,,,,,,,,,,,html-button-response,367,2.0.0,724119,64d518b2a5e95098500a176c,2,10,1069,,,,,,,,,"<img src= rock_img/I_Basalt_10.jpg style=""width:8cm; height:5.85cm;""><p style='font-size: 30px; color: green;'><strong>Correct!</strong></p><p style='font-size: 30px;'><strong>This rock is basalt</strong></p>",0,corr_feedback,2,train,32,,,,,,,,
,,,,,,,,,,,html-button-response,368,2.0.0,726139,64d518b2a5e95098500a176c,2,10,2017,,,,,,,,,"<img src= ""rock_img/I_Gabbro_09.jpg"" style=""width:8cm; height:7.279999999999999cm;""><p>What type of rock is this?</p>",5,class_response,2,train,33,Pegmatite,Gabbro,9,FALSE,6,4,,
,,,,,,,,,,,html-button-response,369,2.0.0,727269,64d518b2a5e95098500a176c,2,10,1128,,,,,,,,,"<img src= rock_img/I_Gabbro_09.jpg style=""width:8cm; height:7.279999999999999cm;""><p style='font-size: 30px; color: red;'><strong>Incorrect!</strong></p><p style='font-size: 30px;'><strong>This rock is gabbro</strong></p>",0,corr_feedback,2,train,33,,,,,,,,
,,,,,,,,,,,html-button-response,370,2.0.0,728831,64d518b2a5e95098500a176c,2,10,1560,,,,,,,,,"<img src= ""rock_img/I_Peridotite_08.jpg"" style=""width:8cm; height:6.7cm;""><p>What type of rock is this?</p>",6,class_response,2,train,34,Peridotite,Peridotite,8,TRUE,7,7,,
,,,,,,,,,,,html-button-response,371,2.0.0,730241,64d518b2a5e95098500a176c,2,10,1407,,,,,,,,,"<img src= rock_img/I_Peridotite_08.jpg style=""width:8cm; height:6.7cm;""><p style='font-size: 30px; color: green;'><strong>Correct!</strong></p><p style='font-size: 30px;'><strong>This rock is peridotite</strong></p>",0,corr_feedback,2,train,34,,,,,,,,
,,,,,,,,,,,html-button-response,372,2.0.0,731642,64d518b2a5e95098500a176c,2,10,1399,,,,,,,,,"<img src= ""rock_img/I_Diorite_10.jpg"" style=""width:8cm; height:5.949999999999999cm;""><p>What type of rock is this?</p>",2,class_response,2,train,35,Diorite,Diorite,10,TRUE,3,3,,
,,,,,,,,,,,html-button-response,373,2.0.0,732901,64d518b2a5e95098500a176c,2,10,1256,,,,,,,,,"<img src= rock_img/I_Diorite_10.jpg style=""width:8cm; height:5.949999999999999cm;""><p style='font-size: 30px; color: green;'><strong>Correct!</strong></p><p style='font-size: 30px;'><strong>This rock is diorite</strong></p>",0,corr_feedback,2,train,35,,,,,,,,
,,,,,,,,,,,html-button-response,374,2.0.0,734205,64d518b2a5e95098500a176c,2,10,1301,,,,,,,,,"<img src= ""rock_img/I_Obsidian_12.jpg"" style=""width:8cm; height:6.53cm;""><p>What type of rock is this?</p>",4,class_response,2,train,36,Obsidian,Obsidian,12,TRUE,5,5,,
,,,,,,,,,,,html-button-response,375,2.0.0,735311,64d518b2a5e95098500a176c,2,10,1104,,,,,,,,,"<img src= rock_img/I_Obsidian_12.jpg style=""width:8cm; height:6.53cm;""><p style='font-size: 30px; color: green;'><strong>Correct!</strong></p><p style='font-size: 30px;'><strong>This rock is obsidian</strong></p>",0,corr_feedback,2,train,36,,,,,,,,
,,,,,,,,,,,html-button-response,376,2.0.0,738154,64d518b2a5e95098500a176c,2,10,2842,,,,,,,,,"<img src= ""rock_img/I_Peridotite_07.jpg"" style=""width:8cm; height:4.83cm;""><p>What type of rock is this?</p>",2,class_response,2,train,37,Diorite,Peridotite,7,FALSE,3,7,,
,,,,,,,,,,,html-button-response,377,2.0.0,739245,64d518b2a5e95098500a176c,2,10,1088,,,,,,,,,"<img src= rock_img/I_Peridotite_07.jpg style=""width:8cm; height:4.83cm;""><p style='font-size: 30px; color: red;'><strong>Incorrect!</strong></p><p style='font-size: 30px;'><strong>This rock is peridotite</strong></p>",0,corr_feedback,2,train,37,,,,,,,,
,,,,,,,,,,,html-button-response,378,2.0.0,741087,64d518b2a5e95098500a176c,2,10,1839,,,,,,,,,"<img src= ""rock_img/I_Diorite_08.jpg"" style=""width:8cm; height:6.37cm;""><p>What type of rock is this?</p>",2,class_response,2,train,38,Diorite,Diorite,8,TRUE,3,3,,
,,,,,,,,,,,html-button-response,379,2.0.0,742209,64d518b2a5e95098500a176c,2,10,1120,,,,,,,,,"<img src= rock_img/I_Diorite_08.jpg style=""width:8cm; height:6.37cm;""><p style='font-size: 30px; color: green;'><strong>Correct!</strong></p><p style='font-size: 30px;'><strong>This rock is diorite</strong></p>",0,corr_feedback,2,train,38,,,,,,,,
,,,,,,,,,,,html-button-response,380,2.0.0,743661,64d518b2a5e95098500a176c,2,10,1450,,,,,,,,,"<img src= ""rock_img/I_Gabbro_15.jpg"" style=""width:8cm; height:6.29cm;""><p>What type of rock is this?</p>",6,class_response,2,train,39,Peridotite,Gabbro,15,FALSE,7,4,,
,,,,,,,,,,,html-button-response,381,2.0.0,744572,64d518b2a5e95098500a176c,2,10,910,,,,,,,,,"<img src= rock_img/I_Gabbro_15.jpg style=""width:8cm; height:6.29cm;""><p style='font-size: 30px; color: red;'><strong>Incorrect!</strong></p><p style='font-size: 30px;'><strong>This rock is gabbro</strong></p>",0,corr_feedback,2,train,39,,,,,,,,
,,,,,,,,,,,html-button-response,382,2.0.0,745831,64d518b2a5e95098500a176c,2,10,1256,,,,,,,,,"<img src= ""rock_img/I_Diorite_10.jpg"" style=""width:8cm; height:5.949999999999999cm;""><p>What type of rock is this?</p>",2,class_response,2,train,40,Diorite,Diorite,10,TRUE,3,3,,
,,,,,,,,,,,html-button-response,383,2.0.0,746801,64d518b2a5e95098500a176c,2,10,967,,,,,,,,,"<img src= rock_img/I_Diorite_10.jpg style=""width:8cm; height:5.949999999999999cm;""><p style='font-size: 30px; color: green;'><strong>Correct!</strong></p><p style='font-size: 30px;'><strong>This rock is diorite</strong></p>",0,corr_feedback,2,train,40,,,,,,,,
,,,,,,,,,,,html-button-response,384,2.0.0,748147,64d518b2a5e95098500a176c,2,10,1344,,,,,,,,,"<img src= ""rock_img/I_Andesite_11.jpg"" style=""width:8cm; height:4.92cm;""><p>What type of rock is this?</p>",5,class_response,2,train,41,Pegmatite,Andesite,11,FALSE,6,1,,
