width,height,webaudio,browser,browser_version,mobile,os,fullscreen,vsync_rate,webcam,microphone,trial_type,trial_index,plugin_version,time_elapsed,subjID,condition,stimID,rt,url,success,value,timeout,failed_images,failed_audio,failed_video,view_history,stimulus,response,trialType,cycle,phase,trial,resp,cat,token,corr,resp_num,cat_num,time_fb1,time_fb2
1440,790,TRUE,firefox,132.0.0,FALSE,Mac OS,TRUE,60.3,TRUE,TRUE,browser-check,0,2.0.0,998,61643eae0b4de3c67744a15f,2,1,,,,,,,,,,,,,,,,,,,,,,,
,,,,,,,,,,,external-html,1,2.0.0,56286,61643eae0b4de3c67744a15f,2,1,55099,consent_form.html,,,,,,,,,,,,,,,,,,,,,
,,,,,,,,,,,fullscreen,2,2.0.0,58937,61643eae0b4de3c67744a15f,2,1,1643,,TRUE,,,,,,,,,,,,,,,,,,,,
,,,,,,,,,,,call-function,3,2.0.0,58941,61643eae0b4de3c67744a15f,2,1,,,,{},,,,,,,,,,,,,,,,,,,
,,,,,,,,,,,preload,4,2.0.0,60279,61643eae0b4de3c67744a15f,2,1,,,TRUE,,FALSE,[],[],[],,,,,,,,,,,,,,,
,,,,,,,,,,,instructions,5,2.0.0,76603,61643eae0b4de3c67744a15f,2,1,16320,,,,,,,,"[{""page_index"":0,""viewing_time"":4719},{""page_index"":1,""viewing_time"":8801},{""page_index"":2,""viewing_time"":2800}]",,,,,,,,,,,,,,
,,,,,,,,,,,html-button-response,6,2.0.0,78019,61643eae0b4de3c67744a15f,2,1,1411,,,,,,,,,,0,start_test,,,,,,,,,,,
,,,,,,,,,,,html-button-response,7,2.0.0,83635,61643eae0b4de3c67744a15f,2,1,5612,,,,,,,,,"<img src= ""rock_img/I_Peridotite_14.jpg"" style=""width:8cm; height:5.3cm;""><p>What type of rock is this?</p>",2,class_response,0,test,1,Diorite,Peridotite,14,FALSE,3,7,,
,,,,,,,,,,,html-keyboard-response,8,2.0.0,84141,61643eae0b4de3c67744a15f,2,1,null,,,,,,,,,<p style='font-size: 30px;'><strong>Okay</strong></p>,null,neutral_feedback,0,test,1,,,,,,,,
,,,,,,,,,,,html-button-response,9,2.0.0,86651,61643eae0b4de3c67744a15f,2,1,2507,,,,,,,,,"<img src= ""rock_img/I_Obsidian_02.jpg"" style=""width:8cm; height:7.51cm;""><p>What type of rock is this?</p>",4,class_response,0,test,2,Obsidian,Obsidian,2,TRUE,5,5,,
,,,,,,,,,,,html-keyboard-response,10,2.0.0,87172,61643eae0b4de3c67744a15f,2,1,null,,,,,,,,,<p style='font-size: 30px;'><strong>Okay</strong></p>,null,neutral_feedback,0,test,2,,,,,,,,
,,,,,,,,,,,html-button-response,11,2.0.0,95268,61643eae0b4de3c67744a15f,2,1,8093,,,,,,,,,"<img src= ""rock_img/I_Diorite_09.jpg"" style=""width:8cm; height:5.27cm;""><p>What type of rock is this?</p>",2,class_response,0,test,3,Diorite,Diorite,9,TRUE,3,3,,
,,,,,,,,,,,html-keyboard-response,12,2.0.0,95786,61643eae0b4de3c67744a15f,2,1,null,,,,,,,,,<p style='font-size: 30px;'><strong>Okay</strong></p>,null,neutral_feedback,0,test,3,,,,,,,,
,,,,,,,,,,,html-button-response,13,2.0.0,100001,61643eae0b4de3c67744a15f,2,1,4213,,,,,,,,,"<img src= ""rock_img/I_Andesite_16.jpg"" style=""width:8cm; height:6.010000000000001cm;""><p>What type of rock is this?</p>",1,class_response,0,test,4,Basalt,Andesite,16,FALSE,2,1,,
,,,,,,,,,,,html-keyboard-response,14,2.0.0,100505,61643eae0b4de3c67744a15f,2,1,null,,,,,,,,,<p style='font-size: 30px;'><strong>Okay</strong></p>,null,neutral_feedback,0,test,4,,,,,,,,
,,,,,,,,,,,html-button-response,15,2.0.0,103117,61643eae0b4de3c67744a15f,2,1,2610,,,,,,,,,"<img src= ""rock_img/I_Obsidian_09.jpg"" style=""width:8cm; height:5cm;""><p>What type of rock is this?</p>",4,class_response,0,test,5,Obsidian,Obsidian,9,TRUE,5,5,,
,,,,,,,,,,,html-keyboard-response,16,2.0.0,103620,61643eae0b4de3c67744a15f,2,1,null,,,,,,,,,<p style='font-size: 30px;'><strong>Okay</strong></p>,null,neutral_feedback,0,test,5,,,,,,,,
,,,,,,,,,,,html-button-response,17,2.0.0,106034,61643eae0b4de3c67744a15f,2,1,2410,,,,,,,,,"<img src= ""rock_img/I_Gabbro_01.jpg"" style=""width:8cm; height:5.21cm;""><p>What type of rock is this?</p>",0,class_response,0,test,6,Andesite,Gabbro,1,FALSE,1,4,,
,,,,,,,,,,,html-keyboard-response,18,2.0.0,106537,61643eae0b4de3c67744a15f,2,1,null,,,,,,,,,<p style='font-size: 30px;'><strong>Okay</strong></p>,null,neutral_feedback,0,test,6,,,,,,,,
,,,,,,,,,,,html-button-response,19,2.0.0,109518,61643eae0b4de3c67744a15f,2,1,2978,,,,,,,,,"<img src= ""rock_img/I_Gabbro_03.jpg"" style=""width:8cm; height:8.52cm;""><p>What type of rock is this?</p>",3,class_response,0,test,7,Gabbro,Gabbro,3,TRUE,4,4,,
,,,,,,,,,,,html-keyboard-response,20,2.0.0,110021,61643eae0b4de3c67744a15f,2,1,null,,,,,,,,,<p style='font-size: 30px;'><strong>Okay</strong></p>,null,neutral_feedback,0,test,7,,,,,,,,
,,,,,,,,,,,html-button-response,21,2.0.0,114085,61643eae0b4de3c67744a15f,2,1,4061,,,,,,,,,"<img src= ""rock_img/I_Diorite_10.jpg"" style=""width:8cm; height:5.949999999999999cm;""><p>What type of rock is this?</p>",5,class_response,0,test,8,Pegmatite,Diorite,10,FALSE,6,3,,
,,,,,,,,,,,html-keyboard-response,22,2.0.0,114587,61643eae0b4de3c67744a15f,2,1,null,,,,,,,,,<p style='font-size: 30px;'><strong>Okay</strong></p>,null,neutral_feedback,0,test,8,,,,,,,,
,,,,,,,,,,,html-button-response,23,2.0.0,117984,61643eae0b4de3c67744a15f,2,1,3394,,,,,,,,,"<img src= ""rock_img/I_Andesite_07.jpg"" style=""width:8cm; height:5.93cm;""><p>What type of rock is this?</p>",3,class_response,0,test,9,Gabbro,Andesite,7,FALSE,4,1,,
,,,,,,,,,,,html-keyboard-response,24,2.0.0,118487,61643eae0b4de3c67744a15f,2,1,null,,,,,,,,,<p style='font-size: 30px;'><strong>Okay</strong></p>,null,neutral_feedback,0,test,9,,,,,,,,
,,,,,,,,,,,html-button-response,25,2.0.0,119883,61643eae0b4de3c67744a15f,2,1,1393,,,,,,,,,"<img src= ""rock_img/I_Basalt_12.jpg"" style=""width:8cm; height:6.010000000000001cm;""><p>What type of rock is this?</p>",7,class_response,0,test,10,Pumice,Basalt,12,FALSE,8,2,,
,,,,,,,,,,,html-keyboard-response,26,2.0.0,120409,61643eae0b4de3c67744a15f,2,1,null,,,,,,,,,<p style='font-size: 30px;'><strong>Okay</strong></p>,null,neutral_feedback,0,test,10,,,,,,,,
,,,,,,,,,,,html-button-response,27,2.0.0,122516,61643eae0b4de3c67744a15f,2,1,2105,,,,,,,,,"<img src= ""rock_img/I_Pegmatite_03.jpg"" style=""width:8cm; height:5.239999999999999cm;""><p>What type of rock is this?</p>",3,class_response,0,test,11,Gabbro,Pegmatite,3,FALSE,4,6,,
,,,,,,,,,,,html-keyboard-response,28,2.0.0,123025,61643eae0b4de3c67744a15f,2,1,null,,,,,,,,,<p style='font-size: 30px;'><strong>Okay</strong></p>,null,neutral_feedback,0,test,11,,,,,,,,
,,,,,,,,,,,html-button-response,29,2.0.0,126583,61643eae0b4de3c67744a15f,2,1,3556,,,,,,,,,"<img src= ""rock_img/I_Pegmatite_15.jpg"" style=""width:8cm; height:6cm;""><p>What type of rock is this?</p>",5,class_response,0,test,12,Pegmatite,Pegmatite,15,TRUE,6,6,,
,,,,,,,,,,,html-keyboard-response,30,2.0.0,127089,61643eae0b4de3c67744a15f,2,1,null,,,,,,,,,<p style='font-size: 30px;'><strong>Okay</strong></p>,null,neutral_feedback,0,test,12,,,,,,,,
,,,,,,,,,,,html-button-response,31,2.0.0,128533,61643eae0b4de3c67744a15f,2,1,1442,,,,,,,,,"<img src= ""rock_img/I_Pumice_03.jpg"" style=""width:8cm; height:6.64cm;""><p>What type of rock is this?</p>",7,class_response,0,test,13,Pumice,Pumice,3,TRUE,8,8,,
,,,,,,,,,,,html-keyboard-response,32,2.0.0,129040,61643eae0b4de3c67744a15f,2,1,null,,,,,,,,,<p style='font-size: 30px;'><strong>Okay</strong></p>,null,neutral_feedback,0,test,13,,,,,,,,
,,,,,,,,,,,html-button-response,33,2.0.0,130534,61643eae0b4de3c67744a15f,2,1,1492,,,,,,,,,"<img src= ""rock_img/I_Obsidian_11.jpg"" style=""width:8cm; height:6.05cm;""><p>What type of rock is this?</p>",4,class_response,0,test,14,Obsidian,Obsidian,11,TRUE,5,5,,
,,,,,,,,,,,html-keyboard-response,34,2.0.0,131037,61643eae0b4de3c67744a15f,2,1,null,,,,,,,,,<p style='font-size: 30px;'><strong>Okay</strong></p>,null,neutral_feedback,0,test,14,,,,,,,,
,,,,,,,,,,,html-button-response,35,2.0.0,133001,61643eae0b4de3c67744a15f,2,1,1960,,,,,,,,,"<img src= ""rock_img/I_Gabbro_09.jpg"" style=""width:8cm; height:7.279999999999999cm;""><p>What type of rock is this?</p>",0,class_response,0,test,15,Andesite,Gabbro,9,FALSE,1,4,,
,,,,,,,,,,,html-keyboard-response,36,2.0.0,133506,61643eae0b4de3c67744a15f,2,1,null,,,,,,,,,<p style='font-size: 30px;'><strong>Okay</strong></p>,null,neutral_feedback,0,test,15,,,,,,,,
,,,,,,,,,,,html-button-response,37,2.0.0,135849,61643eae0b4de3c67744a15f,2,1,2342,,,,,,,,,"<img src= ""rock_img/I_Pegmatite_16.jpg"" style=""width:8cm; height:5.8cm;""><p>What type of rock is this?</p>",3,class_response,0,test,16,Gabbro,Pegmatite,16,FALSE,4,6,,
,,,,,,,,,,,html-keyboard-response,38,2.0.0,136352,61643eae0b4de3c67744a15f,2,1,null,,,,,,,,,<p style='font-size: 30px;'><strong>Okay</strong></p>,null,neutral_feedback,0,test,16,,,,,,,,
,,,,,,,,,,,html-button-response,39,2.0.0,139250,61643eae0b4de3c67744a15f,2,1,2894,,,,,,,,,"<img src= ""rock_img/I_Pegmatite_08.jpg"" style=""width:8cm; height:7.68cm;""><p>What type of rock is this?</p>",6,class_response,0,test,17,Peridotite,Pegmatite,8,FALSE,7,6,,
,,,,,,,,,,,html-keyboard-response,40,2.0.0,139758,61643eae0b4de3c67744a15f,2,1,null,,,,,,,,,<p style='font-size: 30px;'><strong>Okay</strong></p>,null,neutral_feedback,0,test,17,,,,,,,,
,,,,,,,,,,,html-button-response,41,2.0.0,147083,61643eae0b4de3c67744a15f,2,1,7323,,,,,,,,,"<img src= ""rock_img/I_Basalt_09.jpg"" style=""width:8cm; height:6.2cm;""><p>What type of rock is this?</p>",0,class_response,0,test,18,Andesite,Basalt,9,FALSE,1,2,,
,,,,,,,,,,,html-keyboard-response,42,2.0.0,147587,61643eae0b4de3c67744a15f,2,1,null,,,,,,,,,<p style='font-size: 30px;'><strong>Okay</strong></p>,null,neutral_feedback,0,test,18,,,,,,,,
,,,,,,,,,,,html-button-response,43,2.0.0,151683,61643eae0b4de3c67744a15f,2,1,4096,,,,,,,,,"<img src= ""rock_img/I_Peridotite_05.jpg"" style=""width:8cm; height:7.1499999999999995cm;""><p>What type of rock is this?</p>",6,class_response,0,test,19,Peridotite,Peridotite,5,TRUE,7,7,,
,,,,,,,,,,,html-keyboard-response,44,2.0.0,152187,61643eae0b4de3c67744a15f,2,1,null,,,,,,,,,<p style='font-size: 30px;'><strong>Okay</strong></p>,null,neutral_feedback,0,test,19,,,,,,,,
,,,,,,,,,,,html-button-response,45,2.0.0,156950,61643eae0b4de3c67744a15f,2,1,4760,,,,,,,,,"<img src= ""rock_img/I_Peridotite_06.jpg"" style=""width:8cm; height:7.53cm;""><p>What type of rock is this?</p>",2,class_response,0,test,20,Diorite,Peridotite,6,FALSE,3,7,,
,,,,,,,,,,,html-keyboard-response,46,2.0.0,157454,61643eae0b4de3c67744a15f,2,1,null,,,,,,,,,<p style='font-size: 30px;'><strong>Okay</strong></p>,null,neutral_feedback,0,test,20,,,,,,,,
,,,,,,,,,,,html-button-response,47,2.0.0,160932,61643eae0b4de3c67744a15f,2,1,3476,,,,,,,,,"<img src= ""rock_img/I_Basalt_01.jpg"" style=""width:8cm; height:7.880000000000001cm;""><p>What type of rock is this?</p>",7,class_response,0,test,21,Pumice,Basalt,1,FALSE,8,2,,
,,,,,,,,,,,html-keyboard-response,48,2.0.0,161440,61643eae0b4de3c67744a15f,2,1,null,,,,,,,,,<p style='font-size: 30px;'><strong>Okay</strong></p>,null,neutral_feedback,0,test,21,,,,,,,,
,,,,,,,,,,,html-button-response,49,2.0.0,163250,61643eae0b4de3c67744a15f,2,1,1808,,,,,,,,,"<img src= ""rock_img/I_Obsidian_10.jpg"" style=""width:8cm; height:6.260000000000001cm;""><p>What type of rock is this?</p>",4,class_response,0,test,22,Obsidian,Obsidian,10,TRUE,5,5,,
,,,,,,,,,,,html-keyboard-response,50,2.0.0,163751,61643eae0b4de3c67744a15f,2,1,null,,,,,,,,,<p style='font-size: 30px;'><strong>Okay</strong></p>,null,neutral_feedback,0,test,22,,,,,,,,
,,,,,,,,,,,html-button-response,51,2.0.0,164898,61643eae0b4de3c67744a15f,2,1,1144,,,,,,,,,"<img src= ""rock_img/I_Pumice_04.jpg"" style=""width:8cm; height:6.819999999999999cm;""><p>What type of rock is this?</p>",7,class_response,0,test,23,Pumice,Pumice,4,TRUE,8,8,,
,,,,,,,,,,,html-keyboard-response,52,2.0.0,165402,61643eae0b4de3c67744a15f,2,1,null,,,,,,,,,<p style='font-size: 30px;'><strong>Okay</strong></p>,null,neutral_feedback,0,test,23,,,,,,,,
,,,,,,,,,,,html-button-response,53,2.0.0,167700,61643eae0b4de3c67744a15f,2,1,2296,,,,,,,,,"<img src= ""rock_img/I_Peridotite_12.jpg"" style=""width:8cm; height:4.54cm;""><p>What type of rock is this?</p>",1,class_response,0,test,24,Basalt,Peridotite,12,FALSE,2,7,,
,,,,,,,,,,,html-keyboard-response,54,2.0.0,168204,61643eae0b4de3c67744a15f,2,1,null,,,,,,,,,<p style='font-size: 30px;'><strong>Okay</strong></p>,null,neutral_feedback,0,test,24,,,,,,,,
,,,,,,,,,,,html-button-response,55,2.0.0,169666,61643eae0b4de3c67744a15f,2,1,1459,,,,,,,,,"<img src= ""rock_img/I_Diorite_07.jpg"" style=""width:8cm; height:5.239999999999999cm;""><p>What type of rock is this?</p>",2,class_response,0,test,25,Diorite,Diorite,7,TRUE,3,3,,
,,,,,,,,,,,html-keyboard-response,56,2.0.0,170174,61643eae0b4de3c67744a15f,2,1,null,,,,,,,,,<p style='font-size: 30px;'><strong>Okay</strong></p>,null,neutral_feedback,0,test,25,,,,,,,,
,,,,,,,,,,,html-button-response,57,2.0.0,171749,61643eae0b4de3c67744a15f,2,1,1574,,,,,,,,,"<img src= ""rock_img/I_Obsidian_14.jpg"" style=""width:8cm; height:7.64cm;""><p>What type of rock is this?</p>",4,class_response,0,test,26,Obsidian,Obsidian,14,TRUE,5,5,,
,,,,,,,,,,,html-keyboard-response,58,2.0.0,172252,61643eae0b4de3c67744a15f,2,1,null,,,,,,,,,<p style='font-size: 30px;'><strong>Okay</strong></p>,null,neutral_feedback,0,test,26,,,,,,,,
,,,,,,,,,,,html-button-response,59,2.0.0,173383,61643eae0b4de3c67744a15f,2,1,1128,,,,,,,,,"<img src= ""rock_img/I_Obsidian_08.jpg"" style=""width:8cm; height:7.39cm;""><p>What type of rock is this?</p>",4,class_response,0,test,27,Obsidian,Obsidian,8,TRUE,5,5,,
,,,,,,,,,,,html-keyboard-response,60,2.0.0,173888,61643eae0b4de3c67744a15f,2,1,null,,,,,,,,,<p style='font-size: 30px;'><strong>Okay</strong></p>,null,neutral_feedback,0,test,27,,,,,,,,
,,,,,,,,,,,html-button-response,61,2.0.0,177217,61643eae0b4de3c67744a15f,2,1,3327,,,,,,,,,"<img src= ""rock_img/I_Gabbro_13.jpg"" style=""width:8cm; height:5.08cm;""><p>What type of rock is this?</p>",6,class_response,0,test,28,Peridotite,Gabbro,13,FALSE,7,4,,
,,,,,,,,,,,html-keyboard-response,62,2.0.0,177722,61643eae0b4de3c67744a15f,2,1,null,,,,,,,,,<p style='font-size: 30px;'><strong>Okay</strong></p>,null,neutral_feedback,0,test,28,,,,,,,,
,,,,,,,,,,,html-button-response,63,2.0.0,181183,61643eae0b4de3c67744a15f,2,1,3458,,,,,,,,,"<img src= ""rock_img/I_Peridotite_13.jpg"" style=""width:8cm; height:7.58cm;""><p>What type of rock is this?</p>",6,class_response,0,test,29,Peridotite,Peridotite,13,TRUE,7,7,,
,,,,,,,,,,,html-keyboard-response,64,2.0.0,181687,61643eae0b4de3c67744a15f,2,1,null,,,,,,,,,<p style='font-size: 30px;'><strong>Okay</strong></p>,null,neutral_feedback,0,test,29,,,,,,,,
,,,,,,,,,,,html-button-response,65,2.0.0,183934,61643eae0b4de3c67744a15f,2,1,2245,,,,,,,,,"<img src= ""rock_img/I_Basalt_04.jpg"" style=""width:8cm; height:7.53cm;""><p>What type of rock is this?</p>",0,class_response,0,test,30,Andesite,Basalt,4,FALSE,1,2,,
,,,,,,,,,,,html-keyboard-response,66,2.0.0,184436,61643eae0b4de3c67744a15f,2,1,null,,,,,,,,,<p style='font-size: 30px;'><strong>Okay</strong></p>,null,neutral_feedback,0,test,30,,,,,,,,
,,,,,,,,,,,html-button-response,67,2.0.0,185932,61643eae0b4de3c67744a15f,2,1,1493,,,,,,,,,"<img src= ""rock_img/I_Gabbro_10.jpg"" style=""width:8cm; height:5.680000000000001cm;""><p>What type of rock is this?</p>",0,class_response,0,test,31,Andesite,Gabbro,10,FALSE,1,4,,
,,,,,,,,,,,html-keyboard-response,68,2.0.0,186439,61643eae0b4de3c67744a15f,2,1,null,,,,,,,,,<p style='font-size: 30px;'><strong>Okay</strong></p>,null,neutral_feedback,0,test,31,,,,,,,,
,,,,,,,,,,,html-button-response,69,2.0.0,189134,61643eae0b4de3c67744a15f,2,1,2692,,,,,,,,,"<img src= ""rock_img/I_Pegmatite_10.jpg"" style=""width:8cm; height:4.16cm;""><p>What type of rock is this?</p>",6,class_response,0,test,32,Peridotite,Pegmatite,10,FALSE,7,6,,
,,,,,,,,,,,html-keyboard-response,70,2.0.0,189637,61643eae0b4de3c67744a15f,2,1,null,,,,,,,,,<p style='font-size: 30px;'><strong>Okay</strong></p>,null,neutral_feedback,0,test,32,,,,,,,,
,,,,,,,,,,,html-button-response,71,2.0.0,193816,61643eae0b4de3c67744a15f,2,1,4177,,,,,,,,,"<img src= ""rock_img/I_Andesite_14.jpg"" style=""width:8cm; height:5.449999999999999cm;""><p>What type of rock is this?</p>",1,class_response,0,test,33,Basalt,Andesite,14,FALSE,2,1,,
,,,,,,,,,,,html-keyboard-response,72,2.0.0,194383,61643eae0b4de3c67744a15f,2,1,null,,,,,,,,,<p style='font-size: 30px;'><strong>Okay</strong></p>,null,neutral_feedback,0,test,33,,,,,,,,
,,,,,,,,,,,html-button-response,73,2.0.0,197215,61643eae0b4de3c67744a15f,2,1,2830,,,,,,,,,"<img src= ""rock_img/I_Basalt_14.jpg"" style=""width:8cm; height:5.82cm;""><p>What type of rock is this?</p>",7,class_response,0,test,34,Pumice,Basalt,14,FALSE,8,2,,
,,,,,,,,,,,html-keyboard-response,74,2.0.0,197718,61643eae0b4de3c67744a15f,2,1,null,,,,,,,,,<p style='font-size: 30px;'><strong>Okay</strong></p>,null,neutral_feedback,0,test,34,,,,,,,,
,,,,,,,,,,,html-button-response,75,2.0.0,198799,61643eae0b4de3c67744a15f,2,1,1078,,,,,,,,,"<img src= ""rock_img/I_Pumice_16.jpg"" style=""width:8cm; height:6.79cm;""><p>What type of rock is this?</p>",7,class_response,0,test,35,Pumice,Pumice,16,TRUE,8,8,,
,,,,,,,,,,,html-keyboard-response,76,2.0.0,199302,61643eae0b4de3c67744a15f,2,1,null,,,,,,,,,<p style='font-size: 30px;'><strong>Okay</strong></p>,null,neutral_feedback,0,test,35,,,,,,,,
,,,,,,,,,,,html-button-response,77,2.0.0,200816,61643eae0b4de3c67744a15f,2,1,1513,,,,,,,,,"<img src= ""rock_img/I_Diorite_12.jpg"" style=""width:8cm; height:4.88cm;""><p>What type of rock is this?</p>",2,class_response,0,test,36,Diorite,Diorite,12,TRUE,3,3,,
,,,,,,,,,,,html-keyboard-response,78,2.0.0,201322,61643eae0b4de3c67744a15f,2,1,null,,,,,,,,,<p style='font-size: 30px;'><strong>Okay</strong></p>,null,neutral_feedback,0,test,36,,,,,,,,
,,,,,,,,,,,html-button-response,79,2.0.0,207550,61643eae0b4de3c67744a15f,2,1,6226,,,,,,,,,"<img src= ""rock_img/I_Basalt_02.jpg"" style=""width:8cm; height:6.45cm;""><p>What type of rock is this?</p>",0,class_response,0,test,37,Andesite,Basalt,2,FALSE,1,2,,
,,,,,,,,,,,html-keyboard-response,80,2.0.0,208057,61643eae0b4de3c67744a15f,2,1,null,,,,,,,,,<p style='font-size: 30px;'><strong>Okay</strong></p>,null,neutral_feedback,0,test,37,,,,,,,,
,,,,,,,,,,,html-button-response,81,2.0.0,209850,61643eae0b4de3c67744a15f,2,1,1790,,,,,,,,,"<img src= ""rock_img/I_Peridotite_16.jpg"" style=""width:8cm; height:6.989999999999999cm;""><p>What type of rock is this?</p>",0,class_response,0,test,38,Andesite,Peridotite,16,FALSE,1,7,,
,,,,,,,,,,,html-keyboard-response,82,2.0.0,210353,61643eae0b4de3c67744a15f,2,1,null,,,,,,,,,<p style='font-size: 30px;'><strong>Okay</strong></p>,null,neutral_feedback,0,test,38,,,,,,,,
,,,,,,,,,,,html-button-response,83,2.0.0,211466,61643eae0b4de3c67744a15f,2,1,1110,,,,,,,,,"<img src= ""rock_img/I_Pumice_06.jpg"" style=""width:8cm; height:6.9399999999999995cm;""><p>What type of rock is this?</p>",7,class_response,0,test,39,Pumice,Pumice,6,TRUE,8,8,,
,,,,,,,,,,,html-keyboard-response,84,2.0.0,211972,61643eae0b4de3c67744a15f,2,1,null,,,,,,,,,<p style='font-size: 30px;'><strong>Okay</strong></p>,null,neutral_feedback,0,test,39,,,,,,,,
,,,,,,,,,,,html-button-response,85,2.0.0,213981,61643eae0b4de3c67744a15f,2,1,2006,,,,,,,,,"<img src= ""rock_img/I_Andesite_11.jpg"" style=""width:8cm; height:4.92cm;""><p>What type of rock is this?</p>",3,class_response,0,test,40,Gabbro,Andesite,11,FALSE,4,1,,
,,,,,,,,,,,html-keyboard-response,86,2.0.0,214484,61643eae0b4de3c67744a15f,2,1,null,,,,,,,,,<p style='font-size: 30px;'><strong>Okay</strong></p>,null,neutral_feedback,0,test,40,,,,,,,,
,,,,,,,,,,,html-button-response,87,2.0.0,215465,61643eae0b4de3c67744a15f,2,1,978,,,,,,,,,"<img src= ""rock_img/I_Diorite_08.jpg"" style=""width:8cm; height:6.37cm;""><p>What type of rock is this?</p>",2,class_response,0,test,41,Diorite,Diorite,8,TRUE,3,3,,
,,,,,,,,,,,html-keyboard-response,88,2.0.0,215966,61643eae0b4de3c67744a15f,2,1,null,,,,,,,,,<p style='font-size: 30px;'><strong>Okay</strong></p>,null,neutral_feedback,0,test,41,,,,,,,,
,,,,,,,,,,,html-button-response,89,2.0.0,220017,61643eae0b4de3c67744a15f,2,1,4048,,,,,,,,,"<img src= ""rock_img/I_Andesite_01.jpg"" style=""width:8cm; height:5.87cm;""><p>What type of rock is this?</p>",0,class_response,0,test,42,Andesite,Andesite,1,TRUE,1,1,,
,,,,,,,,,,,html-keyboard-response,90,2.0.0,220525,61643eae0b4de3c67744a15f,2,1,null,,,,,,,,,<p style='font-size: 30px;'><strong>Okay</strong></p>,null,neutral_feedback,0,test,42,,,,,,,,
,,,,,,,,,,,html-button-response,91,2.0.0,222032,61643eae0b4de3c67744a15f,2,1,1505,,,,,,,,,"<img src= ""rock_img/I_Gabbro_14.jpg"" style=""width:8cm; height:8.48cm;""><p>What type of rock is this?</p>",0,class_response,0,test,43,Andesite,Gabbro,14,FALSE,1,4,,
,,,,,,,,,,,html-keyboard-response,92,2.0.0,222534,61643eae0b4de3c67744a15f,2,1,null,,,,,,,,,<p style='font-size: 30px;'><strong>Okay</strong></p>,null,neutral_feedback,0,test,43,,,,,,,,
,,,,,,,,,,,html-button-response,93,2.0.0,225933,61643eae0b4de3c67744a15f,2,1,3396,,,,,,,,,"<img src= ""rock_img/I_Pumice_13.jpg"" style=""width:8cm; height:8.200000000000001cm;""><p>What type of rock is this?</p>",5,class_response,0,test,44,Pegmatite,Pumice,13,FALSE,6,8,,
,,,,,,,,,,,html-keyboard-response,94,2.0.0,226440,61643eae0b4de3c67744a15f,2,1,null,,,,,,,,,<p style='font-size: 30px;'><strong>Okay</strong></p>,null,neutral_feedback,0,test,44,,,,,,,,
,,,,,,,,,,,html-button-response,95,2.0.0,229448,61643eae0b4de3c67744a15f,2,1,3008,,,,,,,,,"<img src= ""rock_img/I_Pegmatite_05.jpg"" style=""width:8cm; height:7.300000000000001cm;""><p>What type of rock is this?</p>",3,class_response,0,test,45,Gabbro,Pegmatite,5,FALSE,4,6,,
,,,,,,,,,,,html-keyboard-response,96,2.0.0,229954,61643eae0b4de3c67744a15f,2,1,null,,,,,,,,,<p style='font-size: 30px;'><strong>Okay</strong></p>,null,neutral_feedback,0,test,45,,,,,,,,
,,,,,,,,,,,html-button-response,97,2.0.0,231283,61643eae0b4de3c67744a15f,2,1,1326,,,,,,,,,"<img src= ""rock_img/I_Diorite_13.jpg"" style=""width:8cm; height:6.29cm;""><p>What type of rock is this?</p>",2,class_response,0,test,46,Diorite,Diorite,13,TRUE,3,3,,
,,,,,,,,,,,html-keyboard-response,98,2.0.0,231790,61643eae0b4de3c67744a15f,2,1,null,,,,,,,,,<p style='font-size: 30px;'><strong>Okay</strong></p>,null,neutral_feedback,0,test,46,,,,,,,,
,,,,,,,,,,,html-button-response,99,2.0.0,233265,61643eae0b4de3c67744a15f,2,1,1474,,,,,,,,,"<img src= ""rock_img/I_Andesite_03.jpg"" style=""width:8cm; height:5.73cm;""><p>What type of rock is this?</p>",1,class_response,0,test,47,Basalt,Andesite,3,FALSE,2,1,,
,,,,,,,,,,,html-keyboard-response,100,2.0.0,233772,61643eae0b4de3c67744a15f,2,1,null,,,,,,,,,<p style='font-size: 30px;'><strong>Okay</strong></p>,null,neutral_feedback,0,test,47,,,,,,,,
,,,,,,,,,,,html-button-response,101,2.0.0,235132,61643eae0b4de3c67744a15f,2,1,1360,,,,,,,,,"<img src= ""rock_img/I_Pumice_08.jpg"" style=""width:8cm; height:6.67cm;""><p>What type of rock is this?</p>",7,class_response,0,test,48,Pumice,Pumice,8,TRUE,8,8,,
,,,,,,,,,,,html-keyboard-response,102,2.0.0,235634,61643eae0b4de3c67744a15f,2,1,null,,,,,,,,,<p style='font-size: 30px;'><strong>Okay</strong></p>,null,neutral_feedback,0,test,48,,,,,,,,
,,,,,,,,,,,instructions,103,2.0.0,254815,61643eae0b4de3c67744a15f,2,1,19164,,,,,,,,"[{""page_index"":0,""viewing_time"":12647},{""page_index"":1,""viewing_time"":3217},{""page_index"":2,""viewing_time"":3300}]",,,,,,,,,,,,,,
,,,,,,,,,,,html-button-response,104,2.0.0,255999,61643eae0b4de3c67744a15f,2,1,1179,,,,,,,,,,0,start_train,,,,,,,,,,,
,,,,,,,,,,,html-button-response,105,2.0.0,259733,61643eae0b4de3c67744a15f,2,1,3732,,,,,,,,,"<img src= ""rock_img/I_Pegmatite_06.jpg"" style=""width:8cm; height:5.17cm;""><p>What type of rock is this?</p>",3,class_response,1,train,1,Gabbro,Pegmatite,6,FALSE,4,6,,
,,,,,,,,,,,html-button-response,106,2.0.0,262482,61643eae0b4de3c67744a15f,2,1,2747,,,,,,,,,"<img src= rock_img/I_Pegmatite_06.jpg style=""width:8cm; height:5.17cm;""><p style='font-size: 30px; color: red;'><strong>Incorrect!</strong></p><p style='font-size: 30px;'><strong>This rock is pegmatite</strong></p>",0,corr_feedback,1,train,1,,,,,,,,
,,,,,,,,,,,html-button-response,107,2.0.0,268499,61643eae0b4de3c67744a15f,2,1,6013,,,,,,,,,"<img src= ""rock_img/I_Diorite_15.jpg"" style=""width:8cm; height:5.54cm;""><p>What type of rock is this?</p>",0,class_response,1,train,2,Andesite,Diorite,15,FALSE,1,3,,
,,,,,,,,,,,html-button-response,108,2.0.0,270833,61643eae0b4de3c67744a15f,2,1,2329,,,,,,,,,"<img src= rock_img/I_Diorite_15.jpg style=""width:8cm; height:5.54cm;""><p style='font-size: 30px; color: red;'><strong>Incorrect!</strong></p><p style='font-size: 30px;'><strong>This rock is diorite</strong></p>",0,corr_feedback,1,train,2,,,,,,,,
,,,,,,,,,,,html-button-response,109,2.0.0,273515,61643eae0b4de3c67744a15f,2,1,2679,,,,,,,,,"<img src= ""rock_img/I_Pegmatite_07.jpg"" style=""width:8cm; height:6.7cm;""><p>What type of rock is this?</p>",1,class_response,1,train,3,Basalt,Pegmatite,7,FALSE,2,6,,
,,,,,,,,,,,html-button-response,110,2.0.0,275731,61643eae0b4de3c67744a15f,2,1,2214,,,,,,,,,"<img src= rock_img/I_Pegmatite_07.jpg style=""width:8cm; height:6.7cm;""><p style='font-size: 30px; color: red;'><strong>Incorrect!</strong></p><p style='font-size: 30px;'><strong>This rock is pegmatite</strong></p>",0,corr_feedback,1,train,3,,,,,,,,
,,,,,,,,,,,html-button-response,111,2.0.0,278782,61643eae0b4de3c67744a15f,2,1,3047,,,,,,,,,"<img src= ""rock_img/I_Gabbro_15.jpg"" style=""width:8cm; height:6.29cm;""><p>What type of rock is this?</p>",2,class_response,1,train,4,Diorite,Gabbro,15,FALSE,3,4,,
,,,,,,,,,,,html-button-response,112,2.0.0,280365,61643eae0b4de3c67744a15f,2,1,1581,,,,,,,,,"<img src= rock_img/I_Gabbro_15.jpg style=""width:8cm; height:6.29cm;""><p style='font-size: 30px; color: red;'><strong>Incorrect!</strong></p><p style='font-size: 30px;'><strong>This rock is gabbro</strong></p>",0,corr_feedback,1,train,4,,,,,,,,
,,,,,,,,,,,html-button-response,113,2.0.0,283232,61643eae0b4de3c67744a15f,2,1,2863,,,,,,,,,"<img src= ""rock_img/I_Peridotite_02.jpg"" style=""width:8cm; height:5.859999999999999cm;""><p>What type of rock is this?</p>",1,class_response,1,train,5,Basalt,Peridotite,2,FALSE,2,7,,
,,,,,,,,,,,html-button-response,114,2.0.0,284199,61643eae0b4de3c67744a15f,2,1,965,,,,,,,,,"<img src= rock_img/I_Peridotite_02.jpg style=""width:8cm; height:5.859999999999999cm;""><p style='font-size: 30px; color: red;'><strong>Incorrect!</strong></p><p style='font-size: 30px;'><strong>This rock is peridotite</strong></p>",0,corr_feedback,1,train,5,,,,,,,,
,,,,,,,,,,,html-button-response,115,2.0.0,285732,61643eae0b4de3c67744a15f,2,1,1529,,,,,,,,,"<img src= ""rock_img/I_Andesite_04.jpg"" style=""width:8cm; height:5.96cm;""><p>What type of rock is this?</p>",1,class_response,1,train,6,Basalt,Andesite,4,FALSE,2,1,,
,,,,,,,,,,,html-button-response,116,2.0.0,286782,61643eae0b4de3c67744a15f,2,1,1048,,,,,,,,,"<img src= rock_img/I_Andesite_04.jpg style=""width:8cm; height:5.96cm;""><p style='font-size: 30px; color: red;'><strong>Incorrect!</strong></p><p style='font-size: 30px;'><strong>This rock is andesite</strong></p>",0,corr_feedback,1,train,6,,,,,,,,
,,,,,,,,,,,html-button-response,117,2.0.0,288415,61643eae0b4de3c67744a15f,2,1,1630,,,,,,,,,"<img src= ""rock_img/I_Basalt_11.jpg"" style=""width:8cm; height:5.359999999999999cm;""><p>What type of rock is this?</p>",7,class_response,1,train,7,Pumice,Basalt,11,FALSE,8,2,,
,,,,,,,,,,,html-button-response,118,2.0.0,289649,61643eae0b4de3c67744a15f,2,1,1230,,,,,,,,,"<img src= rock_img/I_Basalt_11.jpg style=""width:8cm; height:5.359999999999999cm;""><p style='font-size: 30px; color: red;'><strong>Incorrect!</strong></p><p style='font-size: 30px;'><strong>This rock is basalt</strong></p>",0,corr_feedback,1,train,7,,,,,,,,
,,,,,,,,,,,html-button-response,119,2.0.0,292215,61643eae0b4de3c67744a15f,2,1,2563,,,,,,,,,"<img src= ""rock_img/I_Pegmatite_09.jpg"" style=""width:8cm; height:4.03cm;""><p>What type of rock is this?</p>",6,class_response,1,train,8,Peridotite,Pegmatite,9,FALSE,7,6,,
,,,,,,,,,,,html-button-response,120,2.0.0,293298,61643eae0b4de3c67744a15f,2,1,1080,,,,,,,,,"<img src= rock_img/I_Pegmatite_09.jpg style=""width:8cm; height:4.03cm;""><p style='font-size: 30px; color: red;'><strong>Incorrect!</strong></p><p style='font-size: 30px;'><strong>This rock is pegmatite</strong></p>",0,corr_feedback,1,train,8,,,,,,,,
,,,,,,,,,,,html-button-response,121,2.0.0,301533,61643eae0b4de3c67744a15f,2,1,8231,,,,,,,,,"<img src= ""rock_img/I_Andesite_05.jpg"" style=""width:8cm; height:4.12cm;""><p>What type of rock is this?</p>",5,class_response,1,train,9,Pegmatite,Andesite,5,FALSE,6,1,,
,,,,,,,,,,,html-button-response,122,2.0.0,302565,61643eae0b4de3c67744a15f,2,1,1031,,,,,,,,,"<img src= rock_img/I_Andesite_05.jpg style=""width:8cm; height:4.12cm;""><p style='font-size: 30px; color: red;'><strong>Incorrect!</strong></p><p style='font-size: 30px;'><strong>This rock is andesite</strong></p>",0,corr_feedback,1,train,9,,,,,,,,
,,,,,,,,,,,html-button-response,123,2.0.0,307464,61643eae0b4de3c67744a15f,2,1,4897,,,,,,,,,"<img src= ""rock_img/I_Pegmatite_13.jpg"" style=""width:8cm; height:4.95cm;""><p>What type of rock is this?</p>",6,class_response,1,train,10,Peridotite,Pegmatite,13,FALSE,7,6,,
,,,,,,,,,,,html-button-response,124,2.0.0,308515,61643eae0b4de3c67744a15f,2,1,1048,,,,,,,,,"<img src= rock_img/I_Pegmatite_13.jpg style=""width:8cm; height:4.95cm;""><p style='font-size: 30px; color: red;'><strong>Incorrect!</strong></p><p style='font-size: 30px;'><strong>This rock is pegmatite</strong></p>",0,corr_feedback,1,train,10,,,,,,,,
,,,,,,,,,,,html-button-response,125,2.0.0,313315,61643eae0b4de3c67744a15f,2,1,4796,,,,,,,,,"<img src= ""rock_img/I_Peridotite_04.jpg"" style=""width:8cm; height:6.680000000000001cm;""><p>What type of rock is this?</p>",6,class_response,1,train,11,Peridotite,Peridotite,4,TRUE,7,7,,
,,,,,,,,,,,html-button-response,126,2.0.0,314465,61643eae0b4de3c67744a15f,2,1,1146,,,,,,,,,"<img src= rock_img/I_Peridotite_04.jpg style=""width:8cm; height:6.680000000000001cm;""><p style='font-size: 30px; color: green;'><strong>Correct!</strong></p><p style='font-size: 30px;'><strong>This rock is peridotite</strong></p>",0,corr_feedback,1,train,11,,,,,,,,
,,,,,,,,,,,html-button-response,127,2.0.0,319333,61643eae0b4de3c67744a15f,2,1,4865,,,,,,,,,"<img src= ""rock_img/I_Peridotite_08.jpg"" style=""width:8cm; height:6.7cm;""><p>What type of rock is this?</p>",0,class_response,1,train,12,Andesite,Peridotite,8,FALSE,1,7,,
,,,,,,,,,,,html-button-response,128,2.0.0,320465,61643eae0b4de3c67744a15f,2,1,1129,,,,,,,,,"<img src= rock_img/I_Peridotite_08.jpg style=""width:8cm; height:6.7cm;""><p style='font-size: 30px; color: red;'><strong>Incorrect!</strong></p><p style='font-size: 30px;'><strong>This rock is peridotite</strong></p>",0,corr_feedback,1,train,12,,,,,,,,
,,,,,,,,,,,html-button-response,129,2.0.0,322882,61643eae0b4de3c67744a15f,2,1,2413,,,,,,,,,"<img src= ""rock_img/I_Diorite_11.jpg"" style=""width:8cm; height:7.11cm;""><p>What type of rock is this?</p>",2,class_response,1,train,13,Diorite,Diorite,11,TRUE,3,3,,
,,,,,,,,,,,html-button-response,130,2.0.0,323714,61643eae0b4de3c67744a15f,2,1,829,,,,,,,,,"<img src= rock_img/I_Diorite_11.jpg style=""width:8cm; height:7.11cm;""><p style='font-size: 30px; color: green;'><strong>Correct!</strong></p><p style='font-size: 30px;'><strong>This rock is diorite</strong></p>",0,corr_feedback,1,train,13,,,,,,,,
,,,,,,,,,,,html-button-response,131,2.0.0,327030,61643eae0b4de3c67744a15f,2,1,3314,,,,,,,,,"<img src= ""rock_img/I_Andesite_09.jpg"" style=""width:8cm; height:6cm;""><p>What type of rock is this?</p>",0,class_response,1,train,14,Andesite,Andesite,9,TRUE,1,1,,
,,,,,,,,,,,html-button-response,132,2.0.0,328248,61643eae0b4de3c67744a15f,2,1,1216,,,,,,,,,"<img src= rock_img/I_Andesite_09.jpg style=""width:8cm; height:6cm;""><p style='font-size: 30px; color: green;'><strong>Correct!</strong></p><p style='font-size: 30px;'><strong>This rock is andesite</strong></p>",0,corr_feedback,1,train,14,,,,,,,,
,,,,,,,,,,,html-button-response,133,2.0.0,330598,61643eae0b4de3c67744a15f,2,1,2346,,,,,,,,,"<img src= ""rock_img/I_Pumice_15.jpg"" style=""width:8cm; height:7.86cm;""><p>What type of rock is this?</p>",7,class_response,1,train,15,Pumice,Pumice,15,TRUE,8,8,,
,,,,,,,,,,,html-button-response,134,2.0.0,331414,61643eae0b4de3c67744a15f,2,1,814,,,,,,,,,"<img src= rock_img/I_Pumice_15.jpg style=""width:8cm; height:7.86cm;""><p style='font-size: 30px; color: green;'><strong>Correct!</strong></p><p style='font-size: 30px;'><strong>This rock is pumice</strong></p>",0,corr_feedback,1,train,15,,,,,,,,
,,,,,,,,,,,html-button-response,135,2.0.0,333365,61643eae0b4de3c67744a15f,2,1,1947,,,,,,,,,"<img src= ""rock_img/I_Andesite_10.jpg"" style=""width:8cm; height:4.16cm;""><p>What type of rock is this?</p>",0,class_response,1,train,16,Andesite,Andesite,10,TRUE,1,1,,
,,,,,,,,,,,html-button-response,136,2.0.0,334181,61643eae0b4de3c67744a15f,2,1,815,,,,,,,,,"<img src= rock_img/I_Andesite_10.jpg style=""width:8cm; height:4.16cm;""><p style='font-size: 30px; color: green;'><strong>Correct!</strong></p><p style='font-size: 30px;'><strong>This rock is andesite</strong></p>",0,corr_feedback,1,train,16,,,,,,,,
,,,,,,,,,,,html-button-response,137,2.0.0,336296,61643eae0b4de3c67744a15f,2,1,2114,,,,,,,,,"<img src= ""rock_img/I_Peridotite_15.jpg"" style=""width:8cm; height:6cm;""><p>What type of rock is this?</p>",6,class_response,1,train,17,Peridotite,Peridotite,15,TRUE,7,7,,
,,,,,,,,,,,html-button-response,138,2.0.0,337064,61643eae0b4de3c67744a15f,2,1,767,,,,,,,,,"<img src= rock_img/I_Peridotite_15.jpg style=""width:8cm; height:6cm;""><p style='font-size: 30px; color: green;'><strong>Correct!</strong></p><p style='font-size: 30px;'><strong>This rock is peridotite</strong></p>",0,corr_feedback,1,train,17,,,,,,,,
,,,,,,,,,,,html-button-response,139,2.0.0,338399,61643eae0b4de3c67744a15f,2,1,1331,,,,,,,,,"<img src= ""rock_img/I_Peridotite_10.jpg"" style=""width:8cm; height:5.390000000000001cm;""><p>What type of rock is this?</p>",6,class_response,1,train,18,Peridotite,Peridotite,10,TRUE,7,7,,
,,,,,,,,,,,html-button-response,140,2.0.0,339198,61643eae0b4de3c67744a15f,2,1,796,,,,,,,,,"<img src= rock_img/I_Peridotite_10.jpg style=""width:8cm; height:5.390000000000001cm;""><p style='font-size: 30px; color: green;'><strong>Correct!</strong></p><p style='font-size: 30px;'><strong>This rock is peridotite</strong></p>",0,corr_feedback,1,train,18,,,,,,,,
,,,,,,,,,,,html-button-response,141,2.0.0,343679,61643eae0b4de3c67744a15f,2,1,4479,,,,,,,,,"<img src= ""rock_img/I_Basalt_16.jpg"" style=""width:8cm; height:7.659999999999999cm;""><p>What type of rock is this?</p>",7,class_response,1,train,19,Pumice,Basalt,16,FALSE,8,2,,
,,,,,,,,,,,html-button-response,142,2.0.0,345182,61643eae0b4de3c67744a15f,2,1,1501,,,,,,,,,"<img src= rock_img/I_Basalt_16.jpg style=""width:8cm; height:7.659999999999999cm;""><p style='font-size: 30px; color: red;'><strong>Incorrect!</strong></p><p style='font-size: 30px;'><strong>This rock is basalt</strong></p>",0,corr_feedback,1,train,19,,,,,,,,
,,,,,,,,,,,html-button-response,143,2.0.0,349047,61643eae0b4de3c67744a15f,2,1,3862,,,,,,,,,"<img src= ""rock_img/I_Andesite_06.jpg"" style=""width:8cm; height:6.840000000000001cm;""><p>What type of rock is this?</p>",0,class_response,1,train,20,Andesite,Andesite,6,TRUE,1,1,,
,,,,,,,,,,,html-button-response,144,2.0.0,349731,61643eae0b4de3c67744a15f,2,1,681,,,,,,,,,"<img src= rock_img/I_Andesite_06.jpg style=""width:8cm; height:6.840000000000001cm;""><p style='font-size: 30px; color: green;'><strong>Correct!</strong></p><p style='font-size: 30px;'><strong>This rock is andesite</strong></p>",0,corr_feedback,1,train,20,,,,,,,,
,,,,,,,,,,,html-button-response,145,2.0.0,351565,61643eae0b4de3c67744a15f,2,1,1830,,,,,,,,,"<img src= ""rock_img/I_Basalt_16.jpg"" style=""width:8cm; height:7.659999999999999cm;""><p>What type of rock is this?</p>",1,class_response,1,train,21,Basalt,Basalt,16,TRUE,2,2,,
,,,,,,,,,,,html-button-response,146,2.0.0,352451,61643eae0b4de3c67744a15f,2,1,884,,,,,,,,,"<img src= rock_img/I_Basalt_16.jpg style=""width:8cm; height:7.659999999999999cm;""><p style='font-size: 30px; color: green;'><strong>Correct!</strong></p><p style='font-size: 30px;'><strong>This rock is basalt</strong></p>",0,corr_feedback,1,train,21,,,,,,,,
,,,,,,,,,,,html-button-response,147,2.0.0,354681,61643eae0b4de3c67744a15f,2,1,2227,,,,,,,,,"<img src= ""rock_img/I_Basalt_11.jpg"" style=""width:8cm; height:5.359999999999999cm;""><p>What type of rock is this?</p>",0,class_response,1,train,22,Andesite,Basalt,11,FALSE,1,2,,
,,,,,,,,,,,html-button-response,148,2.0.0,355648,61643eae0b4de3c67744a15f,2,1,964,,,,,,,,,"<img src= rock_img/I_Basalt_11.jpg style=""width:8cm; height:5.359999999999999cm;""><p style='font-size: 30px; color: red;'><strong>Incorrect!</strong></p><p style='font-size: 30px;'><strong>This rock is basalt</strong></p>",0,corr_feedback,1,train,22,,,,,,,,
,,,,,,,,,,,html-button-response,149,2.0.0,358732,61643eae0b4de3c67744a15f,2,1,3081,,,,,,,,,"<img src= ""rock_img/I_Gabbro_11.jpg"" style=""width:8cm; height:6.2cm;""><p>What type of rock is this?</p>",0,class_response,1,train,23,Andesite,Gabbro,11,FALSE,1,4,,
,,,,,,,,,,,html-button-response,150,2.0.0,359731,61643eae0b4de3c67744a15f,2,1,997,,,,,,,,,"<img src= rock_img/I_Gabbro_11.jpg style=""width:8cm; height:6.2cm;""><p style='font-size: 30px; color: red;'><strong>Incorrect!</strong></p><p style='font-size: 30px;'><strong>This rock is gabbro</strong></p>",0,corr_feedback,1,train,23,,,,,,,,
,,,,,,,,,,,html-button-response,151,2.0.0,362698,61643eae0b4de3c67744a15f,2,1,2963,,,,,,,,,"<img src= ""rock_img/I_Andesite_10.jpg"" style=""width:8cm; height:4.16cm;""><p>What type of rock is this?</p>",1,class_response,1,train,24,Basalt,Andesite,10,FALSE,2,1,,
,,,,,,,,,,,html-button-response,152,2.0.0,363448,61643eae0b4de3c67744a15f,2,1,748,,,,,,,,,"<img src= rock_img/I_Andesite_10.jpg style=""width:8cm; height:4.16cm;""><p style='font-size: 30px; color: red;'><strong>Incorrect!</strong></p><p style='font-size: 30px;'><strong>This rock is andesite</strong></p>",0,corr_feedback,1,train,24,,,,,,,,
,,,,,,,,,,,html-button-response,153,2.0.0,365298,61643eae0b4de3c67744a15f,2,1,1846,,,,,,,,,"<img src= ""rock_img/I_Basalt_10.jpg"" style=""width:8cm; height:5.85cm;""><p>What type of rock is this?</p>",1,class_response,1,train,25,Basalt,Basalt,10,TRUE,2,2,,
,,,,,,,,,,,html-button-response,154,2.0.0,366015,61643eae0b4de3c67744a15f,2,1,714,,,,,,,,,"<img src= rock_img/I_Basalt_10.jpg style=""width:8cm; height:5.85cm;""><p style='font-size: 30px; color: green;'><strong>Correct!</strong></p><p style='font-size: 30px;'><strong>This rock is basalt</strong></p>",0,corr_feedback,1,train,25,,,,,,,,
,,,,,,,,,,,html-button-response,155,2.0.0,367048,61643eae0b4de3c67744a15f,2,1,1030,,,,,,,,,"<img src= ""rock_img/I_Peridotite_15.jpg"" style=""width:8cm; height:6cm;""><p>What type of rock is this?</p>",6,class_response,1,train,26,Peridotite,Peridotite,15,TRUE,7,7,,
,,,,,,,,,,,html-button-response,156,2.0.0,367514,61643eae0b4de3c67744a15f,2,1,464,,,,,,,,,"<img src= rock_img/I_Peridotite_15.jpg style=""width:8cm; height:6cm;""><p style='font-size: 30px; color: green;'><strong>Correct!</strong></p><p style='font-size: 30px;'><strong>This rock is peridotite</strong></p>",0,corr_feedback,1,train,26,,,,,,,,
,,,,,,,,,,,html-button-response,157,2.0.0,371314,61643eae0b4de3c67744a15f,2,1,3797,,,,,,,,,"<img src= ""rock_img/I_Gabbro_12.jpg"" style=""width:8cm; height:7.800000000000001cm;""><p>What type of rock is this?</p>",1,class_response,1,train,27,Basalt,Gabbro,12,FALSE,2,4,,
,,,,,,,,,,,html-button-response,158,2.0.0,372164,61643eae0b4de3c67744a15f,2,1,847,,,,,,,,,"<img src= rock_img/I_Gabbro_12.jpg style=""width:8cm; height:7.800000000000001cm;""><p style='font-size: 30px; color: red;'><strong>Incorrect!</strong></p><p style='font-size: 30px;'><strong>This rock is gabbro</strong></p>",0,corr_feedback,1,train,27,,,,,,,,
,,,,,,,,,,,html-button-response,159,2.0.0,374163,61643eae0b4de3c67744a15f,2,1,1997,,,,,,,,,"<img src= ""rock_img/I_Basalt_08.jpg"" style=""width:8cm; height:10.44cm;""><p>What type of rock is this?</p>",3,class_response,1,train,28,Gabbro,Basalt,8,FALSE,4,2,,
,,,,,,,,,,,html-button-response,160,2.0.0,375048,61643eae0b4de3c67744a15f,2,1,881,,,,,,,,,"<img src= rock_img/I_Basalt_08.jpg style=""width:8cm; height:10.44cm;""><p style='font-size: 30px; color: red;'><strong>Incorrect!</strong></p><p style='font-size: 30px;'><strong>This rock is basalt</strong></p>",0,corr_feedback,1,train,28,,,,,,,,
,,,,,,,,,,,html-button-response,161,2.0.0,376413,61643eae0b4de3c67744a15f,2,1,1363,,,,,,,,,"<img src= ""rock_img/I_Basalt_10.jpg"" style=""width:8cm; height:5.85cm;""><p>What type of rock is this?</p>",1,class_response,1,train,29,Basalt,Basalt,10,TRUE,2,2,,
,,,,,,,,,,,html-button-response,162,2.0.0,377031,61643eae0b4de3c67744a15f,2,1,616,,,,,,,,,"<img src= rock_img/I_Basalt_10.jpg style=""width:8cm; height:5.85cm;""><p style='font-size: 30px; color: green;'><strong>Correct!</strong></p><p style='font-size: 30px;'><strong>This rock is basalt</strong></p>",0,corr_feedback,1,train,29,,,,,,,,
,,,,,,,,,,,html-button-response,163,2.0.0,380263,61643eae0b4de3c67744a15f,2,1,3229,,,,,,,,,"<img src= ""rock_img/I_Pegmatite_11.jpg"" style=""width:8cm; height:8.14cm;""><p>What type of rock is this?</p>",3,class_response,1,train,30,Gabbro,Pegmatite,11,FALSE,4,6,,
,,,,,,,,,,,html-button-response,164,2.0.0,381914,61643eae0b4de3c67744a15f,2,1,1647,,,,,,,,,"<img src= rock_img/I_Pegmatite_11.jpg style=""width:8cm; height:8.14cm;""><p style='font-size: 30px; color: red;'><strong>Incorrect!</strong></p><p style='font-size: 30px;'><strong>This rock is pegmatite</strong></p>",0,corr_feedback,1,train,30,,,,,,,,
,,,,,,,,,,,html-button-response,165,2.0.0,384231,61643eae0b4de3c67744a15f,2,1,2315,,,,,,,,,"<img src= ""rock_img/I_Andesite_06.jpg"" style=""width:8cm; height:6.840000000000001cm;""><p>What type of rock is this?</p>",0,class_response,1,train,31,Andesite,Andesite,6,TRUE,1,1,,
,,,,,,,,,,,html-button-response,166,2.0.0,385064,61643eae0b4de3c67744a15f,2,1,830,,,,,,,,,"<img src= rock_img/I_Andesite_06.jpg style=""width:8cm; height:6.840000000000001cm;""><p style='font-size: 30px; color: green;'><strong>Correct!</strong></p><p style='font-size: 30px;'><strong>This rock is andesite</strong></p>",0,corr_feedback,1,train,31,,,,,,,,
,,,,,,,,,,,html-button-response,167,2.0.0,386614,61643eae0b4de3c67744a15f,2,1,1547,,,,,,,,,"<img src= ""rock_img/I_Peridotite_07.jpg"" style=""width:8cm; height:4.83cm;""><p>What type of rock is this?</p>",6,class_response,1,train,32,Peridotite,Peridotite,7,TRUE,7,7,,
,,,,,,,,,,,html-button-response,168,2.0.0,387398,61643eae0b4de3c67744a15f,2,1,780,,,,,,,,,"<img src= rock_img/I_Peridotite_07.jpg style=""width:8cm; height:4.83cm;""><p style='font-size: 30px; color: green;'><strong>Correct!</strong></p><p style='font-size: 30px;'><strong>This rock is peridotite</strong></p>",0,corr_feedback,1,train,32,,,,,,,,
,,,,,,,,,,,html-button-response,169,2.0.0,393148,61643eae0b4de3c67744a15f,2,1,5747,,,,,,,,,"<img src= ""rock_img/I_Basalt_05.jpg"" style=""width:8cm; height:8.18cm;""><p>What type of rock is this?</p>",3,class_response,1,train,33,Gabbro,Basalt,5,FALSE,4,2,,
,,,,,,,,,,,html-button-response,170,2.0.0,393848,61643eae0b4de3c67744a15f,2,1,698,,,,,,,,,"<img src= rock_img/I_Basalt_05.jpg style=""width:8cm; height:8.18cm;""><p style='font-size: 30px; color: red;'><strong>Incorrect!</strong></p><p style='font-size: 30px;'><strong>This rock is basalt</strong></p>",0,corr_feedback,1,train,33,,,,,,,,
,,,,,,,,,,,html-button-response,171,2.0.0,396348,61643eae0b4de3c67744a15f,2,1,2498,,,,,,,,,"<img src= ""rock_img/I_Pegmatite_12.jpg"" style=""width:8cm; height:5.7cm;""><p>What type of rock is this?</p>",5,class_response,1,train,34,Pegmatite,Pegmatite,12,TRUE,6,6,,
,,,,,,,,,,,html-button-response,172,2.0.0,397063,61643eae0b4de3c67744a15f,2,1,713,,,,,,,,,"<img src= rock_img/I_Pegmatite_12.jpg style=""width:8cm; height:5.7cm;""><p style='font-size: 30px; color: green;'><strong>Correct!</strong></p><p style='font-size: 30px;'><strong>This rock is pegmatite</strong></p>",0,corr_feedback,1,train,34,,,,,,,,
,,,,,,,,,,,html-button-response,173,2.0.0,401463,61643eae0b4de3c67744a15f,2,1,4397,,,,,,,,,"<img src= ""rock_img/I_Gabbro_08.jpg"" style=""width:8cm; height:5.15cm;""><p>What type of rock is this?</p>",0,class_response,1,train,35,Andesite,Gabbro,8,FALSE,1,4,,
,,,,,,,,,,,html-button-response,174,2.0.0,402447,61643eae0b4de3c67744a15f,2,1,982,,,,,,,,,"<img src= rock_img/I_Gabbro_08.jpg style=""width:8cm; height:5.15cm;""><p style='font-size: 30px; color: red;'><strong>Incorrect!</strong></p><p style='font-size: 30px;'><strong>This rock is gabbro</strong></p>",0,corr_feedback,1,train,35,,,,,,,,
,,,,,,,,,,,html-button-response,175,2.0.0,403731,61643eae0b4de3c67744a15f,2,1,1279,,,,,,,,,"<img src= ""rock_img/I_Pegmatite_11.jpg"" style=""width:8cm; height:8.14cm;""><p>What type of rock is this?</p>",5,class_response,1,train,36,Pegmatite,Pegmatite,11,TRUE,6,6,,
,,,,,,,,,,,html-button-response,176,2.0.0,404346,61643eae0b4de3c67744a15f,2,1,613,,,,,,,,,"<img src= rock_img/I_Pegmatite_11.jpg style=""width:8cm; height:8.14cm;""><p style='font-size: 30px; color: green;'><strong>Correct!</strong></p><p style='font-size: 30px;'><strong>This rock is pegmatite</strong></p>",0,corr_feedback,1,train,36,,,,,,,,
,,,,,,,,,,,html-button-response,177,2.0.0,408564,61643eae0b4de3c67744a15f,2,1,4215,,,,,,,,,"<img src= ""rock_img/I_Diorite_14.jpg"" style=""width:8cm; height:5.71cm;""><p>What type of rock is this?</p>",2,class_response,1,train,37,Diorite,Diorite,14,TRUE,3,3,,
,,,,,,,,,,,html-button-response,178,2.0.0,409146,61643eae0b4de3c67744a15f,2,1,579,,,,,,,,,"<img src= rock_img/I_Diorite_14.jpg style=""width:8cm; height:5.71cm;""><p style='font-size: 30px; color: green;'><strong>Correct!</strong></p><p style='font-size: 30px;'><strong>This rock is diorite</strong></p>",0,corr_feedback,1,train,37,,,,,,,,
,,,,,,,,,,,html-button-response,179,2.0.0,410414,61643eae0b4de3c67744a15f,2,1,1266,,,,,,,,,"<img src= ""rock_img/I_Gabbro_05.jpg"" style=""width:8cm; height:6cm;""><p>What type of rock is this?</p>",6,class_response,1,train,38,Peridotite,Gabbro,5,FALSE,7,4,,
,,,,,,,,,,,html-button-response,180,2.0.0,411330,61643eae0b4de3c67744a15f,2,1,914,,,,,,,,,"<img src= rock_img/I_Gabbro_05.jpg style=""width:8cm; height:6cm;""><p style='font-size: 30px; color: red;'><strong>Incorrect!</strong></p><p style='font-size: 30px;'><strong>This rock is gabbro</strong></p>",0,corr_feedback,1,train,38,,,,,,,,
,,,,,,,,,,,html-button-response,181,2.0.0,413864,61643eae0b4de3c67744a15f,2,1,2530,,,,,,,,,"<img src= ""rock_img/I_Gabbro_08.jpg"" style=""width:8cm; height:5.15cm;""><p>What type of rock is this?</p>",3,class_response,1,train,39,Gabbro,Gabbro,8,TRUE,4,4,,
,,,,,,,,,,,html-button-response,182,2.0.0,414513,61643eae0b4de3c67744a15f,2,1,647,,,,,,,,,"<img src= rock_img/I_Gabbro_08.jpg style=""width:8cm; height:5.15cm;""><p style='font-size: 30px; color: green;'><strong>Correct!</strong></p><p style='font-size: 30px;'><strong>This rock is gabbro</strong></p>",0,corr_feedback,1,train,39,,,,,,,,
,,,,,,,,,,,html-button-response,183,2.0.0,417364,61643eae0b4de3c67744a15f,2,1,2848,,,,,,,,,"<img src= ""rock_img/I_Gabbro_05.jpg"" style=""width:8cm; height:6cm;""><p>What type of rock is this?</p>",6,class_response,1,train,40,Peridotite,Gabbro,5,FALSE,7,4,,
,,,,,,,,,,,html-button-response,184,2.0.0,417996,61643eae0b4de3c67744a15f,2,1,630,,,,,,,,,"<img src= rock_img/I_Gabbro_05.jpg style=""width:8cm; height:6cm;""><p style='font-size: 30px; color: red;'><strong>Incorrect!</strong></p><p style='font-size: 30px;'><strong>This rock is gabbro</strong></p>",0,corr_feedback,1,train,40,,,,,,,,
,,,,,,,,,,,html-button-response,185,2.0.0,419047,61643eae0b4de3c67744a15f,2,1,1047,,,,,,,,,"<img src= ""rock_img/I_Pumice_14.jpg"" style=""width:8cm; height:6.39cm;""><p>What type of rock is this?</p>",7,class_response,1,train,41,Pumice,Pumice,14,TRUE,8,8,,
,,,,,,,,,,,html-button-response,186,2.0.0,419579,61643eae0b4de3c67744a15f,2,1,530,,,,,,,,,"<img src= rock_img/I_Pumice_14.jpg style=""width:8cm; height:6.39cm;""><p style='font-size: 30px; color: green;'><strong>Correct!</strong></p><p style='font-size: 30px;'><strong>This rock is pumice</strong></p>",0,corr_feedback,1,train,41,,,,,,,,
,,,,,,,,,,,html-button-response,187,2.0.0,422331,61643eae0b4de3c67744a15f,2,1,2749,,,,,,,,,"<img src= ""rock_img/I_Gabbro_16.jpg"" style=""width:8cm; height:6.44cm;""><p>What type of rock is this?</p>",1,class_response,1,train,42,Basalt,Gabbro,16,FALSE,2,4,,
,,,,,,,,,,,html-button-response,188,2.0.0,422997,61643eae0b4de3c67744a15f,2,1,664,,,,,,,,,"<img src= rock_img/I_Gabbro_16.jpg style=""width:8cm; height:6.44cm;""><p style='font-size: 30px; color: red;'><strong>Incorrect!</strong></p><p style='font-size: 30px;'><strong>This rock is gabbro</strong></p>",0,corr_feedback,1,train,42,,,,,,,,
,,,,,,,,,,,html-button-response,189,2.0.0,424597,61643eae0b4de3c67744a15f,2,1,1597,,,,,,,,,"<img src= ""rock_img/I_Obsidian_05.jpg"" style=""width:8cm; height:6.33cm;""><p>What type of rock is this?</p>",4,class_response,1,train,43,Obsidian,Obsidian,5,TRUE,5,5,,
,,,,,,,,,,,html-button-response,190,2.0.0,425197,61643eae0b4de3c67744a15f,2,1,598,,,,,,,,,"<img src= rock_img/I_Obsidian_05.jpg style=""width:8cm; height:6.33cm;""><p style='font-size: 30px; color: green;'><strong>Correct!</strong></p><p style='font-size: 30px;'><strong>This rock is obsidian</strong></p>",0,corr_feedback,1,train,43,,,,,,,,
,,,,,,,,,,,html-button-response,191,2.0.0,426480,61643eae0b4de3c67744a15f,2,1,1280,,,,,,,,,"<img src= ""rock_img/I_Pumice_09.jpg"" style=""width:8cm; height:6.44cm;""><p>What type of rock is this?</p>",7,class_response,1,train,44,Pumice,Pumice,9,TRUE,8,8,,
,,,,,,,,,,,html-button-response,192,2.0.0,427013,61643eae0b4de3c67744a15f,2,1,531,,,,,,,,,"<img src= rock_img/I_Pumice_09.jpg style=""width:8cm; height:6.44cm;""><p style='font-size: 30px; color: green;'><strong>Correct!</strong></p><p style='font-size: 30px;'><strong>This rock is pumice</strong></p>",0,corr_feedback,1,train,44,,,,,,,,
,,,,,,,,,,,html-button-response,193,2.0.0,431347,61643eae0b4de3c67744a15f,2,1,4331,,,,,,,,,"<img src= ""rock_img/I_Andesite_02.jpg"" style=""width:8cm; height:8.5cm;""><p>What type of rock is this?</p>",0,class_response,1,train,45,Andesite,Andesite,2,TRUE,1,1,,
,,,,,,,,,,,html-button-response,194,2.0.0,432097,61643eae0b4de3c67744a15f,2,1,748,,,,,,,,,"<img src= rock_img/I_Andesite_02.jpg style=""width:8cm; height:8.5cm;""><p style='font-size: 30px; color: green;'><strong>Correct!</strong></p><p style='font-size: 30px;'><strong>This rock is andesite</strong></p>",0,corr_feedback,1,train,45,,,,,,,,
,,,,,,,,,,,html-button-response,195,2.0.0,438947,61643eae0b4de3c67744a15f,2,1,6848,,,,,,,,,"<img src= ""rock_img/I_Andesite_05.jpg"" style=""width:8cm; height:4.12cm;""><p>What type of rock is this?</p>",0,class_response,1,train,46,Andesite,Andesite,5,TRUE,1,1,,
,,,,,,,,,,,html-button-response,196,2.0.0,439663,61643eae0b4de3c67744a15f,2,1,715,,,,,,,,,"<img src= rock_img/I_Andesite_05.jpg style=""width:8cm; height:4.12cm;""><p style='font-size: 30px; color: green;'><strong>Correct!</strong></p><p style='font-size: 30px;'><strong>This rock is andesite</strong></p>",0,corr_feedback,1,train,46,,,,,,,,
,,,,,,,,,,,html-button-response,197,2.0.0,443114,61643eae0b4de3c67744a15f,2,1,3447,,,,,,,,,"<img src= ""rock_img/I_Pegmatite_09.jpg"" style=""width:8cm; height:4.03cm;""><p>What type of rock is this?</p>",5,class_response,1,train,47,Pegmatite,Pegmatite,9,TRUE,6,6,,
,,,,,,,,,,,html-button-response,198,2.0.0,443745,61643eae0b4de3c67744a15f,2,1,629,,,,,,,,,"<img src= rock_img/I_Pegmatite_09.jpg style=""width:8cm; height:4.03cm;""><p style='font-size: 30px; color: green;'><strong>Correct!</strong></p><p style='font-size: 30px;'><strong>This rock is pegmatite</strong></p>",0,corr_feedback,1,train,47,,,,,,,,
,,,,,,,,,,,html-button-response,199,2.0.0,446346,61643eae0b4de3c67744a15f,2,1,2601,,,,,,,,,"<img src= ""rock_img/I_Basalt_06.jpg"" style=""width:8cm; height:7.06cm;""><p>What type of rock is this?</p>",3,class_response,1,train,48,Gabbro,Basalt,6,FALSE,4,2,,
,,,,,,,,,,,html-button-response,200,2.0.0,447130,61643eae0b4de3c67744a15f,2,1,781,,,,,,,,,"<img src= rock_img/I_Basalt_06.jpg style=""width:8cm; height:7.06cm;""><p style='font-size: 30px; color: red;'><strong>Incorrect!</strong></p><p style='font-size: 30px;'><strong>This rock is basalt</strong></p>",0,corr_feedback,1,train,48,,,,,,,,
,,,,,,,,,,,instructions,203,2.0.0,460631,61643eae0b4de3c67744a15f,2,1,13498,,,,,,,,"[{""page_index"":0,""viewing_time"":5346},{""page_index"":1,""viewing_time"":8151}]",,,,,,,,,,,,,,
,,,,,,,,,,,html-button-response,204,2.0.0,463529,61643eae0b4de3c67744a15f,2,1,2897,,,,,,,,,,0,start_test,,,,,,,,,,,
,,,,,,,,,,,html-button-response,205,2.0.0,468828,61643eae0b4de3c67744a15f,2,1,5296,,,,,,,,,"<img src= ""rock_img/I_Peridotite_12.jpg"" style=""width:8cm; height:4.54cm;""><p>What type of rock is this?</p>",0,class_response,1,test,1,Andesite,Peridotite,12,FALSE,1,7,,
,,,,,,,,,,,html-keyboard-response,206,2.0.0,469332,61643eae0b4de3c67744a15f,2,1,null,,,,,,,,,<p style='font-size: 30px;'><strong>Okay</strong></p>,null,neutral_feedback,1,test,1,,,,,,,,
,,,,,,,,,,,html-button-response,207,2.0.0,471596,61643eae0b4de3c67744a15f,2,1,2262,,,,,,,,,"<img src= ""rock_img/I_Basalt_01.jpg"" style=""width:8cm; height:7.880000000000001cm;""><p>What type of rock is this?</p>",1,class_response,1,test,2,Basalt,Basalt,1,TRUE,2,2,,
,,,,,,,,,,,html-keyboard-response,208,2.0.0,472100,61643eae0b4de3c67744a15f,2,1,null,,,,,,,,,<p style='font-size: 30px;'><strong>Okay</strong></p>,null,neutral_feedback,1,test,2,,,,,,,,
,,,,,,,,,,,html-button-response,209,2.0.0,477964,61643eae0b4de3c67744a15f,2,1,5861,,,,,,,,,"<img src= ""rock_img/I_Andesite_11.jpg"" style=""width:8cm; height:4.92cm;""><p>What type of rock is this?</p>",0,class_response,1,test,3,Andesite,Andesite,11,TRUE,1,1,,
,,,,,,,,,,,html-keyboard-response,210,2.0.0,478471,61643eae0b4de3c67744a15f,2,1,null,,,,,,,,,<p style='font-size: 30px;'><strong>Okay</strong></p>,null,neutral_feedback,1,test,3,,,,,,,,
,,,,,,,,,,,html-button-response,211,2.0.0,479830,61643eae0b4de3c67744a15f,2,1,1356,,,,,,,,,"<img src= ""rock_img/I_Pumice_04.jpg"" style=""width:8cm; height:6.819999999999999cm;""><p>What type of rock is this?</p>",7,class_response,1,test,4,Pumice,Pumice,4,TRUE,8,8,,
,,,,,,,,,,,html-keyboard-response,212,2.0.0,480337,61643eae0b4de3c67744a15f,2,1,null,,,,,,,,,<p style='font-size: 30px;'><strong>Okay</strong></p>,null,neutral_feedback,1,test,4,,,,,,,,
,,,,,,,,,,,html-button-response,213,2.0.0,482896,61643eae0b4de3c67744a15f,2,1,2558,,,,,,,,,"<img src= ""rock_img/I_Peridotite_16.jpg"" style=""width:8cm; height:6.989999999999999cm;""><p>What type of rock is this?</p>",3,class_response,1,test,5,Gabbro,Peridotite,16,FALSE,4,7,,
,,,,,,,,,,,html-keyboard-response,214,2.0.0,483402,61643eae0b4de3c67744a15f,2,1,null,,,,,,,,,<p style='font-size: 30px;'><strong>Okay</strong></p>,null,neutral_feedback,1,test,5,,,,,,,,
,,,,,,,,,,,html-button-response,215,2.0.0,484579,61643eae0b4de3c67744a15f,2,1,1176,,,,,,,,,"<img src= ""rock_img/I_Obsidian_09.jpg"" style=""width:8cm; height:5cm;""><p>What type of rock is this?</p>",4,class_response,1,test,6,Obsidian,Obsidian,9,TRUE,5,5,,
,,,,,,,,,,,html-keyboard-response,216,2.0.0,485082,61643eae0b4de3c67744a15f,2,1,null,,,,,,,,,<p style='font-size: 30px;'><strong>Okay</strong></p>,null,neutral_feedback,1,test,6,,,,,,,,
,,,,,,,,,,,html-button-response,217,2.0.0,489096,61643eae0b4de3c67744a15f,2,1,4013,,,,,,,,,"<img src= ""rock_img/I_Basalt_09.jpg"" style=""width:8cm; height:6.2cm;""><p>What type of rock is this?</p>",1,class_response,1,test,7,Basalt,Basalt,9,TRUE,2,2,,
,,,,,,,,,,,html-keyboard-response,218,2.0.0,489600,61643eae0b4de3c67744a15f,2,1,null,,,,,,,,,<p style='font-size: 30px;'><strong>Okay</strong></p>,null,neutral_feedback,1,test,7,,,,,,,,
,,,,,,,,,,,html-button-response,219,2.0.0,490979,61643eae0b4de3c67744a15f,2,1,1376,,,,,,,,,"<img src= ""rock_img/I_Peridotite_13.jpg"" style=""width:8cm; height:7.58cm;""><p>What type of rock is this?</p>",6,class_response,1,test,8,Peridotite,Peridotite,13,TRUE,7,7,,
,,,,,,,,,,,html-keyboard-response,220,2.0.0,491482,61643eae0b4de3c67744a15f,2,1,null,,,,,,,,,<p style='font-size: 30px;'><strong>Okay</strong></p>,null,neutral_feedback,1,test,8,,,,,,,,
,,,,,,,,,,,html-button-response,221,2.0.0,499064,61643eae0b4de3c67744a15f,2,1,7579,,,,,,,,,"<img src= ""rock_img/I_Peridotite_06.jpg"" style=""width:8cm; height:7.53cm;""><p>What type of rock is this?</p>",6,class_response,1,test,9,Peridotite,Peridotite,6,TRUE,7,7,,
,,,,,,,,,,,html-keyboard-response,222,2.0.0,499566,61643eae0b4de3c67744a15f,2,1,null,,,,,,,,,<p style='font-size: 30px;'><strong>Okay</strong></p>,null,neutral_feedback,1,test,9,,,,,,,,
,,,,,,,,,,,html-button-response,223,2.0.0,503563,61643eae0b4de3c67744a15f,2,1,3996,,,,,,,,,"<img src= ""rock_img/I_Pegmatite_16.jpg"" style=""width:8cm; height:5.8cm;""><p>What type of rock is this?</p>",5,class_response,1,test,10,Pegmatite,Pegmatite,16,TRUE,6,6,,
,,,,,,,,,,,html-keyboard-response,224,2.0.0,504070,61643eae0b4de3c67744a15f,2,1,null,,,,,,,,,<p style='font-size: 30px;'><strong>Okay</strong></p>,null,neutral_feedback,1,test,10,,,,,,,,
,,,,,,,,,,,html-button-response,225,2.0.0,508578,61643eae0b4de3c67744a15f,2,1,4507,,,,,,,,,"<img src= ""rock_img/I_Basalt_14.jpg"" style=""width:8cm; height:5.82cm;""><p>What type of rock is this?</p>",1,class_response,1,test,11,Basalt,Basalt,14,TRUE,2,2,,
,,,,,,,,,,,html-keyboard-response,226,2.0.0,509086,61643eae0b4de3c67744a15f,2,1,null,,,,,,,,,<p style='font-size: 30px;'><strong>Okay</strong></p>,null,neutral_feedback,1,test,11,,,,,,,,
,,,,,,,,,,,html-button-response,227,2.0.0,510145,61643eae0b4de3c67744a15f,2,1,1057,,,,,,,,,"<img src= ""rock_img/I_Diorite_12.jpg"" style=""width:8cm; height:4.88cm;""><p>What type of rock is this?</p>",2,class_response,1,test,12,Diorite,Diorite,12,TRUE,3,3,,
,,,,,,,,,,,html-keyboard-response,228,2.0.0,510649,61643eae0b4de3c67744a15f,2,1,null,,,,,,,,,<p style='font-size: 30px;'><strong>Okay</strong></p>,null,neutral_feedback,1,test,12,,,,,,,,
,,,,,,,,,,,html-button-response,229,2.0.0,512212,61643eae0b4de3c67744a15f,2,1,1562,,,,,,,,,"<img src= ""rock_img/I_Diorite_10.jpg"" style=""width:8cm; height:5.949999999999999cm;""><p>What type of rock is this?</p>",2,class_response,1,test,13,Diorite,Diorite,10,TRUE,3,3,,
,,,,,,,,,,,html-keyboard-response,230,2.0.0,512720,61643eae0b4de3c67744a15f,2,1,null,,,,,,,,,<p style='font-size: 30px;'><strong>Okay</strong></p>,null,neutral_feedback,1,test,13,,,,,,,,
,,,,,,,,,,,html-button-response,231,2.0.0,514396,61643eae0b4de3c67744a15f,2,1,1674,,,,,,,,,"<img src= ""rock_img/I_Pegmatite_08.jpg"" style=""width:8cm; height:7.68cm;""><p>What type of rock is this?</p>",5,class_response,1,test,14,Pegmatite,Pegmatite,8,TRUE,6,6,,
,,,,,,,,,,,html-keyboard-response,232,2.0.0,514901,61643eae0b4de3c67744a15f,2,1,null,,,,,,,,,<p style='font-size: 30px;'><strong>Okay</strong></p>,null,neutral_feedback,1,test,14,,,,,,,,
,,,,,,,,,,,html-button-response,233,2.0.0,516762,61643eae0b4de3c67744a15f,2,1,1858,,,,,,,,,"<img src= ""rock_img/I_Peridotite_05.jpg"" style=""width:8cm; height:7.1499999999999995cm;""><p>What type of rock is this?</p>",6,class_response,1,test,15,Peridotite,Peridotite,5,TRUE,7,7,,
,,,,,,,,,,,html-keyboard-response,234,2.0.0,517265,61643eae0b4de3c67744a15f,2,1,null,,,,,,,,,<p style='font-size: 30px;'><strong>Okay</strong></p>,null,neutral_feedback,1,test,15,,,,,,,,
,,,,,,,,,,,html-button-response,235,2.0.0,519496,61643eae0b4de3c67744a15f,2,1,2229,,,,,,,,,"<img src= ""rock_img/I_Andesite_14.jpg"" style=""width:8cm; height:5.449999999999999cm;""><p>What type of rock is this?</p>",0,class_response,1,test,16,Andesite,Andesite,14,TRUE,1,1,,
,,,,,,,,,,,html-keyboard-response,236,2.0.0,520001,61643eae0b4de3c67744a15f,2,1,null,,,,,,,,,<p style='font-size: 30px;'><strong>Okay</strong></p>,null,neutral_feedback,1,test,16,,,,,,,,
,,,,,,,,,,,html-button-response,237,2.0.0,525979,61643eae0b4de3c67744a15f,2,1,5975,,,,,,,,,"<img src= ""rock_img/I_Andesite_01.jpg"" style=""width:8cm; height:5.87cm;""><p>What type of rock is this?</p>",3,class_response,1,test,17,Gabbro,Andesite,1,FALSE,4,1,,
,,,,,,,,,,,html-keyboard-response,238,2.0.0,526481,61643eae0b4de3c67744a15f,2,1,null,,,,,,,,,<p style='font-size: 30px;'><strong>Okay</strong></p>,null,neutral_feedback,1,test,17,,,,,,,,
,,,,,,,,,,,html-button-response,239,2.0.0,527645,61643eae0b4de3c67744a15f,2,1,1162,,,,,,,,,"<img src= ""rock_img/I_Pegmatite_03.jpg"" style=""width:8cm; height:5.239999999999999cm;""><p>What type of rock is this?</p>",5,class_response,1,test,18,Pegmatite,Pegmatite,3,TRUE,6,6,,
,,,,,,,,,,,html-keyboard-response,240,2.0.0,528147,61643eae0b4de3c67744a15f,2,1,null,,,,,,,,,<p style='font-size: 30px;'><strong>Okay</strong></p>,null,neutral_feedback,1,test,18,,,,,,,,
,,,,,,,,,,,html-button-response,241,2.0.0,529579,61643eae0b4de3c67744a15f,2,1,1431,,,,,,,,,"<img src= ""rock_img/I_Obsidian_14.jpg"" style=""width:8cm; height:7.64cm;""><p>What type of rock is this?</p>",4,class_response,1,test,19,Obsidian,Obsidian,14,TRUE,5,5,,
,,,,,,,,,,,html-keyboard-response,242,2.0.0,530083,61643eae0b4de3c67744a15f,2,1,null,,,,,,,,,<p style='font-size: 30px;'><strong>Okay</strong></p>,null,neutral_feedback,1,test,19,,,,,,,,
,,,,,,,,,,,html-button-response,243,2.0.0,532680,61643eae0b4de3c67744a15f,2,1,2594,,,,,,,,,"<img src= ""rock_img/I_Pegmatite_10.jpg"" style=""width:8cm; height:4.16cm;""><p>What type of rock is this?</p>",6,class_response,1,test,20,Peridotite,Pegmatite,10,FALSE,7,6,,
,,,,,,,,,,,html-keyboard-response,244,2.0.0,533183,61643eae0b4de3c67744a15f,2,1,null,,,,,,,,,<p style='font-size: 30px;'><strong>Okay</strong></p>,null,neutral_feedback,1,test,20,,,,,,,,
,,,,,,,,,,,html-button-response,245,2.0.0,534345,61643eae0b4de3c67744a15f,2,1,1159,,,,,,,,,"<img src= ""rock_img/I_Pumice_16.jpg"" style=""width:8cm; height:6.79cm;""><p>What type of rock is this?</p>",7,class_response,1,test,21,Pumice,Pumice,16,TRUE,8,8,,
,,,,,,,,,,,html-keyboard-response,246,2.0.0,534850,61643eae0b4de3c67744a15f,2,1,null,,,,,,,,,<p style='font-size: 30px;'><strong>Okay</strong></p>,null,neutral_feedback,1,test,21,,,,,,,,
,,,,,,,,,,,html-button-response,247,2.0.0,537829,61643eae0b4de3c67744a15f,2,1,2978,,,,,,,,,"<img src= ""rock_img/I_Peridotite_14.jpg"" style=""width:8cm; height:5.3cm;""><p>What type of rock is this?</p>",6,class_response,1,test,22,Peridotite,Peridotite,14,TRUE,7,7,,
,,,,,,,,,,,html-keyboard-response,248,2.0.0,538336,61643eae0b4de3c67744a15f,2,1,null,,,,,,,,,<p style='font-size: 30px;'><strong>Okay</strong></p>,null,neutral_feedback,1,test,22,,,,,,,,
,,,,,,,,,,,html-button-response,249,2.0.0,541477,61643eae0b4de3c67744a15f,2,1,3138,,,,,,,,,"<img src= ""rock_img/I_Basalt_12.jpg"" style=""width:8cm; height:6.010000000000001cm;""><p>What type of rock is this?</p>",7,class_response,1,test,23,Pumice,Basalt,12,FALSE,8,2,,
,,,,,,,,,,,html-keyboard-response,250,2.0.0,541982,61643eae0b4de3c67744a15f,2,1,null,,,,,,,,,<p style='font-size: 30px;'><strong>Okay</strong></p>,null,neutral_feedback,1,test,23,,,,,,,,
,,,,,,,,,,,html-button-response,251,2.0.0,544945,61643eae0b4de3c67744a15f,2,1,2961,,,,,,,,,"<img src= ""rock_img/I_Diorite_13.jpg"" style=""width:8cm; height:6.29cm;""><p>What type of rock is this?</p>",2,class_response,1,test,24,Diorite,Diorite,13,TRUE,3,3,,
,,,,,,,,,,,html-keyboard-response,252,2.0.0,545450,61643eae0b4de3c67744a15f,2,1,null,,,,,,,,,<p style='font-size: 30px;'><strong>Okay</strong></p>,null,neutral_feedback,1,test,24,,,,,,,,
,,,,,,,,,,,html-button-response,253,2.0.0,549129,61643eae0b4de3c67744a15f,2,1,3675,,,,,,,,,"<img src= ""rock_img/I_Gabbro_14.jpg"" style=""width:8cm; height:8.48cm;""><p>What type of rock is this?</p>",3,class_response,1,test,25,Gabbro,Gabbro,14,TRUE,4,4,,
,,,,,,,,,,,html-keyboard-response,254,2.0.0,549633,61643eae0b4de3c67744a15f,2,1,null,,,,,,,,,<p style='font-size: 30px;'><strong>Okay</strong></p>,null,neutral_feedback,1,test,25,,,,,,,,
,,,,,,,,,,,html-button-response,255,2.0.0,550930,61643eae0b4de3c67744a15f,2,1,1296,,,,,,,,,"<img src= ""rock_img/I_Obsidian_11.jpg"" style=""width:8cm; height:6.05cm;""><p>What type of rock is this?</p>",4,class_response,1,test,26,Obsidian,Obsidian,11,TRUE,5,5,,
,,,,,,,,,,,html-keyboard-response,256,2.0.0,551436,61643eae0b4de3c67744a15f,2,1,null,,,,,,,,,<p style='font-size: 30px;'><strong>Okay</strong></p>,null,neutral_feedback,1,test,26,,,,,,,,
,,,,,,,,,,,html-button-response,257,2.0.0,552612,61643eae0b4de3c67744a15f,2,1,1174,,,,,,,,,"<img src= ""rock_img/I_Pumice_06.jpg"" style=""width:8cm; height:6.9399999999999995cm;""><p>What type of rock is this?</p>",7,class_response,1,test,27,Pumice,Pumice,6,TRUE,8,8,,
,,,,,,,,,,,html-keyboard-response,258,2.0.0,553115,61643eae0b4de3c67744a15f,2,1,null,,,,,,,,,<p style='font-size: 30px;'><strong>Okay</strong></p>,null,neutral_feedback,1,test,27,,,,,,,,
,,,,,,,,,,,html-button-response,259,2.0.0,554845,61643eae0b4de3c67744a15f,2,1,1729,,,,,,,,,"<img src= ""rock_img/I_Basalt_04.jpg"" style=""width:8cm; height:7.53cm;""><p>What type of rock is this?</p>",1,class_response,1,test,28,Basalt,Basalt,4,TRUE,2,2,,
,,,,,,,,,,,html-keyboard-response,260,2.0.0,555349,61643eae0b4de3c67744a15f,2,1,null,,,,,,,,,<p style='font-size: 30px;'><strong>Okay</strong></p>,null,neutral_feedback,1,test,28,,,,,,,,
,,,,,,,,,,,html-button-response,261,2.0.0,556628,61643eae0b4de3c67744a15f,2,1,1277,,,,,,,,,"<img src= ""rock_img/I_Pegmatite_15.jpg"" style=""width:8cm; height:6cm;""><p>What type of rock is this?</p>",5,class_response,1,test,29,Pegmatite,Pegmatite,15,TRUE,6,6,,
,,,,,,,,,,,html-keyboard-response,262,2.0.0,557132,61643eae0b4de3c67744a15f,2,1,null,,,,,,,,,<p style='font-size: 30px;'><strong>Okay</strong></p>,null,neutral_feedback,1,test,29,,,,,,,,
,,,,,,,,,,,html-button-response,263,2.0.0,559828,61643eae0b4de3c67744a15f,2,1,2694,,,,,,,,,"<img src= ""rock_img/I_Andesite_07.jpg"" style=""width:8cm; height:5.93cm;""><p>What type of rock is this?</p>",0,class_response,1,test,30,Andesite,Andesite,7,TRUE,1,1,,
,,,,,,,,,,,html-keyboard-response,264,2.0.0,560333,61643eae0b4de3c67744a15f,2,1,null,,,,,,,,,<p style='font-size: 30px;'><strong>Okay</strong></p>,null,neutral_feedback,1,test,30,,,,,,,,
,,,,,,,,,,,html-button-response,265,2.0.0,562095,61643eae0b4de3c67744a15f,2,1,1760,,,,,,,,,"<img src= ""rock_img/I_Pumice_13.jpg"" style=""width:8cm; height:8.200000000000001cm;""><p>What type of rock is this?</p>",7,class_response,1,test,31,Pumice,Pumice,13,TRUE,8,8,,
,,,,,,,,,,,html-keyboard-response,266,2.0.0,562597,61643eae0b4de3c67744a15f,2,1,null,,,,,,,,,<p style='font-size: 30px;'><strong>Okay</strong></p>,null,neutral_feedback,1,test,31,,,,,,,,
,,,,,,,,,,,html-button-response,267,2.0.0,563878,61643eae0b4de3c67744a15f,2,1,1278,,,,,,,,,"<img src= ""rock_img/I_Obsidian_08.jpg"" style=""width:8cm; height:7.39cm;""><p>What type of rock is this?</p>",4,class_response,1,test,32,Obsidian,Obsidian,8,TRUE,5,5,,
,,,,,,,,,,,html-keyboard-response,268,2.0.0,564385,61643eae0b4de3c67744a15f,2,1,null,,,,,,,,,<p style='font-size: 30px;'><strong>Okay</strong></p>,null,neutral_feedback,1,test,32,,,,,,,,
,,,,,,,,,,,html-button-response,269,2.0.0,568278,61643eae0b4de3c67744a15f,2,1,3893,,,,,,,,,"<img src= ""rock_img/I_Gabbro_13.jpg"" style=""width:8cm; height:5.08cm;""><p>What type of rock is this?</p>",3,class_response,1,test,33,Gabbro,Gabbro,13,TRUE,4,4,,
,,,,,,,,,,,html-keyboard-response,270,2.0.0,568783,61643eae0b4de3c67744a15f,2,1,null,,,,,,,,,<p style='font-size: 30px;'><strong>Okay</strong></p>,null,neutral_feedback,1,test,33,,,,,,,,
,,,,,,,,,,,html-button-response,271,2.0.0,573313,61643eae0b4de3c67744a15f,2,1,4527,,,,,,,,,"<img src= ""rock_img/I_Diorite_07.jpg"" style=""width:8cm; height:5.239999999999999cm;""><p>What type of rock is this?</p>",2,class_response,1,test,34,Diorite,Diorite,7,TRUE,3,3,,
,,,,,,,,,,,html-keyboard-response,272,2.0.0,573820,61643eae0b4de3c67744a15f,2,1,null,,,,,,,,,<p style='font-size: 30px;'><strong>Okay</strong></p>,null,neutral_feedback,1,test,34,,,,,,,,
,,,,,,,,,,,html-button-response,273,2.0.0,575145,61643eae0b4de3c67744a15f,2,1,1323,,,,,,,,,"<img src= ""rock_img/I_Obsidian_10.jpg"" style=""width:8cm; height:6.260000000000001cm;""><p>What type of rock is this?</p>",4,class_response,1,test,35,Obsidian,Obsidian,10,TRUE,5,5,,
,,,,,,,,,,,html-keyboard-response,274,2.0.0,575646,61643eae0b4de3c67744a15f,2,1,null,,,,,,,,,<p style='font-size: 30px;'><strong>Okay</strong></p>,null,neutral_feedback,1,test,35,,,,,,,,
,,,,,,,,,,,html-button-response,275,2.0.0,578044,61643eae0b4de3c67744a15f,2,1,2396,,,,,,,,,"<img src= ""rock_img/I_Basalt_02.jpg"" style=""width:8cm; height:6.45cm;""><p>What type of rock is this?</p>",1,class_response,1,test,36,Basalt,Basalt,2,TRUE,2,2,,
,,,,,,,,,,,html-keyboard-response,276,2.0.0,578547,61643eae0b4de3c67744a15f,2,1,null,,,,,,,,,<p style='font-size: 30px;'><strong>Okay</strong></p>,null,neutral_feedback,1,test,36,,,,,,,,
,,,,,,,,,,,html-button-response,277,2.0.0,580078,61643eae0b4de3c67744a15f,2,1,1529,,,,,,,,,"<img src= ""rock_img/I_Andesite_03.jpg"" style=""width:8cm; height:5.73cm;""><p>What type of rock is this?</p>",0,class_response,1,test,37,Andesite,Andesite,3,TRUE,1,1,,
,,,,,,,,,,,html-keyboard-response,278,2.0.0,580581,61643eae0b4de3c67744a15f,2,1,null,,,,,,,,,<p style='font-size: 30px;'><strong>Okay</strong></p>,null,neutral_feedback,1,test,37,,,,,,,,
,,,,,,,,,,,html-button-response,279,2.0.0,582228,61643eae0b4de3c67744a15f,2,1,1644,,,,,,,,,"<img src= ""rock_img/I_Gabbro_10.jpg"" style=""width:8cm; height:5.680000000000001cm;""><p>What type of rock is this?</p>",3,class_response,1,test,38,Gabbro,Gabbro,10,TRUE,4,4,,
,,,,,,,,,,,html-keyboard-response,280,2.0.0,582730,61643eae0b4de3c67744a15f,2,1,null,,,,,,,,,<p style='font-size: 30px;'><strong>Okay</strong></p>,null,neutral_feedback,1,test,38,,,,,,,,
,,,,,,,,,,,html-button-response,281,2.0.0,583862,61643eae0b4de3c67744a15f,2,1,1130,,,,,,,,,"<img src= ""rock_img/I_Diorite_09.jpg"" style=""width:8cm; height:5.27cm;""><p>What type of rock is this?</p>",2,class_response,1,test,39,Diorite,Diorite,9,TRUE,3,3,,
,,,,,,,,,,,html-keyboard-response,282,2.0.0,584366,61643eae0b4de3c67744a15f,2,1,null,,,,,,,,,<p style='font-size: 30px;'><strong>Okay</strong></p>,null,neutral_feedback,1,test,39,,,,,,,,
,,,,,,,,,,,html-button-response,283,2.0.0,585828,61643eae0b4de3c67744a15f,2,1,1460,,,,,,,,,"<img src= ""rock_img/I_Pegmatite_05.jpg"" style=""width:8cm; height:7.300000000000001cm;""><p>What type of rock is this?</p>",5,class_response,1,test,40,Pegmatite,Pegmatite,5,TRUE,6,6,,
,,,,,,,,,,,html-keyboard-response,284,2.0.0,586335,61643eae0b4de3c67744a15f,2,1,null,,,,,,,,,<p style='font-size: 30px;'><strong>Okay</strong></p>,null,neutral_feedback,1,test,40,,,,,,,,
,,,,,,,,,,,html-button-response,285,2.0.0,587361,61643eae0b4de3c67744a15f,2,1,1023,,,,,,,,,"<img src= ""rock_img/I_Pumice_03.jpg"" style=""width:8cm; height:6.64cm;""><p>What type of rock is this?</p>",7,class_response,1,test,41,Pumice,Pumice,3,TRUE,8,8,,
,,,,,,,,,,,html-keyboard-response,286,2.0.0,587868,61643eae0b4de3c67744a15f,2,1,null,,,,,,,,,<p style='font-size: 30px;'><strong>Okay</strong></p>,null,neutral_feedback,1,test,41,,,,,,,,
,,,,,,,,,,,html-button-response,287,2.0.0,589361,61643eae0b4de3c67744a15f,2,1,1492,,,,,,,,,"<img src= ""rock_img/I_Obsidian_02.jpg"" style=""width:8cm; height:7.51cm;""><p>What type of rock is this?</p>",4,class_response,1,test,42,Obsidian,Obsidian,2,TRUE,5,5,,
,,,,,,,,,,,html-keyboard-response,288,2.0.0,589867,61643eae0b4de3c67744a15f,2,1,null,,,,,,,,,<p style='font-size: 30px;'><strong>Okay</strong></p>,null,neutral_feedback,1,test,42,,,,,,,,
,,,,,,,,,,,html-button-response,289,2.0.0,591378,61643eae0b4de3c67744a15f,2,1,1509,,,,,,,,,"<img src= ""rock_img/I_Diorite_08.jpg"" style=""width:8cm; height:6.37cm;""><p>What type of rock is this?</p>",2,class_response,1,test,43,Diorite,Diorite,8,TRUE,3,3,,
,,,,,,,,,,,html-keyboard-response,290,2.0.0,591886,61643eae0b4de3c67744a15f,2,1,null,,,,,,,,,<p style='font-size: 30px;'><strong>Okay</strong></p>,null,neutral_feedback,1,test,43,,,,,,,,
,,,,,,,,,,,html-button-response,291,2.0.0,592961,61643eae0b4de3c67744a15f,2,1,1074,,,,,,,,,"<img src= ""rock_img/I_Pumice_08.jpg"" style=""width:8cm; height:6.67cm;""><p>What type of rock is this?</p>",7,class_response,1,test,44,Pumice,Pumice,8,TRUE,8,8,,
,,,,,,,,,,,html-keyboard-response,292,2.0.0,593467,61643eae0b4de3c67744a15f,2,1,null,,,,,,,,,<p style='font-size: 30px;'><strong>Okay</strong></p>,null,neutral_feedback,1,test,44,,,,,,,,
,,,,,,,,,,,html-button-response,293,2.0.0,594711,61643eae0b4de3c67744a15f,2,1,1241,,,,,,,,,"<img src= ""rock_img/I_Andesite_16.jpg"" style=""width:8cm; height:6.010000000000001cm;""><p>What type of rock is this?</p>",0,class_response,1,test,45,Andesite,Andesite,16,TRUE,1,1,,
,,,,,,,,,,,html-keyboard-response,294,2.0.0,595217,61643eae0b4de3c67744a15f,2,1,null,,,,,,,,,<p style='font-size: 30px;'><strong>Okay</strong></p>,null,neutral_feedback,1,test,45,,,,,,,,
,,,,,,,,,,,html-button-response,295,2.0.0,599578,61643eae0b4de3c67744a15f,2,1,4358,,,,,,,,,"<img src= ""rock_img/I_Gabbro_03.jpg"" style=""width:8cm; height:8.52cm;""><p>What type of rock is this?</p>",0,class_response,1,test,46,Andesite,Gabbro,3,FALSE,1,4,,
,,,,,,,,,,,html-keyboard-response,296,2.0.0,600084,61643eae0b4de3c67744a15f,2,1,null,,,,,,,,,<p style='font-size: 30px;'><strong>Okay</strong></p>,null,neutral_feedback,1,test,46,,,,,,,,
,,,,,,,,,,,html-button-response,297,2.0.0,602777,61643eae0b4de3c67744a15f,2,1,2691,,,,,,,,,"<img src= ""rock_img/I_Gabbro_09.jpg"" style=""width:8cm; height:7.279999999999999cm;""><p>What type of rock is this?</p>",3,class_response,1,test,47,Gabbro,Gabbro,9,TRUE,4,4,,
,,,,,,,,,,,html-keyboard-response,298,2.0.0,603285,61643eae0b4de3c67744a15f,2,1,null,,,,,,,,,<p style='font-size: 30px;'><strong>Okay</strong></p>,null,neutral_feedback,1,test,47,,,,,,,,
,,,,,,,,,,,html-button-response,299,2.0.0,605694,61643eae0b4de3c67744a15f,2,1,2408,,,,,,,,,"<img src= ""rock_img/I_Gabbro_01.jpg"" style=""width:8cm; height:5.21cm;""><p>What type of rock is this?</p>",6,class_response,1,test,48,Peridotite,Gabbro,1,FALSE,7,4,,
,,,,,,,,,,,html-keyboard-response,300,2.0.0,606201,61643eae0b4de3c67744a15f,2,1,null,,,,,,,,,<p style='font-size: 30px;'><strong>Okay</strong></p>,null,neutral_feedback,1,test,48,,,,,,,,
,,,,,,,,,,,html-button-response,301,2.0.0,646149,61643eae0b4de3c67744a15f,2,1,,,,,,,,,,,,cycle_feedback,,,,,,,,,,13168,26773
,,,,,,,,,,,html-button-response,303,2.0.0,647078,61643eae0b4de3c67744a15f,2,1,925,,,,,,,,,,0,start_train,,,,,,,,,,,
,,,,,,,,,,,html-button-response,304,2.0.0,649878,61643eae0b4de3c67744a15f,2,1,2797,,,,,,,,,"<img src= ""rock_img/I_Andesite_04.jpg"" style=""width:8cm; height:5.96cm;""><p>What type of rock is this?</p>",0,class_response,2,train,1,Andesite,Andesite,4,TRUE,1,1,,
,,,,,,,,,,,html-button-response,305,2.0.0,651028,61643eae0b4de3c67744a15f,2,1,1146,,,,,,,,,"<img src= rock_img/I_Andesite_04.jpg style=""width:8cm; height:5.96cm;""><p style='font-size: 30px; color: green;'><strong>Correct!</strong></p><p style='font-size: 30px;'><strong>This rock is andesite</strong></p>",0,corr_feedback,2,train,1,,,,,,,,
,,,,,,,,,,,html-button-response,306,2.0.0,653044,61643eae0b4de3c67744a15f,2,1,2013,,,,,,,,,"<img src= ""rock_img/I_Obsidian_06.jpg"" style=""width:8cm; height:6.8cm;""><p>What type of rock is this?</p>",4,class_response,2,train,2,Obsidian,Obsidian,6,TRUE,5,5,,
,,,,,,,,,,,html-button-response,307,2.0.0,653696,61643eae0b4de3c67744a15f,2,1,650,,,,,,,,,"<img src= rock_img/I_Obsidian_06.jpg style=""width:8cm; height:6.8cm;""><p style='font-size: 30px; color: green;'><strong>Correct!</strong></p><p style='font-size: 30px;'><strong>This rock is obsidian</strong></p>",0,corr_feedback,2,train,2,,,,,,,,
,,,,,,,,,,,html-button-response,308,2.0.0,656710,61643eae0b4de3c67744a15f,2,1,3010,,,,,,,,,"<img src= ""rock_img/I_Gabbro_08.jpg"" style=""width:8cm; height:5.15cm;""><p>What type of rock is this?</p>",0,class_response,2,train,3,Andesite,Gabbro,8,FALSE,1,4,,
,,,,,,,,,,,html-button-response,309,2.0.0,657995,61643eae0b4de3c67744a15f,2,1,1281,,,,,,,,,"<img src= rock_img/I_Gabbro_08.jpg style=""width:8cm; height:5.15cm;""><p style='font-size: 30px; color: red;'><strong>Incorrect!</strong></p><p style='font-size: 30px;'><strong>This rock is gabbro</strong></p>",0,corr_feedback,2,train,3,,,,,,,,
,,,,,,,,,,,html-button-response,310,2.0.0,666059,61643eae0b4de3c67744a15f,2,1,8062,,,,,,,,,"<img src= ""rock_img/I_Gabbro_16.jpg"" style=""width:8cm; height:6.44cm;""><p>What type of rock is this?</p>",3,class_response,2,train,4,Gabbro,Gabbro,16,TRUE,4,4,,
,,,,,,,,,,,html-button-response,311,2.0.0,667127,61643eae0b4de3c67744a15f,2,1,1066,,,,,,,,,"<img src= rock_img/I_Gabbro_16.jpg style=""width:8cm; height:6.44cm;""><p style='font-size: 30px; color: green;'><strong>Correct!</strong></p><p style='font-size: 30px;'><strong>This rock is gabbro</strong></p>",0,corr_feedback,2,train,4,,,,,,,,
,,,,,,,,,,,html-button-response,312,2.0.0,668594,61643eae0b4de3c67744a15f,2,1,1463,,,,,,,,,"<img src= ""rock_img/I_Pegmatite_12.jpg"" style=""width:8cm; height:5.7cm;""><p>What type of rock is this?</p>",5,class_response,2,train,5,Pegmatite,Pegmatite,12,TRUE,6,6,,
,,,,,,,,,,,html-button-response,313,2.0.0,669127,61643eae0b4de3c67744a15f,2,1,530,,,,,,,,,"<img src= rock_img/I_Pegmatite_12.jpg style=""width:8cm; height:5.7cm;""><p style='font-size: 30px; color: green;'><strong>Correct!</strong></p><p style='font-size: 30px;'><strong>This rock is pegmatite</strong></p>",0,corr_feedback,2,train,5,,,,,,,,
,,,,,,,,,,,html-button-response,314,2.0.0,672276,61643eae0b4de3c67744a15f,2,1,3146,,,,,,,,,"<img src= ""rock_img/I_Peridotite_04.jpg"" style=""width:8cm; height:6.680000000000001cm;""><p>What type of rock is this?</p>",6,class_response,2,train,6,Peridotite,Peridotite,4,TRUE,7,7,,
,,,,,,,,,,,html-button-response,315,2.0.0,673093,61643eae0b4de3c67744a15f,2,1,814,,,,,,,,,"<img src= rock_img/I_Peridotite_04.jpg style=""width:8cm; height:6.680000000000001cm;""><p style='font-size: 30px; color: green;'><strong>Correct!</strong></p><p style='font-size: 30px;'><strong>This rock is peridotite</strong></p>",0,corr_feedback,2,train,6,,,,,,,,
,,,,,,,,,,,html-button-response,316,2.0.0,674342,61643eae0b4de3c67744a15f,2,1,1246,,,,,,,,,"<img src= ""rock_img/I_Andesite_04.jpg"" style=""width:8cm; height:5.96cm;""><p>What type of rock is this?</p>",0,class_response,2,train,7,Andesite,Andesite,4,TRUE,1,1,,
,,,,,,,,,,,html-button-response,317,2.0.0,675227,61643eae0b4de3c67744a15f,2,1,881,,,,,,,,,"<img src= rock_img/I_Andesite_04.jpg style=""width:8cm; height:5.96cm;""><p style='font-size: 30px; color: green;'><strong>Correct!</strong></p><p style='font-size: 30px;'><strong>This rock is andesite</strong></p>",0,corr_feedback,2,train,7,,,,,,,,
,,,,,,,,,,,html-button-response,318,2.0.0,676710,61643eae0b4de3c67744a15f,2,1,1481,,,,,,,,,"<img src= ""rock_img/I_Diorite_02.jpg"" style=""width:8cm; height:6.27cm;""><p>What type of rock is this?</p>",2,class_response,2,train,8,Diorite,Diorite,2,TRUE,3,3,,
,,,,,,,,,,,html-button-response,319,2.0.0,677243,61643eae0b4de3c67744a15f,2,1,532,,,,,,,,,"<img src= rock_img/I_Diorite_02.jpg style=""width:8cm; height:6.27cm;""><p style='font-size: 30px; color: green;'><strong>Correct!</strong></p><p style='font-size: 30px;'><strong>This rock is diorite</strong></p>",0,corr_feedback,2,train,8,,,,,,,,
,,,,,,,,,,,html-button-response,320,2.0.0,680060,61643eae0b4de3c67744a15f,2,1,2814,,,,,,,,,"<img src= ""rock_img/I_Basalt_08.jpg"" style=""width:8cm; height:10.44cm;""><p>What type of rock is this?</p>",1,class_response,2,train,9,Basalt,Basalt,8,TRUE,2,2,,
,,,,,,,,,,,html-button-response,321,2.0.0,680878,61643eae0b4de3c67744a15f,2,1,815,,,,,,,,,"<img src= rock_img/I_Basalt_08.jpg style=""width:8cm; height:10.44cm;""><p style='font-size: 30px; color: green;'><strong>Correct!</strong></p><p style='font-size: 30px;'><strong>This rock is basalt</strong></p>",0,corr_feedback,2,train,9,,,,,,,,
,,,,,,,,,,,html-button-response,322,2.0.0,684210,61643eae0b4de3c67744a15f,2,1,3330,,,,,,,,,"<img src= ""rock_img/I_Peridotite_07.jpg"" style=""width:8cm; height:4.83cm;""><p>What type of rock is this?</p>",6,class_response,2,train,10,Peridotite,Peridotite,7,TRUE,7,7,,
,,,,,,,,,,,html-button-response,323,2.0.0,685110,61643eae0b4de3c67744a15f,2,1,897,,,,,,,,,"<img src= rock_img/I_Peridotite_07.jpg style=""width:8cm; height:4.83cm;""><p style='font-size: 30px; color: green;'><strong>Correct!</strong></p><p style='font-size: 30px;'><strong>This rock is peridotite</strong></p>",0,corr_feedback,2,train,10,,,,,,,,
,,,,,,,,,,,html-button-response,324,2.0.0,688010,61643eae0b4de3c67744a15f,2,1,2897,,,,,,,,,"<img src= ""rock_img/I_Pegmatite_13.jpg"" style=""width:8cm; height:4.95cm;""><p>What type of rock is this?</p>",5,class_response,2,train,11,Pegmatite,Pegmatite,13,TRUE,6,6,,
,,,,,,,,,,,html-button-response,325,2.0.0,688910,61643eae0b4de3c67744a15f,2,1,897,,,,,,,,,"<img src= rock_img/I_Pegmatite_13.jpg style=""width:8cm; height:4.95cm;""><p style='font-size: 30px; color: green;'><strong>Correct!</strong></p><p style='font-size: 30px;'><strong>This rock is pegmatite</strong></p>",0,corr_feedback,2,train,11,,,,,,,,
,,,,,,,,,,,html-button-response,326,2.0.0,691343,61643eae0b4de3c67744a15f,2,1,2430,,,,,,,,,"<img src= ""rock_img/I_Pegmatite_06.jpg"" style=""width:8cm; height:5.17cm;""><p>What type of rock is this?</p>",5,class_response,2,train,12,Pegmatite,Pegmatite,6,TRUE,6,6,,
,,,,,,,,,,,html-button-response,327,2.0.0,691927,61643eae0b4de3c67744a15f,2,1,581,,,,,,,,,"<img src= rock_img/I_Pegmatite_06.jpg style=""width:8cm; height:5.17cm;""><p style='font-size: 30px; color: green;'><strong>Correct!</strong></p><p style='font-size: 30px;'><strong>This rock is pegmatite</strong></p>",0,corr_feedback,2,train,12,,,,,,,,
,,,,,,,,,,,html-button-response,328,2.0.0,692959,61643eae0b4de3c67744a15f,2,1,1030,,,,,,,,,"<img src= ""rock_img/I_Basalt_08.jpg"" style=""width:8cm; height:10.44cm;""><p>What type of rock is this?</p>",1,class_response,2,train,13,Basalt,Basalt,8,TRUE,2,2,,
,,,,,,,,,,,html-button-response,329,2.0.0,693559,61643eae0b4de3c67744a15f,2,1,598,,,,,,,,,"<img src= rock_img/I_Basalt_08.jpg style=""width:8cm; height:10.44cm;""><p style='font-size: 30px; color: green;'><strong>Correct!</strong></p><p style='font-size: 30px;'><strong>This rock is basalt</strong></p>",0,corr_feedback,2,train,13,,,,,,,,
,,,,,,,,,,,html-button-response,330,2.0.0,697060,61643eae0b4de3c67744a15f,2,1,3498,,,,,,,,,"<img src= ""rock_img/I_Gabbro_15.jpg"" style=""width:8cm; height:6.29cm;""><p>What type of rock is this?</p>",5,class_response,2,train,14,Pegmatite,Gabbro,15,FALSE,6,4,,
,,,,,,,,,,,html-button-response,331,2.0.0,698424,61643eae0b4de3c67744a15f,2,1,1362,,,,,,,,,"<img src= rock_img/I_Gabbro_15.jpg style=""width:8cm; height:6.29cm;""><p style='font-size: 30px; color: red;'><strong>Incorrect!</strong></p><p style='font-size: 30px;'><strong>This rock is gabbro</strong></p>",0,corr_feedback,2,train,14,,,,,,,,
,,,,,,,,,,,html-button-response,332,2.0.0,699810,61643eae0b4de3c67744a15f,2,1,1384,,,,,,,,,"<img src= ""rock_img/I_Pegmatite_07.jpg"" style=""width:8cm; height:6.7cm;""><p>What type of rock is this?</p>",5,class_response,2,train,15,Pegmatite,Pegmatite,7,TRUE,6,6,,
,,,,,,,,,,,html-button-response,333,2.0.0,700343,61643eae0b4de3c67744a15f,2,1,530,,,,,,,,,"<img src= rock_img/I_Pegmatite_07.jpg style=""width:8cm; height:6.7cm;""><p style='font-size: 30px; color: green;'><strong>Correct!</strong></p><p style='font-size: 30px;'><strong>This rock is pegmatite</strong></p>",0,corr_feedback,2,train,15,,,,,,,,
,,,,,,,,,,,html-button-response,334,2.0.0,702893,61643eae0b4de3c67744a15f,2,1,2547,,,,,,,,,"<img src= ""rock_img/I_Andesite_09.jpg"" style=""width:8cm; height:6cm;""><p>What type of rock is this?</p>",0,class_response,2,train,16,Andesite,Andesite,9,TRUE,1,1,,
,,,,,,,,,,,html-button-response,335,2.0.0,703427,61643eae0b4de3c67744a15f,2,1,532,,,,,,,,,"<img src= rock_img/I_Andesite_09.jpg style=""width:8cm; height:6cm;""><p style='font-size: 30px; color: green;'><strong>Correct!</strong></p><p style='font-size: 30px;'><strong>This rock is andesite</strong></p>",0,corr_feedback,2,train,16,,,,,,,,
,,,,,,,,,,,html-button-response,336,2.0.0,704542,61643eae0b4de3c67744a15f,2,1,1113,,,,,,,,,"<img src= ""rock_img/I_Peridotite_08.jpg"" style=""width:8cm; height:6.7cm;""><p>What type of rock is this?</p>",6,class_response,2,train,17,Peridotite,Peridotite,8,TRUE,7,7,,
,,,,,,,,,,,html-button-response,337,2.0.0,704993,61643eae0b4de3c67744a15f,2,1,447,,,,,,,,,"<img src= rock_img/I_Peridotite_08.jpg style=""width:8cm; height:6.7cm;""><p style='font-size: 30px; color: green;'><strong>Correct!</strong></p><p style='font-size: 30px;'><strong>This rock is peridotite</strong></p>",0,corr_feedback,2,train,17,,,,,,,,
,,,,,,,,,,,html-button-response,338,2.0.0,706209,61643eae0b4de3c67744a15f,2,1,1213,,,,,,,,,"<img src= ""rock_img/I_Diorite_16.jpg"" style=""width:8cm; height:6.74cm;""><p>What type of rock is this?</p>",2,class_response,2,train,18,Diorite,Diorite,16,TRUE,3,3,,
,,,,,,,,,,,html-button-response,339,2.0.0,706793,61643eae0b4de3c67744a15f,2,1,581,,,,,,,,,"<img src= rock_img/I_Diorite_16.jpg style=""width:8cm; height:6.74cm;""><p style='font-size: 30px; color: green;'><strong>Correct!</strong></p><p style='font-size: 30px;'><strong>This rock is diorite</strong></p>",0,corr_feedback,2,train,18,,,,,,,,
,,,,,,,,,,,html-button-response,340,2.0.0,708275,61643eae0b4de3c67744a15f,2,1,1479,,,,,,,,,"<img src= ""rock_img/I_Andesite_06.jpg"" style=""width:8cm; height:6.840000000000001cm;""><p>What type of rock is this?</p>",0,class_response,2,train,19,Andesite,Andesite,6,TRUE,1,1,,
,,,,,,,,,,,html-button-response,341,2.0.0,708793,61643eae0b4de3c67744a15f,2,1,515,,,,,,,,,"<img src= rock_img/I_Andesite_06.jpg style=""width:8cm; height:6.840000000000001cm;""><p style='font-size: 30px; color: green;'><strong>Correct!</strong></p><p style='font-size: 30px;'><strong>This rock is andesite</strong></p>",0,corr_feedback,2,train,19,,,,,,,,
,,,,,,,,,,,html-button-response,342,2.0.0,710326,61643eae0b4de3c67744a15f,2,1,1530,,,,,,,,,"<img src= ""rock_img/I_Gabbro_15.jpg"" style=""width:8cm; height:6.29cm;""><p>What type of rock is this?</p>",3,class_response,2,train,20,Gabbro,Gabbro,15,TRUE,4,4,,
,,,,,,,,,,,html-button-response,343,2.0.0,712243,61643eae0b4de3c67744a15f,2,1,1916,,,,,,,,,"<img src= rock_img/I_Gabbro_15.jpg style=""width:8cm; height:6.29cm;""><p style='font-size: 30px; color: green;'><strong>Correct!</strong></p><p style='font-size: 30px;'><strong>This rock is gabbro</strong></p>",0,corr_feedback,2,train,20,,,,,,,,
,,,,,,,,,,,html-button-response,344,2.0.0,713493,61643eae0b4de3c67744a15f,2,1,1247,,,,,,,,,"<img src= ""rock_img/I_Andesite_10.jpg"" style=""width:8cm; height:4.16cm;""><p>What type of rock is this?</p>",0,class_response,2,train,21,Andesite,Andesite,10,TRUE,1,1,,
,,,,,,,,,,,html-button-response,345,2.0.0,713975,61643eae0b4de3c67744a15f,2,1,480,,,,,,,,,"<img src= rock_img/I_Andesite_10.jpg style=""width:8cm; height:4.16cm;""><p style='font-size: 30px; color: green;'><strong>Correct!</strong></p><p style='font-size: 30px;'><strong>This rock is andesite</strong></p>",0,corr_feedback,2,train,21,,,,,,,,
,,,,,,,,,,,html-button-response,346,2.0.0,714942,61643eae0b4de3c67744a15f,2,1,966,,,,,,,,,"<img src= ""rock_img/I_Peridotite_15.jpg"" style=""width:8cm; height:6cm;""><p>What type of rock is this?</p>",6,class_response,2,train,22,Peridotite,Peridotite,15,TRUE,7,7,,
,,,,,,,,,,,html-button-response,347,2.0.0,715293,61643eae0b4de3c67744a15f,2,1,347,,,,,,,,,"<img src= rock_img/I_Peridotite_15.jpg style=""width:8cm; height:6cm;""><p style='font-size: 30px; color: green;'><strong>Correct!</strong></p><p style='font-size: 30px;'><strong>This rock is peridotite</strong></p>",0,corr_feedback,2,train,22,,,,,,,,
,,,,,,,,,,,html-button-response,348,2.0.0,716792,61643eae0b4de3c67744a15f,2,1,1498,,,,,,,,,"<img src= ""rock_img/I_Basalt_10.jpg"" style=""width:8cm; height:5.85cm;""><p>What type of rock is this?</p>",1,class_response,2,train,23,Basalt,Basalt,10,TRUE,2,2,,
,,,,,,,,,,,html-button-response,349,2.0.0,717309,61643eae0b4de3c67744a15f,2,1,514,,,,,,,,,"<img src= rock_img/I_Basalt_10.jpg style=""width:8cm; height:5.85cm;""><p style='font-size: 30px; color: green;'><strong>Correct!</strong></p><p style='font-size: 30px;'><strong>This rock is basalt</strong></p>",0,corr_feedback,2,train,23,,,,,,,,
,,,,,,,,,,,html-button-response,350,2.0.0,722993,61643eae0b4de3c67744a15f,2,1,5680,,,,,,,,,"<img src= ""rock_img/I_Pegmatite_06.jpg"" style=""width:8cm; height:5.17cm;""><p>What type of rock is this?</p>",5,class_response,2,train,24,Pegmatite,Pegmatite,6,TRUE,6,6,,
,,,,,,,,,,,html-button-response,351,2.0.0,723558,61643eae0b4de3c67744a15f,2,1,564,,,,,,,,,"<img src= rock_img/I_Pegmatite_06.jpg style=""width:8cm; height:5.17cm;""><p style='font-size: 30px; color: green;'><strong>Correct!</strong></p><p style='font-size: 30px;'><strong>This rock is pegmatite</strong></p>",0,corr_feedback,2,train,24,,,,,,,,
,,,,,,,,,,,html-button-response,352,2.0.0,725693,61643eae0b4de3c67744a15f,2,1,2132,,,,,,,,,"<img src= ""rock_img/I_Basalt_06.jpg"" style=""width:8cm; height:7.06cm;""><p>What type of rock is this?</p>",1,class_response,2,train,25,Basalt,Basalt,6,TRUE,2,2,,
,,,,,,,,,,,html-button-response,353,2.0.0,726260,61643eae0b4de3c67744a15f,2,1,565,,,,,,,,,"<img src= rock_img/I_Basalt_06.jpg style=""width:8cm; height:7.06cm;""><p style='font-size: 30px; color: green;'><strong>Correct!</strong></p><p style='font-size: 30px;'><strong>This rock is basalt</strong></p>",0,corr_feedback,2,train,25,,,,,,,,
,,,,,,,,,,,html-button-response,354,2.0.0,729026,61643eae0b4de3c67744a15f,2,1,2763,,,,,,,,,"<img src= ""rock_img/I_Basalt_11.jpg"" style=""width:8cm; height:5.359999999999999cm;""><p>What type of rock is this?</p>",0,class_response,2,train,26,Andesite,Basalt,11,FALSE,1,2,,
,,,,,,,,,,,html-button-response,355,2.0.0,730043,61643eae0b4de3c67744a15f,2,1,1014,,,,,,,,,"<img src= rock_img/I_Basalt_11.jpg style=""width:8cm; height:5.359999999999999cm;""><p style='font-size: 30px; color: red;'><strong>Incorrect!</strong></p><p style='font-size: 30px;'><strong>This rock is basalt</strong></p>",0,corr_feedback,2,train,26,,,,,,,,
,,,,,,,,,,,html-button-response,356,2.0.0,732410,61643eae0b4de3c67744a15f,2,1,2364,,,,,,,,,"<img src= ""rock_img/I_Basalt_05.jpg"" style=""width:8cm; height:8.18cm;""><p>What type of rock is this?</p>",3,class_response,2,train,27,Gabbro,Basalt,5,FALSE,4,2,,
,,,,,,,,,,,html-button-response,357,2.0.0,733311,61643eae0b4de3c67744a15f,2,1,897,,,,,,,,,"<img src= rock_img/I_Basalt_05.jpg style=""width:8cm; height:8.18cm;""><p style='font-size: 30px; color: red;'><strong>Incorrect!</strong></p><p style='font-size: 30px;'><strong>This rock is basalt</strong></p>",0,corr_feedback,2,train,27,,,,,,,,
,,,,,,,,,,,html-button-response,358,2.0.0,735242,61643eae0b4de3c67744a15f,2,1,1929,,,,,,,,,"<img src= ""rock_img/I_Andesite_02.jpg"" style=""width:8cm; height:8.5cm;""><p>What type of rock is this?</p>",0,class_response,2,train,28,Andesite,Andesite,2,TRUE,1,1,,
,,,,,,,,,,,html-button-response,359,2.0.0,735859,61643eae0b4de3c67744a15f,2,1,613,,,,,,,,,"<img src= rock_img/I_Andesite_02.jpg style=""width:8cm; height:8.5cm;""><p style='font-size: 30px; color: green;'><strong>Correct!</strong></p><p style='font-size: 30px;'><strong>This rock is andesite</strong></p>",0,corr_feedback,2,train,28,,,,,,,,
,,,,,,,,,,,html-button-response,360,2.0.0,737060,61643eae0b4de3c67744a15f,2,1,1197,,,,,,,,,"<img src= ""rock_img/I_Andesite_09.jpg"" style=""width:8cm; height:6cm;""><p>What type of rock is this?</p>",0,class_response,2,train,29,Andesite,Andesite,9,TRUE,1,1,,
,,,,,,,,,,,html-button-response,361,2.0.0,737959,61643eae0b4de3c67744a15f,2,1,897,,,,,,,,,"<img src= rock_img/I_Andesite_09.jpg style=""width:8cm; height:6cm;""><p style='font-size: 30px; color: green;'><strong>Correct!</strong></p><p style='font-size: 30px;'><strong>This rock is andesite</strong></p>",0,corr_feedback,2,train,29,,,,,,,,
,,,,,,,,,,,html-button-response,362,2.0.0,738958,61643eae0b4de3c67744a15f,2,1,995,,,,,,,,,"<img src= ""rock_img/I_Peridotite_10.jpg"" style=""width:8cm; height:5.390000000000001cm;""><p>What type of rock is this?</p>",6,class_response,2,train,30,Peridotite,Peridotite,10,TRUE,7,7,,
,,,,,,,,,,,html-button-response,363,2.0.0,739276,61643eae0b4de3c67744a15f,2,1,316,,,,,,,,,"<img src= rock_img/I_Peridotite_10.jpg style=""width:8cm; height:5.390000000000001cm;""><p style='font-size: 30px; color: green;'><strong>Correct!</strong></p><p style='font-size: 30px;'><strong>This rock is peridotite</strong></p>",0,corr_feedback,2,train,30,,,,,,,,
,,,,,,,,,,,html-button-response,364,2.0.0,740809,61643eae0b4de3c67744a15f,2,1,1530,,,,,,,,,"<img src= ""rock_img/I_Pegmatite_13.jpg"" style=""width:8cm; height:4.95cm;""><p>What type of rock is this?</p>",5,class_response,2,train,31,Pegmatite,Pegmatite,13,TRUE,6,6,,
,,,,,,,,,,,html-button-response,365,2.0.0,741325,61643eae0b4de3c67744a15f,2,1,514,,,,,,,,,"<img src= rock_img/I_Pegmatite_13.jpg style=""width:8cm; height:4.95cm;""><p style='font-size: 30px; color: green;'><strong>Correct!</strong></p><p style='font-size: 30px;'><strong>This rock is pegmatite</strong></p>",0,corr_feedback,2,train,31,,,,,,,,
,,,,,,,,,,,html-button-response,366,2.0.0,742841,61643eae0b4de3c67744a15f,2,1,1513,,,,,,,,,"<img src= ""rock_img/I_Pumice_02.jpg"" style=""width:8cm; height:7.3999999999999995cm;""><p>What type of rock is this?</p>",7,class_response,2,train,32,Pumice,Pumice,2,TRUE,8,8,,
,,,,,,,,,,,html-button-response,367,2.0.0,743377,61643eae0b4de3c67744a15f,2,1,532,,,,,,,,,"<img src= rock_img/I_Pumice_02.jpg style=""width:8cm; height:7.3999999999999995cm;""><p style='font-size: 30px; color: green;'><strong>Correct!</strong></p><p style='font-size: 30px;'><strong>This rock is pumice</strong></p>",0,corr_feedback,2,train,32,,,,,,,,
,,,,,,,,,,,html-button-response,368,2.0.0,745159,61643eae0b4de3c67744a15f,2,1,1780,,,,,,,,,"<img src= ""rock_img/I_Andesite_02.jpg"" style=""width:8cm; height:8.5cm;""><p>What type of rock is this?</p>",0,class_response,2,train,33,Andesite,Andesite,2,TRUE,1,1,,
,,,,,,,,,,,html-button-response,369,2.0.0,745792,61643eae0b4de3c67744a15f,2,1,630,,,,,,,,,"<img src= rock_img/I_Andesite_02.jpg style=""width:8cm; height:8.5cm;""><p style='font-size: 30px; color: green;'><strong>Correct!</strong></p><p style='font-size: 30px;'><strong>This rock is andesite</strong></p>",0,corr_feedback,2,train,33,,,,,,,,
,,,,,,,,,,,html-button-response,370,2.0.0,747609,61643eae0b4de3c67744a15f,2,1,1815,,,,,,,,,"<img src= ""rock_img/I_Gabbro_11.jpg"" style=""width:8cm; height:6.2cm;""><p>What type of rock is this?</p>",3,class_response,2,train,34,Gabbro,Gabbro,11,TRUE,4,4,,
,,,,,,,,,,,html-button-response,371,2.0.0,748158,61643eae0b4de3c67744a15f,2,1,548,,,,,,,,,"<img src= rock_img/I_Gabbro_11.jpg style=""width:8cm; height:6.2cm;""><p style='font-size: 30px; color: green;'><strong>Correct!</strong></p><p style='font-size: 30px;'><strong>This rock is gabbro</strong></p>",0,corr_feedback,2,train,34,,,,,,,,
,,,,,,,,,,,html-button-response,372,2.0.0,750743,61643eae0b4de3c67744a15f,2,1,2582,,,,,,,,,"<img src= ""rock_img/I_Gabbro_16.jpg"" style=""width:8cm; height:6.44cm;""><p>What type of rock is this?</p>",3,class_response,2,train,35,Gabbro,Gabbro,16,TRUE,4,4,,
,,,,,,,,,,,html-button-response,373,2.0.0,751359,61643eae0b4de3c67744a15f,2,1,614,,,,,,,,,"<img src= rock_img/I_Gabbro_16.jpg style=""width:8cm; height:6.44cm;""><p style='font-size: 30px; color: green;'><strong>Correct!</strong></p><p style='font-size: 30px;'><strong>This rock is gabbro</strong></p>",0,corr_feedback,2,train,35,,,,,,,,
,,,,,,,,,,,html-button-response,374,2.0.0,752642,61643eae0b4de3c67744a15f,2,1,1280,,,,,,,,,"<img src= ""rock_img/I_Basalt_16.jpg"" style=""width:8cm; height:7.659999999999999cm;""><p>What type of rock is this?</p>",1,class_response,2,train,36,Basalt,Basalt,16,TRUE,2,2,,
,,,,,,,,,,,html-button-response,375,2.0.0,753542,61643eae0b4de3c67744a15f,2,1,897,,,,,,,,,"<img src= rock_img/I_Basalt_16.jpg style=""width:8cm; height:7.659999999999999cm;""><p style='font-size: 30px; color: green;'><strong>Correct!</strong></p><p style='font-size: 30px;'><strong>This rock is basalt</strong></p>",0,corr_feedback,2,train,36,,,,,,,,
,,,,,,,,,,,html-button-response,376,2.0.0,754609,61643eae0b4de3c67744a15f,2,1,1064,,,,,,,,,"<img src= ""rock_img/I_Peridotite_02.jpg"" style=""width:8cm; height:5.859999999999999cm;""><p>What type of rock is this?</p>",6,class_response,2,train,37,Peridotite,Peridotite,2,TRUE,7,7,,
,,,,,,,,,,,html-button-response,377,2.0.0,755009,61643eae0b4de3c67744a15f,2,1,397,,,,,,,,,"<img src= rock_img/I_Peridotite_02.jpg style=""width:8cm; height:5.859999999999999cm;""><p style='font-size: 30px; color: green;'><strong>Correct!</strong></p><p style='font-size: 30px;'><strong>This rock is peridotite</strong></p>",0,corr_feedback,2,train,37,,,,,,,,
,,,,,,,,,,,html-button-response,378,2.0.0,756609,61643eae0b4de3c67744a15f,2,1,1597,,,,,,,,,"<img src= ""rock_img/I_Diorite_06.jpg"" style=""width:8cm; height:6.03cm;""><p>What type of rock is this?</p>",2,class_response,2,train,38,Diorite,Diorite,6,TRUE,3,3,,
,,,,,,,,,,,html-button-response,379,2.0.0,757094,61643eae0b4de3c67744a15f,2,1,481,,,,,,,,,"<img src= rock_img/I_Diorite_06.jpg style=""width:8cm; height:6.03cm;""><p style='font-size: 30px; color: green;'><strong>Correct!</strong></p><p style='font-size: 30px;'><strong>This rock is diorite</strong></p>",0,corr_feedback,2,train,38,,,,,,,,
,,,,,,,,,,,html-button-response,380,2.0.0,758859,61643eae0b4de3c67744a15f,2,1,1761,,,,,,,,,"<img src= ""rock_img/I_Basalt_06.jpg"" style=""width:8cm; height:7.06cm;""><p>What type of rock is this?</p>",3,class_response,2,train,39,Gabbro,Basalt,6,FALSE,4,2,,
,,,,,,,,,,,html-button-response,381,2.0.0,759493,61643eae0b4de3c67744a15f,2,1,632,,,,,,,,,"<img src= rock_img/I_Basalt_06.jpg style=""width:8cm; height:7.06cm;""><p style='font-size: 30px; color: red;'><strong>Incorrect!</strong></p><p style='font-size: 30px;'><strong>This rock is basalt</strong></p>",0,corr_feedback,2,train,39,,,,,,,,
,,,,,,,,,,,html-button-response,382,2.0.0,760658,61643eae0b4de3c67744a15f,2,1,1162,,,,,,,,,"<img src= ""rock_img/I_Pegmatite_09.jpg"" style=""width:8cm; height:4.03cm;""><p>What type of rock is this?</p>",5,class_response,2,train,40,Pegmatite,Pegmatite,9,TRUE,6,6,,
,,,,,,,,,,,html-button-response,383,2.0.0,761042,61643eae0b4de3c67744a15f,2,1,383,,,,,,,,,"<img src= rock_img/I_Pegmatite_09.jpg style=""width:8cm; height:4.03cm;""><p style='font-size: 30px; color: green;'><strong>Correct!</strong></p><p style='font-size: 30px;'><strong>This rock is pegmatite</strong></p>",0,corr_feedback,2,train,40,,,,,,,,
,,,,,,,,,,,html-button-response,384,2.0.0,764009,61643eae0b4de3c67744a15f,2,1,2963,,,,,,,,,"<img src= ""rock_img/I_Gabbro_12.jpg"" style=""width:8cm; height:7.800000000000001cm;""><p>What type of rock is this?</p>",3,class_response,2,train,41,Gabbro,Gabbro,12,TRUE,4,4,,
,,,,,,,,,,,html-button-response,385,2.0.0,764576,61643eae0b4de3c67744a15f,2,1,564,,,,,,,,,"<img src= rock_img/I_Gabbro_12.jpg style=""width:8cm; height:7.800000000000001cm;""><p style='font-size: 30px; color: green;'><strong>Correct!</strong></p><p style='font-size: 30px;'><strong>This rock is gabbro</strong></p>",0,corr_feedback,2,train,41,,,,,,,,
,,,,,,,,,,,html-button-response,386,2.0.0,765559,61643eae0b4de3c67744a15f,2,1,980,,,,,,,,,"<img src= ""rock_img/I_Peridotite_10.jpg"" style=""width:8cm; height:5.390000000000001cm;""><p>What type of rock is this?</p>",6,class_response,2,train,42,Peridotite,Peridotite,10,TRUE,7,7,,
