width,height,webaudio,browser,browser_version,mobile,os,fullscreen,vsync_rate,webcam,microphone,trial_type,trial_index,plugin_version,time_elapsed,subjID,condition,stimID,rt,url,success,value,timeout,failed_images,failed_audio,failed_video,view_history,stimulus,response,trialType,cycle,phase,trial,resp,cat,token,corr,resp_num,cat_num,rt_ref,rt_paired,ref_cat_num,paired_cat_num,ref_cat,paired_cat,text_Pegmatite,text_Andesite,time_obs,time_resp,text_Peridotite,text_Diorite,text_Gabbro,text_Basalt,time_fb1,time_fb2,text_Pumice
1496,877,TRUE,edge-chromium,131.0.0,FALSE,Windows 10,TRUE,61.16,TRUE,TRUE,browser-check,0,2.0.0,1350,5ffb8c5b60571908f3ac19fa,4,45,,,,,,,,,,,,,,,,,,,,,,,,,,,,,,,,,,,,,,
,,,,,,,,,,,external-html,1,2.0.0,42091,5ffb8c5b60571908f3ac19fa,4,45,40672,consent_form.html,,,,,,,,,,,,,,,,,,,,,,,,,,,,,,,,,,,,
,,,,,,,,,,,fullscreen,2,2.0.0,45308,5ffb8c5b60571908f3ac19fa,4,45,2208,,TRUE,,,,,,,,,,,,,,,,,,,,,,,,,,,,,,,,,,,
,,,,,,,,,,,call-function,3,2.0.0,45313,5ffb8c5b60571908f3ac19fa,4,45,,,,{},,,,,,,,,,,,,,,,,,,,,,,,,,,,,,,,,,
,,,,,,,,,,,preload,4,2.0.0,48177,5ffb8c5b60571908f3ac19fa,4,45,,,TRUE,,FALSE,[],[],[],,,,,,,,,,,,,,,,,,,,,,,,,,,,,,
,,,,,,,,,,,instructions,5,2.0.0,101564,5ffb8c5b60571908f3ac19fa,4,45,53384,,,,,,,,"[{""page_index"":0,""viewing_time"":9436},{""page_index"":1,""viewing_time"":30481},{""page_index"":2,""viewing_time"":13467}]",,,,,,,,,,,,,,,,,,,,,,,,,,,,,
,,,,,,,,,,,html-button-response,6,2.0.0,105831,5ffb8c5b60571908f3ac19fa,4,45,4263,,,,,,,,,,0,start_test,,,,,,,,,,,,,,,,,,,,,,,,,,
,,,,,,,,,,,html-button-response,7,2.0.0,110223,5ffb8c5b60571908f3ac19fa,4,45,4387,,,,,,,,,"<img src= ""rock_img/I_Pumice_09.jpg"" style=""width:8cm; height:6.44cm;""><p>What type of rock is this?</p>",7,class_response,0,test,1,Pumice,Pumice,9,TRUE,8,8,,,,,,,,,,,,,,,,,
,,,,,,,,,,,html-keyboard-response,8,2.0.0,110731,5ffb8c5b60571908f3ac19fa,4,45,null,,,,,,,,,<p style='font-size: 30px;'><strong>Okay</strong></p>,null,neutral_feedback,0,test,1,,,,,,,,,,,,,,,,,,,,,,,
,,,,,,,,,,,html-button-response,9,2.0.0,113632,5ffb8c5b60571908f3ac19fa,4,45,2896,,,,,,,,,"<img src= ""rock_img/I_Basalt_01.jpg"" style=""width:8cm; height:7.880000000000001cm;""><p>What type of rock is this?</p>",4,class_response,0,test,2,Obsidian,Basalt,1,FALSE,5,2,,,,,,,,,,,,,,,,,
,,,,,,,,,,,html-keyboard-response,10,2.0.0,114139,5ffb8c5b60571908f3ac19fa,4,45,null,,,,,,,,,<p style='font-size: 30px;'><strong>Okay</strong></p>,null,neutral_feedback,0,test,2,,,,,,,,,,,,,,,,,,,,,,,
,,,,,,,,,,,html-button-response,11,2.0.0,118331,5ffb8c5b60571908f3ac19fa,4,45,4188,,,,,,,,,"<img src= ""rock_img/I_Gabbro_11.jpg"" style=""width:8cm; height:6.2cm;""><p>What type of rock is this?</p>",1,class_response,0,test,3,Basalt,Gabbro,11,FALSE,2,4,,,,,,,,,,,,,,,,,
,,,,,,,,,,,html-keyboard-response,12,2.0.0,118845,5ffb8c5b60571908f3ac19fa,4,45,null,,,,,,,,,<p style='font-size: 30px;'><strong>Okay</strong></p>,null,neutral_feedback,0,test,3,,,,,,,,,,,,,,,,,,,,,,,
,,,,,,,,,,,html-button-response,13,2.0.0,122396,5ffb8c5b60571908f3ac19fa,4,45,3548,,,,,,,,,"<img src= ""rock_img/I_Pumice_13.jpg"" style=""width:8cm; height:8.200000000000001cm;""><p>What type of rock is this?</p>",5,class_response,0,test,4,Pegmatite,Pumice,13,FALSE,6,8,,,,,,,,,,,,,,,,,
,,,,,,,,,,,html-keyboard-response,14,2.0.0,122911,5ffb8c5b60571908f3ac19fa,4,45,null,,,,,,,,,<p style='font-size: 30px;'><strong>Okay</strong></p>,null,neutral_feedback,0,test,4,,,,,,,,,,,,,,,,,,,,,,,
,,,,,,,,,,,html-button-response,15,2.0.0,126690,5ffb8c5b60571908f3ac19fa,4,45,3776,,,,,,,,,"<img src= ""rock_img/I_Peridotite_14.jpg"" style=""width:8cm; height:5.3cm;""><p>What type of rock is this?</p>",3,class_response,0,test,5,Gabbro,Peridotite,14,FALSE,4,7,,,,,,,,,,,,,,,,,
,,,,,,,,,,,html-keyboard-response,16,2.0.0,127200,5ffb8c5b60571908f3ac19fa,4,45,null,,,,,,,,,<p style='font-size: 30px;'><strong>Okay</strong></p>,null,neutral_feedback,0,test,5,,,,,,,,,,,,,,,,,,,,,,,
,,,,,,,,,,,html-button-response,17,2.0.0,130724,5ffb8c5b60571908f3ac19fa,4,45,3520,,,,,,,,,"<img src= ""rock_img/I_Diorite_09.jpg"" style=""width:8cm; height:5.27cm;""><p>What type of rock is this?</p>",2,class_response,0,test,6,Diorite,Diorite,9,TRUE,3,3,,,,,,,,,,,,,,,,,
,,,,,,,,,,,html-keyboard-response,18,2.0.0,131233,5ffb8c5b60571908f3ac19fa,4,45,null,,,,,,,,,<p style='font-size: 30px;'><strong>Okay</strong></p>,null,neutral_feedback,0,test,6,,,,,,,,,,,,,,,,,,,,,,,
,,,,,,,,,,,html-button-response,19,2.0.0,139551,5ffb8c5b60571908f3ac19fa,4,45,8314,,,,,,,,,"<img src= ""rock_img/I_Obsidian_07.jpg"" style=""width:8cm; height:4.76cm;""><p>What type of rock is this?</p>",1,class_response,0,test,7,Basalt,Obsidian,7,FALSE,2,5,,,,,,,,,,,,,,,,,
,,,,,,,,,,,html-keyboard-response,20,2.0.0,140061,5ffb8c5b60571908f3ac19fa,4,45,null,,,,,,,,,<p style='font-size: 30px;'><strong>Okay</strong></p>,null,neutral_feedback,0,test,7,,,,,,,,,,,,,,,,,,,,,,,
,,,,,,,,,,,html-button-response,21,2.0.0,143408,5ffb8c5b60571908f3ac19fa,4,45,3344,,,,,,,,,"<img src= ""rock_img/I_Basalt_06.jpg"" style=""width:8cm; height:7.06cm;""><p>What type of rock is this?</p>",4,class_response,0,test,8,Obsidian,Basalt,6,FALSE,5,2,,,,,,,,,,,,,,,,,
,,,,,,,,,,,html-keyboard-response,22,2.0.0,143917,5ffb8c5b60571908f3ac19fa,4,45,null,,,,,,,,,<p style='font-size: 30px;'><strong>Okay</strong></p>,null,neutral_feedback,0,test,8,,,,,,,,,,,,,,,,,,,,,,,
,,,,,,,,,,,html-button-response,23,2.0.0,147449,5ffb8c5b60571908f3ac19fa,4,45,3528,,,,,,,,,"<img src= ""rock_img/I_Andesite_05.jpg"" style=""width:8cm; height:4.12cm;""><p>What type of rock is this?</p>",6,class_response,0,test,9,Peridotite,Andesite,5,FALSE,7,1,,,,,,,,,,,,,,,,,
,,,,,,,,,,,html-keyboard-response,24,2.0.0,147954,5ffb8c5b60571908f3ac19fa,4,45,null,,,,,,,,,<p style='font-size: 30px;'><strong>Okay</strong></p>,null,neutral_feedback,0,test,9,,,,,,,,,,,,,,,,,,,,,,,
,,,,,,,,,,,html-button-response,25,2.0.0,150500,5ffb8c5b60571908f3ac19fa,4,45,2541,,,,,,,,,"<img src= ""rock_img/I_Andesite_03.jpg"" style=""width:8cm; height:5.73cm;""><p>What type of rock is this?</p>",3,class_response,0,test,10,Gabbro,Andesite,3,FALSE,4,1,,,,,,,,,,,,,,,,,
,,,,,,,,,,,html-keyboard-response,26,2.0.0,151009,5ffb8c5b60571908f3ac19fa,4,45,null,,,,,,,,,<p style='font-size: 30px;'><strong>Okay</strong></p>,null,neutral_feedback,0,test,10,,,,,,,,,,,,,,,,,,,,,,,
,,,,,,,,,,,html-button-response,27,2.0.0,153848,5ffb8c5b60571908f3ac19fa,4,45,2836,,,,,,,,,"<img src= ""rock_img/I_Peridotite_06.jpg"" style=""width:8cm; height:7.53cm;""><p>What type of rock is this?</p>",0,class_response,0,test,11,Andesite,Peridotite,6,FALSE,1,7,,,,,,,,,,,,,,,,,
,,,,,,,,,,,html-keyboard-response,28,2.0.0,154356,5ffb8c5b60571908f3ac19fa,4,45,null,,,,,,,,,<p style='font-size: 30px;'><strong>Okay</strong></p>,null,neutral_feedback,0,test,11,,,,,,,,,,,,,,,,,,,,,,,
,,,,,,,,,,,html-button-response,29,2.0.0,155812,5ffb8c5b60571908f3ac19fa,4,45,1452,,,,,,,,,"<img src= ""rock_img/I_Obsidian_02.jpg"" style=""width:8cm; height:7.51cm;""><p>What type of rock is this?</p>",4,class_response,0,test,12,Obsidian,Obsidian,2,TRUE,5,5,,,,,,,,,,,,,,,,,
,,,,,,,,,,,html-keyboard-response,30,2.0.0,156323,5ffb8c5b60571908f3ac19fa,4,45,null,,,,,,,,,<p style='font-size: 30px;'><strong>Okay</strong></p>,null,neutral_feedback,0,test,12,,,,,,,,,,,,,,,,,,,,,,,
,,,,,,,,,,,html-button-response,31,2.0.0,158001,5ffb8c5b60571908f3ac19fa,4,45,1674,,,,,,,,,"<img src= ""rock_img/I_Gabbro_08.jpg"" style=""width:8cm; height:5.15cm;""><p>What type of rock is this?</p>",1,class_response,0,test,13,Basalt,Gabbro,8,FALSE,2,4,,,,,,,,,,,,,,,,,
,,,,,,,,,,,html-keyboard-response,32,2.0.0,158509,5ffb8c5b60571908f3ac19fa,4,45,null,,,,,,,,,<p style='font-size: 30px;'><strong>Okay</strong></p>,null,neutral_feedback,0,test,13,,,,,,,,,,,,,,,,,,,,,,,
,,,,,,,,,,,html-button-response,33,2.0.0,159944,5ffb8c5b60571908f3ac19fa,4,45,1431,,,,,,,,,"<img src= ""rock_img/I_Peridotite_16.jpg"" style=""width:8cm; height:6.989999999999999cm;""><p>What type of rock is this?</p>",2,class_response,0,test,14,Diorite,Peridotite,16,FALSE,3,7,,,,,,,,,,,,,,,,,
,,,,,,,,,,,html-keyboard-response,34,2.0.0,160458,5ffb8c5b60571908f3ac19fa,4,45,null,,,,,,,,,<p style='font-size: 30px;'><strong>Okay</strong></p>,null,neutral_feedback,0,test,14,,,,,,,,,,,,,,,,,,,,,,,
,,,,,,,,,,,html-button-response,35,2.0.0,162186,5ffb8c5b60571908f3ac19fa,4,45,1724,,,,,,,,,"<img src= ""rock_img/I_Basalt_14.jpg"" style=""width:8cm; height:5.82cm;""><p>What type of rock is this?</p>",5,class_response,0,test,15,Pegmatite,Basalt,14,FALSE,6,2,,,,,,,,,,,,,,,,,
,,,,,,,,,,,html-keyboard-response,36,2.0.0,162695,5ffb8c5b60571908f3ac19fa,4,45,null,,,,,,,,,<p style='font-size: 30px;'><strong>Okay</strong></p>,null,neutral_feedback,0,test,15,,,,,,,,,,,,,,,,,,,,,,,
,,,,,,,,,,,html-button-response,37,2.0.0,164325,5ffb8c5b60571908f3ac19fa,4,45,1627,,,,,,,,,"<img src= ""rock_img/I_Pegmatite_08.jpg"" style=""width:8cm; height:7.68cm;""><p>What type of rock is this?</p>",3,class_response,0,test,16,Gabbro,Pegmatite,8,FALSE,4,6,,,,,,,,,,,,,,,,,
,,,,,,,,,,,html-keyboard-response,38,2.0.0,164842,5ffb8c5b60571908f3ac19fa,4,45,null,,,,,,,,,<p style='font-size: 30px;'><strong>Okay</strong></p>,null,neutral_feedback,0,test,16,,,,,,,,,,,,,,,,,,,,,,,
,,,,,,,,,,,html-button-response,39,2.0.0,166676,5ffb8c5b60571908f3ac19fa,4,45,1830,,,,,,,,,"<img src= ""rock_img/I_Pegmatite_15.jpg"" style=""width:8cm; height:6cm;""><p>What type of rock is this?</p>",6,class_response,0,test,17,Peridotite,Pegmatite,15,FALSE,7,6,,,,,,,,,,,,,,,,,
,,,,,,,,,,,html-keyboard-response,40,2.0.0,167186,5ffb8c5b60571908f3ac19fa,4,45,null,,,,,,,,,<p style='font-size: 30px;'><strong>Okay</strong></p>,null,neutral_feedback,0,test,17,,,,,,,,,,,,,,,,,,,,,,,
,,,,,,,,,,,html-button-response,41,2.0.0,168820,5ffb8c5b60571908f3ac19fa,4,45,1629,,,,,,,,,"<img src= ""rock_img/I_Gabbro_05.jpg"" style=""width:8cm; height:6cm;""><p>What type of rock is this?</p>",7,class_response,0,test,18,Pumice,Gabbro,5,FALSE,8,4,,,,,,,,,,,,,,,,,
,,,,,,,,,,,html-keyboard-response,42,2.0.0,169327,5ffb8c5b60571908f3ac19fa,4,45,null,,,,,,,,,<p style='font-size: 30px;'><strong>Okay</strong></p>,null,neutral_feedback,0,test,18,,,,,,,,,,,,,,,,,,,,,,,
,,,,,,,,,,,html-button-response,43,2.0.0,171045,5ffb8c5b60571908f3ac19fa,4,45,1714,,,,,,,,,"<img src= ""rock_img/I_Obsidian_11.jpg"" style=""width:8cm; height:6.05cm;""><p>What type of rock is this?</p>",4,class_response,0,test,19,Obsidian,Obsidian,11,TRUE,5,5,,,,,,,,,,,,,,,,,
,,,,,,,,,,,html-keyboard-response,44,2.0.0,171558,5ffb8c5b60571908f3ac19fa,4,45,null,,,,,,,,,<p style='font-size: 30px;'><strong>Okay</strong></p>,null,neutral_feedback,0,test,19,,,,,,,,,,,,,,,,,,,,,,,
,,,,,,,,,,,html-button-response,45,2.0.0,173136,5ffb8c5b60571908f3ac19fa,4,45,1575,,,,,,,,,"<img src= ""rock_img/I_Basalt_11.jpg"" style=""width:8cm; height:5.359999999999999cm;""><p>What type of rock is this?</p>",0,class_response,0,test,20,Andesite,Basalt,11,FALSE,1,2,,,,,,,,,,,,,,,,,
,,,,,,,,,,,html-keyboard-response,46,2.0.0,173644,5ffb8c5b60571908f3ac19fa,4,45,null,,,,,,,,,<p style='font-size: 30px;'><strong>Okay</strong></p>,null,neutral_feedback,0,test,20,,,,,,,,,,,,,,,,,,,,,,,
,,,,,,,,,,,html-button-response,47,2.0.0,174939,5ffb8c5b60571908f3ac19fa,4,45,1292,,,,,,,,,"<img src= ""rock_img/I_Andesite_09.jpg"" style=""width:8cm; height:6cm;""><p>What type of rock is this?</p>",1,class_response,0,test,21,Basalt,Andesite,9,FALSE,2,1,,,,,,,,,,,,,,,,,
,,,,,,,,,,,html-keyboard-response,48,2.0.0,175454,5ffb8c5b60571908f3ac19fa,4,45,null,,,,,,,,,<p style='font-size: 30px;'><strong>Okay</strong></p>,null,neutral_feedback,0,test,21,,,,,,,,,,,,,,,,,,,,,,,
,,,,,,,,,,,html-button-response,49,2.0.0,177331,5ffb8c5b60571908f3ac19fa,4,45,1873,,,,,,,,,"<img src= ""rock_img/I_Pumice_06.jpg"" style=""width:8cm; height:6.9399999999999995cm;""><p>What type of rock is this?</p>",3,class_response,0,test,22,Gabbro,Pumice,6,FALSE,4,8,,,,,,,,,,,,,,,,,
,,,,,,,,,,,html-keyboard-response,50,2.0.0,177843,5ffb8c5b60571908f3ac19fa,4,45,null,,,,,,,,,<p style='font-size: 30px;'><strong>Okay</strong></p>,null,neutral_feedback,0,test,22,,,,,,,,,,,,,,,,,,,,,,,
,,,,,,,,,,,html-button-response,51,2.0.0,179360,5ffb8c5b60571908f3ac19fa,4,45,1513,,,,,,,,,"<img src= ""rock_img/I_Gabbro_14.jpg"" style=""width:8cm; height:8.48cm;""><p>What type of rock is this?</p>",5,class_response,0,test,23,Pegmatite,Gabbro,14,FALSE,6,4,,,,,,,,,,,,,,,,,
,,,,,,,,,,,html-keyboard-response,52,2.0.0,179870,5ffb8c5b60571908f3ac19fa,4,45,null,,,,,,,,,<p style='font-size: 30px;'><strong>Okay</strong></p>,null,neutral_feedback,0,test,23,,,,,,,,,,,,,,,,,,,,,,,
,,,,,,,,,,,html-button-response,53,2.0.0,181789,5ffb8c5b60571908f3ac19fa,4,45,1915,,,,,,,,,"<img src= ""rock_img/I_Gabbro_16.jpg"" style=""width:8cm; height:6.44cm;""><p>What type of rock is this?</p>",6,class_response,0,test,24,Peridotite,Gabbro,16,FALSE,7,4,,,,,,,,,,,,,,,,,
,,,,,,,,,,,html-keyboard-response,54,2.0.0,182294,5ffb8c5b60571908f3ac19fa,4,45,null,,,,,,,,,<p style='font-size: 30px;'><strong>Okay</strong></p>,null,neutral_feedback,0,test,24,,,,,,,,,,,,,,,,,,,,,,,
,,,,,,,,,,,html-button-response,55,2.0.0,184641,5ffb8c5b60571908f3ac19fa,4,45,2344,,,,,,,,,"<img src= ""rock_img/I_Andesite_02.jpg"" style=""width:8cm; height:8.5cm;""><p>What type of rock is this?</p>",2,class_response,0,test,25,Diorite,Andesite,2,FALSE,3,1,,,,,,,,,,,,,,,,,
,,,,,,,,,,,html-keyboard-response,56,2.0.0,185149,5ffb8c5b60571908f3ac19fa,4,45,null,,,,,,,,,<p style='font-size: 30px;'><strong>Okay</strong></p>,null,neutral_feedback,0,test,25,,,,,,,,,,,,,,,,,,,,,,,
,,,,,,,,,,,html-button-response,57,2.0.0,188671,5ffb8c5b60571908f3ac19fa,4,45,3519,,,,,,,,,"<img src= ""rock_img/I_Pegmatite_13.jpg"" style=""width:8cm; height:4.95cm;""><p>What type of rock is this?</p>",0,class_response,0,test,26,Andesite,Pegmatite,13,FALSE,1,6,,,,,,,,,,,,,,,,,
,,,,,,,,,,,html-keyboard-response,58,2.0.0,189185,5ffb8c5b60571908f3ac19fa,4,45,null,,,,,,,,,<p style='font-size: 30px;'><strong>Okay</strong></p>,null,neutral_feedback,0,test,26,,,,,,,,,,,,,,,,,,,,,,,
,,,,,,,,,,,html-button-response,59,2.0.0,193015,5ffb8c5b60571908f3ac19fa,4,45,3826,,,,,,,,,"<img src= ""rock_img/I_Pegmatite_09.jpg"" style=""width:8cm; height:4.03cm;""><p>What type of rock is this?</p>",5,class_response,0,test,27,Pegmatite,Pegmatite,9,TRUE,6,6,,,,,,,,,,,,,,,,,
,,,,,,,,,,,html-keyboard-response,60,2.0.0,193525,5ffb8c5b60571908f3ac19fa,4,45,null,,,,,,,,,<p style='font-size: 30px;'><strong>Okay</strong></p>,null,neutral_feedback,0,test,27,,,,,,,,,,,,,,,,,,,,,,,
,,,,,,,,,,,html-button-response,61,2.0.0,195263,5ffb8c5b60571908f3ac19fa,4,45,1735,,,,,,,,,"<img src= ""rock_img/I_Obsidian_06.jpg"" style=""width:8cm; height:6.8cm;""><p>What type of rock is this?</p>",4,class_response,0,test,28,Obsidian,Obsidian,6,TRUE,5,5,,,,,,,,,,,,,,,,,
,,,,,,,,,,,html-keyboard-response,62,2.0.0,195773,5ffb8c5b60571908f3ac19fa,4,45,null,,,,,,,,,<p style='font-size: 30px;'><strong>Okay</strong></p>,null,neutral_feedback,0,test,28,,,,,,,,,,,,,,,,,,,,,,,
,,,,,,,,,,,html-button-response,63,2.0.0,198018,5ffb8c5b60571908f3ac19fa,4,45,2241,,,,,,,,,"<img src= ""rock_img/I_Pegmatite_06.jpg"" style=""width:8cm; height:5.17cm;""><p>What type of rock is this?</p>",3,class_response,0,test,29,Gabbro,Pegmatite,6,FALSE,4,6,,,,,,,,,,,,,,,,,
,,,,,,,,,,,html-keyboard-response,64,2.0.0,198523,5ffb8c5b60571908f3ac19fa,4,45,null,,,,,,,,,<p style='font-size: 30px;'><strong>Okay</strong></p>,null,neutral_feedback,0,test,29,,,,,,,,,,,,,,,,,,,,,,,
,,,,,,,,,,,html-button-response,65,2.0.0,200072,5ffb8c5b60571908f3ac19fa,4,45,1546,,,,,,,,,"<img src= ""rock_img/I_Diorite_15.jpg"" style=""width:8cm; height:5.54cm;""><p>What type of rock is this?</p>",2,class_response,0,test,30,Diorite,Diorite,15,TRUE,3,3,,,,,,,,,,,,,,,,,
,,,,,,,,,,,html-keyboard-response,66,2.0.0,200583,5ffb8c5b60571908f3ac19fa,4,45,null,,,,,,,,,<p style='font-size: 30px;'><strong>Okay</strong></p>,null,neutral_feedback,0,test,30,,,,,,,,,,,,,,,,,,,,,,,
,,,,,,,,,,,html-button-response,67,2.0.0,203791,5ffb8c5b60571908f3ac19fa,4,45,3204,,,,,,,,,"<img src= ""rock_img/I_Pumice_02.jpg"" style=""width:8cm; height:7.3999999999999995cm;""><p>What type of rock is this?</p>",7,class_response,0,test,31,Pumice,Pumice,2,TRUE,8,8,,,,,,,,,,,,,,,,,
,,,,,,,,,,,html-keyboard-response,68,2.0.0,204307,5ffb8c5b60571908f3ac19fa,4,45,null,,,,,,,,,<p style='font-size: 30px;'><strong>Okay</strong></p>,null,neutral_feedback,0,test,31,,,,,,,,,,,,,,,,,,,,,,,
,,,,,,,,,,,html-button-response,69,2.0.0,206032,5ffb8c5b60571908f3ac19fa,4,45,1721,,,,,,,,,"<img src= ""rock_img/I_Pegmatite_05.jpg"" style=""width:8cm; height:7.300000000000001cm;""><p>What type of rock is this?</p>",5,class_response,0,test,32,Pegmatite,Pegmatite,5,TRUE,6,6,,,,,,,,,,,,,,,,,
,,,,,,,,,,,html-keyboard-response,70,2.0.0,206541,5ffb8c5b60571908f3ac19fa,4,45,null,,,,,,,,,<p style='font-size: 30px;'><strong>Okay</strong></p>,null,neutral_feedback,0,test,32,,,,,,,,,,,,,,,,,,,,,,,
,,,,,,,,,,,html-button-response,71,2.0.0,208018,5ffb8c5b60571908f3ac19fa,4,45,1473,,,,,,,,,"<img src= ""rock_img/I_Diorite_13.jpg"" style=""width:8cm; height:6.29cm;""><p>What type of rock is this?</p>",6,class_response,0,test,33,Peridotite,Diorite,13,FALSE,7,3,,,,,,,,,,,,,,,,,
,,,,,,,,,,,html-keyboard-response,72,2.0.0,208525,5ffb8c5b60571908f3ac19fa,4,45,null,,,,,,,,,<p style='font-size: 30px;'><strong>Okay</strong></p>,null,neutral_feedback,0,test,33,,,,,,,,,,,,,,,,,,,,,,,
,,,,,,,,,,,html-button-response,73,2.0.0,210730,5ffb8c5b60571908f3ac19fa,4,45,2202,,,,,,,,,"<img src= ""rock_img/I_Andesite_04.jpg"" style=""width:8cm; height:5.96cm;""><p>What type of rock is this?</p>",1,class_response,0,test,34,Basalt,Andesite,4,FALSE,2,1,,,,,,,,,,,,,,,,,
,,,,,,,,,,,html-keyboard-response,74,2.0.0,211241,5ffb8c5b60571908f3ac19fa,4,45,null,,,,,,,,,<p style='font-size: 30px;'><strong>Okay</strong></p>,null,neutral_feedback,0,test,34,,,,,,,,,,,,,,,,,,,,,,,
,,,,,,,,,,,html-button-response,75,2.0.0,212769,5ffb8c5b60571908f3ac19fa,4,45,1524,,,,,,,,,"<img src= ""rock_img/I_Peridotite_15.jpg"" style=""width:8cm; height:6cm;""><p>What type of rock is this?</p>",2,class_response,0,test,35,Diorite,Peridotite,15,FALSE,3,7,,,,,,,,,,,,,,,,,
,,,,,,,,,,,html-keyboard-response,76,2.0.0,213283,5ffb8c5b60571908f3ac19fa,4,45,null,,,,,,,,,<p style='font-size: 30px;'><strong>Okay</strong></p>,null,neutral_feedback,0,test,35,,,,,,,,,,,,,,,,,,,,,,,
,,,,,,,,,,,html-button-response,77,2.0.0,214824,5ffb8c5b60571908f3ac19fa,4,45,1537,,,,,,,,,"<img src= ""rock_img/I_Basalt_04.jpg"" style=""width:8cm; height:7.53cm;""><p>What type of rock is this?</p>",4,class_response,0,test,36,Obsidian,Basalt,4,FALSE,5,2,,,,,,,,,,,,,,,,,
,,,,,,,,,,,html-keyboard-response,78,2.0.0,215334,5ffb8c5b60571908f3ac19fa,4,45,null,,,,,,,,,<p style='font-size: 30px;'><strong>Okay</strong></p>,null,neutral_feedback,0,test,36,,,,,,,,,,,,,,,,,,,,,,,
,,,,,,,,,,,html-button-response,79,2.0.0,217701,5ffb8c5b60571908f3ac19fa,4,45,2363,,,,,,,,,"<img src= ""rock_img/I_Pumice_05.jpg"" style=""width:8cm; height:7.25cm;""><p>What type of rock is this?</p>",6,class_response,0,test,37,Peridotite,Pumice,5,FALSE,7,8,,,,,,,,,,,,,,,,,
,,,,,,,,,,,html-keyboard-response,80,2.0.0,218207,5ffb8c5b60571908f3ac19fa,4,45,null,,,,,,,,,<p style='font-size: 30px;'><strong>Okay</strong></p>,null,neutral_feedback,0,test,37,,,,,,,,,,,,,,,,,,,,,,,
,,,,,,,,,,,html-button-response,81,2.0.0,219643,5ffb8c5b60571908f3ac19fa,4,45,1432,,,,,,,,,"<img src= ""rock_img/I_Obsidian_12.jpg"" style=""width:8cm; height:6.53cm;""><p>What type of rock is this?</p>",4,class_response,0,test,38,Obsidian,Obsidian,12,TRUE,5,5,,,,,,,,,,,,,,,,,
,,,,,,,,,,,html-keyboard-response,82,2.0.0,220148,5ffb8c5b60571908f3ac19fa,4,45,null,,,,,,,,,<p style='font-size: 30px;'><strong>Okay</strong></p>,null,neutral_feedback,0,test,38,,,,,,,,,,,,,,,,,,,,,,,
,,,,,,,,,,,html-button-response,83,2.0.0,221454,5ffb8c5b60571908f3ac19fa,4,45,1303,,,,,,,,,"<img src= ""rock_img/I_Gabbro_03.jpg"" style=""width:8cm; height:8.52cm;""><p>What type of rock is this?</p>",0,class_response,0,test,39,Andesite,Gabbro,3,FALSE,1,4,,,,,,,,,,,,,,,,,
,,,,,,,,,,,html-keyboard-response,84,2.0.0,221967,5ffb8c5b60571908f3ac19fa,4,45,null,,,,,,,,,<p style='font-size: 30px;'><strong>Okay</strong></p>,null,neutral_feedback,0,test,39,,,,,,,,,,,,,,,,,,,,,,,
,,,,,,,,,,,html-button-response,85,2.0.0,223368,5ffb8c5b60571908f3ac19fa,4,45,1397,,,,,,,,,"<img src= ""rock_img/I_Diorite_10.jpg"" style=""width:8cm; height:5.949999999999999cm;""><p>What type of rock is this?</p>",5,class_response,0,test,40,Pegmatite,Diorite,10,FALSE,6,3,,,,,,,,,,,,,,,,,
,,,,,,,,,,,html-keyboard-response,86,2.0.0,223878,5ffb8c5b60571908f3ac19fa,4,45,null,,,,,,,,,<p style='font-size: 30px;'><strong>Okay</strong></p>,null,neutral_feedback,0,test,40,,,,,,,,,,,,,,,,,,,,,,,
,,,,,,,,,,,html-button-response,87,2.0.0,225381,5ffb8c5b60571908f3ac19fa,4,45,1499,,,,,,,,,"<img src= ""rock_img/I_Pumice_15.jpg"" style=""width:8cm; height:7.86cm;""><p>What type of rock is this?</p>",3,class_response,0,test,41,Gabbro,Pumice,15,FALSE,4,8,,,,,,,,,,,,,,,,,
,,,,,,,,,,,html-keyboard-response,88,2.0.0,225889,5ffb8c5b60571908f3ac19fa,4,45,null,,,,,,,,,<p style='font-size: 30px;'><strong>Okay</strong></p>,null,neutral_feedback,0,test,41,,,,,,,,,,,,,,,,,,,,,,,
,,,,,,,,,,,html-button-response,89,2.0.0,227243,5ffb8c5b60571908f3ac19fa,4,45,1350,,,,,,,,,"<img src= ""rock_img/I_Diorite_02.jpg"" style=""width:8cm; height:6.27cm;""><p>What type of rock is this?</p>",2,class_response,0,test,42,Diorite,Diorite,2,TRUE,3,3,,,,,,,,,,,,,,,,,
,,,,,,,,,,,html-keyboard-response,90,2.0.0,227755,5ffb8c5b60571908f3ac19fa,4,45,null,,,,,,,,,<p style='font-size: 30px;'><strong>Okay</strong></p>,null,neutral_feedback,0,test,42,,,,,,,,,,,,,,,,,,,,,,,
,,,,,,,,,,,html-button-response,91,2.0.0,229084,5ffb8c5b60571908f3ac19fa,4,45,1325,,,,,,,,,"<img src= ""rock_img/I_Andesite_10.jpg"" style=""width:8cm; height:4.16cm;""><p>What type of rock is this?</p>",7,class_response,0,test,43,Pumice,Andesite,10,FALSE,8,1,,,,,,,,,,,,,,,,,
,,,,,,,,,,,html-keyboard-response,92,2.0.0,229600,5ffb8c5b60571908f3ac19fa,4,45,null,,,,,,,,,<p style='font-size: 30px;'><strong>Okay</strong></p>,null,neutral_feedback,0,test,43,,,,,,,,,,,,,,,,,,,,,,,
,,,,,,,,,,,html-button-response,93,2.0.0,231336,5ffb8c5b60571908f3ac19fa,4,45,1733,,,,,,,,,"<img src= ""rock_img/I_Peridotite_12.jpg"" style=""width:8cm; height:4.54cm;""><p>What type of rock is this?</p>",1,class_response,0,test,44,Basalt,Peridotite,12,FALSE,2,7,,,,,,,,,,,,,,,,,
,,,,,,,,,,,html-keyboard-response,94,2.0.0,231844,5ffb8c5b60571908f3ac19fa,4,45,null,,,,,,,,,<p style='font-size: 30px;'><strong>Okay</strong></p>,null,neutral_feedback,0,test,44,,,,,,,,,,,,,,,,,,,,,,,
,,,,,,,,,,,html-button-response,95,2.0.0,233886,5ffb8c5b60571908f3ac19fa,4,45,2039,,,,,,,,,"<img src= ""rock_img/I_Obsidian_08.jpg"" style=""width:8cm; height:7.39cm;""><p>What type of rock is this?</p>",4,class_response,0,test,45,Obsidian,Obsidian,8,TRUE,5,5,,,,,,,,,,,,,,,,,
,,,,,,,,,,,html-keyboard-response,96,2.0.0,234395,5ffb8c5b60571908f3ac19fa,4,45,null,,,,,,,,,<p style='font-size: 30px;'><strong>Okay</strong></p>,null,neutral_feedback,0,test,45,,,,,,,,,,,,,,,,,,,,,,,
,,,,,,,,,,,html-button-response,97,2.0.0,254566,5ffb8c5b60571908f3ac19fa,4,45,20167,,,,,,,,,"<img src= ""rock_img/I_Basalt_12.jpg"" style=""width:8cm; height:6.010000000000001cm;""><p>What type of rock is this?</p>",0,class_response,0,test,46,Andesite,Basalt,12,FALSE,1,2,,,,,,,,,,,,,,,,,
,,,,,,,,,,,html-keyboard-response,98,2.0.0,255074,5ffb8c5b60571908f3ac19fa,4,45,null,,,,,,,,,<p style='font-size: 30px;'><strong>Okay</strong></p>,null,neutral_feedback,0,test,46,,,,,,,,,,,,,,,,,,,,,,,
,,,,,,,,,,,html-button-response,99,2.0.0,303949,5ffb8c5b60571908f3ac19fa,4,45,48871,,,,,,,,,"<img src= ""rock_img/I_Peridotite_05.jpg"" style=""width:8cm; height:7.1499999999999995cm;""><p>What type of rock is this?</p>",6,class_response,0,test,47,Peridotite,Peridotite,5,TRUE,7,7,,,,,,,,,,,,,,,,,
,,,,,,,,,,,html-keyboard-response,100,2.0.0,304457,5ffb8c5b60571908f3ac19fa,4,45,null,,,,,,,,,<p style='font-size: 30px;'><strong>Okay</strong></p>,null,neutral_feedback,0,test,47,,,,,,,,,,,,,,,,,,,,,,,
,,,,,,,,,,,html-button-response,101,2.0.0,317436,5ffb8c5b60571908f3ac19fa,4,45,12975,,,,,,,,,"<img src= ""rock_img/I_Diorite_12.jpg"" style=""width:8cm; height:4.88cm;""><p>What type of rock is this?</p>",3,class_response,0,test,48,Gabbro,Diorite,12,FALSE,4,3,,,,,,,,,,,,,,,,,
,,,,,,,,,,,html-keyboard-response,102,2.0.0,317945,5ffb8c5b60571908f3ac19fa,4,45,null,,,,,,,,,<p style='font-size: 30px;'><strong>Okay</strong></p>,null,neutral_feedback,0,test,48,,,,,,,,,,,,,,,,,,,,,,,
,,,,,,,,,,,instructions,103,2.0.0,340930,5ffb8c5b60571908f3ac19fa,4,45,22936,,,,,,,,"[{""page_index"":0,""viewing_time"":16612},{""page_index"":1,""viewing_time"":6324}]",,,,,,,,,,,,,,,,,,,,,,,,,,,,,
,,,,,,,,,,,html-button-response,104,2.0.0,343327,5ffb8c5b60571908f3ac19fa,4,45,2394,,,,,,,,,,0,start_train,,,,,,,,,,,,,,,,,,,,,,,,,,
,,,,,,,,,,,html-button-response,106,2.0.0,375478,5ffb8c5b60571908f3ac19fa,4,45,32146,,,,,,,,,"<img src= ""rock_img/I_Peridotite_13.jpg"" style=""width:8cm; height:7.58cm;""><p>What type of rock is this?</p>",2,class_response,1,train,1,Diorite,Peridotite,13,FALSE,3,7,,,,,,,,,,,,,,,,,
,,,,,,,,,,,html-button-response,107,2.0.0,384696,5ffb8c5b60571908f3ac19fa,4,45,9213,,,,,,,,,"<img src= rock_img/I_Peridotite_13.jpg style=""width:8cm; height:7.58cm;""><p style='font-size: 30px; color: red;'><strong>Incorrect!</strong></p><p style='font-size: 30px;'><strong>This rock is peridotite</strong></p>",0,corr_feedback,1,train,1,,,,,,,,,,,,,,,,,,,,,,,
,,,,,,,,,,,html-button-response,108,2.0.0,395099,5ffb8c5b60571908f3ac19fa,4,45,10399,,,,,,,,,"<img src= ""rock_img/I_Peridotite_04.jpg"" style=""width:8cm; height:6.680000000000001cm;""><p>What type of rock is this?</p>",2,class_response,1,train,2,Diorite,Peridotite,4,FALSE,3,7,,,,,,,,,,,,,,,,,
,,,,,,,,,,,html-button-response,109,2.0.0,399360,5ffb8c5b60571908f3ac19fa,4,45,4259,,,,,,,,,"<img src= rock_img/I_Peridotite_04.jpg style=""width:8cm; height:6.680000000000001cm;""><p style='font-size: 30px; color: red;'><strong>Incorrect!</strong></p><p style='font-size: 30px;'><strong>This rock is peridotite</strong></p>",0,corr_feedback,1,train,2,,,,,,,,,,,,,,,,,,,,,,,
,,,,,,,,,,,html-button-response,110,2.0.0,404294,5ffb8c5b60571908f3ac19fa,4,45,4930,,,,,,,,,"<img src= ""rock_img/I_Gabbro_12.jpg"" style=""width:8cm; height:7.800000000000001cm;""><p>What type of rock is this?</p>",0,class_response,1,train,3,Andesite,Gabbro,12,FALSE,1,4,,,,,,,,,,,,,,,,,
,,,,,,,,,,,html-button-response,111,2.0.0,409801,5ffb8c5b60571908f3ac19fa,4,45,5504,,,,,,,,,"<img src= rock_img/I_Gabbro_12.jpg style=""width:8cm; height:7.800000000000001cm;""><p style='font-size: 30px; color: red;'><strong>Incorrect!</strong></p><p style='font-size: 30px;'><strong>This rock is gabbro</strong></p>",0,corr_feedback,1,train,3,,,,,,,,,,,,,,,,,,,,,,,
,,,,,,,,,,,html-button-response,112,2.0.0,424236,5ffb8c5b60571908f3ac19fa,4,45,14431,,,,,,,,,"<img src= ""rock_img/I_Diorite_11.jpg"" style=""width:8cm; height:7.11cm;""><p>What type of rock is this?</p>",3,class_response,1,train,4,Gabbro,Diorite,11,FALSE,4,3,,,,,,,,,,,,,,,,,
,,,,,,,,,,,html-button-response,113,2.0.0,429243,5ffb8c5b60571908f3ac19fa,4,45,5003,,,,,,,,,"<img src= rock_img/I_Diorite_11.jpg style=""width:8cm; height:7.11cm;""><p style='font-size: 30px; color: red;'><strong>Incorrect!</strong></p><p style='font-size: 30px;'><strong>This rock is diorite</strong></p>",0,corr_feedback,1,train,4,,,,,,,,,,,,,,,,,,,,,,,
,,,,,,,,,,,html-button-response,114,2.0.0,442964,5ffb8c5b60571908f3ac19fa,4,45,13716,,,,,,,,,"<img src= ""rock_img/I_Basalt_09.jpg"" style=""width:8cm; height:6.2cm;""><p>What type of rock is this?</p>",1,class_response,1,train,5,Basalt,Basalt,9,TRUE,2,2,,,,,,,,,,,,,,,,,
,,,,,,,,,,,html-button-response,115,2.0.0,448141,5ffb8c5b60571908f3ac19fa,4,45,5174,,,,,,,,,"<img src= rock_img/I_Basalt_09.jpg style=""width:8cm; height:6.2cm;""><p style='font-size: 30px; color: green;'><strong>Correct!</strong></p><p style='font-size: 30px;'><strong>This rock is basalt</strong></p>",0,corr_feedback,1,train,5,,,,,,,,,,,,,,,,,,,,,,,
,,,,,,,,,,,html-button-response,116,2.0.0,455003,5ffb8c5b60571908f3ac19fa,4,45,6858,,,,,,,,,"<img src= ""rock_img/I_Pegmatite_11.jpg"" style=""width:8cm; height:8.14cm;""><p>What type of rock is this?</p>",0,class_response,1,train,6,Andesite,Pegmatite,11,FALSE,1,6,,,,,,,,,,,,,,,,,
,,,,,,,,,,,html-button-response,117,2.0.0,458805,5ffb8c5b60571908f3ac19fa,4,45,3800,,,,,,,,,"<img src= rock_img/I_Pegmatite_11.jpg style=""width:8cm; height:8.14cm;""><p style='font-size: 30px; color: red;'><strong>Incorrect!</strong></p><p style='font-size: 30px;'><strong>This rock is pegmatite</strong></p>",0,corr_feedback,1,train,6,,,,,,,,,,,,,,,,,,,,,,,
,,,,,,,,,,,html-button-response,118,2.0.0,474125,5ffb8c5b60571908f3ac19fa,4,45,15315,,,,,,,,,"<img src= ""rock_img/I_Pumice_03.jpg"" style=""width:8cm; height:6.64cm;""><p>What type of rock is this?</p>",7,class_response,1,train,7,Pumice,Pumice,3,TRUE,8,8,,,,,,,,,,,,,,,,,
,,,,,,,,,,,html-button-response,119,2.0.0,476557,5ffb8c5b60571908f3ac19fa,4,45,2429,,,,,,,,,"<img src= rock_img/I_Pumice_03.jpg style=""width:8cm; height:6.64cm;""><p style='font-size: 30px; color: green;'><strong>Correct!</strong></p><p style='font-size: 30px;'><strong>This rock is pumice</strong></p>",0,corr_feedback,1,train,7,,,,,,,,,,,,,,,,,,,,,,,
,,,,,,,,,,,html-button-response,120,2.0.0,490605,5ffb8c5b60571908f3ac19fa,4,45,14045,,,,,,,,,"<img src= ""rock_img/I_Diorite_14.jpg"" style=""width:8cm; height:5.71cm;""><p>What type of rock is this?</p>",2,class_response,1,train,8,Diorite,Diorite,14,TRUE,3,3,,,,,,,,,,,,,,,,,
,,,,,,,,,,,html-button-response,121,2.0.0,492650,5ffb8c5b60571908f3ac19fa,4,45,2041,,,,,,,,,"<img src= rock_img/I_Diorite_14.jpg style=""width:8cm; height:5.71cm;""><p style='font-size: 30px; color: green;'><strong>Correct!</strong></p><p style='font-size: 30px;'><strong>This rock is diorite</strong></p>",0,corr_feedback,1,train,8,,,,,,,,,,,,,,,,,,,,,,,
,,,,,,,,,,,html-button-response,122,2.0.0,496864,5ffb8c5b60571908f3ac19fa,4,45,4210,,,,,,,,,"<img src= ""rock_img/I_Andesite_11.jpg"" style=""width:8cm; height:4.92cm;""><p>What type of rock is this?</p>",1,class_response,1,train,9,Basalt,Andesite,11,FALSE,2,1,,,,,,,,,,,,,,,,,
,,,,,,,,,,,html-button-response,123,2.0.0,503082,5ffb8c5b60571908f3ac19fa,4,45,6215,,,,,,,,,"<img src= rock_img/I_Andesite_11.jpg style=""width:8cm; height:4.92cm;""><p style='font-size: 30px; color: red;'><strong>Incorrect!</strong></p><p style='font-size: 30px;'><strong>This rock is andesite</strong></p>",0,corr_feedback,1,train,9,,,,,,,,,,,,,,,,,,,,,,,
,,,,,,,,,,,html-button-response,124,2.0.0,506171,5ffb8c5b60571908f3ac19fa,4,45,3083,,,,,,,,,"<img src= ""rock_img/I_Andesite_14.jpg"" style=""width:8cm; height:5.449999999999999cm;""><p>What type of rock is this?</p>",6,class_response,1,train,10,Peridotite,Andesite,14,FALSE,7,1,,,,,,,,,,,,,,,,,
,,,,,,,,,,,html-button-response,125,2.0.0,510084,5ffb8c5b60571908f3ac19fa,4,45,3910,,,,,,,,,"<img src= rock_img/I_Andesite_14.jpg style=""width:8cm; height:5.449999999999999cm;""><p style='font-size: 30px; color: red;'><strong>Incorrect!</strong></p><p style='font-size: 30px;'><strong>This rock is andesite</strong></p>",0,corr_feedback,1,train,10,,,,,,,,,,,,,,,,,,,,,,,
,,,,,,,,,,,html-button-response,126,2.0.0,511885,5ffb8c5b60571908f3ac19fa,4,45,1796,,,,,,,,,"<img src= ""rock_img/I_Obsidian_10.jpg"" style=""width:8cm; height:6.260000000000001cm;""><p>What type of rock is this?</p>",4,class_response,1,train,11,Obsidian,Obsidian,10,TRUE,5,5,,,,,,,,,,,,,,,,,
,,,,,,,,,,,html-button-response,127,2.0.0,515322,5ffb8c5b60571908f3ac19fa,4,45,3433,,,,,,,,,"<img src= rock_img/I_Obsidian_10.jpg style=""width:8cm; height:6.260000000000001cm;""><p style='font-size: 30px; color: green;'><strong>Correct!</strong></p><p style='font-size: 30px;'><strong>This rock is obsidian</strong></p>",0,corr_feedback,1,train,11,,,,,,,,,,,,,,,,,,,,,,,
,,,,,,,,,,,html-button-response,128,2.0.0,554855,5ffb8c5b60571908f3ac19fa,4,45,39530,,,,,,,,,"<img src= ""rock_img/I_Pumice_08.jpg"" style=""width:8cm; height:6.67cm;""><p>What type of rock is this?</p>",7,class_response,1,train,12,Pumice,Pumice,8,TRUE,8,8,,,,,,,,,,,,,,,,,
,,,,,,,,,,,html-button-response,129,2.0.0,557043,5ffb8c5b60571908f3ac19fa,4,45,2185,,,,,,,,,"<img src= rock_img/I_Pumice_08.jpg style=""width:8cm; height:6.67cm;""><p style='font-size: 30px; color: green;'><strong>Correct!</strong></p><p style='font-size: 30px;'><strong>This rock is pumice</strong></p>",0,corr_feedback,1,train,12,,,,,,,,,,,,,,,,,,,,,,,
,,,,,,,,,,,instructions,130,2.0.0,634801,5ffb8c5b60571908f3ac19fa,4,45,77756,,,,,,,,"[{""page_index"":0,""viewing_time"":27059},{""page_index"":1,""viewing_time"":17138},{""page_index"":2,""viewing_time"":24631},{""page_index"":3,""viewing_time"":8929}]",,,,,,,,,,,,,,,,,,,,,,,,,,,,,
,,,,,,,,,,,html-button-response,131,2.0.0,636966,5ffb8c5b60571908f3ac19fa,4,45,2162,,,,,,,,,,0,start_train,,,,,,,,,,,,,,,,,,,,,,,,,,
,,,,,,,,,,,html-button-response,132,2.0.0,660077,5ffb8c5b60571908f3ac19fa,4,45,,,,,,,,,,,,cat_selection,1,train,1,,,,,,,12908.1,10200.5,6,1,Pegmatite,Andesite,,,,,,,,,,,
,,,,,,,,,,,paired-cat-display,133,1.0.0,859476,5ffb8c5b60571908f3ac19fa,4,45,,,,,,,,,,,,paired_cat_display,1,train,1,,,,,,,,,,,,,"Has more distinct colors, smooth stone surfaces embedded in rough, hard looking rock. Has black smooth stone scattered throughout rock. Has large mineral grains.","More of a neutral, gray tone. Has specks or dots scattered throughout that are mostly white. Has small mineral grains/specks. ",13981.8,185405.5,,,,,,,
,,,,,,,,,,,html-button-response,134,2.0.0,892044,5ffb8c5b60571908f3ac19fa,4,45,,,,,,,,,,,,cat_selection,1,train,2,,,,,,,23015.9,9548.6,7,3,Peridotite,Diorite,,,,,,,,,,,
,,,,,,,,,,,paired-cat-display,135,1.0.0,977695,5ffb8c5b60571908f3ac19fa,4,45,,,,,,,,,,,,paired_cat_display,1,train,2,,,,,,,,,,,,,,,6313.6,79330,Has color mineral clustered closely together. Looks rough and phosphorus in texture.,"Has black and white dotted patterns, looking like mold. Looks to have a smoother surface. ",,,,,
,,,,,,,,,,,html-button-response,136,2.0.0,1003821,5ffb8c5b60571908f3ac19fa,4,45,,,,,,,,,,,,cat_selection,1,train,3,,,,,,,24263.2,1859.9,4,2,Gabbro,Basalt,,,,,,,,,,,
,,,,,,,,,,,paired-cat-display,137,1.0.0,1108939,5ffb8c5b60571908f3ac19fa,4,45,,,,,,,,,,,,paired_cat_display,1,train,3,,,,,,,,,,,,,,,6172.6,98939.6,,,Has little imperfections in color. More coarse looking. ,More monotoned and muted in color. smoother texture.,,,
,,,,,,,,,,,instructions,138,2.0.0,1136658,5ffb8c5b60571908f3ac19fa,4,45,27714,,,,,,,,"[{""page_index"":0,""viewing_time"":8426},{""page_index"":1,""viewing_time"":19287}]",,,,,,,,,,,,,,,,,,,,,,,,,,,,,
,,,,,,,,,,,html-button-response,139,2.0.0,1139083,5ffb8c5b60571908f3ac19fa,4,45,2422,,,,,,,,,,0,start_test,,,,,,,,,,,,,,,,,,,,,,,,,,
,,,,,,,,,,,html-button-response,140,2.0.0,1204301,5ffb8c5b60571908f3ac19fa,4,45,65214,,,,,,,,,"<img src= ""rock_img/I_Andesite_05.jpg"" style=""width:8cm; height:4.12cm;""><p>What type of rock is this?</p>",0,class_response,1,test,1,Andesite,Andesite,5,TRUE,1,1,,,,,,,,,,,,,,,,,
,,,,,,,,,,,html-keyboard-response,141,2.0.0,1204806,5ffb8c5b60571908f3ac19fa,4,45,null,,,,,,,,,<p style='font-size: 30px;'><strong>Okay</strong></p>,null,neutral_feedback,1,test,1,,,,,,,,,,,,,,,,,,,,,,,
,,,,,,,,,,,html-button-response,142,2.0.0,1254765,5ffb8c5b60571908f3ac19fa,4,45,49956,,,,,,,,,"<img src= ""rock_img/I_Diorite_15.jpg"" style=""width:8cm; height:5.54cm;""><p>What type of rock is this?</p>",7,class_response,1,test,2,Pumice,Diorite,15,FALSE,8,3,,,,,,,,,,,,,,,,,
,,,,,,,,,,,html-keyboard-response,143,2.0.0,1255271,5ffb8c5b60571908f3ac19fa,4,45,null,,,,,,,,,<p style='font-size: 30px;'><strong>Okay</strong></p>,null,neutral_feedback,1,test,2,,,,,,,,,,,,,,,,,,,,,,,
,,,,,,,,,,,html-button-response,144,2.0.0,1287689,5ffb8c5b60571908f3ac19fa,4,45,32416,,,,,,,,,"<img src= ""rock_img/I_Gabbro_11.jpg"" style=""width:8cm; height:6.2cm;""><p>What type of rock is this?</p>",1,class_response,1,test,3,Basalt,Gabbro,11,FALSE,2,4,,,,,,,,,,,,,,,,,
,,,,,,,,,,,html-keyboard-response,145,2.0.0,1288197,5ffb8c5b60571908f3ac19fa,4,45,null,,,,,,,,,<p style='font-size: 30px;'><strong>Okay</strong></p>,null,neutral_feedback,1,test,3,,,,,,,,,,,,,,,,,,,,,,,
,,,,,,,,,,,html-button-response,146,2.0.0,1350007,5ffb8c5b60571908f3ac19fa,4,45,61804,,,,,,,,,"<img src= ""rock_img/I_Andesite_02.jpg"" style=""width:8cm; height:8.5cm;""><p>What type of rock is this?</p>",5,class_response,1,test,4,Pegmatite,Andesite,2,FALSE,6,1,,,,,,,,,,,,,,,,,
,,,,,,,,,,,html-keyboard-response,147,2.0.0,1350516,5ffb8c5b60571908f3ac19fa,4,45,null,,,,,,,,,<p style='font-size: 30px;'><strong>Okay</strong></p>,null,neutral_feedback,1,test,4,,,,,,,,,,,,,,,,,,,,,,,
,,,,,,,,,,,html-button-response,148,2.0.0,1369362,5ffb8c5b60571908f3ac19fa,4,45,18843,,,,,,,,,"<img src= ""rock_img/I_Diorite_10.jpg"" style=""width:8cm; height:5.949999999999999cm;""><p>What type of rock is this?</p>",3,class_response,1,test,5,Gabbro,Diorite,10,FALSE,4,3,,,,,,,,,,,,,,,,,
,,,,,,,,,,,html-keyboard-response,149,2.0.0,1369872,5ffb8c5b60571908f3ac19fa,4,45,null,,,,,,,,,<p style='font-size: 30px;'><strong>Okay</strong></p>,null,neutral_feedback,1,test,5,,,,,,,,,,,,,,,,,,,,,,,
,,,,,,,,,,,html-button-response,150,2.0.0,1378292,5ffb8c5b60571908f3ac19fa,4,45,8416,,,,,,,,,"<img src= ""rock_img/I_Andesite_03.jpg"" style=""width:8cm; height:5.73cm;""><p>What type of rock is this?</p>",0,class_response,1,test,6,Andesite,Andesite,3,TRUE,1,1,,,,,,,,,,,,,,,,,
,,,,,,,,,,,html-keyboard-response,151,2.0.0,1378795,5ffb8c5b60571908f3ac19fa,4,45,null,,,,,,,,,<p style='font-size: 30px;'><strong>Okay</strong></p>,null,neutral_feedback,1,test,6,,,,,,,,,,,,,,,,,,,,,,,
,,,,,,,,,,,html-button-response,152,2.0.0,1380526,5ffb8c5b60571908f3ac19fa,4,45,1728,,,,,,,,,"<img src= ""rock_img/I_Pumice_09.jpg"" style=""width:8cm; height:6.44cm;""><p>What type of rock is this?</p>",7,class_response,1,test,7,Pumice,Pumice,9,TRUE,8,8,,,,,,,,,,,,,,,,,
,,,,,,,,,,,html-keyboard-response,153,2.0.0,1381029,5ffb8c5b60571908f3ac19fa,4,45,null,,,,,,,,,<p style='font-size: 30px;'><strong>Okay</strong></p>,null,neutral_feedback,1,test,7,,,,,,,,,,,,,,,,,,,,,,,
,,,,,,,,,,,html-button-response,154,2.0.0,1394642,5ffb8c5b60571908f3ac19fa,4,45,13610,,,,,,,,,"<img src= ""rock_img/I_Peridotite_14.jpg"" style=""width:8cm; height:5.3cm;""><p>What type of rock is this?</p>",6,class_response,1,test,8,Peridotite,Peridotite,14,TRUE,7,7,,,,,,,,,,,,,,,,,
,,,,,,,,,,,html-keyboard-response,155,2.0.0,1395147,5ffb8c5b60571908f3ac19fa,4,45,null,,,,,,,,,<p style='font-size: 30px;'><strong>Okay</strong></p>,null,neutral_feedback,1,test,8,,,,,,,,,,,,,,,,,,,,,,,
,,,,,,,,,,,html-button-response,156,2.0.0,1403850,5ffb8c5b60571908f3ac19fa,4,45,8699,,,,,,,,,"<img src= ""rock_img/I_Pegmatite_15.jpg"" style=""width:8cm; height:6cm;""><p>What type of rock is this?</p>",5,class_response,1,test,9,Pegmatite,Pegmatite,15,TRUE,6,6,,,,,,,,,,,,,,,,,
,,,,,,,,,,,html-keyboard-response,157,2.0.0,1404353,5ffb8c5b60571908f3ac19fa,4,45,null,,,,,,,,,<p style='font-size: 30px;'><strong>Okay</strong></p>,null,neutral_feedback,1,test,9,,,,,,,,,,,,,,,,,,,,,,,
,,,,,,,,,,,html-button-response,158,2.0.0,1411498,5ffb8c5b60571908f3ac19fa,4,45,7142,,,,,,,,,"<img src= ""rock_img/I_Basalt_06.jpg"" style=""width:8cm; height:7.06cm;""><p>What type of rock is this?</p>",1,class_response,1,test,10,Basalt,Basalt,6,TRUE,2,2,,,,,,,,,,,,,,,,,
,,,,,,,,,,,html-keyboard-response,159,2.0.0,1412005,5ffb8c5b60571908f3ac19fa,4,45,null,,,,,,,,,<p style='font-size: 30px;'><strong>Okay</strong></p>,null,neutral_feedback,1,test,10,,,,,,,,,,,,,,,,,,,,,,,
,,,,,,,,,,,html-button-response,160,2.0.0,1418160,5ffb8c5b60571908f3ac19fa,4,45,6153,,,,,,,,,"<img src= ""rock_img/I_Basalt_01.jpg"" style=""width:8cm; height:7.880000000000001cm;""><p>What type of rock is this?</p>",1,class_response,1,test,11,Basalt,Basalt,1,TRUE,2,2,,,,,,,,,,,,,,,,,
,,,,,,,,,,,html-keyboard-response,161,2.0.0,1418664,5ffb8c5b60571908f3ac19fa,4,45,null,,,,,,,,,<p style='font-size: 30px;'><strong>Okay</strong></p>,null,neutral_feedback,1,test,11,,,,,,,,,,,,,,,,,,,,,,,
,,,,,,,,,,,html-button-response,162,2.0.0,1446553,5ffb8c5b60571908f3ac19fa,4,45,27884,,,,,,,,,"<img src= ""rock_img/I_Gabbro_16.jpg"" style=""width:8cm; height:6.44cm;""><p>What type of rock is this?</p>",3,class_response,1,test,12,Gabbro,Gabbro,16,TRUE,4,4,,,,,,,,,,,,,,,,,
,,,,,,,,,,,html-keyboard-response,163,2.0.0,1447061,5ffb8c5b60571908f3ac19fa,4,45,null,,,,,,,,,<p style='font-size: 30px;'><strong>Okay</strong></p>,null,neutral_feedback,1,test,12,,,,,,,,,,,,,,,,,,,,,,,
,,,,,,,,,,,html-button-response,164,2.0.0,1454978,5ffb8c5b60571908f3ac19fa,4,45,7912,,,,,,,,,"<img src= ""rock_img/I_Gabbro_14.jpg"" style=""width:8cm; height:8.48cm;""><p>What type of rock is this?</p>",7,class_response,1,test,13,Pumice,Gabbro,14,FALSE,8,4,,,,,,,,,,,,,,,,,
,,,,,,,,,,,html-keyboard-response,165,2.0.0,1455480,5ffb8c5b60571908f3ac19fa,4,45,null,,,,,,,,,<p style='font-size: 30px;'><strong>Okay</strong></p>,null,neutral_feedback,1,test,13,,,,,,,,,,,,,,,,,,,,,,,
,,,,,,,,,,,html-button-response,166,2.0.0,1457789,5ffb8c5b60571908f3ac19fa,4,45,2307,,,,,,,,,"<img src= ""rock_img/I_Pegmatite_05.jpg"" style=""width:8cm; height:7.300000000000001cm;""><p>What type of rock is this?</p>",5,class_response,1,test,14,Pegmatite,Pegmatite,5,TRUE,6,6,,,,,,,,,,,,,,,,,
,,,,,,,,,,,html-keyboard-response,167,2.0.0,1458301,5ffb8c5b60571908f3ac19fa,4,45,null,,,,,,,,,<p style='font-size: 30px;'><strong>Okay</strong></p>,null,neutral_feedback,1,test,14,,,,,,,,,,,,,,,,,,,,,,,
,,,,,,,,,,,html-button-response,168,2.0.0,1460469,5ffb8c5b60571908f3ac19fa,4,45,2166,,,,,,,,,"<img src= ""rock_img/I_Basalt_04.jpg"" style=""width:8cm; height:7.53cm;""><p>What type of rock is this?</p>",1,class_response,1,test,15,Basalt,Basalt,4,TRUE,2,2,,,,,,,,,,,,,,,,,
,,,,,,,,,,,html-keyboard-response,169,2.0.0,1460978,5ffb8c5b60571908f3ac19fa,4,45,null,,,,,,,,,<p style='font-size: 30px;'><strong>Okay</strong></p>,null,neutral_feedback,1,test,15,,,,,,,,,,,,,,,,,,,,,,,
,,,,,,,,,,,html-button-response,170,2.0.0,1463119,5ffb8c5b60571908f3ac19fa,4,45,2138,,,,,,,,,"<img src= ""rock_img/I_Andesite_09.jpg"" style=""width:8cm; height:6cm;""><p>What type of rock is this?</p>",0,class_response,1,test,16,Andesite,Andesite,9,TRUE,1,1,,,,,,,,,,,,,,,,,
,,,,,,,,,,,html-keyboard-response,171,2.0.0,1463622,5ffb8c5b60571908f3ac19fa,4,45,null,,,,,,,,,<p style='font-size: 30px;'><strong>Okay</strong></p>,null,neutral_feedback,1,test,16,,,,,,,,,,,,,,,,,,,,,,,
,,,,,,,,,,,html-button-response,172,2.0.0,1465269,5ffb8c5b60571908f3ac19fa,4,45,1644,,,,,,,,,"<img src= ""rock_img/I_Obsidian_08.jpg"" style=""width:8cm; height:7.39cm;""><p>What type of rock is this?</p>",4,class_response,1,test,17,Obsidian,Obsidian,8,TRUE,5,5,,,,,,,,,,,,,,,,,
,,,,,,,,,,,html-keyboard-response,173,2.0.0,1465777,5ffb8c5b60571908f3ac19fa,4,45,null,,,,,,,,,<p style='font-size: 30px;'><strong>Okay</strong></p>,null,neutral_feedback,1,test,17,,,,,,,,,,,,,,,,,,,,,,,
,,,,,,,,,,,html-button-response,174,2.0.0,1474295,5ffb8c5b60571908f3ac19fa,4,45,8514,,,,,,,,,"<img src= ""rock_img/I_Basalt_12.jpg"" style=""width:8cm; height:6.010000000000001cm;""><p>What type of rock is this?</p>",7,class_response,1,test,18,Pumice,Basalt,12,FALSE,8,2,,,,,,,,,,,,,,,,,
,,,,,,,,,,,html-keyboard-response,175,2.0.0,1474801,5ffb8c5b60571908f3ac19fa,4,45,null,,,,,,,,,<p style='font-size: 30px;'><strong>Okay</strong></p>,null,neutral_feedback,1,test,18,,,,,,,,,,,,,,,,,,,,,,,
,,,,,,,,,,,html-button-response,176,2.0.0,1477275,5ffb8c5b60571908f3ac19fa,4,45,2471,,,,,,,,,"<img src= ""rock_img/I_Peridotite_05.jpg"" style=""width:8cm; height:7.1499999999999995cm;""><p>What type of rock is this?</p>",6,class_response,1,test,19,Peridotite,Peridotite,5,TRUE,7,7,,,,,,,,,,,,,,,,,
,,,,,,,,,,,html-keyboard-response,177,2.0.0,1477788,5ffb8c5b60571908f3ac19fa,4,45,null,,,,,,,,,<p style='font-size: 30px;'><strong>Okay</strong></p>,null,neutral_feedback,1,test,19,,,,,,,,,,,,,,,,,,,,,,,
,,,,,,,,,,,html-button-response,178,2.0.0,1481270,5ffb8c5b60571908f3ac19fa,4,45,3479,,,,,,,,,"<img src= ""rock_img/I_Pumice_13.jpg"" style=""width:8cm; height:8.200000000000001cm;""><p>What type of rock is this?</p>",7,class_response,1,test,20,Pumice,Pumice,13,TRUE,8,8,,,,,,,,,,,,,,,,,
,,,,,,,,,,,html-keyboard-response,179,2.0.0,1481774,5ffb8c5b60571908f3ac19fa,4,45,null,,,,,,,,,<p style='font-size: 30px;'><strong>Okay</strong></p>,null,neutral_feedback,1,test,20,,,,,,,,,,,,,,,,,,,,,,,
,,,,,,,,,,,html-button-response,180,2.0.0,1483831,5ffb8c5b60571908f3ac19fa,4,45,2054,,,,,,,,,"<img src= ""rock_img/I_Peridotite_16.jpg"" style=""width:8cm; height:6.989999999999999cm;""><p>What type of rock is this?</p>",6,class_response,1,test,21,Peridotite,Peridotite,16,TRUE,7,7,,,,,,,,,,,,,,,,,
,,,,,,,,,,,html-keyboard-response,181,2.0.0,1484335,5ffb8c5b60571908f3ac19fa,4,45,null,,,,,,,,,<p style='font-size: 30px;'><strong>Okay</strong></p>,null,neutral_feedback,1,test,21,,,,,,,,,,,,,,,,,,,,,,,
,,,,,,,,,,,html-button-response,182,2.0.0,1502787,5ffb8c5b60571908f3ac19fa,4,45,18448,,,,,,,,,"<img src= ""rock_img/I_Pegmatite_06.jpg"" style=""width:8cm; height:5.17cm;""><p>What type of rock is this?</p>",5,class_response,1,test,22,Pegmatite,Pegmatite,6,TRUE,6,6,,,,,,,,,,,,,,,,,
,,,,,,,,,,,html-keyboard-response,183,2.0.0,1503297,5ffb8c5b60571908f3ac19fa,4,45,null,,,,,,,,,<p style='font-size: 30px;'><strong>Okay</strong></p>,null,neutral_feedback,1,test,22,,,,,,,,,,,,,,,,,,,,,,,
,,,,,,,,,,,html-button-response,184,2.0.0,1505600,5ffb8c5b60571908f3ac19fa,4,45,2299,,,,,,,,,"<img src= ""rock_img/I_Pegmatite_13.jpg"" style=""width:8cm; height:4.95cm;""><p>What type of rock is this?</p>",5,class_response,1,test,23,Pegmatite,Pegmatite,13,TRUE,6,6,,,,,,,,,,,,,,,,,
,,,,,,,,,,,html-keyboard-response,185,2.0.0,1506104,5ffb8c5b60571908f3ac19fa,4,45,null,,,,,,,,,<p style='font-size: 30px;'><strong>Okay</strong></p>,null,neutral_feedback,1,test,23,,,,,,,,,,,,,,,,,,,,,,,
,,,,,,,,,,,html-button-response,186,2.0.0,1508994,5ffb8c5b60571908f3ac19fa,4,45,2887,,,,,,,,,"<img src= ""rock_img/I_Peridotite_06.jpg"" style=""width:8cm; height:7.53cm;""><p>What type of rock is this?</p>",6,class_response,1,test,24,Peridotite,Peridotite,6,TRUE,7,7,,,,,,,,,,,,,,,,,
,,,,,,,,,,,html-keyboard-response,187,2.0.0,1509502,5ffb8c5b60571908f3ac19fa,4,45,null,,,,,,,,,<p style='font-size: 30px;'><strong>Okay</strong></p>,null,neutral_feedback,1,test,24,,,,,,,,,,,,,,,,,,,,,,,
,,,,,,,,,,,html-button-response,188,2.0.0,1511582,5ffb8c5b60571908f3ac19fa,4,45,2076,,,,,,,,,"<img src= ""rock_img/I_Pegmatite_09.jpg"" style=""width:8cm; height:4.03cm;""><p>What type of rock is this?</p>",5,class_response,1,test,25,Pegmatite,Pegmatite,9,TRUE,6,6,,,,,,,,,,,,,,,,,
,,,,,,,,,,,html-keyboard-response,189,2.0.0,1512086,5ffb8c5b60571908f3ac19fa,4,45,null,,,,,,,,,<p style='font-size: 30px;'><strong>Okay</strong></p>,null,neutral_feedback,1,test,25,,,,,,,,,,,,,,,,,,,,,,,
,,,,,,,,,,,html-button-response,190,2.0.0,1513741,5ffb8c5b60571908f3ac19fa,4,45,1651,,,,,,,,,"<img src= ""rock_img/I_Obsidian_11.jpg"" style=""width:8cm; height:6.05cm;""><p>What type of rock is this?</p>",4,class_response,1,test,26,Obsidian,Obsidian,11,TRUE,5,5,,,,,,,,,,,,,,,,,
,,,,,,,,,,,html-keyboard-response,191,2.0.0,1514258,5ffb8c5b60571908f3ac19fa,4,45,null,,,,,,,,,<p style='font-size: 30px;'><strong>Okay</strong></p>,null,neutral_feedback,1,test,26,,,,,,,,,,,,,,,,,,,,,,,
,,,,,,,,,,,html-button-response,192,2.0.0,1518973,5ffb8c5b60571908f3ac19fa,4,45,4710,,,,,,,,,"<img src= ""rock_img/I_Diorite_12.jpg"" style=""width:8cm; height:4.88cm;""><p>What type of rock is this?</p>",2,class_response,1,test,27,Diorite,Diorite,12,TRUE,3,3,,,,,,,,,,,,,,,,,
,,,,,,,,,,,html-keyboard-response,193,2.0.0,1519478,5ffb8c5b60571908f3ac19fa,4,45,null,,,,,,,,,<p style='font-size: 30px;'><strong>Okay</strong></p>,null,neutral_feedback,1,test,27,,,,,,,,,,,,,,,,,,,,,,,
,,,,,,,,,,,html-button-response,194,2.0.0,1520871,5ffb8c5b60571908f3ac19fa,4,45,1389,,,,,,,,,"<img src= ""rock_img/I_Peridotite_15.jpg"" style=""width:8cm; height:6cm;""><p>What type of rock is this?</p>",6,class_response,1,test,28,Peridotite,Peridotite,15,TRUE,7,7,,,,,,,,,,,,,,,,,
,,,,,,,,,,,html-keyboard-response,195,2.0.0,1521374,5ffb8c5b60571908f3ac19fa,4,45,null,,,,,,,,,<p style='font-size: 30px;'><strong>Okay</strong></p>,null,neutral_feedback,1,test,28,,,,,,,,,,,,,,,,,,,,,,,
,,,,,,,,,,,html-button-response,196,2.0.0,1522732,5ffb8c5b60571908f3ac19fa,4,45,1355,,,,,,,,,"<img src= ""rock_img/I_Obsidian_06.jpg"" style=""width:8cm; height:6.8cm;""><p>What type of rock is this?</p>",4,class_response,1,test,29,Obsidian,Obsidian,6,TRUE,5,5,,,,,,,,,,,,,,,,,
,,,,,,,,,,,html-keyboard-response,197,2.0.0,1523244,5ffb8c5b60571908f3ac19fa,4,45,null,,,,,,,,,<p style='font-size: 30px;'><strong>Okay</strong></p>,null,neutral_feedback,1,test,29,,,,,,,,,,,,,,,,,,,,,,,
,,,,,,,,,,,html-button-response,198,2.0.0,1524764,5ffb8c5b60571908f3ac19fa,4,45,1516,,,,,,,,,"<img src= ""rock_img/I_Pumice_05.jpg"" style=""width:8cm; height:7.25cm;""><p>What type of rock is this?</p>",7,class_response,1,test,30,Pumice,Pumice,5,TRUE,8,8,,,,,,,,,,,,,,,,,
,,,,,,,,,,,html-keyboard-response,199,2.0.0,1525271,5ffb8c5b60571908f3ac19fa,4,45,null,,,,,,,,,<p style='font-size: 30px;'><strong>Okay</strong></p>,null,neutral_feedback,1,test,30,,,,,,,,,,,,,,,,,,,,,,,
,,,,,,,,,,,html-button-response,200,2.0.0,1528193,5ffb8c5b60571908f3ac19fa,4,45,2919,,,,,,,,,"<img src= ""rock_img/I_Diorite_02.jpg"" style=""width:8cm; height:6.27cm;""><p>What type of rock is this?</p>",2,class_response,1,test,31,Diorite,Diorite,2,TRUE,3,3,,,,,,,,,,,,,,,,,
,,,,,,,,,,,html-keyboard-response,201,2.0.0,1528702,5ffb8c5b60571908f3ac19fa,4,45,null,,,,,,,,,<p style='font-size: 30px;'><strong>Okay</strong></p>,null,neutral_feedback,1,test,31,,,,,,,,,,,,,,,,,,,,,,,
,,,,,,,,,,,html-button-response,202,2.0.0,1530025,5ffb8c5b60571908f3ac19fa,4,45,1320,,,,,,,,,"<img src= ""rock_img/I_Pumice_06.jpg"" style=""width:8cm; height:6.9399999999999995cm;""><p>What type of rock is this?</p>",7,class_response,1,test,32,Pumice,Pumice,6,TRUE,8,8,,,,,,,,,,,,,,,,,
,,,,,,,,,,,html-keyboard-response,203,2.0.0,1530543,5ffb8c5b60571908f3ac19fa,4,45,null,,,,,,,,,<p style='font-size: 30px;'><strong>Okay</strong></p>,null,neutral_feedback,1,test,32,,,,,,,,,,,,,,,,,,,,,,,
,,,,,,,,,,,html-button-response,204,2.0.0,1532035,5ffb8c5b60571908f3ac19fa,4,45,1489,,,,,,,,,"<img src= ""rock_img/I_Obsidian_07.jpg"" style=""width:8cm; height:4.76cm;""><p>What type of rock is this?</p>",4,class_response,1,test,33,Obsidian,Obsidian,7,TRUE,5,5,,,,,,,,,,,,,,,,,
,,,,,,,,,,,html-keyboard-response,205,2.0.0,1532543,5ffb8c5b60571908f3ac19fa,4,45,null,,,,,,,,,<p style='font-size: 30px;'><strong>Okay</strong></p>,null,neutral_feedback,1,test,33,,,,,,,,,,,,,,,,,,,,,,,
,,,,,,,,,,,html-button-response,206,2.0.0,1533850,5ffb8c5b60571908f3ac19fa,4,45,1303,,,,,,,,,"<img src= ""rock_img/I_Obsidian_12.jpg"" style=""width:8cm; height:6.53cm;""><p>What type of rock is this?</p>",4,class_response,1,test,34,Obsidian,Obsidian,12,TRUE,5,5,,,,,,,,,,,,,,,,,
,,,,,,,,,,,html-keyboard-response,207,2.0.0,1534353,5ffb8c5b60571908f3ac19fa,4,45,null,,,,,,,,,<p style='font-size: 30px;'><strong>Okay</strong></p>,null,neutral_feedback,1,test,34,,,,,,,,,,,,,,,,,,,,,,,
,,,,,,,,,,,html-button-response,208,2.0.0,1536476,5ffb8c5b60571908f3ac19fa,4,45,2120,,,,,,,,,"<img src= ""rock_img/I_Andesite_10.jpg"" style=""width:8cm; height:4.16cm;""><p>What type of rock is this?</p>",0,class_response,1,test,35,Andesite,Andesite,10,TRUE,1,1,,,,,,,,,,,,,,,,,
,,,,,,,,,,,html-keyboard-response,209,2.0.0,1536981,5ffb8c5b60571908f3ac19fa,4,45,null,,,,,,,,,<p style='font-size: 30px;'><strong>Okay</strong></p>,null,neutral_feedback,1,test,35,,,,,,,,,,,,,,,,,,,,,,,
,,,,,,,,,,,html-button-response,210,2.0.0,1541358,5ffb8c5b60571908f3ac19fa,4,45,4374,,,,,,,,,"<img src= ""rock_img/I_Diorite_13.jpg"" style=""width:8cm; height:6.29cm;""><p>What type of rock is this?</p>",2,class_response,1,test,36,Diorite,Diorite,13,TRUE,3,3,,,,,,,,,,,,,,,,,
,,,,,,,,,,,html-keyboard-response,211,2.0.0,1541864,5ffb8c5b60571908f3ac19fa,4,45,null,,,,,,,,,<p style='font-size: 30px;'><strong>Okay</strong></p>,null,neutral_feedback,1,test,36,,,,,,,,,,,,,,,,,,,,,,,
,,,,,,,,,,,html-button-response,212,2.0.0,1543235,5ffb8c5b60571908f3ac19fa,4,45,1368,,,,,,,,,"<img src= ""rock_img/I_Pumice_02.jpg"" style=""width:8cm; height:7.3999999999999995cm;""><p>What type of rock is this?</p>",7,class_response,1,test,37,Pumice,Pumice,2,TRUE,8,8,,,,,,,,,,,,,,,,,
,,,,,,,,,,,html-keyboard-response,213,2.0.0,1543747,5ffb8c5b60571908f3ac19fa,4,45,null,,,,,,,,,<p style='font-size: 30px;'><strong>Okay</strong></p>,null,neutral_feedback,1,test,37,,,,,,,,,,,,,,,,,,,,,,,
,,,,,,,,,,,html-button-response,214,2.0.0,1545095,5ffb8c5b60571908f3ac19fa,4,45,1343,,,,,,,,,"<img src= ""rock_img/I_Diorite_09.jpg"" style=""width:8cm; height:5.27cm;""><p>What type of rock is this?</p>",2,class_response,1,test,38,Diorite,Diorite,9,TRUE,3,3,,,,,,,,,,,,,,,,,
,,,,,,,,,,,html-keyboard-response,215,2.0.0,1545600,5ffb8c5b60571908f3ac19fa,4,45,null,,,,,,,,,<p style='font-size: 30px;'><strong>Okay</strong></p>,null,neutral_feedback,1,test,38,,,,,,,,,,,,,,,,,,,,,,,
,,,,,,,,,,,html-button-response,216,2.0.0,1547037,5ffb8c5b60571908f3ac19fa,4,45,1433,,,,,,,,,"<img src= ""rock_img/I_Peridotite_12.jpg"" style=""width:8cm; height:4.54cm;""><p>What type of rock is this?</p>",6,class_response,1,test,39,Peridotite,Peridotite,12,TRUE,7,7,,,,,,,,,,,,,,,,,
,,,,,,,,,,,html-keyboard-response,217,2.0.0,1547546,5ffb8c5b60571908f3ac19fa,4,45,null,,,,,,,,,<p style='font-size: 30px;'><strong>Okay</strong></p>,null,neutral_feedback,1,test,39,,,,,,,,,,,,,,,,,,,,,,,
,,,,,,,,,,,html-button-response,218,2.0.0,1549790,5ffb8c5b60571908f3ac19fa,4,45,2241,,,,,,,,,"<img src= ""rock_img/I_Gabbro_05.jpg"" style=""width:8cm; height:6cm;""><p>What type of rock is this?</p>",6,class_response,1,test,40,Peridotite,Gabbro,5,FALSE,7,4,,,,,,,,,,,,,,,,,
,,,,,,,,,,,html-keyboard-response,219,2.0.0,1550296,5ffb8c5b60571908f3ac19fa,4,45,null,,,,,,,,,<p style='font-size: 30px;'><strong>Okay</strong></p>,null,neutral_feedback,1,test,40,,,,,,,,,,,,,,,,,,,,,,,
,,,,,,,,,,,html-button-response,220,2.0.0,1551360,5ffb8c5b60571908f3ac19fa,4,45,1061,,,,,,,,,"<img src= ""rock_img/I_Obsidian_02.jpg"" style=""width:8cm; height:7.51cm;""><p>What type of rock is this?</p>",4,class_response,1,test,41,Obsidian,Obsidian,2,TRUE,5,5,,,,,,,,,,,,,,,,,
,,,,,,,,,,,html-keyboard-response,221,2.0.0,1551866,5ffb8c5b60571908f3ac19fa,4,45,null,,,,,,,,,<p style='font-size: 30px;'><strong>Okay</strong></p>,null,neutral_feedback,1,test,41,,,,,,,,,,,,,,,,,,,,,,,
,,,,,,,,,,,html-button-response,222,2.0.0,1556428,5ffb8c5b60571908f3ac19fa,4,45,4558,,,,,,,,,"<img src= ""rock_img/I_Gabbro_03.jpg"" style=""width:8cm; height:8.52cm;""><p>What type of rock is this?</p>",3,class_response,1,test,42,Gabbro,Gabbro,3,TRUE,4,4,,,,,,,,,,,,,,,,,
,,,,,,,,,,,html-keyboard-response,223,2.0.0,1556931,5ffb8c5b60571908f3ac19fa,4,45,null,,,,,,,,,<p style='font-size: 30px;'><strong>Okay</strong></p>,null,neutral_feedback,1,test,42,,,,,,,,,,,,,,,,,,,,,,,
,,,,,,,,,,,html-button-response,224,2.0.0,1567927,5ffb8c5b60571908f3ac19fa,4,45,10992,,,,,,,,,"<img src= ""rock_img/I_Basalt_14.jpg"" style=""width:8cm; height:5.82cm;""><p>What type of rock is this?</p>",1,class_response,1,test,43,Basalt,Basalt,14,TRUE,2,2,,,,,,,,,,,,,,,,,
,,,,,,,,,,,html-keyboard-response,225,2.0.0,1568437,5ffb8c5b60571908f3ac19fa,4,45,null,,,,,,,,,<p style='font-size: 30px;'><strong>Okay</strong></p>,null,neutral_feedback,1,test,43,,,,,,,,,,,,,,,,,,,,,,,
,,,,,,,,,,,html-button-response,226,2.0.0,1571192,5ffb8c5b60571908f3ac19fa,4,45,2753,,,,,,,,,"<img src= ""rock_img/I_Basalt_11.jpg"" style=""width:8cm; height:5.359999999999999cm;""><p>What type of rock is this?</p>",0,class_response,1,test,44,Andesite,Basalt,11,FALSE,1,2,,,,,,,,,,,,,,,,,
,,,,,,,,,,,html-keyboard-response,227,2.0.0,1571696,5ffb8c5b60571908f3ac19fa,4,45,null,,,,,,,,,<p style='font-size: 30px;'><strong>Okay</strong></p>,null,neutral_feedback,1,test,44,,,,,,,,,,,,,,,,,,,,,,,
,,,,,,,,,,,html-button-response,228,2.0.0,1574729,5ffb8c5b60571908f3ac19fa,4,45,3029,,,,,,,,,"<img src= ""rock_img/I_Andesite_04.jpg"" style=""width:8cm; height:5.96cm;""><p>What type of rock is this?</p>",0,class_response,1,test,45,Andesite,Andesite,4,TRUE,1,1,,,,,,,,,,,,,,,,,
,,,,,,,,,,,html-keyboard-response,229,2.0.0,1575242,5ffb8c5b60571908f3ac19fa,4,45,null,,,,,,,,,<p style='font-size: 30px;'><strong>Okay</strong></p>,null,neutral_feedback,1,test,45,,,,,,,,,,,,,,,,,,,,,,,
,,,,,,,,,,,html-button-response,230,2.0.0,1576589,5ffb8c5b60571908f3ac19fa,4,45,1343,,,,,,,,,"<img src= ""rock_img/I_Pumice_15.jpg"" style=""width:8cm; height:7.86cm;""><p>What type of rock is this?</p>",7,class_response,1,test,46,Pumice,Pumice,15,TRUE,8,8,,,,,,,,,,,,,,,,,
,,,,,,,,,,,html-keyboard-response,231,2.0.0,1577094,5ffb8c5b60571908f3ac19fa,4,45,null,,,,,,,,,<p style='font-size: 30px;'><strong>Okay</strong></p>,null,neutral_feedback,1,test,46,,,,,,,,,,,,,,,,,,,,,,,
,,,,,,,,,,,html-button-response,232,2.0.0,1578361,5ffb8c5b60571908f3ac19fa,4,45,1264,,,,,,,,,"<img src= ""rock_img/I_Pegmatite_08.jpg"" style=""width:8cm; height:7.68cm;""><p>What type of rock is this?</p>",5,class_response,1,test,47,Pegmatite,Pegmatite,8,TRUE,6,6,,,,,,,,,,,,,,,,,
,,,,,,,,,,,html-keyboard-response,233,2.0.0,1578871,5ffb8c5b60571908f3ac19fa,4,45,null,,,,,,,,,<p style='font-size: 30px;'><strong>Okay</strong></p>,null,neutral_feedback,1,test,47,,,,,,,,,,,,,,,,,,,,,,,
,,,,,,,,,,,html-button-response,234,2.0.0,1591923,5ffb8c5b60571908f3ac19fa,4,45,13048,,,,,,,,,"<img src= ""rock_img/I_Gabbro_08.jpg"" style=""width:8cm; height:5.15cm;""><p>What type of rock is this?</p>",0,class_response,1,test,48,Andesite,Gabbro,8,FALSE,1,4,,,,,,,,,,,,,,,,,
,,,,,,,,,,,html-keyboard-response,235,2.0.0,1592436,5ffb8c5b60571908f3ac19fa,4,45,null,,,,,,,,,<p style='font-size: 30px;'><strong>Okay</strong></p>,null,neutral_feedback,1,test,48,,,,,,,,,,,,,,,,,,,,,,,
,,,,,,,,,,,html-button-response,236,2.0.0,1618987,5ffb8c5b60571908f3ac19fa,4,45,,,,,,,,,,,,cycle_feedback,,,,,,,,,,,,,,,,,,,,,,,,8465.3,18073.5,
,,,,,,,,,,,html-button-response,238,2.0.0,1622048,5ffb8c5b60571908f3ac19fa,4,45,3057,,,,,,,,,,0,start_train,,,,,,,,,,,,,,,,,,,,,,,,,,
,,,,,,,,,,,html-button-response,240,2.0.0,1642873,5ffb8c5b60571908f3ac19fa,4,45,20821,,,,,,,,,"<img src= ""rock_img/I_Basalt_05.jpg"" style=""width:8cm; height:8.18cm;""><p>What type of rock is this?</p>",1,class_response,2,train,1,Basalt,Basalt,5,TRUE,2,2,,,,,,,,,,,,,,,,,
,,,,,,,,,,,html-button-response,241,2.0.0,1650173,5ffb8c5b60571908f3ac19fa,4,45,7296,,,,,,,,,"<img src= rock_img/I_Basalt_05.jpg style=""width:8cm; height:8.18cm;""><p style='font-size: 30px; color: green;'><strong>Correct!</strong></p><p style='font-size: 30px;'><strong>This rock is basalt</strong></p>",0,corr_feedback,2,train,1,,,,,,,,,,,,,,,,,,,,,,,
,,,,,,,,,,,html-button-response,242,2.0.0,1680385,5ffb8c5b60571908f3ac19fa,4,45,30209,,,,,,,,,"<img src= ""rock_img/I_Pumice_03.jpg"" style=""width:8cm; height:6.64cm;""><p>What type of rock is this?</p>",7,class_response,2,train,2,Pumice,Pumice,3,TRUE,8,8,,,,,,,,,,,,,,,,,
,,,,,,,,,,,html-button-response,243,2.0.0,1685436,5ffb8c5b60571908f3ac19fa,4,45,5047,,,,,,,,,"<img src= rock_img/I_Pumice_03.jpg style=""width:8cm; height:6.64cm;""><p style='font-size: 30px; color: green;'><strong>Correct!</strong></p><p style='font-size: 30px;'><strong>This rock is pumice</strong></p>",0,corr_feedback,2,train,2,,,,,,,,,,,,,,,,,,,,,,,
,,,,,,,,,,,html-button-response,244,2.0.0,1687520,5ffb8c5b60571908f3ac19fa,4,45,2081,,,,,,,,,"<img src= ""rock_img/I_Obsidian_10.jpg"" style=""width:8cm; height:6.260000000000001cm;""><p>What type of rock is this?</p>",4,class_response,2,train,3,Obsidian,Obsidian,10,TRUE,5,5,,,,,,,,,,,,,,,,,
,,,,,,,,,,,html-button-response,245,2.0.0,1689670,5ffb8c5b60571908f3ac19fa,4,45,2147,,,,,,,,,"<img src= rock_img/I_Obsidian_10.jpg style=""width:8cm; height:6.260000000000001cm;""><p style='font-size: 30px; color: green;'><strong>Correct!</strong></p><p style='font-size: 30px;'><strong>This rock is obsidian</strong></p>",0,corr_feedback,2,train,3,,,,,,,,,,,,,,,,,,,,,,,
,,,,,,,,,,,html-button-response,246,2.0.0,1691182,5ffb8c5b60571908f3ac19fa,4,45,1508,,,,,,,,,"<img src= ""rock_img/I_Diorite_14.jpg"" style=""width:8cm; height:5.71cm;""><p>What type of rock is this?</p>",2,class_response,2,train,4,Diorite,Diorite,14,TRUE,3,3,,,,,,,,,,,,,,,,,
,,,,,,,,,,,html-button-response,247,2.0.0,1695482,5ffb8c5b60571908f3ac19fa,4,45,4298,,,,,,,,,"<img src= rock_img/I_Diorite_14.jpg style=""width:8cm; height:5.71cm;""><p style='font-size: 30px; color: green;'><strong>Correct!</strong></p><p style='font-size: 30px;'><strong>This rock is diorite</strong></p>",0,corr_feedback,2,train,4,,,,,,,,,,,,,,,,,,,,,,,
,,,,,,,,,,,html-button-response,248,2.0.0,1698867,5ffb8c5b60571908f3ac19fa,4,45,3382,,,,,,,,,"<img src= ""rock_img/I_Pegmatite_11.jpg"" style=""width:8cm; height:8.14cm;""><p>What type of rock is this?</p>",5,class_response,2,train,5,Pegmatite,Pegmatite,11,TRUE,6,6,,,,,,,,,,,,,,,,,
,,,,,,,,,,,html-button-response,249,2.0.0,1699895,5ffb8c5b60571908f3ac19fa,4,45,1025,,,,,,,,,"<img src= rock_img/I_Pegmatite_11.jpg style=""width:8cm; height:8.14cm;""><p style='font-size: 30px; color: green;'><strong>Correct!</strong></p><p style='font-size: 30px;'><strong>This rock is pegmatite</strong></p>",0,corr_feedback,2,train,5,,,,,,,,,,,,,,,,,,,,,,,
,,,,,,,,,,,html-button-response,250,2.0.0,1701309,5ffb8c5b60571908f3ac19fa,4,45,1411,,,,,,,,,"<img src= ""rock_img/I_Peridotite_13.jpg"" style=""width:8cm; height:7.58cm;""><p>What type of rock is this?</p>",6,class_response,2,train,6,Peridotite,Peridotite,13,TRUE,7,7,,,,,,,,,,,,,,,,,
,,,,,,,,,,,html-button-response,251,2.0.0,1702260,5ffb8c5b60571908f3ac19fa,4,45,948,,,,,,,,,"<img src= rock_img/I_Peridotite_13.jpg style=""width:8cm; height:7.58cm;""><p style='font-size: 30px; color: green;'><strong>Correct!</strong></p><p style='font-size: 30px;'><strong>This rock is peridotite</strong></p>",0,corr_feedback,2,train,6,,,,,,,,,,,,,,,,,,,,,,,
,,,,,,,,,,,html-button-response,252,2.0.0,1703564,5ffb8c5b60571908f3ac19fa,4,45,1300,,,,,,,,,"<img src= ""rock_img/I_Obsidian_09.jpg"" style=""width:8cm; height:5cm;""><p>What type of rock is this?</p>",4,class_response,2,train,7,Obsidian,Obsidian,9,TRUE,5,5,,,,,,,,,,,,,,,,,
,,,,,,,,,,,html-button-response,253,2.0.0,1704634,5ffb8c5b60571908f3ac19fa,4,45,1068,,,,,,,,,"<img src= rock_img/I_Obsidian_09.jpg style=""width:8cm; height:5cm;""><p style='font-size: 30px; color: green;'><strong>Correct!</strong></p><p style='font-size: 30px;'><strong>This rock is obsidian</strong></p>",0,corr_feedback,2,train,7,,,,,,,,,,,,,,,,,,,,,,,
,,,,,,,,,,,html-button-response,254,2.0.0,1706361,5ffb8c5b60571908f3ac19fa,4,45,1724,,,,,,,,,"<img src= ""rock_img/I_Basalt_09.jpg"" style=""width:8cm; height:6.2cm;""><p>What type of rock is this?</p>",1,class_response,2,train,8,Basalt,Basalt,9,TRUE,2,2,,,,,,,,,,,,,,,,,
,,,,,,,,,,,html-button-response,255,2.0.0,1709902,5ffb8c5b60571908f3ac19fa,4,45,3538,,,,,,,,,"<img src= rock_img/I_Basalt_09.jpg style=""width:8cm; height:6.2cm;""><p style='font-size: 30px; color: green;'><strong>Correct!</strong></p><p style='font-size: 30px;'><strong>This rock is basalt</strong></p>",0,corr_feedback,2,train,8,,,,,,,,,,,,,,,,,,,,,,,
,,,,,,,,,,,html-button-response,256,2.0.0,1711391,5ffb8c5b60571908f3ac19fa,4,45,1487,,,,,,,,,"<img src= ""rock_img/I_Andesite_11.jpg"" style=""width:8cm; height:4.92cm;""><p>What type of rock is this?</p>",0,class_response,2,train,9,Andesite,Andesite,11,TRUE,1,1,,,,,,,,,,,,,,,,,
,,,,,,,,,,,html-button-response,257,2.0.0,1713868,5ffb8c5b60571908f3ac19fa,4,45,2473,,,,,,,,,"<img src= rock_img/I_Andesite_11.jpg style=""width:8cm; height:4.92cm;""><p style='font-size: 30px; color: green;'><strong>Correct!</strong></p><p style='font-size: 30px;'><strong>This rock is andesite</strong></p>",0,corr_feedback,2,train,9,,,,,,,,,,,,,,,,,,,,,,,
,,,,,,,,,,,html-button-response,258,2.0.0,1719940,5ffb8c5b60571908f3ac19fa,4,45,6069,,,,,,,,,"<img src= ""rock_img/I_Gabbro_09.jpg"" style=""width:8cm; height:7.279999999999999cm;""><p>What type of rock is this?</p>",1,class_response,2,train,10,Basalt,Gabbro,9,FALSE,2,4,,,,,,,,,,,,,,,,,
,,,,,,,,,,,html-button-response,259,2.0.0,1723965,5ffb8c5b60571908f3ac19fa,4,45,4022,,,,,,,,,"<img src= rock_img/I_Gabbro_09.jpg style=""width:8cm; height:7.279999999999999cm;""><p style='font-size: 30px; color: red;'><strong>Incorrect!</strong></p><p style='font-size: 30px;'><strong>This rock is gabbro</strong></p>",0,corr_feedback,2,train,10,,,,,,,,,,,,,,,,,,,,,,,
,,,,,,,,,,,html-button-response,260,2.0.0,1726101,5ffb8c5b60571908f3ac19fa,4,45,2132,,,,,,,,,"<img src= ""rock_img/I_Gabbro_12.jpg"" style=""width:8cm; height:7.800000000000001cm;""><p>What type of rock is this?</p>",3,class_response,2,train,11,Gabbro,Gabbro,12,TRUE,4,4,,,,,,,,,,,,,,,,,
,,,,,,,,,,,html-button-response,261,2.0.0,1728639,5ffb8c5b60571908f3ac19fa,4,45,2535,,,,,,,,,"<img src= rock_img/I_Gabbro_12.jpg style=""width:8cm; height:7.800000000000001cm;""><p style='font-size: 30px; color: green;'><strong>Correct!</strong></p><p style='font-size: 30px;'><strong>This rock is gabbro</strong></p>",0,corr_feedback,2,train,11,,,,,,,,,,,,,,,,,,,,,,,
,,,,,,,,,,,html-button-response,262,2.0.0,1734651,5ffb8c5b60571908f3ac19fa,4,45,6010,,,,,,,,,"<img src= ""rock_img/I_Pegmatite_10.jpg"" style=""width:8cm; height:4.16cm;""><p>What type of rock is this?</p>",5,class_response,2,train,12,Pegmatite,Pegmatite,10,TRUE,6,6,,,,,,,,,,,,,,,,,
,,,,,,,,,,,html-button-response,263,2.0.0,1737352,5ffb8c5b60571908f3ac19fa,4,45,2698,,,,,,,,,"<img src= rock_img/I_Pegmatite_10.jpg style=""width:8cm; height:4.16cm;""><p style='font-size: 30px; color: green;'><strong>Correct!</strong></p><p style='font-size: 30px;'><strong>This rock is pegmatite</strong></p>",0,corr_feedback,2,train,12,,,,,,,,,,,,,,,,,,,,,,,
,,,,,,,,,,,html-button-response,265,2.0.0,1739390,5ffb8c5b60571908f3ac19fa,4,45,2036,,,,,,,,,,0,start_train,,,,,,,,,,,,,,,,,,,,,,,,,,
,,,,,,,,,,,html-button-response,266,2.0.0,1744169,5ffb8c5b60571908f3ac19fa,4,45,,,,,,,,,,,,cat_selection,2,train,1,,,,,,,2282.7,2493.2,4,2,Gabbro,Basalt,,,,,,,,,,,
,,,,,,,,,,,paired-cat-display,267,1.0.0,1802288,5ffb8c5b60571908f3ac19fa,4,45,,,,,,,,,,,,paired_cat_display,2,train,1,,,,,,,,,,,,,,,9206,48905.3,,,Has more detail and little grains throughout. More coarse. ,More flat toned and larger surface areas.,,,
,,,,,,,,,,,html-button-response,268,2.0.0,1811123,5ffb8c5b60571908f3ac19fa,4,45,,,,,,,,,,,,cat_selection,2,train,2,,,,,,,7533.1,1297.4,1,3,Andesite,Diorite,,,,,,,,,,,
,,,,,,,,,,,paired-cat-display,269,1.0.0,1859607,5ffb8c5b60571908f3ac19fa,4,45,,,,,,,,,,,,paired_cat_display,2,train,2,,,,,,,,,,,,,,Has randomized sized specks that are usually white.,6192.5,42286.2,,More of a black and white pattern. ,,,,,
,,,,,,,,,,,html-button-response,270,2.0.0,1869925,5ffb8c5b60571908f3ac19fa,4,45,,,,,,,,,,,,cat_selection,2,train,3,,,,,,,3516.9,6797.5,8,1,Pumice,Andesite,,,,,,,,,,,
,,,,,,,,,,,paired-cat-display,271,1.0.0,1911583,5ffb8c5b60571908f3ac19fa,4,45,,,,,,,,,,,,paired_cat_display,2,train,3,,,,,,,,,,,,,,More solid and has many more specks scattered throughout.,5982.5,35666.6,,,,,,,More phosphorus and holey. Looks like a moon rock.
,,,,,,,,,,,html-button-response,273,2.0.0,1913363,5ffb8c5b60571908f3ac19fa,4,45,1775,,,,,,,,,,0,start_test,,,,,,,,,,,,,,,,,,,,,,,,,,
,,,,,,,,,,,html-button-response,274,2.0.0,1950283,5ffb8c5b60571908f3ac19fa,4,45,36916,,,,,,,,,"<img src= ""rock_img/I_Gabbro_11.jpg"" style=""width:8cm; height:6.2cm;""><p>What type of rock is this?</p>",1,class_response,2,test,1,Basalt,Gabbro,11,FALSE,2,4,,,,,,,,,,,,,,,,,
,,,,,,,,,,,html-keyboard-response,275,2.0.0,1950794,5ffb8c5b60571908f3ac19fa,4,45,null,,,,,,,,,<p style='font-size: 30px;'><strong>Okay</strong></p>,null,neutral_feedback,2,test,1,,,,,,,,,,,,,,,,,,,,,,,
,,,,,,,,,,,html-button-response,276,2.0.0,1953123,5ffb8c5b60571908f3ac19fa,4,45,2326,,,,,,,,,"<img src= ""rock_img/I_Pumice_15.jpg"" style=""width:8cm; height:7.86cm;""><p>What type of rock is this?</p>",7,class_response,2,test,2,Pumice,Pumice,15,TRUE,8,8,,,,,,,,,,,,,,,,,
,,,,,,,,,,,html-keyboard-response,277,2.0.0,1953631,5ffb8c5b60571908f3ac19fa,4,45,null,,,,,,,,,<p style='font-size: 30px;'><strong>Okay</strong></p>,null,neutral_feedback,2,test,2,,,,,,,,,,,,,,,,,,,,,,,
,,,,,,,,,,,html-button-response,278,2.0.0,1955715,5ffb8c5b60571908f3ac19fa,4,45,2080,,,,,,,,,"<img src= ""rock_img/I_Peridotite_06.jpg"" style=""width:8cm; height:7.53cm;""><p>What type of rock is this?</p>",6,class_response,2,test,3,Peridotite,Peridotite,6,TRUE,7,7,,,,,,,,,,,,,,,,,
,,,,,,,,,,,html-keyboard-response,279,2.0.0,1956220,5ffb8c5b60571908f3ac19fa,4,45,null,,,,,,,,,<p style='font-size: 30px;'><strong>Okay</strong></p>,null,neutral_feedback,2,test,3,,,,,,,,,,,,,,,,,,,,,,,
,,,,,,,,,,,html-button-response,280,2.0.0,1957494,5ffb8c5b60571908f3ac19fa,4,45,1270,,,,,,,,,"<img src= ""rock_img/I_Obsidian_12.jpg"" style=""width:8cm; height:6.53cm;""><p>What type of rock is this?</p>",4,class_response,2,test,4,Obsidian,Obsidian,12,TRUE,5,5,,,,,,,,,,,,,,,,,
,,,,,,,,,,,html-keyboard-response,281,2.0.0,1957997,5ffb8c5b60571908f3ac19fa,4,45,null,,,,,,,,,<p style='font-size: 30px;'><strong>Okay</strong></p>,null,neutral_feedback,2,test,4,,,,,,,,,,,,,,,,,,,,,,,
,,,,,,,,,,,html-button-response,282,2.0.0,1974383,5ffb8c5b60571908f3ac19fa,4,45,16383,,,,,,,,,"<img src= ""rock_img/I_Diorite_15.jpg"" style=""width:8cm; height:5.54cm;""><p>What type of rock is this?</p>",3,class_response,2,test,5,Gabbro,Diorite,15,FALSE,4,3,,,,,,,,,,,,,,,,,
,,,,,,,,,,,html-keyboard-response,283,2.0.0,1974887,5ffb8c5b60571908f3ac19fa,4,45,null,,,,,,,,,<p style='font-size: 30px;'><strong>Okay</strong></p>,null,neutral_feedback,2,test,5,,,,,,,,,,,,,,,,,,,,,,,
,,,,,,,,,,,html-button-response,284,2.0.0,1976356,5ffb8c5b60571908f3ac19fa,4,45,1466,,,,,,,,,"<img src= ""rock_img/I_Pegmatite_15.jpg"" style=""width:8cm; height:6cm;""><p>What type of rock is this?</p>",5,class_response,2,test,6,Pegmatite,Pegmatite,15,TRUE,6,6,,,,,,,,,,,,,,,,,
,,,,,,,,,,,html-keyboard-response,285,2.0.0,1976866,5ffb8c5b60571908f3ac19fa,4,45,null,,,,,,,,,<p style='font-size: 30px;'><strong>Okay</strong></p>,null,neutral_feedback,2,test,6,,,,,,,,,,,,,,,,,,,,,,,
,,,,,,,,,,,html-button-response,286,2.0.0,2026477,5ffb8c5b60571908f3ac19fa,4,45,49608,,,,,,,,,"<img src= ""rock_img/I_Diorite_13.jpg"" style=""width:8cm; height:6.29cm;""><p>What type of rock is this?</p>",2,class_response,2,test,7,Diorite,Diorite,13,TRUE,3,3,,,,,,,,,,,,,,,,,
,,,,,,,,,,,html-keyboard-response,287,2.0.0,2026982,5ffb8c5b60571908f3ac19fa,4,45,null,,,,,,,,,<p style='font-size: 30px;'><strong>Okay</strong></p>,null,neutral_feedback,2,test,7,,,,,,,,,,,,,,,,,,,,,,,
,,,,,,,,,,,html-button-response,288,2.0.0,2029314,5ffb8c5b60571908f3ac19fa,4,45,2329,,,,,,,,,"<img src= ""rock_img/I_Diorite_02.jpg"" style=""width:8cm; height:6.27cm;""><p>What type of rock is this?</p>",2,class_response,2,test,8,Diorite,Diorite,2,TRUE,3,3,,,,,,,,,,,,,,,,,
,,,,,,,,,,,html-keyboard-response,289,2.0.0,2029820,5ffb8c5b60571908f3ac19fa,4,45,null,,,,,,,,,<p style='font-size: 30px;'><strong>Okay</strong></p>,null,neutral_feedback,2,test,8,,,,,,,,,,,,,,,,,,,,,,,
,,,,,,,,,,,html-button-response,290,2.0.0,2055820,5ffb8c5b60571908f3ac19fa,4,45,25998,,,,,,,,,"<img src= ""rock_img/I_Andesite_03.jpg"" style=""width:8cm; height:5.73cm;""><p>What type of rock is this?</p>",0,class_response,2,test,9,Andesite,Andesite,3,TRUE,1,1,,,,,,,,,,,,,,,,,
,,,,,,,,,,,html-keyboard-response,291,2.0.0,2056326,5ffb8c5b60571908f3ac19fa,4,45,null,,,,,,,,,<p style='font-size: 30px;'><strong>Okay</strong></p>,null,neutral_feedback,2,test,9,,,,,,,,,,,,,,,,,,,,,,,
,,,,,,,,,,,html-button-response,292,2.0.0,2068226,5ffb8c5b60571908f3ac19fa,4,45,11896,,,,,,,,,"<img src= ""rock_img/I_Andesite_09.jpg"" style=""width:8cm; height:6cm;""><p>What type of rock is this?</p>",0,class_response,2,test,10,Andesite,Andesite,9,TRUE,1,1,,,,,,,,,,,,,,,,,
,,,,,,,,,,,html-keyboard-response,293,2.0.0,2068730,5ffb8c5b60571908f3ac19fa,4,45,null,,,,,,,,,<p style='font-size: 30px;'><strong>Okay</strong></p>,null,neutral_feedback,2,test,10,,,,,,,,,,,,,,,,,,,,,,,
,,,,,,,,,,,html-button-response,294,2.0.0,2075310,5ffb8c5b60571908f3ac19fa,4,45,6577,,,,,,,,,"<img src= ""rock_img/I_Andesite_05.jpg"" style=""width:8cm; height:4.12cm;""><p>What type of rock is this?</p>",3,class_response,2,test,11,Gabbro,Andesite,5,FALSE,4,1,,,,,,,,,,,,,,,,,
,,,,,,,,,,,html-keyboard-response,295,2.0.0,2075813,5ffb8c5b60571908f3ac19fa,4,45,null,,,,,,,,,<p style='font-size: 30px;'><strong>Okay</strong></p>,null,neutral_feedback,2,test,11,,,,,,,,,,,,,,,,,,,,,,,
,,,,,,,,,,,html-button-response,296,2.0.0,2077215,5ffb8c5b60571908f3ac19fa,4,45,1399,,,,,,,,,"<img src= ""rock_img/I_Peridotite_15.jpg"" style=""width:8cm; height:6cm;""><p>What type of rock is this?</p>",6,class_response,2,test,12,Peridotite,Peridotite,15,TRUE,7,7,,,,,,,,,,,,,,,,,
,,,,,,,,,,,html-keyboard-response,297,2.0.0,2077722,5ffb8c5b60571908f3ac19fa,4,45,null,,,,,,,,,<p style='font-size: 30px;'><strong>Okay</strong></p>,null,neutral_feedback,2,test,12,,,,,,,,,,,,,,,,,,,,,,,
,,,,,,,,,,,html-button-response,298,2.0.0,2126367,5ffb8c5b60571908f3ac19fa,4,45,48642,,,,,,,,,"<img src= ""rock_img/I_Peridotite_14.jpg"" style=""width:8cm; height:5.3cm;""><p>What type of rock is this?</p>",7,class_response,2,test,13,Pumice,Peridotite,14,FALSE,8,7,,,,,,,,,,,,,,,,,
,,,,,,,,,,,html-keyboard-response,299,2.0.0,2126870,5ffb8c5b60571908f3ac19fa,4,45,null,,,,,,,,,<p style='font-size: 30px;'><strong>Okay</strong></p>,null,neutral_feedback,2,test,13,,,,,,,,,,,,,,,,,,,,,,,
,,,,,,,,,,,html-button-response,300,2.0.0,2132277,5ffb8c5b60571908f3ac19fa,4,45,5404,,,,,,,,,"<img src= ""rock_img/I_Basalt_01.jpg"" style=""width:8cm; height:7.880000000000001cm;""><p>What type of rock is this?</p>",1,class_response,2,test,14,Basalt,Basalt,1,TRUE,2,2,,,,,,,,,,,,,,,,,
,,,,,,,,,,,html-keyboard-response,301,2.0.0,2132783,5ffb8c5b60571908f3ac19fa,4,45,null,,,,,,,,,<p style='font-size: 30px;'><strong>Okay</strong></p>,null,neutral_feedback,2,test,14,,,,,,,,,,,,,,,,,,,,,,,
,,,,,,,,,,,html-button-response,302,2.0.0,2134398,5ffb8c5b60571908f3ac19fa,4,45,1612,,,,,,,,,"<img src= ""rock_img/I_Pegmatite_09.jpg"" style=""width:8cm; height:4.03cm;""><p>What type of rock is this?</p>",5,class_response,2,test,15,Pegmatite,Pegmatite,9,TRUE,6,6,,,,,,,,,,,,,,,,,
,,,,,,,,,,,html-keyboard-response,303,2.0.0,2134903,5ffb8c5b60571908f3ac19fa,4,45,null,,,,,,,,,<p style='font-size: 30px;'><strong>Okay</strong></p>,null,neutral_feedback,2,test,15,,,,,,,,,,,,,,,,,,,,,,,
,,,,,,,,,,,html-button-response,304,2.0.0,2137181,5ffb8c5b60571908f3ac19fa,4,45,2275,,,,,,,,,"<img src= ""rock_img/I_Pegmatite_05.jpg"" style=""width:8cm; height:7.300000000000001cm;""><p>What type of rock is this?</p>",5,class_response,2,test,16,Pegmatite,Pegmatite,5,TRUE,6,6,,,,,,,,,,,,,,,,,
,,,,,,,,,,,html-keyboard-response,305,2.0.0,2137685,5ffb8c5b60571908f3ac19fa,4,45,null,,,,,,,,,<p style='font-size: 30px;'><strong>Okay</strong></p>,null,neutral_feedback,2,test,16,,,,,,,,,,,,,,,,,,,,,,,
,,,,,,,,,,,html-button-response,306,2.0.0,2139220,5ffb8c5b60571908f3ac19fa,4,45,1532,,,,,,,,,"<img src= ""rock_img/I_Pumice_05.jpg"" style=""width:8cm; height:7.25cm;""><p>What type of rock is this?</p>",7,class_response,2,test,17,Pumice,Pumice,5,TRUE,8,8,,,,,,,,,,,,,,,,,
,,,,,,,,,,,html-keyboard-response,307,2.0.0,2139729,5ffb8c5b60571908f3ac19fa,4,45,null,,,,,,,,,<p style='font-size: 30px;'><strong>Okay</strong></p>,null,neutral_feedback,2,test,17,,,,,,,,,,,,,,,,,,,,,,,
,,,,,,,,,,,html-button-response,308,2.0.0,2141468,5ffb8c5b60571908f3ac19fa,4,45,1735,,,,,,,,,"<img src= ""rock_img/I_Pumice_13.jpg"" style=""width:8cm; height:8.200000000000001cm;""><p>What type of rock is this?</p>",7,class_response,2,test,18,Pumice,Pumice,13,TRUE,8,8,,,,,,,,,,,,,,,,,
,,,,,,,,,,,html-keyboard-response,309,2.0.0,2141981,5ffb8c5b60571908f3ac19fa,4,45,null,,,,,,,,,<p style='font-size: 30px;'><strong>Okay</strong></p>,null,neutral_feedback,2,test,18,,,,,,,,,,,,,,,,,,,,,,,
,,,,,,,,,,,html-button-response,310,2.0.0,2146588,5ffb8c5b60571908f3ac19fa,4,45,4602,,,,,,,,,"<img src= ""rock_img/I_Gabbro_03.jpg"" style=""width:8cm; height:8.52cm;""><p>What type of rock is this?</p>",3,class_response,2,test,19,Gabbro,Gabbro,3,TRUE,4,4,,,,,,,,,,,,,,,,,
,,,,,,,,,,,html-keyboard-response,311,2.0.0,2147092,5ffb8c5b60571908f3ac19fa,4,45,null,,,,,,,,,<p style='font-size: 30px;'><strong>Okay</strong></p>,null,neutral_feedback,2,test,19,,,,,,,,,,,,,,,,,,,,,,,
,,,,,,,,,,,html-button-response,312,2.0.0,2183183,5ffb8c5b60571908f3ac19fa,4,45,36088,,,,,,,,,"<img src= ""rock_img/I_Basalt_14.jpg"" style=""width:8cm; height:5.82cm;""><p>What type of rock is this?</p>",3,class_response,2,test,20,Gabbro,Basalt,14,FALSE,4,2,,,,,,,,,,,,,,,,,
,,,,,,,,,,,html-keyboard-response,313,2.0.0,2183695,5ffb8c5b60571908f3ac19fa,4,45,null,,,,,,,,,<p style='font-size: 30px;'><strong>Okay</strong></p>,null,neutral_feedback,2,test,20,,,,,,,,,,,,,,,,,,,,,,,
,,,,,,,,,,,html-button-response,314,2.0.0,2186404,5ffb8c5b60571908f3ac19fa,4,45,2706,,,,,,,,,"<img src= ""rock_img/I_Basalt_04.jpg"" style=""width:8cm; height:7.53cm;""><p>What type of rock is this?</p>",1,class_response,2,test,21,Basalt,Basalt,4,TRUE,2,2,,,,,,,,,,,,,,,,,
,,,,,,,,,,,html-keyboard-response,315,2.0.0,2186909,5ffb8c5b60571908f3ac19fa,4,45,null,,,,,,,,,<p style='font-size: 30px;'><strong>Okay</strong></p>,null,neutral_feedback,2,test,21,,,,,,,,,,,,,,,,,,,,,,,
,,,,,,,,,,,html-button-response,316,2.0.0,2198005,5ffb8c5b60571908f3ac19fa,4,45,11093,,,,,,,,,"<img src= ""rock_img/I_Diorite_10.jpg"" style=""width:8cm; height:5.949999999999999cm;""><p>What type of rock is this?</p>",0,class_response,2,test,22,Andesite,Diorite,10,FALSE,1,3,,,,,,,,,,,,,,,,,
,,,,,,,,,,,html-keyboard-response,317,2.0.0,2198514,5ffb8c5b60571908f3ac19fa,4,45,null,,,,,,,,,<p style='font-size: 30px;'><strong>Okay</strong></p>,null,neutral_feedback,2,test,22,,,,,,,,,,,,,,,,,,,,,,,
,,,,,,,,,,,html-button-response,318,2.0.0,2199880,5ffb8c5b60571908f3ac19fa,4,45,1362,,,,,,,,,"<img src= ""rock_img/I_Obsidian_02.jpg"" style=""width:8cm; height:7.51cm;""><p>What type of rock is this?</p>",4,class_response,2,test,23,Obsidian,Obsidian,2,TRUE,5,5,,,,,,,,,,,,,,,,,
,,,,,,,,,,,html-keyboard-response,319,2.0.0,2200394,5ffb8c5b60571908f3ac19fa,4,45,null,,,,,,,,,<p style='font-size: 30px;'><strong>Okay</strong></p>,null,neutral_feedback,2,test,23,,,,,,,,,,,,,,,,,,,,,,,
,,,,,,,,,,,html-button-response,320,2.0.0,2215097,5ffb8c5b60571908f3ac19fa,4,45,14699,,,,,,,,,"<img src= ""rock_img/I_Gabbro_05.jpg"" style=""width:8cm; height:6cm;""><p>What type of rock is this?</p>",3,class_response,2,test,24,Gabbro,Gabbro,5,TRUE,4,4,,,,,,,,,,,,,,,,,
,,,,,,,,,,,html-keyboard-response,321,2.0.0,2215609,5ffb8c5b60571908f3ac19fa,4,45,null,,,,,,,,,<p style='font-size: 30px;'><strong>Okay</strong></p>,null,neutral_feedback,2,test,24,,,,,,,,,,,,,,,,,,,,,,,
,,,,,,,,,,,html-button-response,322,2.0.0,2274646,5ffb8c5b60571908f3ac19fa,4,45,59034,,,,,,,,,"<img src= ""rock_img/I_Andesite_02.jpg"" style=""width:8cm; height:8.5cm;""><p>What type of rock is this?</p>",0,class_response,2,test,25,Andesite,Andesite,2,TRUE,1,1,,,,,,,,,,,,,,,,,
,,,,,,,,,,,html-keyboard-response,323,2.0.0,2275165,5ffb8c5b60571908f3ac19fa,4,45,null,,,,,,,,,<p style='font-size: 30px;'><strong>Okay</strong></p>,null,neutral_feedback,2,test,25,,,,,,,,,,,,,,,,,,,,,,,
,,,,,,,,,,,html-button-response,324,2.0.0,2276374,5ffb8c5b60571908f3ac19fa,4,45,1205,,,,,,,,,"<img src= ""rock_img/I_Obsidian_08.jpg"" style=""width:8cm; height:7.39cm;""><p>What type of rock is this?</p>",4,class_response,2,test,26,Obsidian,Obsidian,8,TRUE,5,5,,,,,,,,,,,,,,,,,
,,,,,,,,,,,html-keyboard-response,325,2.0.0,2276891,5ffb8c5b60571908f3ac19fa,4,45,null,,,,,,,,,<p style='font-size: 30px;'><strong>Okay</strong></p>,null,neutral_feedback,2,test,26,,,,,,,,,,,,,,,,,,,,,,,
,,,,,,,,,,,html-button-response,326,2.0.0,2278025,5ffb8c5b60571908f3ac19fa,4,45,1131,,,,,,,,,"<img src= ""rock_img/I_Obsidian_11.jpg"" style=""width:8cm; height:6.05cm;""><p>What type of rock is this?</p>",4,class_response,2,test,27,Obsidian,Obsidian,11,TRUE,5,5,,,,,,,,,,,,,,,,,
,,,,,,,,,,,html-keyboard-response,327,2.0.0,2278528,5ffb8c5b60571908f3ac19fa,4,45,null,,,,,,,,,<p style='font-size: 30px;'><strong>Okay</strong></p>,null,neutral_feedback,2,test,27,,,,,,,,,,,,,,,,,,,,,,,
,,,,,,,,,,,html-button-response,328,2.0.0,2295228,5ffb8c5b60571908f3ac19fa,4,45,16696,,,,,,,,,"<img src= ""rock_img/I_Basalt_12.jpg"" style=""width:8cm; height:6.010000000000001cm;""><p>What type of rock is this?</p>",7,class_response,2,test,28,Pumice,Basalt,12,FALSE,8,2,,,,,,,,,,,,,,,,,
,,,,,,,,,,,html-keyboard-response,329,2.0.0,2295732,5ffb8c5b60571908f3ac19fa,4,45,null,,,,,,,,,<p style='font-size: 30px;'><strong>Okay</strong></p>,null,neutral_feedback,2,test,28,,,,,,,,,,,,,,,,,,,,,,,
,,,,,,,,,,,html-button-response,330,2.0.0,2297348,5ffb8c5b60571908f3ac19fa,4,45,1613,,,,,,,,,"<img src= ""rock_img/I_Peridotite_16.jpg"" style=""width:8cm; height:6.989999999999999cm;""><p>What type of rock is this?</p>",6,class_response,2,test,29,Peridotite,Peridotite,16,TRUE,7,7,,,,,,,,,,,,,,,,,
,,,,,,,,,,,html-keyboard-response,331,2.0.0,2297858,5ffb8c5b60571908f3ac19fa,4,45,null,,,,,,,,,<p style='font-size: 30px;'><strong>Okay</strong></p>,null,neutral_feedback,2,test,29,,,,,,,,,,,,,,,,,,,,,,,
,,,,,,,,,,,html-button-response,332,2.0.0,2299231,5ffb8c5b60571908f3ac19fa,4,45,1369,,,,,,,,,"<img src= ""rock_img/I_Peridotite_05.jpg"" style=""width:8cm; height:7.1499999999999995cm;""><p>What type of rock is this?</p>",6,class_response,2,test,30,Peridotite,Peridotite,5,TRUE,7,7,,,,,,,,,,,,,,,,,
,,,,,,,,,,,html-keyboard-response,333,2.0.0,2299747,5ffb8c5b60571908f3ac19fa,4,45,null,,,,,,,,,<p style='font-size: 30px;'><strong>Okay</strong></p>,null,neutral_feedback,2,test,30,,,,,,,,,,,,,,,,,,,,,,,
,,,,,,,,,,,html-button-response,334,2.0.0,2304410,5ffb8c5b60571908f3ac19fa,4,45,4658,,,,,,,,,"<img src= ""rock_img/I_Peridotite_12.jpg"" style=""width:8cm; height:4.54cm;""><p>What type of rock is this?</p>",6,class_response,2,test,31,Peridotite,Peridotite,12,TRUE,7,7,,,,,,,,,,,,,,,,,
,,,,,,,,,,,html-keyboard-response,335,2.0.0,2304913,5ffb8c5b60571908f3ac19fa,4,45,null,,,,,,,,,<p style='font-size: 30px;'><strong>Okay</strong></p>,null,neutral_feedback,2,test,31,,,,,,,,,,,,,,,,,,,,,,,
,,,,,,,,,,,html-button-response,336,2.0.0,2306189,5ffb8c5b60571908f3ac19fa,4,45,1273,,,,,,,,,"<img src= ""rock_img/I_Pegmatite_13.jpg"" style=""width:8cm; height:4.95cm;""><p>What type of rock is this?</p>",5,class_response,2,test,32,Pegmatite,Pegmatite,13,TRUE,6,6,,,,,,,,,,,,,,,,,
,,,,,,,,,,,html-keyboard-response,337,2.0.0,2306703,5ffb8c5b60571908f3ac19fa,4,45,null,,,,,,,,,<p style='font-size: 30px;'><strong>Okay</strong></p>,null,neutral_feedback,2,test,32,,,,,,,,,,,,,,,,,,,,,,,
,,,,,,,,,,,html-button-response,338,2.0.0,2316165,5ffb8c5b60571908f3ac19fa,4,45,9458,,,,,,,,,"<img src= ""rock_img/I_Gabbro_08.jpg"" style=""width:8cm; height:5.15cm;""><p>What type of rock is this?</p>",3,class_response,2,test,33,Gabbro,Gabbro,8,TRUE,4,4,,,,,,,,,,,,,,,,,
,,,,,,,,,,,html-keyboard-response,339,2.0.0,2316671,5ffb8c5b60571908f3ac19fa,4,45,null,,,,,,,,,<p style='font-size: 30px;'><strong>Okay</strong></p>,null,neutral_feedback,2,test,33,,,,,,,,,,,,,,,,,,,,,,,
,,,,,,,,,,,html-button-response,340,2.0.0,2317871,5ffb8c5b60571908f3ac19fa,4,45,1197,,,,,,,,,"<img src= ""rock_img/I_Pegmatite_08.jpg"" style=""width:8cm; height:7.68cm;""><p>What type of rock is this?</p>",5,class_response,2,test,34,Pegmatite,Pegmatite,8,TRUE,6,6,,,,,,,,,,,,,,,,,
,,,,,,,,,,,html-keyboard-response,341,2.0.0,2318374,5ffb8c5b60571908f3ac19fa,4,45,null,,,,,,,,,<p style='font-size: 30px;'><strong>Okay</strong></p>,null,neutral_feedback,2,test,34,,,,,,,,,,,,,,,,,,,,,,,
,,,,,,,,,,,html-button-response,342,2.0.0,2324008,5ffb8c5b60571908f3ac19fa,4,45,5631,,,,,,,,,"<img src= ""rock_img/I_Gabbro_14.jpg"" style=""width:8cm; height:8.48cm;""><p>What type of rock is this?</p>",3,class_response,2,test,35,Gabbro,Gabbro,14,TRUE,4,4,,,,,,,,,,,,,,,,,
,,,,,,,,,,,html-keyboard-response,343,2.0.0,2324526,5ffb8c5b60571908f3ac19fa,4,45,null,,,,,,,,,<p style='font-size: 30px;'><strong>Okay</strong></p>,null,neutral_feedback,2,test,35,,,,,,,,,,,,,,,,,,,,,,,
,,,,,,,,,,,html-button-response,344,2.0.0,2326270,5ffb8c5b60571908f3ac19fa,4,45,1741,,,,,,,,,"<img src= ""rock_img/I_Obsidian_06.jpg"" style=""width:8cm; height:6.8cm;""><p>What type of rock is this?</p>",4,class_response,2,test,36,Obsidian,Obsidian,6,TRUE,5,5,,,,,,,,,,,,,,,,,
,,,,,,,,,,,html-keyboard-response,345,2.0.0,2326787,5ffb8c5b60571908f3ac19fa,4,45,null,,,,,,,,,<p style='font-size: 30px;'><strong>Okay</strong></p>,null,neutral_feedback,2,test,36,,,,,,,,,,,,,,,,,,,,,,,
,,,,,,,,,,,html-button-response,346,2.0.0,2339685,5ffb8c5b60571908f3ac19fa,4,45,12894,,,,,,,,,"<img src= ""rock_img/I_Gabbro_16.jpg"" style=""width:8cm; height:6.44cm;""><p>What type of rock is this?</p>",0,class_response,2,test,37,Andesite,Gabbro,16,FALSE,1,4,,,,,,,,,,,,,,,,,
,,,,,,,,,,,html-keyboard-response,347,2.0.0,2340193,5ffb8c5b60571908f3ac19fa,4,45,null,,,,,,,,,<p style='font-size: 30px;'><strong>Okay</strong></p>,null,neutral_feedback,2,test,37,,,,,,,,,,,,,,,,,,,,,,,
,,,,,,,,,,,html-button-response,348,2.0.0,2341553,5ffb8c5b60571908f3ac19fa,4,45,1357,,,,,,,,,"<img src= ""rock_img/I_Pumice_09.jpg"" style=""width:8cm; height:6.44cm;""><p>What type of rock is this?</p>",7,class_response,2,test,38,Pumice,Pumice,9,TRUE,8,8,,,,,,,,,,,,,,,,,
,,,,,,,,,,,html-keyboard-response,349,2.0.0,2342062,5ffb8c5b60571908f3ac19fa,4,45,null,,,,,,,,,<p style='font-size: 30px;'><strong>Okay</strong></p>,null,neutral_feedback,2,test,38,,,,,,,,,,,,,,,,,,,,,,,
,,,,,,,,,,,html-button-response,350,2.0.0,2349433,5ffb8c5b60571908f3ac19fa,4,45,7368,,,,,,,,,"<img src= ""rock_img/I_Pegmatite_06.jpg"" style=""width:8cm; height:5.17cm;""><p>What type of rock is this?</p>",5,class_response,2,test,39,Pegmatite,Pegmatite,6,TRUE,6,6,,,,,,,,,,,,,,,,,
,,,,,,,,,,,html-keyboard-response,351,2.0.0,2349938,5ffb8c5b60571908f3ac19fa,4,45,null,,,,,,,,,<p style='font-size: 30px;'><strong>Okay</strong></p>,null,neutral_feedback,2,test,39,,,,,,,,,,,,,,,,,,,,,,,
,,,,,,,,,,,html-button-response,352,2.0.0,2351479,5ffb8c5b60571908f3ac19fa,4,45,1538,,,,,,,,,"<img src= ""rock_img/I_Diorite_12.jpg"" style=""width:8cm; height:4.88cm;""><p>What type of rock is this?</p>",2,class_response,2,test,40,Diorite,Diorite,12,TRUE,3,3,,,,,,,,,,,,,,,,,
,,,,,,,,,,,html-keyboard-response,353,2.0.0,2351996,5ffb8c5b60571908f3ac19fa,4,45,null,,,,,,,,,<p style='font-size: 30px;'><strong>Okay</strong></p>,null,neutral_feedback,2,test,40,,,,,,,,,,,,,,,,,,,,,,,
,,,,,,,,,,,html-button-response,354,2.0.0,2353193,5ffb8c5b60571908f3ac19fa,4,45,1192,,,,,,,,,"<img src= ""rock_img/I_Pumice_02.jpg"" style=""width:8cm; height:7.3999999999999995cm;""><p>What type of rock is this?</p>",7,class_response,2,test,41,Pumice,Pumice,2,TRUE,8,8,,,,,,,,,,,,,,,,,
,,,,,,,,,,,html-keyboard-response,355,2.0.0,2353702,5ffb8c5b60571908f3ac19fa,4,45,null,,,,,,,,,<p style='font-size: 30px;'><strong>Okay</strong></p>,null,neutral_feedback,2,test,41,,,,,,,,,,,,,,,,,,,,,,,
,,,,,,,,,,,html-button-response,356,2.0.0,2355287,5ffb8c5b60571908f3ac19fa,4,45,1583,,,,,,,,,"<img src= ""rock_img/I_Diorite_09.jpg"" style=""width:8cm; height:5.27cm;""><p>What type of rock is this?</p>",2,class_response,2,test,42,Diorite,Diorite,9,TRUE,3,3,,,,,,,,,,,,,,,,,
,,,,,,,,,,,html-keyboard-response,357,2.0.0,2355791,5ffb8c5b60571908f3ac19fa,4,45,null,,,,,,,,,<p style='font-size: 30px;'><strong>Okay</strong></p>,null,neutral_feedback,2,test,42,,,,,,,,,,,,,,,,,,,,,,,
,,,,,,,,,,,html-button-response,358,2.0.0,2357231,5ffb8c5b60571908f3ac19fa,4,45,1437,,,,,,,,,"<img src= ""rock_img/I_Basalt_06.jpg"" style=""width:8cm; height:7.06cm;""><p>What type of rock is this?</p>",1,class_response,2,test,43,Basalt,Basalt,6,TRUE,2,2,,,,,,,,,,,,,,,,,
,,,,,,,,,,,html-keyboard-response,359,2.0.0,2357741,5ffb8c5b60571908f3ac19fa,4,45,null,,,,,,,,,<p style='font-size: 30px;'><strong>Okay</strong></p>,null,neutral_feedback,2,test,43,,,,,,,,,,,,,,,,,,,,,,,
,,,,,,,,,,,html-button-response,360,2.0.0,2359300,5ffb8c5b60571908f3ac19fa,4,45,1557,,,,,,,,,"<img src= ""rock_img/I_Andesite_04.jpg"" style=""width:8cm; height:5.96cm;""><p>What type of rock is this?</p>",0,class_response,2,test,44,Andesite,Andesite,4,TRUE,1,1,,,,,,,,,,,,,,,,,
,,,,,,,,,,,html-keyboard-response,361,2.0.0,2359816,5ffb8c5b60571908f3ac19fa,4,45,null,,,,,,,,,<p style='font-size: 30px;'><strong>Okay</strong></p>,null,neutral_feedback,2,test,44,,,,,,,,,,,,,,,,,,,,,,,
,,,,,,,,,,,html-button-response,362,2.0.0,2366272,5ffb8c5b60571908f3ac19fa,4,45,6453,,,,,,,,,"<img src= ""rock_img/I_Andesite_10.jpg"" style=""width:8cm; height:4.16cm;""><p>What type of rock is this?</p>",0,class_response,2,test,45,Andesite,Andesite,10,TRUE,1,1,,,,,,,,,,,,,,,,,
,,,,,,,,,,,html-keyboard-response,363,2.0.0,2366777,5ffb8c5b60571908f3ac19fa,4,45,null,,,,,,,,,<p style='font-size: 30px;'><strong>Okay</strong></p>,null,neutral_feedback,2,test,45,,,,,,,,,,,,,,,,,,,,,,,
,,,,,,,,,,,html-button-response,364,2.0.0,2368088,5ffb8c5b60571908f3ac19fa,4,45,1308,,,,,,,,,"<img src= ""rock_img/I_Pumice_06.jpg"" style=""width:8cm; height:6.9399999999999995cm;""><p>What type of rock is this?</p>",7,class_response,2,test,46,Pumice,Pumice,6,TRUE,8,8,,,,,,,,,,,,,,,,,
,,,,,,,,,,,html-keyboard-response,365,2.0.0,2368592,5ffb8c5b60571908f3ac19fa,4,45,null,,,,,,,,,<p style='font-size: 30px;'><strong>Okay</strong></p>,null,neutral_feedback,2,test,46,,,,,,,,,,,,,,,,,,,,,,,
,,,,,,,,,,,html-button-response,366,2.0.0,2383795,5ffb8c5b60571908f3ac19fa,4,45,15201,,,,,,,,,"<img src= ""rock_img/I_Basalt_11.jpg"" style=""width:8cm; height:5.359999999999999cm;""><p>What type of rock is this?</p>",7,class_response,2,test,47,Pumice,Basalt,11,FALSE,8,2,,,,,,,,,,,,,,,,,
,,,,,,,,,,,html-keyboard-response,367,2.0.0,2384302,5ffb8c5b60571908f3ac19fa,4,45,null,,,,,,,,,<p style='font-size: 30px;'><strong>Okay</strong></p>,null,neutral_feedback,2,test,47,,,,,,,,,,,,,,,,,,,,,,,
,,,,,,,,,,,html-button-response,368,2.0.0,2385501,5ffb8c5b60571908f3ac19fa,4,45,1196,,,,,,,,,"<img src= ""rock_img/I_Obsidian_07.jpg"" style=""width:8cm; height:4.76cm;""><p>What type of rock is this?</p>",4,class_response,2,test,48,Obsidian,Obsidian,7,TRUE,5,5,,,,,,,,,,,,,,,,,
,,,,,,,,,,,html-keyboard-response,369,2.0.0,2386008,5ffb8c5b60571908f3ac19fa,4,45,null,,,,,,,,,<p style='font-size: 30px;'><strong>Okay</strong></p>,null,neutral_feedback,2,test,48,,,,,,,,,,,,,,,,,,,,,,,
,,,,,,,,,,,html-button-response,370,2.0.0,2396118,5ffb8c5b60571908f3ac19fa,4,45,,,,,,,,,,,,cycle_feedback,,,,,,,,,,,,,,,,,,,,,,,,6064.2,4033.4,
,,,,,,,,,,,html-button-response,372,2.0.0,2398834,5ffb8c5b60571908f3ac19fa,4,45,2713,,,,,,,,,,0,start_train,,,,,,,,,,,,,,,,,,,,,,,,,,
,,,,,,,,,,,html-button-response,374,2.0.0,2401103,5ffb8c5b60571908f3ac19fa,4,45,2264,,,,,,,,,"<img src= ""rock_img/I_Basalt_05.jpg"" style=""width:8cm; height:8.18cm;""><p>What type of rock is this?</p>",1,class_response,3,train,1,Basalt,Basalt,5,TRUE,2,2,,,,,,,,,,,,,,,,,
,,,,,,,,,,,html-button-response,375,2.0.0,2402114,5ffb8c5b60571908f3ac19fa,4,45,1009,,,,,,,,,"<img src= rock_img/I_Basalt_05.jpg style=""width:8cm; height:8.18cm;""><p style='font-size: 30px; color: green;'><strong>Correct!</strong></p><p style='font-size: 30px;'><strong>This rock is basalt</strong></p>",0,corr_feedback,3,train,1,,,,,,,,,,,,,,,,,,,,,,,
,,,,,,,,,,,html-button-response,376,2.0.0,2403656,5ffb8c5b60571908f3ac19fa,4,45,1538,,,,,,,,,"<img src= ""rock_img/I_Pumice_03.jpg"" style=""width:8cm; height:6.64cm;""><p>What type of rock is this?</p>",7,class_response,3,train,2,Pumice,Pumice,3,TRUE,8,8,,,,,,,,,,,,,,,,,
,,,,,,,,,,,html-button-response,377,2.0.0,2404876,5ffb8c5b60571908f3ac19fa,4,45,1216,,,,,,,,,"<img src= rock_img/I_Pumice_03.jpg style=""width:8cm; height:6.64cm;""><p style='font-size: 30px; color: green;'><strong>Correct!</strong></p><p style='font-size: 30px;'><strong>This rock is pumice</strong></p>",0,corr_feedback,3,train,2,,,,,,,,,,,,,,,,,,,,,,,
,,,,,,,,,,,html-button-response,378,2.0.0,2406140,5ffb8c5b60571908f3ac19fa,4,45,1261,,,,,,,,,"<img src= ""rock_img/I_Peridotite_13.jpg"" style=""width:8cm; height:7.58cm;""><p>What type of rock is this?</p>",6,class_response,3,train,3,Peridotite,Peridotite,13,TRUE,7,7,,,,,,,,,,,,,,,,,
,,,,,,,,,,,html-button-response,379,2.0.0,2407012,5ffb8c5b60571908f3ac19fa,4,45,869,,,,,,,,,"<img src= rock_img/I_Peridotite_13.jpg style=""width:8cm; height:7.58cm;""><p style='font-size: 30px; color: green;'><strong>Correct!</strong></p><p style='font-size: 30px;'><strong>This rock is peridotite</strong></p>",0,corr_feedback,3,train,3,,,,,,,,,,,,,,,,,,,,,,,
,,,,,,,,,,,html-button-response,380,2.0.0,2408269,5ffb8c5b60571908f3ac19fa,4,45,1254,,,,,,,,,"<img src= ""rock_img/I_Obsidian_09.jpg"" style=""width:8cm; height:5cm;""><p>What type of rock is this?</p>",4,class_response,3,train,4,Obsidian,Obsidian,9,TRUE,5,5,,,,,,,,,,,,,,,,,
,,,,,,,,,,,html-button-response,381,2.0.0,2409103,5ffb8c5b60571908f3ac19fa,4,45,830,,,,,,,,,"<img src= rock_img/I_Obsidian_09.jpg style=""width:8cm; height:5cm;""><p style='font-size: 30px; color: green;'><strong>Correct!</strong></p><p style='font-size: 30px;'><strong>This rock is obsidian</strong></p>",0,corr_feedback,3,train,4,,,,,,,,,,,,,,,,,,,,,,,
,,,,,,,,,,,html-button-response,382,2.0.0,2410374,5ffb8c5b60571908f3ac19fa,4,45,1267,,,,,,,,,"<img src= ""rock_img/I_Basalt_09.jpg"" style=""width:8cm; height:6.2cm;""><p>What type of rock is this?</p>",1,class_response,3,train,5,Basalt,Basalt,9,TRUE,2,2,,,,,,,,,,,,,,,,,
,,,,,,,,,,,html-button-response,383,2.0.0,2411498,5ffb8c5b60571908f3ac19fa,4,45,1120,,,,,,,,,"<img src= rock_img/I_Basalt_09.jpg style=""width:8cm; height:6.2cm;""><p style='font-size: 30px; color: green;'><strong>Correct!</strong></p><p style='font-size: 30px;'><strong>This rock is basalt</strong></p>",0,corr_feedback,3,train,5,,,,,,,,,,,,,,,,,,,,,,,
,,,,,,,,,,,html-button-response,384,2.0.0,2412793,5ffb8c5b60571908f3ac19fa,4,45,1291,,,,,,,,,"<img src= ""rock_img/I_Andesite_11.jpg"" style=""width:8cm; height:4.92cm;""><p>What type of rock is this?</p>",0,class_response,3,train,6,Andesite,Andesite,11,TRUE,1,1,,,,,,,,,,,,,,,,,
,,,,,,,,,,,html-button-response,385,2.0.0,2413672,5ffb8c5b60571908f3ac19fa,4,45,874,,,,,,,,,"<img src= rock_img/I_Andesite_11.jpg style=""width:8cm; height:4.92cm;""><p style='font-size: 30px; color: green;'><strong>Correct!</strong></p><p style='font-size: 30px;'><strong>This rock is andesite</strong></p>",0,corr_feedback,3,train,6,,,,,,,,,,,,,,,,,,,,,,,
,,,,,,,,,,,html-button-response,386,2.0.0,2414840,5ffb8c5b60571908f3ac19fa,4,45,1164,,,,,,,,,"<img src= ""rock_img/I_Obsidian_10.jpg"" style=""width:8cm; height:6.260000000000001cm;""><p>What type of rock is this?</p>",4,class_response,3,train,7,Obsidian,Obsidian,10,TRUE,5,5,,,,,,,,,,,,,,,,,
,,,,,,,,,,,html-button-response,387,2.0.0,2415911,5ffb8c5b60571908f3ac19fa,4,45,1067,,,,,,,,,"<img src= rock_img/I_Obsidian_10.jpg style=""width:8cm; height:6.260000000000001cm;""><p style='font-size: 30px; color: green;'><strong>Correct!</strong></p><p style='font-size: 30px;'><strong>This rock is obsidian</strong></p>",0,corr_feedback,3,train,7,,,,,,,,,,,,,,,,,,,,,,,
,,,,,,,,,,,html-button-response,388,2.0.0,2416999,5ffb8c5b60571908f3ac19fa,4,45,1083,,,,,,,,,"<img src= ""rock_img/I_Pegmatite_11.jpg"" style=""width:8cm; height:8.14cm;""><p>What type of rock is this?</p>",5,class_response,3,train,8,Pegmatite,Pegmatite,11,TRUE,6,6,,,,,,,,,,,,,,,,,
,,,,,,,,,,,html-button-response,389,2.0.0,2417785,5ffb8c5b60571908f3ac19fa,4,45,783,,,,,,,,,"<img src= rock_img/I_Pegmatite_11.jpg style=""width:8cm; height:8.14cm;""><p style='font-size: 30px; color: green;'><strong>Correct!</strong></p><p style='font-size: 30px;'><strong>This rock is pegmatite</strong></p>",0,corr_feedback,3,train,8,,,,,,,,,,,,,,,,,,,,,,,
,,,,,,,,,,,html-button-response,390,2.0.0,2420531,5ffb8c5b60571908f3ac19fa,4,45,2743,,,,,,,,,"<img src= ""rock_img/I_Gabbro_12.jpg"" style=""width:8cm; height:7.800000000000001cm;""><p>What type of rock is this?</p>",3,class_response,3,train,9,Gabbro,Gabbro,12,TRUE,4,4,,,,,,,,,,,,,,,,,
,,,,,,,,,,,html-button-response,391,2.0.0,2421440,5ffb8c5b60571908f3ac19fa,4,45,906,,,,,,,,,"<img src= rock_img/I_Gabbro_12.jpg style=""width:8cm; height:7.800000000000001cm;""><p style='font-size: 30px; color: green;'><strong>Correct!</strong></p><p style='font-size: 30px;'><strong>This rock is gabbro</strong></p>",0,corr_feedback,3,train,9,,,,,,,,,,,,,,,,,,,,,,,
,,,,,,,,,,,html-button-response,392,2.0.0,2427994,5ffb8c5b60571908f3ac19fa,4,45,6549,,,,,,,,,"<img src= ""rock_img/I_Pumice_08.jpg"" style=""width:8cm; height:6.67cm;""><p>What type of rock is this?</p>",0,class_response,3,train,10,Andesite,Pumice,8,FALSE,1,8,,,,,,,,,,,,,,,,,
,,,,,,,,,,,html-button-response,393,2.0.0,2429677,5ffb8c5b60571908f3ac19fa,4,45,1680,,,,,,,,,"<img src= rock_img/I_Pumice_08.jpg style=""width:8cm; height:6.67cm;""><p style='font-size: 30px; color: red;'><strong>Incorrect!</strong></p><p style='font-size: 30px;'><strong>This rock is pumice</strong></p>",0,corr_feedback,3,train,10,,,,,,,,,,,,,,,,,,,,,,,
,,,,,,,,,,,html-button-response,394,2.0.0,2431105,5ffb8c5b60571908f3ac19fa,4,45,1425,,,,,,,,,"<img src= ""rock_img/I_Diorite_14.jpg"" style=""width:8cm; height:5.71cm;""><p>What type of rock is this?</p>",2,class_response,3,train,11,Diorite,Diorite,14,TRUE,3,3,,,,,,,,,,,,,,,,,
,,,,,,,,,,,html-button-response,395,2.0.0,2431975,5ffb8c5b60571908f3ac19fa,4,45,866,,,,,,,,,"<img src= rock_img/I_Diorite_14.jpg style=""width:8cm; height:5.71cm;""><p style='font-size: 30px; color: green;'><strong>Correct!</strong></p><p style='font-size: 30px;'><strong>This rock is diorite</strong></p>",0,corr_feedback,3,train,11,,,,,,,,,,,,,,,,,,,,,,,
,,,,,,,,,,,html-button-response,396,2.0.0,2434550,5ffb8c5b60571908f3ac19fa,4,45,2572,,,,,,,,,"<img src= ""rock_img/I_Diorite_11.jpg"" style=""width:8cm; height:7.11cm;""><p>What type of rock is this?</p>",2,class_response,3,train,12,Diorite,Diorite,11,TRUE,3,3,,,,,,,,,,,,,,,,,
,,,,,,,,,,,html-button-response,397,2.0.0,2435323,5ffb8c5b60571908f3ac19fa,4,45,770,,,,,,,,,"<img src= rock_img/I_Diorite_11.jpg style=""width:8cm; height:7.11cm;""><p style='font-size: 30px; color: green;'><strong>Correct!</strong></p><p style='font-size: 30px;'><strong>This rock is diorite</strong></p>",0,corr_feedback,3,train,12,,,,,,,,,,,,,,,,,,,,,,,
,,,,,,,,,,,html-button-response,399,2.0.0,2437957,5ffb8c5b60571908f3ac19fa,4,45,2631,,,,,,,,,,0,start_train,,,,,,,,,,,,,,,,,,,,,,,,,,
,,,,,,,,,,,html-button-response,400,2.0.0,2443598,5ffb8c5b60571908f3ac19fa,4,45,,,,,,,,,,,,cat_selection,3,train,1,,,,,,,3612.9,2022.1,8,1,Pumice,Andesite,,,,,,,,,,,
,,,,,,,,,,,paired-cat-display,401,1.0.0,2489720,5ffb8c5b60571908f3ac19fa,4,45,,,,,,,,,,,,paired_cat_display,3,train,1,,,,,,,,,,,,,,Is more solid and as random sized specks of white and gray.,5939.5,40173,,,,,,,Has holes and is in many colors and shapes.
,,,,,,,,,,,html-button-response,402,2.0.0,2495036,5ffb8c5b60571908f3ac19fa,4,45,,,,,,,,,,,,cat_selection,3,train,2,,,,,,,4562,752.0999999,6,7,Pegmatite,Peridotite,,,,,,,,,,,
,,,,,,,,,,,paired-cat-display,403,1.0.0,2527769,5ffb8c5b60571908f3ac19fa,4,45,,,,,,,,,,,,paired_cat_display,3,train,2,,,,,,,,,,,,,Has thick stone minerals scattered throughout.,,6112.2,26614.1,Has tiny minerals clustered together. looks like fish eggs on rocks.,,,,,,
