width,height,webaudio,browser,browser_version,mobile,os,fullscreen,vsync_rate,webcam,microphone,trial_type,trial_index,plugin_version,time_elapsed,subjID,condition,stimID,rt,url,success,value,timeout,failed_images,failed_audio,failed_video,view_history,stimulus,response,trialType,cycle,phase,trial,resp,cat,token,corr,resp_num,cat_num,rt_ref,rt_paired,ref_cat_num,paired_cat_num,ref_cat,paired_cat,text_Pegmatite,text_Peridotite,time_obs,time_resp,text_Basalt,text_Gabbro,text_Andesite,text_Diorite,time_fb1,time_fb2
1280,551,TRUE,chrome,131.0.0,FALSE,Windows 10,TRUE,58.86,TRUE,TRUE,browser-check,0,2.0.0,1037,66d88375799e00b593a8655f,4,32,,,,,,,,,,,,,,,,,,,,,,,,,,,,,,,,,,,,,
,,,,,,,,,,,external-html,1,2.0.0,58570,66d88375799e00b593a8655f,4,32,57473,consent_form.html,,,,,,,,,,,,,,,,,,,,,,,,,,,,,,,,,,,
,,,,,,,,,,,fullscreen,2,2.0.0,61920,66d88375799e00b593a8655f,4,32,2345,,TRUE,,,,,,,,,,,,,,,,,,,,,,,,,,,,,,,,,,
,,,,,,,,,,,call-function,3,2.0.0,61922,66d88375799e00b593a8655f,4,32,,,,{},,,,,,,,,,,,,,,,,,,,,,,,,,,,,,,,,
,,,,,,,,,,,preload,4,2.0.0,63003,66d88375799e00b593a8655f,4,32,,,TRUE,,FALSE,[],[],[],,,,,,,,,,,,,,,,,,,,,,,,,,,,,
,,,,,,,,,,,instructions,5,2.0.0,89492,66d88375799e00b593a8655f,4,32,26488,,,,,,,,"[{""page_index"":0,""viewing_time"":5433},{""page_index"":1,""viewing_time"":13206},{""page_index"":2,""viewing_time"":7849}]",,,,,,,,,,,,,,,,,,,,,,,,,,,,
,,,,,,,,,,,html-button-response,6,2.0.0,94346,66d88375799e00b593a8655f,4,32,4852,,,,,,,,,,0,start_test,,,,,,,,,,,,,,,,,,,,,,,,,
,,,,,,,,,,,html-button-response,7,2.0.0,106862,66d88375799e00b593a8655f,4,32,12513,,,,,,,,,"<img src= ""rock_img/I_Peridotite_16.jpg"" style=""width:8cm; height:6.989999999999999cm;""><p>What type of rock is this?</p>",0,class_response,0,test,1,Andesite,Peridotite,16,FALSE,1,7,,,,,,,,,,,,,,,,
,,,,,,,,,,,html-keyboard-response,8,2.0.0,107372,66d88375799e00b593a8655f,4,32,null,,,,,,,,,<p style='font-size: 30px;'><strong>Okay</strong></p>,null,neutral_feedback,0,test,1,,,,,,,,,,,,,,,,,,,,,,
,,,,,,,,,,,html-button-response,9,2.0.0,113719,66d88375799e00b593a8655f,4,32,6345,,,,,,,,,"<img src= ""rock_img/I_Diorite_08.jpg"" style=""width:8cm; height:6.37cm;""><p>What type of rock is this?</p>",7,class_response,0,test,2,Pumice,Diorite,8,FALSE,8,3,,,,,,,,,,,,,,,,
,,,,,,,,,,,html-keyboard-response,10,2.0.0,114232,66d88375799e00b593a8655f,4,32,null,,,,,,,,,<p style='font-size: 30px;'><strong>Okay</strong></p>,null,neutral_feedback,0,test,2,,,,,,,,,,,,,,,,,,,,,,
,,,,,,,,,,,html-button-response,11,2.0.0,118120,66d88375799e00b593a8655f,4,32,3887,,,,,,,,,"<img src= ""rock_img/I_Pumice_13.jpg"" style=""width:8cm; height:8.200000000000001cm;""><p>What type of rock is this?</p>",6,class_response,0,test,3,Peridotite,Pumice,13,FALSE,7,8,,,,,,,,,,,,,,,,
,,,,,,,,,,,html-keyboard-response,12,2.0.0,118629,66d88375799e00b593a8655f,4,32,null,,,,,,,,,<p style='font-size: 30px;'><strong>Okay</strong></p>,null,neutral_feedback,0,test,3,,,,,,,,,,,,,,,,,,,,,,
,,,,,,,,,,,html-button-response,13,2.0.0,120669,66d88375799e00b593a8655f,4,32,2039,,,,,,,,,"<img src= ""rock_img/I_Obsidian_16.jpg"" style=""width:8cm; height:9.3cm;""><p>What type of rock is this?</p>",4,class_response,0,test,4,Obsidian,Obsidian,16,TRUE,5,5,,,,,,,,,,,,,,,,
,,,,,,,,,,,html-keyboard-response,14,2.0.0,121178,66d88375799e00b593a8655f,4,32,null,,,,,,,,,<p style='font-size: 30px;'><strong>Okay</strong></p>,null,neutral_feedback,0,test,4,,,,,,,,,,,,,,,,,,,,,,
,,,,,,,,,,,html-button-response,15,2.0.0,130482,66d88375799e00b593a8655f,4,32,9303,,,,,,,,,"<img src= ""rock_img/I_Andesite_09.jpg"" style=""width:8cm; height:6cm;""><p>What type of rock is this?</p>",5,class_response,0,test,5,Pegmatite,Andesite,9,FALSE,6,1,,,,,,,,,,,,,,,,
,,,,,,,,,,,html-keyboard-response,16,2.0.0,130986,66d88375799e00b593a8655f,4,32,null,,,,,,,,,<p style='font-size: 30px;'><strong>Okay</strong></p>,null,neutral_feedback,0,test,5,,,,,,,,,,,,,,,,,,,,,,
,,,,,,,,,,,html-button-response,17,2.0.0,134574,66d88375799e00b593a8655f,4,32,3587,,,,,,,,,"<img src= ""rock_img/I_Andesite_05.jpg"" style=""width:8cm; height:4.12cm;""><p>What type of rock is this?</p>",3,class_response,0,test,6,Gabbro,Andesite,5,FALSE,4,1,,,,,,,,,,,,,,,,
,,,,,,,,,,,html-keyboard-response,18,2.0.0,135083,66d88375799e00b593a8655f,4,32,null,,,,,,,,,<p style='font-size: 30px;'><strong>Okay</strong></p>,null,neutral_feedback,0,test,6,,,,,,,,,,,,,,,,,,,,,,
,,,,,,,,,,,html-button-response,19,2.0.0,139507,66d88375799e00b593a8655f,4,32,4422,,,,,,,,,"<img src= ""rock_img/I_Pumice_09.jpg"" style=""width:8cm; height:6.44cm;""><p>What type of rock is this?</p>",1,class_response,0,test,7,Basalt,Pumice,9,FALSE,2,8,,,,,,,,,,,,,,,,
,,,,,,,,,,,html-keyboard-response,20,2.0.0,140011,66d88375799e00b593a8655f,4,32,null,,,,,,,,,<p style='font-size: 30px;'><strong>Okay</strong></p>,null,neutral_feedback,0,test,7,,,,,,,,,,,,,,,,,,,,,,
,,,,,,,,,,,html-button-response,21,2.0.0,143455,66d88375799e00b593a8655f,4,32,3443,,,,,,,,,"<img src= ""rock_img/I_Obsidian_11.jpg"" style=""width:8cm; height:6.05cm;""><p>What type of rock is this?</p>",4,class_response,0,test,8,Obsidian,Obsidian,11,TRUE,5,5,,,,,,,,,,,,,,,,
,,,,,,,,,,,html-keyboard-response,22,2.0.0,143958,66d88375799e00b593a8655f,4,32,null,,,,,,,,,<p style='font-size: 30px;'><strong>Okay</strong></p>,null,neutral_feedback,0,test,8,,,,,,,,,,,,,,,,,,,,,,
,,,,,,,,,,,html-button-response,23,2.0.0,151065,66d88375799e00b593a8655f,4,32,7106,,,,,,,,,"<img src= ""rock_img/I_Pumice_02.jpg"" style=""width:8cm; height:7.3999999999999995cm;""><p>What type of rock is this?</p>",1,class_response,0,test,9,Basalt,Pumice,2,FALSE,2,8,,,,,,,,,,,,,,,,
,,,,,,,,,,,html-keyboard-response,24,2.0.0,151571,66d88375799e00b593a8655f,4,32,null,,,,,,,,,<p style='font-size: 30px;'><strong>Okay</strong></p>,null,neutral_feedback,0,test,9,,,,,,,,,,,,,,,,,,,,,,
,,,,,,,,,,,html-button-response,25,2.0.0,154689,66d88375799e00b593a8655f,4,32,3117,,,,,,,,,"<img src= ""rock_img/I_Obsidian_14.jpg"" style=""width:8cm; height:7.64cm;""><p>What type of rock is this?</p>",4,class_response,0,test,10,Obsidian,Obsidian,14,TRUE,5,5,,,,,,,,,,,,,,,,
,,,,,,,,,,,html-keyboard-response,26,2.0.0,155201,66d88375799e00b593a8655f,4,32,null,,,,,,,,,<p style='font-size: 30px;'><strong>Okay</strong></p>,null,neutral_feedback,0,test,10,,,,,,,,,,,,,,,,,,,,,,
,,,,,,,,,,,html-button-response,27,2.0.0,158958,66d88375799e00b593a8655f,4,32,3756,,,,,,,,,"<img src= ""rock_img/I_Basalt_11.jpg"" style=""width:8cm; height:5.359999999999999cm;""><p>What type of rock is this?</p>",5,class_response,0,test,11,Pegmatite,Basalt,11,FALSE,6,2,,,,,,,,,,,,,,,,
,,,,,,,,,,,html-keyboard-response,28,2.0.0,159462,66d88375799e00b593a8655f,4,32,null,,,,,,,,,<p style='font-size: 30px;'><strong>Okay</strong></p>,null,neutral_feedback,0,test,11,,,,,,,,,,,,,,,,,,,,,,
,,,,,,,,,,,html-button-response,29,2.0.0,164832,66d88375799e00b593a8655f,4,32,5369,,,,,,,,,"<img src= ""rock_img/I_Basalt_05.jpg"" style=""width:8cm; height:8.18cm;""><p>What type of rock is this?</p>",2,class_response,0,test,12,Diorite,Basalt,5,FALSE,3,2,,,,,,,,,,,,,,,,
,,,,,,,,,,,html-keyboard-response,30,2.0.0,165341,66d88375799e00b593a8655f,4,32,null,,,,,,,,,<p style='font-size: 30px;'><strong>Okay</strong></p>,null,neutral_feedback,0,test,12,,,,,,,,,,,,,,,,,,,,,,
,,,,,,,,,,,html-button-response,31,2.0.0,168694,66d88375799e00b593a8655f,4,32,3352,,,,,,,,,"<img src= ""rock_img/I_Andesite_01.jpg"" style=""width:8cm; height:5.87cm;""><p>What type of rock is this?</p>",7,class_response,0,test,13,Pumice,Andesite,1,FALSE,8,1,,,,,,,,,,,,,,,,
,,,,,,,,,,,html-keyboard-response,32,2.0.0,169203,66d88375799e00b593a8655f,4,32,null,,,,,,,,,<p style='font-size: 30px;'><strong>Okay</strong></p>,null,neutral_feedback,0,test,13,,,,,,,,,,,,,,,,,,,,,,
,,,,,,,,,,,html-button-response,33,2.0.0,175301,66d88375799e00b593a8655f,4,32,6097,,,,,,,,,"<img src= ""rock_img/I_Pegmatite_11.jpg"" style=""width:8cm; height:8.14cm;""><p>What type of rock is this?</p>",2,class_response,0,test,14,Diorite,Pegmatite,11,FALSE,3,6,,,,,,,,,,,,,,,,
,,,,,,,,,,,html-keyboard-response,34,2.0.0,175817,66d88375799e00b593a8655f,4,32,null,,,,,,,,,<p style='font-size: 30px;'><strong>Okay</strong></p>,null,neutral_feedback,0,test,14,,,,,,,,,,,,,,,,,,,,,,
,,,,,,,,,,,html-button-response,35,2.0.0,178740,66d88375799e00b593a8655f,4,32,2920,,,,,,,,,"<img src= ""rock_img/I_Pumice_15.jpg"" style=""width:8cm; height:7.86cm;""><p>What type of rock is this?</p>",6,class_response,0,test,15,Peridotite,Pumice,15,FALSE,7,8,,,,,,,,,,,,,,,,
,,,,,,,,,,,html-keyboard-response,36,2.0.0,179247,66d88375799e00b593a8655f,4,32,null,,,,,,,,,<p style='font-size: 30px;'><strong>Okay</strong></p>,null,neutral_feedback,0,test,15,,,,,,,,,,,,,,,,,,,,,,
,,,,,,,,,,,html-button-response,37,2.0.0,181328,66d88375799e00b593a8655f,4,32,1410,,,,,,,,,"<img src= ""rock_img/I_Obsidian_09.jpg"" style=""width:8cm; height:5cm;""><p>What type of rock is this?</p>",4,class_response,0,test,16,Obsidian,Obsidian,9,TRUE,5,5,,,,,,,,,,,,,,,,
,,,,,,,,,,,html-keyboard-response,38,2.0.0,181831,66d88375799e00b593a8655f,4,32,null,,,,,,,,,<p style='font-size: 30px;'><strong>Okay</strong></p>,null,neutral_feedback,0,test,16,,,,,,,,,,,,,,,,,,,,,,
,,,,,,,,,,,html-button-response,39,2.0.0,184324,66d88375799e00b593a8655f,4,32,2492,,,,,,,,,"<img src= ""rock_img/I_Obsidian_08.jpg"" style=""width:8cm; height:7.39cm;""><p>What type of rock is this?</p>",4,class_response,0,test,17,Obsidian,Obsidian,8,TRUE,5,5,,,,,,,,,,,,,,,,
,,,,,,,,,,,html-keyboard-response,40,2.0.0,184829,66d88375799e00b593a8655f,4,32,null,,,,,,,,,<p style='font-size: 30px;'><strong>Okay</strong></p>,null,neutral_feedback,0,test,17,,,,,,,,,,,,,,,,,,,,,,
,,,,,,,,,,,html-button-response,41,2.0.0,189516,66d88375799e00b593a8655f,4,32,4685,,,,,,,,,"<img src= ""rock_img/I_Pumice_06.jpg"" style=""width:8cm; height:6.9399999999999995cm;""><p>What type of rock is this?</p>",6,class_response,0,test,18,Peridotite,Pumice,6,FALSE,7,8,,,,,,,,,,,,,,,,
,,,,,,,,,,,html-keyboard-response,42,2.0.0,190025,66d88375799e00b593a8655f,4,32,null,,,,,,,,,<p style='font-size: 30px;'><strong>Okay</strong></p>,null,neutral_feedback,0,test,18,,,,,,,,,,,,,,,,,,,,,,
,,,,,,,,,,,html-button-response,43,2.0.0,194125,66d88375799e00b593a8655f,4,32,4098,,,,,,,,,"<img src= ""rock_img/I_Peridotite_15.jpg"" style=""width:8cm; height:6cm;""><p>What type of rock is this?</p>",0,class_response,0,test,19,Andesite,Peridotite,15,FALSE,1,7,,,,,,,,,,,,,,,,
,,,,,,,,,,,html-keyboard-response,44,2.0.0,194635,66d88375799e00b593a8655f,4,32,null,,,,,,,,,<p style='font-size: 30px;'><strong>Okay</strong></p>,null,neutral_feedback,0,test,19,,,,,,,,,,,,,,,,,,,,,,
,,,,,,,,,,,html-button-response,45,2.0.0,198246,66d88375799e00b593a8655f,4,32,3610,,,,,,,,,"<img src= ""rock_img/I_Pegmatite_09.jpg"" style=""width:8cm; height:4.03cm;""><p>What type of rock is this?</p>",3,class_response,0,test,20,Gabbro,Pegmatite,9,FALSE,4,6,,,,,,,,,,,,,,,,
,,,,,,,,,,,html-keyboard-response,46,2.0.0,198751,66d88375799e00b593a8655f,4,32,null,,,,,,,,,<p style='font-size: 30px;'><strong>Okay</strong></p>,null,neutral_feedback,0,test,20,,,,,,,,,,,,,,,,,,,,,,
,,,,,,,,,,,html-button-response,47,2.0.0,201499,66d88375799e00b593a8655f,4,32,2748,,,,,,,,,"<img src= ""rock_img/I_Obsidian_06.jpg"" style=""width:8cm; height:6.8cm;""><p>What type of rock is this?</p>",4,class_response,0,test,21,Obsidian,Obsidian,6,TRUE,5,5,,,,,,,,,,,,,,,,
,,,,,,,,,,,html-keyboard-response,48,2.0.0,202012,66d88375799e00b593a8655f,4,32,null,,,,,,,,,<p style='font-size: 30px;'><strong>Okay</strong></p>,null,neutral_feedback,0,test,21,,,,,,,,,,,,,,,,,,,,,,
,,,,,,,,,,,html-button-response,49,2.0.0,205007,66d88375799e00b593a8655f,4,32,2994,,,,,,,,,"<img src= ""rock_img/I_Diorite_07.jpg"" style=""width:8cm; height:5.239999999999999cm;""><p>What type of rock is this?</p>",7,class_response,0,test,22,Pumice,Diorite,7,FALSE,8,3,,,,,,,,,,,,,,,,
,,,,,,,,,,,html-keyboard-response,50,2.0.0,205512,66d88375799e00b593a8655f,4,32,null,,,,,,,,,<p style='font-size: 30px;'><strong>Okay</strong></p>,null,neutral_feedback,0,test,22,,,,,,,,,,,,,,,,,,,,,,
,,,,,,,,,,,html-button-response,51,2.0.0,209839,66d88375799e00b593a8655f,4,32,4327,,,,,,,,,"<img src= ""rock_img/I_Gabbro_05.jpg"" style=""width:8cm; height:6cm;""><p>What type of rock is this?</p>",3,class_response,0,test,23,Gabbro,Gabbro,5,TRUE,4,4,,,,,,,,,,,,,,,,
,,,,,,,,,,,html-keyboard-response,52,2.0.0,210341,66d88375799e00b593a8655f,4,32,null,,,,,,,,,<p style='font-size: 30px;'><strong>Okay</strong></p>,null,neutral_feedback,0,test,23,,,,,,,,,,,,,,,,,,,,,,
,,,,,,,,,,,html-button-response,53,2.0.0,218819,66d88375799e00b593a8655f,4,32,8477,,,,,,,,,"<img src= ""rock_img/I_Andesite_11.jpg"" style=""width:8cm; height:4.92cm;""><p>What type of rock is this?</p>",1,class_response,0,test,24,Basalt,Andesite,11,FALSE,2,1,,,,,,,,,,,,,,,,
,,,,,,,,,,,html-keyboard-response,54,2.0.0,219335,66d88375799e00b593a8655f,4,32,null,,,,,,,,,<p style='font-size: 30px;'><strong>Okay</strong></p>,null,neutral_feedback,0,test,24,,,,,,,,,,,,,,,,,,,,,,
,,,,,,,,,,,html-button-response,55,2.0.0,221433,66d88375799e00b593a8655f,4,32,2097,,,,,,,,,"<img src= ""rock_img/I_Peridotite_14.jpg"" style=""width:8cm; height:5.3cm;""><p>What type of rock is this?</p>",1,class_response,0,test,25,Basalt,Peridotite,14,FALSE,2,7,,,,,,,,,,,,,,,,
,,,,,,,,,,,html-keyboard-response,56,2.0.0,221949,66d88375799e00b593a8655f,4,32,null,,,,,,,,,<p style='font-size: 30px;'><strong>Okay</strong></p>,null,neutral_feedback,0,test,25,,,,,,,,,,,,,,,,,,,,,,
,,,,,,,,,,,html-button-response,57,2.0.0,234642,66d88375799e00b593a8655f,4,32,12692,,,,,,,,,"<img src= ""rock_img/I_Basalt_14.jpg"" style=""width:8cm; height:5.82cm;""><p>What type of rock is this?</p>",6,class_response,0,test,26,Peridotite,Basalt,14,FALSE,7,2,,,,,,,,,,,,,,,,
,,,,,,,,,,,html-keyboard-response,58,2.0.0,235153,66d88375799e00b593a8655f,4,32,null,,,,,,,,,<p style='font-size: 30px;'><strong>Okay</strong></p>,null,neutral_feedback,0,test,26,,,,,,,,,,,,,,,,,,,,,,
,,,,,,,,,,,html-button-response,59,2.0.0,238129,66d88375799e00b593a8655f,4,32,2974,,,,,,,,,"<img src= ""rock_img/I_Pegmatite_06.jpg"" style=""width:8cm; height:5.17cm;""><p>What type of rock is this?</p>",6,class_response,0,test,27,Peridotite,Pegmatite,6,FALSE,7,6,,,,,,,,,,,,,,,,
,,,,,,,,,,,html-keyboard-response,60,2.0.0,238635,66d88375799e00b593a8655f,4,32,null,,,,,,,,,<p style='font-size: 30px;'><strong>Okay</strong></p>,null,neutral_feedback,0,test,27,,,,,,,,,,,,,,,,,,,,,,
,,,,,,,,,,,html-button-response,61,2.0.0,240244,66d88375799e00b593a8655f,4,32,1608,,,,,,,,,"<img src= ""rock_img/I_Gabbro_08.jpg"" style=""width:8cm; height:5.15cm;""><p>What type of rock is this?</p>",5,class_response,0,test,28,Pegmatite,Gabbro,8,FALSE,6,4,,,,,,,,,,,,,,,,
,,,,,,,,,,,html-keyboard-response,62,2.0.0,241503,66d88375799e00b593a8655f,4,32,null,,,,,,,,,<p style='font-size: 30px;'><strong>Okay</strong></p>,null,neutral_feedback,0,test,28,,,,,,,,,,,,,,,,,,,,,,
,,,,,,,,,,,html-button-response,63,2.0.0,242848,66d88375799e00b593a8655f,4,32,1344,,,,,,,,,"<img src= ""rock_img/I_Andesite_04.jpg"" style=""width:8cm; height:5.96cm;""><p>What type of rock is this?</p>",1,class_response,0,test,29,Basalt,Andesite,4,FALSE,2,1,,,,,,,,,,,,,,,,
,,,,,,,,,,,html-keyboard-response,64,2.0.0,243354,66d88375799e00b593a8655f,4,32,null,,,,,,,,,<p style='font-size: 30px;'><strong>Okay</strong></p>,null,neutral_feedback,0,test,29,,,,,,,,,,,,,,,,,,,,,,
,,,,,,,,,,,html-button-response,65,2.0.0,246629,66d88375799e00b593a8655f,4,32,3275,,,,,,,,,"<img src= ""rock_img/I_Pegmatite_13.jpg"" style=""width:8cm; height:4.95cm;""><p>What type of rock is this?</p>",3,class_response,0,test,30,Gabbro,Pegmatite,13,FALSE,4,6,,,,,,,,,,,,,,,,
,,,,,,,,,,,html-keyboard-response,66,2.0.0,247131,66d88375799e00b593a8655f,4,32,null,,,,,,,,,<p style='font-size: 30px;'><strong>Okay</strong></p>,null,neutral_feedback,0,test,30,,,,,,,,,,,,,,,,,,,,,,
,,,,,,,,,,,html-button-response,67,2.0.0,256119,66d88375799e00b593a8655f,4,32,8987,,,,,,,,,"<img src= ""rock_img/I_Gabbro_12.jpg"" style=""width:8cm; height:7.800000000000001cm;""><p>What type of rock is this?</p>",1,class_response,0,test,31,Basalt,Gabbro,12,FALSE,2,4,,,,,,,,,,,,,,,,
,,,,,,,,,,,html-keyboard-response,68,2.0.0,256622,66d88375799e00b593a8655f,4,32,null,,,,,,,,,<p style='font-size: 30px;'><strong>Okay</strong></p>,null,neutral_feedback,0,test,31,,,,,,,,,,,,,,,,,,,,,,
,,,,,,,,,,,html-button-response,69,2.0.0,259374,66d88375799e00b593a8655f,4,32,2750,,,,,,,,,"<img src= ""rock_img/I_Basalt_04.jpg"" style=""width:8cm; height:7.53cm;""><p>What type of rock is this?</p>",3,class_response,0,test,32,Gabbro,Basalt,4,FALSE,4,2,,,,,,,,,,,,,,,,
,,,,,,,,,,,html-keyboard-response,70,2.0.0,259887,66d88375799e00b593a8655f,4,32,null,,,,,,,,,<p style='font-size: 30px;'><strong>Okay</strong></p>,null,neutral_feedback,0,test,32,,,,,,,,,,,,,,,,,,,,,,
,,,,,,,,,,,html-button-response,71,2.0.0,262861,66d88375799e00b593a8655f,4,32,2973,,,,,,,,,"<img src= ""rock_img/I_Peridotite_13.jpg"" style=""width:8cm; height:7.58cm;""><p>What type of rock is this?</p>",1,class_response,0,test,33,Basalt,Peridotite,13,FALSE,2,7,,,,,,,,,,,,,,,,
,,,,,,,,,,,html-keyboard-response,72,2.0.0,263369,66d88375799e00b593a8655f,4,32,null,,,,,,,,,<p style='font-size: 30px;'><strong>Okay</strong></p>,null,neutral_feedback,0,test,33,,,,,,,,,,,,,,,,,,,,,,
,,,,,,,,,,,html-button-response,73,2.0.0,265059,66d88375799e00b593a8655f,4,32,1689,,,,,,,,,"<img src= ""rock_img/I_Gabbro_01.jpg"" style=""width:8cm; height:5.21cm;""><p>What type of rock is this?</p>",1,class_response,0,test,34,Basalt,Gabbro,1,FALSE,2,4,,,,,,,,,,,,,,,,
,,,,,,,,,,,html-keyboard-response,74,2.0.0,265568,66d88375799e00b593a8655f,4,32,null,,,,,,,,,<p style='font-size: 30px;'><strong>Okay</strong></p>,null,neutral_feedback,0,test,34,,,,,,,,,,,,,,,,,,,,,,
,,,,,,,,,,,html-button-response,75,2.0.0,267210,66d88375799e00b593a8655f,4,32,1641,,,,,,,,,"<img src= ""rock_img/I_Diorite_10.jpg"" style=""width:8cm; height:5.949999999999999cm;""><p>What type of rock is this?</p>",1,class_response,0,test,35,Basalt,Diorite,10,FALSE,2,3,,,,,,,,,,,,,,,,
,,,,,,,,,,,html-keyboard-response,76,2.0.0,267715,66d88375799e00b593a8655f,4,32,null,,,,,,,,,<p style='font-size: 30px;'><strong>Okay</strong></p>,null,neutral_feedback,0,test,35,,,,,,,,,,,,,,,,,,,,,,
,,,,,,,,,,,html-button-response,77,2.0.0,270991,66d88375799e00b593a8655f,4,32,3275,,,,,,,,,"<img src= ""rock_img/I_Pegmatite_15.jpg"" style=""width:8cm; height:6cm;""><p>What type of rock is this?</p>",2,class_response,0,test,36,Diorite,Pegmatite,15,FALSE,3,6,,,,,,,,,,,,,,,,
,,,,,,,,,,,html-keyboard-response,78,2.0.0,271495,66d88375799e00b593a8655f,4,32,null,,,,,,,,,<p style='font-size: 30px;'><strong>Okay</strong></p>,null,neutral_feedback,0,test,36,,,,,,,,,,,,,,,,,,,,,,
,,,,,,,,,,,html-button-response,79,2.0.0,273175,66d88375799e00b593a8655f,4,32,1679,,,,,,,,,"<img src= ""rock_img/I_Andesite_10.jpg"" style=""width:8cm; height:4.16cm;""><p>What type of rock is this?</p>",1,class_response,0,test,37,Basalt,Andesite,10,FALSE,2,1,,,,,,,,,,,,,,,,
,,,,,,,,,,,html-keyboard-response,80,2.0.0,273678,66d88375799e00b593a8655f,4,32,null,,,,,,,,,<p style='font-size: 30px;'><strong>Okay</strong></p>,null,neutral_feedback,0,test,37,,,,,,,,,,,,,,,,,,,,,,
,,,,,,,,,,,html-button-response,81,2.0.0,276369,66d88375799e00b593a8655f,4,32,2690,,,,,,,,,"<img src= ""rock_img/I_Diorite_11.jpg"" style=""width:8cm; height:7.11cm;""><p>What type of rock is this?</p>",7,class_response,0,test,38,Pumice,Diorite,11,FALSE,8,3,,,,,,,,,,,,,,,,
,,,,,,,,,,,html-keyboard-response,82,2.0.0,276874,66d88375799e00b593a8655f,4,32,null,,,,,,,,,<p style='font-size: 30px;'><strong>Okay</strong></p>,null,neutral_feedback,0,test,38,,,,,,,,,,,,,,,,,,,,,,
,,,,,,,,,,,html-button-response,83,2.0.0,281832,66d88375799e00b593a8655f,4,32,4957,,,,,,,,,"<img src= ""rock_img/I_Gabbro_14.jpg"" style=""width:8cm; height:8.48cm;""><p>What type of rock is this?</p>",5,class_response,0,test,39,Pegmatite,Gabbro,14,FALSE,6,4,,,,,,,,,,,,,,,,
,,,,,,,,,,,html-keyboard-response,84,2.0.0,282337,66d88375799e00b593a8655f,4,32,null,,,,,,,,,<p style='font-size: 30px;'><strong>Okay</strong></p>,null,neutral_feedback,0,test,39,,,,,,,,,,,,,,,,,,,,,,
,,,,,,,,,,,html-button-response,85,2.0.0,286887,66d88375799e00b593a8655f,4,32,4549,,,,,,,,,"<img src= ""rock_img/I_Diorite_15.jpg"" style=""width:8cm; height:5.54cm;""><p>What type of rock is this?</p>",7,class_response,0,test,40,Pumice,Diorite,15,FALSE,8,3,,,,,,,,,,,,,,,,
,,,,,,,,,,,html-keyboard-response,86,2.0.0,287397,66d88375799e00b593a8655f,4,32,null,,,,,,,,,<p style='font-size: 30px;'><strong>Okay</strong></p>,null,neutral_feedback,0,test,40,,,,,,,,,,,,,,,,,,,,,,
,,,,,,,,,,,html-button-response,87,2.0.0,290429,66d88375799e00b593a8655f,4,32,3030,,,,,,,,,"<img src= ""rock_img/I_Basalt_09.jpg"" style=""width:8cm; height:6.2cm;""><p>What type of rock is this?</p>",5,class_response,0,test,41,Pegmatite,Basalt,9,FALSE,6,2,,,,,,,,,,,,,,,,
,,,,,,,,,,,html-keyboard-response,88,2.0.0,290945,66d88375799e00b593a8655f,4,32,null,,,,,,,,,<p style='font-size: 30px;'><strong>Okay</strong></p>,null,neutral_feedback,0,test,41,,,,,,,,,,,,,,,,,,,,,,
,,,,,,,,,,,html-button-response,89,2.0.0,292733,66d88375799e00b593a8655f,4,32,1787,,,,,,,,,"<img src= ""rock_img/I_Pegmatite_12.jpg"" style=""width:8cm; height:5.7cm;""><p>What type of rock is this?</p>",3,class_response,0,test,42,Gabbro,Pegmatite,12,FALSE,4,6,,,,,,,,,,,,,,,,
,,,,,,,,,,,html-keyboard-response,90,2.0.0,293244,66d88375799e00b593a8655f,4,32,null,,,,,,,,,<p style='font-size: 30px;'><strong>Okay</strong></p>,null,neutral_feedback,0,test,42,,,,,,,,,,,,,,,,,,,,,,
,,,,,,,,,,,html-button-response,91,2.0.0,296854,66d88375799e00b593a8655f,4,32,3609,,,,,,,,,"<img src= ""rock_img/I_Basalt_01.jpg"" style=""width:8cm; height:7.880000000000001cm;""><p>What type of rock is this?</p>",6,class_response,0,test,43,Peridotite,Basalt,1,FALSE,7,2,,,,,,,,,,,,,,,,
,,,,,,,,,,,html-keyboard-response,92,2.0.0,297356,66d88375799e00b593a8655f,4,32,null,,,,,,,,,<p style='font-size: 30px;'><strong>Okay</strong></p>,null,neutral_feedback,0,test,43,,,,,,,,,,,,,,,,,,,,,,
,,,,,,,,,,,html-button-response,93,2.0.0,299111,66d88375799e00b593a8655f,4,32,1753,,,,,,,,,"<img src= ""rock_img/I_Gabbro_09.jpg"" style=""width:8cm; height:7.279999999999999cm;""><p>What type of rock is this?</p>",6,class_response,0,test,44,Peridotite,Gabbro,9,FALSE,7,4,,,,,,,,,,,,,,,,
,,,,,,,,,,,html-keyboard-response,94,2.0.0,299620,66d88375799e00b593a8655f,4,32,null,,,,,,,,,<p style='font-size: 30px;'><strong>Okay</strong></p>,null,neutral_feedback,0,test,44,,,,,,,,,,,,,,,,,,,,,,
,,,,,,,,,,,html-button-response,95,2.0.0,304316,66d88375799e00b593a8655f,4,32,3938,,,,,,,,,"<img src= ""rock_img/I_Peridotite_12.jpg"" style=""width:8cm; height:4.54cm;""><p>What type of rock is this?</p>",0,class_response,0,test,45,Andesite,Peridotite,12,FALSE,1,7,,,,,,,,,,,,,,,,
,,,,,,,,,,,html-keyboard-response,96,2.0.0,304823,66d88375799e00b593a8655f,4,32,null,,,,,,,,,<p style='font-size: 30px;'><strong>Okay</strong></p>,null,neutral_feedback,0,test,45,,,,,,,,,,,,,,,,,,,,,,
,,,,,,,,,,,html-button-response,97,2.0.0,306719,66d88375799e00b593a8655f,4,32,1894,,,,,,,,,"<img src= ""rock_img/I_Diorite_12.jpg"" style=""width:8cm; height:4.88cm;""><p>What type of rock is this?</p>",7,class_response,0,test,46,Pumice,Diorite,12,FALSE,8,3,,,,,,,,,,,,,,,,
,,,,,,,,,,,html-keyboard-response,98,2.0.0,307221,66d88375799e00b593a8655f,4,32,null,,,,,,,,,<p style='font-size: 30px;'><strong>Okay</strong></p>,null,neutral_feedback,0,test,46,,,,,,,,,,,,,,,,,,,,,,
,,,,,,,,,,,html-button-response,99,2.0.0,314739,66d88375799e00b593a8655f,4,32,7516,,,,,,,,,"<img src= ""rock_img/I_Pumice_05.jpg"" style=""width:8cm; height:7.25cm;""><p>What type of rock is this?</p>",6,class_response,0,test,47,Peridotite,Pumice,5,FALSE,7,8,,,,,,,,,,,,,,,,
,,,,,,,,,,,html-keyboard-response,100,2.0.0,315249,66d88375799e00b593a8655f,4,32,null,,,,,,,,,<p style='font-size: 30px;'><strong>Okay</strong></p>,null,neutral_feedback,0,test,47,,,,,,,,,,,,,,,,,,,,,,
,,,,,,,,,,,html-button-response,101,2.0.0,318371,66d88375799e00b593a8655f,4,32,3121,,,,,,,,,"<img src= ""rock_img/I_Peridotite_05.jpg"" style=""width:8cm; height:7.1499999999999995cm;""><p>What type of rock is this?</p>",2,class_response,0,test,48,Diorite,Peridotite,5,FALSE,3,7,,,,,,,,,,,,,,,,
,,,,,,,,,,,html-keyboard-response,102,2.0.0,318878,66d88375799e00b593a8655f,4,32,null,,,,,,,,,<p style='font-size: 30px;'><strong>Okay</strong></p>,null,neutral_feedback,0,test,48,,,,,,,,,,,,,,,,,,,,,,
,,,,,,,,,,,instructions,103,2.0.0,345369,66d88375799e00b593a8655f,4,32,26476,,,,,,,,"[{""page_index"":0,""viewing_time"":23158},{""page_index"":1,""viewing_time"":3318}]",,,,,,,,,,,,,,,,,,,,,,,,,,,,
,,,,,,,,,,,html-button-response,104,2.0.0,348883,66d88375799e00b593a8655f,4,32,3513,,,,,,,,,,0,start_train,,,,,,,,,,,,,,,,,,,,,,,,,
,,,,,,,,,,,html-button-response,106,2.0.0,357140,66d88375799e00b593a8655f,4,32,8256,,,,,,,,,"<img src= ""rock_img/I_Pumice_04.jpg"" style=""width:8cm; height:6.819999999999999cm;""><p>What type of rock is this?</p>",6,class_response,1,train,1,Peridotite,Pumice,4,FALSE,7,8,,,,,,,,,,,,,,,,
,,,,,,,,,,,html-button-response,107,2.0.0,360199,66d88375799e00b593a8655f,4,32,3057,,,,,,,,,"<img src= rock_img/I_Pumice_04.jpg style=""width:8cm; height:6.819999999999999cm;""><p style='font-size: 30px; color: red;'><strong>Incorrect!</strong></p><p style='font-size: 30px;'><strong>This rock is pumice</strong></p>",0,corr_feedback,1,train,1,,,,,,,,,,,,,,,,,,,,,,
,,,,,,,,,,,html-button-response,108,2.0.0,365586,66d88375799e00b593a8655f,4,32,4632,,,,,,,,,"<img src= ""rock_img/I_Gabbro_16.jpg"" style=""width:8cm; height:6.44cm;""><p>What type of rock is this?</p>",6,class_response,1,train,2,Peridotite,Gabbro,16,FALSE,7,4,,,,,,,,,,,,,,,,
,,,,,,,,,,,html-button-response,109,2.0.0,372074,66d88375799e00b593a8655f,4,32,6486,,,,,,,,,"<img src= rock_img/I_Gabbro_16.jpg style=""width:8cm; height:6.44cm;""><p style='font-size: 30px; color: red;'><strong>Incorrect!</strong></p><p style='font-size: 30px;'><strong>This rock is gabbro</strong></p>",0,corr_feedback,1,train,2,,,,,,,,,,,,,,,,,,,,,,
,,,,,,,,,,,html-button-response,110,2.0.0,375266,66d88375799e00b593a8655f,4,32,3191,,,,,,,,,"<img src= ""rock_img/I_Obsidian_10.jpg"" style=""width:8cm; height:6.260000000000001cm;""><p>What type of rock is this?</p>",4,class_response,1,train,3,Obsidian,Obsidian,10,TRUE,5,5,,,,,,,,,,,,,,,,
,,,,,,,,,,,html-button-response,111,2.0.0,377934,66d88375799e00b593a8655f,4,32,2667,,,,,,,,,"<img src= rock_img/I_Obsidian_10.jpg style=""width:8cm; height:6.260000000000001cm;""><p style='font-size: 30px; color: green;'><strong>Correct!</strong></p><p style='font-size: 30px;'><strong>This rock is obsidian</strong></p>",0,corr_feedback,1,train,3,,,,,,,,,,,,,,,,,,,,,,
,,,,,,,,,,,html-button-response,112,2.0.0,380960,66d88375799e00b593a8655f,4,32,3025,,,,,,,,,"<img src= ""rock_img/I_Basalt_02.jpg"" style=""width:8cm; height:6.45cm;""><p>What type of rock is this?</p>",6,class_response,1,train,4,Peridotite,Basalt,2,FALSE,7,2,,,,,,,,,,,,,,,,
,,,,,,,,,,,html-button-response,113,2.0.0,383789,66d88375799e00b593a8655f,4,32,2827,,,,,,,,,"<img src= rock_img/I_Basalt_02.jpg style=""width:8cm; height:6.45cm;""><p style='font-size: 30px; color: red;'><strong>Incorrect!</strong></p><p style='font-size: 30px;'><strong>This rock is basalt</strong></p>",0,corr_feedback,1,train,4,,,,,,,,,,,,,,,,,,,,,,
,,,,,,,,,,,html-button-response,114,2.0.0,385458,66d88375799e00b593a8655f,4,32,1668,,,,,,,,,"<img src= ""rock_img/I_Basalt_12.jpg"" style=""width:8cm; height:6.010000000000001cm;""><p>What type of rock is this?</p>",7,class_response,1,train,5,Pumice,Basalt,12,FALSE,8,2,,,,,,,,,,,,,,,,
,,,,,,,,,,,html-button-response,115,2.0.0,390927,66d88375799e00b593a8655f,4,32,5468,,,,,,,,,"<img src= rock_img/I_Basalt_12.jpg style=""width:8cm; height:6.010000000000001cm;""><p style='font-size: 30px; color: red;'><strong>Incorrect!</strong></p><p style='font-size: 30px;'><strong>This rock is basalt</strong></p>",0,corr_feedback,1,train,5,,,,,,,,,,,,,,,,,,,,,,
,,,,,,,,,,,html-button-response,116,2.0.0,399570,66d88375799e00b593a8655f,4,32,8642,,,,,,,,,"<img src= ""rock_img/I_Andesite_02.jpg"" style=""width:8cm; height:8.5cm;""><p>What type of rock is this?</p>",6,class_response,1,train,6,Peridotite,Andesite,2,FALSE,7,1,,,,,,,,,,,,,,,,
,,,,,,,,,,,html-button-response,117,2.0.0,403231,66d88375799e00b593a8655f,4,32,3660,,,,,,,,,"<img src= rock_img/I_Andesite_02.jpg style=""width:8cm; height:8.5cm;""><p style='font-size: 30px; color: red;'><strong>Incorrect!</strong></p><p style='font-size: 30px;'><strong>This rock is andesite</strong></p>",0,corr_feedback,1,train,6,,,,,,,,,,,,,,,,,,,,,,
,,,,,,,,,,,html-button-response,118,2.0.0,411802,66d88375799e00b593a8655f,4,32,8569,,,,,,,,,"<img src= ""rock_img/I_Diorite_14.jpg"" style=""width:8cm; height:5.71cm;""><p>What type of rock is this?</p>",6,class_response,1,train,7,Peridotite,Diorite,14,FALSE,7,3,,,,,,,,,,,,,,,,
,,,,,,,,,,,html-button-response,119,2.0.0,416188,66d88375799e00b593a8655f,4,32,4385,,,,,,,,,"<img src= rock_img/I_Diorite_14.jpg style=""width:8cm; height:5.71cm;""><p style='font-size: 30px; color: red;'><strong>Incorrect!</strong></p><p style='font-size: 30px;'><strong>This rock is diorite</strong></p>",0,corr_feedback,1,train,7,,,,,,,,,,,,,,,,,,,,,,
,,,,,,,,,,,html-button-response,120,2.0.0,418166,66d88375799e00b593a8655f,4,32,1977,,,,,,,,,"<img src= ""rock_img/I_Peridotite_02.jpg"" style=""width:8cm; height:5.859999999999999cm;""><p>What type of rock is this?</p>",6,class_response,1,train,8,Peridotite,Peridotite,2,TRUE,7,7,,,,,,,,,,,,,,,,
,,,,,,,,,,,html-button-response,121,2.0.0,422386,66d88375799e00b593a8655f,4,32,4219,,,,,,,,,"<img src= rock_img/I_Peridotite_02.jpg style=""width:8cm; height:5.859999999999999cm;""><p style='font-size: 30px; color: green;'><strong>Correct!</strong></p><p style='font-size: 30px;'><strong>This rock is peridotite</strong></p>",0,corr_feedback,1,train,8,,,,,,,,,,,,,,,,,,,,,,
,,,,,,,,,,,html-button-response,122,2.0.0,429288,66d88375799e00b593a8655f,4,32,6147,,,,,,,,,"<img src= ""rock_img/I_Diorite_13.jpg"" style=""width:8cm; height:6.29cm;""><p>What type of rock is this?</p>",5,class_response,1,train,9,Pegmatite,Diorite,13,FALSE,6,3,,,,,,,,,,,,,,,,
,,,,,,,,,,,html-button-response,123,2.0.0,436672,66d88375799e00b593a8655f,4,32,7383,,,,,,,,,"<img src= rock_img/I_Diorite_13.jpg style=""width:8cm; height:6.29cm;""><p style='font-size: 30px; color: red;'><strong>Incorrect!</strong></p><p style='font-size: 30px;'><strong>This rock is diorite</strong></p>",0,corr_feedback,1,train,9,,,,,,,,,,,,,,,,,,,,,,
,,,,,,,,,,,html-button-response,124,2.0.0,440892,66d88375799e00b593a8655f,4,32,4219,,,,,,,,,"<img src= ""rock_img/I_Peridotite_04.jpg"" style=""width:8cm; height:6.680000000000001cm;""><p>What type of rock is this?</p>",5,class_response,1,train,10,Pegmatite,Peridotite,4,FALSE,6,7,,,,,,,,,,,,,,,,
,,,,,,,,,,,html-button-response,125,2.0.0,446896,66d88375799e00b593a8655f,4,32,6003,,,,,,,,,"<img src= rock_img/I_Peridotite_04.jpg style=""width:8cm; height:6.680000000000001cm;""><p style='font-size: 30px; color: red;'><strong>Incorrect!</strong></p><p style='font-size: 30px;'><strong>This rock is peridotite</strong></p>",0,corr_feedback,1,train,10,,,,,,,,,,,,,,,,,,,,,,
,,,,,,,,,,,html-button-response,126,2.0.0,449610,66d88375799e00b593a8655f,4,32,2713,,,,,,,,,"<img src= ""rock_img/I_Pegmatite_05.jpg"" style=""width:8cm; height:7.300000000000001cm;""><p>What type of rock is this?</p>",4,class_response,1,train,11,Obsidian,Pegmatite,5,FALSE,5,6,,,,,,,,,,,,,,,,
,,,,,,,,,,,html-button-response,127,2.0.0,455781,66d88375799e00b593a8655f,4,32,6170,,,,,,,,,"<img src= rock_img/I_Pegmatite_05.jpg style=""width:8cm; height:7.300000000000001cm;""><p style='font-size: 30px; color: red;'><strong>Incorrect!</strong></p><p style='font-size: 30px;'><strong>This rock is pegmatite</strong></p>",0,corr_feedback,1,train,11,,,,,,,,,,,,,,,,,,,,,,
,,,,,,,,,,,html-button-response,128,2.0.0,458106,66d88375799e00b593a8655f,4,32,2324,,,,,,,,,"<img src= ""rock_img/I_Pumice_08.jpg"" style=""width:8cm; height:6.67cm;""><p>What type of rock is this?</p>",7,class_response,1,train,12,Pumice,Pumice,8,TRUE,8,8,,,,,,,,,,,,,,,,
,,,,,,,,,,,html-button-response,129,2.0.0,459308,66d88375799e00b593a8655f,4,32,1201,,,,,,,,,"<img src= rock_img/I_Pumice_08.jpg style=""width:8cm; height:6.67cm;""><p style='font-size: 30px; color: green;'><strong>Correct!</strong></p><p style='font-size: 30px;'><strong>This rock is pumice</strong></p>",0,corr_feedback,1,train,12,,,,,,,,,,,,,,,,,,,,,,
,,,,,,,,,,,instructions,130,2.0.0,526430,66d88375799e00b593a8655f,4,32,67041,,,,,,,,"[{""page_index"":0,""viewing_time"":15538},{""page_index"":1,""viewing_time"":21406},{""page_index"":2,""viewing_time"":20985},{""page_index"":3,""viewing_time"":9112}]",,,,,,,,,,,,,,,,,,,,,,,,,,,,
,,,,,,,,,,,html-button-response,131,2.0.0,527576,66d88375799e00b593a8655f,4,32,1144,,,,,,,,,,0,start_train,,,,,,,,,,,,,,,,,,,,,,,,,
,,,,,,,,,,,html-button-response,132,2.0.0,541207,66d88375799e00b593a8655f,4,32,,,,,,,,,,,,cat_selection,1,train,1,,,,,,,8446.6,5183.7,6,7,Pegmatite,Peridotite,,,,,,,,,,
,,,,,,,,,,,paired-cat-display,133,1.0.0,653418,66d88375799e00b593a8655f,4,32,,,,,,,,,,,,paired_cat_display,1,train,1,,,,,,,,,,,,,"Pegmatite seems to have irregular shapes and odd shaped discolorations. Splotchy is a word that comes to mind. The colors have some significant contrast, and the splotches seem to be darker in color.","For Peridotite, I noticed speckled patterns in some different shades. ",16604.3,95603.7,,,,,,
,,,,,,,,,,,html-button-response,134,2.0.0,706374,66d88375799e00b593a8655f,4,32,,,,,,,,,,,,cat_selection,1,train,2,,,,,,,16736.5,36218.6,2,4,Basalt,Gabbro,,,,,,,,,,
,,,,,,,,,,,paired-cat-display,135,1.0.0,836944,66d88375799e00b593a8655f,4,32,,,,,,,,,,,,paired_cat_display,1,train,2,,,,,,,,,,,,,,,12823.6,117744.5,"On some of the Basalt samples, the rocks look like they could be slightly smooth. There seems to be less detailed speckles throughout the rocks. They seem more monochromatic. ","Gabbro seems to have an interesting texture to the surface. The colors seem to range from grey to brown, so I think that texture might be what sets Gabbro apart. ",,,,
,,,,,,,,,,,html-button-response,136,2.0.0,851853,66d88375799e00b593a8655f,4,32,,,,,,,,,,,,cat_selection,1,train,3,,,,,,,13810.1,1097.4,1,3,Andesite,Diorite,,,,,,,,,,
,,,,,,,,,,,paired-cat-display,137,1.0.0,1000035,66d88375799e00b593a8655f,4,32,,,,,,,,,,,,paired_cat_display,1,train,3,,,,,,,,,,,,,,,8554.1,139625.8,,,Andesite appears to have unique colors and speckles. The colors are varied. The texture looks interesting. ,Diorite seems to have some glossy effect that might set it apart from other rocks. Intense and consistent speckling throughout.,,
,,,,,,,,,,,instructions,138,2.0.0,1025408,66d88375799e00b593a8655f,4,32,25372,,,,,,,,"[{""page_index"":0,""viewing_time"":8917},{""page_index"":1,""viewing_time"":16455}]",,,,,,,,,,,,,,,,,,,,,,,,,,,,
,,,,,,,,,,,html-button-response,139,2.0.0,1027429,66d88375799e00b593a8655f,4,32,2019,,,,,,,,,,0,start_test,,,,,,,,,,,,,,,,,,,,,,,,,
,,,,,,,,,,,html-button-response,140,2.0.0,1060151,66d88375799e00b593a8655f,4,32,32721,,,,,,,,,"<img src= ""rock_img/I_Andesite_10.jpg"" style=""width:8cm; height:4.16cm;""><p>What type of rock is this?</p>",5,class_response,1,test,1,Pegmatite,Andesite,10,FALSE,6,1,,,,,,,,,,,,,,,,
,,,,,,,,,,,html-keyboard-response,141,2.0.0,1060661,66d88375799e00b593a8655f,4,32,null,,,,,,,,,<p style='font-size: 30px;'><strong>Okay</strong></p>,null,neutral_feedback,1,test,1,,,,,,,,,,,,,,,,,,,,,,
,,,,,,,,,,,html-button-response,142,2.0.0,1066035,66d88375799e00b593a8655f,4,32,5373,,,,,,,,,"<img src= ""rock_img/I_Basalt_04.jpg"" style=""width:8cm; height:7.53cm;""><p>What type of rock is this?</p>",1,class_response,1,test,2,Basalt,Basalt,4,TRUE,2,2,,,,,,,,,,,,,,,,
,,,,,,,,,,,html-keyboard-response,143,2.0.0,1066538,66d88375799e00b593a8655f,4,32,null,,,,,,,,,<p style='font-size: 30px;'><strong>Okay</strong></p>,null,neutral_feedback,1,test,2,,,,,,,,,,,,,,,,,,,,,,
,,,,,,,,,,,html-button-response,144,2.0.0,1068782,66d88375799e00b593a8655f,4,32,2242,,,,,,,,,"<img src= ""rock_img/I_Obsidian_16.jpg"" style=""width:8cm; height:9.3cm;""><p>What type of rock is this?</p>",4,class_response,1,test,3,Obsidian,Obsidian,16,TRUE,5,5,,,,,,,,,,,,,,,,
,,,,,,,,,,,html-keyboard-response,145,2.0.0,1069285,66d88375799e00b593a8655f,4,32,null,,,,,,,,,<p style='font-size: 30px;'><strong>Okay</strong></p>,null,neutral_feedback,1,test,3,,,,,,,,,,,,,,,,,,,,,,
,,,,,,,,,,,html-button-response,146,2.0.0,1071536,66d88375799e00b593a8655f,4,32,2249,,,,,,,,,"<img src= ""rock_img/I_Obsidian_11.jpg"" style=""width:8cm; height:6.05cm;""><p>What type of rock is this?</p>",4,class_response,1,test,4,Obsidian,Obsidian,11,TRUE,5,5,,,,,,,,,,,,,,,,
,,,,,,,,,,,html-keyboard-response,147,2.0.0,1072049,66d88375799e00b593a8655f,4,32,null,,,,,,,,,<p style='font-size: 30px;'><strong>Okay</strong></p>,null,neutral_feedback,1,test,4,,,,,,,,,,,,,,,,,,,,,,
,,,,,,,,,,,html-button-response,148,2.0.0,1086605,66d88375799e00b593a8655f,4,32,14554,,,,,,,,,"<img src= ""rock_img/I_Peridotite_16.jpg"" style=""width:8cm; height:6.989999999999999cm;""><p>What type of rock is this?</p>",0,class_response,1,test,5,Andesite,Peridotite,16,FALSE,1,7,,,,,,,,,,,,,,,,
,,,,,,,,,,,html-keyboard-response,149,2.0.0,1087121,66d88375799e00b593a8655f,4,32,null,,,,,,,,,<p style='font-size: 30px;'><strong>Okay</strong></p>,null,neutral_feedback,1,test,5,,,,,,,,,,,,,,,,,,,,,,
,,,,,,,,,,,html-button-response,150,2.0.0,1091826,66d88375799e00b593a8655f,4,32,4704,,,,,,,,,"<img src= ""rock_img/I_Pumice_02.jpg"" style=""width:8cm; height:7.3999999999999995cm;""><p>What type of rock is this?</p>",7,class_response,1,test,6,Pumice,Pumice,2,TRUE,8,8,,,,,,,,,,,,,,,,
,,,,,,,,,,,html-keyboard-response,151,2.0.0,1092334,66d88375799e00b593a8655f,4,32,null,,,,,,,,,<p style='font-size: 30px;'><strong>Okay</strong></p>,null,neutral_feedback,1,test,6,,,,,,,,,,,,,,,,,,,,,,
,,,,,,,,,,,html-button-response,152,2.0.0,1129599,66d88375799e00b593a8655f,4,32,37263,,,,,,,,,"<img src= ""rock_img/I_Diorite_12.jpg"" style=""width:8cm; height:4.88cm;""><p>What type of rock is this?</p>",5,class_response,1,test,7,Pegmatite,Diorite,12,FALSE,6,3,,,,,,,,,,,,,,,,
,,,,,,,,,,,html-keyboard-response,153,2.0.0,1130103,66d88375799e00b593a8655f,4,32,null,,,,,,,,,<p style='font-size: 30px;'><strong>Okay</strong></p>,null,neutral_feedback,1,test,7,,,,,,,,,,,,,,,,,,,,,,
,,,,,,,,,,,html-button-response,154,2.0.0,1135799,66d88375799e00b593a8655f,4,32,5695,,,,,,,,,"<img src= ""rock_img/I_Peridotite_13.jpg"" style=""width:8cm; height:7.58cm;""><p>What type of rock is this?</p>",0,class_response,1,test,8,Andesite,Peridotite,13,FALSE,1,7,,,,,,,,,,,,,,,,
,,,,,,,,,,,html-keyboard-response,155,2.0.0,1136315,66d88375799e00b593a8655f,4,32,null,,,,,,,,,<p style='font-size: 30px;'><strong>Okay</strong></p>,null,neutral_feedback,1,test,8,,,,,,,,,,,,,,,,,,,,,,
,,,,,,,,,,,html-button-response,156,2.0.0,1151330,66d88375799e00b593a8655f,4,32,15014,,,,,,,,,"<img src= ""rock_img/I_Gabbro_05.jpg"" style=""width:8cm; height:6cm;""><p>What type of rock is this?</p>",3,class_response,1,test,9,Gabbro,Gabbro,5,TRUE,4,4,,,,,,,,,,,,,,,,
,,,,,,,,,,,html-keyboard-response,157,2.0.0,1151832,66d88375799e00b593a8655f,4,32,null,,,,,,,,,<p style='font-size: 30px;'><strong>Okay</strong></p>,null,neutral_feedback,1,test,9,,,,,,,,,,,,,,,,,,,,,,
,,,,,,,,,,,html-button-response,158,2.0.0,1155734,66d88375799e00b593a8655f,4,32,3900,,,,,,,,,"<img src= ""rock_img/I_Gabbro_12.jpg"" style=""width:8cm; height:7.800000000000001cm;""><p>What type of rock is this?</p>",1,class_response,1,test,10,Basalt,Gabbro,12,FALSE,2,4,,,,,,,,,,,,,,,,
,,,,,,,,,,,html-keyboard-response,159,2.0.0,1156246,66d88375799e00b593a8655f,4,32,null,,,,,,,,,<p style='font-size: 30px;'><strong>Okay</strong></p>,null,neutral_feedback,1,test,10,,,,,,,,,,,,,,,,,,,,,,
,,,,,,,,,,,html-button-response,160,2.0.0,1174592,66d88375799e00b593a8655f,4,32,18345,,,,,,,,,"<img src= ""rock_img/I_Gabbro_14.jpg"" style=""width:8cm; height:8.48cm;""><p>What type of rock is this?</p>",5,class_response,1,test,11,Pegmatite,Gabbro,14,FALSE,6,4,,,,,,,,,,,,,,,,
,,,,,,,,,,,html-keyboard-response,161,2.0.0,1175100,66d88375799e00b593a8655f,4,32,null,,,,,,,,,<p style='font-size: 30px;'><strong>Okay</strong></p>,null,neutral_feedback,1,test,11,,,,,,,,,,,,,,,,,,,,,,
,,,,,,,,,,,html-button-response,162,2.0.0,1186664,66d88375799e00b593a8655f,4,32,11563,,,,,,,,,"<img src= ""rock_img/I_Andesite_04.jpg"" style=""width:8cm; height:5.96cm;""><p>What type of rock is this?</p>",7,class_response,1,test,12,Pumice,Andesite,4,FALSE,8,1,,,,,,,,,,,,,,,,
,,,,,,,,,,,html-keyboard-response,163,2.0.0,1187172,66d88375799e00b593a8655f,4,32,null,,,,,,,,,<p style='font-size: 30px;'><strong>Okay</strong></p>,null,neutral_feedback,1,test,12,,,,,,,,,,,,,,,,,,,,,,
,,,,,,,,,,,html-button-response,164,2.0.0,1188592,66d88375799e00b593a8655f,4,32,1419,,,,,,,,,"<img src= ""rock_img/I_Pumice_13.jpg"" style=""width:8cm; height:8.200000000000001cm;""><p>What type of rock is this?</p>",7,class_response,1,test,13,Pumice,Pumice,13,TRUE,8,8,,,,,,,,,,,,,,,,
,,,,,,,,,,,html-keyboard-response,165,2.0.0,1189103,66d88375799e00b593a8655f,4,32,null,,,,,,,,,<p style='font-size: 30px;'><strong>Okay</strong></p>,null,neutral_feedback,1,test,13,,,,,,,,,,,,,,,,,,,,,,
,,,,,,,,,,,html-button-response,166,2.0.0,1191101,66d88375799e00b593a8655f,4,32,1997,,,,,,,,,"<img src= ""rock_img/I_Obsidian_06.jpg"" style=""width:8cm; height:6.8cm;""><p>What type of rock is this?</p>",4,class_response,1,test,14,Obsidian,Obsidian,6,TRUE,5,5,,,,,,,,,,,,,,,,
,,,,,,,,,,,html-keyboard-response,167,2.0.0,1191602,66d88375799e00b593a8655f,4,32,null,,,,,,,,,<p style='font-size: 30px;'><strong>Okay</strong></p>,null,neutral_feedback,1,test,14,,,,,,,,,,,,,,,,,,,,,,
,,,,,,,,,,,html-button-response,168,2.0.0,1204478,66d88375799e00b593a8655f,4,32,12875,,,,,,,,,"<img src= ""rock_img/I_Pegmatite_06.jpg"" style=""width:8cm; height:5.17cm;""><p>What type of rock is this?</p>",2,class_response,1,test,15,Diorite,Pegmatite,6,FALSE,3,6,,,,,,,,,,,,,,,,
,,,,,,,,,,,html-keyboard-response,169,2.0.0,1204991,66d88375799e00b593a8655f,4,32,null,,,,,,,,,<p style='font-size: 30px;'><strong>Okay</strong></p>,null,neutral_feedback,1,test,15,,,,,,,,,,,,,,,,,,,,,,
,,,,,,,,,,,html-button-response,170,2.0.0,1206414,66d88375799e00b593a8655f,4,32,1422,,,,,,,,,"<img src= ""rock_img/I_Pegmatite_11.jpg"" style=""width:8cm; height:8.14cm;""><p>What type of rock is this?</p>",2,class_response,1,test,16,Diorite,Pegmatite,11,FALSE,3,6,,,,,,,,,,,,,,,,
,,,,,,,,,,,html-keyboard-response,171,2.0.0,1206922,66d88375799e00b593a8655f,4,32,null,,,,,,,,,<p style='font-size: 30px;'><strong>Okay</strong></p>,null,neutral_feedback,1,test,16,,,,,,,,,,,,,,,,,,,,,,
,,,,,,,,,,,html-button-response,172,2.0.0,1212571,66d88375799e00b593a8655f,4,32,5649,,,,,,,,,"<img src= ""rock_img/I_Pegmatite_13.jpg"" style=""width:8cm; height:4.95cm;""><p>What type of rock is this?</p>",0,class_response,1,test,17,Andesite,Pegmatite,13,FALSE,1,6,,,,,,,,,,,,,,,,
,,,,,,,,,,,html-keyboard-response,173,2.0.0,1213086,66d88375799e00b593a8655f,4,32,null,,,,,,,,,<p style='font-size: 30px;'><strong>Okay</strong></p>,null,neutral_feedback,1,test,17,,,,,,,,,,,,,,,,,,,,,,
,,,,,,,,,,,html-button-response,174,2.0.0,1225191,66d88375799e00b593a8655f,4,32,12104,,,,,,,,,"<img src= ""rock_img/I_Andesite_11.jpg"" style=""width:8cm; height:4.92cm;""><p>What type of rock is this?</p>",3,class_response,1,test,18,Gabbro,Andesite,11,FALSE,4,1,,,,,,,,,,,,,,,,
,,,,,,,,,,,html-keyboard-response,175,2.0.0,1225706,66d88375799e00b593a8655f,4,32,null,,,,,,,,,<p style='font-size: 30px;'><strong>Okay</strong></p>,null,neutral_feedback,1,test,18,,,,,,,,,,,,,,,,,,,,,,
,,,,,,,,,,,html-button-response,176,2.0.0,1234266,66d88375799e00b593a8655f,4,32,8558,,,,,,,,,"<img src= ""rock_img/I_Diorite_07.jpg"" style=""width:8cm; height:5.239999999999999cm;""><p>What type of rock is this?</p>",6,class_response,1,test,19,Peridotite,Diorite,7,FALSE,7,3,,,,,,,,,,,,,,,,
,,,,,,,,,,,html-keyboard-response,177,2.0.0,1234768,66d88375799e00b593a8655f,4,32,null,,,,,,,,,<p style='font-size: 30px;'><strong>Okay</strong></p>,null,neutral_feedback,1,test,19,,,,,,,,,,,,,,,,,,,,,,
,,,,,,,,,,,html-button-response,178,2.0.0,1240325,66d88375799e00b593a8655f,4,32,5557,,,,,,,,,"<img src= ""rock_img/I_Peridotite_12.jpg"" style=""width:8cm; height:4.54cm;""><p>What type of rock is this?</p>",5,class_response,1,test,20,Pegmatite,Peridotite,12,FALSE,6,7,,,,,,,,,,,,,,,,
,,,,,,,,,,,html-keyboard-response,179,2.0.0,1240829,66d88375799e00b593a8655f,4,32,null,,,,,,,,,<p style='font-size: 30px;'><strong>Okay</strong></p>,null,neutral_feedback,1,test,20,,,,,,,,,,,,,,,,,,,,,,
,,,,,,,,,,,html-button-response,180,2.0.0,1249419,66d88375799e00b593a8655f,4,32,8588,,,,,,,,,"<img src= ""rock_img/I_Andesite_05.jpg"" style=""width:8cm; height:4.12cm;""><p>What type of rock is this?</p>",5,class_response,1,test,21,Pegmatite,Andesite,5,FALSE,6,1,,,,,,,,,,,,,,,,
,,,,,,,,,,,html-keyboard-response,181,2.0.0,1249921,66d88375799e00b593a8655f,4,32,null,,,,,,,,,<p style='font-size: 30px;'><strong>Okay</strong></p>,null,neutral_feedback,1,test,21,,,,,,,,,,,,,,,,,,,,,,
,,,,,,,,,,,html-button-response,182,2.0.0,1251797,66d88375799e00b593a8655f,4,32,1875,,,,,,,,,"<img src= ""rock_img/I_Pumice_15.jpg"" style=""width:8cm; height:7.86cm;""><p>What type of rock is this?</p>",7,class_response,1,test,22,Pumice,Pumice,15,TRUE,8,8,,,,,,,,,,,,,,,,
,,,,,,,,,,,html-keyboard-response,183,2.0.0,1252301,66d88375799e00b593a8655f,4,32,null,,,,,,,,,<p style='font-size: 30px;'><strong>Okay</strong></p>,null,neutral_feedback,1,test,22,,,,,,,,,,,,,,,,,,,,,,
,,,,,,,,,,,html-button-response,184,2.0.0,1253689,66d88375799e00b593a8655f,4,32,1387,,,,,,,,,"<img src= ""rock_img/I_Pumice_09.jpg"" style=""width:8cm; height:6.44cm;""><p>What type of rock is this?</p>",7,class_response,1,test,23,Pumice,Pumice,9,TRUE,8,8,,,,,,,,,,,,,,,,
,,,,,,,,,,,html-keyboard-response,185,2.0.0,1254199,66d88375799e00b593a8655f,4,32,null,,,,,,,,,<p style='font-size: 30px;'><strong>Okay</strong></p>,null,neutral_feedback,1,test,23,,,,,,,,,,,,,,,,,,,,,,
,,,,,,,,,,,html-button-response,186,2.0.0,1259014,66d88375799e00b593a8655f,4,32,4814,,,,,,,,,"<img src= ""rock_img/I_Diorite_10.jpg"" style=""width:8cm; height:5.949999999999999cm;""><p>What type of rock is this?</p>",7,class_response,1,test,24,Pumice,Diorite,10,FALSE,8,3,,,,,,,,,,,,,,,,
,,,,,,,,,,,html-keyboard-response,187,2.0.0,1259529,66d88375799e00b593a8655f,4,32,null,,,,,,,,,<p style='font-size: 30px;'><strong>Okay</strong></p>,null,neutral_feedback,1,test,24,,,,,,,,,,,,,,,,,,,,,,
,,,,,,,,,,,html-button-response,188,2.0.0,1260979,66d88375799e00b593a8655f,4,32,1449,,,,,,,,,"<img src= ""rock_img/I_Basalt_09.jpg"" style=""width:8cm; height:6.2cm;""><p>What type of rock is this?</p>",1,class_response,1,test,25,Basalt,Basalt,9,TRUE,2,2,,,,,,,,,,,,,,,,
,,,,,,,,,,,html-keyboard-response,189,2.0.0,1261495,66d88375799e00b593a8655f,4,32,null,,,,,,,,,<p style='font-size: 30px;'><strong>Okay</strong></p>,null,neutral_feedback,1,test,25,,,,,,,,,,,,,,,,,,,,,,
,,,,,,,,,,,html-button-response,190,2.0.0,1269877,66d88375799e00b593a8655f,4,32,8381,,,,,,,,,"<img src= ""rock_img/I_Basalt_14.jpg"" style=""width:8cm; height:5.82cm;""><p>What type of rock is this?</p>",5,class_response,1,test,26,Pegmatite,Basalt,14,FALSE,6,2,,,,,,,,,,,,,,,,
,,,,,,,,,,,html-keyboard-response,191,2.0.0,1270387,66d88375799e00b593a8655f,4,32,null,,,,,,,,,<p style='font-size: 30px;'><strong>Okay</strong></p>,null,neutral_feedback,1,test,26,,,,,,,,,,,,,,,,,,,,,,
,,,,,,,,,,,html-button-response,192,2.0.0,1272023,66d88375799e00b593a8655f,4,32,1635,,,,,,,,,"<img src= ""rock_img/I_Obsidian_14.jpg"" style=""width:8cm; height:7.64cm;""><p>What type of rock is this?</p>",4,class_response,1,test,27,Obsidian,Obsidian,14,TRUE,5,5,,,,,,,,,,,,,,,,
,,,,,,,,,,,html-keyboard-response,193,2.0.0,1272535,66d88375799e00b593a8655f,4,32,null,,,,,,,,,<p style='font-size: 30px;'><strong>Okay</strong></p>,null,neutral_feedback,1,test,27,,,,,,,,,,,,,,,,,,,,,,
,,,,,,,,,,,html-button-response,194,2.0.0,1275867,66d88375799e00b593a8655f,4,32,3331,,,,,,,,,"<img src= ""rock_img/I_Andesite_09.jpg"" style=""width:8cm; height:6cm;""><p>What type of rock is this?</p>",1,class_response,1,test,28,Basalt,Andesite,9,FALSE,2,1,,,,,,,,,,,,,,,,
,,,,,,,,,,,html-keyboard-response,195,2.0.0,1276382,66d88375799e00b593a8655f,4,32,null,,,,,,,,,<p style='font-size: 30px;'><strong>Okay</strong></p>,null,neutral_feedback,1,test,28,,,,,,,,,,,,,,,,,,,,,,
,,,,,,,,,,,html-button-response,196,2.0.0,1288721,66d88375799e00b593a8655f,4,32,12338,,,,,,,,,"<img src= ""rock_img/I_Pegmatite_15.jpg"" style=""width:8cm; height:6cm;""><p>What type of rock is this?</p>",2,class_response,1,test,29,Diorite,Pegmatite,15,FALSE,3,6,,,,,,,,,,,,,,,,
,,,,,,,,,,,html-keyboard-response,197,2.0.0,1289223,66d88375799e00b593a8655f,4,32,null,,,,,,,,,<p style='font-size: 30px;'><strong>Okay</strong></p>,null,neutral_feedback,1,test,29,,,,,,,,,,,,,,,,,,,,,,
,,,,,,,,,,,html-button-response,198,2.0.0,1290790,66d88375799e00b593a8655f,4,32,1566,,,,,,,,,"<img src= ""rock_img/I_Pumice_05.jpg"" style=""width:8cm; height:7.25cm;""><p>What type of rock is this?</p>",7,class_response,1,test,30,Pumice,Pumice,5,TRUE,8,8,,,,,,,,,,,,,,,,
,,,,,,,,,,,html-keyboard-response,199,2.0.0,1291302,66d88375799e00b593a8655f,4,32,null,,,,,,,,,<p style='font-size: 30px;'><strong>Okay</strong></p>,null,neutral_feedback,1,test,30,,,,,,,,,,,,,,,,,,,,,,
,,,,,,,,,,,html-button-response,200,2.0.0,1303426,66d88375799e00b593a8655f,4,32,12122,,,,,,,,,"<img src= ""rock_img/I_Basalt_11.jpg"" style=""width:8cm; height:5.359999999999999cm;""><p>What type of rock is this?</p>",3,class_response,1,test,31,Gabbro,Basalt,11,FALSE,4,2,,,,,,,,,,,,,,,,
,,,,,,,,,,,html-keyboard-response,201,2.0.0,1303941,66d88375799e00b593a8655f,4,32,null,,,,,,,,,<p style='font-size: 30px;'><strong>Okay</strong></p>,null,neutral_feedback,1,test,31,,,,,,,,,,,,,,,,,,,,,,
,,,,,,,,,,,html-button-response,202,2.0.0,1306438,66d88375799e00b593a8655f,4,32,2496,,,,,,,,,"<img src= ""rock_img/I_Diorite_11.jpg"" style=""width:8cm; height:7.11cm;""><p>What type of rock is this?</p>",6,class_response,1,test,32,Peridotite,Diorite,11,FALSE,7,3,,,,,,,,,,,,,,,,
,,,,,,,,,,,html-keyboard-response,203,2.0.0,1306940,66d88375799e00b593a8655f,4,32,null,,,,,,,,,<p style='font-size: 30px;'><strong>Okay</strong></p>,null,neutral_feedback,1,test,32,,,,,,,,,,,,,,,,,,,,,,
,,,,,,,,,,,html-button-response,204,2.0.0,1308235,66d88375799e00b593a8655f,4,32,1294,,,,,,,,,"<img src= ""rock_img/I_Diorite_08.jpg"" style=""width:8cm; height:6.37cm;""><p>What type of rock is this?</p>",5,class_response,1,test,33,Pegmatite,Diorite,8,FALSE,6,3,,,,,,,,,,,,,,,,
,,,,,,,,,,,html-keyboard-response,205,2.0.0,1308739,66d88375799e00b593a8655f,4,32,null,,,,,,,,,<p style='font-size: 30px;'><strong>Okay</strong></p>,null,neutral_feedback,1,test,33,,,,,,,,,,,,,,,,,,,,,,
,,,,,,,,,,,html-button-response,206,2.0.0,1316237,66d88375799e00b593a8655f,4,32,7497,,,,,,,,,"<img src= ""rock_img/I_Peridotite_05.jpg"" style=""width:8cm; height:7.1499999999999995cm;""><p>What type of rock is this?</p>",0,class_response,1,test,34,Andesite,Peridotite,5,FALSE,1,7,,,,,,,,,,,,,,,,
,,,,,,,,,,,html-keyboard-response,207,2.0.0,1316749,66d88375799e00b593a8655f,4,32,null,,,,,,,,,<p style='font-size: 30px;'><strong>Okay</strong></p>,null,neutral_feedback,1,test,34,,,,,,,,,,,,,,,,,,,,,,
,,,,,,,,,,,html-button-response,208,2.0.0,1322380,66d88375799e00b593a8655f,4,32,5629,,,,,,,,,"<img src= ""rock_img/I_Gabbro_01.jpg"" style=""width:8cm; height:5.21cm;""><p>What type of rock is this?</p>",5,class_response,1,test,35,Pegmatite,Gabbro,1,FALSE,6,4,,,,,,,,,,,,,,,,
,,,,,,,,,,,html-keyboard-response,209,2.0.0,1322893,66d88375799e00b593a8655f,4,32,null,,,,,,,,,<p style='font-size: 30px;'><strong>Okay</strong></p>,null,neutral_feedback,1,test,35,,,,,,,,,,,,,,,,,,,,,,
,,,,,,,,,,,html-button-response,210,2.0.0,1326078,66d88375799e00b593a8655f,4,32,3184,,,,,,,,,"<img src= ""rock_img/I_Pegmatite_09.jpg"" style=""width:8cm; height:4.03cm;""><p>What type of rock is this?</p>",2,class_response,1,test,36,Diorite,Pegmatite,9,FALSE,3,6,,,,,,,,,,,,,,,,
,,,,,,,,,,,html-keyboard-response,211,2.0.0,1326590,66d88375799e00b593a8655f,4,32,null,,,,,,,,,<p style='font-size: 30px;'><strong>Okay</strong></p>,null,neutral_feedback,1,test,36,,,,,,,,,,,,,,,,,,,,,,
,,,,,,,,,,,html-button-response,212,2.0.0,1327868,66d88375799e00b593a8655f,4,32,1278,,,,,,,,,"<img src= ""rock_img/I_Obsidian_08.jpg"" style=""width:8cm; height:7.39cm;""><p>What type of rock is this?</p>",4,class_response,1,test,37,Obsidian,Obsidian,8,TRUE,5,5,,,,,,,,,,,,,,,,
,,,,,,,,,,,html-keyboard-response,213,2.0.0,1328374,66d88375799e00b593a8655f,4,32,null,,,,,,,,,<p style='font-size: 30px;'><strong>Okay</strong></p>,null,neutral_feedback,1,test,37,,,,,,,,,,,,,,,,,,,,,,
,,,,,,,,,,,html-button-response,214,2.0.0,1331104,66d88375799e00b593a8655f,4,32,2729,,,,,,,,,"<img src= ""rock_img/I_Peridotite_15.jpg"" style=""width:8cm; height:6cm;""><p>What type of rock is this?</p>",2,class_response,1,test,38,Diorite,Peridotite,15,FALSE,3,7,,,,,,,,,,,,,,,,
,,,,,,,,,,,html-keyboard-response,215,2.0.0,1331619,66d88375799e00b593a8655f,4,32,null,,,,,,,,,<p style='font-size: 30px;'><strong>Okay</strong></p>,null,neutral_feedback,1,test,38,,,,,,,,,,,,,,,,,,,,,,
,,,,,,,,,,,html-button-response,216,2.0.0,1333014,66d88375799e00b593a8655f,4,32,1394,,,,,,,,,"<img src= ""rock_img/I_Obsidian_09.jpg"" style=""width:8cm; height:5cm;""><p>What type of rock is this?</p>",4,class_response,1,test,39,Obsidian,Obsidian,9,TRUE,5,5,,,,,,,,,,,,,,,,
,,,,,,,,,,,html-keyboard-response,217,2.0.0,1333520,66d88375799e00b593a8655f,4,32,null,,,,,,,,,<p style='font-size: 30px;'><strong>Okay</strong></p>,null,neutral_feedback,1,test,39,,,,,,,,,,,,,,,,,,,,,,
,,,,,,,,,,,html-button-response,218,2.0.0,1339159,66d88375799e00b593a8655f,4,32,5638,,,,,,,,,"<img src= ""rock_img/I_Peridotite_14.jpg"" style=""width:8cm; height:5.3cm;""><p>What type of rock is this?</p>",6,class_response,1,test,40,Peridotite,Peridotite,14,TRUE,7,7,,,,,,,,,,,,,,,,
,,,,,,,,,,,html-keyboard-response,219,2.0.0,1339664,66d88375799e00b593a8655f,4,32,null,,,,,,,,,<p style='font-size: 30px;'><strong>Okay</strong></p>,null,neutral_feedback,1,test,40,,,,,,,,,,,,,,,,,,,,,,
,,,,,,,,,,,html-button-response,220,2.0.0,1341204,66d88375799e00b593a8655f,4,32,1539,,,,,,,,,"<img src= ""rock_img/I_Basalt_01.jpg"" style=""width:8cm; height:7.880000000000001cm;""><p>What type of rock is this?</p>",1,class_response,1,test,41,Basalt,Basalt,1,TRUE,2,2,,,,,,,,,,,,,,,,
,,,,,,,,,,,html-keyboard-response,221,2.0.0,1341712,66d88375799e00b593a8655f,4,32,null,,,,,,,,,<p style='font-size: 30px;'><strong>Okay</strong></p>,null,neutral_feedback,1,test,41,,,,,,,,,,,,,,,,,,,,,,
,,,,,,,,,,,html-button-response,222,2.0.0,1344930,66d88375799e00b593a8655f,4,32,3216,,,,,,,,,"<img src= ""rock_img/I_Diorite_15.jpg"" style=""width:8cm; height:5.54cm;""><p>What type of rock is this?</p>",6,class_response,1,test,42,Peridotite,Diorite,15,FALSE,7,3,,,,,,,,,,,,,,,,
,,,,,,,,,,,html-keyboard-response,223,2.0.0,1345443,66d88375799e00b593a8655f,4,32,null,,,,,,,,,<p style='font-size: 30px;'><strong>Okay</strong></p>,null,neutral_feedback,1,test,42,,,,,,,,,,,,,,,,,,,,,,
,,,,,,,,,,,html-button-response,224,2.0.0,1346783,66d88375799e00b593a8655f,4,32,1339,,,,,,,,,"<img src= ""rock_img/I_Basalt_05.jpg"" style=""width:8cm; height:8.18cm;""><p>What type of rock is this?</p>",1,class_response,1,test,43,Basalt,Basalt,5,TRUE,2,2,,,,,,,,,,,,,,,,
,,,,,,,,,,,html-keyboard-response,225,2.0.0,1347289,66d88375799e00b593a8655f,4,32,null,,,,,,,,,<p style='font-size: 30px;'><strong>Okay</strong></p>,null,neutral_feedback,1,test,43,,,,,,,,,,,,,,,,,,,,,,
,,,,,,,,,,,html-button-response,226,2.0.0,1349458,66d88375799e00b593a8655f,4,32,2168,,,,,,,,,"<img src= ""rock_img/I_Andesite_01.jpg"" style=""width:8cm; height:5.87cm;""><p>What type of rock is this?</p>",6,class_response,1,test,44,Peridotite,Andesite,1,FALSE,7,1,,,,,,,,,,,,,,,,
,,,,,,,,,,,html-keyboard-response,227,2.0.0,1349972,66d88375799e00b593a8655f,4,32,null,,,,,,,,,<p style='font-size: 30px;'><strong>Okay</strong></p>,null,neutral_feedback,1,test,44,,,,,,,,,,,,,,,,,,,,,,
,,,,,,,,,,,html-button-response,228,2.0.0,1351166,66d88375799e00b593a8655f,4,32,1193,,,,,,,,,"<img src= ""rock_img/I_Pumice_06.jpg"" style=""width:8cm; height:6.9399999999999995cm;""><p>What type of rock is this?</p>",7,class_response,1,test,45,Pumice,Pumice,6,TRUE,8,8,,,,,,,,,,,,,,,,
,,,,,,,,,,,html-keyboard-response,229,2.0.0,1351670,66d88375799e00b593a8655f,4,32,null,,,,,,,,,<p style='font-size: 30px;'><strong>Okay</strong></p>,null,neutral_feedback,1,test,45,,,,,,,,,,,,,,,,,,,,,,
,,,,,,,,,,,html-button-response,230,2.0.0,1354409,66d88375799e00b593a8655f,4,32,2738,,,,,,,,,"<img src= ""rock_img/I_Pegmatite_12.jpg"" style=""width:8cm; height:5.7cm;""><p>What type of rock is this?</p>",2,class_response,1,test,46,Diorite,Pegmatite,12,FALSE,3,6,,,,,,,,,,,,,,,,
,,,,,,,,,,,html-keyboard-response,231,2.0.0,1354916,66d88375799e00b593a8655f,4,32,null,,,,,,,,,<p style='font-size: 30px;'><strong>Okay</strong></p>,null,neutral_feedback,1,test,46,,,,,,,,,,,,,,,,,,,,,,
,,,,,,,,,,,html-button-response,232,2.0.0,1357149,66d88375799e00b593a8655f,4,32,2232,,,,,,,,,"<img src= ""rock_img/I_Gabbro_08.jpg"" style=""width:8cm; height:5.15cm;""><p>What type of rock is this?</p>",3,class_response,1,test,47,Gabbro,Gabbro,8,TRUE,4,4,,,,,,,,,,,,,,,,
,,,,,,,,,,,html-keyboard-response,233,2.0.0,1357664,66d88375799e00b593a8655f,4,32,null,,,,,,,,,<p style='font-size: 30px;'><strong>Okay</strong></p>,null,neutral_feedback,1,test,47,,,,,,,,,,,,,,,,,,,,,,
,,,,,,,,,,,html-button-response,234,2.0.0,1360426,66d88375799e00b593a8655f,4,32,2760,,,,,,,,,"<img src= ""rock_img/I_Gabbro_09.jpg"" style=""width:8cm; height:7.279999999999999cm;""><p>What type of rock is this?</p>",3,class_response,1,test,48,Gabbro,Gabbro,9,TRUE,4,4,,,,,,,,,,,,,,,,
,,,,,,,,,,,html-keyboard-response,235,2.0.0,1360930,66d88375799e00b593a8655f,4,32,null,,,,,,,,,<p style='font-size: 30px;'><strong>Okay</strong></p>,null,neutral_feedback,1,test,48,,,,,,,,,,,,,,,,,,,,,,
,,,,,,,,,,,html-button-response,236,2.0.0,1480996,66d88375799e00b593a8655f,4,32,,,,,,,,,,,,cycle_feedback,,,,,,,,,,,,,,,,,,,,,,,,14481.6,105581.3
,,,,,,,,,,,html-button-response,238,2.0.0,1484539,66d88375799e00b593a8655f,4,32,3542,,,,,,,,,,0,start_train,,,,,,,,,,,,,,,,,,,,,,,,,
,,,,,,,,,,,html-button-response,240,2.0.0,1492038,66d88375799e00b593a8655f,4,32,7497,,,,,,,,,"<img src= ""rock_img/I_Diorite_14.jpg"" style=""width:8cm; height:5.71cm;""><p>What type of rock is this?</p>",2,class_response,2,train,1,Diorite,Diorite,14,TRUE,3,3,,,,,,,,,,,,,,,,
,,,,,,,,,,,html-button-response,241,2.0.0,1498035,66d88375799e00b593a8655f,4,32,5996,,,,,,,,,"<img src= rock_img/I_Diorite_14.jpg style=""width:8cm; height:5.71cm;""><p style='font-size: 30px; color: green;'><strong>Correct!</strong></p><p style='font-size: 30px;'><strong>This rock is diorite</strong></p>",0,corr_feedback,2,train,1,,,,,,,,,,,,,,,,,,,,,,
,,,,,,,,,,,html-button-response,242,2.0.0,1501956,66d88375799e00b593a8655f,4,32,3920,,,,,,,,,"<img src= ""rock_img/I_Gabbro_16.jpg"" style=""width:8cm; height:6.44cm;""><p>What type of rock is this?</p>",1,class_response,2,train,2,Basalt,Gabbro,16,FALSE,2,4,,,,,,,,,,,,,,,,
,,,,,,,,,,,html-button-response,243,2.0.0,1505681,66d88375799e00b593a8655f,4,32,3724,,,,,,,,,"<img src= rock_img/I_Gabbro_16.jpg style=""width:8cm; height:6.44cm;""><p style='font-size: 30px; color: red;'><strong>Incorrect!</strong></p><p style='font-size: 30px;'><strong>This rock is gabbro</strong></p>",0,corr_feedback,2,train,2,,,,,,,,,,,,,,,,,,,,,,
,,,,,,,,,,,html-button-response,244,2.0.0,1507967,66d88375799e00b593a8655f,4,32,2284,,,,,,,,,"<img src= ""rock_img/I_Obsidian_10.jpg"" style=""width:8cm; height:6.260000000000001cm;""><p>What type of rock is this?</p>",4,class_response,2,train,3,Obsidian,Obsidian,10,TRUE,5,5,,,,,,,,,,,,,,,,
,,,,,,,,,,,html-button-response,245,2.0.0,1508798,66d88375799e00b593a8655f,4,32,831,,,,,,,,,"<img src= rock_img/I_Obsidian_10.jpg style=""width:8cm; height:6.260000000000001cm;""><p style='font-size: 30px; color: green;'><strong>Correct!</strong></p><p style='font-size: 30px;'><strong>This rock is obsidian</strong></p>",0,corr_feedback,2,train,3,,,,,,,,,,,,,,,,,,,,,,
,,,,,,,,,,,html-button-response,246,2.0.0,1514201,66d88375799e00b593a8655f,4,32,5402,,,,,,,,,"<img src= ""rock_img/I_Andesite_06.jpg"" style=""width:8cm; height:6.840000000000001cm;""><p>What type of rock is this?</p>",3,class_response,2,train,4,Gabbro,Andesite,6,FALSE,4,1,,,,,,,,,,,,,,,,
,,,,,,,,,,,html-button-response,247,2.0.0,1520213,66d88375799e00b593a8655f,4,32,6010,,,,,,,,,"<img src= rock_img/I_Andesite_06.jpg style=""width:8cm; height:6.840000000000001cm;""><p style='font-size: 30px; color: red;'><strong>Incorrect!</strong></p><p style='font-size: 30px;'><strong>This rock is andesite</strong></p>",0,corr_feedback,2,train,4,,,,,,,,,,,,,,,,,,,,,,
,,,,,,,,,,,html-button-response,248,2.0.0,1521848,66d88375799e00b593a8655f,4,32,1634,,,,,,,,,"<img src= ""rock_img/I_Pumice_08.jpg"" style=""width:8cm; height:6.67cm;""><p>What type of rock is this?</p>",7,class_response,2,train,5,Pumice,Pumice,8,TRUE,8,8,,,,,,,,,,,,,,,,
,,,,,,,,,,,html-button-response,249,2.0.0,1522658,66d88375799e00b593a8655f,4,32,809,,,,,,,,,"<img src= rock_img/I_Pumice_08.jpg style=""width:8cm; height:6.67cm;""><p style='font-size: 30px; color: green;'><strong>Correct!</strong></p><p style='font-size: 30px;'><strong>This rock is pumice</strong></p>",0,corr_feedback,2,train,5,,,,,,,,,,,,,,,,,,,,,,
,,,,,,,,,,,html-button-response,250,2.0.0,1536436,66d88375799e00b593a8655f,4,32,13777,,,,,,,,,"<img src= ""rock_img/I_Gabbro_13.jpg"" style=""width:8cm; height:5.08cm;""><p>What type of rock is this?</p>",6,class_response,2,train,6,Peridotite,Gabbro,13,FALSE,7,4,,,,,,,,,,,,,,,,
,,,,,,,,,,,html-button-response,251,2.0.0,1538959,66d88375799e00b593a8655f,4,32,2522,,,,,,,,,"<img src= rock_img/I_Gabbro_13.jpg style=""width:8cm; height:5.08cm;""><p style='font-size: 30px; color: red;'><strong>Incorrect!</strong></p><p style='font-size: 30px;'><strong>This rock is gabbro</strong></p>",0,corr_feedback,2,train,6,,,,,,,,,,,,,,,,,,,,,,
,,,,,,,,,,,html-button-response,252,2.0.0,1544663,66d88375799e00b593a8655f,4,32,5703,,,,,,,,,"<img src= ""rock_img/I_Andesite_02.jpg"" style=""width:8cm; height:8.5cm;""><p>What type of rock is this?</p>",0,class_response,2,train,7,Andesite,Andesite,2,TRUE,1,1,,,,,,,,,,,,,,,,
,,,,,,,,,,,html-button-response,253,2.0.0,1547061,66d88375799e00b593a8655f,4,32,2397,,,,,,,,,"<img src= rock_img/I_Andesite_02.jpg style=""width:8cm; height:8.5cm;""><p style='font-size: 30px; color: green;'><strong>Correct!</strong></p><p style='font-size: 30px;'><strong>This rock is andesite</strong></p>",0,corr_feedback,2,train,7,,,,,,,,,,,,,,,,,,,,,,
,,,,,,,,,,,html-button-response,254,2.0.0,1549745,66d88375799e00b593a8655f,4,32,2682,,,,,,,,,"<img src= ""rock_img/I_Pegmatite_05.jpg"" style=""width:8cm; height:7.300000000000001cm;""><p>What type of rock is this?</p>",2,class_response,2,train,8,Diorite,Pegmatite,5,FALSE,3,6,,,,,,,,,,,,,,,,
,,,,,,,,,,,html-button-response,255,2.0.0,1553933,66d88375799e00b593a8655f,4,32,4187,,,,,,,,,"<img src= rock_img/I_Pegmatite_05.jpg style=""width:8cm; height:7.300000000000001cm;""><p style='font-size: 30px; color: red;'><strong>Incorrect!</strong></p><p style='font-size: 30px;'><strong>This rock is pegmatite</strong></p>",0,corr_feedback,2,train,8,,,,,,,,,,,,,,,,,,,,,,
,,,,,,,,,,,html-button-response,256,2.0.0,1556330,66d88375799e00b593a8655f,4,32,2396,,,,,,,,,"<img src= ""rock_img/I_Peridotite_04.jpg"" style=""width:8cm; height:6.680000000000001cm;""><p>What type of rock is this?</p>",2,class_response,2,train,9,Diorite,Peridotite,4,FALSE,3,7,,,,,,,,,,,,,,,,
,,,,,,,,,,,html-button-response,257,2.0.0,1566226,66d88375799e00b593a8655f,4,32,9895,,,,,,,,,"<img src= rock_img/I_Peridotite_04.jpg style=""width:8cm; height:6.680000000000001cm;""><p style='font-size: 30px; color: red;'><strong>Incorrect!</strong></p><p style='font-size: 30px;'><strong>This rock is peridotite</strong></p>",0,corr_feedback,2,train,9,,,,,,,,,,,,,,,,,,,,,,
,,,,,,,,,,,html-button-response,258,2.0.0,1568023,66d88375799e00b593a8655f,4,32,1795,,,,,,,,,"<img src= ""rock_img/I_Obsidian_02.jpg"" style=""width:8cm; height:7.51cm;""><p>What type of rock is this?</p>",4,class_response,2,train,10,Obsidian,Obsidian,2,TRUE,5,5,,,,,,,,,,,,,,,,
,,,,,,,,,,,html-button-response,259,2.0.0,1569065,66d88375799e00b593a8655f,4,32,1041,,,,,,,,,"<img src= rock_img/I_Obsidian_02.jpg style=""width:8cm; height:7.51cm;""><p style='font-size: 30px; color: green;'><strong>Correct!</strong></p><p style='font-size: 30px;'><strong>This rock is obsidian</strong></p>",0,corr_feedback,2,train,10,,,,,,,,,,,,,,,,,,,,,,
,,,,,,,,,,,html-button-response,260,2.0.0,1573084,66d88375799e00b593a8655f,4,32,4018,,,,,,,,,"<img src= ""rock_img/I_Pegmatite_07.jpg"" style=""width:8cm; height:6.7cm;""><p>What type of rock is this?</p>",6,class_response,2,train,11,Peridotite,Pegmatite,7,FALSE,7,6,,,,,,,,,,,,,,,,
,,,,,,,,,,,html-button-response,261,2.0.0,1578697,66d88375799e00b593a8655f,4,32,5612,,,,,,,,,"<img src= rock_img/I_Pegmatite_07.jpg style=""width:8cm; height:6.7cm;""><p style='font-size: 30px; color: red;'><strong>Incorrect!</strong></p><p style='font-size: 30px;'><strong>This rock is pegmatite</strong></p>",0,corr_feedback,2,train,11,,,,,,,,,,,,,,,,,,,,,,
,,,,,,,,,,,html-button-response,262,2.0.0,1586009,66d88375799e00b593a8655f,4,32,7310,,,,,,,,,"<img src= ""rock_img/I_Basalt_12.jpg"" style=""width:8cm; height:6.010000000000001cm;""><p>What type of rock is this?</p>",7,class_response,2,train,12,Pumice,Basalt,12,FALSE,8,2,,,,,,,,,,,,,,,,
,,,,,,,,,,,html-button-response,263,2.0.0,1589189,66d88375799e00b593a8655f,4,32,3179,,,,,,,,,"<img src= rock_img/I_Basalt_12.jpg style=""width:8cm; height:6.010000000000001cm;""><p style='font-size: 30px; color: red;'><strong>Incorrect!</strong></p><p style='font-size: 30px;'><strong>This rock is basalt</strong></p>",0,corr_feedback,2,train,12,,,,,,,,,,,,,,,,,,,,,,
,,,,,,,,,,,html-button-response,265,2.0.0,1590574,66d88375799e00b593a8655f,4,32,1385,,,,,,,,,,0,start_train,,,,,,,,,,,,,,,,,,,,,,,,,
,,,,,,,,,,,html-button-response,266,2.0.0,1601513,66d88375799e00b593a8655f,4,32,,,,,,,,,,,,cat_selection,2,train,1,,,,,,,278,10659.5,3,7,Diorite,Peridotite,,,,,,,,,,
,,,,,,,,,,,paired-cat-display,267,1.0.0,1705285,66d88375799e00b593a8655f,4,32,,,,,,,,,,,,paired_cat_display,2,train,1,,,,,,,,,,,,,,The texture and patterns are less consistent on Peridotite. The shapes are fairly rough and the texture doesn't look smooth.,15860.5,87910.1,,,,Diorite seems to have starker colors and glossy sheen. Very consistent speckles all over the rocks. ,,
,,,,,,,,,,,html-button-response,268,2.0.0,1716087,66d88375799e00b593a8655f,4,32,,,,,,,,,,,,cat_selection,2,train,2,,,,,,,9018.2,1782.5,1,6,Andesite,Pegmatite,,,,,,,,,,
,,,,,,,,,,,paired-cat-display,269,1.0.0,1845454,66d88375799e00b593a8655f,4,32,,,,,,,,,,,,paired_cat_display,2,train,2,,,,,,,,,,,,,What stands out about Pegmatite is the dramatic black splotches and irregular shapes. ,,7760.1,121605.9,,,"Tiny speckles. Some of the speckles are rectangular and remind me of sprinkles, but less colorful and fun. There are irregularities in the speckling pattern on Andesite rocks. The colors of the rocks can vary from gray to brown. Reminds me a little of the epoxy coating you can get on garage floors.",,,
,,,,,,,,,,,html-button-response,270,2.0.0,1865379,66d88375799e00b593a8655f,4,32,,,,,,,,,,,,cat_selection,2,train,3,,,,,,,16952.5,2971,1,7,Andesite,Peridotite,,,,,,,,,,
,,,,,,,,,,,paired-cat-display,271,1.0.0,2021788,66d88375799e00b593a8655f,4,32,,,,,,,,,,,,paired_cat_display,2,train,3,,,,,,,,,,,,,,"Peridotite rocks look to be mostly brown and rough. The texture is what stands out to me with some different colors throughout, but not in an organized pattern.",9457.3,146950.2,,,"I think Andesite stands out because of that consistent speckled look. Although not vibrant, the colors of the speckles stand out more than the other rocks I have looked at. ",,,
,,,,,,,,,,,html-button-response,273,2.0.0,2023620,66d88375799e00b593a8655f,4,32,1830,,,,,,,,,,0,start_test,,,,,,,,,,,,,,,,,,,,,,,,,
,,,,,,,,,,,html-button-response,274,2.0.0,2028210,66d88375799e00b593a8655f,4,32,4589,,,,,,,,,"<img src= ""rock_img/I_Basalt_11.jpg"" style=""width:8cm; height:5.359999999999999cm;""><p>What type of rock is this?</p>",1,class_response,2,test,1,Basalt,Basalt,11,TRUE,2,2,,,,,,,,,,,,,,,,
,,,,,,,,,,,html-keyboard-response,275,2.0.0,2028715,66d88375799e00b593a8655f,4,32,null,,,,,,,,,<p style='font-size: 30px;'><strong>Okay</strong></p>,null,neutral_feedback,2,test,1,,,,,,,,,,,,,,,,,,,,,,
,,,,,,,,,,,html-button-response,276,2.0.0,2044198,66d88375799e00b593a8655f,4,32,15481,,,,,,,,,"<img src= ""rock_img/I_Diorite_11.jpg"" style=""width:8cm; height:7.11cm;""><p>What type of rock is this?</p>",0,class_response,2,test,2,Andesite,Diorite,11,FALSE,1,3,,,,,,,,,,,,,,,,
,,,,,,,,,,,html-keyboard-response,277,2.0.0,2044701,66d88375799e00b593a8655f,4,32,null,,,,,,,,,<p style='font-size: 30px;'><strong>Okay</strong></p>,null,neutral_feedback,2,test,2,,,,,,,,,,,,,,,,,,,,,,
,,,,,,,,,,,html-button-response,278,2.0.0,2046275,66d88375799e00b593a8655f,4,32,1574,,,,,,,,,"<img src= ""rock_img/I_Pumice_15.jpg"" style=""width:8cm; height:7.86cm;""><p>What type of rock is this?</p>",7,class_response,2,test,3,Pumice,Pumice,15,TRUE,8,8,,,,,,,,,,,,,,,,
,,,,,,,,,,,html-keyboard-response,279,2.0.0,2046784,66d88375799e00b593a8655f,4,32,null,,,,,,,,,<p style='font-size: 30px;'><strong>Okay</strong></p>,null,neutral_feedback,2,test,3,,,,,,,,,,,,,,,,,,,,,,
,,,,,,,,,,,html-button-response,280,2.0.0,2050428,66d88375799e00b593a8655f,4,32,3642,,,,,,,,,"<img src= ""rock_img/I_Gabbro_05.jpg"" style=""width:8cm; height:6cm;""><p>What type of rock is this?</p>",3,class_response,2,test,4,Gabbro,Gabbro,5,TRUE,4,4,,,,,,,,,,,,,,,,
,,,,,,,,,,,html-keyboard-response,281,2.0.0,2050930,66d88375799e00b593a8655f,4,32,null,,,,,,,,,<p style='font-size: 30px;'><strong>Okay</strong></p>,null,neutral_feedback,2,test,4,,,,,,,,,,,,,,,,,,,,,,
,,,,,,,,,,,html-button-response,282,2.0.0,2056999,66d88375799e00b593a8655f,4,32,6069,,,,,,,,,"<img src= ""rock_img/I_Peridotite_12.jpg"" style=""width:8cm; height:4.54cm;""><p>What type of rock is this?</p>",3,class_response,2,test,5,Gabbro,Peridotite,12,FALSE,4,7,,,,,,,,,,,,,,,,
,,,,,,,,,,,html-keyboard-response,283,2.0.0,2057508,66d88375799e00b593a8655f,4,32,null,,,,,,,,,<p style='font-size: 30px;'><strong>Okay</strong></p>,null,neutral_feedback,2,test,5,,,,,,,,,,,,,,,,,,,,,,
,,,,,,,,,,,html-button-response,284,2.0.0,2058803,66d88375799e00b593a8655f,4,32,1294,,,,,,,,,"<img src= ""rock_img/I_Basalt_09.jpg"" style=""width:8cm; height:6.2cm;""><p>What type of rock is this?</p>",1,class_response,2,test,6,Basalt,Basalt,9,TRUE,2,2,,,,,,,,,,,,,,,,
,,,,,,,,,,,html-keyboard-response,285,2.0.0,2059305,66d88375799e00b593a8655f,4,32,null,,,,,,,,,<p style='font-size: 30px;'><strong>Okay</strong></p>,null,neutral_feedback,2,test,6,,,,,,,,,,,,,,,,,,,,,,
,,,,,,,,,,,html-button-response,286,2.0.0,2072205,66d88375799e00b593a8655f,4,32,12900,,,,,,,,,"<img src= ""rock_img/I_Diorite_07.jpg"" style=""width:8cm; height:5.239999999999999cm;""><p>What type of rock is this?</p>",6,class_response,2,test,7,Peridotite,Diorite,7,FALSE,7,3,,,,,,,,,,,,,,,,
,,,,,,,,,,,html-keyboard-response,287,2.0.0,2072712,66d88375799e00b593a8655f,4,32,null,,,,,,,,,<p style='font-size: 30px;'><strong>Okay</strong></p>,null,neutral_feedback,2,test,7,,,,,,,,,,,,,,,,,,,,,,
,,,,,,,,,,,html-button-response,288,2.0.0,2074031,66d88375799e00b593a8655f,4,32,1318,,,,,,,,,"<img src= ""rock_img/I_Obsidian_08.jpg"" style=""width:8cm; height:7.39cm;""><p>What type of rock is this?</p>",4,class_response,2,test,8,Obsidian,Obsidian,8,TRUE,5,5,,,,,,,,,,,,,,,,
,,,,,,,,,,,html-keyboard-response,289,2.0.0,2074543,66d88375799e00b593a8655f,4,32,null,,,,,,,,,<p style='font-size: 30px;'><strong>Okay</strong></p>,null,neutral_feedback,2,test,8,,,,,,,,,,,,,,,,,,,,,,
,,,,,,,,,,,html-button-response,290,2.0.0,2075738,66d88375799e00b593a8655f,4,32,1194,,,,,,,,,"<img src= ""rock_img/I_Obsidian_16.jpg"" style=""width:8cm; height:9.3cm;""><p>What type of rock is this?</p>",4,class_response,2,test,9,Obsidian,Obsidian,16,TRUE,5,5,,,,,,,,,,,,,,,,
,,,,,,,,,,,html-keyboard-response,291,2.0.0,2076242,66d88375799e00b593a8655f,4,32,null,,,,,,,,,<p style='font-size: 30px;'><strong>Okay</strong></p>,null,neutral_feedback,2,test,9,,,,,,,,,,,,,,,,,,,,,,
,,,,,,,,,,,html-button-response,292,2.0.0,2084043,66d88375799e00b593a8655f,4,32,7799,,,,,,,,,"<img src= ""rock_img/I_Gabbro_01.jpg"" style=""width:8cm; height:5.21cm;""><p>What type of rock is this?</p>",3,class_response,2,test,10,Gabbro,Gabbro,1,TRUE,4,4,,,,,,,,,,,,,,,,
,,,,,,,,,,,html-keyboard-response,293,2.0.0,2084551,66d88375799e00b593a8655f,4,32,null,,,,,,,,,<p style='font-size: 30px;'><strong>Okay</strong></p>,null,neutral_feedback,2,test,10,,,,,,,,,,,,,,,,,,,,,,
,,,,,,,,,,,html-button-response,294,2.0.0,2086042,66d88375799e00b593a8655f,4,32,1489,,,,,,,,,"<img src= ""rock_img/I_Obsidian_14.jpg"" style=""width:8cm; height:7.64cm;""><p>What type of rock is this?</p>",4,class_response,2,test,11,Obsidian,Obsidian,14,TRUE,5,5,,,,,,,,,,,,,,,,
,,,,,,,,,,,html-keyboard-response,295,2.0.0,2086550,66d88375799e00b593a8655f,4,32,null,,,,,,,,,<p style='font-size: 30px;'><strong>Okay</strong></p>,null,neutral_feedback,2,test,11,,,,,,,,,,,,,,,,,,,,,,
,,,,,,,,,,,html-button-response,296,2.0.0,2099613,66d88375799e00b593a8655f,4,32,13061,,,,,,,,,"<img src= ""rock_img/I_Andesite_05.jpg"" style=""width:8cm; height:4.12cm;""><p>What type of rock is this?</p>",6,class_response,2,test,12,Peridotite,Andesite,5,FALSE,7,1,,,,,,,,,,,,,,,,
,,,,,,,,,,,html-keyboard-response,297,2.0.0,2100122,66d88375799e00b593a8655f,4,32,null,,,,,,,,,<p style='font-size: 30px;'><strong>Okay</strong></p>,null,neutral_feedback,2,test,12,,,,,,,,,,,,,,,,,,,,,,
,,,,,,,,,,,html-button-response,298,2.0.0,2103738,66d88375799e00b593a8655f,4,32,3614,,,,,,,,,"<img src= ""rock_img/I_Pegmatite_09.jpg"" style=""width:8cm; height:4.03cm;""><p>What type of rock is this?</p>",5,class_response,2,test,13,Pegmatite,Pegmatite,9,TRUE,6,6,,,,,,,,,,,,,,,,
,,,,,,,,,,,html-keyboard-response,299,2.0.0,2104253,66d88375799e00b593a8655f,4,32,null,,,,,,,,,<p style='font-size: 30px;'><strong>Okay</strong></p>,null,neutral_feedback,2,test,13,,,,,,,,,,,,,,,,,,,,,,
,,,,,,,,,,,html-button-response,300,2.0.0,2105541,66d88375799e00b593a8655f,4,32,1287,,,,,,,,,"<img src= ""rock_img/I_Pumice_05.jpg"" style=""width:8cm; height:7.25cm;""><p>What type of rock is this?</p>",7,class_response,2,test,14,Pumice,Pumice,5,TRUE,8,8,,,,,,,,,,,,,,,,
,,,,,,,,,,,html-keyboard-response,301,2.0.0,2106049,66d88375799e00b593a8655f,4,32,null,,,,,,,,,<p style='font-size: 30px;'><strong>Okay</strong></p>,null,neutral_feedback,2,test,14,,,,,,,,,,,,,,,,,,,,,,
,,,,,,,,,,,html-button-response,302,2.0.0,2112211,66d88375799e00b593a8655f,4,32,6160,,,,,,,,,"<img src= ""rock_img/I_Andesite_11.jpg"" style=""width:8cm; height:4.92cm;""><p>What type of rock is this?</p>",1,class_response,2,test,15,Basalt,Andesite,11,FALSE,2,1,,,,,,,,,,,,,,,,
,,,,,,,,,,,html-keyboard-response,303,2.0.0,2112712,66d88375799e00b593a8655f,4,32,null,,,,,,,,,<p style='font-size: 30px;'><strong>Okay</strong></p>,null,neutral_feedback,2,test,15,,,,,,,,,,,,,,,,,,,,,,
,,,,,,,,,,,html-button-response,304,2.0.0,2149969,66d88375799e00b593a8655f,4,32,37255,,,,,,,,,"<img src= ""rock_img/I_Peridotite_05.jpg"" style=""width:8cm; height:7.1499999999999995cm;""><p>What type of rock is this?</p>",0,class_response,2,test,16,Andesite,Peridotite,5,FALSE,1,7,,,,,,,,,,,,,,,,
,,,,,,,,,,,html-keyboard-response,305,2.0.0,2150480,66d88375799e00b593a8655f,4,32,null,,,,,,,,,<p style='font-size: 30px;'><strong>Okay</strong></p>,null,neutral_feedback,2,test,16,,,,,,,,,,,,,,,,,,,,,,
,,,,,,,,,,,html-button-response,306,2.0.0,2189055,66d88375799e00b593a8655f,4,32,38574,,,,,,,,,"<img src= ""rock_img/I_Peridotite_13.jpg"" style=""width:8cm; height:7.58cm;""><p>What type of rock is this?</p>",2,class_response,2,test,17,Diorite,Peridotite,13,FALSE,3,7,,,,,,,,,,,,,,,,
,,,,,,,,,,,html-keyboard-response,307,2.0.0,2189566,66d88375799e00b593a8655f,4,32,null,,,,,,,,,<p style='font-size: 30px;'><strong>Okay</strong></p>,null,neutral_feedback,2,test,17,,,,,,,,,,,,,,,,,,,,,,
,,,,,,,,,,,html-button-response,308,2.0.0,2190991,66d88375799e00b593a8655f,4,32,1424,,,,,,,,,"<img src= ""rock_img/I_Pegmatite_15.jpg"" style=""width:8cm; height:6cm;""><p>What type of rock is this?</p>",5,class_response,2,test,18,Pegmatite,Pegmatite,15,TRUE,6,6,,,,,,,,,,,,,,,,
,,,,,,,,,,,html-keyboard-response,309,2.0.0,2191499,66d88375799e00b593a8655f,4,32,null,,,,,,,,,<p style='font-size: 30px;'><strong>Okay</strong></p>,null,neutral_feedback,2,test,18,,,,,,,,,,,,,,,,,,,,,,
,,,,,,,,,,,html-button-response,310,2.0.0,2192781,66d88375799e00b593a8655f,4,32,1280,,,,,,,,,"<img src= ""rock_img/I_Pegmatite_11.jpg"" style=""width:8cm; height:8.14cm;""><p>What type of rock is this?</p>",5,class_response,2,test,19,Pegmatite,Pegmatite,11,TRUE,6,6,,,,,,,,,,,,,,,,
,,,,,,,,,,,html-keyboard-response,311,2.0.0,2193294,66d88375799e00b593a8655f,4,32,null,,,,,,,,,<p style='font-size: 30px;'><strong>Okay</strong></p>,null,neutral_feedback,2,test,19,,,,,,,,,,,,,,,,,,,,,,
,,,,,,,,,,,html-button-response,312,2.0.0,2194619,66d88375799e00b593a8655f,4,32,1323,,,,,,,,,"<img src= ""rock_img/I_Pumice_13.jpg"" style=""width:8cm; height:8.200000000000001cm;""><p>What type of rock is this?</p>",7,class_response,2,test,20,Pumice,Pumice,13,TRUE,8,8,,,,,,,,,,,,,,,,
,,,,,,,,,,,html-keyboard-response,313,2.0.0,2195127,66d88375799e00b593a8655f,4,32,null,,,,,,,,,<p style='font-size: 30px;'><strong>Okay</strong></p>,null,neutral_feedback,2,test,20,,,,,,,,,,,,,,,,,,,,,,
,,,,,,,,,,,html-button-response,314,2.0.0,2218157,66d88375799e00b593a8655f,4,32,23028,,,,,,,,,"<img src= ""rock_img/I_Diorite_12.jpg"" style=""width:8cm; height:4.88cm;""><p>What type of rock is this?</p>",0,class_response,2,test,21,Andesite,Diorite,12,FALSE,1,3,,,,,,,,,,,,,,,,
,,,,,,,,,,,html-keyboard-response,315,2.0.0,2218658,66d88375799e00b593a8655f,4,32,null,,,,,,,,,<p style='font-size: 30px;'><strong>Okay</strong></p>,null,neutral_feedback,2,test,21,,,,,,,,,,,,,,,,,,,,,,
,,,,,,,,,,,html-button-response,316,2.0.0,2222079,66d88375799e00b593a8655f,4,32,3420,,,,,,,,,"<img src= ""rock_img/I_Pegmatite_13.jpg"" style=""width:8cm; height:4.95cm;""><p>What type of rock is this?</p>",5,class_response,2,test,22,Pegmatite,Pegmatite,13,TRUE,6,6,,,,,,,,,,,,,,,,
,,,,,,,,,,,html-keyboard-response,317,2.0.0,2222587,66d88375799e00b593a8655f,4,32,null,,,,,,,,,<p style='font-size: 30px;'><strong>Okay</strong></p>,null,neutral_feedback,2,test,22,,,,,,,,,,,,,,,,,,,,,,
,,,,,,,,,,,html-button-response,318,2.0.0,2234055,66d88375799e00b593a8655f,4,32,11466,,,,,,,,,"<img src= ""rock_img/I_Peridotite_16.jpg"" style=""width:8cm; height:6.989999999999999cm;""><p>What type of rock is this?</p>",3,class_response,2,test,23,Gabbro,Peridotite,16,FALSE,4,7,,,,,,,,,,,,,,,,
,,,,,,,,,,,html-keyboard-response,319,2.0.0,2234562,66d88375799e00b593a8655f,4,32,null,,,,,,,,,<p style='font-size: 30px;'><strong>Okay</strong></p>,null,neutral_feedback,2,test,23,,,,,,,,,,,,,,,,,,,,,,
,,,,,,,,,,,html-button-response,320,2.0.0,2237823,66d88375799e00b593a8655f,4,32,3260,,,,,,,,,"<img src= ""rock_img/I_Basalt_14.jpg"" style=""width:8cm; height:5.82cm;""><p>What type of rock is this?</p>",3,class_response,2,test,24,Gabbro,Basalt,14,FALSE,4,2,,,,,,,,,,,,,,,,
,,,,,,,,,,,html-keyboard-response,321,2.0.0,2238325,66d88375799e00b593a8655f,4,32,null,,,,,,,,,<p style='font-size: 30px;'><strong>Okay</strong></p>,null,neutral_feedback,2,test,24,,,,,,,,,,,,,,,,,,,,,,
,,,,,,,,,,,html-button-response,322,2.0.0,2239620,66d88375799e00b593a8655f,4,32,1294,,,,,,,,,"<img src= ""rock_img/I_Obsidian_09.jpg"" style=""width:8cm; height:5cm;""><p>What type of rock is this?</p>",4,class_response,2,test,25,Obsidian,Obsidian,9,TRUE,5,5,,,,,,,,,,,,,,,,
,,,,,,,,,,,html-keyboard-response,323,2.0.0,2240129,66d88375799e00b593a8655f,4,32,null,,,,,,,,,<p style='font-size: 30px;'><strong>Okay</strong></p>,null,neutral_feedback,2,test,25,,,,,,,,,,,,,,,,,,,,,,
,,,,,,,,,,,html-button-response,324,2.0.0,2248646,66d88375799e00b593a8655f,4,32,8516,,,,,,,,,"<img src= ""rock_img/I_Peridotite_15.jpg"" style=""width:8cm; height:6cm;""><p>What type of rock is this?</p>",0,class_response,2,test,26,Andesite,Peridotite,15,FALSE,1,7,,,,,,,,,,,,,,,,
,,,,,,,,,,,html-keyboard-response,325,2.0.0,2249151,66d88375799e00b593a8655f,4,32,null,,,,,,,,,<p style='font-size: 30px;'><strong>Okay</strong></p>,null,neutral_feedback,2,test,26,,,,,,,,,,,,,,,,,,,,,,
,,,,,,,,,,,html-button-response,326,2.0.0,2250631,66d88375799e00b593a8655f,4,32,1479,,,,,,,,,"<img src= ""rock_img/I_Obsidian_06.jpg"" style=""width:8cm; height:6.8cm;""><p>What type of rock is this?</p>",4,class_response,2,test,27,Obsidian,Obsidian,6,TRUE,5,5,,,,,,,,,,,,,,,,
,,,,,,,,,,,html-keyboard-response,327,2.0.0,2251132,66d88375799e00b593a8655f,4,32,null,,,,,,,,,<p style='font-size: 30px;'><strong>Okay</strong></p>,null,neutral_feedback,2,test,27,,,,,,,,,,,,,,,,,,,,,,
,,,,,,,,,,,html-button-response,328,2.0.0,2252715,66d88375799e00b593a8655f,4,32,1581,,,,,,,,,"<img src= ""rock_img/I_Pumice_06.jpg"" style=""width:8cm; height:6.9399999999999995cm;""><p>What type of rock is this?</p>",7,class_response,2,test,28,Pumice,Pumice,6,TRUE,8,8,,,,,,,,,,,,,,,,
,,,,,,,,,,,html-keyboard-response,329,2.0.0,2253230,66d88375799e00b593a8655f,4,32,null,,,,,,,,,<p style='font-size: 30px;'><strong>Okay</strong></p>,null,neutral_feedback,2,test,28,,,,,,,,,,,,,,,,,,,,,,
,,,,,,,,,,,html-button-response,330,2.0.0,2256113,66d88375799e00b593a8655f,4,32,2882,,,,,,,,,"<img src= ""rock_img/I_Gabbro_14.jpg"" style=""width:8cm; height:8.48cm;""><p>What type of rock is this?</p>",3,class_response,2,test,29,Gabbro,Gabbro,14,TRUE,4,4,,,,,,,,,,,,,,,,
,,,,,,,,,,,html-keyboard-response,331,2.0.0,2256625,66d88375799e00b593a8655f,4,32,null,,,,,,,,,<p style='font-size: 30px;'><strong>Okay</strong></p>,null,neutral_feedback,2,test,29,,,,,,,,,,,,,,,,,,,,,,
,,,,,,,,,,,html-button-response,332,2.0.0,2265182,66d88375799e00b593a8655f,4,32,8556,,,,,,,,,"<img src= ""rock_img/I_Diorite_08.jpg"" style=""width:8cm; height:6.37cm;""><p>What type of rock is this?</p>",2,class_response,2,test,30,Diorite,Diorite,8,TRUE,3,3,,,,,,,,,,,,,,,,
,,,,,,,,,,,html-keyboard-response,333,2.0.0,2265688,66d88375799e00b593a8655f,4,32,null,,,,,,,,,<p style='font-size: 30px;'><strong>Okay</strong></p>,null,neutral_feedback,2,test,30,,,,,,,,,,,,,,,,,,,,,,
,,,,,,,,,,,html-button-response,334,2.0.0,2266950,66d88375799e00b593a8655f,4,32,1261,,,,,,,,,"<img src= ""rock_img/I_Basalt_04.jpg"" style=""width:8cm; height:7.53cm;""><p>What type of rock is this?</p>",1,class_response,2,test,31,Basalt,Basalt,4,TRUE,2,2,,,,,,,,,,,,,,,,
,,,,,,,,,,,html-keyboard-response,335,2.0.0,2267467,66d88375799e00b593a8655f,4,32,null,,,,,,,,,<p style='font-size: 30px;'><strong>Okay</strong></p>,null,neutral_feedback,2,test,31,,,,,,,,,,,,,,,,,,,,,,
,,,,,,,,,,,html-button-response,336,2.0.0,2272920,66d88375799e00b593a8655f,4,32,5453,,,,,,,,,"<img src= ""rock_img/I_Andesite_09.jpg"" style=""width:8cm; height:6cm;""><p>What type of rock is this?</p>",1,class_response,2,test,32,Basalt,Andesite,9,FALSE,2,1,,,,,,,,,,,,,,,,
,,,,,,,,,,,html-keyboard-response,337,2.0.0,2273428,66d88375799e00b593a8655f,4,32,null,,,,,,,,,<p style='font-size: 30px;'><strong>Okay</strong></p>,null,neutral_feedback,2,test,32,,,,,,,,,,,,,,,,,,,,,,
,,,,,,,,,,,html-button-response,338,2.0.0,2274528,66d88375799e00b593a8655f,4,32,1099,,,,,,,,,"<img src= ""rock_img/I_Obsidian_11.jpg"" style=""width:8cm; height:6.05cm;""><p>What type of rock is this?</p>",4,class_response,2,test,33,Obsidian,Obsidian,11,TRUE,5,5,,,,,,,,,,,,,,,,
,,,,,,,,,,,html-keyboard-response,339,2.0.0,2275042,66d88375799e00b593a8655f,4,32,null,,,,,,,,,<p style='font-size: 30px;'><strong>Okay</strong></p>,null,neutral_feedback,2,test,33,,,,,,,,,,,,,,,,,,,,,,
,,,,,,,,,,,html-button-response,340,2.0.0,2276199,66d88375799e00b593a8655f,4,32,1156,,,,,,,,,"<img src= ""rock_img/I_Basalt_05.jpg"" style=""width:8cm; height:8.18cm;""><p>What type of rock is this?</p>",1,class_response,2,test,34,Basalt,Basalt,5,TRUE,2,2,,,,,,,,,,,,,,,,
,,,,,,,,,,,html-keyboard-response,341,2.0.0,2276709,66d88375799e00b593a8655f,4,32,null,,,,,,,,,<p style='font-size: 30px;'><strong>Okay</strong></p>,null,neutral_feedback,2,test,34,,,,,,,,,,,,,,,,,,,,,,
,,,,,,,,,,,html-button-response,342,2.0.0,2280094,66d88375799e00b593a8655f,4,32,3384,,,,,,,,,"<img src= ""rock_img/I_Gabbro_12.jpg"" style=""width:8cm; height:7.800000000000001cm;""><p>What type of rock is this?</p>",3,class_response,2,test,35,Gabbro,Gabbro,12,TRUE,4,4,,,,,,,,,,,,,,,,
,,,,,,,,,,,html-keyboard-response,343,2.0.0,2280607,66d88375799e00b593a8655f,4,32,null,,,,,,,,,<p style='font-size: 30px;'><strong>Okay</strong></p>,null,neutral_feedback,2,test,35,,,,,,,,,,,,,,,,,,,,,,
,,,,,,,,,,,html-button-response,344,2.0.0,2286204,66d88375799e00b593a8655f,4,32,5595,,,,,,,,,"<img src= ""rock_img/I_Gabbro_09.jpg"" style=""width:8cm; height:7.279999999999999cm;""><p>What type of rock is this?</p>",3,class_response,2,test,36,Gabbro,Gabbro,9,TRUE,4,4,,,,,,,,,,,,,,,,
,,,,,,,,,,,html-keyboard-response,345,2.0.0,2286718,66d88375799e00b593a8655f,4,32,null,,,,,,,,,<p style='font-size: 30px;'><strong>Okay</strong></p>,null,neutral_feedback,2,test,36,,,,,,,,,,,,,,,,,,,,,,
,,,,,,,,,,,html-button-response,346,2.0.0,2294860,66d88375799e00b593a8655f,4,32,8140,,,,,,,,,"<img src= ""rock_img/I_Pegmatite_06.jpg"" style=""width:8cm; height:5.17cm;""><p>What type of rock is this?</p>",5,class_response,2,test,37,Pegmatite,Pegmatite,6,TRUE,6,6,,,,,,,,,,,,,,,,
,,,,,,,,,,,html-keyboard-response,347,2.0.0,2295363,66d88375799e00b593a8655f,4,32,null,,,,,,,,,<p style='font-size: 30px;'><strong>Okay</strong></p>,null,neutral_feedback,2,test,37,,,,,,,,,,,,,,,,,,,,,,
,,,,,,,,,,,html-button-response,348,2.0.0,2298056,66d88375799e00b593a8655f,4,32,2691,,,,,,,,,"<img src= ""rock_img/I_Gabbro_08.jpg"" style=""width:8cm; height:5.15cm;""><p>What type of rock is this?</p>",3,class_response,2,test,38,Gabbro,Gabbro,8,TRUE,4,4,,,,,,,,,,,,,,,,
,,,,,,,,,,,html-keyboard-response,349,2.0.0,2298561,66d88375799e00b593a8655f,4,32,null,,,,,,,,,<p style='font-size: 30px;'><strong>Okay</strong></p>,null,neutral_feedback,2,test,38,,,,,,,,,,,,,,,,,,,,,,
,,,,,,,,,,,html-button-response,350,2.0.0,2303752,66d88375799e00b593a8655f,4,32,5189,,,,,,,,,"<img src= ""rock_img/I_Peridotite_14.jpg"" style=""width:8cm; height:5.3cm;""><p>What type of rock is this?</p>",6,class_response,2,test,39,Peridotite,Peridotite,14,TRUE,7,7,,,,,,,,,,,,,,,,
,,,,,,,,,,,html-keyboard-response,351,2.0.0,2304255,66d88375799e00b593a8655f,4,32,null,,,,,,,,,<p style='font-size: 30px;'><strong>Okay</strong></p>,null,neutral_feedback,2,test,39,,,,,,,,,,,,,,,,,,,,,,
,,,,,,,,,,,html-button-response,352,2.0.0,2307324,66d88375799e00b593a8655f,4,32,3068,,,,,,,,,"<img src= ""rock_img/I_Diorite_15.jpg"" style=""width:8cm; height:5.54cm;""><p>What type of rock is this?</p>",0,class_response,2,test,40,Andesite,Diorite,15,FALSE,1,3,,,,,,,,,,,,,,,,
,,,,,,,,,,,html-keyboard-response,353,2.0.0,2307835,66d88375799e00b593a8655f,4,32,null,,,,,,,,,<p style='font-size: 30px;'><strong>Okay</strong></p>,null,neutral_feedback,2,test,40,,,,,,,,,,,,,,,,,,,,,,
,,,,,,,,,,,html-button-response,354,2.0.0,2309758,66d88375799e00b593a8655f,4,32,1922,,,,,,,,,"<img src= ""rock_img/I_Diorite_10.jpg"" style=""width:8cm; height:5.949999999999999cm;""><p>What type of rock is this?</p>",6,class_response,2,test,41,Peridotite,Diorite,10,FALSE,7,3,,,,,,,,,,,,,,,,
,,,,,,,,,,,html-keyboard-response,355,2.0.0,2310268,66d88375799e00b593a8655f,4,32,null,,,,,,,,,<p style='font-size: 30px;'><strong>Okay</strong></p>,null,neutral_feedback,2,test,41,,,,,,,,,,,,,,,,,,,,,,
,,,,,,,,,,,html-button-response,356,2.0.0,2311247,66d88375799e00b593a8655f,4,32,977,,,,,,,,,"<img src= ""rock_img/I_Basalt_01.jpg"" style=""width:8cm; height:7.880000000000001cm;""><p>What type of rock is this?</p>",1,class_response,2,test,42,Basalt,Basalt,1,TRUE,2,2,,,,,,,,,,,,,,,,
,,,,,,,,,,,html-keyboard-response,357,2.0.0,2311749,66d88375799e00b593a8655f,4,32,null,,,,,,,,,<p style='font-size: 30px;'><strong>Okay</strong></p>,null,neutral_feedback,2,test,42,,,,,,,,,,,,,,,,,,,,,,
,,,,,,,,,,,html-button-response,358,2.0.0,2313303,66d88375799e00b593a8655f,4,32,1553,,,,,,,,,"<img src= ""rock_img/I_Pegmatite_12.jpg"" style=""width:8cm; height:5.7cm;""><p>What type of rock is this?</p>",5,class_response,2,test,43,Pegmatite,Pegmatite,12,TRUE,6,6,,,,,,,,,,,,,,,,
,,,,,,,,,,,html-keyboard-response,359,2.0.0,2313815,66d88375799e00b593a8655f,4,32,null,,,,,,,,,<p style='font-size: 30px;'><strong>Okay</strong></p>,null,neutral_feedback,2,test,43,,,,,,,,,,,,,,,,,,,,,,
,,,,,,,,,,,html-button-response,360,2.0.0,2315379,66d88375799e00b593a8655f,4,32,1563,,,,,,,,,"<img src= ""rock_img/I_Pumice_02.jpg"" style=""width:8cm; height:7.3999999999999995cm;""><p>What type of rock is this?</p>",7,class_response,2,test,44,Pumice,Pumice,2,TRUE,8,8,,,,,,,,,,,,,,,,
,,,,,,,,,,,html-keyboard-response,361,2.0.0,2315880,66d88375799e00b593a8655f,4,32,null,,,,,,,,,<p style='font-size: 30px;'><strong>Okay</strong></p>,null,neutral_feedback,2,test,44,,,,,,,,,,,,,,,,,,,,,,
,,,,,,,,,,,html-button-response,362,2.0.0,2320568,66d88375799e00b593a8655f,4,32,4686,,,,,,,,,"<img src= ""rock_img/I_Andesite_10.jpg"" style=""width:8cm; height:4.16cm;""><p>What type of rock is this?</p>",3,class_response,2,test,45,Gabbro,Andesite,10,FALSE,4,1,,,,,,,,,,,,,,,,
,,,,,,,,,,,html-keyboard-response,363,2.0.0,2321075,66d88375799e00b593a8655f,4,32,null,,,,,,,,,<p style='font-size: 30px;'><strong>Okay</strong></p>,null,neutral_feedback,2,test,45,,,,,,,,,,,,,,,,,,,,,,
,,,,,,,,,,,html-button-response,364,2.0.0,2323831,66d88375799e00b593a8655f,4,32,2754,,,,,,,,,"<img src= ""rock_img/I_Andesite_01.jpg"" style=""width:8cm; height:5.87cm;""><p>What type of rock is this?</p>",0,class_response,2,test,46,Andesite,Andesite,1,TRUE,1,1,,,,,,,,,,,,,,,,
,,,,,,,,,,,html-keyboard-response,365,2.0.0,2324338,66d88375799e00b593a8655f,4,32,null,,,,,,,,,<p style='font-size: 30px;'><strong>Okay</strong></p>,null,neutral_feedback,2,test,46,,,,,,,,,,,,,,,,,,,,,,
,,,,,,,,,,,html-button-response,366,2.0.0,2325718,66d88375799e00b593a8655f,4,32,1379,,,,,,,,,"<img src= ""rock_img/I_Andesite_04.jpg"" style=""width:8cm; height:5.96cm;""><p>What type of rock is this?</p>",6,class_response,2,test,47,Peridotite,Andesite,4,FALSE,7,1,,,,,,,,,,,,,,,,
,,,,,,,,,,,html-keyboard-response,367,2.0.0,2326221,66d88375799e00b593a8655f,4,32,null,,,,,,,,,<p style='font-size: 30px;'><strong>Okay</strong></p>,null,neutral_feedback,2,test,47,,,,,,,,,,,,,,,,,,,,,,
,,,,,,,,,,,html-button-response,368,2.0.0,2327769,66d88375799e00b593a8655f,4,32,1546,,,,,,,,,"<img src= ""rock_img/I_Pumice_09.jpg"" style=""width:8cm; height:6.44cm;""><p>What type of rock is this?</p>",7,class_response,2,test,48,Pumice,Pumice,9,TRUE,8,8,,,,,,,,,,,,,,,,
,,,,,,,,,,,html-keyboard-response,369,2.0.0,2328285,66d88375799e00b593a8655f,4,32,null,,,,,,,,,<p style='font-size: 30px;'><strong>Okay</strong></p>,null,neutral_feedback,2,test,48,,,,,,,,,,,,,,,,,,,,,,
,,,,,,,,,,,html-button-response,370,2.0.0,2435678,66d88375799e00b593a8655f,4,32,,,,,,,,,,,,cycle_feedback,,,,,,,,,,,,,,,,,,,,,,,,35467,71919.5
,,,,,,,,,,,html-button-response,372,2.0.0,2437321,66d88375799e00b593a8655f,4,32,1642,,,,,,,,,,0,start_train,,,,,,,,,,,,,,,,,,,,,,,,,
,,,,,,,,,,,html-button-response,374,2.0.0,2452796,66d88375799e00b593a8655f,4,32,15474,,,,,,,,,"<img src= ""rock_img/I_Basalt_12.jpg"" style=""width:8cm; height:6.010000000000001cm;""><p>What type of rock is this?</p>",1,class_response,3,train,1,Basalt,Basalt,12,TRUE,2,2,,,,,,,,,,,,,,,,
,,,,,,,,,,,html-button-response,375,2.0.0,2454249,66d88375799e00b593a8655f,4,32,1451,,,,,,,,,"<img src= rock_img/I_Basalt_12.jpg style=""width:8cm; height:6.010000000000001cm;""><p style='font-size: 30px; color: green;'><strong>Correct!</strong></p><p style='font-size: 30px;'><strong>This rock is basalt</strong></p>",0,corr_feedback,3,train,1,,,,,,,,,,,,,,,,,,,,,,
,,,,,,,,,,,html-button-response,376,2.0.0,2461381,66d88375799e00b593a8655f,4,32,7131,,,,,,,,,"<img src= ""rock_img/I_Andesite_06.jpg"" style=""width:8cm; height:6.840000000000001cm;""><p>What type of rock is this?</p>",6,class_response,3,train,2,Peridotite,Andesite,6,FALSE,7,1,,,,,,,,,,,,,,,,
,,,,,,,,,,,html-button-response,377,2.0.0,2464092,66d88375799e00b593a8655f,4,32,2710,,,,,,,,,"<img src= rock_img/I_Andesite_06.jpg style=""width:8cm; height:6.840000000000001cm;""><p style='font-size: 30px; color: red;'><strong>Incorrect!</strong></p><p style='font-size: 30px;'><strong>This rock is andesite</strong></p>",0,corr_feedback,3,train,2,,,,,,,,,,,,,,,,,,,,,,
,,,,,,,,,,,html-button-response,378,2.0.0,2466847,66d88375799e00b593a8655f,4,32,2753,,,,,,,,,"<img src= ""rock_img/I_Peridotite_02.jpg"" style=""width:8cm; height:5.859999999999999cm;""><p>What type of rock is this?</p>",2,class_response,3,train,3,Diorite,Peridotite,2,FALSE,3,7,,,,,,,,,,,,,,,,
,,,,,,,,,,,html-button-response,379,2.0.0,2475535,66d88375799e00b593a8655f,4,32,8688,,,,,,,,,"<img src= rock_img/I_Peridotite_02.jpg style=""width:8cm; height:5.859999999999999cm;""><p style='font-size: 30px; color: red;'><strong>Incorrect!</strong></p><p style='font-size: 30px;'><strong>This rock is peridotite</strong></p>",0,corr_feedback,3,train,3,,,,,,,,,,,,,,,,,,,,,,
,,,,,,,,,,,html-button-response,380,2.0.0,2478633,66d88375799e00b593a8655f,4,32,3097,,,,,,,,,"<img src= ""rock_img/I_Andesite_02.jpg"" style=""width:8cm; height:8.5cm;""><p>What type of rock is this?</p>",0,class_response,3,train,4,Andesite,Andesite,2,TRUE,1,1,,,,,,,,,,,,,,,,
,,,,,,,,,,,html-button-response,381,2.0.0,2480870,66d88375799e00b593a8655f,4,32,2235,,,,,,,,,"<img src= rock_img/I_Andesite_02.jpg style=""width:8cm; height:8.5cm;""><p style='font-size: 30px; color: green;'><strong>Correct!</strong></p><p style='font-size: 30px;'><strong>This rock is andesite</strong></p>",0,corr_feedback,3,train,4,,,,,,,,,,,,,,,,,,,,,,
,,,,,,,,,,,html-button-response,382,2.0.0,2482640,66d88375799e00b593a8655f,4,32,1769,,,,,,,,,"<img src= ""rock_img/I_Obsidian_10.jpg"" style=""width:8cm; height:6.260000000000001cm;""><p>What type of rock is this?</p>",4,class_response,3,train,5,Obsidian,Obsidian,10,TRUE,5,5,,,,,,,,,,,,,,,,
,,,,,,,,,,,html-button-response,383,2.0.0,2483674,66d88375799e00b593a8655f,4,32,1033,,,,,,,,,"<img src= rock_img/I_Obsidian_10.jpg style=""width:8cm; height:6.260000000000001cm;""><p style='font-size: 30px; color: green;'><strong>Correct!</strong></p><p style='font-size: 30px;'><strong>This rock is obsidian</strong></p>",0,corr_feedback,3,train,5,,,,,,,,,,,,,,,,,,,,,,
,,,,,,,,,,,html-button-response,384,2.0.0,2490888,66d88375799e00b593a8655f,4,32,7213,,,,,,,,,"<img src= ""rock_img/I_Peridotite_04.jpg"" style=""width:8cm; height:6.680000000000001cm;""><p>What type of rock is this?</p>",6,class_response,3,train,6,Peridotite,Peridotite,4,TRUE,7,7,,,,,,,,,,,,,,,,
,,,,,,,,,,,html-button-response,385,2.0.0,2494454,66d88375799e00b593a8655f,4,32,3564,,,,,,,,,"<img src= rock_img/I_Peridotite_04.jpg style=""width:8cm; height:6.680000000000001cm;""><p style='font-size: 30px; color: green;'><strong>Correct!</strong></p><p style='font-size: 30px;'><strong>This rock is peridotite</strong></p>",0,corr_feedback,3,train,6,,,,,,,,,,,,,,,,,,,,,,
,,,,,,,,,,,html-button-response,386,2.0.0,2496229,66d88375799e00b593a8655f,4,32,1774,,,,,,,,,"<img src= ""rock_img/I_Pumice_08.jpg"" style=""width:8cm; height:6.67cm;""><p>What type of rock is this?</p>",7,class_response,3,train,7,Pumice,Pumice,8,TRUE,8,8,,,,,,,,,,,,,,,,
,,,,,,,,,,,html-button-response,387,2.0.0,2497124,66d88375799e00b593a8655f,4,32,894,,,,,,,,,"<img src= rock_img/I_Pumice_08.jpg style=""width:8cm; height:6.67cm;""><p style='font-size: 30px; color: green;'><strong>Correct!</strong></p><p style='font-size: 30px;'><strong>This rock is pumice</strong></p>",0,corr_feedback,3,train,7,,,,,,,,,,,,,,,,,,,,,,
,,,,,,,,,,,html-button-response,388,2.0.0,2498417,66d88375799e00b593a8655f,4,32,1292,,,,,,,,,"<img src= ""rock_img/I_Pumice_04.jpg"" style=""width:8cm; height:6.819999999999999cm;""><p>What type of rock is this?</p>",7,class_response,3,train,8,Pumice,Pumice,4,TRUE,8,8,,,,,,,,,,,,,,,,
,,,,,,,,,,,html-button-response,389,2.0.0,2499396,66d88375799e00b593a8655f,4,32,977,,,,,,,,,"<img src= rock_img/I_Pumice_04.jpg style=""width:8cm; height:6.819999999999999cm;""><p style='font-size: 30px; color: green;'><strong>Correct!</strong></p><p style='font-size: 30px;'><strong>This rock is pumice</strong></p>",0,corr_feedback,3,train,8,,,,,,,,,,,,,,,,,,,,,,
,,,,,,,,,,,html-button-response,390,2.0.0,2503855,66d88375799e00b593a8655f,4,32,4457,,,,,,,,,"<img src= ""rock_img/I_Diorite_14.jpg"" style=""width:8cm; height:5.71cm;""><p>What type of rock is this?</p>",2,class_response,3,train,9,Diorite,Diorite,14,TRUE,3,3,,,,,,,,,,,,,,,,
,,,,,,,,,,,html-button-response,391,2.0.0,2505554,66d88375799e00b593a8655f,4,32,1698,,,,,,,,,"<img src= rock_img/I_Diorite_14.jpg style=""width:8cm; height:5.71cm;""><p style='font-size: 30px; color: green;'><strong>Correct!</strong></p><p style='font-size: 30px;'><strong>This rock is diorite</strong></p>",0,corr_feedback,3,train,9,,,,,,,,,,,,,,,,,,,,,,
,,,,,,,,,,,html-button-response,392,2.0.0,2510574,66d88375799e00b593a8655f,4,32,5019,,,,,,,,,"<img src= ""rock_img/I_Gabbro_13.jpg"" style=""width:8cm; height:5.08cm;""><p>What type of rock is this?</p>",3,class_response,3,train,10,Gabbro,Gabbro,13,TRUE,4,4,,,,,,,,,,,,,,,,
,,,,,,,,,,,html-button-response,393,2.0.0,2512362,66d88375799e00b593a8655f,4,32,1787,,,,,,,,,"<img src= rock_img/I_Gabbro_13.jpg style=""width:8cm; height:5.08cm;""><p style='font-size: 30px; color: green;'><strong>Correct!</strong></p><p style='font-size: 30px;'><strong>This rock is gabbro</strong></p>",0,corr_feedback,3,train,10,,,,,,,,,,,,,,,,,,,,,,
,,,,,,,,,,,html-button-response,394,2.0.0,2514998,66d88375799e00b593a8655f,4,32,2635,,,,,,,,,"<img src= ""rock_img/I_Pegmatite_05.jpg"" style=""width:8cm; height:7.300000000000001cm;""><p>What type of rock is this?</p>",5,class_response,3,train,11,Pegmatite,Pegmatite,5,TRUE,6,6,,,,,,,,,,,,,,,,
,,,,,,,,,,,html-button-response,395,2.0.0,2517193,66d88375799e00b593a8655f,4,32,2194,,,,,,,,,"<img src= rock_img/I_Pegmatite_05.jpg style=""width:8cm; height:7.300000000000001cm;""><p style='font-size: 30px; color: green;'><strong>Correct!</strong></p><p style='font-size: 30px;'><strong>This rock is pegmatite</strong></p>",0,corr_feedback,3,train,11,,,,,,,,,,,,,,,,,,,,,,
,,,,,,,,,,,html-button-response,396,2.0.0,2520151,66d88375799e00b593a8655f,4,32,2956,,,,,,,,,"<img src= ""rock_img/I_Gabbro_16.jpg"" style=""width:8cm; height:6.44cm;""><p>What type of rock is this?</p>",3,class_response,3,train,12,Gabbro,Gabbro,16,TRUE,4,4,,,,,,,,,,,,,,,,
,,,,,,,,,,,html-button-response,397,2.0.0,2521297,66d88375799e00b593a8655f,4,32,1145,,,,,,,,,"<img src= rock_img/I_Gabbro_16.jpg style=""width:8cm; height:6.44cm;""><p style='font-size: 30px; color: green;'><strong>Correct!</strong></p><p style='font-size: 30px;'><strong>This rock is gabbro</strong></p>",0,corr_feedback,3,train,12,,,,,,,,,,,,,,,,,,,,,,
,,,,,,,,,,,html-button-response,399,2.0.0,2523128,66d88375799e00b593a8655f,4,32,1830,,,,,,,,,,0,start_train,,,,,,,,,,,,,,,,,,,,,,,,,
