width,height,webaudio,browser,browser_version,mobile,os,fullscreen,vsync_rate,webcam,microphone,trial_type,trial_index,plugin_version,time_elapsed,subjID,condition,stimID,rt,url,success,value,timeout,failed_images,failed_audio,failed_video,view_history,stimulus,response,trialType,cycle,phase,trial,resp,cat,token,corr,resp_num,cat_num,ref_cat_num,paired_cat_num,time_obs,ref_cat,paired_cat,ref_prob_dist,paired_prob_dist,text_Diorite,text_Gabbro,time_resp,text_Basalt,text_Pegmatite,text_Andesite,text_Peridotite,time_fb1,time_fb2
1366,641,TRUE,chrome,130.0.0,FALSE,Windows 10,TRUE,59.96,FALSE,FALSE,browser-check,0,2.0.0,1010,671fca7287fb225453006af0,3,29,,,,,,,,,,,,,,,,,,,,,,,,,,,,,,,,,,,,,
,,,,,,,,,,,external-html,1,2.0.0,9476,671fca7287fb225453006af0,3,29,7802,consent_form.html,,,,,,,,,,,,,,,,,,,,,,,,,,,,,,,,,,,
,,,,,,,,,,,fullscreen,2,2.0.0,22229,671fca7287fb225453006af0,3,29,11746,,TRUE,,,,,,,,,,,,,,,,,,,,,,,,,,,,,,,,,,
,,,,,,,,,,,call-function,3,2.0.0,22233,671fca7287fb225453006af0,3,29,,,,{},,,,,,,,,,,,,,,,,,,,,,,,,,,,,,,,,
,,,,,,,,,,,preload,4,2.0.0,79322,671fca7287fb225453006af0,3,29,,,TRUE,,FALSE,[],[],[],,,,,,,,,,,,,,,,,,,,,,,,,,,,,
,,,,,,,,,,,instructions,5,2.0.0,345509,671fca7287fb225453006af0,3,29,266176,,,,,,,,"[{""page_index"":0,""viewing_time"":30350},{""page_index"":1,""viewing_time"":204770},{""page_index"":2,""viewing_time"":31056}]",,,,,,,,,,,,,,,,,,,,,,,,,,,,
,,,,,,,,,,,html-button-response,6,2.0.0,385452,671fca7287fb225453006af0,3,29,39941,,,,,,,,,,0,start_test,,,,,,,,,,,,,,,,,,,,,,,,,
,,,,,,,,,,,html-button-response,7,2.0.0,396846,671fca7287fb225453006af0,3,29,11391,,,,,,,,,"<img src= ""rock_img/I_Basalt_06.jpg"" style=""width:8cm; height:7.06cm;""><p>What type of rock is this?</p>",3,class_response,0,test,1,Gabbro,Basalt,6,FALSE,4,2,,,,,,,,,,,,,,,,
,,,,,,,,,,,html-keyboard-response,8,2.0.0,397349,671fca7287fb225453006af0,3,29,null,,,,,,,,,<p style='font-size: 30px;'><strong>Okay</strong></p>,null,neutral_feedback,0,test,1,,,,,,,,,,,,,,,,,,,,,,
,,,,,,,,,,,html-button-response,9,2.0.0,432995,671fca7287fb225453006af0,3,29,35643,,,,,,,,,"<img src= ""rock_img/I_Andesite_14.jpg"" style=""width:8cm; height:5.449999999999999cm;""><p>What type of rock is this?</p>",2,class_response,0,test,2,Diorite,Andesite,14,FALSE,3,1,,,,,,,,,,,,,,,,
,,,,,,,,,,,html-keyboard-response,10,2.0.0,433508,671fca7287fb225453006af0,3,29,null,,,,,,,,,<p style='font-size: 30px;'><strong>Okay</strong></p>,null,neutral_feedback,0,test,2,,,,,,,,,,,,,,,,,,,,,,
,,,,,,,,,,,html-button-response,11,2.0.0,471582,671fca7287fb225453006af0,3,29,38071,,,,,,,,,"<img src= ""rock_img/I_Pegmatite_13.jpg"" style=""width:8cm; height:4.95cm;""><p>What type of rock is this?</p>",1,class_response,0,test,3,Basalt,Pegmatite,13,FALSE,2,6,,,,,,,,,,,,,,,,
,,,,,,,,,,,html-keyboard-response,12,2.0.0,472087,671fca7287fb225453006af0,3,29,null,,,,,,,,,<p style='font-size: 30px;'><strong>Okay</strong></p>,null,neutral_feedback,0,test,3,,,,,,,,,,,,,,,,,,,,,,
,,,,,,,,,,,html-button-response,13,2.0.0,490891,671fca7287fb225453006af0,3,29,18801,,,,,,,,,"<img src= ""rock_img/I_Basalt_09.jpg"" style=""width:8cm; height:6.2cm;""><p>What type of rock is this?</p>",7,class_response,0,test,4,Pumice,Basalt,9,FALSE,8,2,,,,,,,,,,,,,,,,
,,,,,,,,,,,html-keyboard-response,14,2.0.0,491392,671fca7287fb225453006af0,3,29,null,,,,,,,,,<p style='font-size: 30px;'><strong>Okay</strong></p>,null,neutral_feedback,0,test,4,,,,,,,,,,,,,,,,,,,,,,
,,,,,,,,,,,html-button-response,15,2.0.0,511765,671fca7287fb225453006af0,3,29,20371,,,,,,,,,"<img src= ""rock_img/I_Gabbro_14.jpg"" style=""width:8cm; height:8.48cm;""><p>What type of rock is this?</p>",4,class_response,0,test,5,Obsidian,Gabbro,14,FALSE,5,4,,,,,,,,,,,,,,,,
,,,,,,,,,,,html-keyboard-response,16,2.0.0,512280,671fca7287fb225453006af0,3,29,null,,,,,,,,,<p style='font-size: 30px;'><strong>Okay</strong></p>,null,neutral_feedback,0,test,5,,,,,,,,,,,,,,,,,,,,,,
,,,,,,,,,,,html-button-response,17,2.0.0,551603,671fca7287fb225453006af0,3,29,39319,,,,,,,,,"<img src= ""rock_img/I_Peridotite_10.jpg"" style=""width:8cm; height:5.390000000000001cm;""><p>What type of rock is this?</p>",0,class_response,0,test,6,Andesite,Peridotite,10,FALSE,1,7,,,,,,,,,,,,,,,,
,,,,,,,,,,,html-keyboard-response,18,2.0.0,552109,671fca7287fb225453006af0,3,29,null,,,,,,,,,<p style='font-size: 30px;'><strong>Okay</strong></p>,null,neutral_feedback,0,test,6,,,,,,,,,,,,,,,,,,,,,,
,,,,,,,,,,,html-button-response,19,2.0.0,560703,671fca7287fb225453006af0,3,29,8591,,,,,,,,,"<img src= ""rock_img/I_Basalt_05.jpg"" style=""width:8cm; height:8.18cm;""><p>What type of rock is this?</p>",5,class_response,0,test,7,Pegmatite,Basalt,5,FALSE,6,2,,,,,,,,,,,,,,,,
,,,,,,,,,,,html-keyboard-response,20,2.0.0,561212,671fca7287fb225453006af0,3,29,null,,,,,,,,,<p style='font-size: 30px;'><strong>Okay</strong></p>,null,neutral_feedback,0,test,7,,,,,,,,,,,,,,,,,,,,,,
,,,,,,,,,,,html-button-response,21,2.0.0,580258,671fca7287fb225453006af0,3,29,19042,,,,,,,,,"<img src= ""rock_img/I_Andesite_16.jpg"" style=""width:8cm; height:6.010000000000001cm;""><p>What type of rock is this?</p>",6,class_response,0,test,8,Peridotite,Andesite,16,FALSE,7,1,,,,,,,,,,,,,,,,
,,,,,,,,,,,html-keyboard-response,22,2.0.0,580768,671fca7287fb225453006af0,3,29,null,,,,,,,,,<p style='font-size: 30px;'><strong>Okay</strong></p>,null,neutral_feedback,0,test,8,,,,,,,,,,,,,,,,,,,,,,
,,,,,,,,,,,html-button-response,23,2.0.0,583940,671fca7287fb225453006af0,3,29,3169,,,,,,,,,"<img src= ""rock_img/I_Peridotite_06.jpg"" style=""width:8cm; height:7.53cm;""><p>What type of rock is this?</p>",0,class_response,0,test,9,Andesite,Peridotite,6,FALSE,1,7,,,,,,,,,,,,,,,,
,,,,,,,,,,,html-keyboard-response,24,2.0.0,584452,671fca7287fb225453006af0,3,29,null,,,,,,,,,<p style='font-size: 30px;'><strong>Okay</strong></p>,null,neutral_feedback,0,test,9,,,,,,,,,,,,,,,,,,,,,,
,,,,,,,,,,,html-button-response,25,2.0.0,612160,671fca7287fb225453006af0,3,29,27706,,,,,,,,,"<img src= ""rock_img/I_Pumice_16.jpg"" style=""width:8cm; height:6.79cm;""><p>What type of rock is this?</p>",0,class_response,0,test,10,Andesite,Pumice,16,FALSE,1,8,,,,,,,,,,,,,,,,
,,,,,,,,,,,html-keyboard-response,26,2.0.0,612668,671fca7287fb225453006af0,3,29,null,,,,,,,,,<p style='font-size: 30px;'><strong>Okay</strong></p>,null,neutral_feedback,0,test,10,,,,,,,,,,,,,,,,,,,,,,
,,,,,,,,,,,html-button-response,27,2.0.0,617014,671fca7287fb225453006af0,3,29,4343,,,,,,,,,"<img src= ""rock_img/I_Obsidian_08.jpg"" style=""width:8cm; height:7.39cm;""><p>What type of rock is this?</p>",1,class_response,0,test,11,Basalt,Obsidian,8,FALSE,2,5,,,,,,,,,,,,,,,,
,,,,,,,,,,,html-keyboard-response,28,2.0.0,617529,671fca7287fb225453006af0,3,29,null,,,,,,,,,<p style='font-size: 30px;'><strong>Okay</strong></p>,null,neutral_feedback,0,test,11,,,,,,,,,,,,,,,,,,,,,,
,,,,,,,,,,,html-button-response,29,2.0.0,629140,671fca7287fb225453006af0,3,29,11609,,,,,,,,,"<img src= ""rock_img/I_Peridotite_13.jpg"" style=""width:8cm; height:7.58cm;""><p>What type of rock is this?</p>",7,class_response,0,test,12,Pumice,Peridotite,13,FALSE,8,7,,,,,,,,,,,,,,,,
,,,,,,,,,,,html-keyboard-response,30,2.0.0,629649,671fca7287fb225453006af0,3,29,null,,,,,,,,,<p style='font-size: 30px;'><strong>Okay</strong></p>,null,neutral_feedback,0,test,12,,,,,,,,,,,,,,,,,,,,,,
,,,,,,,,,,,html-button-response,31,2.0.0,635187,671fca7287fb225453006af0,3,29,5535,,,,,,,,,"<img src= ""rock_img/I_Gabbro_11.jpg"" style=""width:8cm; height:6.2cm;""><p>What type of rock is this?</p>",6,class_response,0,test,13,Peridotite,Gabbro,11,FALSE,7,4,,,,,,,,,,,,,,,,
,,,,,,,,,,,html-keyboard-response,32,2.0.0,635701,671fca7287fb225453006af0,3,29,null,,,,,,,,,<p style='font-size: 30px;'><strong>Okay</strong></p>,null,neutral_feedback,0,test,13,,,,,,,,,,,,,,,,,,,,,,
,,,,,,,,,,,html-button-response,33,2.0.0,641932,671fca7287fb225453006af0,3,29,6228,,,,,,,,,"<img src= ""rock_img/I_Peridotite_15.jpg"" style=""width:8cm; height:6cm;""><p>What type of rock is this?</p>",1,class_response,0,test,14,Basalt,Peridotite,15,FALSE,2,7,,,,,,,,,,,,,,,,
,,,,,,,,,,,html-keyboard-response,34,2.0.0,642437,671fca7287fb225453006af0,3,29,null,,,,,,,,,<p style='font-size: 30px;'><strong>Okay</strong></p>,null,neutral_feedback,0,test,14,,,,,,,,,,,,,,,,,,,,,,
,,,,,,,,,,,html-button-response,35,2.0.0,655626,671fca7287fb225453006af0,3,29,13186,,,,,,,,,"<img src= ""rock_img/I_Peridotite_04.jpg"" style=""width:8cm; height:6.680000000000001cm;""><p>What type of rock is this?</p>",4,class_response,0,test,15,Obsidian,Peridotite,4,FALSE,5,7,,,,,,,,,,,,,,,,
,,,,,,,,,,,html-keyboard-response,36,2.0.0,656140,671fca7287fb225453006af0,3,29,null,,,,,,,,,<p style='font-size: 30px;'><strong>Okay</strong></p>,null,neutral_feedback,0,test,15,,,,,,,,,,,,,,,,,,,,,,
,,,,,,,,,,,html-button-response,37,2.0.0,677775,671fca7287fb225453006af0,3,29,21632,,,,,,,,,"<img src= ""rock_img/I_Gabbro_03.jpg"" style=""width:8cm; height:8.52cm;""><p>What type of rock is this?</p>",2,class_response,0,test,16,Diorite,Gabbro,3,FALSE,3,4,,,,,,,,,,,,,,,,
,,,,,,,,,,,html-keyboard-response,38,2.0.0,678281,671fca7287fb225453006af0,3,29,null,,,,,,,,,<p style='font-size: 30px;'><strong>Okay</strong></p>,null,neutral_feedback,0,test,16,,,,,,,,,,,,,,,,,,,,,,
,,,,,,,,,,,html-button-response,39,2.0.0,695170,671fca7287fb225453006af0,3,29,16886,,,,,,,,,"<img src= ""rock_img/I_Obsidian_12.jpg"" style=""width:8cm; height:6.53cm;""><p>What type of rock is this?</p>",1,class_response,0,test,17,Basalt,Obsidian,12,FALSE,2,5,,,,,,,,,,,,,,,,
,,,,,,,,,,,html-keyboard-response,40,2.0.0,695685,671fca7287fb225453006af0,3,29,null,,,,,,,,,<p style='font-size: 30px;'><strong>Okay</strong></p>,null,neutral_feedback,0,test,17,,,,,,,,,,,,,,,,,,,,,,
,,,,,,,,,,,html-button-response,41,2.0.0,707713,671fca7287fb225453006af0,3,29,12025,,,,,,,,,"<img src= ""rock_img/I_Pumice_06.jpg"" style=""width:8cm; height:6.9399999999999995cm;""><p>What type of rock is this?</p>",7,class_response,0,test,18,Pumice,Pumice,6,TRUE,8,8,,,,,,,,,,,,,,,,
,,,,,,,,,,,html-keyboard-response,42,2.0.0,708223,671fca7287fb225453006af0,3,29,null,,,,,,,,,<p style='font-size: 30px;'><strong>Okay</strong></p>,null,neutral_feedback,0,test,18,,,,,,,,,,,,,,,,,,,,,,
,,,,,,,,,,,html-button-response,43,2.0.0,718035,671fca7287fb225453006af0,3,29,9810,,,,,,,,,"<img src= ""rock_img/I_Diorite_07.jpg"" style=""width:8cm; height:5.239999999999999cm;""><p>What type of rock is this?</p>",3,class_response,0,test,19,Gabbro,Diorite,7,FALSE,4,3,,,,,,,,,,,,,,,,
,,,,,,,,,,,html-keyboard-response,44,2.0.0,718541,671fca7287fb225453006af0,3,29,null,,,,,,,,,<p style='font-size: 30px;'><strong>Okay</strong></p>,null,neutral_feedback,0,test,19,,,,,,,,,,,,,,,,,,,,,,
,,,,,,,,,,,html-button-response,45,2.0.0,736084,671fca7287fb225453006af0,3,29,17540,,,,,,,,,"<img src= ""rock_img/I_Basalt_08.jpg"" style=""width:8cm; height:10.44cm;""><p>What type of rock is this?</p>",2,class_response,0,test,20,Diorite,Basalt,8,FALSE,3,2,,,,,,,,,,,,,,,,
,,,,,,,,,,,html-keyboard-response,46,2.0.0,736598,671fca7287fb225453006af0,3,29,null,,,,,,,,,<p style='font-size: 30px;'><strong>Okay</strong></p>,null,neutral_feedback,0,test,20,,,,,,,,,,,,,,,,,,,,,,
,,,,,,,,,,,html-button-response,47,2.0.0,746349,671fca7287fb225453006af0,3,29,9749,,,,,,,,,"<img src= ""rock_img/I_Pegmatite_07.jpg"" style=""width:8cm; height:6.7cm;""><p>What type of rock is this?</p>",1,class_response,0,test,21,Basalt,Pegmatite,7,FALSE,2,6,,,,,,,,,,,,,,,,
,,,,,,,,,,,html-keyboard-response,48,2.0.0,746852,671fca7287fb225453006af0,3,29,null,,,,,,,,,<p style='font-size: 30px;'><strong>Okay</strong></p>,null,neutral_feedback,0,test,21,,,,,,,,,,,,,,,,,,,,,,
,,,,,,,,,,,html-button-response,49,2.0.0,761694,671fca7287fb225453006af0,3,29,14839,,,,,,,,,"<img src= ""rock_img/I_Obsidian_04.jpg"" style=""width:8cm; height:6.930000000000001cm;""><p>What type of rock is this?</p>",1,class_response,0,test,22,Basalt,Obsidian,4,FALSE,2,5,,,,,,,,,,,,,,,,
,,,,,,,,,,,html-keyboard-response,50,2.0.0,762205,671fca7287fb225453006af0,3,29,null,,,,,,,,,<p style='font-size: 30px;'><strong>Okay</strong></p>,null,neutral_feedback,0,test,22,,,,,,,,,,,,,,,,,,,,,,
,,,,,,,,,,,html-button-response,51,2.0.0,769005,671fca7287fb225453006af0,3,29,6797,,,,,,,,,"<img src= ""rock_img/I_Diorite_13.jpg"" style=""width:8cm; height:6.29cm;""><p>What type of rock is this?</p>",2,class_response,0,test,23,Diorite,Diorite,13,TRUE,3,3,,,,,,,,,,,,,,,,
,,,,,,,,,,,html-keyboard-response,52,2.0.0,769509,671fca7287fb225453006af0,3,29,null,,,,,,,,,<p style='font-size: 30px;'><strong>Okay</strong></p>,null,neutral_feedback,0,test,23,,,,,,,,,,,,,,,,,,,,,,
,,,,,,,,,,,html-button-response,53,2.0.0,784232,671fca7287fb225453006af0,3,29,14720,,,,,,,,,"<img src= ""rock_img/I_Basalt_16.jpg"" style=""width:8cm; height:7.659999999999999cm;""><p>What type of rock is this?</p>",3,class_response,0,test,24,Gabbro,Basalt,16,FALSE,4,2,,,,,,,,,,,,,,,,
,,,,,,,,,,,html-keyboard-response,54,2.0.0,784746,671fca7287fb225453006af0,3,29,null,,,,,,,,,<p style='font-size: 30px;'><strong>Okay</strong></p>,null,neutral_feedback,0,test,24,,,,,,,,,,,,,,,,,,,,,,
,,,,,,,,,,,html-button-response,55,2.0.0,793577,671fca7287fb225453006af0,3,29,8829,,,,,,,,,"<img src= ""rock_img/I_Gabbro_09.jpg"" style=""width:8cm; height:7.279999999999999cm;""><p>What type of rock is this?</p>",3,class_response,0,test,25,Gabbro,Gabbro,9,TRUE,4,4,,,,,,,,,,,,,,,,
,,,,,,,,,,,html-keyboard-response,56,2.0.0,794083,671fca7287fb225453006af0,3,29,null,,,,,,,,,<p style='font-size: 30px;'><strong>Okay</strong></p>,null,neutral_feedback,0,test,25,,,,,,,,,,,,,,,,,,,,,,
,,,,,,,,,,,html-button-response,57,2.0.0,800935,671fca7287fb225453006af0,3,29,6849,,,,,,,,,"<img src= ""rock_img/I_Diorite_11.jpg"" style=""width:8cm; height:7.11cm;""><p>What type of rock is this?</p>",2,class_response,0,test,26,Diorite,Diorite,11,TRUE,3,3,,,,,,,,,,,,,,,,
,,,,,,,,,,,html-keyboard-response,58,2.0.0,801450,671fca7287fb225453006af0,3,29,null,,,,,,,,,<p style='font-size: 30px;'><strong>Okay</strong></p>,null,neutral_feedback,0,test,26,,,,,,,,,,,,,,,,,,,,,,
,,,,,,,,,,,html-button-response,59,2.0.0,812908,671fca7287fb225453006af0,3,29,11455,,,,,,,,,"<img src= ""rock_img/I_Andesite_06.jpg"" style=""width:8cm; height:6.840000000000001cm;""><p>What type of rock is this?</p>",3,class_response,0,test,27,Gabbro,Andesite,6,FALSE,4,1,,,,,,,,,,,,,,,,
,,,,,,,,,,,html-keyboard-response,60,2.0.0,813419,671fca7287fb225453006af0,3,29,null,,,,,,,,,<p style='font-size: 30px;'><strong>Okay</strong></p>,null,neutral_feedback,0,test,27,,,,,,,,,,,,,,,,,,,,,,
,,,,,,,,,,,html-button-response,61,2.0.0,831128,671fca7287fb225453006af0,3,29,17707,,,,,,,,,"<img src= ""rock_img/I_Peridotite_02.jpg"" style=""width:8cm; height:5.859999999999999cm;""><p>What type of rock is this?</p>",1,class_response,0,test,28,Basalt,Peridotite,2,FALSE,2,7,,,,,,,,,,,,,,,,
,,,,,,,,,,,html-keyboard-response,62,2.0.0,831643,671fca7287fb225453006af0,3,29,null,,,,,,,,,<p style='font-size: 30px;'><strong>Okay</strong></p>,null,neutral_feedback,0,test,28,,,,,,,,,,,,,,,,,,,,,,
,,,,,,,,,,,html-button-response,63,2.0.0,838562,671fca7287fb225453006af0,3,29,6917,,,,,,,,,"<img src= ""rock_img/I_Pumice_10.jpg"" style=""width:8cm; height:7.609999999999999cm;""><p>What type of rock is this?</p>",7,class_response,0,test,29,Pumice,Pumice,10,TRUE,8,8,,,,,,,,,,,,,,,,
,,,,,,,,,,,html-keyboard-response,64,2.0.0,839078,671fca7287fb225453006af0,3,29,null,,,,,,,,,<p style='font-size: 30px;'><strong>Okay</strong></p>,null,neutral_feedback,0,test,29,,,,,,,,,,,,,,,,,,,,,,
,,,,,,,,,,,html-button-response,65,2.0.0,850711,671fca7287fb225453006af0,3,29,11630,,,,,,,,,"<img src= ""rock_img/I_Pegmatite_03.jpg"" style=""width:8cm; height:5.239999999999999cm;""><p>What type of rock is this?</p>",2,class_response,0,test,30,Diorite,Pegmatite,3,FALSE,3,6,,,,,,,,,,,,,,,,
,,,,,,,,,,,html-keyboard-response,66,2.0.0,851218,671fca7287fb225453006af0,3,29,null,,,,,,,,,<p style='font-size: 30px;'><strong>Okay</strong></p>,null,neutral_feedback,0,test,30,,,,,,,,,,,,,,,,,,,,,,
,,,,,,,,,,,html-button-response,67,2.0.0,854702,671fca7287fb225453006af0,3,29,3482,,,,,,,,,"<img src= ""rock_img/I_Diorite_12.jpg"" style=""width:8cm; height:4.88cm;""><p>What type of rock is this?</p>",2,class_response,0,test,31,Diorite,Diorite,12,TRUE,3,3,,,,,,,,,,,,,,,,
,,,,,,,,,,,html-keyboard-response,68,2.0.0,855216,671fca7287fb225453006af0,3,29,null,,,,,,,,,<p style='font-size: 30px;'><strong>Okay</strong></p>,null,neutral_feedback,0,test,31,,,,,,,,,,,,,,,,,,,,,,
,,,,,,,,,,,html-button-response,69,2.0.0,860476,671fca7287fb225453006af0,3,29,5257,,,,,,,,,"<img src= ""rock_img/I_Basalt_12.jpg"" style=""width:8cm; height:6.010000000000001cm;""><p>What type of rock is this?</p>",7,class_response,0,test,32,Pumice,Basalt,12,FALSE,8,2,,,,,,,,,,,,,,,,
,,,,,,,,,,,html-keyboard-response,70,2.0.0,860983,671fca7287fb225453006af0,3,29,null,,,,,,,,,<p style='font-size: 30px;'><strong>Okay</strong></p>,null,neutral_feedback,0,test,32,,,,,,,,,,,,,,,,,,,,,,
,,,,,,,,,,,html-button-response,71,2.0.0,864973,671fca7287fb225453006af0,3,29,3988,,,,,,,,,"<img src= ""rock_img/I_Diorite_02.jpg"" style=""width:8cm; height:6.27cm;""><p>What type of rock is this?</p>",3,class_response,0,test,33,Gabbro,Diorite,2,FALSE,4,3,,,,,,,,,,,,,,,,
,,,,,,,,,,,html-keyboard-response,72,2.0.0,865486,671fca7287fb225453006af0,3,29,null,,,,,,,,,<p style='font-size: 30px;'><strong>Okay</strong></p>,null,neutral_feedback,0,test,33,,,,,,,,,,,,,,,,,,,,,,
,,,,,,,,,,,html-button-response,73,2.0.0,876983,671fca7287fb225453006af0,3,29,11496,,,,,,,,,"<img src= ""rock_img/I_Pegmatite_09.jpg"" style=""width:8cm; height:4.03cm;""><p>What type of rock is this?</p>",1,class_response,0,test,34,Basalt,Pegmatite,9,FALSE,2,6,,,,,,,,,,,,,,,,
,,,,,,,,,,,html-keyboard-response,74,2.0.0,877489,671fca7287fb225453006af0,3,29,null,,,,,,,,,<p style='font-size: 30px;'><strong>Okay</strong></p>,null,neutral_feedback,0,test,34,,,,,,,,,,,,,,,,,,,,,,
,,,,,,,,,,,html-button-response,75,2.0.0,938439,671fca7287fb225453006af0,3,29,60948,,,,,,,,,"<img src= ""rock_img/I_Obsidian_05.jpg"" style=""width:8cm; height:6.33cm;""><p>What type of rock is this?</p>",6,class_response,0,test,35,Peridotite,Obsidian,5,FALSE,7,5,,,,,,,,,,,,,,,,
,,,,,,,,,,,html-keyboard-response,76,2.0.0,938945,671fca7287fb225453006af0,3,29,null,,,,,,,,,<p style='font-size: 30px;'><strong>Okay</strong></p>,null,neutral_feedback,0,test,35,,,,,,,,,,,,,,,,,,,,,,
,,,,,,,,,,,html-button-response,77,2.0.0,945873,671fca7287fb225453006af0,3,29,6926,,,,,,,,,"<img src= ""rock_img/I_Gabbro_16.jpg"" style=""width:8cm; height:6.44cm;""><p>What type of rock is this?</p>",1,class_response,0,test,36,Basalt,Gabbro,16,FALSE,2,4,,,,,,,,,,,,,,,,
,,,,,,,,,,,html-keyboard-response,78,2.0.0,946377,671fca7287fb225453006af0,3,29,null,,,,,,,,,<p style='font-size: 30px;'><strong>Okay</strong></p>,null,neutral_feedback,0,test,36,,,,,,,,,,,,,,,,,,,,,,
,,,,,,,,,,,html-button-response,79,2.0.0,950016,671fca7287fb225453006af0,3,29,3636,,,,,,,,,"<img src= ""rock_img/I_Pumice_13.jpg"" style=""width:8cm; height:8.200000000000001cm;""><p>What type of rock is this?</p>",7,class_response,0,test,37,Pumice,Pumice,13,TRUE,8,8,,,,,,,,,,,,,,,,
,,,,,,,,,,,html-keyboard-response,80,2.0.0,950520,671fca7287fb225453006af0,3,29,null,,,,,,,,,<p style='font-size: 30px;'><strong>Okay</strong></p>,null,neutral_feedback,0,test,37,,,,,,,,,,,,,,,,,,,,,,
,,,,,,,,,,,html-button-response,81,2.0.0,962541,671fca7287fb225453006af0,3,29,12018,,,,,,,,,"<img src= ""rock_img/I_Andesite_03.jpg"" style=""width:8cm; height:5.73cm;""><p>What type of rock is this?</p>",3,class_response,0,test,38,Gabbro,Andesite,3,FALSE,4,1,,,,,,,,,,,,,,,,
,,,,,,,,,,,html-keyboard-response,82,2.0.0,963051,671fca7287fb225453006af0,3,29,null,,,,,,,,,<p style='font-size: 30px;'><strong>Okay</strong></p>,null,neutral_feedback,0,test,38,,,,,,,,,,,,,,,,,,,,,,
,,,,,,,,,,,html-button-response,83,2.0.0,980884,671fca7287fb225453006af0,3,29,17831,,,,,,,,,"<img src= ""rock_img/I_Diorite_15.jpg"" style=""width:8cm; height:5.54cm;""><p>What type of rock is this?</p>",2,class_response,0,test,39,Diorite,Diorite,15,TRUE,3,3,,,,,,,,,,,,,,,,
,,,,,,,,,,,html-keyboard-response,84,2.0.0,981391,671fca7287fb225453006af0,3,29,null,,,,,,,,,<p style='font-size: 30px;'><strong>Okay</strong></p>,null,neutral_feedback,0,test,39,,,,,,,,,,,,,,,,,,,,,,
,,,,,,,,,,,html-button-response,85,2.0.0,1001720,671fca7287fb225453006af0,3,29,20326,,,,,,,,,"<img src= ""rock_img/I_Andesite_11.jpg"" style=""width:8cm; height:4.92cm;""><p>What type of rock is this?</p>",7,class_response,0,test,40,Pumice,Andesite,11,FALSE,8,1,,,,,,,,,,,,,,,,
,,,,,,,,,,,html-keyboard-response,86,2.0.0,1002224,671fca7287fb225453006af0,3,29,null,,,,,,,,,<p style='font-size: 30px;'><strong>Okay</strong></p>,null,neutral_feedback,0,test,40,,,,,,,,,,,,,,,,,,,,,,
,,,,,,,,,,,html-button-response,87,2.0.0,1005972,671fca7287fb225453006af0,3,29,3745,,,,,,,,,"<img src= ""rock_img/I_Pegmatite_16.jpg"" style=""width:8cm; height:5.8cm;""><p>What type of rock is this?</p>",5,class_response,0,test,41,Pegmatite,Pegmatite,16,TRUE,6,6,,,,,,,,,,,,,,,,
,,,,,,,,,,,html-keyboard-response,88,2.0.0,1006482,671fca7287fb225453006af0,3,29,null,,,,,,,,,<p style='font-size: 30px;'><strong>Okay</strong></p>,null,neutral_feedback,0,test,41,,,,,,,,,,,,,,,,,,,,,,
,,,,,,,,,,,html-button-response,89,2.0.0,1008463,671fca7287fb225453006af0,3,29,1978,,,,,,,,,"<img src= ""rock_img/I_Pumice_02.jpg"" style=""width:8cm; height:7.3999999999999995cm;""><p>What type of rock is this?</p>",7,class_response,0,test,42,Pumice,Pumice,2,TRUE,8,8,,,,,,,,,,,,,,,,
,,,,,,,,,,,html-keyboard-response,90,2.0.0,1008974,671fca7287fb225453006af0,3,29,null,,,,,,,,,<p style='font-size: 30px;'><strong>Okay</strong></p>,null,neutral_feedback,0,test,42,,,,,,,,,,,,,,,,,,,,,,
,,,,,,,,,,,html-button-response,91,2.0.0,1012713,671fca7287fb225453006af0,3,29,3735,,,,,,,,,"<img src= ""rock_img/I_Andesite_09.jpg"" style=""width:8cm; height:6cm;""><p>What type of rock is this?</p>",2,class_response,0,test,43,Diorite,Andesite,9,FALSE,3,1,,,,,,,,,,,,,,,,
,,,,,,,,,,,html-keyboard-response,92,2.0.0,1013214,671fca7287fb225453006af0,3,29,null,,,,,,,,,<p style='font-size: 30px;'><strong>Okay</strong></p>,null,neutral_feedback,0,test,43,,,,,,,,,,,,,,,,,,,,,,
,,,,,,,,,,,html-button-response,93,2.0.0,1054615,671fca7287fb225453006af0,3,29,41399,,,,,,,,,"<img src= ""rock_img/I_Obsidian_16.jpg"" style=""width:8cm; height:9.3cm;""><p>What type of rock is this?</p>",4,class_response,0,test,44,Obsidian,Obsidian,16,TRUE,5,5,,,,,,,,,,,,,,,,
,,,,,,,,,,,html-keyboard-response,94,2.0.0,1055118,671fca7287fb225453006af0,3,29,null,,,,,,,,,<p style='font-size: 30px;'><strong>Okay</strong></p>,null,neutral_feedback,0,test,44,,,,,,,,,,,,,,,,,,,,,,
,,,,,,,,,,,html-button-response,95,2.0.0,1057396,671fca7287fb225453006af0,3,29,2276,,,,,,,,,"<img src= ""rock_img/I_Pumice_14.jpg"" style=""width:8cm; height:6.39cm;""><p>What type of rock is this?</p>",7,class_response,0,test,45,Pumice,Pumice,14,TRUE,8,8,,,,,,,,,,,,,,,,
,,,,,,,,,,,html-keyboard-response,96,2.0.0,1057900,671fca7287fb225453006af0,3,29,null,,,,,,,,,<p style='font-size: 30px;'><strong>Okay</strong></p>,null,neutral_feedback,0,test,45,,,,,,,,,,,,,,,,,,,,,,
,,,,,,,,,,,html-button-response,97,2.0.0,1061894,671fca7287fb225453006af0,3,29,3992,,,,,,,,,"<img src= ""rock_img/I_Gabbro_05.jpg"" style=""width:8cm; height:6cm;""><p>What type of rock is this?</p>",2,class_response,0,test,46,Diorite,Gabbro,5,FALSE,3,4,,,,,,,,,,,,,,,,
,,,,,,,,,,,html-keyboard-response,98,2.0.0,1062409,671fca7287fb225453006af0,3,29,null,,,,,,,,,<p style='font-size: 30px;'><strong>Okay</strong></p>,null,neutral_feedback,0,test,46,,,,,,,,,,,,,,,,,,,,,,
,,,,,,,,,,,html-button-response,99,2.0.0,1064619,671fca7287fb225453006af0,3,29,2208,,,,,,,,,"<img src= ""rock_img/I_Obsidian_10.jpg"" style=""width:8cm; height:6.260000000000001cm;""><p>What type of rock is this?</p>",4,class_response,0,test,47,Obsidian,Obsidian,10,TRUE,5,5,,,,,,,,,,,,,,,,
,,,,,,,,,,,html-keyboard-response,100,2.0.0,1065134,671fca7287fb225453006af0,3,29,null,,,,,,,,,<p style='font-size: 30px;'><strong>Okay</strong></p>,null,neutral_feedback,0,test,47,,,,,,,,,,,,,,,,,,,,,,
,,,,,,,,,,,html-button-response,101,2.0.0,1066243,671fca7287fb225453006af0,3,29,1106,,,,,,,,,"<img src= ""rock_img/I_Pegmatite_08.jpg"" style=""width:8cm; height:7.68cm;""><p>What type of rock is this?</p>",4,class_response,0,test,48,Obsidian,Pegmatite,8,FALSE,5,6,,,,,,,,,,,,,,,,
,,,,,,,,,,,html-keyboard-response,102,2.0.0,1066753,671fca7287fb225453006af0,3,29,null,,,,,,,,,<p style='font-size: 30px;'><strong>Okay</strong></p>,null,neutral_feedback,0,test,48,,,,,,,,,,,,,,,,,,,,,,
,,,,,,,,,,,instructions,103,2.0.0,1103745,671fca7287fb225453006af0,3,29,36933,,,,,,,,"[{""page_index"":0,""viewing_time"":31205},{""page_index"":1,""viewing_time"":5728}]",,,,,,,,,,,,,,,,,,,,,,,,,,,,
,,,,,,,,,,,html-button-response,104,2.0.0,1107400,671fca7287fb225453006af0,3,29,3655,,,,,,,,,,0,start_train,,,,,,,,,,,,,,,,,,,,,,,,,
,,,,,,,,,,,html-button-response,106,2.0.0,1161671,671fca7287fb225453006af0,3,29,54269,,,,,,,,,"<img src= ""rock_img/I_Peridotite_05.jpg"" style=""width:8cm; height:7.1499999999999995cm;""><p>What type of rock is this?</p>",2,class_response,1,train,1,Diorite,Peridotite,5,FALSE,3,7,,,,,,,,,,,,,,,,
,,,,,,,,,,,html-button-response,107,2.0.0,1164597,671fca7287fb225453006af0,3,29,2924,,,,,,,,,"<img src= rock_img/I_Peridotite_05.jpg style=""width:8cm; height:7.1499999999999995cm;""><p style='font-size: 30px; color: red;'><strong>Incorrect!</strong></p><p style='font-size: 30px;'><strong>This rock is peridotite</strong></p>",0,corr_feedback,1,train,1,,,,,,,,,,,,,,,,,,,,,,
,,,,,,,,,,,html-button-response,108,2.0.0,1166950,671fca7287fb225453006af0,3,29,2352,,,,,,,,,"<img src= ""rock_img/I_Obsidian_14.jpg"" style=""width:8cm; height:7.64cm;""><p>What type of rock is this?</p>",4,class_response,1,train,2,Obsidian,Obsidian,14,TRUE,5,5,,,,,,,,,,,,,,,,
,,,,,,,,,,,html-button-response,109,2.0.0,1169104,671fca7287fb225453006af0,3,29,2153,,,,,,,,,"<img src= rock_img/I_Obsidian_14.jpg style=""width:8cm; height:7.64cm;""><p style='font-size: 30px; color: green;'><strong>Correct!</strong></p><p style='font-size: 30px;'><strong>This rock is obsidian</strong></p>",0,corr_feedback,1,train,2,,,,,,,,,,,,,,,,,,,,,,
,,,,,,,,,,,html-button-response,110,2.0.0,1170990,671fca7287fb225453006af0,3,29,1884,,,,,,,,,"<img src= ""rock_img/I_Obsidian_07.jpg"" style=""width:8cm; height:4.76cm;""><p>What type of rock is this?</p>",4,class_response,1,train,3,Obsidian,Obsidian,7,TRUE,5,5,,,,,,,,,,,,,,,,
,,,,,,,,,,,html-button-response,111,2.0.0,1172702,671fca7287fb225453006af0,3,29,1711,,,,,,,,,"<img src= rock_img/I_Obsidian_07.jpg style=""width:8cm; height:4.76cm;""><p style='font-size: 30px; color: green;'><strong>Correct!</strong></p><p style='font-size: 30px;'><strong>This rock is obsidian</strong></p>",0,corr_feedback,1,train,3,,,,,,,,,,,,,,,,,,,,,,
,,,,,,,,,,,html-button-response,112,2.0.0,1175785,671fca7287fb225453006af0,3,29,3082,,,,,,,,,"<img src= ""rock_img/I_Andesite_01.jpg"" style=""width:8cm; height:5.87cm;""><p>What type of rock is this?</p>",1,class_response,1,train,4,Basalt,Andesite,1,FALSE,2,1,,,,,,,,,,,,,,,,
,,,,,,,,,,,html-button-response,113,2.0.0,1177682,671fca7287fb225453006af0,3,29,1896,,,,,,,,,"<img src= rock_img/I_Andesite_01.jpg style=""width:8cm; height:5.87cm;""><p style='font-size: 30px; color: red;'><strong>Incorrect!</strong></p><p style='font-size: 30px;'><strong>This rock is andesite</strong></p>",0,corr_feedback,1,train,4,,,,,,,,,,,,,,,,,,,,,,
,,,,,,,,,,,html-button-response,114,2.0.0,1180185,671fca7287fb225453006af0,3,29,2501,,,,,,,,,"<img src= ""rock_img/I_Diorite_06.jpg"" style=""width:8cm; height:6.03cm;""><p>What type of rock is this?</p>",1,class_response,1,train,5,Basalt,Diorite,6,FALSE,2,3,,,,,,,,,,,,,,,,
,,,,,,,,,,,html-button-response,115,2.0.0,1181884,671fca7287fb225453006af0,3,29,1698,,,,,,,,,"<img src= rock_img/I_Diorite_06.jpg style=""width:8cm; height:6.03cm;""><p style='font-size: 30px; color: red;'><strong>Incorrect!</strong></p><p style='font-size: 30px;'><strong>This rock is diorite</strong></p>",0,corr_feedback,1,train,5,,,,,,,,,,,,,,,,,,,,,,
,,,,,,,,,,,html-button-response,116,2.0.0,1184326,671fca7287fb225453006af0,3,29,2441,,,,,,,,,"<img src= ""rock_img/I_Pumice_08.jpg"" style=""width:8cm; height:6.67cm;""><p>What type of rock is this?</p>",7,class_response,1,train,6,Pumice,Pumice,8,TRUE,8,8,,,,,,,,,,,,,,,,
,,,,,,,,,,,html-button-response,117,2.0.0,1186209,671fca7287fb225453006af0,3,29,1881,,,,,,,,,"<img src= rock_img/I_Pumice_08.jpg style=""width:8cm; height:6.67cm;""><p style='font-size: 30px; color: green;'><strong>Correct!</strong></p><p style='font-size: 30px;'><strong>This rock is pumice</strong></p>",0,corr_feedback,1,train,6,,,,,,,,,,,,,,,,,,,,,,
,,,,,,,,,,,html-button-response,118,2.0.0,1200002,671fca7287fb225453006af0,3,29,13792,,,,,,,,,"<img src= ""rock_img/I_Basalt_04.jpg"" style=""width:8cm; height:7.53cm;""><p>What type of rock is this?</p>",0,class_response,1,train,7,Andesite,Basalt,4,FALSE,1,2,,,,,,,,,,,,,,,,
,,,,,,,,,,,html-button-response,119,2.0.0,1201772,671fca7287fb225453006af0,3,29,1770,,,,,,,,,"<img src= rock_img/I_Basalt_04.jpg style=""width:8cm; height:7.53cm;""><p style='font-size: 30px; color: red;'><strong>Incorrect!</strong></p><p style='font-size: 30px;'><strong>This rock is basalt</strong></p>",0,corr_feedback,1,train,7,,,,,,,,,,,,,,,,,,,,,,
,,,,,,,,,,,html-button-response,120,2.0.0,1205518,671fca7287fb225453006af0,3,29,3744,,,,,,,,,"<img src= ""rock_img/I_Gabbro_13.jpg"" style=""width:8cm; height:5.08cm;""><p>What type of rock is this?</p>",3,class_response,1,train,8,Gabbro,Gabbro,13,TRUE,4,4,,,,,,,,,,,,,,,,
,,,,,,,,,,,html-button-response,121,2.0.0,1210931,671fca7287fb225453006af0,3,29,5412,,,,,,,,,"<img src= rock_img/I_Gabbro_13.jpg style=""width:8cm; height:5.08cm;""><p style='font-size: 30px; color: green;'><strong>Correct!</strong></p><p style='font-size: 30px;'><strong>This rock is gabbro</strong></p>",0,corr_feedback,1,train,8,,,,,,,,,,,,,,,,,,,,,,
,,,,,,,,,,,html-button-response,122,2.0.0,1213469,671fca7287fb225453006af0,3,29,2537,,,,,,,,,"<img src= ""rock_img/I_Andesite_10.jpg"" style=""width:8cm; height:4.16cm;""><p>What type of rock is this?</p>",7,class_response,1,train,9,Pumice,Andesite,10,FALSE,8,1,,,,,,,,,,,,,,,,
,,,,,,,,,,,html-button-response,123,2.0.0,1215055,671fca7287fb225453006af0,3,29,1584,,,,,,,,,"<img src= rock_img/I_Andesite_10.jpg style=""width:8cm; height:4.16cm;""><p style='font-size: 30px; color: red;'><strong>Incorrect!</strong></p><p style='font-size: 30px;'><strong>This rock is andesite</strong></p>",0,corr_feedback,1,train,9,,,,,,,,,,,,,,,,,,,,,,
,,,,,,,,,,,html-button-response,124,2.0.0,1216989,671fca7287fb225453006af0,3,29,1932,,,,,,,,,"<img src= ""rock_img/I_Pumice_03.jpg"" style=""width:8cm; height:6.64cm;""><p>What type of rock is this?</p>",7,class_response,1,train,10,Pumice,Pumice,3,TRUE,8,8,,,,,,,,,,,,,,,,
,,,,,,,,,,,html-button-response,125,2.0.0,1218450,671fca7287fb225453006af0,3,29,1459,,,,,,,,,"<img src= rock_img/I_Pumice_03.jpg style=""width:8cm; height:6.64cm;""><p style='font-size: 30px; color: green;'><strong>Correct!</strong></p><p style='font-size: 30px;'><strong>This rock is pumice</strong></p>",0,corr_feedback,1,train,10,,,,,,,,,,,,,,,,,,,,,,
,,,,,,,,,,,html-button-response,126,2.0.0,1247125,671fca7287fb225453006af0,3,29,28674,,,,,,,,,"<img src= ""rock_img/I_Pegmatite_12.jpg"" style=""width:8cm; height:5.7cm;""><p>What type of rock is this?</p>",3,class_response,1,train,11,Gabbro,Pegmatite,12,FALSE,4,6,,,,,,,,,,,,,,,,
,,,,,,,,,,,html-button-response,127,2.0.0,1248675,671fca7287fb225453006af0,3,29,1549,,,,,,,,,"<img src= rock_img/I_Pegmatite_12.jpg style=""width:8cm; height:5.7cm;""><p style='font-size: 30px; color: red;'><strong>Incorrect!</strong></p><p style='font-size: 30px;'><strong>This rock is pegmatite</strong></p>",0,corr_feedback,1,train,11,,,,,,,,,,,,,,,,,,,,,,
,,,,,,,,,,,html-button-response,128,2.0.0,1251809,671fca7287fb225453006af0,3,29,3133,,,,,,,,,"<img src= ""rock_img/I_Diorite_16.jpg"" style=""width:8cm; height:6.74cm;""><p>What type of rock is this?</p>",1,class_response,1,train,12,Basalt,Diorite,16,FALSE,2,3,,,,,,,,,,,,,,,,
,,,,,,,,,,,html-button-response,129,2.0.0,1253248,671fca7287fb225453006af0,3,29,1438,,,,,,,,,"<img src= rock_img/I_Diorite_16.jpg style=""width:8cm; height:6.74cm;""><p style='font-size: 30px; color: red;'><strong>Incorrect!</strong></p><p style='font-size: 30px;'><strong>This rock is diorite</strong></p>",0,corr_feedback,1,train,12,,,,,,,,,,,,,,,,,,,,,,
,,,,,,,,,,,instructions,130,2.0.0,1392273,671fca7287fb225453006af0,3,29,139024,,,,,,,,"[{""page_index"":0,""viewing_time"":26647},{""page_index"":1,""viewing_time"":50779},{""page_index"":2,""viewing_time"":41844},{""page_index"":3,""viewing_time"":19754}]",,,,,,,,,,,,,,,,,,,,,,,,,,,,
,,,,,,,,,,,html-button-response,131,2.0.0,1400325,671fca7287fb225453006af0,3,29,8051,,,,,,,,,,0,start_train,,,,,,,,,,,,,,,,,,,,,,,,,
,,,,,,,,,,,html-button-response,132,2.0.0,1468911,671fca7287fb225453006af0,3,29,,,,,,,,,,,,cat_selection,1,train,1,,,,,,,3,4,68583.7,Diorite,Gabbro,"[0.1646341463414634,0.1646341463414634,0.06707317073170732,0.14024390243902438,0.11585365853658537,0.14024390243902438,0.1646341463414634,0.04268292682926828]","[0.0498068946053242,0.049366125626516016,null,0.6869548520259613,0.05889775479324288,0.06457265539539818,0.05119531688856995,0.03920640066498749]",,,,,,,,,
,,,,,,,,,,,paired-cat-display,133,1.0.0,1940424,671fca7287fb225453006af0,3,29,,,,,,,,,,,,paired_cat_display,1,train,1,,,,,,,,,12470.1,,,,,"this rock is made uo of about two-third plagioclase feldsper and one-third dark colored minerals. it has been used for many purposes ,include stone vases, ceremonial sculptures. ",this mafic rock is usually dark gray or black in color but can be greenish-black if contain a lot of olivine. example of this rock is monzagabro and quartz monzogabbro.,459038.9,,,,,,
,,,,,,,,,,,html-button-response,134,2.0.0,1961617,671fca7287fb225453006af0,3,29,,,,,,,,,,,,cat_selection,1,train,2,,,,,,,2,6,21192.4,Basalt,Pegmatite,"[0.1646341463414634,0.1646341463414634,0.06707317073170732,0.14024390243902438,0.11585365853658537,0.14024390243902438,0.1646341463414634,0.04268292682926828]","[0.05710161764915082,null,0.14922148801243276,0.26295368619349996,0.059487196342048666,0.14844998171175092,0.05785282115244631,0.2649332089386705]",,,,,,,,,
,,,,,,,,,,,paired-cat-display,135,1.0.0,2127437,671fca7287fb225453006af0,3,29,,,,,,,,,,,,paired_cat_display,1,train,2,,,,,,,,,12003.8,,,,,,,153812.2,dark fine-grained volcanic rock,"A course-graine igneous rock, from a large crystals.",,,,
,,,,,,,,,,,html-button-response,136,2.0.0,2173032,671fca7287fb225453006af0,3,29,,,,,,,,,,,,cat_selection,1,train,3,,,,,,,1,7,45593.8,Andesite,Peridotite,"[0.1646341463414634,0.1646341463414634,0.06707317073170732,0.14024390243902438,0.11585365853658537,0.14024390243902438,0.1646341463414634,0.04268292682926828]","[null,0.05496030698730767,0.2516501037486414,0.26196798538039195,0.059552545971136045,0.04477921545294773,0.16157612089948667,0.16551372156008848]",,,,,,,,,
,,,,,,,,,,,paired-cat-display,137,1.0.0,2310977,671fca7287fb225453006af0,3,29,,,,,,,,,,,,paired_cat_display,1,train,3,,,,,,,,,22139.6,,,,,,,115801.9,,,"A dark, fine-grained, brown or greyish rock.","IS a dence, course-grained plutonic rock.",,
,,,,,,,,,,,instructions,138,2.0.0,2340878,671fca7287fb225453006af0,3,29,29899,,,,,,,,"[{""page_index"":0,""viewing_time"":3157},{""page_index"":1,""viewing_time"":26742}]",,,,,,,,,,,,,,,,,,,,,,,,,,,,
,,,,,,,,,,,html-button-response,139,2.0.0,2343270,671fca7287fb225453006af0,3,29,2390,,,,,,,,,,0,start_test,,,,,,,,,,,,,,,,,,,,,,,,,
,,,,,,,,,,,html-button-response,140,2.0.0,2350147,671fca7287fb225453006af0,3,29,6876,,,,,,,,,"<img src= ""rock_img/I_Diorite_02.jpg"" style=""width:8cm; height:6.27cm;""><p>What type of rock is this?</p>",3,class_response,1,test,1,Gabbro,Diorite,2,FALSE,4,3,,,,,,,,,,,,,,,,
,,,,,,,,,,,html-keyboard-response,141,2.0.0,2350652,671fca7287fb225453006af0,3,29,null,,,,,,,,,<p style='font-size: 30px;'><strong>Okay</strong></p>,null,neutral_feedback,1,test,1,,,,,,,,,,,,,,,,,,,,,,
,,,,,,,,,,,html-button-response,142,2.0.0,2356515,671fca7287fb225453006af0,3,29,5861,,,,,,,,,"<img src= ""rock_img/I_Basalt_06.jpg"" style=""width:8cm; height:7.06cm;""><p>What type of rock is this?</p>",1,class_response,1,test,2,Basalt,Basalt,6,TRUE,2,2,,,,,,,,,,,,,,,,
,,,,,,,,,,,html-keyboard-response,143,2.0.0,2357027,671fca7287fb225453006af0,3,29,null,,,,,,,,,<p style='font-size: 30px;'><strong>Okay</strong></p>,null,neutral_feedback,1,test,2,,,,,,,,,,,,,,,,,,,,,,
,,,,,,,,,,,html-button-response,144,2.0.0,2358717,671fca7287fb225453006af0,3,29,1688,,,,,,,,,"<img src= ""rock_img/I_Obsidian_08.jpg"" style=""width:8cm; height:7.39cm;""><p>What type of rock is this?</p>",4,class_response,1,test,3,Obsidian,Obsidian,8,TRUE,5,5,,,,,,,,,,,,,,,,
,,,,,,,,,,,html-keyboard-response,145,2.0.0,2359219,671fca7287fb225453006af0,3,29,null,,,,,,,,,<p style='font-size: 30px;'><strong>Okay</strong></p>,null,neutral_feedback,1,test,3,,,,,,,,,,,,,,,,,,,,,,
,,,,,,,,,,,html-button-response,146,2.0.0,2361184,671fca7287fb225453006af0,3,29,1962,,,,,,,,,"<img src= ""rock_img/I_Pumice_06.jpg"" style=""width:8cm; height:6.9399999999999995cm;""><p>What type of rock is this?</p>",7,class_response,1,test,4,Pumice,Pumice,6,TRUE,8,8,,,,,,,,,,,,,,,,
,,,,,,,,,,,html-keyboard-response,147,2.0.0,2361692,671fca7287fb225453006af0,3,29,null,,,,,,,,,<p style='font-size: 30px;'><strong>Okay</strong></p>,null,neutral_feedback,1,test,4,,,,,,,,,,,,,,,,,,,,,,
,,,,,,,,,,,html-button-response,148,2.0.0,2364232,671fca7287fb225453006af0,3,29,2538,,,,,,,,,"<img src= ""rock_img/I_Andesite_16.jpg"" style=""width:8cm; height:6.010000000000001cm;""><p>What type of rock is this?</p>",3,class_response,1,test,5,Gabbro,Andesite,16,FALSE,4,1,,,,,,,,,,,,,,,,
,,,,,,,,,,,html-keyboard-response,149,2.0.0,2364736,671fca7287fb225453006af0,3,29,null,,,,,,,,,<p style='font-size: 30px;'><strong>Okay</strong></p>,null,neutral_feedback,1,test,5,,,,,,,,,,,,,,,,,,,,,,
,,,,,,,,,,,html-button-response,150,2.0.0,2366720,671fca7287fb225453006af0,3,29,1981,,,,,,,,,"<img src= ""rock_img/I_Andesite_14.jpg"" style=""width:8cm; height:5.449999999999999cm;""><p>What type of rock is this?</p>",3,class_response,1,test,6,Gabbro,Andesite,14,FALSE,4,1,,,,,,,,,,,,,,,,
,,,,,,,,,,,html-keyboard-response,151,2.0.0,2367229,671fca7287fb225453006af0,3,29,null,,,,,,,,,<p style='font-size: 30px;'><strong>Okay</strong></p>,null,neutral_feedback,1,test,6,,,,,,,,,,,,,,,,,,,,,,
,,,,,,,,,,,html-button-response,152,2.0.0,2370237,671fca7287fb225453006af0,3,29,3006,,,,,,,,,"<img src= ""rock_img/I_Pegmatite_13.jpg"" style=""width:8cm; height:4.95cm;""><p>What type of rock is this?</p>",3,class_response,1,test,7,Gabbro,Pegmatite,13,FALSE,4,6,,,,,,,,,,,,,,,,
,,,,,,,,,,,html-keyboard-response,153,2.0.0,2370746,671fca7287fb225453006af0,3,29,null,,,,,,,,,<p style='font-size: 30px;'><strong>Okay</strong></p>,null,neutral_feedback,1,test,7,,,,,,,,,,,,,,,,,,,,,,
,,,,,,,,,,,html-button-response,154,2.0.0,2372568,671fca7287fb225453006af0,3,29,1820,,,,,,,,,"<img src= ""rock_img/I_Obsidian_04.jpg"" style=""width:8cm; height:6.930000000000001cm;""><p>What type of rock is this?</p>",4,class_response,1,test,8,Obsidian,Obsidian,4,TRUE,5,5,,,,,,,,,,,,,,,,
,,,,,,,,,,,html-keyboard-response,155,2.0.0,2373082,671fca7287fb225453006af0,3,29,null,,,,,,,,,<p style='font-size: 30px;'><strong>Okay</strong></p>,null,neutral_feedback,1,test,8,,,,,,,,,,,,,,,,,,,,,,
,,,,,,,,,,,html-button-response,156,2.0.0,2375032,671fca7287fb225453006af0,3,29,1947,,,,,,,,,"<img src= ""rock_img/I_Diorite_12.jpg"" style=""width:8cm; height:4.88cm;""><p>What type of rock is this?</p>",1,class_response,1,test,9,Basalt,Diorite,12,FALSE,2,3,,,,,,,,,,,,,,,,
,,,,,,,,,,,html-keyboard-response,157,2.0.0,2375544,671fca7287fb225453006af0,3,29,null,,,,,,,,,<p style='font-size: 30px;'><strong>Okay</strong></p>,null,neutral_feedback,1,test,9,,,,,,,,,,,,,,,,,,,,,,
,,,,,,,,,,,html-button-response,158,2.0.0,2379134,671fca7287fb225453006af0,3,29,3587,,,,,,,,,"<img src= ""rock_img/I_Basalt_12.jpg"" style=""width:8cm; height:6.010000000000001cm;""><p>What type of rock is this?</p>",1,class_response,1,test,10,Basalt,Basalt,12,TRUE,2,2,,,,,,,,,,,,,,,,
,,,,,,,,,,,html-keyboard-response,159,2.0.0,2379639,671fca7287fb225453006af0,3,29,null,,,,,,,,,<p style='font-size: 30px;'><strong>Okay</strong></p>,null,neutral_feedback,1,test,10,,,,,,,,,,,,,,,,,,,,,,
,,,,,,,,,,,html-button-response,160,2.0.0,2384557,671fca7287fb225453006af0,3,29,4916,,,,,,,,,"<img src= ""rock_img/I_Gabbro_05.jpg"" style=""width:8cm; height:6cm;""><p>What type of rock is this?</p>",5,class_response,1,test,11,Pegmatite,Gabbro,5,FALSE,6,4,,,,,,,,,,,,,,,,
,,,,,,,,,,,html-keyboard-response,161,2.0.0,2385070,671fca7287fb225453006af0,3,29,null,,,,,,,,,<p style='font-size: 30px;'><strong>Okay</strong></p>,null,neutral_feedback,1,test,11,,,,,,,,,,,,,,,,,,,,,,
,,,,,,,,,,,html-button-response,162,2.0.0,2386739,671fca7287fb225453006af0,3,29,1667,,,,,,,,,"<img src= ""rock_img/I_Pumice_14.jpg"" style=""width:8cm; height:6.39cm;""><p>What type of rock is this?</p>",7,class_response,1,test,12,Pumice,Pumice,14,TRUE,8,8,,,,,,,,,,,,,,,,
,,,,,,,,,,,html-keyboard-response,163,2.0.0,2387244,671fca7287fb225453006af0,3,29,null,,,,,,,,,<p style='font-size: 30px;'><strong>Okay</strong></p>,null,neutral_feedback,1,test,12,,,,,,,,,,,,,,,,,,,,,,
,,,,,,,,,,,html-button-response,164,2.0.0,2391978,671fca7287fb225453006af0,3,29,4731,,,,,,,,,"<img src= ""rock_img/I_Peridotite_06.jpg"" style=""width:8cm; height:7.53cm;""><p>What type of rock is this?</p>",6,class_response,1,test,13,Peridotite,Peridotite,6,TRUE,7,7,,,,,,,,,,,,,,,,
,,,,,,,,,,,html-keyboard-response,165,2.0.0,2392489,671fca7287fb225453006af0,3,29,null,,,,,,,,,<p style='font-size: 30px;'><strong>Okay</strong></p>,null,neutral_feedback,1,test,13,,,,,,,,,,,,,,,,,,,,,,
,,,,,,,,,,,html-button-response,166,2.0.0,2396272,671fca7287fb225453006af0,3,29,3781,,,,,,,,,"<img src= ""rock_img/I_Basalt_09.jpg"" style=""width:8cm; height:6.2cm;""><p>What type of rock is this?</p>",5,class_response,1,test,14,Pegmatite,Basalt,9,FALSE,6,2,,,,,,,,,,,,,,,,
,,,,,,,,,,,html-keyboard-response,167,2.0.0,2396774,671fca7287fb225453006af0,3,29,null,,,,,,,,,<p style='font-size: 30px;'><strong>Okay</strong></p>,null,neutral_feedback,1,test,14,,,,,,,,,,,,,,,,,,,,,,
,,,,,,,,,,,html-button-response,168,2.0.0,2399595,671fca7287fb225453006af0,3,29,2819,,,,,,,,,"<img src= ""rock_img/I_Peridotite_15.jpg"" style=""width:8cm; height:6cm;""><p>What type of rock is this?</p>",6,class_response,1,test,15,Peridotite,Peridotite,15,TRUE,7,7,,,,,,,,,,,,,,,,
,,,,,,,,,,,html-keyboard-response,169,2.0.0,2400106,671fca7287fb225453006af0,3,29,null,,,,,,,,,<p style='font-size: 30px;'><strong>Okay</strong></p>,null,neutral_feedback,1,test,15,,,,,,,,,,,,,,,,,,,,,,
,,,,,,,,,,,html-button-response,170,2.0.0,2409661,671fca7287fb225453006af0,3,29,9553,,,,,,,,,"<img src= ""rock_img/I_Gabbro_09.jpg"" style=""width:8cm; height:7.279999999999999cm;""><p>What type of rock is this?</p>",0,class_response,1,test,16,Andesite,Gabbro,9,FALSE,1,4,,,,,,,,,,,,,,,,
,,,,,,,,,,,html-keyboard-response,171,2.0.0,2410172,671fca7287fb225453006af0,3,29,null,,,,,,,,,<p style='font-size: 30px;'><strong>Okay</strong></p>,null,neutral_feedback,1,test,16,,,,,,,,,,,,,,,,,,,,,,
,,,,,,,,,,,html-button-response,172,2.0.0,2411958,671fca7287fb225453006af0,3,29,1783,,,,,,,,,"<img src= ""rock_img/I_Pumice_10.jpg"" style=""width:8cm; height:7.609999999999999cm;""><p>What type of rock is this?</p>",7,class_response,1,test,17,Pumice,Pumice,10,TRUE,8,8,,,,,,,,,,,,,,,,
,,,,,,,,,,,html-keyboard-response,173,2.0.0,2412463,671fca7287fb225453006af0,3,29,null,,,,,,,,,<p style='font-size: 30px;'><strong>Okay</strong></p>,null,neutral_feedback,1,test,17,,,,,,,,,,,,,,,,,,,,,,
,,,,,,,,,,,html-button-response,174,2.0.0,2414718,671fca7287fb225453006af0,3,29,2252,,,,,,,,,"<img src= ""rock_img/I_Peridotite_02.jpg"" style=""width:8cm; height:5.859999999999999cm;""><p>What type of rock is this?</p>",6,class_response,1,test,18,Peridotite,Peridotite,2,TRUE,7,7,,,,,,,,,,,,,,,,
,,,,,,,,,,,html-keyboard-response,175,2.0.0,2415226,671fca7287fb225453006af0,3,29,null,,,,,,,,,<p style='font-size: 30px;'><strong>Okay</strong></p>,null,neutral_feedback,1,test,18,,,,,,,,,,,,,,,,,,,,,,
,,,,,,,,,,,html-button-response,176,2.0.0,2416981,671fca7287fb225453006af0,3,29,1753,,,,,,,,,"<img src= ""rock_img/I_Peridotite_13.jpg"" style=""width:8cm; height:7.58cm;""><p>What type of rock is this?</p>",6,class_response,1,test,19,Peridotite,Peridotite,13,TRUE,7,7,,,,,,,,,,,,,,,,
,,,,,,,,,,,html-keyboard-response,177,2.0.0,2417485,671fca7287fb225453006af0,3,29,null,,,,,,,,,<p style='font-size: 30px;'><strong>Okay</strong></p>,null,neutral_feedback,1,test,19,,,,,,,,,,,,,,,,,,,,,,
,,,,,,,,,,,html-button-response,178,2.0.0,2419173,671fca7287fb225453006af0,3,29,1686,,,,,,,,,"<img src= ""rock_img/I_Obsidian_12.jpg"" style=""width:8cm; height:6.53cm;""><p>What type of rock is this?</p>",4,class_response,1,test,20,Obsidian,Obsidian,12,TRUE,5,5,,,,,,,,,,,,,,,,
,,,,,,,,,,,html-keyboard-response,179,2.0.0,2419676,671fca7287fb225453006af0,3,29,null,,,,,,,,,<p style='font-size: 30px;'><strong>Okay</strong></p>,null,neutral_feedback,1,test,20,,,,,,,,,,,,,,,,,,,,,,
,,,,,,,,,,,html-button-response,180,2.0.0,2421764,671fca7287fb225453006af0,3,29,2086,,,,,,,,,"<img src= ""rock_img/I_Pegmatite_09.jpg"" style=""width:8cm; height:4.03cm;""><p>What type of rock is this?</p>",4,class_response,1,test,21,Obsidian,Pegmatite,9,FALSE,5,6,,,,,,,,,,,,,,,,
,,,,,,,,,,,html-keyboard-response,181,2.0.0,2422280,671fca7287fb225453006af0,3,29,null,,,,,,,,,<p style='font-size: 30px;'><strong>Okay</strong></p>,null,neutral_feedback,1,test,21,,,,,,,,,,,,,,,,,,,,,,
,,,,,,,,,,,html-button-response,182,2.0.0,2424688,671fca7287fb225453006af0,3,29,2406,,,,,,,,,"<img src= ""rock_img/I_Pegmatite_08.jpg"" style=""width:8cm; height:7.68cm;""><p>What type of rock is this?</p>",4,class_response,1,test,22,Obsidian,Pegmatite,8,FALSE,5,6,,,,,,,,,,,,,,,,
,,,,,,,,,,,html-keyboard-response,183,2.0.0,2425194,671fca7287fb225453006af0,3,29,null,,,,,,,,,<p style='font-size: 30px;'><strong>Okay</strong></p>,null,neutral_feedback,1,test,22,,,,,,,,,,,,,,,,,,,,,,
,,,,,,,,,,,html-button-response,184,2.0.0,2427040,671fca7287fb225453006af0,3,29,1844,,,,,,,,,"<img src= ""rock_img/I_Obsidian_10.jpg"" style=""width:8cm; height:6.260000000000001cm;""><p>What type of rock is this?</p>",4,class_response,1,test,23,Obsidian,Obsidian,10,TRUE,5,5,,,,,,,,,,,,,,,,
,,,,,,,,,,,html-keyboard-response,185,2.0.0,2427554,671fca7287fb225453006af0,3,29,null,,,,,,,,,<p style='font-size: 30px;'><strong>Okay</strong></p>,null,neutral_feedback,1,test,23,,,,,,,,,,,,,,,,,,,,,,
,,,,,,,,,,,html-button-response,186,2.0.0,2430050,671fca7287fb225453006af0,3,29,2495,,,,,,,,,"<img src= ""rock_img/I_Diorite_11.jpg"" style=""width:8cm; height:7.11cm;""><p>What type of rock is this?</p>",1,class_response,1,test,24,Basalt,Diorite,11,FALSE,2,3,,,,,,,,,,,,,,,,
,,,,,,,,,,,html-keyboard-response,187,2.0.0,2430555,671fca7287fb225453006af0,3,29,null,,,,,,,,,<p style='font-size: 30px;'><strong>Okay</strong></p>,null,neutral_feedback,1,test,24,,,,,,,,,,,,,,,,,,,,,,
,,,,,,,,,,,html-button-response,188,2.0.0,2434026,671fca7287fb225453006af0,3,29,3469,,,,,,,,,"<img src= ""rock_img/I_Pumice_16.jpg"" style=""width:8cm; height:6.79cm;""><p>What type of rock is this?</p>",7,class_response,1,test,25,Pumice,Pumice,16,TRUE,8,8,,,,,,,,,,,,,,,,
,,,,,,,,,,,html-keyboard-response,189,2.0.0,2434535,671fca7287fb225453006af0,3,29,null,,,,,,,,,<p style='font-size: 30px;'><strong>Okay</strong></p>,null,neutral_feedback,1,test,25,,,,,,,,,,,,,,,,,,,,,,
,,,,,,,,,,,html-button-response,190,2.0.0,2436376,671fca7287fb225453006af0,3,29,1840,,,,,,,,,"<img src= ""rock_img/I_Andesite_11.jpg"" style=""width:8cm; height:4.92cm;""><p>What type of rock is this?</p>",7,class_response,1,test,26,Pumice,Andesite,11,FALSE,8,1,,,,,,,,,,,,,,,,
,,,,,,,,,,,html-keyboard-response,191,2.0.0,2436880,671fca7287fb225453006af0,3,29,null,,,,,,,,,<p style='font-size: 30px;'><strong>Okay</strong></p>,null,neutral_feedback,1,test,26,,,,,,,,,,,,,,,,,,,,,,
,,,,,,,,,,,html-button-response,192,2.0.0,2438979,671fca7287fb225453006af0,3,29,2096,,,,,,,,,"<img src= ""rock_img/I_Andesite_03.jpg"" style=""width:8cm; height:5.73cm;""><p>What type of rock is this?</p>",2,class_response,1,test,27,Diorite,Andesite,3,FALSE,3,1,,,,,,,,,,,,,,,,
,,,,,,,,,,,html-keyboard-response,193,2.0.0,2439494,671fca7287fb225453006af0,3,29,null,,,,,,,,,<p style='font-size: 30px;'><strong>Okay</strong></p>,null,neutral_feedback,1,test,27,,,,,,,,,,,,,,,,,,,,,,
,,,,,,,,,,,html-button-response,194,2.0.0,2449333,671fca7287fb225453006af0,3,29,9837,,,,,,,,,"<img src= ""rock_img/I_Basalt_16.jpg"" style=""width:8cm; height:7.659999999999999cm;""><p>What type of rock is this?</p>",0,class_response,1,test,28,Andesite,Basalt,16,FALSE,1,2,,,,,,,,,,,,,,,,
,,,,,,,,,,,html-keyboard-response,195,2.0.0,2449837,671fca7287fb225453006af0,3,29,null,,,,,,,,,<p style='font-size: 30px;'><strong>Okay</strong></p>,null,neutral_feedback,1,test,28,,,,,,,,,,,,,,,,,,,,,,
,,,,,,,,,,,html-button-response,196,2.0.0,2452415,671fca7287fb225453006af0,3,29,2576,,,,,,,,,"<img src= ""rock_img/I_Pumice_13.jpg"" style=""width:8cm; height:8.200000000000001cm;""><p>What type of rock is this?</p>",7,class_response,1,test,29,Pumice,Pumice,13,TRUE,8,8,,,,,,,,,,,,,,,,
,,,,,,,,,,,html-keyboard-response,197,2.0.0,2452918,671fca7287fb225453006af0,3,29,null,,,,,,,,,<p style='font-size: 30px;'><strong>Okay</strong></p>,null,neutral_feedback,1,test,29,,,,,,,,,,,,,,,,,,,,,,
,,,,,,,,,,,html-button-response,198,2.0.0,2455142,671fca7287fb225453006af0,3,29,2222,,,,,,,,,"<img src= ""rock_img/I_Gabbro_16.jpg"" style=""width:8cm; height:6.44cm;""><p>What type of rock is this?</p>",0,class_response,1,test,30,Andesite,Gabbro,16,FALSE,1,4,,,,,,,,,,,,,,,,
,,,,,,,,,,,html-keyboard-response,199,2.0.0,2455653,671fca7287fb225453006af0,3,29,null,,,,,,,,,<p style='font-size: 30px;'><strong>Okay</strong></p>,null,neutral_feedback,1,test,30,,,,,,,,,,,,,,,,,,,,,,
,,,,,,,,,,,html-button-response,200,2.0.0,2459077,671fca7287fb225453006af0,3,29,3422,,,,,,,,,"<img src= ""rock_img/I_Pegmatite_16.jpg"" style=""width:8cm; height:5.8cm;""><p>What type of rock is this?</p>",2,class_response,1,test,31,Diorite,Pegmatite,16,FALSE,3,6,,,,,,,,,,,,,,,,
,,,,,,,,,,,html-keyboard-response,201,2.0.0,2459586,671fca7287fb225453006af0,3,29,null,,,,,,,,,<p style='font-size: 30px;'><strong>Okay</strong></p>,null,neutral_feedback,1,test,31,,,,,,,,,,,,,,,,,,,,,,
,,,,,,,,,,,html-button-response,202,2.0.0,2461702,671fca7287fb225453006af0,3,29,2113,,,,,,,,,"<img src= ""rock_img/I_Diorite_07.jpg"" style=""width:8cm; height:5.239999999999999cm;""><p>What type of rock is this?</p>",2,class_response,1,test,32,Diorite,Diorite,7,TRUE,3,3,,,,,,,,,,,,,,,,
,,,,,,,,,,,html-keyboard-response,203,2.0.0,2462219,671fca7287fb225453006af0,3,29,null,,,,,,,,,<p style='font-size: 30px;'><strong>Okay</strong></p>,null,neutral_feedback,1,test,32,,,,,,,,,,,,,,,,,,,,,,
,,,,,,,,,,,html-button-response,204,2.0.0,2464096,671fca7287fb225453006af0,3,29,1874,,,,,,,,,"<img src= ""rock_img/I_Obsidian_05.jpg"" style=""width:8cm; height:6.33cm;""><p>What type of rock is this?</p>",4,class_response,1,test,33,Obsidian,Obsidian,5,TRUE,5,5,,,,,,,,,,,,,,,,
,,,,,,,,,,,html-keyboard-response,205,2.0.0,2464608,671fca7287fb225453006af0,3,29,null,,,,,,,,,<p style='font-size: 30px;'><strong>Okay</strong></p>,null,neutral_feedback,1,test,33,,,,,,,,,,,,,,,,,,,,,,
,,,,,,,,,,,html-button-response,206,2.0.0,2471266,671fca7287fb225453006af0,3,29,6656,,,,,,,,,"<img src= ""rock_img/I_Andesite_09.jpg"" style=""width:8cm; height:6cm;""><p>What type of rock is this?</p>",0,class_response,1,test,34,Andesite,Andesite,9,TRUE,1,1,,,,,,,,,,,,,,,,
,,,,,,,,,,,html-keyboard-response,207,2.0.0,2471777,671fca7287fb225453006af0,3,29,null,,,,,,,,,<p style='font-size: 30px;'><strong>Okay</strong></p>,null,neutral_feedback,1,test,34,,,,,,,,,,,,,,,,,,,,,,
,,,,,,,,,,,html-button-response,208,2.0.0,2473554,671fca7287fb225453006af0,3,29,1775,,,,,,,,,"<img src= ""rock_img/I_Diorite_15.jpg"" style=""width:8cm; height:5.54cm;""><p>What type of rock is this?</p>",0,class_response,1,test,35,Andesite,Diorite,15,FALSE,1,3,,,,,,,,,,,,,,,,
,,,,,,,,,,,html-keyboard-response,209,2.0.0,2474064,671fca7287fb225453006af0,3,29,null,,,,,,,,,<p style='font-size: 30px;'><strong>Okay</strong></p>,null,neutral_feedback,1,test,35,,,,,,,,,,,,,,,,,,,,,,
,,,,,,,,,,,html-button-response,210,2.0.0,2475984,671fca7287fb225453006af0,3,29,1918,,,,,,,,,"<img src= ""rock_img/I_Peridotite_10.jpg"" style=""width:8cm; height:5.390000000000001cm;""><p>What type of rock is this?</p>",6,class_response,1,test,36,Peridotite,Peridotite,10,TRUE,7,7,,,,,,,,,,,,,,,,
,,,,,,,,,,,html-keyboard-response,211,2.0.0,2476489,671fca7287fb225453006af0,3,29,null,,,,,,,,,<p style='font-size: 30px;'><strong>Okay</strong></p>,null,neutral_feedback,1,test,36,,,,,,,,,,,,,,,,,,,,,,
,,,,,,,,,,,html-button-response,212,2.0.0,2483364,671fca7287fb225453006af0,3,29,6873,,,,,,,,,"<img src= ""rock_img/I_Andesite_06.jpg"" style=""width:8cm; height:6.840000000000001cm;""><p>What type of rock is this?</p>",2,class_response,1,test,37,Diorite,Andesite,6,FALSE,3,1,,,,,,,,,,,,,,,,
,,,,,,,,,,,html-keyboard-response,213,2.0.0,2483874,671fca7287fb225453006af0,3,29,null,,,,,,,,,<p style='font-size: 30px;'><strong>Okay</strong></p>,null,neutral_feedback,1,test,37,,,,,,,,,,,,,,,,,,,,,,
,,,,,,,,,,,html-button-response,214,2.0.0,2485566,671fca7287fb225453006af0,3,29,1690,,,,,,,,,"<img src= ""rock_img/I_Gabbro_14.jpg"" style=""width:8cm; height:8.48cm;""><p>What type of rock is this?</p>",0,class_response,1,test,38,Andesite,Gabbro,14,FALSE,1,4,,,,,,,,,,,,,,,,
,,,,,,,,,,,html-keyboard-response,215,2.0.0,2486075,671fca7287fb225453006af0,3,29,null,,,,,,,,,<p style='font-size: 30px;'><strong>Okay</strong></p>,null,neutral_feedback,1,test,38,,,,,,,,,,,,,,,,,,,,,,
,,,,,,,,,,,html-button-response,216,2.0.0,2487995,671fca7287fb225453006af0,3,29,1917,,,,,,,,,"<img src= ""rock_img/I_Pegmatite_03.jpg"" style=""width:8cm; height:5.239999999999999cm;""><p>What type of rock is this?</p>",4,class_response,1,test,39,Obsidian,Pegmatite,3,FALSE,5,6,,,,,,,,,,,,,,,,
,,,,,,,,,,,html-keyboard-response,217,2.0.0,2488505,671fca7287fb225453006af0,3,29,null,,,,,,,,,<p style='font-size: 30px;'><strong>Okay</strong></p>,null,neutral_feedback,1,test,39,,,,,,,,,,,,,,,,,,,,,,
,,,,,,,,,,,html-button-response,218,2.0.0,2492726,671fca7287fb225453006af0,3,29,4219,,,,,,,,,"<img src= ""rock_img/I_Basalt_05.jpg"" style=""width:8cm; height:8.18cm;""><p>What type of rock is this?</p>",1,class_response,1,test,40,Basalt,Basalt,5,TRUE,2,2,,,,,,,,,,,,,,,,
,,,,,,,,,,,html-keyboard-response,219,2.0.0,2493238,671fca7287fb225453006af0,3,29,null,,,,,,,,,<p style='font-size: 30px;'><strong>Okay</strong></p>,null,neutral_feedback,1,test,40,,,,,,,,,,,,,,,,,,,,,,
,,,,,,,,,,,html-button-response,220,2.0.0,2495424,671fca7287fb225453006af0,3,29,2183,,,,,,,,,"<img src= ""rock_img/I_Pegmatite_07.jpg"" style=""width:8cm; height:6.7cm;""><p>What type of rock is this?</p>",4,class_response,1,test,41,Obsidian,Pegmatite,7,FALSE,5,6,,,,,,,,,,,,,,,,
,,,,,,,,,,,html-keyboard-response,221,2.0.0,2495930,671fca7287fb225453006af0,3,29,null,,,,,,,,,<p style='font-size: 30px;'><strong>Okay</strong></p>,null,neutral_feedback,1,test,41,,,,,,,,,,,,,,,,,,,,,,
,,,,,,,,,,,html-button-response,222,2.0.0,2500059,671fca7287fb225453006af0,3,29,4126,,,,,,,,,"<img src= ""rock_img/I_Diorite_13.jpg"" style=""width:8cm; height:6.29cm;""><p>What type of rock is this?</p>",0,class_response,1,test,42,Andesite,Diorite,13,FALSE,1,3,,,,,,,,,,,,,,,,
,,,,,,,,,,,html-keyboard-response,223,2.0.0,2500566,671fca7287fb225453006af0,3,29,null,,,,,,,,,<p style='font-size: 30px;'><strong>Okay</strong></p>,null,neutral_feedback,1,test,42,,,,,,,,,,,,,,,,,,,,,,
,,,,,,,,,,,html-button-response,224,2.0.0,2502408,671fca7287fb225453006af0,3,29,1841,,,,,,,,,"<img src= ""rock_img/I_Pumice_02.jpg"" style=""width:8cm; height:7.3999999999999995cm;""><p>What type of rock is this?</p>",7,class_response,1,test,43,Pumice,Pumice,2,TRUE,8,8,,,,,,,,,,,,,,,,
,,,,,,,,,,,html-keyboard-response,225,2.0.0,2502916,671fca7287fb225453006af0,3,29,null,,,,,,,,,<p style='font-size: 30px;'><strong>Okay</strong></p>,null,neutral_feedback,1,test,43,,,,,,,,,,,,,,,,,,,,,,
,,,,,,,,,,,html-button-response,226,2.0.0,2504604,671fca7287fb225453006af0,3,29,1685,,,,,,,,,"<img src= ""rock_img/I_Obsidian_16.jpg"" style=""width:8cm; height:9.3cm;""><p>What type of rock is this?</p>",4,class_response,1,test,44,Obsidian,Obsidian,16,TRUE,5,5,,,,,,,,,,,,,,,,
,,,,,,,,,,,html-keyboard-response,227,2.0.0,2505111,671fca7287fb225453006af0,3,29,null,,,,,,,,,<p style='font-size: 30px;'><strong>Okay</strong></p>,null,neutral_feedback,1,test,44,,,,,,,,,,,,,,,,,,,,,,
,,,,,,,,,,,html-button-response,228,2.0.0,2507451,671fca7287fb225453006af0,3,29,2338,,,,,,,,,"<img src= ""rock_img/I_Gabbro_11.jpg"" style=""width:8cm; height:6.2cm;""><p>What type of rock is this?</p>",6,class_response,1,test,45,Peridotite,Gabbro,11,FALSE,7,4,,,,,,,,,,,,,,,,
,,,,,,,,,,,html-keyboard-response,229,2.0.0,2507960,671fca7287fb225453006af0,3,29,null,,,,,,,,,<p style='font-size: 30px;'><strong>Okay</strong></p>,null,neutral_feedback,1,test,45,,,,,,,,,,,,,,,,,,,,,,
,,,,,,,,,,,html-button-response,230,2.0.0,2512751,671fca7287fb225453006af0,3,29,4788,,,,,,,,,"<img src= ""rock_img/I_Basalt_08.jpg"" style=""width:8cm; height:10.44cm;""><p>What type of rock is this?</p>",6,class_response,1,test,46,Peridotite,Basalt,8,FALSE,7,2,,,,,,,,,,,,,,,,
,,,,,,,,,,,html-keyboard-response,231,2.0.0,2513258,671fca7287fb225453006af0,3,29,null,,,,,,,,,<p style='font-size: 30px;'><strong>Okay</strong></p>,null,neutral_feedback,1,test,46,,,,,,,,,,,,,,,,,,,,,,
,,,,,,,,,,,html-button-response,232,2.0.0,2516008,671fca7287fb225453006af0,3,29,2748,,,,,,,,,"<img src= ""rock_img/I_Gabbro_03.jpg"" style=""width:8cm; height:8.52cm;""><p>What type of rock is this?</p>",7,class_response,1,test,47,Pumice,Gabbro,3,FALSE,8,4,,,,,,,,,,,,,,,,
,,,,,,,,,,,html-keyboard-response,233,2.0.0,2516512,671fca7287fb225453006af0,3,29,null,,,,,,,,,<p style='font-size: 30px;'><strong>Okay</strong></p>,null,neutral_feedback,1,test,47,,,,,,,,,,,,,,,,,,,,,,
,,,,,,,,,,,html-button-response,234,2.0.0,2523751,671fca7287fb225453006af0,3,29,7237,,,,,,,,,"<img src= ""rock_img/I_Peridotite_04.jpg"" style=""width:8cm; height:6.680000000000001cm;""><p>What type of rock is this?</p>",3,class_response,1,test,48,Gabbro,Peridotite,4,FALSE,4,7,,,,,,,,,,,,,,,,
,,,,,,,,,,,html-keyboard-response,235,2.0.0,2524259,671fca7287fb225453006af0,3,29,null,,,,,,,,,<p style='font-size: 30px;'><strong>Okay</strong></p>,null,neutral_feedback,1,test,48,,,,,,,,,,,,,,,,,,,,,,
,,,,,,,,,,,html-button-response,236,2.0.0,2555847,671fca7287fb225453006af0,3,29,,,,,,,,,,,,cycle_feedback,,,,,,,,,,,,,,,,,,,,,,,,10496.5,21075.8
,,,,,,,,,,,html-button-response,238,2.0.0,2558521,671fca7287fb225453006af0,3,29,2673,,,,,,,,,,0,start_train,,,,,,,,,,,,,,,,,,,,,,,,,
,,,,,,,,,,,html-button-response,240,2.0.0,2563537,671fca7287fb225453006af0,3,29,5014,,,,,,,,,"<img src= ""rock_img/I_Andesite_01.jpg"" style=""width:8cm; height:5.87cm;""><p>What type of rock is this?</p>",6,class_response,2,train,1,Peridotite,Andesite,1,FALSE,7,1,,,,,,,,,,,,,,,,
,,,,,,,,,,,html-button-response,241,2.0.0,2564986,671fca7287fb225453006af0,3,29,1447,,,,,,,,,"<img src= rock_img/I_Andesite_01.jpg style=""width:8cm; height:5.87cm;""><p style='font-size: 30px; color: red;'><strong>Incorrect!</strong></p><p style='font-size: 30px;'><strong>This rock is andesite</strong></p>",0,corr_feedback,2,train,1,,,,,,,,,,,,,,,,,,,,,,
,,,,,,,,,,,html-button-response,242,2.0.0,2567029,671fca7287fb225453006af0,3,29,2042,,,,,,,,,"<img src= ""rock_img/I_Gabbro_13.jpg"" style=""width:8cm; height:5.08cm;""><p>What type of rock is this?</p>",0,class_response,2,train,2,Andesite,Gabbro,13,FALSE,1,4,,,,,,,,,,,,,,,,
,,,,,,,,,,,html-button-response,243,2.0.0,2568480,671fca7287fb225453006af0,3,29,1449,,,,,,,,,"<img src= rock_img/I_Gabbro_13.jpg style=""width:8cm; height:5.08cm;""><p style='font-size: 30px; color: red;'><strong>Incorrect!</strong></p><p style='font-size: 30px;'><strong>This rock is gabbro</strong></p>",0,corr_feedback,2,train,2,,,,,,,,,,,,,,,,,,,,,,
,,,,,,,,,,,html-button-response,244,2.0.0,2574549,671fca7287fb225453006af0,3,29,6067,,,,,,,,,"<img src= ""rock_img/I_Pegmatite_15.jpg"" style=""width:8cm; height:6cm;""><p>What type of rock is this?</p>",0,class_response,2,train,3,Andesite,Pegmatite,15,FALSE,1,6,,,,,,,,,,,,,,,,
,,,,,,,,,,,html-button-response,245,2.0.0,2577226,671fca7287fb225453006af0,3,29,2676,,,,,,,,,"<img src= rock_img/I_Pegmatite_15.jpg style=""width:8cm; height:6cm;""><p style='font-size: 30px; color: red;'><strong>Incorrect!</strong></p><p style='font-size: 30px;'><strong>This rock is pegmatite</strong></p>",0,corr_feedback,2,train,3,,,,,,,,,,,,,,,,,,,,,,
,,,,,,,,,,,html-button-response,246,2.0.0,2579577,671fca7287fb225453006af0,3,29,2349,,,,,,,,,"<img src= ""rock_img/I_Pegmatite_12.jpg"" style=""width:8cm; height:5.7cm;""><p>What type of rock is this?</p>",6,class_response,2,train,4,Peridotite,Pegmatite,12,FALSE,7,6,,,,,,,,,,,,,,,,
,,,,,,,,,,,html-button-response,247,2.0.0,2581500,671fca7287fb225453006af0,3,29,1921,,,,,,,,,"<img src= rock_img/I_Pegmatite_12.jpg style=""width:8cm; height:5.7cm;""><p style='font-size: 30px; color: red;'><strong>Incorrect!</strong></p><p style='font-size: 30px;'><strong>This rock is pegmatite</strong></p>",0,corr_feedback,2,train,4,,,,,,,,,,,,,,,,,,,,,,
,,,,,,,,,,,html-button-response,248,2.0.0,2584336,671fca7287fb225453006af0,3,29,2835,,,,,,,,,"<img src= ""rock_img/I_Pumice_03.jpg"" style=""width:8cm; height:6.64cm;""><p>What type of rock is this?</p>",7,class_response,2,train,5,Pumice,Pumice,3,TRUE,8,8,,,,,,,,,,,,,,,,
,,,,,,,,,,,html-button-response,249,2.0.0,2585844,671fca7287fb225453006af0,3,29,1507,,,,,,,,,"<img src= rock_img/I_Pumice_03.jpg style=""width:8cm; height:6.64cm;""><p style='font-size: 30px; color: green;'><strong>Correct!</strong></p><p style='font-size: 30px;'><strong>This rock is pumice</strong></p>",0,corr_feedback,2,train,5,,,,,,,,,,,,,,,,,,,,,,
,,,,,,,,,,,html-button-response,250,2.0.0,2589118,671fca7287fb225453006af0,3,29,3272,,,,,,,,,"<img src= ""rock_img/I_Peridotite_16.jpg"" style=""width:8cm; height:6.989999999999999cm;""><p>What type of rock is this?</p>",6,class_response,2,train,6,Peridotite,Peridotite,16,TRUE,7,7,,,,,,,,,,,,,,,,
,,,,,,,,,,,html-button-response,251,2.0.0,2590430,671fca7287fb225453006af0,3,29,1311,,,,,,,,,"<img src= rock_img/I_Peridotite_16.jpg style=""width:8cm; height:6.989999999999999cm;""><p style='font-size: 30px; color: green;'><strong>Correct!</strong></p><p style='font-size: 30px;'><strong>This rock is peridotite</strong></p>",0,corr_feedback,2,train,6,,,,,,,,,,,,,,,,,,,,,,
,,,,,,,,,,,html-button-response,252,2.0.0,2592549,671fca7287fb225453006af0,3,29,2117,,,,,,,,,"<img src= ""rock_img/I_Basalt_04.jpg"" style=""width:8cm; height:7.53cm;""><p>What type of rock is this?</p>",1,class_response,2,train,7,Basalt,Basalt,4,TRUE,2,2,,,,,,,,,,,,,,,,
,,,,,,,,,,,html-button-response,253,2.0.0,2594021,671fca7287fb225453006af0,3,29,1471,,,,,,,,,"<img src= rock_img/I_Basalt_04.jpg style=""width:8cm; height:7.53cm;""><p style='font-size: 30px; color: green;'><strong>Correct!</strong></p><p style='font-size: 30px;'><strong>This rock is basalt</strong></p>",0,corr_feedback,2,train,7,,,,,,,,,,,,,,,,,,,,,,
,,,,,,,,,,,html-button-response,254,2.0.0,2595694,671fca7287fb225453006af0,3,29,1671,,,,,,,,,"<img src= ""rock_img/I_Obsidian_07.jpg"" style=""width:8cm; height:4.76cm;""><p>What type of rock is this?</p>",4,class_response,2,train,8,Obsidian,Obsidian,7,TRUE,5,5,,,,,,,,,,,,,,,,
,,,,,,,,,,,html-button-response,255,2.0.0,2597428,671fca7287fb225453006af0,3,29,1733,,,,,,,,,"<img src= rock_img/I_Obsidian_07.jpg style=""width:8cm; height:4.76cm;""><p style='font-size: 30px; color: green;'><strong>Correct!</strong></p><p style='font-size: 30px;'><strong>This rock is obsidian</strong></p>",0,corr_feedback,2,train,8,,,,,,,,,,,,,,,,,,,,,,
,,,,,,,,,,,html-button-response,256,2.0.0,2599299,671fca7287fb225453006af0,3,29,1869,,,,,,,,,"<img src= ""rock_img/I_Peridotite_05.jpg"" style=""width:8cm; height:7.1499999999999995cm;""><p>What type of rock is this?</p>",6,class_response,2,train,9,Peridotite,Peridotite,5,TRUE,7,7,,,,,,,,,,,,,,,,
,,,,,,,,,,,html-button-response,257,2.0.0,2600884,671fca7287fb225453006af0,3,29,1583,,,,,,,,,"<img src= rock_img/I_Peridotite_05.jpg style=""width:8cm; height:7.1499999999999995cm;""><p style='font-size: 30px; color: green;'><strong>Correct!</strong></p><p style='font-size: 30px;'><strong>This rock is peridotite</strong></p>",0,corr_feedback,2,train,9,,,,,,,,,,,,,,,,,,,,,,
,,,,,,,,,,,html-button-response,258,2.0.0,2602634,671fca7287fb225453006af0,3,29,1749,,,,,,,,,"<img src= ""rock_img/I_Diorite_06.jpg"" style=""width:8cm; height:6.03cm;""><p>What type of rock is this?</p>",5,class_response,2,train,10,Pegmatite,Diorite,6,FALSE,6,3,,,,,,,,,,,,,,,,
,,,,,,,,,,,html-button-response,259,2.0.0,2606495,671fca7287fb225453006af0,3,29,3860,,,,,,,,,"<img src= rock_img/I_Diorite_06.jpg style=""width:8cm; height:6.03cm;""><p style='font-size: 30px; color: red;'><strong>Incorrect!</strong></p><p style='font-size: 30px;'><strong>This rock is diorite</strong></p>",0,corr_feedback,2,train,10,,,,,,,,,,,,,,,,,,,,,,
,,,,,,,,,,,html-button-response,260,2.0.0,2608176,671fca7287fb225453006af0,3,29,1680,,,,,,,,,"<img src= ""rock_img/I_Gabbro_12.jpg"" style=""width:8cm; height:7.800000000000001cm;""><p>What type of rock is this?</p>",2,class_response,2,train,11,Diorite,Gabbro,12,FALSE,3,4,,,,,,,,,,,,,,,,
,,,,,,,,,,,html-button-response,261,2.0.0,2610580,671fca7287fb225453006af0,3,29,2402,,,,,,,,,"<img src= rock_img/I_Gabbro_12.jpg style=""width:8cm; height:7.800000000000001cm;""><p style='font-size: 30px; color: red;'><strong>Incorrect!</strong></p><p style='font-size: 30px;'><strong>This rock is gabbro</strong></p>",0,corr_feedback,2,train,11,,,,,,,,,,,,,,,,,,,,,,
,,,,,,,,,,,html-button-response,262,2.0.0,2615707,671fca7287fb225453006af0,3,29,5125,,,,,,,,,"<img src= ""rock_img/I_Basalt_11.jpg"" style=""width:8cm; height:5.359999999999999cm;""><p>What type of rock is this?</p>",7,class_response,2,train,12,Pumice,Basalt,11,FALSE,8,2,,,,,,,,,,,,,,,,
,,,,,,,,,,,html-button-response,263,2.0.0,2618025,671fca7287fb225453006af0,3,29,2318,,,,,,,,,"<img src= rock_img/I_Basalt_11.jpg style=""width:8cm; height:5.359999999999999cm;""><p style='font-size: 30px; color: red;'><strong>Incorrect!</strong></p><p style='font-size: 30px;'><strong>This rock is basalt</strong></p>",0,corr_feedback,2,train,12,,,,,,,,,,,,,,,,,,,,,,
,,,,,,,,,,,html-button-response,265,2.0.0,2620998,671fca7287fb225453006af0,3,29,2971,,,,,,,,,,0,start_train,,,,,,,,,,,,,,,,,,,,,,,,,
,,,,,,,,,,,html-button-response,266,2.0.0,2654433,671fca7287fb225453006af0,3,29,,,,,,,,,,,,cat_selection,2,train,1,,,,,,,1,4,33433.6,Andesite,Gabbro,"[0.17310480426920152,0.1379354903413776,0.130442269912634,0.18002382764397162,0.06385025227135792,0.18002382764397162,0.10276617641355364,0.031853351503932266]","[null,0.027123989211837285,0.3267864172150952,0.3318784941231308,0.029390349199315248,0.02209942089917338,0.07974098400105904,0.18298034535038904]",,,,,,,,,
,,,,,,,,,,,paired-cat-display,267,1.0.0,2788139,671fca7287fb225453006af0,3,29,,,,,,,,,,,,paired_cat_display,2,train,1,,,,,,,,,19370,,,,,,It has a course-grained texture.,114333.4,,,Andesite has fine-grained,,,
,,,,,,,,,,,html-button-response,268,2.0.0,2794731,671fca7287fb225453006af0,3,29,,,,,,,,,,,,cat_selection,2,train,2,,,,,,,1,3,6590.4,Andesite,Diorite,"[0.17310480426920152,0.1379354903413776,0.130442269912634,0.18002382764397162,0.06385025227135792,0.18002382764397162,0.10276617641355364,0.031853351503932266]","[null,0.027123989211837285,0.3267864172150952,0.3318784941231308,0.029390349199315248,0.02209942089917338,0.07974098400105904,0.18298034535038904]",,,,,,,,,
,,,,,,,,,,,paired-cat-display,269,1.0.0,2910667,671fca7287fb225453006af0,3,29,,,,,,,,,,,,paired_cat_display,2,train,2,,,,,,,,,15520.9,,,,,is usually gray to dark gray color,,100413,,,is usually light to dark gray in color.,,,
,,,,,,,,,,,html-button-response,270,2.0.0,2939651,671fca7287fb225453006af0,3,29,,,,,,,,,,,,cat_selection,2,train,3,,,,,,,4,7,28982.4,Gabbro,Peridotite,"[0.17310480426920152,0.1379354903413776,0.130442269912634,0.18002382764397162,0.06385025227135792,0.18002382764397162,0.10276617641355364,0.031853351503932266]","[0.279392868354372,0.08706654520758811,0.15033021835730034,null,0.09205225023173037,0.11064111487334301,0.17342638547135014,0.10709061750431602]",,,,,,,,,
,,,,,,,,,,,paired-cat-display,271,1.0.0,3026968,671fca7287fb225453006af0,3,29,,,,,,,,,,,,paired_cat_display,2,train,3,,,,,,,,,6587.9,,,,,,has a course grained.,80725.4,,,,has the main component of mantle,,
,,,,,,,,,,,html-button-response,273,2.0.0,3028641,671fca7287fb225453006af0,3,29,1671,,,,,,,,,,0,start_test,,,,,,,,,,,,,,,,,,,,,,,,,
,,,,,,,,,,,html-button-response,274,2.0.0,3030734,671fca7287fb225453006af0,3,29,2092,,,,,,,,,"<img src= ""rock_img/I_Obsidian_16.jpg"" style=""width:8cm; height:9.3cm;""><p>What type of rock is this?</p>",4,class_response,2,test,1,Obsidian,Obsidian,16,TRUE,5,5,,,,,,,,,,,,,,,,
,,,,,,,,,,,html-keyboard-response,275,2.0.0,3031250,671fca7287fb225453006af0,3,29,null,,,,,,,,,<p style='font-size: 30px;'><strong>Okay</strong></p>,null,neutral_feedback,2,test,1,,,,,,,,,,,,,,,,,,,,,,
,,,,,,,,,,,html-button-response,276,2.0.0,3035222,671fca7287fb225453006af0,3,29,3970,,,,,,,,,"<img src= ""rock_img/I_Basalt_05.jpg"" style=""width:8cm; height:8.18cm;""><p>What type of rock is this?</p>",1,class_response,2,test,2,Basalt,Basalt,5,TRUE,2,2,,,,,,,,,,,,,,,,
,,,,,,,,,,,html-keyboard-response,277,2.0.0,3035729,671fca7287fb225453006af0,3,29,null,,,,,,,,,<p style='font-size: 30px;'><strong>Okay</strong></p>,null,neutral_feedback,2,test,2,,,,,,,,,,,,,,,,,,,,,,
,,,,,,,,,,,html-button-response,278,2.0.0,3043571,671fca7287fb225453006af0,3,29,7840,,,,,,,,,"<img src= ""rock_img/I_Pegmatite_08.jpg"" style=""width:8cm; height:7.68cm;""><p>What type of rock is this?</p>",5,class_response,2,test,3,Pegmatite,Pegmatite,8,TRUE,6,6,,,,,,,,,,,,,,,,
,,,,,,,,,,,html-keyboard-response,279,2.0.0,3044077,671fca7287fb225453006af0,3,29,null,,,,,,,,,<p style='font-size: 30px;'><strong>Okay</strong></p>,null,neutral_feedback,2,test,3,,,,,,,,,,,,,,,,,,,,,,
,,,,,,,,,,,html-button-response,280,2.0.0,3046084,671fca7287fb225453006af0,3,29,2005,,,,,,,,,"<img src= ""rock_img/I_Pegmatite_09.jpg"" style=""width:8cm; height:4.03cm;""><p>What type of rock is this?</p>",5,class_response,2,test,4,Pegmatite,Pegmatite,9,TRUE,6,6,,,,,,,,,,,,,,,,
,,,,,,,,,,,html-keyboard-response,281,2.0.0,3046596,671fca7287fb225453006af0,3,29,null,,,,,,,,,<p style='font-size: 30px;'><strong>Okay</strong></p>,null,neutral_feedback,2,test,4,,,,,,,,,,,,,,,,,,,,,,
,,,,,,,,,,,html-button-response,282,2.0.0,3049197,671fca7287fb225453006af0,3,29,2598,,,,,,,,,"<img src= ""rock_img/I_Gabbro_03.jpg"" style=""width:8cm; height:8.52cm;""><p>What type of rock is this?</p>",1,class_response,2,test,5,Gabbro,Gabbro,3,TRUE,4,4,,,,,,,,,,,,,,,,
,,,,,,,,,,,html-keyboard-response,283,2.0.0,3049708,671fca7287fb225453006af0,3,29,null,,,,,,,,,<p style='font-size: 30px;'><strong>Okay</strong></p>,null,neutral_feedback,2,test,5,,,,,,,,,,,,,,,,,,,,,,
,,,,,,,,,,,html-button-response,284,2.0.0,3053571,671fca7287fb225453006af0,3,29,3861,,,,,,,,,"<img src= ""rock_img/I_Andesite_16.jpg"" style=""width:8cm; height:6.010000000000001cm;""><p>What type of rock is this?</p>",2,class_response,2,test,6,Diorite,Andesite,16,FALSE,3,1,,,,,,,,,,,,,,,,
,,,,,,,,,,,html-keyboard-response,285,2.0.0,3054072,671fca7287fb225453006af0,3,29,null,,,,,,,,,<p style='font-size: 30px;'><strong>Okay</strong></p>,null,neutral_feedback,2,test,6,,,,,,,,,,,,,,,,,,,,,,
,,,,,,,,,,,html-button-response,286,2.0.0,3055911,671fca7287fb225453006af0,3,29,1837,,,,,,,,,"<img src= ""rock_img/I_Pumice_10.jpg"" style=""width:8cm; height:7.609999999999999cm;""><p>What type of rock is this?</p>",7,class_response,2,test,7,Pumice,Pumice,10,TRUE,8,8,,,,,,,,,,,,,,,,
,,,,,,,,,,,html-keyboard-response,287,2.0.0,3056426,671fca7287fb225453006af0,3,29,null,,,,,,,,,<p style='font-size: 30px;'><strong>Okay</strong></p>,null,neutral_feedback,2,test,7,,,,,,,,,,,,,,,,,,,,,,
,,,,,,,,,,,html-button-response,288,2.0.0,3059625,671fca7287fb225453006af0,3,29,3196,,,,,,,,,"<img src= ""rock_img/I_Andesite_06.jpg"" style=""width:8cm; height:6.840000000000001cm;""><p>What type of rock is this?</p>",6,class_response,2,test,8,Peridotite,Andesite,6,FALSE,7,1,,,,,,,,,,,,,,,,
,,,,,,,,,,,html-keyboard-response,289,2.0.0,3060126,671fca7287fb225453006af0,3,29,null,,,,,,,,,<p style='font-size: 30px;'><strong>Okay</strong></p>,null,neutral_feedback,2,test,8,,,,,,,,,,,,,,,,,,,,,,
,,,,,,,,,,,html-button-response,290,2.0.0,3063815,671fca7287fb225453006af0,3,29,3686,,,,,,,,,"<img src= ""rock_img/I_Peridotite_04.jpg"" style=""width:8cm; height:6.680000000000001cm;""><p>What type of rock is this?</p>",6,class_response,2,test,9,Peridotite,Peridotite,4,TRUE,7,7,,,,,,,,,,,,,,,,
,,,,,,,,,,,html-keyboard-response,291,2.0.0,3064326,671fca7287fb225453006af0,3,29,null,,,,,,,,,<p style='font-size: 30px;'><strong>Okay</strong></p>,null,neutral_feedback,2,test,9,,,,,,,,,,,,,,,,,,,,,,
,,,,,,,,,,,html-button-response,292,2.0.0,3066119,671fca7287fb225453006af0,3,29,1791,,,,,,,,,"<img src= ""rock_img/I_Obsidian_05.jpg"" style=""width:8cm; height:6.33cm;""><p>What type of rock is this?</p>",4,class_response,2,test,10,Obsidian,Obsidian,5,TRUE,5,5,,,,,,,,,,,,,,,,
,,,,,,,,,,,html-keyboard-response,293,2.0.0,3066626,671fca7287fb225453006af0,3,29,null,,,,,,,,,<p style='font-size: 30px;'><strong>Okay</strong></p>,null,neutral_feedback,2,test,10,,,,,,,,,,,,,,,,,,,,,,
,,,,,,,,,,,html-button-response,294,2.0.0,3070281,671fca7287fb225453006af0,3,29,3653,,,,,,,,,"<img src= ""rock_img/I_Andesite_14.jpg"" style=""width:8cm; height:5.449999999999999cm;""><p>What type of rock is this?</p>",3,class_response,2,test,11,Andesite,Andesite,14,TRUE,1,1,,,,,,,,,,,,,,,,
,,,,,,,,,,,html-keyboard-response,295,2.0.0,3070796,671fca7287fb225453006af0,3,29,null,,,,,,,,,<p style='font-size: 30px;'><strong>Okay</strong></p>,null,neutral_feedback,2,test,11,,,,,,,,,,,,,,,,,,,,,,
,,,,,,,,,,,html-button-response,296,2.0.0,3073029,671fca7287fb225453006af0,3,29,2231,,,,,,,,,"<img src= ""rock_img/I_Peridotite_13.jpg"" style=""width:8cm; height:7.58cm;""><p>What type of rock is this?</p>",6,class_response,2,test,12,Peridotite,Peridotite,13,TRUE,7,7,,,,,,,,,,,,,,,,
,,,,,,,,,,,html-keyboard-response,297,2.0.0,3073537,671fca7287fb225453006af0,3,29,null,,,,,,,,,<p style='font-size: 30px;'><strong>Okay</strong></p>,null,neutral_feedback,2,test,12,,,,,,,,,,,,,,,,,,,,,,
,,,,,,,,,,,html-button-response,298,2.0.0,3075520,671fca7287fb225453006af0,3,29,1980,,,,,,,,,"<img src= ""rock_img/I_Basalt_09.jpg"" style=""width:8cm; height:6.2cm;""><p>What type of rock is this?</p>",1,class_response,2,test,13,Basalt,Basalt,9,TRUE,2,2,,,,,,,,,,,,,,,,
,,,,,,,,,,,html-keyboard-response,299,2.0.0,3076022,671fca7287fb225453006af0,3,29,null,,,,,,,,,<p style='font-size: 30px;'><strong>Okay</strong></p>,null,neutral_feedback,2,test,13,,,,,,,,,,,,,,,,,,,,,,
,,,,,,,,,,,html-button-response,300,2.0.0,3078727,671fca7287fb225453006af0,3,29,2703,,,,,,,,,"<img src= ""rock_img/I_Pumice_02.jpg"" style=""width:8cm; height:7.3999999999999995cm;""><p>What type of rock is this?</p>",7,class_response,2,test,14,Pumice,Pumice,2,TRUE,8,8,,,,,,,,,,,,,,,,
,,,,,,,,,,,html-keyboard-response,301,2.0.0,3079237,671fca7287fb225453006af0,3,29,null,,,,,,,,,<p style='font-size: 30px;'><strong>Okay</strong></p>,null,neutral_feedback,2,test,14,,,,,,,,,,,,,,,,,,,,,,
,,,,,,,,,,,html-button-response,302,2.0.0,3081799,671fca7287fb225453006af0,3,29,2559,,,,,,,,,"<img src= ""rock_img/I_Peridotite_06.jpg"" style=""width:8cm; height:7.53cm;""><p>What type of rock is this?</p>",6,class_response,2,test,15,Peridotite,Peridotite,6,TRUE,7,7,,,,,,,,,,,,,,,,
,,,,,,,,,,,html-keyboard-response,303,2.0.0,3082302,671fca7287fb225453006af0,3,29,null,,,,,,,,,<p style='font-size: 30px;'><strong>Okay</strong></p>,null,neutral_feedback,2,test,15,,,,,,,,,,,,,,,,,,,,,,
,,,,,,,,,,,html-button-response,304,2.0.0,3084342,671fca7287fb225453006af0,3,29,2038,,,,,,,,,"<img src= ""rock_img/I_Gabbro_16.jpg"" style=""width:8cm; height:6.44cm;""><p>What type of rock is this?</p>",0,class_response,2,test,16,Andesite,Gabbro,16,FALSE,1,4,,,,,,,,,,,,,,,,
,,,,,,,,,,,html-keyboard-response,305,2.0.0,3084856,671fca7287fb225453006af0,3,29,null,,,,,,,,,<p style='font-size: 30px;'><strong>Okay</strong></p>,null,neutral_feedback,2,test,16,,,,,,,,,,,,,,,,,,,,,,
,,,,,,,,,,,html-button-response,306,2.0.0,3086307,671fca7287fb225453006af0,3,29,1450,,,,,,,,,"<img src= ""rock_img/I_Obsidian_10.jpg"" style=""width:8cm; height:6.260000000000001cm;""><p>What type of rock is this?</p>",4,class_response,2,test,17,Obsidian,Obsidian,10,TRUE,5,5,,,,,,,,,,,,,,,,
,,,,,,,,,,,html-keyboard-response,307,2.0.0,3086820,671fca7287fb225453006af0,3,29,null,,,,,,,,,<p style='font-size: 30px;'><strong>Okay</strong></p>,null,neutral_feedback,2,test,17,,,,,,,,,,,,,,,,,,,,,,
,,,,,,,,,,,html-button-response,308,2.0.0,3091774,671fca7287fb225453006af0,3,29,4952,,,,,,,,,"<img src= ""rock_img/I_Andesite_03.jpg"" style=""width:8cm; height:5.73cm;""><p>What type of rock is this?</p>",5,class_response,2,test,18,Pegmatite,Andesite,3,FALSE,6,1,,,,,,,,,,,,,,,,
,,,,,,,,,,,html-keyboard-response,309,2.0.0,3092281,671fca7287fb225453006af0,3,29,null,,,,,,,,,<p style='font-size: 30px;'><strong>Okay</strong></p>,null,neutral_feedback,2,test,18,,,,,,,,,,,,,,,,,,,,,,
,,,,,,,,,,,html-button-response,310,2.0.0,3093916,671fca7287fb225453006af0,3,29,1634,,,,,,,,,"<img src= ""rock_img/I_Peridotite_02.jpg"" style=""width:8cm; height:5.859999999999999cm;""><p>What type of rock is this?</p>",6,class_response,2,test,19,Peridotite,Peridotite,2,TRUE,7,7,,,,,,,,,,,,,,,,
,,,,,,,,,,,html-keyboard-response,311,2.0.0,3094423,671fca7287fb225453006af0,3,29,null,,,,,,,,,<p style='font-size: 30px;'><strong>Okay</strong></p>,null,neutral_feedback,2,test,19,,,,,,,,,,,,,,,,,,,,,,
,,,,,,,,,,,html-button-response,312,2.0.0,3095895,671fca7287fb225453006af0,3,29,1469,,,,,,,,,"<img src= ""rock_img/I_Obsidian_04.jpg"" style=""width:8cm; height:6.930000000000001cm;""><p>What type of rock is this?</p>",4,class_response,2,test,20,Obsidian,Obsidian,4,TRUE,5,5,,,,,,,,,,,,,,,,
,,,,,,,,,,,html-keyboard-response,313,2.0.0,3096397,671fca7287fb225453006af0,3,29,null,,,,,,,,,<p style='font-size: 30px;'><strong>Okay</strong></p>,null,neutral_feedback,2,test,20,,,,,,,,,,,,,,,,,,,,,,
,,,,,,,,,,,html-button-response,314,2.0.0,3097706,671fca7287fb225453006af0,3,29,1307,,,,,,,,,"<img src= ""rock_img/I_Obsidian_12.jpg"" style=""width:8cm; height:6.53cm;""><p>What type of rock is this?</p>",4,class_response,2,test,21,Obsidian,Obsidian,12,TRUE,5,5,,,,,,,,,,,,,,,,
,,,,,,,,,,,html-keyboard-response,315,2.0.0,3098214,671fca7287fb225453006af0,3,29,null,,,,,,,,,<p style='font-size: 30px;'><strong>Okay</strong></p>,null,neutral_feedback,2,test,21,,,,,,,,,,,,,,,,,,,,,,
,,,,,,,,,,,html-button-response,316,2.0.0,3099289,671fca7287fb225453006af0,3,29,1073,,,,,,,,,"<img src= ""rock_img/I_Obsidian_08.jpg"" style=""width:8cm; height:7.39cm;""><p>What type of rock is this?</p>",4,class_response,2,test,22,Obsidian,Obsidian,8,TRUE,5,5,,,,,,,,,,,,,,,,
,,,,,,,,,,,html-keyboard-response,317,2.0.0,3099803,671fca7287fb225453006af0,3,29,null,,,,,,,,,<p style='font-size: 30px;'><strong>Okay</strong></p>,null,neutral_feedback,2,test,22,,,,,,,,,,,,,,,,,,,,,,
,,,,,,,,,,,html-button-response,318,2.0.0,3101745,671fca7287fb225453006af0,3,29,1939,,,,,,,,,"<img src= ""rock_img/I_Basalt_12.jpg"" style=""width:8cm; height:6.010000000000001cm;""><p>What type of rock is this?</p>",7,class_response,2,test,23,Basalt,Basalt,12,TRUE,2,2,,,,,,,,,,,,,,,,
,,,,,,,,,,,html-keyboard-response,319,2.0.0,3102257,671fca7287fb225453006af0,3,29,null,,,,,,,,,<p style='font-size: 30px;'><strong>Okay</strong></p>,null,neutral_feedback,2,test,23,,,,,,,,,,,,,,,,,,,,,,
,,,,,,,,,,,html-button-response,320,2.0.0,3103269,671fca7287fb225453006af0,3,29,1010,,,,,,,,,"<img src= ""rock_img/I_Pumice_16.jpg"" style=""width:8cm; height:6.79cm;""><p>What type of rock is this?</p>",7,class_response,2,test,24,Pumice,Pumice,16,TRUE,8,8,,,,,,,,,,,,,,,,
,,,,,,,,,,,html-keyboard-response,321,2.0.0,3103782,671fca7287fb225453006af0,3,29,null,,,,,,,,,<p style='font-size: 30px;'><strong>Okay</strong></p>,null,neutral_feedback,2,test,24,,,,,,,,,,,,,,,,,,,,,,
,,,,,,,,,,,html-button-response,322,2.0.0,3105867,671fca7287fb225453006af0,3,29,2083,,,,,,,,,"<img src= ""rock_img/I_Gabbro_05.jpg"" style=""width:8cm; height:6cm;""><p>What type of rock is this?</p>",6,class_response,2,test,25,Gabbro,Gabbro,5,TRUE,4,4,,,,,,,,,,,,,,,,
,,,,,,,,,,,html-keyboard-response,323,2.0.0,3106383,671fca7287fb225453006af0,3,29,null,,,,,,,,,<p style='font-size: 30px;'><strong>Okay</strong></p>,null,neutral_feedback,2,test,25,,,,,,,,,,,,,,,,,,,,,,
,,,,,,,,,,,html-button-response,324,2.0.0,3108307,671fca7287fb225453006af0,3,29,1922,,,,,,,,,"<img src= ""rock_img/I_Basalt_08.jpg"" style=""width:8cm; height:10.44cm;""><p>What type of rock is this?</p>",1,class_response,2,test,26,Basalt,Basalt,8,TRUE,2,2,,,,,,,,,,,,,,,,
,,,,,,,,,,,html-keyboard-response,325,2.0.0,3108813,671fca7287fb225453006af0,3,29,null,,,,,,,,,<p style='font-size: 30px;'><strong>Okay</strong></p>,null,neutral_feedback,2,test,26,,,,,,,,,,,,,,,,,,,,,,
,,,,,,,,,,,html-button-response,326,2.0.0,3110677,671fca7287fb225453006af0,3,29,1861,,,,,,,,,"<img src= ""rock_img/I_Pumice_13.jpg"" style=""width:8cm; height:8.200000000000001cm;""><p>What type of rock is this?</p>",7,class_response,2,test,27,Pumice,Pumice,13,TRUE,8,8,,,,,,,,,,,,,,,,
,,,,,,,,,,,html-keyboard-response,327,2.0.0,3111193,671fca7287fb225453006af0,3,29,null,,,,,,,,,<p style='font-size: 30px;'><strong>Okay</strong></p>,null,neutral_feedback,2,test,27,,,,,,,,,,,,,,,,,,,,,,
,,,,,,,,,,,html-button-response,328,2.0.0,3112916,671fca7287fb225453006af0,3,29,1721,,,,,,,,,"<img src= ""rock_img/I_Peridotite_10.jpg"" style=""width:8cm; height:5.390000000000001cm;""><p>What type of rock is this?</p>",6,class_response,2,test,28,Peridotite,Peridotite,10,TRUE,7,7,,,,,,,,,,,,,,,,
,,,,,,,,,,,html-keyboard-response,329,2.0.0,3113432,671fca7287fb225453006af0,3,29,null,,,,,,,,,<p style='font-size: 30px;'><strong>Okay</strong></p>,null,neutral_feedback,2,test,28,,,,,,,,,,,,,,,,,,,,,,
,,,,,,,,,,,html-button-response,330,2.0.0,3117006,671fca7287fb225453006af0,3,29,3572,,,,,,,,,"<img src= ""rock_img/I_Diorite_07.jpg"" style=""width:8cm; height:5.239999999999999cm;""><p>What type of rock is this?</p>",2,class_response,2,test,29,Diorite,Diorite,7,TRUE,3,3,,,,,,,,,,,,,,,,
,,,,,,,,,,,html-keyboard-response,331,2.0.0,3117519,671fca7287fb225453006af0,3,29,null,,,,,,,,,<p style='font-size: 30px;'><strong>Okay</strong></p>,null,neutral_feedback,2,test,29,,,,,,,,,,,,,,,,,,,,,,
,,,,,,,,,,,html-button-response,332,2.0.0,3119110,671fca7287fb225453006af0,3,29,1589,,,,,,,,,"<img src= ""rock_img/I_Pumice_14.jpg"" style=""width:8cm; height:6.39cm;""><p>What type of rock is this?</p>",7,class_response,2,test,30,Pumice,Pumice,14,TRUE,8,8,,,,,,,,,,,,,,,,
,,,,,,,,,,,html-keyboard-response,333,2.0.0,3119621,671fca7287fb225453006af0,3,29,null,,,,,,,,,<p style='font-size: 30px;'><strong>Okay</strong></p>,null,neutral_feedback,2,test,30,,,,,,,,,,,,,,,,,,,,,,
,,,,,,,,,,,html-button-response,334,2.0.0,3123920,671fca7287fb225453006af0,3,29,4297,,,,,,,,,"<img src= ""rock_img/I_Diorite_11.jpg"" style=""width:8cm; height:7.11cm;""><p>What type of rock is this?</p>",1,class_response,2,test,31,Basalt,Diorite,11,FALSE,2,3,,,,,,,,,,,,,,,,
,,,,,,,,,,,html-keyboard-response,335,2.0.0,3124431,671fca7287fb225453006af0,3,29,null,,,,,,,,,<p style='font-size: 30px;'><strong>Okay</strong></p>,null,neutral_feedback,2,test,31,,,,,,,,,,,,,,,,,,,,,,
,,,,,,,,,,,html-button-response,336,2.0.0,3126235,671fca7287fb225453006af0,3,29,1801,,,,,,,,,"<img src= ""rock_img/I_Diorite_13.jpg"" style=""width:8cm; height:6.29cm;""><p>What type of rock is this?</p>",2,class_response,2,test,32,Diorite,Diorite,13,TRUE,3,3,,,,,,,,,,,,,,,,
,,,,,,,,,,,html-keyboard-response,337,2.0.0,3126743,671fca7287fb225453006af0,3,29,null,,,,,,,,,<p style='font-size: 30px;'><strong>Okay</strong></p>,null,neutral_feedback,2,test,32,,,,,,,,,,,,,,,,,,,,,,
,,,,,,,,,,,html-button-response,338,2.0.0,3128677,671fca7287fb225453006af0,3,29,1931,,,,,,,,,"<img src= ""rock_img/I_Basalt_16.jpg"" style=""width:8cm; height:7.659999999999999cm;""><p>What type of rock is this?</p>",0,class_response,2,test,33,Andesite,Basalt,16,FALSE,1,2,,,,,,,,,,,,,,,,
,,,,,,,,,,,html-keyboard-response,339,2.0.0,3129187,671fca7287fb225453006af0,3,29,null,,,,,,,,,<p style='font-size: 30px;'><strong>Okay</strong></p>,null,neutral_feedback,2,test,33,,,,,,,,,,,,,,,,,,,,,,
,,,,,,,,,,,html-button-response,340,2.0.0,3135526,671fca7287fb225453006af0,3,29,6336,,,,,,,,,"<img src= ""rock_img/I_Andesite_11.jpg"" style=""width:8cm; height:4.92cm;""><p>What type of rock is this?</p>",2,class_response,2,test,34,Diorite,Andesite,11,FALSE,3,1,,,,,,,,,,,,,,,,
,,,,,,,,,,,html-keyboard-response,341,2.0.0,3136037,671fca7287fb225453006af0,3,29,null,,,,,,,,,<p style='font-size: 30px;'><strong>Okay</strong></p>,null,neutral_feedback,2,test,34,,,,,,,,,,,,,,,,,,,,,,
,,,,,,,,,,,html-button-response,342,2.0.0,3140404,671fca7287fb225453006af0,3,29,4365,,,,,,,,,"<img src= ""rock_img/I_Pegmatite_13.jpg"" style=""width:8cm; height:4.95cm;""><p>What type of rock is this?</p>",2,class_response,2,test,35,Diorite,Pegmatite,13,FALSE,3,6,,,,,,,,,,,,,,,,
,,,,,,,,,,,html-keyboard-response,343,2.0.0,3140906,671fca7287fb225453006af0,3,29,null,,,,,,,,,<p style='font-size: 30px;'><strong>Okay</strong></p>,null,neutral_feedback,2,test,35,,,,,,,,,,,,,,,,,,,,,,
,,,,,,,,,,,html-button-response,344,2.0.0,3142945,671fca7287fb225453006af0,3,29,2036,,,,,,,,,"<img src= ""rock_img/I_Basalt_06.jpg"" style=""width:8cm; height:7.06cm;""><p>What type of rock is this?</p>",1,class_response,2,test,36,Basalt,Basalt,6,TRUE,2,2,,,,,,,,,,,,,,,,
,,,,,,,,,,,html-keyboard-response,345,2.0.0,3143460,671fca7287fb225453006af0,3,29,null,,,,,,,,,<p style='font-size: 30px;'><strong>Okay</strong></p>,null,neutral_feedback,2,test,36,,,,,,,,,,,,,,,,,,,,,,
,,,,,,,,,,,html-button-response,346,2.0.0,3145052,671fca7287fb225453006af0,3,29,1589,,,,,,,,,"<img src= ""rock_img/I_Peridotite_15.jpg"" style=""width:8cm; height:6cm;""><p>What type of rock is this?</p>",6,class_response,2,test,37,Peridotite,Peridotite,15,TRUE,7,7,,,,,,,,,,,,,,,,
,,,,,,,,,,,html-keyboard-response,347,2.0.0,3145559,671fca7287fb225453006af0,3,29,null,,,,,,,,,<p style='font-size: 30px;'><strong>Okay</strong></p>,null,neutral_feedback,2,test,37,,,,,,,,,,,,,,,,,,,,,,
,,,,,,,,,,,html-button-response,348,2.0.0,3147292,671fca7287fb225453006af0,3,29,1731,,,,,,,,,"<img src= ""rock_img/I_Diorite_02.jpg"" style=""width:8cm; height:6.27cm;""><p>What type of rock is this?</p>",6,class_response,2,test,38,Peridotite,Diorite,2,FALSE,7,3,,,,,,,,,,,,,,,,
,,,,,,,,,,,html-keyboard-response,349,2.0.0,3147798,671fca7287fb225453006af0,3,29,null,,,,,,,,,<p style='font-size: 30px;'><strong>Okay</strong></p>,null,neutral_feedback,2,test,38,,,,,,,,,,,,,,,,,,,,,,
,,,,,,,,,,,html-button-response,350,2.0.0,3149847,671fca7287fb225453006af0,3,29,2047,,,,,,,,,"<img src= ""rock_img/I_Diorite_15.jpg"" style=""width:8cm; height:5.54cm;""><p>What type of rock is this?</p>",0,class_response,2,test,39,Diorite,Diorite,15,TRUE,3,3,,,,,,,,,,,,,,,,
,,,,,,,,,,,html-keyboard-response,351,2.0.0,3150352,671fca7287fb225453006af0,3,29,null,,,,,,,,,<p style='font-size: 30px;'><strong>Okay</strong></p>,null,neutral_feedback,2,test,39,,,,,,,,,,,,,,,,,,,,,,
,,,,,,,,,,,html-button-response,352,2.0.0,3152547,671fca7287fb225453006af0,3,29,2193,,,,,,,,,"<img src= ""rock_img/I_Andesite_09.jpg"" style=""width:8cm; height:6cm;""><p>What type of rock is this?</p>",0,class_response,2,test,40,Andesite,Andesite,9,TRUE,1,1,,,,,,,,,,,,,,,,
,,,,,,,,,,,html-keyboard-response,353,2.0.0,3153062,671fca7287fb225453006af0,3,29,null,,,,,,,,,<p style='font-size: 30px;'><strong>Okay</strong></p>,null,neutral_feedback,2,test,40,,,,,,,,,,,,,,,,,,,,,,
,,,,,,,,,,,html-button-response,354,2.0.0,3155432,671fca7287fb225453006af0,3,29,2366,,,,,,,,,"<img src= ""rock_img/I_Pegmatite_16.jpg"" style=""width:8cm; height:5.8cm;""><p>What type of rock is this?</p>",5,class_response,2,test,41,Pegmatite,Pegmatite,16,TRUE,6,6,,,,,,,,,,,,,,,,
,,,,,,,,,,,html-keyboard-response,355,2.0.0,3155941,671fca7287fb225453006af0,3,29,null,,,,,,,,,<p style='font-size: 30px;'><strong>Okay</strong></p>,null,neutral_feedback,2,test,41,,,,,,,,,,,,,,,,,,,,,,
,,,,,,,,,,,html-button-response,356,2.0.0,3158394,671fca7287fb225453006af0,3,29,2452,,,,,,,,,"<img src= ""rock_img/I_Gabbro_09.jpg"" style=""width:8cm; height:7.279999999999999cm;""><p>What type of rock is this?</p>",3,class_response,2,test,42,Gabbro,Gabbro,9,TRUE,4,4,,,,,,,,,,,,,,,,
,,,,,,,,,,,html-keyboard-response,357,2.0.0,3158904,671fca7287fb225453006af0,3,29,null,,,,,,,,,<p style='font-size: 30px;'><strong>Okay</strong></p>,null,neutral_feedback,2,test,42,,,,,,,,,,,,,,,,,,,,,,
,,,,,,,,,,,html-button-response,358,2.0.0,3160860,671fca7287fb225453006af0,3,29,1954,,,,,,,,,"<img src= ""rock_img/I_Pegmatite_07.jpg"" style=""width:8cm; height:6.7cm;""><p>What type of rock is this?</p>",6,class_response,2,test,43,Pegmatite,Pegmatite,7,TRUE,6,6,,,,,,,,,,,,,,,,
,,,,,,,,,,,html-keyboard-response,359,2.0.0,3161361,671fca7287fb225453006af0,3,29,null,,,,,,,,,<p style='font-size: 30px;'><strong>Okay</strong></p>,null,neutral_feedback,2,test,43,,,,,,,,,,,,,,,,,,,,,,
,,,,,,,,,,,html-button-response,360,2.0.0,3163003,671fca7287fb225453006af0,3,29,1639,,,,,,,,,"<img src= ""rock_img/I_Pumice_06.jpg"" style=""width:8cm; height:6.9399999999999995cm;""><p>What type of rock is this?</p>",7,class_response,2,test,44,Pumice,Pumice,6,TRUE,8,8,,,,,,,,,,,,,,,,
,,,,,,,,,,,html-keyboard-response,361,2.0.0,3163517,671fca7287fb225453006af0,3,29,null,,,,,,,,,<p style='font-size: 30px;'><strong>Okay</strong></p>,null,neutral_feedback,2,test,44,,,,,,,,,,,,,,,,,,,,,,
,,,,,,,,,,,html-button-response,362,2.0.0,3165952,671fca7287fb225453006af0,3,29,2432,,,,,,,,,"<img src= ""rock_img/I_Gabbro_11.jpg"" style=""width:8cm; height:6.2cm;""><p>What type of rock is this?</p>",1,class_response,2,test,45,Basalt,Gabbro,11,FALSE,2,4,,,,,,,,,,,,,,,,
,,,,,,,,,,,html-keyboard-response,363,2.0.0,3166461,671fca7287fb225453006af0,3,29,null,,,,,,,,,<p style='font-size: 30px;'><strong>Okay</strong></p>,null,neutral_feedback,2,test,45,,,,,,,,,,,,,,,,,,,,,,
,,,,,,,,,,,html-button-response,364,2.0.0,3190726,671fca7287fb225453006af0,3,29,24263,,,,,,,,,"<img src= ""rock_img/I_Gabbro_14.jpg"" style=""width:8cm; height:8.48cm;""><p>What type of rock is this?</p>",3,class_response,2,test,46,Gabbro,Gabbro,14,TRUE,4,4,,,,,,,,,,,,,,,,
,,,,,,,,,,,html-keyboard-response,365,2.0.0,3191230,671fca7287fb225453006af0,3,29,null,,,,,,,,,<p style='font-size: 30px;'><strong>Okay</strong></p>,null,neutral_feedback,2,test,46,,,,,,,,,,,,,,,,,,,,,,
,,,,,,,,,,,html-button-response,366,2.0.0,3194880,671fca7287fb225453006af0,3,29,3647,,,,,,,,,"<img src= ""rock_img/I_Diorite_12.jpg"" style=""width:8cm; height:4.88cm;""><p>What type of rock is this?</p>",2,class_response,2,test,47,Diorite,Diorite,12,TRUE,3,3,,,,,,,,,,,,,,,,
,,,,,,,,,,,html-keyboard-response,367,2.0.0,3195383,671fca7287fb225453006af0,3,29,null,,,,,,,,,<p style='font-size: 30px;'><strong>Okay</strong></p>,null,neutral_feedback,2,test,47,,,,,,,,,,,,,,,,,,,,,,
,,,,,,,,,,,html-button-response,368,2.0.0,3197355,671fca7287fb225453006af0,3,29,1970,,,,,,,,,"<img src= ""rock_img/I_Pegmatite_03.jpg"" style=""width:8cm; height:5.239999999999999cm;""><p>What type of rock is this?</p>",6,class_response,2,test,48,Peridotite,Pegmatite,3,FALSE,7,6,,,,,,,,,,,,,,,,
,,,,,,,,,,,html-keyboard-response,369,2.0.0,3197859,671fca7287fb225453006af0,3,29,null,,,,,,,,,<p style='font-size: 30px;'><strong>Okay</strong></p>,null,neutral_feedback,2,test,48,,,,,,,,,,,,,,,,,,,,,,
,,,,,,,,,,,html-button-response,370,2.0.0,3206744,671fca7287fb225453006af0,3,29,,,,,,,,,,,,cycle_feedback,,,,,,,,,,,,,,,,,,,,,,,,5886.6,2982.5
,,,,,,,,,,,html-button-response,372,2.0.0,3209139,671fca7287fb225453006af0,3,29,2393,,,,,,,,,,0,start_train,,,,,,,,,,,,,,,,,,,,,,,,,
,,,,,,,,,,,html-button-response,374,2.0.0,3211195,671fca7287fb225453006af0,3,29,2054,,,,,,,,,"<img src= ""rock_img/I_Pumice_08.jpg"" style=""width:8cm; height:6.67cm;""><p>What type of rock is this?</p>",7,class_response,3,train,1,Pumice,Pumice,8,TRUE,8,8,,,,,,,,,,,,,,,,
,,,,,,,,,,,html-button-response,375,2.0.0,3212877,671fca7287fb225453006af0,3,29,1681,,,,,,,,,"<img src= rock_img/I_Pumice_08.jpg style=""width:8cm; height:6.67cm;""><p style='font-size: 30px; color: green;'><strong>Correct!</strong></p><p style='font-size: 30px;'><strong>This rock is pumice</strong></p>",0,corr_feedback,3,train,1,,,,,,,,,,,,,,,,,,,,,,
,,,,,,,,,,,html-button-response,376,2.0.0,3218007,671fca7287fb225453006af0,3,29,5128,,,,,,,,,"<img src= ""rock_img/I_Pegmatite_12.jpg"" style=""width:8cm; height:5.7cm;""><p>What type of rock is this?</p>",2,class_response,3,train,2,Diorite,Pegmatite,12,FALSE,3,6,,,,,,,,,,,,,,,,
,,,,,,,,,,,html-button-response,377,2.0.0,3219271,671fca7287fb225453006af0,3,29,1263,,,,,,,,,"<img src= rock_img/I_Pegmatite_12.jpg style=""width:8cm; height:5.7cm;""><p style='font-size: 30px; color: red;'><strong>Incorrect!</strong></p><p style='font-size: 30px;'><strong>This rock is pegmatite</strong></p>",0,corr_feedback,3,train,2,,,,,,,,,,,,,,,,,,,,,,
,,,,,,,,,,,html-button-response,378,2.0.0,3223770,671fca7287fb225453006af0,3,29,4498,,,,,,,,,"<img src= ""rock_img/I_Gabbro_13.jpg"" style=""width:8cm; height:5.08cm;""><p>What type of rock is this?</p>",3,class_response,3,train,3,Gabbro,Gabbro,13,TRUE,4,4,,,,,,,,,,,,,,,,
,,,,,,,,,,,html-button-response,379,2.0.0,3225279,671fca7287fb225453006af0,3,29,1508,,,,,,,,,"<img src= rock_img/I_Gabbro_13.jpg style=""width:8cm; height:5.08cm;""><p style='font-size: 30px; color: green;'><strong>Correct!</strong></p><p style='font-size: 30px;'><strong>This rock is gabbro</strong></p>",0,corr_feedback,3,train,3,,,,,,,,,,,,,,,,,,,,,,
,,,,,,,,,,,html-button-response,380,2.0.0,3227983,671fca7287fb225453006af0,3,29,2702,,,,,,,,,"<img src= ""rock_img/I_Pegmatite_15.jpg"" style=""width:8cm; height:6cm;""><p>What type of rock is this?</p>",6,class_response,3,train,4,Peridotite,Pegmatite,15,FALSE,7,6,,,,,,,,,,,,,,,,
,,,,,,,,,,,html-button-response,381,2.0.0,3232281,671fca7287fb225453006af0,3,29,4297,,,,,,,,,"<img src= rock_img/I_Pegmatite_15.jpg style=""width:8cm; height:6cm;""><p style='font-size: 30px; color: red;'><strong>Incorrect!</strong></p><p style='font-size: 30px;'><strong>This rock is pegmatite</strong></p>",0,corr_feedback,3,train,4,,,,,,,,,,,,,,,,,,,,,,
,,,,,,,,,,,html-button-response,382,2.0.0,3234038,671fca7287fb225453006af0,3,29,1756,,,,,,,,,"<img src= ""rock_img/I_Basalt_04.jpg"" style=""width:8cm; height:7.53cm;""><p>What type of rock is this?</p>",1,class_response,3,train,5,Basalt,Basalt,4,TRUE,2,2,,,,,,,,,,,,,,,,
,,,,,,,,,,,html-button-response,383,2.0.0,3235767,671fca7287fb225453006af0,3,29,1728,,,,,,,,,"<img src= rock_img/I_Basalt_04.jpg style=""width:8cm; height:7.53cm;""><p style='font-size: 30px; color: green;'><strong>Correct!</strong></p><p style='font-size: 30px;'><strong>This rock is basalt</strong></p>",0,corr_feedback,3,train,5,,,,,,,,,,,,,,,,,,,,,,
,,,,,,,,,,,html-button-response,384,2.0.0,3242788,671fca7287fb225453006af0,3,29,7019,,,,,,,,,"<img src= ""rock_img/I_Andesite_01.jpg"" style=""width:8cm; height:5.87cm;""><p>What type of rock is this?</p>",1,class_response,3,train,6,Basalt,Andesite,1,FALSE,2,1,,,,,,,,,,,,,,,,
,,,,,,,,,,,html-button-response,385,2.0.0,3245451,671fca7287fb225453006af0,3,29,2661,,,,,,,,,"<img src= rock_img/I_Andesite_01.jpg style=""width:8cm; height:5.87cm;""><p style='font-size: 30px; color: red;'><strong>Incorrect!</strong></p><p style='font-size: 30px;'><strong>This rock is andesite</strong></p>",0,corr_feedback,3,train,6,,,,,,,,,,,,,,,,,,,,,,
,,,,,,,,,,,html-button-response,386,2.0.0,3253191,671fca7287fb225453006af0,3,29,7739,,,,,,,,,"<img src= ""rock_img/I_Diorite_06.jpg"" style=""width:8cm; height:6.03cm;""><p>What type of rock is this?</p>",3,class_response,3,train,7,Gabbro,Diorite,6,FALSE,4,3,,,,,,,,,,,,,,,,
,,,,,,,,,,,html-button-response,387,2.0.0,3255052,671fca7287fb225453006af0,3,29,1860,,,,,,,,,"<img src= rock_img/I_Diorite_06.jpg style=""width:8cm; height:6.03cm;""><p style='font-size: 30px; color: red;'><strong>Incorrect!</strong></p><p style='font-size: 30px;'><strong>This rock is diorite</strong></p>",0,corr_feedback,3,train,7,,,,,,,,,,,,,,,,,,,,,,
,,,,,,,,,,,html-button-response,388,2.0.0,3257493,671fca7287fb225453006af0,3,29,2439,,,,,,,,,"<img src= ""rock_img/I_Andesite_10.jpg"" style=""width:8cm; height:4.16cm;""><p>What type of rock is this?</p>",7,class_response,3,train,8,Pumice,Andesite,10,FALSE,8,1,,,,,,,,,,,,,,,,
,,,,,,,,,,,html-button-response,389,2.0.0,3259685,671fca7287fb225453006af0,3,29,2191,,,,,,,,,"<img src= rock_img/I_Andesite_10.jpg style=""width:8cm; height:4.16cm;""><p style='font-size: 30px; color: red;'><strong>Incorrect!</strong></p><p style='font-size: 30px;'><strong>This rock is andesite</strong></p>",0,corr_feedback,3,train,8,,,,,,,,,,,,,,,,,,,,,,
,,,,,,,,,,,html-button-response,390,2.0.0,3261468,671fca7287fb225453006af0,3,29,1781,,,,,,,,,"<img src= ""rock_img/I_Pumice_03.jpg"" style=""width:8cm; height:6.64cm;""><p>What type of rock is this?</p>",7,class_response,3,train,9,Pumice,Pumice,3,TRUE,8,8,,,,,,,,,,,,,,,,
,,,,,,,,,,,html-button-response,391,2.0.0,3262770,671fca7287fb225453006af0,3,29,1301,,,,,,,,,"<img src= rock_img/I_Pumice_03.jpg style=""width:8cm; height:6.64cm;""><p style='font-size: 30px; color: green;'><strong>Correct!</strong></p><p style='font-size: 30px;'><strong>This rock is pumice</strong></p>",0,corr_feedback,3,train,9,,,,,,,,,,,,,,,,,,,,,,
,,,,,,,,,,,html-button-response,392,2.0.0,3264727,671fca7287fb225453006af0,3,29,1956,,,,,,,,,"<img src= ""rock_img/I_Peridotite_05.jpg"" style=""width:8cm; height:7.1499999999999995cm;""><p>What type of rock is this?</p>",6,class_response,3,train,10,Peridotite,Peridotite,5,TRUE,7,7,,,,,,,,,,,,,,,,
,,,,,,,,,,,html-button-response,393,2.0.0,3266078,671fca7287fb225453006af0,3,29,1349,,,,,,,,,"<img src= rock_img/I_Peridotite_05.jpg style=""width:8cm; height:7.1499999999999995cm;""><p style='font-size: 30px; color: green;'><strong>Correct!</strong></p><p style='font-size: 30px;'><strong>This rock is peridotite</strong></p>",0,corr_feedback,3,train,10,,,,,,,,,,,,,,,,,,,,,,
,,,,,,,,,,,html-button-response,394,2.0.0,3267972,671fca7287fb225453006af0,3,29,1893,,,,,,,,,"<img src= ""rock_img/I_Obsidian_07.jpg"" style=""width:8cm; height:4.76cm;""><p>What type of rock is this?</p>",4,class_response,3,train,11,Obsidian,Obsidian,7,TRUE,5,5,,,,,,,,,,,,,,,,
,,,,,,,,,,,html-button-response,395,2.0.0,3270127,671fca7287fb225453006af0,3,29,2153,,,,,,,,,"<img src= rock_img/I_Obsidian_07.jpg style=""width:8cm; height:4.76cm;""><p style='font-size: 30px; color: green;'><strong>Correct!</strong></p><p style='font-size: 30px;'><strong>This rock is obsidian</strong></p>",0,corr_feedback,3,train,11,,,,,,,,,,,,,,,,,,,,,,
