"rt","url","trial_type","trial_index","plugin_version","time_elapsed","subject","condition","success","timeout","failed_images","failed_audio","failed_video","view_history","stimulus","response","trialType","cycle","phase","trial","resp","cat","token","corr","resp_num","cat_num","value","ref_cat_num","paired_cat_num","time_obs","ref_cat","paired_cat","ref_prob_dist","paired_prob_dist","text_Pegmatite","text_Diorite","time_resp","text_Gabbro","time_fb1","time_fb2","text_Obsidian","text_Basalt","text_Peridotite"
"9445","consent_form.html","external-html","0","2.0.0","9587","test","3","","","","","","","","","","","","","","","","","","","","","","","","","","","","","","","","","","",""
"","","preload","1","2.0.0","12986","test","3","true","false","[]","[]","[]","","","","","","","","","","","","","","","","","","","","","","","","","","","","","",""
"1885","","fullscreen","2","2.0.0","15875","test","3","true","","","","","","","","","","","","","","","","","","","","","","","","","","","","","","","","","",""
"18813","","instructions","3","2.0.0","34691","test","3","","","","","","[{""page_index"":0,""viewing_time"":4098},{""page_index"":1,""viewing_time"":12732},{""page_index"":2,""viewing_time"":1984}]","","","","","","","","","","","","","","","","","","","","","","","","","","","","",""
"1364","","html-button-response","4","2.0.0","36058","test","3","","","","","","","","0","start_test","","","","","","","","","","","","","","","","","","","","","","","","","",""
"1616","","html-button-response","5","2.0.0","37677","test","3","","","","","","","<img src= ""rock_img/I_Pegmatite_09.jpg"" style=""width:8cm; height:4.03cm;""><p>What type of rock is this?</p>","3","class_response","0","test","2","Gabbro","Pegmatite","09","false","4","6","","","","","","","","","","","","","","","","",""
"null","","html-keyboard-response","6","2.0.0","38180","test","3","","","","","","","<p style='font-size: 30px;'><strong>Okay</strong></p>","null","neutral_feedback","0","test","2","","","","","","","","","","","","","","","","","","","","","","",""
"2010","","html-button-response","7","2.0.0","40193","test","3","","","","","","","<img src= ""rock_img/I_Andesite_14.jpg"" style=""width:8cm; height:5.449999999999999cm;""><p>What type of rock is this?</p>","0","class_response","0","test","3","Andesite","Andesite","14","true","1","1","","","","","","","","","","","","","","","","",""
"null","","html-keyboard-response","8","2.0.0","40695","test","3","","","","","","","<p style='font-size: 30px;'><strong>Okay</strong></p>","null","neutral_feedback","0","test","3","","","","","","","","","","","","","","","","","","","","","","",""
"1179","","html-button-response","9","2.0.0","41877","test","3","","","","","","","<img src= ""rock_img/I_Basalt_14.jpg"" style=""width:8cm; height:5.82cm;""><p>What type of rock is this?</p>","1","class_response","0","test","4","Basalt","Basalt","14","true","2","2","","","","","","","","","","","","","","","","",""
"null","","html-keyboard-response","10","2.0.0","42379","test","3","","","","","","","<p style='font-size: 30px;'><strong>Okay</strong></p>","null","neutral_feedback","0","test","4","","","","","","","","","","","","","","","","","","","","","","",""
"1349","","html-button-response","11","2.0.0","43731","test","3","","","","","","","<img src= ""rock_img/I_Basalt_10.jpg"" style=""width:8cm; height:5.85cm;""><p>What type of rock is this?</p>","5","class_response","0","test","5","Pegmatite","Basalt","10","false","6","2","","","","","","","","","","","","","","","","",""
"null","","html-keyboard-response","12","2.0.0","44233","test","3","","","","","","","<p style='font-size: 30px;'><strong>Okay</strong></p>","null","neutral_feedback","0","test","5","","","","","","","","","","","","","","","","","","","","","","",""
"2984","","html-button-response","13","2.0.0","47220","test","3","","","","","","","<img src= ""rock_img/I_Pumice_04.jpg"" style=""width:8cm; height:6.819999999999999cm;""><p>What type of rock is this?</p>","1","class_response","0","test","6","Basalt","Pumice","04","false","2","8","","","","","","","","","","","","","","","","",""
"null","","html-keyboard-response","14","2.0.0","47723","test","3","","","","","","","<p style='font-size: 30px;'><strong>Okay</strong></p>","null","neutral_feedback","0","test","6","","","","","","","","","","","","","","","","","","","","","","",""
"2448","","html-button-response","15","2.0.0","50174","test","3","","","","","","","<img src= ""rock_img/I_Pumice_09.jpg"" style=""width:8cm; height:6.44cm;""><p>What type of rock is this?</p>","7","class_response","0","test","7","Pumice","Pumice","09","true","8","8","","","","","","","","","","","","","","","","",""
"null","","html-keyboard-response","16","2.0.0","50676","test","3","","","","","","","<p style='font-size: 30px;'><strong>Okay</strong></p>","null","neutral_feedback","0","test","7","","","","","","","","","","","","","","","","","","","","","","",""
"1238","","html-button-response","17","2.0.0","51917","test","3","","","","","","","<img src= ""rock_img/I_Andesite_03.jpg"" style=""width:8cm; height:5.73cm;""><p>What type of rock is this?</p>","3","class_response","0","test","8","Gabbro","Andesite","03","false","4","1","","","","","","","","","","","","","","","","",""
"null","","html-keyboard-response","18","2.0.0","52418","test","3","","","","","","","<p style='font-size: 30px;'><strong>Okay</strong></p>","null","neutral_feedback","0","test","8","","","","","","","","","","","","","","","","","","","","","","",""
"2298","","html-button-response","19","2.0.0","54719","test","3","","","","","","","<img src= ""rock_img/I_Basalt_04.jpg"" style=""width:8cm; height:7.53cm;""><p>What type of rock is this?</p>","4","class_response","0","test","9","Obsidian","Basalt","04","false","5","2","","","","","","","","","","","","","","","","",""
"null","","html-keyboard-response","20","2.0.0","55221","test","3","","","","","","","<p style='font-size: 30px;'><strong>Okay</strong></p>","null","neutral_feedback","0","test","9","","","","","","","","","","","","","","","","","","","","","","",""
"927","","html-button-response","21","2.0.0","56150","test","3","","","","","","","<img src= ""rock_img/I_Gabbro_10.jpg"" style=""width:8cm; height:5.680000000000001cm;""><p>What type of rock is this?</p>","0","class_response","0","test","10","Andesite","Gabbro","10","false","1","4","","","","","","","","","","","","","","","","",""
"null","","html-keyboard-response","22","2.0.0","56652","test","3","","","","","","","<p style='font-size: 30px;'><strong>Okay</strong></p>","null","neutral_feedback","0","test","10","","","","","","","","","","","","","","","","","","","","","","",""
"1841","","html-button-response","23","2.0.0","58496","test","3","","","","","","","<img src= ""rock_img/I_Diorite_11.jpg"" style=""width:8cm; height:7.11cm;""><p>What type of rock is this?</p>","6","class_response","0","test","11","Peridotite","Diorite","11","false","7","3","","","","","","","","","","","","","","","","",""
"null","","html-keyboard-response","24","2.0.0","58998","test","3","","","","","","","<p style='font-size: 30px;'><strong>Okay</strong></p>","null","neutral_feedback","0","test","11","","","","","","","","","","","","","","","","","","","","","","",""
"1960","","html-button-response","25","2.0.0","60961","test","3","","","","","","","<img src= ""rock_img/I_Pegmatite_16.jpg"" style=""width:8cm; height:5.8cm;""><p>What type of rock is this?</p>","3","class_response","0","test","12","Gabbro","Pegmatite","16","false","4","6","","","","","","","","","","","","","","","","",""
"null","","html-keyboard-response","26","2.0.0","61463","test","3","","","","","","","<p style='font-size: 30px;'><strong>Okay</strong></p>","null","neutral_feedback","0","test","12","","","","","","","","","","","","","","","","","","","","","","",""
"1350","","html-button-response","27","2.0.0","62816","test","3","","","","","","","<img src= ""rock_img/I_Peridotite_08.jpg"" style=""width:8cm; height:6.7cm;""><p>What type of rock is this?</p>","4","class_response","0","test","13","Obsidian","Peridotite","08","false","5","7","","","","","","","","","","","","","","","","",""
"null","","html-keyboard-response","28","2.0.0","63317","test","3","","","","","","","<p style='font-size: 30px;'><strong>Okay</strong></p>","null","neutral_feedback","0","test","13","","","","","","","","","","","","","","","","","","","","","","",""
"1607","","html-button-response","29","2.0.0","64927","test","3","","","","","","","<img src= ""rock_img/I_Peridotite_06.jpg"" style=""width:8cm; height:7.53cm;""><p>What type of rock is this?</p>","0","class_response","0","test","14","Andesite","Peridotite","06","false","1","7","","","","","","","","","","","","","","","","",""
"null","","html-keyboard-response","30","2.0.0","65430","test","3","","","","","","","<p style='font-size: 30px;'><strong>Okay</strong></p>","null","neutral_feedback","0","test","14","","","","","","","","","","","","","","","","","","","","","","",""
"1815","","html-button-response","31","2.0.0","67248","test","3","","","","","","","<img src= ""rock_img/I_Diorite_13.jpg"" style=""width:8cm; height:6.29cm;""><p>What type of rock is this?</p>","5","class_response","0","test","15","Pegmatite","Diorite","13","false","6","3","","","","","","","","","","","","","","","","",""
"null","","html-keyboard-response","32","2.0.0","67750","test","3","","","","","","","<p style='font-size: 30px;'><strong>Okay</strong></p>","null","neutral_feedback","0","test","15","","","","","","","","","","","","","","","","","","","","","","",""
"3629","","html-button-response","33","2.0.0","71381","test","3","","","","","","","<img src= ""rock_img/I_Obsidian_14.jpg"" style=""width:8cm; height:7.64cm;""><p>What type of rock is this?</p>","2","class_response","0","test","16","Diorite","Obsidian","14","false","3","5","","","","","","","","","","","","","","","","",""
"null","","html-keyboard-response","34","2.0.0","71882","test","3","","","","","","","<p style='font-size: 30px;'><strong>Okay</strong></p>","null","neutral_feedback","0","test","16","","","","","","","","","","","","","","","","","","","","","","",""
"2485","","html-button-response","35","2.0.0","74369","test","3","","","","","","","<img src= ""rock_img/I_Obsidian_06.jpg"" style=""width:8cm; height:6.8cm;""><p>What type of rock is this?</p>","2","class_response","0","test","17","Diorite","Obsidian","06","false","3","5","","","","","","","","","","","","","","","","",""
"null","","html-keyboard-response","36","2.0.0","74871","test","3","","","","","","","<p style='font-size: 30px;'><strong>Okay</strong></p>","null","neutral_feedback","0","test","17","","","","","","","","","","","","","","","","","","","","","","",""
"2220","","html-button-response","37","2.0.0","77093","test","3","","","","","","","<img src= ""rock_img/I_Pumice_02.jpg"" style=""width:8cm; height:7.3999999999999995cm;""><p>What type of rock is this?</p>","0","class_response","0","test","18","Andesite","Pumice","02","false","1","8","","","","","","","","","","","","","","","","",""
"null","","html-keyboard-response","38","2.0.0","77595","test","3","","","","","","","<p style='font-size: 30px;'><strong>Okay</strong></p>","null","neutral_feedback","0","test","18","","","","","","","","","","","","","","","","","","","","","","",""
"1037","","html-button-response","39","2.0.0","78635","test","3","","","","","","","<img src= ""rock_img/I_Andesite_02.jpg"" style=""width:8cm; height:8.5cm;""><p>What type of rock is this?</p>","4","class_response","0","test","19","Obsidian","Andesite","02","false","5","1","","","","","","","","","","","","","","","","",""
"null","","html-keyboard-response","40","2.0.0","79138","test","3","","","","","","","<p style='font-size: 30px;'><strong>Okay</strong></p>","null","neutral_feedback","0","test","19","","","","","","","","","","","","","","","","","","","","","","",""
"2052","","html-button-response","41","2.0.0","81193","test","3","","","","","","","<img src= ""rock_img/I_Obsidian_12.jpg"" style=""width:8cm; height:6.53cm;""><p>What type of rock is this?</p>","0","class_response","0","test","20","Andesite","Obsidian","12","false","1","5","","","","","","","","","","","","","","","","",""
"null","","html-keyboard-response","42","2.0.0","81695","test","3","","","","","","","<p style='font-size: 30px;'><strong>Okay</strong></p>","null","neutral_feedback","0","test","20","","","","","","","","","","","","","","","","","","","","","","",""
"1041","","html-button-response","43","2.0.0","82739","test","3","","","","","","","<img src= ""rock_img/I_Gabbro_14.jpg"" style=""width:8cm; height:8.48cm;""><p>What type of rock is this?</p>","1","class_response","0","test","21","Basalt","Gabbro","14","false","2","4","","","","","","","","","","","","","","","","",""
"null","","html-keyboard-response","44","2.0.0","83240","test","3","","","","","","","<p style='font-size: 30px;'><strong>Okay</strong></p>","null","neutral_feedback","0","test","21","","","","","","","","","","","","","","","","","","","","","","",""
"3373","","html-button-response","45","2.0.0","86615","test","3","","","","","","","<img src= ""rock_img/I_Diorite_16.jpg"" style=""width:8cm; height:6.74cm;""><p>What type of rock is this?</p>","4","class_response","0","test","22","Obsidian","Diorite","16","false","5","3","","","","","","","","","","","","","","","","",""
"null","","html-keyboard-response","46","2.0.0","87116","test","3","","","","","","","<p style='font-size: 30px;'><strong>Okay</strong></p>","null","neutral_feedback","0","test","22","","","","","","","","","","","","","","","","","","","","","","",""
"1362","","html-button-response","47","2.0.0","88481","test","3","","","","","","","<img src= ""rock_img/I_Pegmatite_07.jpg"" style=""width:8cm; height:6.7cm;""><p>What type of rock is this?</p>","2","class_response","0","test","23","Diorite","Pegmatite","07","false","3","6","","","","","","","","","","","","","","","","",""
"null","","html-keyboard-response","48","2.0.0","88983","test","3","","","","","","","<p style='font-size: 30px;'><strong>Okay</strong></p>","null","neutral_feedback","0","test","23","","","","","","","","","","","","","","","","","","","","","","",""
"926","","html-button-response","49","2.0.0","89912","test","3","","","","","","","<img src= ""rock_img/I_Peridotite_14.jpg"" style=""width:8cm; height:5.3cm;""><p>What type of rock is this?</p>","6","class_response","0","test","24","Peridotite","Peridotite","14","true","7","7","","","","","","","","","","","","","","","","",""
"null","","html-keyboard-response","50","2.0.0","90414","test","3","","","","","","","<p style='font-size: 30px;'><strong>Okay</strong></p>","null","neutral_feedback","0","test","24","","","","","","","","","","","","","","","","","","","","","","",""
"2265","","html-button-response","51","2.0.0","92682","test","3","","","","","","","<img src= ""rock_img/I_Gabbro_12.jpg"" style=""width:8cm; height:7.800000000000001cm;""><p>What type of rock is this?</p>","1","class_response","0","test","25","Basalt","Gabbro","12","false","2","4","","","","","","","","","","","","","","","","",""
"null","","html-keyboard-response","52","2.0.0","93184","test","3","","","","","","","<p style='font-size: 30px;'><strong>Okay</strong></p>","null","neutral_feedback","0","test","25","","","","","","","","","","","","","","","","","","","","","","",""
"","","call-function","53","2.0.0","93208","test","3","","","","","","","","","","","","","","","","","","","","","","","","","","","","","","","","","","",""
"15481","","instructions","54","2.0.0","108689","test","3","","","","","","[{""page_index"":0,""viewing_time"":12490},{""page_index"":1,""viewing_time"":2990}]","","","","","","","","","","","","","","","","","","","","","","","","","","","","",""
"1799","","html-button-response","55","2.0.0","110491","test","3","","","","","","","","0","start_train","","","","","","","","","","","","","","","","","","","","","","","","","",""
"1515","","html-button-response","56","2.0.0","112009","test","3","","","","","","","<img src= ""rock_img/I_Gabbro_16.jpg"" style=""width:8cm; height:6.44cm;""><p>What type of rock is this?</p>","1","class_response","1","train","2","Basalt","Gabbro","16","false","2","4","","","","","","","","","","","","","","","","",""
"1693","","html-button-response","57","2.0.0","113705","test","3","","","","","","","<img src= rock_img/I_Gabbro_16.jpg style=""width:8cm; height:6.44cm;""><p style='font-size: 30px; color: red;'><strong>Incorrect!</strong></p><p style='font-size: 30px;'><strong>This rock is gabbro</strong></p>","0","corr_feedback","1","train","2","","","","","","","","","","","","","","","","","","","","","","",""
"3151","","html-button-response","58","2.0.0","116859","test","3","","","","","","","<img src= ""rock_img/I_Pumice_05.jpg"" style=""width:8cm; height:7.25cm;""><p>What type of rock is this?</p>","7","class_response","1","train","3","Pumice","Pumice","05","true","8","8","","","","","","","","","","","","","","","","",""
"979","","html-button-response","59","2.0.0","117840","test","3","","","","","","","<img src= rock_img/I_Pumice_05.jpg style=""width:8cm; height:7.25cm;""><p style='font-size: 30px; color: green;'><strong>Correct!</strong></p><p style='font-size: 30px;'><strong>This rock is pumice</strong></p>","0","corr_feedback","1","train","3","","","","","","","","","","","","","","","","","","","","","","",""
"1369","","html-button-response","60","2.0.0","119211","test","3","","","","","","","<img src= ""rock_img/I_Pegmatite_06.jpg"" style=""width:8cm; height:5.17cm;""><p>What type of rock is this?</p>","4","class_response","1","train","4","Obsidian","Pegmatite","06","false","5","6","","","","","","","","","","","","","","","","",""
"1451","","html-button-response","61","2.0.0","120665","test","3","","","","","","","<img src= rock_img/I_Pegmatite_06.jpg style=""width:8cm; height:5.17cm;""><p style='font-size: 30px; color: red;'><strong>Incorrect!</strong></p><p style='font-size: 30px;'><strong>This rock is pegmatite</strong></p>","0","corr_feedback","1","train","4","","","","","","","","","","","","","","","","","","","","","","",""
"2578","","html-button-response","62","2.0.0","123244","test","3","","","","","","","<img src= ""rock_img/I_Diorite_14.jpg"" style=""width:8cm; height:5.71cm;""><p>What type of rock is this?</p>","0","class_response","1","train","5","Andesite","Diorite","14","false","1","3","","","","","","","","","","","","","","","","",""
"996","","html-button-response","63","2.0.0","124241","test","3","","","","","","","<img src= rock_img/I_Diorite_14.jpg style=""width:8cm; height:5.71cm;""><p style='font-size: 30px; color: red;'><strong>Incorrect!</strong></p><p style='font-size: 30px;'><strong>This rock is diorite</strong></p>","0","corr_feedback","1","train","5","","","","","","","","","","","","","","","","","","","","","","",""
"2304","","html-button-response","64","2.0.0","126547","test","3","","","","","","","<img src= ""rock_img/I_Andesite_04.jpg"" style=""width:8cm; height:5.96cm;""><p>What type of rock is this?</p>","0","class_response","1","train","6","Andesite","Andesite","04","true","1","1","","","","","","","","","","","","","","","","",""
"1450","","html-button-response","65","2.0.0","127999","test","3","","","","","","","<img src= rock_img/I_Andesite_04.jpg style=""width:8cm; height:5.96cm;""><p style='font-size: 30px; color: green;'><strong>Correct!</strong></p><p style='font-size: 30px;'><strong>This rock is andesite</strong></p>","0","corr_feedback","1","train","6","","","","","","","","","","","","","","","","","","","","","","",""
"1507","","html-button-response","66","2.0.0","129508","test","3","","","","","","","<img src= ""rock_img/I_Pegmatite_08.jpg"" style=""width:8cm; height:7.68cm;""><p>What type of rock is this?</p>","3","class_response","1","train","7","Gabbro","Pegmatite","08","false","4","6","","","","","","","","","","","","","","","","",""
"1054","","html-button-response","67","2.0.0","130564","test","3","","","","","","","<img src= rock_img/I_Pegmatite_08.jpg style=""width:8cm; height:7.68cm;""><p style='font-size: 30px; color: red;'><strong>Incorrect!</strong></p><p style='font-size: 30px;'><strong>This rock is pegmatite</strong></p>","0","corr_feedback","1","train","7","","","","","","","","","","","","","","","","","","","","","","",""
"1818","","html-button-response","68","2.0.0","132383","test","3","","","","","","","<img src= ""rock_img/I_Pumice_03.jpg"" style=""width:8cm; height:6.64cm;""><p>What type of rock is this?</p>","7","class_response","1","train","8","Pumice","Pumice","03","true","8","8","","","","","","","","","","","","","","","","",""
"725","","html-button-response","69","2.0.0","133109","test","3","","","","","","","<img src= rock_img/I_Pumice_03.jpg style=""width:8cm; height:6.64cm;""><p style='font-size: 30px; color: green;'><strong>Correct!</strong></p><p style='font-size: 30px;'><strong>This rock is pumice</strong></p>","0","corr_feedback","1","train","8","","","","","","","","","","","","","","","","","","","","","","",""
"1510","","html-button-response","70","2.0.0","134621","test","3","","","","","","","<img src= ""rock_img/I_Basalt_11.jpg"" style=""width:8cm; height:5.359999999999999cm;""><p>What type of rock is this?</p>","7","class_response","1","train","9","Pumice","Basalt","11","false","8","2","","","","","","","","","","","","","","","","",""
"873","","html-button-response","71","2.0.0","135495","test","3","","","","","","","<img src= rock_img/I_Basalt_11.jpg style=""width:8cm; height:5.359999999999999cm;""><p style='font-size: 30px; color: red;'><strong>Incorrect!</strong></p><p style='font-size: 30px;'><strong>This rock is basalt</strong></p>","0","corr_feedback","1","train","9","","","","","","","","","","","","","","","","","","","","","","",""
"1839","","html-button-response","72","2.0.0","137336","test","3","","","","","","","<img src= ""rock_img/I_Obsidian_05.jpg"" style=""width:8cm; height:6.33cm;""><p>What type of rock is this?</p>","4","class_response","1","train","10","Obsidian","Obsidian","05","true","5","5","","","","","","","","","","","","","","","","",""
"804","","html-button-response","73","2.0.0","138142","test","3","","","","","","","<img src= rock_img/I_Obsidian_05.jpg style=""width:8cm; height:6.33cm;""><p style='font-size: 30px; color: green;'><strong>Correct!</strong></p><p style='font-size: 30px;'><strong>This rock is obsidian</strong></p>","0","corr_feedback","1","train","10","","","","","","","","","","","","","","","","","","","","","","",""
"1282","","html-button-response","74","2.0.0","139425","test","3","","","","","","","<img src= ""rock_img/I_Diorite_09.jpg"" style=""width:8cm; height:5.27cm;""><p>What type of rock is this?</p>","5","class_response","1","train","11","Pegmatite","Diorite","09","false","6","3","","","","","","","","","","","","","","","","",""
"1064","","html-button-response","75","2.0.0","140490","test","3","","","","","","","<img src= rock_img/I_Diorite_09.jpg style=""width:8cm; height:5.27cm;""><p style='font-size: 30px; color: red;'><strong>Incorrect!</strong></p><p style='font-size: 30px;'><strong>This rock is diorite</strong></p>","0","corr_feedback","1","train","11","","","","","","","","","","","","","","","","","","","","","","",""
"1103","","html-button-response","76","2.0.0","141596","test","3","","","","","","","<img src= ""rock_img/I_Andesite_07.jpg"" style=""width:8cm; height:5.93cm;""><p>What type of rock is this?</p>","2","class_response","1","train","12","Diorite","Andesite","07","false","3","1","","","","","","","","","","","","","","","","",""
"1046","","html-button-response","77","2.0.0","142643","test","3","","","","","","","<img src= rock_img/I_Andesite_07.jpg style=""width:8cm; height:5.93cm;""><p style='font-size: 30px; color: red;'><strong>Incorrect!</strong></p><p style='font-size: 30px;'><strong>This rock is andesite</strong></p>","0","corr_feedback","1","train","12","","","","","","","","","","","","","","","","","","","","","","",""
"1908","","html-button-response","78","2.0.0","144553","test","3","","","","","","","<img src= ""rock_img/I_Peridotite_02.jpg"" style=""width:8cm; height:5.859999999999999cm;""><p>What type of rock is this?</p>","0","class_response","1","train","13","Andesite","Peridotite","02","false","1","7","","","","","","","","","","","","","","","","",""
"928","","html-button-response","79","2.0.0","145482","test","3","","","","","","","<img src= rock_img/I_Peridotite_02.jpg style=""width:8cm; height:5.859999999999999cm;""><p style='font-size: 30px; color: red;'><strong>Incorrect!</strong></p><p style='font-size: 30px;'><strong>This rock is peridotite</strong></p>","0","corr_feedback","1","train","13","","","","","","","","","","","","","","","","","","","","","","",""
"26589","","instructions","80","2.0.0","172073","test","3","","","","","","[{""page_index"":0,""viewing_time"":5341},{""page_index"":1,""viewing_time"":6366},{""page_index"":2,""viewing_time"":8856},{""page_index"":3,""viewing_time"":6027}]","","","","","","","","","","","","","","","","","","","","","","","","","","","","",""
"","","html-button-response","81","2.0.0","176927","test","3","","","","","","","","","cat_selection","1","train","14","","","","","","","","6","3","4852.100000023842","Pegmatite","Diorite","[0,0,0.3333333333333333,0.3333333333333333,0,0.3333333333333333,0,0]","[0,0.4509724129781259,0.4712289869576516,0.07779860006422239,0,0,0,0]","","","","","","","","",""
"","","paired-cat-display","82","1.0.0","215204","test","3","","","","","","","","","paired_cat_display","1","train","14","","","","","","","","","","6063.699999928474","","","","","unique striping, many different colors","more of a spotted texture, light background with lots of dark dots","32209.800000071526","","","","","",""
"","","html-button-response","83","2.0.0","218180","test","3","","","","","","","","","cat_selection","1","train","15","","","","","","","","3","6","2974.899999976158","Diorite","Pegmatite","[0,0,0.3333333333333333,0.3333333333333333,0,0.3333333333333333,0,0]","[0,0,0,0.07958231786588635,0.5847184982440292,0.3356991838900844,0,0]","","","","","","","","",""
"","","paired-cat-display","84","1.0.0","241437","test","3","","","","","","","","","paired_cat_display","1","train","15","","","","","","","","","","5966.399999976158","","","","","unique colors and more striping ","light background with dark speckles","17286.299999952316","","","","","",""
"","","html-button-response","85","2.0.0","243333","test","3","","","","","","","","","cat_selection","1","train","16","","","","","","","","4","6","1895","Gabbro","Pegmatite","[0,0,0.3333333333333333,0.3333333333333333,0,0.3333333333333333,0,0]","[0.32945876677371405,0,0,0,0.07845696773930118,0.5920842654869847,0,0]","","","","","","","","",""
"","","paired-cat-display","86","1.0.0","264112","test","3","","","","","","","","","paired_cat_display","1","train","16","","","","","","","","","","6327","","","","","unique colors and more striping","","14448.299999952316","dark (gray or brown) with some speckling","","","","",""
"11068","","instructions","87","2.0.0","275181","test","3","","","","","","[{""page_index"":0,""viewing_time"":2758},{""page_index"":1,""viewing_time"":5583},{""page_index"":2,""viewing_time"":2728}]","","","","","","","","","","","","","","","","","","","","","","","","","","","","",""
"1471","","html-button-response","88","2.0.0","276654","test","3","","","","","","","","0","start_test","","","","","","","","","","","","","","","","","","","","","","","","","",""
"7429","","html-button-response","89","2.0.0","284086","test","3","","","","","","","<img src= ""rock_img/I_Basalt_14.jpg"" style=""width:8cm; height:5.82cm;""><p>What type of rock is this?</p>","3","class_response","1","test","2","Gabbro","Basalt","14","false","4","2","","","","","","","","","","","","","","","","",""
"null","","html-keyboard-response","90","2.0.0","284588","test","3","","","","","","","<p style='font-size: 30px;'><strong>Okay</strong></p>","null","neutral_feedback","1","test","2","","","","","","","","","","","","","","","","","","","","","","",""
"28241","","html-button-response","91","2.0.0","312832","test","3","","","","","","","<img src= ""rock_img/I_Diorite_13.jpg"" style=""width:8cm; height:6.29cm;""><p>What type of rock is this?</p>","5","class_response","1","test","3","Pegmatite","Diorite","13","false","6","3","","","","","","","","","","","","","","","","",""
"null","","html-keyboard-response","92","2.0.0","313334","test","3","","","","","","","<p style='font-size: 30px;'><strong>Okay</strong></p>","null","neutral_feedback","1","test","3","","","","","","","","","","","","","","","","","","","","","","",""
"31459","","html-button-response","93","2.0.0","344794","test","3","","","","","","","<img src= ""rock_img/I_Andesite_14.jpg"" style=""width:8cm; height:5.449999999999999cm;""><p>What type of rock is this?</p>","0","class_response","1","test","4","Andesite","Andesite","14","true","1","1","","","","","","","","","","","","","","","","",""
"null","","html-keyboard-response","94","2.0.0","345296","test","3","","","","","","","<p style='font-size: 30px;'><strong>Okay</strong></p>","null","neutral_feedback","1","test","4","","","","","","","","","","","","","","","","","","","","","","",""
"5513","","html-button-response","95","2.0.0","350812","test","3","","","","","","","<img src= ""rock_img/I_Gabbro_10.jpg"" style=""width:8cm; height:5.680000000000001cm;""><p>What type of rock is this?</p>","2","class_response","1","test","5","Diorite","Gabbro","10","false","3","4","","","","","","","","","","","","","","","","",""
"null","","html-keyboard-response","96","2.0.0","351314","test","3","","","","","","","<p style='font-size: 30px;'><strong>Okay</strong></p>","null","neutral_feedback","1","test","5","","","","","","","","","","","","","","","","","","","","","","",""
"1798","","html-button-response","97","2.0.0","353114","test","3","","","","","","","<img src= ""rock_img/I_Basalt_10.jpg"" style=""width:8cm; height:5.85cm;""><p>What type of rock is this?</p>","4","class_response","1","test","6","Obsidian","Basalt","10","false","5","2","","","","","","","","","","","","","","","","",""
"null","","html-keyboard-response","98","2.0.0","353616","test","3","","","","","","","<p style='font-size: 30px;'><strong>Okay</strong></p>","null","neutral_feedback","1","test","6","","","","","","","","","","","","","","","","","","","","","","",""
"1115","","html-button-response","99","2.0.0","354733","test","3","","","","","","","<img src= ""rock_img/I_Pumice_09.jpg"" style=""width:8cm; height:6.44cm;""><p>What type of rock is this?</p>","7","class_response","1","test","7","Pumice","Pumice","09","true","8","8","","","","","","","","","","","","","","","","",""
"null","","html-keyboard-response","100","2.0.0","355235","test","3","","","","","","","<p style='font-size: 30px;'><strong>Okay</strong></p>","null","neutral_feedback","1","test","7","","","","","","","","","","","","","","","","","","","","","","",""
"5597","","html-button-response","101","2.0.0","360834","test","3","","","","","","","<img src= ""rock_img/I_Pegmatite_09.jpg"" style=""width:8cm; height:4.03cm;""><p>What type of rock is this?</p>","5","class_response","1","test","8","Pegmatite","Pegmatite","09","true","6","6","","","","","","","","","","","","","","","","",""
"null","","html-keyboard-response","102","2.0.0","361337","test","3","","","","","","","<p style='font-size: 30px;'><strong>Okay</strong></p>","null","neutral_feedback","1","test","8","","","","","","","","","","","","","","","","","","","","","","",""
"1624","","html-button-response","103","2.0.0","362963","test","3","","","","","","","<img src= ""rock_img/I_Pumice_04.jpg"" style=""width:8cm; height:6.819999999999999cm;""><p>What type of rock is this?</p>","7","class_response","1","test","9","Pumice","Pumice","04","true","8","8","","","","","","","","","","","","","","","","",""
"null","","html-keyboard-response","104","2.0.0","363465","test","3","","","","","","","<p style='font-size: 30px;'><strong>Okay</strong></p>","null","neutral_feedback","1","test","9","","","","","","","","","","","","","","","","","","","","","","",""
"647","","html-button-response","105","2.0.0","364114","test","3","","","","","","","<img src= ""rock_img/I_Pumice_02.jpg"" style=""width:8cm; height:7.3999999999999995cm;""><p>What type of rock is this?</p>","7","class_response","1","test","10","Pumice","Pumice","02","true","8","8","","","","","","","","","","","","","","","","",""
"null","","html-keyboard-response","106","2.0.0","364616","test","3","","","","","","","<p style='font-size: 30px;'><strong>Okay</strong></p>","null","neutral_feedback","1","test","10","","","","","","","","","","","","","","","","","","","","","","",""
"2857","","html-button-response","107","2.0.0","367476","test","3","","","","","","","<img src= ""rock_img/I_Peridotite_06.jpg"" style=""width:8cm; height:7.53cm;""><p>What type of rock is this?</p>","0","class_response","1","test","11","Andesite","Peridotite","06","false","1","7","","","","","","","","","","","","","","","","",""
"null","","html-keyboard-response","108","2.0.0","367979","test","3","","","","","","","<p style='font-size: 30px;'><strong>Okay</strong></p>","null","neutral_feedback","1","test","11","","","","","","","","","","","","","","","","","","","","","","",""
"1333","","html-button-response","109","2.0.0","369313","test","3","","","","","","","<img src= ""rock_img/I_Peridotite_14.jpg"" style=""width:8cm; height:5.3cm;""><p>What type of rock is this?</p>","1","class_response","1","test","12","Basalt","Peridotite","14","false","2","7","","","","","","","","","","","","","","","","",""
"null","","html-keyboard-response","110","2.0.0","369815","test","3","","","","","","","<p style='font-size: 30px;'><strong>Okay</strong></p>","null","neutral_feedback","1","test","12","","","","","","","","","","","","","","","","","","","","","","",""
"5040","","html-button-response","111","2.0.0","374858","test","3","","","","","","","<img src= ""rock_img/I_Gabbro_12.jpg"" style=""width:8cm; height:7.800000000000001cm;""><p>What type of rock is this?</p>","2","class_response","1","test","13","Diorite","Gabbro","12","false","3","4","","","","","","","","","","","","","","","","",""
"null","","html-keyboard-response","112","2.0.0","375360","test","3","","","","","","","<p style='font-size: 30px;'><strong>Okay</strong></p>","null","neutral_feedback","1","test","13","","","","","","","","","","","","","","","","","","","","","","",""
"1971","","html-button-response","113","2.0.0","377334","test","3","","","","","","","<img src= ""rock_img/I_Obsidian_12.jpg"" style=""width:8cm; height:6.53cm;""><p>What type of rock is this?</p>","1","class_response","1","test","14","Basalt","Obsidian","12","false","2","5","","","","","","","","","","","","","","","","",""
"null","","html-keyboard-response","114","2.0.0","377836","test","3","","","","","","","<p style='font-size: 30px;'><strong>Okay</strong></p>","null","neutral_feedback","1","test","14","","","","","","","","","","","","","","","","","","","","","","",""
"2033","","html-button-response","115","2.0.0","379871","test","3","","","","","","","<img src= ""rock_img/I_Peridotite_08.jpg"" style=""width:8cm; height:6.7cm;""><p>What type of rock is this?</p>","0","class_response","1","test","15","Andesite","Peridotite","08","false","1","7","","","","","","","","","","","","","","","","",""
"null","","html-keyboard-response","116","2.0.0","380373","test","3","","","","","","","<p style='font-size: 30px;'><strong>Okay</strong></p>","null","neutral_feedback","1","test","15","","","","","","","","","","","","","","","","","","","","","","",""
"2049","","html-button-response","117","2.0.0","382424","test","3","","","","","","","<img src= ""rock_img/I_Pegmatite_16.jpg"" style=""width:8cm; height:5.8cm;""><p>What type of rock is this?</p>","4","class_response","1","test","16","Obsidian","Pegmatite","16","false","5","6","","","","","","","","","","","","","","","","",""
"null","","html-keyboard-response","118","2.0.0","382926","test","3","","","","","","","<p style='font-size: 30px;'><strong>Okay</strong></p>","null","neutral_feedback","1","test","16","","","","","","","","","","","","","","","","","","","","","","",""
"890","","html-button-response","119","2.0.0","383819","test","3","","","","","","","<img src= ""rock_img/I_Pegmatite_07.jpg"" style=""width:8cm; height:6.7cm;""><p>What type of rock is this?</p>","4","class_response","1","test","17","Obsidian","Pegmatite","07","false","5","6","","","","","","","","","","","","","","","","",""
"null","","html-keyboard-response","120","2.0.0","384322","test","3","","","","","","","<p style='font-size: 30px;'><strong>Okay</strong></p>","null","neutral_feedback","1","test","17","","","","","","","","","","","","","","","","","","","","","","",""
"2134","","html-button-response","121","2.0.0","386458","test","3","","","","","","","<img src= ""rock_img/I_Obsidian_14.jpg"" style=""width:8cm; height:7.64cm;""><p>What type of rock is this?</p>","1","class_response","1","test","18","Basalt","Obsidian","14","false","2","5","","","","","","","","","","","","","","","","",""
"null","","html-keyboard-response","122","2.0.0","386960","test","3","","","","","","","<p style='font-size: 30px;'><strong>Okay</strong></p>","null","neutral_feedback","1","test","18","","","","","","","","","","","","","","","","","","","","","","",""
"706","","html-button-response","123","2.0.0","387669","test","3","","","","","","","<img src= ""rock_img/I_Obsidian_06.jpg"" style=""width:8cm; height:6.8cm;""><p>What type of rock is this?</p>","1","class_response","1","test","19","Basalt","Obsidian","06","false","2","5","","","","","","","","","","","","","","","","",""
"null","","html-keyboard-response","124","2.0.0","388172","test","3","","","","","","","<p style='font-size: 30px;'><strong>Okay</strong></p>","null","neutral_feedback","1","test","19","","","","","","","","","","","","","","","","","","","","","","",""
"1252","","html-button-response","125","2.0.0","389426","test","3","","","","","","","<img src= ""rock_img/I_Gabbro_14.jpg"" style=""width:8cm; height:8.48cm;""><p>What type of rock is this?</p>","2","class_response","1","test","20","Diorite","Gabbro","14","false","3","4","","","","","","","","","","","","","","","","",""
"null","","html-keyboard-response","126","2.0.0","389927","test","3","","","","","","","<p style='font-size: 30px;'><strong>Okay</strong></p>","null","neutral_feedback","1","test","20","","","","","","","","","","","","","","","","","","","","","","",""
"1810","","html-button-response","127","2.0.0","391741","test","3","","","","","","","<img src= ""rock_img/I_Diorite_16.jpg"" style=""width:8cm; height:6.74cm;""><p>What type of rock is this?</p>","6","class_response","1","test","21","Peridotite","Diorite","16","false","7","3","","","","","","","","","","","","","","","","",""
"null","","html-keyboard-response","128","2.0.0","392243","test","3","","","","","","","<p style='font-size: 30px;'><strong>Okay</strong></p>","null","neutral_feedback","1","test","21","","","","","","","","","","","","","","","","","","","","","","",""
"590","","html-button-response","129","2.0.0","392836","test","3","","","","","","","<img src= ""rock_img/I_Diorite_11.jpg"" style=""width:8cm; height:7.11cm;""><p>What type of rock is this?</p>","6","class_response","1","test","22","Peridotite","Diorite","11","false","7","3","","","","","","","","","","","","","","","","",""
"null","","html-keyboard-response","130","2.0.0","393338","test","3","","","","","","","<p style='font-size: 30px;'><strong>Okay</strong></p>","null","neutral_feedback","1","test","22","","","","","","","","","","","","","","","","","","","","","","",""
"1083","","html-button-response","131","2.0.0","394423","test","3","","","","","","","<img src= ""rock_img/I_Basalt_04.jpg"" style=""width:8cm; height:7.53cm;""><p>What type of rock is this?</p>","3","class_response","1","test","23","Gabbro","Basalt","04","false","4","2","","","","","","","","","","","","","","","","",""
"null","","html-keyboard-response","132","2.0.0","394924","test","3","","","","","","","<p style='font-size: 30px;'><strong>Okay</strong></p>","null","neutral_feedback","1","test","23","","","","","","","","","","","","","","","","","","","","","","",""
"1648","","html-button-response","133","2.0.0","396574","test","3","","","","","","","<img src= ""rock_img/I_Andesite_02.jpg"" style=""width:8cm; height:8.5cm;""><p>What type of rock is this?</p>","0","class_response","1","test","24","Andesite","Andesite","02","true","1","1","","","","","","","","","","","","","","","","",""
"null","","html-keyboard-response","134","2.0.0","397075","test","3","","","","","","","<p style='font-size: 30px;'><strong>Okay</strong></p>","null","neutral_feedback","1","test","24","","","","","","","","","","","","","","","","","","","","","","",""
"1018","","html-button-response","135","2.0.0","398095","test","3","","","","","","","<img src= ""rock_img/I_Andesite_03.jpg"" style=""width:8cm; height:5.73cm;""><p>What type of rock is this?</p>","4","class_response","1","test","25","Obsidian","Andesite","03","false","5","1","","","","","","","","","","","","","","","","",""
"null","","html-keyboard-response","136","2.0.0","398597","test","3","","","","","","","<p style='font-size: 30px;'><strong>Okay</strong></p>","null","neutral_feedback","1","test","25","","","","","","","","","","","","","","","","","","","","","","",""
"","","html-button-response","137","2.0.0","411382","test","3","","","","","","","","","cycle_feedback","","","","","","","","","","","","","","","","","","","","","","7391.100000023842","5382.299999952316","","",""
"1767","","html-button-response","139","2.0.0","413150","test","3","","","","","","","","0","start_train","","","","","","","","","","","","","","","","","","","","","","","","","",""
"2340","","html-button-response","140","2.0.0","415492","test","3","","","","","","","<img src= ""rock_img/I_Peridotite_02.jpg"" style=""width:8cm; height:5.859999999999999cm;""><p>What type of rock is this?</p>","1","class_response","2","train","2","Basalt","Peridotite","02","false","2","7","","","","","","","","","","","","","","","","",""
"1948","","html-button-response","141","2.0.0","417442","test","3","","","","","","","<img src= rock_img/I_Peridotite_02.jpg style=""width:8cm; height:5.859999999999999cm;""><p style='font-size: 30px; color: red;'><strong>Incorrect!</strong></p><p style='font-size: 30px;'><strong>This rock is peridotite</strong></p>","0","corr_feedback","2","train","2","","","","","","","","","","","","","","","","","","","","","","",""
"2665","","html-button-response","142","2.0.0","420110","test","3","","","","","","","<img src= ""rock_img/I_Pegmatite_06.jpg"" style=""width:8cm; height:5.17cm;""><p>What type of rock is this?</p>","6","class_response","2","train","3","Peridotite","Pegmatite","06","false","7","6","","","","","","","","","","","","","","","","",""
"845","","html-button-response","143","2.0.0","420956","test","3","","","","","","","<img src= rock_img/I_Pegmatite_06.jpg style=""width:8cm; height:5.17cm;""><p style='font-size: 30px; color: red;'><strong>Incorrect!</strong></p><p style='font-size: 30px;'><strong>This rock is pegmatite</strong></p>","0","corr_feedback","2","train","3","","","","","","","","","","","","","","","","","","","","","","",""
"1977","","html-button-response","144","2.0.0","422935","test","3","","","","","","","<img src= ""rock_img/I_Basalt_02.jpg"" style=""width:8cm; height:6.45cm;""><p>What type of rock is this?</p>","5","class_response","2","train","4","Pegmatite","Basalt","02","false","6","2","","","","","","","","","","","","","","","","",""
"888","","html-button-response","145","2.0.0","423825","test","3","","","","","","","<img src= rock_img/I_Basalt_02.jpg style=""width:8cm; height:6.45cm;""><p style='font-size: 30px; color: red;'><strong>Incorrect!</strong></p><p style='font-size: 30px;'><strong>This rock is basalt</strong></p>","0","corr_feedback","2","train","4","","","","","","","","","","","","","","","","","","","","","","",""
"2519","","html-button-response","146","2.0.0","426346","test","3","","","","","","","<img src= ""rock_img/I_Obsidian_05.jpg"" style=""width:8cm; height:6.33cm;""><p>What type of rock is this?</p>","3","class_response","2","train","5","Gabbro","Obsidian","05","false","4","5","","","","","","","","","","","","","","","","",""
"934","","html-button-response","147","2.0.0","427282","test","3","","","","","","","<img src= rock_img/I_Obsidian_05.jpg style=""width:8cm; height:6.33cm;""><p style='font-size: 30px; color: red;'><strong>Incorrect!</strong></p><p style='font-size: 30px;'><strong>This rock is obsidian</strong></p>","0","corr_feedback","2","train","5","","","","","","","","","","","","","","","","","","","","","","",""
"1185","","html-button-response","148","2.0.0","428469","test","3","","","","","","","<img src= ""rock_img/I_Pumice_05.jpg"" style=""width:8cm; height:7.25cm;""><p>What type of rock is this?</p>","7","class_response","2","train","6","Pumice","Pumice","05","true","8","8","","","","","","","","","","","","","","","","",""
"796","","html-button-response","149","2.0.0","429266","test","3","","","","","","","<img src= rock_img/I_Pumice_05.jpg style=""width:8cm; height:7.25cm;""><p style='font-size: 30px; color: green;'><strong>Correct!</strong></p><p style='font-size: 30px;'><strong>This rock is pumice</strong></p>","0","corr_feedback","2","train","6","","","","","","","","","","","","","","","","","","","","","","",""
"1309","","html-button-response","150","2.0.0","430576","test","3","","","","","","","<img src= ""rock_img/I_Basalt_11.jpg"" style=""width:8cm; height:5.359999999999999cm;""><p>What type of rock is this?</p>","7","class_response","2","train","7","Pumice","Basalt","11","false","8","2","","","","","","","","","","","","","","","","",""
"814","","html-button-response","151","2.0.0","431392","test","3","","","","","","","<img src= rock_img/I_Basalt_11.jpg style=""width:8cm; height:5.359999999999999cm;""><p style='font-size: 30px; color: red;'><strong>Incorrect!</strong></p><p style='font-size: 30px;'><strong>This rock is basalt</strong></p>","0","corr_feedback","2","train","7","","","","","","","","","","","","","","","","","","","","","","",""
"1101","","html-button-response","152","2.0.0","432494","test","3","","","","","","","<img src= ""rock_img/I_Obsidian_02.jpg"" style=""width:8cm; height:7.51cm;""><p>What type of rock is this?</p>","4","class_response","2","train","8","Obsidian","Obsidian","02","true","5","5","","","","","","","","","","","","","","","","",""
"612","","html-button-response","153","2.0.0","433107","test","3","","","","","","","<img src= rock_img/I_Obsidian_02.jpg style=""width:8cm; height:7.51cm;""><p style='font-size: 30px; color: green;'><strong>Correct!</strong></p><p style='font-size: 30px;'><strong>This rock is obsidian</strong></p>","0","corr_feedback","2","train","8","","","","","","","","","","","","","","","","","","","","","","",""
"1668","","html-button-response","154","2.0.0","434777","test","3","","","","","","","<img src= ""rock_img/I_Andesite_07.jpg"" style=""width:8cm; height:5.93cm;""><p>What type of rock is this?</p>","2","class_response","2","train","9","Diorite","Andesite","07","false","3","1","","","","","","","","","","","","","","","","",""
"742","","html-button-response","155","2.0.0","435520","test","3","","","","","","","<img src= rock_img/I_Andesite_07.jpg style=""width:8cm; height:5.93cm;""><p style='font-size: 30px; color: red;'><strong>Incorrect!</strong></p><p style='font-size: 30px;'><strong>This rock is andesite</strong></p>","0","corr_feedback","2","train","9","","","","","","","","","","","","","","","","","","","","","","",""
"1496","","html-button-response","156","2.0.0","437017","test","3","","","","","","","<img src= ""rock_img/I_Gabbro_03.jpg"" style=""width:8cm; height:8.52cm;""><p>What type of rock is this?</p>","0","class_response","2","train","10","Andesite","Gabbro","03","false","1","4","","","","","","","","","","","","","","","","",""
"809","","html-button-response","157","2.0.0","437828","test","3","","","","","","","<img src= rock_img/I_Gabbro_03.jpg style=""width:8cm; height:8.52cm;""><p style='font-size: 30px; color: red;'><strong>Incorrect!</strong></p><p style='font-size: 30px;'><strong>This rock is gabbro</strong></p>","0","corr_feedback","2","train","10","","","","","","","","","","","","","","","","","","","","","","",""
"1399","","html-button-response","158","2.0.0","439228","test","3","","","","","","","<img src= ""rock_img/I_Gabbro_16.jpg"" style=""width:8cm; height:6.44cm;""><p>What type of rock is this?</p>","5","class_response","2","train","11","Pegmatite","Gabbro","16","false","6","4","","","","","","","","","","","","","","","","",""
"509","","html-button-response","159","2.0.0","439738","test","3","","","","","","","<img src= rock_img/I_Gabbro_16.jpg style=""width:8cm; height:6.44cm;""><p style='font-size: 30px; color: red;'><strong>Incorrect!</strong></p><p style='font-size: 30px;'><strong>This rock is gabbro</strong></p>","0","corr_feedback","2","train","11","","","","","","","","","","","","","","","","","","","","","","",""
"1567","","html-button-response","160","2.0.0","441306","test","3","","","","","","","<img src= ""rock_img/I_Diorite_14.jpg"" style=""width:8cm; height:5.71cm;""><p>What type of rock is this?</p>","0","class_response","2","train","12","Andesite","Diorite","14","false","1","3","","","","","","","","","","","","","","","","",""
"641","","html-button-response","161","2.0.0","441949","test","3","","","","","","","<img src= rock_img/I_Diorite_14.jpg style=""width:8cm; height:5.71cm;""><p style='font-size: 30px; color: red;'><strong>Incorrect!</strong></p><p style='font-size: 30px;'><strong>This rock is diorite</strong></p>","0","corr_feedback","2","train","12","","","","","","","","","","","","","","","","","","","","","","",""
"2294","","html-button-response","162","2.0.0","444244","test","3","","","","","","","<img src= ""rock_img/I_Peridotite_10.jpg"" style=""width:8cm; height:5.390000000000001cm;""><p>What type of rock is this?</p>","1","class_response","2","train","13","Basalt","Peridotite","10","false","2","7","","","","","","","","","","","","","","","","",""
"622","","html-button-response","163","2.0.0","444867","test","3","","","","","","","<img src= rock_img/I_Peridotite_10.jpg style=""width:8cm; height:5.390000000000001cm;""><p style='font-size: 30px; color: red;'><strong>Incorrect!</strong></p><p style='font-size: 30px;'><strong>This rock is peridotite</strong></p>","0","corr_feedback","2","train","13","","","","","","","","","","","","","","","","","","","","","","",""
"","","html-button-response","165","2.0.0","446155","test","3","","","","","","","","","cat_selection","2","train","14","","","","","","","","3","4","1286.3000000715256","Diorite","Gabbro","[0,0,0.3333333333333333,0.3333333333333333,0.3333333333333333,0,0,0]","[0,0,0,0.5938721951702777,0.25800290970570217,0.14812489512402008,0,0]","","","","","","","","",""
"","","paired-cat-display","166","1.0.0","470739","test","3","","","","","","","","","paired_cat_display","2","train","14","","","","","","","","","","5662.299999952316","","","","","","light background with speckles","18916.899999976158","gray or brown, more solid","","","","",""
"","","html-button-response","167","2.0.0","471673","test","3","","","","","","","","","cat_selection","2","train","15","","","","","","","","3","5","933","Diorite","Obsidian","[0,0,0.3333333333333333,0.3333333333333333,0.3333333333333333,0,0,0]","[0,0,0,0.5938721951702777,0.25800290970570217,0.14812489512402008,0,0]","","","","","","","","",""
"","","paired-cat-display","168","1.0.0","488549","test","3","","","","","","","","","paired_cat_display","2","train","15","","","","","","","","","","5635.700000047684","","","","","","light background with dark speckles","11237.399999976158","","","","almost looks shiny","",""
"","","html-button-response","169","2.0.0","489806","test","3","","","","","","","","","cat_selection","2","train","16","","","","","","","","4","2","1255.6000000238419","Gabbro","Basalt","[0,0,0.3333333333333333,0.3333333333333333,0.3333333333333333,0,0,0]","[0.14416687581427184,0.5967447423225297,0,0,0,0.2590883818631985,0,0]","","","","","","","","",""
"","","paired-cat-display","170","1.0.0","510713","test","3","","","","","","","","","paired_cat_display","2","train","16","","","","","","","","","","6037.299999952316","","","","","","","14866.699999928474","brown or gray and more solid","","","","more pores than gabbro",""
"1101","","html-button-response","172","2.0.0","511816","test","3","","","","","","","","0","start_test","","","","","","","","","","","","","","","","","","","","","","","","","",""
"2088","","html-button-response","173","2.0.0","513906","test","3","","","","","","","<img src= ""rock_img/I_Obsidian_14.jpg"" style=""width:8cm; height:7.64cm;""><p>What type of rock is this?</p>","4","class_response","2","test","2","Obsidian","Obsidian","14","true","5","5","","","","","","","","","","","","","","","","",""
"null","","html-keyboard-response","174","2.0.0","514408","test","3","","","","","","","<p style='font-size: 30px;'><strong>Okay</strong></p>","null","neutral_feedback","2","test","2","","","","","","","","","","","","","","","","","","","","","","",""
"1229","","html-button-response","175","2.0.0","515640","test","3","","","","","","","<img src= ""rock_img/I_Pumice_02.jpg"" style=""width:8cm; height:7.3999999999999995cm;""><p>What type of rock is this?</p>","7","class_response","2","test","3","Pumice","Pumice","02","true","8","8","","","","","","","","","","","","","","","","",""
"null","","html-keyboard-response","176","2.0.0","516142","test","3","","","","","","","<p style='font-size: 30px;'><strong>Okay</strong></p>","null","neutral_feedback","2","test","3","","","","","","","","","","","","","","","","","","","","","","",""
"3585","","html-button-response","177","2.0.0","519730","test","3","","","","","","","<img src= ""rock_img/I_Pegmatite_09.jpg"" style=""width:8cm; height:4.03cm;""><p>What type of rock is this?</p>","5","class_response","2","test","4","Pegmatite","Pegmatite","09","true","6","6","","","","","","","","","","","","","","","","",""
"null","","html-keyboard-response","178","2.0.0","520232","test","3","","","","","","","<p style='font-size: 30px;'><strong>Okay</strong></p>","null","neutral_feedback","2","test","4","","","","","","","","","","","","","","","","","","","","","","",""
"4295","","html-button-response","179","2.0.0","524530","test","3","","","","","","","<img src= ""rock_img/I_Peridotite_14.jpg"" style=""width:8cm; height:5.3cm;""><p>What type of rock is this?</p>","1","class_response","2","test","5","Basalt","Peridotite","14","false","2","7","","","","","","","","","","","","","","","","",""
"null","","html-keyboard-response","180","2.0.0","525032","test","3","","","","","","","<p style='font-size: 30px;'><strong>Okay</strong></p>","null","neutral_feedback","2","test","5","","","","","","","","","","","","","","","","","","","","","","",""
"1363","","html-button-response","181","2.0.0","526397","test","3","","","","","","","<img src= ""rock_img/I_Pegmatite_16.jpg"" style=""width:8cm; height:5.8cm;""><p>What type of rock is this?</p>","5","class_response","2","test","6","Pegmatite","Pegmatite","16","true","6","6","","","","","","","","","","","","","","","","",""
"null","","html-keyboard-response","182","2.0.0","526899","test","3","","","","","","","<p style='font-size: 30px;'><strong>Okay</strong></p>","null","neutral_feedback","2","test","6","","","","","","","","","","","","","","","","","","","","","","",""
"1071","","html-button-response","183","2.0.0","527972","test","3","","","","","","","<img src= ""rock_img/I_Obsidian_06.jpg"" style=""width:8cm; height:6.8cm;""><p>What type of rock is this?</p>","4","class_response","2","test","7","Obsidian","Obsidian","06","true","5","5","","","","","","","","","","","","","","","","",""
"null","","html-keyboard-response","184","2.0.0","528474","test","3","","","","","","","<p style='font-size: 30px;'><strong>Okay</strong></p>","null","neutral_feedback","2","test","7","","","","","","","","","","","","","","","","","","","","","","",""
"1756","","html-button-response","185","2.0.0","530233","test","3","","","","","","","<img src= ""rock_img/I_Pegmatite_07.jpg"" style=""width:8cm; height:6.7cm;""><p>What type of rock is this?</p>","2","class_response","2","test","8","Diorite","Pegmatite","07","false","3","6","","","","","","","","","","","","","","","","",""
"null","","html-keyboard-response","186","2.0.0","530736","test","3","","","","","","","<p style='font-size: 30px;'><strong>Okay</strong></p>","null","neutral_feedback","2","test","8","","","","","","","","","","","","","","","","","","","","","","",""
"2890","","html-button-response","187","2.0.0","533628","test","3","","","","","","","<img src= ""rock_img/I_Andesite_02.jpg"" style=""width:8cm; height:8.5cm;""><p>What type of rock is this?</p>","1","class_response","2","test","9","Basalt","Andesite","02","false","2","1","","","","","","","","","","","","","","","","",""
"null","","html-keyboard-response","188","2.0.0","534130","test","3","","","","","","","<p style='font-size: 30px;'><strong>Okay</strong></p>","null","neutral_feedback","2","test","9","","","","","","","","","","","","","","","","","","","","","","",""
"2739","","html-button-response","189","2.0.0","536871","test","3","","","","","","","<img src= ""rock_img/I_Diorite_16.jpg"" style=""width:8cm; height:6.74cm;""><p>What type of rock is this?</p>","6","class_response","2","test","10","Peridotite","Diorite","16","false","7","3","","","","","","","","","","","","","","","","",""
"null","","html-keyboard-response","190","2.0.0","537373","test","3","","","","","","","<p style='font-size: 30px;'><strong>Okay</strong></p>","null","neutral_feedback","2","test","10","","","","","","","","","","","","","","","","","","","","","","",""
"2222","","html-button-response","191","2.0.0","539597","test","3","","","","","","","<img src= ""rock_img/I_Obsidian_12.jpg"" style=""width:8cm; height:6.53cm;""><p>What type of rock is this?</p>","4","class_response","2","test","11","Obsidian","Obsidian","12","true","5","5","","","","","","","","","","","","","","","","",""
"null","","html-keyboard-response","192","2.0.0","540098","test","3","","","","","","","<p style='font-size: 30px;'><strong>Okay</strong></p>","null","neutral_feedback","2","test","11","","","","","","","","","","","","","","","","","","","","","","",""
"2463","","html-button-response","193","2.0.0","542565","test","3","","","","","","","<img src= ""rock_img/I_Diorite_11.jpg"" style=""width:8cm; height:7.11cm;""><p>What type of rock is this?</p>","6","class_response","2","test","12","Peridotite","Diorite","11","false","7","3","","","","","","","","","","","","","","","","",""
"null","","html-keyboard-response","194","2.0.0","543067","test","3","","","","","","","<p style='font-size: 30px;'><strong>Okay</strong></p>","null","neutral_feedback","2","test","12","","","","","","","","","","","","","","","","","","","","","","",""
"1346","","html-button-response","195","2.0.0","544415","test","3","","","","","","","<img src= ""rock_img/I_Andesite_03.jpg"" style=""width:8cm; height:5.73cm;""><p>What type of rock is this?</p>","2","class_response","2","test","13","Diorite","Andesite","03","false","3","1","","","","","","","","","","","","","","","","",""
"null","","html-keyboard-response","196","2.0.0","544917","test","3","","","","","","","<p style='font-size: 30px;'><strong>Okay</strong></p>","null","neutral_feedback","2","test","13","","","","","","","","","","","","","","","","","","","","","","",""
"2180","","html-button-response","197","2.0.0","547099","test","3","","","","","","","<img src= ""rock_img/I_Diorite_13.jpg"" style=""width:8cm; height:6.29cm;""><p>What type of rock is this?</p>","6","class_response","2","test","14","Peridotite","Diorite","13","false","7","3","","","","","","","","","","","","","","","","",""
"null","","html-keyboard-response","198","2.0.0","547601","test","3","","","","","","","<p style='font-size: 30px;'><strong>Okay</strong></p>","null","neutral_feedback","2","test","14","","","","","","","","","","","","","","","","","","","","","","",""
"1429","","html-button-response","199","2.0.0","549033","test","3","","","","","","","<img src= ""rock_img/I_Gabbro_12.jpg"" style=""width:8cm; height:7.800000000000001cm;""><p>What type of rock is this?</p>","0","class_response","2","test","15","Andesite","Gabbro","12","false","1","4","","","","","","","","","","","","","","","","",""
"null","","html-keyboard-response","200","2.0.0","549535","test","3","","","","","","","<p style='font-size: 30px;'><strong>Okay</strong></p>","null","neutral_feedback","2","test","15","","","","","","","","","","","","","","","","","","","","","","",""
"2057","","html-button-response","201","2.0.0","551594","test","3","","","","","","","<img src= ""rock_img/I_Gabbro_10.jpg"" style=""width:8cm; height:5.680000000000001cm;""><p>What type of rock is this?</p>","3","class_response","2","test","16","Gabbro","Gabbro","10","true","4","4","","","","","","","","","","","","","","","","",""
"null","","html-keyboard-response","202","2.0.0","552096","test","3","","","","","","","<p style='font-size: 30px;'><strong>Okay</strong></p>","null","neutral_feedback","2","test","16","","","","","","","","","","","","","","","","","","","","","","",""
"1079","","html-button-response","203","2.0.0","553177","test","3","","","","","","","<img src= ""rock_img/I_Pumice_04.jpg"" style=""width:8cm; height:6.819999999999999cm;""><p>What type of rock is this?</p>","7","class_response","2","test","17","Pumice","Pumice","04","true","8","8","","","","","","","","","","","","","","","","",""
"null","","html-keyboard-response","204","2.0.0","553678","test","3","","","","","","","<p style='font-size: 30px;'><strong>Okay</strong></p>","null","neutral_feedback","2","test","17","","","","","","","","","","","","","","","","","","","","","","",""
"560","","html-button-response","205","2.0.0","554241","test","3","","","","","","","<img src= ""rock_img/I_Pumice_09.jpg"" style=""width:8cm; height:6.44cm;""><p>What type of rock is this?</p>","7","class_response","2","test","18","Pumice","Pumice","09","true","8","8","","","","","","","","","","","","","","","","",""
"null","","html-keyboard-response","206","2.0.0","554743","test","3","","","","","","","<p style='font-size: 30px;'><strong>Okay</strong></p>","null","neutral_feedback","2","test","18","","","","","","","","","","","","","","","","","","","","","","",""
"1262","","html-button-response","207","2.0.0","556008","test","3","","","","","","","<img src= ""rock_img/I_Basalt_10.jpg"" style=""width:8cm; height:5.85cm;""><p>What type of rock is this?</p>","4","class_response","2","test","19","Obsidian","Basalt","10","false","5","2","","","","","","","","","","","","","","","","",""
"null","","html-keyboard-response","208","2.0.0","556509","test","3","","","","","","","<p style='font-size: 30px;'><strong>Okay</strong></p>","null","neutral_feedback","2","test","19","","","","","","","","","","","","","","","","","","","","","","",""
"1506","","html-button-response","209","2.0.0","558017","test","3","","","","","","","<img src= ""rock_img/I_Andesite_14.jpg"" style=""width:8cm; height:5.449999999999999cm;""><p>What type of rock is this?</p>","5","class_response","2","test","20","Pegmatite","Andesite","14","false","6","1","","","","","","","","","","","","","","","","",""
"null","","html-keyboard-response","210","2.0.0","558518","test","3","","","","","","","<p style='font-size: 30px;'><strong>Okay</strong></p>","null","neutral_feedback","2","test","20","","","","","","","","","","","","","","","","","","","","","","",""
"2739","","html-button-response","211","2.0.0","561259","test","3","","","","","","","<img src= ""rock_img/I_Peridotite_06.jpg"" style=""width:8cm; height:7.53cm;""><p>What type of rock is this?</p>","6","class_response","2","test","21","Peridotite","Peridotite","06","true","7","7","","","","","","","","","","","","","","","","",""
"null","","html-keyboard-response","212","2.0.0","561761","test","3","","","","","","","<p style='font-size: 30px;'><strong>Okay</strong></p>","null","neutral_feedback","2","test","21","","","","","","","","","","","","","","","","","","","","","","",""
"1053","","html-button-response","213","2.0.0","562817","test","3","","","","","","","<img src= ""rock_img/I_Gabbro_14.jpg"" style=""width:8cm; height:8.48cm;""><p>What type of rock is this?</p>","2","class_response","2","test","22","Diorite","Gabbro","14","false","3","4","","","","","","","","","","","","","","","","",""
"null","","html-keyboard-response","214","2.0.0","563318","test","3","","","","","","","<p style='font-size: 30px;'><strong>Okay</strong></p>","null","neutral_feedback","2","test","22","","","","","","","","","","","","","","","","","","","","","","",""
"1227","","html-button-response","215","2.0.0","564548","test","3","","","","","","","<img src= ""rock_img/I_Peridotite_08.jpg"" style=""width:8cm; height:6.7cm;""><p>What type of rock is this?</p>","2","class_response","2","test","23","Diorite","Peridotite","08","false","3","7","","","","","","","","","","","","","","","","",""
"null","","html-keyboard-response","216","2.0.0","565048","test","3","","","","","","","<p style='font-size: 30px;'><strong>Okay</strong></p>","null","neutral_feedback","2","test","23","","","","","","","","","","","","","","","","","","","","","","",""
"2248","","html-button-response","217","2.0.0","567297","test","3","","","","","","","<img src= ""rock_img/I_Basalt_14.jpg"" style=""width:8cm; height:5.82cm;""><p>What type of rock is this?</p>","1","class_response","2","test","24","Basalt","Basalt","14","true","2","2","","","","","","","","","","","","","","","","",""
"null","","html-keyboard-response","218","2.0.0","567799","test","3","","","","","","","<p style='font-size: 30px;'><strong>Okay</strong></p>","null","neutral_feedback","2","test","24","","","","","","","","","","","","","","","","","","","","","","",""
"2899","","html-button-response","219","2.0.0","570700","test","3","","","","","","","<img src= ""rock_img/I_Basalt_04.jpg"" style=""width:8cm; height:7.53cm;""><p>What type of rock is this?</p>","1","class_response","2","test","25","Basalt","Basalt","04","true","2","2","","","","","","","","","","","","","","","","",""
"null","","html-keyboard-response","220","2.0.0","571201","test","3","","","","","","","<p style='font-size: 30px;'><strong>Okay</strong></p>","null","neutral_feedback","2","test","25","","","","","","","","","","","","","","","","","","","","","","",""
"","","html-button-response","221","2.0.0","575973","test","3","","","","","","","","","cycle_feedback","","","","","","","","","","","","","","","","","","","","","","3119.5","1644.8000000715256","","",""
"905","","html-button-response","223","2.0.0","576881","test","3","","","","","","","","0","start_train","","","","","","","","","","","","","","","","","","","","","","","","","",""
"1733","","html-button-response","224","2.0.0","578616","test","3","","","","","","","<img src= ""rock_img/I_Basalt_11.jpg"" style=""width:8cm; height:5.359999999999999cm;""><p>What type of rock is this?</p>","1","class_response","3","train","2","Basalt","Basalt","11","true","2","2","","","","","","","","","","","","","","","","",""
"2827","","html-button-response","225","2.0.0","581446","test","3","","","","","","","<img src= rock_img/I_Basalt_11.jpg style=""width:8cm; height:5.359999999999999cm;""><p style='font-size: 30px; color: green;'><strong>Correct!</strong></p><p style='font-size: 30px;'><strong>This rock is basalt</strong></p>","0","corr_feedback","3","train","2","","","","","","","","","","","","","","","","","","","","","","",""
"3127","","html-button-response","226","2.0.0","584575","test","3","","","","","","","<img src= ""rock_img/I_Pumice_05.jpg"" style=""width:8cm; height:7.25cm;""><p>What type of rock is this?</p>","7","class_response","3","train","3","Pumice","Pumice","05","true","8","8","","","","","","","","","","","","","","","","",""
"725","","html-button-response","227","2.0.0","585301","test","3","","","","","","","<img src= rock_img/I_Pumice_05.jpg style=""width:8cm; height:7.25cm;""><p style='font-size: 30px; color: green;'><strong>Correct!</strong></p><p style='font-size: 30px;'><strong>This rock is pumice</strong></p>","0","corr_feedback","3","train","3","","","","","","","","","","","","","","","","","","","","","","",""
"1122","","html-button-response","228","2.0.0","586424","test","3","","","","","","","<img src= ""rock_img/I_Pegmatite_08.jpg"" style=""width:8cm; height:7.68cm;""><p>What type of rock is this?</p>","4","class_response","3","train","4","Obsidian","Pegmatite","08","false","5","6","","","","","","","","","","","","","","","","",""
"1438","","html-button-response","229","2.0.0","587863","test","3","","","","","","","<img src= rock_img/I_Pegmatite_08.jpg style=""width:8cm; height:7.68cm;""><p style='font-size: 30px; color: red;'><strong>Incorrect!</strong></p><p style='font-size: 30px;'><strong>This rock is pegmatite</strong></p>","0","corr_feedback","3","train","4","","","","","","","","","","","","","","","","","","","","","","",""
"2920","","html-button-response","230","2.0.0","590785","test","3","","","","","","","<img src= ""rock_img/I_Andesite_07.jpg"" style=""width:8cm; height:5.93cm;""><p>What type of rock is this?</p>","6","class_response","3","train","5","Peridotite","Andesite","07","false","7","1","","","","","","","","","","","","","","","","",""
"918","","html-button-response","231","2.0.0","591705","test","3","","","","","","","<img src= rock_img/I_Andesite_07.jpg style=""width:8cm; height:5.93cm;""><p style='font-size: 30px; color: red;'><strong>Incorrect!</strong></p><p style='font-size: 30px;'><strong>This rock is andesite</strong></p>","0","corr_feedback","3","train","5","","","","","","","","","","","","","","","","","","","","","","",""
"949","","html-button-response","232","2.0.0","592656","test","3","","","","","","","<img src= ""rock_img/I_Diorite_09.jpg"" style=""width:8cm; height:5.27cm;""><p>What type of rock is this?</p>","0","class_response","3","train","6","Andesite","Diorite","09","false","1","3","","","","","","","","","","","","","","","","",""
"959","","html-button-response","233","2.0.0","593617","test","3","","","","","","","<img src= rock_img/I_Diorite_09.jpg style=""width:8cm; height:5.27cm;""><p style='font-size: 30px; color: red;'><strong>Incorrect!</strong></p><p style='font-size: 30px;'><strong>This rock is diorite</strong></p>","0","corr_feedback","3","train","6","","","","","","","","","","","","","","","","","","","","","","",""
"2330","","html-button-response","234","2.0.0","595949","test","3","","","","","","","<img src= ""rock_img/I_Peridotite_02.jpg"" style=""width:8cm; height:5.859999999999999cm;""><p>What type of rock is this?</p>","5","class_response","3","train","7","Pegmatite","Peridotite","02","false","6","7","","","","","","","","","","","","","","","","",""
"739","","html-button-response","235","2.0.0","596690","test","3","","","","","","","<img src= rock_img/I_Peridotite_02.jpg style=""width:8cm; height:5.859999999999999cm;""><p style='font-size: 30px; color: red;'><strong>Incorrect!</strong></p><p style='font-size: 30px;'><strong>This rock is peridotite</strong></p>","0","corr_feedback","3","train","7","","","","","","","","","","","","","","","","","","","","","","",""
"2140","","html-button-response","236","2.0.0","598831","test","3","","","","","","","<img src= ""rock_img/I_Basalt_02.jpg"" style=""width:8cm; height:6.45cm;""><p>What type of rock is this?</p>","1","class_response","3","train","8","Basalt","Basalt","02","true","2","2","","","","","","","","","","","","","","","","",""
"693","","html-button-response","237","2.0.0","599525","test","3","","","","","","","<img src= rock_img/I_Basalt_02.jpg style=""width:8cm; height:6.45cm;""><p style='font-size: 30px; color: green;'><strong>Correct!</strong></p><p style='font-size: 30px;'><strong>This rock is basalt</strong></p>","0","corr_feedback","3","train","8","","","","","","","","","","","","","","","","","","","","","","",""
"1042","","html-button-response","238","2.0.0","600568","test","3","","","","","","","<img src= ""rock_img/I_Pumice_03.jpg"" style=""width:8cm; height:6.64cm;""><p>What type of rock is this?</p>","7","class_response","3","train","9","Pumice","Pumice","03","true","8","8","","","","","","","","","","","","","","","","",""
"577","","html-button-response","239","2.0.0","601146","test","3","","","","","","","<img src= rock_img/I_Pumice_03.jpg style=""width:8cm; height:6.64cm;""><p style='font-size: 30px; color: green;'><strong>Correct!</strong></p><p style='font-size: 30px;'><strong>This rock is pumice</strong></p>","0","corr_feedback","3","train","9","","","","","","","","","","","","","","","","","","","","","","",""
"2308","","html-button-response","240","2.0.0","603456","test","3","","","","","","","<img src= ""rock_img/I_Pegmatite_06.jpg"" style=""width:8cm; height:5.17cm;""><p>What type of rock is this?</p>","5","class_response","3","train","10","Pegmatite","Pegmatite","06","true","6","6","","","","","","","","","","","","","","","","",""
"652","","html-button-response","241","2.0.0","604110","test","3","","","","","","","<img src= rock_img/I_Pegmatite_06.jpg style=""width:8cm; height:5.17cm;""><p style='font-size: 30px; color: green;'><strong>Correct!</strong></p><p style='font-size: 30px;'><strong>This rock is pegmatite</strong></p>","0","corr_feedback","3","train","10","","","","","","","","","","","","","","","","","","","","","","",""
"1238","","html-button-response","242","2.0.0","605349","test","3","","","","","","","<img src= ""rock_img/I_Gabbro_16.jpg"" style=""width:8cm; height:6.44cm;""><p>What type of rock is this?</p>","6","class_response","3","train","11","Peridotite","Gabbro","16","false","7","4","","","","","","","","","","","","","","","","",""
"674","","html-button-response","243","2.0.0","606024","test","3","","","","","","","<img src= rock_img/I_Gabbro_16.jpg style=""width:8cm; height:6.44cm;""><p style='font-size: 30px; color: red;'><strong>Incorrect!</strong></p><p style='font-size: 30px;'><strong>This rock is gabbro</strong></p>","0","corr_feedback","3","train","11","","","","","","","","","","","","","","","","","","","","","","",""
"1149","","html-button-response","244","2.0.0","607174","test","3","","","","","","","<img src= ""rock_img/I_Obsidian_05.jpg"" style=""width:8cm; height:6.33cm;""><p>What type of rock is this?</p>","4","class_response","3","train","12","Obsidian","Obsidian","05","true","5","5","","","","","","","","","","","","","","","","",""
"503","","html-button-response","245","2.0.0","607678","test","3","","","","","","","<img src= rock_img/I_Obsidian_05.jpg style=""width:8cm; height:6.33cm;""><p style='font-size: 30px; color: green;'><strong>Correct!</strong></p><p style='font-size: 30px;'><strong>This rock is obsidian</strong></p>","0","corr_feedback","3","train","12","","","","","","","","","","","","","","","","","","","","","","",""
"2292","","html-button-response","246","2.0.0","609971","test","3","","","","","","","<img src= ""rock_img/I_Diorite_14.jpg"" style=""width:8cm; height:5.71cm;""><p>What type of rock is this?</p>","5","class_response","3","train","13","Pegmatite","Diorite","14","false","6","3","","","","","","","","","","","","","","","","",""
"765","","html-button-response","247","2.0.0","610738","test","3","","","","","","","<img src= rock_img/I_Diorite_14.jpg style=""width:8cm; height:5.71cm;""><p style='font-size: 30px; color: red;'><strong>Incorrect!</strong></p><p style='font-size: 30px;'><strong>This rock is diorite</strong></p>","0","corr_feedback","3","train","13","","","","","","","","","","","","","","","","","","","","","","",""
"","","html-button-response","249","2.0.0","611783","test","3","","","","","","","","","cat_selection","3","train","14","","","","","","","","3","7","1043","Diorite","Peridotite","[0,0,0.37812094750477876,0.32137699332446634,0,0,0.300502059170755,0]","[0,0,0,0.5641995214053106,0,0.25905968332749757,0.17674079526719177,0]","","","","","","","","",""
"","","paired-cat-display","250","1.0.0","629340","test","3","","","","","","","","","paired_cat_display","3","train","14","","","","","","","","","","6473.5","","","","","","dark background with light pseckles","11081.399999976158","","","","","","more of green tint"
"","","html-button-response","251","2.0.0","630340","test","3","","","","","","","","","cat_selection","3","train","15","","","","","","","","7","3","998.6999999284744","Peridotite","Diorite","[0,0,0.37812094750477876,0.32137699332446634,0,0,0.300502059170755,0]","[0.016400731065213506,0,0.9662509031298697,0,0.017348365804916666,0,0,0]","","","","","","","","",""
"","","paired-cat-display","252","1.0.0","645400","test","3","","","","","","","","","paired_cat_display","3","train","15","","","","","","","","","","5864.100000023842","","","","","","light background with dark speckles","9193.199999928474","","","","","","more of a green tiny"
"","","html-button-response","253","2.0.0","646183","test","3","","","","","","","","","cat_selection","3","train","16","","","","","","","","3","4","782.1999999284744","Diorite","Gabbro","[0,0,0.37812094750477876,0.32137699332446634,0,0,0.300502059170755,0]","[0,0,0,0.5641995214053106,0,0.25905968332749757,0.17674079526719177,0]","","","","","","","","",""
"","","paired-cat-display","254","1.0.0","667249","test","3","","","","","","","","","paired_cat_display","3","train","16","","","","","","","","","","7859.299999952316","","","","","","light background with dark speckles","13203.100000023842","brown or gray and more solid","","","","",""
"1146","","html-button-response","256","2.0.0","668396","test","3","","","","","","","","0","start_test","","","","","","","","","","","","","","","","","","","","","","","","","",""
"4985","","html-button-response","257","2.0.0","673383","test","3","","","","","","","<img src= ""rock_img/I_Pegmatite_07.jpg"" style=""width:8cm; height:6.7cm;""><p>What type of rock is this?</p>","2","class_response","3","test","2","Diorite","Pegmatite","07","false","3","6","","","","","","","","","","","","","","","","",""
"null","","html-keyboard-response","258","2.0.0","673885","test","3","","","","","","","<p style='font-size: 30px;'><strong>Okay</strong></p>","null","neutral_feedback","3","test","2","","","","","","","","","","","","","","","","","","","","","","",""
"3125","","html-button-response","259","2.0.0","677013","test","3","","","","","","","<img src= ""rock_img/I_Gabbro_14.jpg"" style=""width:8cm; height:8.48cm;""><p>What type of rock is this?</p>","3","class_response","3","test","3","Gabbro","Gabbro","14","true","4","4","","","","","","","","","","","","","","","","",""
"null","","html-keyboard-response","260","2.0.0","677514","test","3","","","","","","","<p style='font-size: 30px;'><strong>Okay</strong></p>","null","neutral_feedback","3","test","3","","","","","","","","","","","","","","","","","","","","","","",""
"3061","","html-button-response","261","2.0.0","680578","test","3","","","","","","","<img src= ""rock_img/I_Basalt_04.jpg"" style=""width:8cm; height:7.53cm;""><p>What type of rock is this?</p>","3","class_response","3","test","4","Gabbro","Basalt","04","false","4","2","","","","","","","","","","","","","","","","",""
"null","","html-keyboard-response","262","2.0.0","681080","test","3","","","","","","","<p style='font-size: 30px;'><strong>Okay</strong></p>","null","neutral_feedback","3","test","4","","","","","","","","","","","","","","","","","","","","","","",""
"4641","","html-button-response","263","2.0.0","685723","test","3","","","","","","","<img src= ""rock_img/I_Diorite_11.jpg"" style=""width:8cm; height:7.11cm;""><p>What type of rock is this?</p>","0","class_response","3","test","5","Andesite","Diorite","11","false","1","3","","","","","","","","","","","","","","","","",""
"null","","html-keyboard-response","264","2.0.0","686225","test","3","","","","","","","<p style='font-size: 30px;'><strong>Okay</strong></p>","null","neutral_feedback","3","test","5","","","","","","","","","","","","","","","","","","","","","","",""
"3001","","html-button-response","265","2.0.0","689229","test","3","","","","","","","<img src= ""rock_img/I_Peridotite_08.jpg"" style=""width:8cm; height:6.7cm;""><p>What type of rock is this?</p>","5","class_response","3","test","6","Pegmatite","Peridotite","08","false","6","7","","","","","","","","","","","","","","","","",""
"null","","html-keyboard-response","266","2.0.0","689731","test","3","","","","","","","<p style='font-size: 30px;'><strong>Okay</strong></p>","null","neutral_feedback","3","test","6","","","","","","","","","","","","","","","","","","","","","","",""
"4380","","html-button-response","267","2.0.0","694114","test","3","","","","","","","<img src= ""rock_img/I_Diorite_13.jpg"" style=""width:8cm; height:6.29cm;""><p>What type of rock is this?</p>","2","class_response","3","test","7","Diorite","Diorite","13","true","3","3","","","","","","","","","","","","","","","","",""
"null","","html-keyboard-response","268","2.0.0","694615","test","3","","","","","","","<p style='font-size: 30px;'><strong>Okay</strong></p>","null","neutral_feedback","3","test","7","","","","","","","","","","","","","","","","","","","","","","",""
"5033","","html-button-response","269","2.0.0","699651","test","3","","","","","","","<img src= ""rock_img/I_Gabbro_10.jpg"" style=""width:8cm; height:5.680000000000001cm;""><p>What type of rock is this?</p>","1","class_response","3","test","8","Basalt","Gabbro","10","false","2","4","","","","","","","","","","","","","","","","",""
"null","","html-keyboard-response","270","2.0.0","700153","test","3","","","","","","","<p style='font-size: 30px;'><strong>Okay</strong></p>","null","neutral_feedback","3","test","8","","","","","","","","","","","","","","","","","","","","","","",""
"1342","","html-button-response","271","2.0.0","701498","test","3","","","","","","","<img src= ""rock_img/I_Diorite_16.jpg"" style=""width:8cm; height:6.74cm;""><p>What type of rock is this?</p>","6","class_response","3","test","9","Peridotite","Diorite","16","false","7","3","","","","","","","","","","","","","","","","",""
"null","","html-keyboard-response","272","2.0.0","702000","test","3","","","","","","","<p style='font-size: 30px;'><strong>Okay</strong></p>","null","neutral_feedback","3","test","9","","","","","","","","","","","","","","","","","","","","","","",""
"2248","","html-button-response","273","2.0.0","704250","test","3","","","","","","","<img src= ""rock_img/I_Basalt_10.jpg"" style=""width:8cm; height:5.85cm;""><p>What type of rock is this?</p>","1","class_response","3","test","10","Basalt","Basalt","10","true","2","2","","","","","","","","","","","","","","","","",""
"null","","html-keyboard-response","274","2.0.0","704753","test","3","","","","","","","<p style='font-size: 30px;'><strong>Okay</strong></p>","null","neutral_feedback","3","test","10","","","","","","","","","","","","","","","","","","","","","","",""
"2327","","html-button-response","275","2.0.0","707082","test","3","","","","","","","<img src= ""rock_img/I_Basalt_14.jpg"" style=""width:8cm; height:5.82cm;""><p>What type of rock is this?</p>","1","class_response","3","test","11","Basalt","Basalt","14","true","2","2","","","","","","","","","","","","","","","","",""
"null","","html-keyboard-response","276","2.0.0","707584","test","3","","","","","","","<p style='font-size: 30px;'><strong>Okay</strong></p>","null","neutral_feedback","3","test","11","","","","","","","","","","","","","","","","","","","","","","",""
"1394","","html-button-response","277","2.0.0","708980","test","3","","","","","","","<img src= ""rock_img/I_Andesite_02.jpg"" style=""width:8cm; height:8.5cm;""><p>What type of rock is this?</p>","1","class_response","3","test","12","Basalt","Andesite","02","false","2","1","","","","","","","","","","","","","","","","",""
"null","","html-keyboard-response","278","2.0.0","709482","test","3","","","","","","","<p style='font-size: 30px;'><strong>Okay</strong></p>","null","neutral_feedback","3","test","12","","","","","","","","","","","","","","","","","","","","","","",""
"3750","","html-button-response","279","2.0.0","713234","test","3","","","","","","","<img src= ""rock_img/I_Peridotite_06.jpg"" style=""width:8cm; height:7.53cm;""><p>What type of rock is this?</p>","2","class_response","3","test","13","Diorite","Peridotite","06","false","3","7","","","","","","","","","","","","","","","","",""
"null","","html-keyboard-response","280","2.0.0","713736","test","3","","","","","","","<p style='font-size: 30px;'><strong>Okay</strong></p>","null","neutral_feedback","3","test","13","","","","","","","","","","","","","","","","","","","","","","",""
"974","","html-button-response","281","2.0.0","714713","test","3","","","","","","","<img src= ""rock_img/I_Pumice_09.jpg"" style=""width:8cm; height:6.44cm;""><p>What type of rock is this?</p>","7","class_response","3","test","14","Pumice","Pumice","09","true","8","8","","","","","","","","","","","","","","","","",""
"null","","html-keyboard-response","282","2.0.0","715215","test","3","","","","","","","<p style='font-size: 30px;'><strong>Okay</strong></p>","null","neutral_feedback","3","test","14","","","","","","","","","","","","","","","","","","","","","","",""
"1016","","html-button-response","283","2.0.0","716233","test","3","","","","","","","<img src= ""rock_img/I_Obsidian_12.jpg"" style=""width:8cm; height:6.53cm;""><p>What type of rock is this?</p>","4","class_response","3","test","15","Obsidian","Obsidian","12","true","5","5","","","","","","","","","","","","","","","","",""
"null","","html-keyboard-response","284","2.0.0","716735","test","3","","","","","","","<p style='font-size: 30px;'><strong>Okay</strong></p>","null","neutral_feedback","3","test","15","","","","","","","","","","","","","","","","","","","","","","",""
"1200","","html-button-response","285","2.0.0","717937","test","3","","","","","","","<img src= ""rock_img/I_Pumice_04.jpg"" style=""width:8cm; height:6.819999999999999cm;""><p>What type of rock is this?</p>","7","class_response","3","test","16","Pumice","Pumice","04","true","8","8","","","","","","","","","","","","","","","","",""
"null","","html-keyboard-response","286","2.0.0","718439","test","3","","","","","","","<p style='font-size: 30px;'><strong>Okay</strong></p>","null","neutral_feedback","3","test","16","","","","","","","","","","","","","","","","","","","","","","",""
"1879","","html-button-response","287","2.0.0","720319","test","3","","","","","","","<img src= ""rock_img/I_Andesite_14.jpg"" style=""width:8cm; height:5.449999999999999cm;""><p>What type of rock is this?</p>","2","class_response","3","test","17","Diorite","Andesite","14","false","3","1","","","","","","","","","","","","","","","","",""
"null","","html-keyboard-response","288","2.0.0","720821","test","3","","","","","","","<p style='font-size: 30px;'><strong>Okay</strong></p>","null","neutral_feedback","3","test","17","","","","","","","","","","","","","","","","","","","","","","",""
"2239","","html-button-response","289","2.0.0","723064","test","3","","","","","","","<img src= ""rock_img/I_Peridotite_14.jpg"" style=""width:8cm; height:5.3cm;""><p>What type of rock is this?</p>","6","class_response","3","test","18","Peridotite","Peridotite","14","true","7","7","","","","","","","","","","","","","","","","",""
"null","","html-keyboard-response","290","2.0.0","723566","test","3","","","","","","","<p style='font-size: 30px;'><strong>Okay</strong></p>","null","neutral_feedback","3","test","18","","","","","","","","","","","","","","","","","","","","","","",""
"2134","","html-button-response","291","2.0.0","725703","test","3","","","","","","","<img src= ""rock_img/I_Gabbro_12.jpg"" style=""width:8cm; height:7.800000000000001cm;""><p>What type of rock is this?</p>","3","class_response","3","test","19","Gabbro","Gabbro","12","true","4","4","","","","","","","","","","","","","","","","",""
"null","","html-keyboard-response","292","2.0.0","726204","test","3","","","","","","","<p style='font-size: 30px;'><strong>Okay</strong></p>","null","neutral_feedback","3","test","19","","","","","","","","","","","","","","","","","","","","","","",""
"2499","","html-button-response","293","2.0.0","728706","test","3","","","","","","","<img src= ""rock_img/I_Andesite_03.jpg"" style=""width:8cm; height:5.73cm;""><p>What type of rock is this?</p>","0","class_response","3","test","20","Andesite","Andesite","03","true","1","1","","","","","","","","","","","","","","","","",""
"null","","html-keyboard-response","294","2.0.0","729208","test","3","","","","","","","<p style='font-size: 30px;'><strong>Okay</strong></p>","null","neutral_feedback","3","test","20","","","","","","","","","","","","","","","","","","","","","","",""
"2654","","html-button-response","295","2.0.0","731864","test","3","","","","","","","<img src= ""rock_img/I_Pegmatite_09.jpg"" style=""width:8cm; height:4.03cm;""><p>What type of rock is this?</p>","2","class_response","3","test","21","Diorite","Pegmatite","09","false","3","6","","","","","","","","","","","","","","","","",""
"null","","html-keyboard-response","296","2.0.0","732366","test","3","","","","","","","<p style='font-size: 30px;'><strong>Okay</strong></p>","null","neutral_feedback","3","test","21","","","","","","","","","","","","","","","","","","","","","","",""
"1145","","html-button-response","297","2.0.0","733514","test","3","","","","","","","<img src= ""rock_img/I_Obsidian_06.jpg"" style=""width:8cm; height:6.8cm;""><p>What type of rock is this?</p>","4","class_response","3","test","22","Obsidian","Obsidian","06","true","5","5","","","","","","","","","","","","","","","","",""
"null","","html-keyboard-response","298","2.0.0","734016","test","3","","","","","","","<p style='font-size: 30px;'><strong>Okay</strong></p>","null","neutral_feedback","3","test","22","","","","","","","","","","","","","","","","","","","","","","",""
"878","","html-button-response","299","2.0.0","734896","test","3","","","","","","","<img src= ""rock_img/I_Obsidian_14.jpg"" style=""width:8cm; height:7.64cm;""><p>What type of rock is this?</p>","4","class_response","3","test","23","Obsidian","Obsidian","14","true","5","5","","","","","","","","","","","","","","","","",""
"null","","html-keyboard-response","300","2.0.0","735398","test","3","","","","","","","<p style='font-size: 30px;'><strong>Okay</strong></p>","null","neutral_feedback","3","test","23","","","","","","","","","","","","","","","","","","","","","","",""
"1106","","html-button-response","301","2.0.0","736506","test","3","","","","","","","<img src= ""rock_img/I_Pumice_02.jpg"" style=""width:8cm; height:7.3999999999999995cm;""><p>What type of rock is this?</p>","7","class_response","3","test","24","Pumice","Pumice","02","true","8","8","","","","","","","","","","","","","","","","",""
"null","","html-keyboard-response","302","2.0.0","737008","test","3","","","","","","","<p style='font-size: 30px;'><strong>Okay</strong></p>","null","neutral_feedback","3","test","24","","","","","","","","","","","","","","","","","","","","","","",""
"2727","","html-button-response","303","2.0.0","739736","test","3","","","","","","","<img src= ""rock_img/I_Pegmatite_16.jpg"" style=""width:8cm; height:5.8cm;""><p>What type of rock is this?</p>","5","class_response","3","test","25","Pegmatite","Pegmatite","16","true","6","6","","","","","","","","","","","","","","","","",""
"null","","html-keyboard-response","304","2.0.0","740238","test","3","","","","","","","<p style='font-size: 30px;'><strong>Okay</strong></p>","null","neutral_feedback","3","test","25","","","","","","","","","","","","","","","","","","","","","","",""
"","","html-button-response","305","2.0.0","745698","test","3","","","","","","","","","cycle_feedback","","","","","","","","","","","","","","","","","","","","","","2103.7000000476837","3350.2999999523163","","",""
"1328","","html-button-response","307","2.0.0","747027","test","3","","","","","","","","0","start_train","","","","","","","","","","","","","","","","","","","","","","","","","",""
"1500","","html-button-response","308","2.0.0","748529","test","3","","","","","","","<img src= ""rock_img/I_Pumice_05.jpg"" style=""width:8cm; height:7.25cm;""><p>What type of rock is this?</p>","7","class_response","4","train","2","Pumice","Pumice","05","true","8","8","","","","","","","","","","","","","","","","",""
"725","","html-button-response","309","2.0.0","749256","test","3","","","","","","","<img src= rock_img/I_Pumice_05.jpg style=""width:8cm; height:7.25cm;""><p style='font-size: 30px; color: green;'><strong>Correct!</strong></p><p style='font-size: 30px;'><strong>This rock is pumice</strong></p>","0","corr_feedback","4","train","2","","","","","","","","","","","","","","","","","","","","","","",""
"2137","","html-button-response","310","2.0.0","751394","test","3","","","","","","","<img src= ""rock_img/I_Peridotite_02.jpg"" style=""width:8cm; height:5.859999999999999cm;""><p>What type of rock is this?</p>","6","class_response","4","train","3","Peridotite","Peridotite","02","true","7","7","","","","","","","","","","","","","","","","",""
"624","","html-button-response","311","2.0.0","752020","test","3","","","","","","","<img src= rock_img/I_Peridotite_02.jpg style=""width:8cm; height:5.859999999999999cm;""><p style='font-size: 30px; color: green;'><strong>Correct!</strong></p><p style='font-size: 30px;'><strong>This rock is peridotite</strong></p>","0","corr_feedback","4","train","3","","","","","","","","","","","","","","","","","","","","","","",""
"1622","","html-button-response","312","2.0.0","753643","test","3","","","","","","","<img src= ""rock_img/I_Basalt_11.jpg"" style=""width:8cm; height:5.359999999999999cm;""><p>What type of rock is this?</p>","2","class_response","4","train","4","Diorite","Basalt","11","false","3","2","","","","","","","","","","","","","","","","",""
"857","","html-button-response","313","2.0.0","754502","test","3","","","","","","","<img src= rock_img/I_Basalt_11.jpg style=""width:8cm; height:5.359999999999999cm;""><p style='font-size: 30px; color: red;'><strong>Incorrect!</strong></p><p style='font-size: 30px;'><strong>This rock is basalt</strong></p>","0","corr_feedback","4","train","4","","","","","","","","","","","","","","","","","","","","","","",""
"2131","","html-button-response","314","2.0.0","756636","test","3","","","","","","","<img src= ""rock_img/I_Andesite_04.jpg"" style=""width:8cm; height:5.96cm;""><p>What type of rock is this?</p>","5","class_response","4","train","5","Pegmatite","Andesite","04","false","6","1","","","","","","","","","","","","","","","","",""
"837","","html-button-response","315","2.0.0","757475","test","3","","","","","","","<img src= rock_img/I_Andesite_04.jpg style=""width:8cm; height:5.96cm;""><p style='font-size: 30px; color: red;'><strong>Incorrect!</strong></p><p style='font-size: 30px;'><strong>This rock is andesite</strong></p>","0","corr_feedback","4","train","5","","","","","","","","","","","","","","","","","","","","","","",""
"937","","html-button-response","316","2.0.0","758414","test","3","","","","","","","<img src= ""rock_img/I_Andesite_07.jpg"" style=""width:8cm; height:5.93cm;""><p>What type of rock is this?</p>","5","class_response","4","train","6","Pegmatite","Andesite","07","false","6","1","","","","","","","","","","","","","","","","",""
"814","","html-button-response","317","2.0.0","759230","test","3","","","","","","","<img src= rock_img/I_Andesite_07.jpg style=""width:8cm; height:5.93cm;""><p style='font-size: 30px; color: red;'><strong>Incorrect!</strong></p><p style='font-size: 30px;'><strong>This rock is andesite</strong></p>","0","corr_feedback","4","train","6","","","","","","","","","","","","","","","","","","","","","","",""
"2905","","html-button-response","318","2.0.0","762137","test","3","","","","","","","<img src= ""rock_img/I_Pegmatite_06.jpg"" style=""width:8cm; height:5.17cm;""><p>What type of rock is this?</p>","5","class_response","4","train","7","Pegmatite","Pegmatite","06","true","6","6","","","","","","","","","","","","","","","","",""
"594","","html-button-response","319","2.0.0","762733","test","3","","","","","","","<img src= rock_img/I_Pegmatite_06.jpg style=""width:8cm; height:5.17cm;""><p style='font-size: 30px; color: green;'><strong>Correct!</strong></p><p style='font-size: 30px;'><strong>This rock is pegmatite</strong></p>","0","corr_feedback","4","train","7","","","","","","","","","","","","","","","","","","","","","","",""
"1540","","html-button-response","320","2.0.0","764275","test","3","","","","","","","<img src= ""rock_img/I_Diorite_14.jpg"" style=""width:8cm; height:5.71cm;""><p>What type of rock is this?</p>","0","class_response","4","train","8","Andesite","Diorite","14","false","1","3","","","","","","","","","","","","","","","","",""
"689","","html-button-response","321","2.0.0","764965","test","3","","","","","","","<img src= rock_img/I_Diorite_14.jpg style=""width:8cm; height:5.71cm;""><p style='font-size: 30px; color: red;'><strong>Incorrect!</strong></p><p style='font-size: 30px;'><strong>This rock is diorite</strong></p>","0","corr_feedback","4","train","8","","","","","","","","","","","","","","","","","","","","","","",""
"1236","","html-button-response","322","2.0.0","766203","test","3","","","","","","","<img src= ""rock_img/I_Obsidian_05.jpg"" style=""width:8cm; height:6.33cm;""><p>What type of rock is this?</p>","4","class_response","4","train","9","Obsidian","Obsidian","05","true","5","5","","","","","","","","","","","","","","","","",""
"559","","html-button-response","323","2.0.0","766763","test","3","","","","","","","<img src= rock_img/I_Obsidian_05.jpg style=""width:8cm; height:6.33cm;""><p style='font-size: 30px; color: green;'><strong>Correct!</strong></p><p style='font-size: 30px;'><strong>This rock is obsidian</strong></p>","0","corr_feedback","4","train","9","","","","","","","","","","","","","","","","","","","","","","",""
"2247","","html-button-response","324","2.0.0","769012","test","3","","","","","","","<img src= ""rock_img/I_Peridotite_10.jpg"" style=""width:8cm; height:5.390000000000001cm;""><p>What type of rock is this?</p>","6","class_response","4","train","10","Peridotite","Peridotite","10","true","7","7","","","","","","","","","","","","","","","","",""
"462","","html-button-response","325","2.0.0","769475","test","3","","","","","","","<img src= rock_img/I_Peridotite_10.jpg style=""width:8cm; height:5.390000000000001cm;""><p style='font-size: 30px; color: green;'><strong>Correct!</strong></p><p style='font-size: 30px;'><strong>This rock is peridotite</strong></p>","0","corr_feedback","4","train","10","","","","","","","","","","","","","","","","","","","","","","",""
"949","","html-button-response","326","2.0.0","770426","test","3","","","","","","","<img src= ""rock_img/I_Obsidian_02.jpg"" style=""width:8cm; height:7.51cm;""><p>What type of rock is this?</p>","4","class_response","4","train","11","Obsidian","Obsidian","02","true","5","5","","","","","","","","","","","","","","","","",""
