"rt","url","trial_type","trial_index","plugin_version","time_elapsed","subject","condition","success","timeout","failed_images","failed_audio","failed_video","view_history","stimulus","response","trialType","cycle","phase","trial","resp","cat","token","corr","resp_num","cat_num","value","time_fb1","time_fb2"
"183443","consent_form.html","external-html","0","2.0.0","183512","rob","1","","","","","","","","","","","","","","","","","","","","",""
"","","preload","1","2.0.0","184851","rob","1","true","false","[]","[]","[]","","","","","","","","","","","","","","","",""
"21108","","fullscreen","2","2.0.0","206969","rob","1","true","","","","","","","","","","","","","","","","","","","",""
"97756","","instructions","3","2.0.0","304726","rob","1","","","","","","[{""page_index"":0,""viewing_time"":15611},{""page_index"":1,""viewing_time"":60120},{""page_index"":2,""viewing_time"":22024}]","","","","","","","","","","","","","","",""
"6846","","html-button-response","4","2.0.0","311574","rob","1","","","","","","","","0","start_test","","","","","","","","","","","",""
"2950","","html-button-response","5","2.0.0","314526","rob","1","","","","","","","<img src= ""rock_img/I_Andesite_03.jpg"" style=""width:8cm; height:5.73cm;""><p>What type of rock is this?</p>","0","class_response","0","test","2","Andesite","Andesite","03","true","1","1","","",""
"null","","html-keyboard-response","6","2.0.0","315031","rob","1","","","","","","","<p style='font-size: 30px;'><strong>Okay</strong></p>","null","neutral_feedback","0","test","2","","","","","","","","",""
"2596","","html-button-response","7","2.0.0","317630","rob","1","","","","","","","<img src= ""rock_img/I_Pegmatite_10.jpg"" style=""width:8cm; height:4.16cm;""><p>What type of rock is this?</p>","5","class_response","0","test","3","Pegmatite","Pegmatite","10","true","6","6","","",""
"null","","html-keyboard-response","8","2.0.0","318141","rob","1","","","","","","","<p style='font-size: 30px;'><strong>Okay</strong></p>","null","neutral_feedback","0","test","3","","","","","","","","",""
"2662","","html-button-response","9","2.0.0","320806","rob","1","","","","","","","<img src= ""rock_img/I_Gabbro_12.jpg"" style=""width:8cm; height:7.800000000000001cm;""><p>What type of rock is this?</p>","3","class_response","0","test","4","Gabbro","Gabbro","12","true","4","4","","",""
"null","","html-keyboard-response","10","2.0.0","321320","rob","1","","","","","","","<p style='font-size: 30px;'><strong>Okay</strong></p>","null","neutral_feedback","0","test","4","","","","","","","","",""
"2979","","html-button-response","11","2.0.0","324302","rob","1","","","","","","","<img src= ""rock_img/I_Obsidian_04.jpg"" style=""width:8cm; height:6.930000000000001cm;""><p>What type of rock is this?</p>","4","class_response","0","test","5","Obsidian","Obsidian","04","true","5","5","","",""
"null","","html-keyboard-response","12","2.0.0","324803","rob","1","","","","","","","<p style='font-size: 30px;'><strong>Okay</strong></p>","null","neutral_feedback","0","test","5","","","","","","","","",""
"9657","","html-button-response","13","2.0.0","334462","rob","1","","","","","","","<img src= ""rock_img/I_Diorite_02.jpg"" style=""width:8cm; height:6.27cm;""><p>What type of rock is this?</p>","2","class_response","0","test","6","Diorite","Diorite","02","true","3","3","","",""
"null","","html-keyboard-response","14","2.0.0","334974","rob","1","","","","","","","<p style='font-size: 30px;'><strong>Okay</strong></p>","null","neutral_feedback","0","test","6","","","","","","","","",""
"4213","","html-button-response","15","2.0.0","339189","rob","1","","","","","","","<img src= ""rock_img/I_Pegmatite_15.jpg"" style=""width:8cm; height:6cm;""><p>What type of rock is this?</p>","5","class_response","0","test","7","Pegmatite","Pegmatite","15","true","6","6","","",""
"null","","html-keyboard-response","16","2.0.0","339697","rob","1","","","","","","","<p style='font-size: 30px;'><strong>Okay</strong></p>","null","neutral_feedback","0","test","7","","","","","","","","",""
"1705","","html-button-response","17","2.0.0","341405","rob","1","","","","","","","<img src= ""rock_img/I_Andesite_11.jpg"" style=""width:8cm; height:4.92cm;""><p>What type of rock is this?</p>","0","class_response","0","test","8","Andesite","Andesite","11","true","1","1","","",""
"null","","html-keyboard-response","18","2.0.0","341909","rob","1","","","","","","","<p style='font-size: 30px;'><strong>Okay</strong></p>","null","neutral_feedback","0","test","8","","","","","","","","",""
"2807","","html-button-response","19","2.0.0","344717","rob","1","","","","","","","<img src= ""rock_img/I_Pumice_13.jpg"" style=""width:8cm; height:8.200000000000001cm;""><p>What type of rock is this?</p>","7","class_response","0","test","9","Pumice","Pumice","13","true","8","8","","",""
"null","","html-keyboard-response","20","2.0.0","345229","rob","1","","","","","","","<p style='font-size: 30px;'><strong>Okay</strong></p>","null","neutral_feedback","0","test","9","","","","","","","","",""
"3421","","html-button-response","21","2.0.0","348653","rob","1","","","","","","","<img src= ""rock_img/I_Obsidian_10.jpg"" style=""width:8cm; height:6.260000000000001cm;""><p>What type of rock is this?</p>","4","class_response","0","test","10","Obsidian","Obsidian","10","true","5","5","","",""
"null","","html-keyboard-response","22","2.0.0","349156","rob","1","","","","","","","<p style='font-size: 30px;'><strong>Okay</strong></p>","null","neutral_feedback","0","test","10","","","","","","","","",""
"6015","","html-button-response","23","2.0.0","355173","rob","1","","","","","","","<img src= ""rock_img/I_Gabbro_15.jpg"" style=""width:8cm; height:6.29cm;""><p>What type of rock is this?</p>","3","class_response","0","test","11","Gabbro","Gabbro","15","true","4","4","","",""
"null","","html-keyboard-response","24","2.0.0","355678","rob","1","","","","","","","<p style='font-size: 30px;'><strong>Okay</strong></p>","null","neutral_feedback","0","test","11","","","","","","","","",""
"1877","","html-button-response","25","2.0.0","357557","rob","1","","","","","","","<img src= ""rock_img/I_Pumice_16.jpg"" style=""width:8cm; height:6.79cm;""><p>What type of rock is this?</p>","7","class_response","0","test","12","Pumice","Pumice","16","true","8","8","","",""
"null","","html-keyboard-response","26","2.0.0","358061","rob","1","","","","","","","<p style='font-size: 30px;'><strong>Okay</strong></p>","null","neutral_feedback","0","test","12","","","","","","","","",""
"1230","","html-button-response","27","2.0.0","359293","rob","1","","","","","","","<img src= ""rock_img/I_Pumice_09.jpg"" style=""width:8cm; height:6.44cm;""><p>What type of rock is this?</p>","7","class_response","0","test","13","Pumice","Pumice","09","true","8","8","","",""
"null","","html-keyboard-response","28","2.0.0","359805","rob","1","","","","","","","<p style='font-size: 30px;'><strong>Okay</strong></p>","null","neutral_feedback","0","test","13","","","","","","","","",""
"2359","","html-button-response","29","2.0.0","362165","rob","1","","","","","","","<img src= ""rock_img/I_Gabbro_13.jpg"" style=""width:8cm; height:5.08cm;""><p>What type of rock is this?</p>","3","class_response","0","test","14","Gabbro","Gabbro","13","true","4","4","","",""
"null","","html-keyboard-response","30","2.0.0","362672","rob","1","","","","","","","<p style='font-size: 30px;'><strong>Okay</strong></p>","null","neutral_feedback","0","test","14","","","","","","","","",""
"2299","","html-button-response","31","2.0.0","364973","rob","1","","","","","","","<img src= ""rock_img/I_Peridotite_08.jpg"" style=""width:8cm; height:6.7cm;""><p>What type of rock is this?</p>","6","class_response","0","test","15","Peridotite","Peridotite","08","true","7","7","","",""
"null","","html-keyboard-response","32","2.0.0","365475","rob","1","","","","","","","<p style='font-size: 30px;'><strong>Okay</strong></p>","null","neutral_feedback","0","test","15","","","","","","","","",""
"2384","","html-button-response","33","2.0.0","367861","rob","1","","","","","","","<img src= ""rock_img/I_Diorite_13.jpg"" style=""width:8cm; height:6.29cm;""><p>What type of rock is this?</p>","2","class_response","0","test","16","Diorite","Diorite","13","true","3","3","","",""
"null","","html-keyboard-response","34","2.0.0","368362","rob","1","","","","","","","<p style='font-size: 30px;'><strong>Okay</strong></p>","null","neutral_feedback","0","test","16","","","","","","","","",""
"2065","","html-button-response","35","2.0.0","370429","rob","1","","","","","","","<img src= ""rock_img/I_Obsidian_05.jpg"" style=""width:8cm; height:6.33cm;""><p>What type of rock is this?</p>","4","class_response","0","test","17","Obsidian","Obsidian","05","true","5","5","","",""
"null","","html-keyboard-response","36","2.0.0","370933","rob","1","","","","","","","<p style='font-size: 30px;'><strong>Okay</strong></p>","null","neutral_feedback","0","test","17","","","","","","","","",""
"3246","","html-button-response","37","2.0.0","374181","rob","1","","","","","","","<img src= ""rock_img/I_Peridotite_04.jpg"" style=""width:8cm; height:6.680000000000001cm;""><p>What type of rock is this?</p>","5","class_response","0","test","18","Pegmatite","Peridotite","04","false","6","7","","",""
"null","","html-keyboard-response","38","2.0.0","374689","rob","1","","","","","","","<p style='font-size: 30px;'><strong>Okay</strong></p>","null","neutral_feedback","0","test","18","","","","","","","","",""
"1522","","html-button-response","39","2.0.0","376213","rob","1","","","","","","","<img src= ""rock_img/I_Andesite_06.jpg"" style=""width:8cm; height:6.840000000000001cm;""><p>What type of rock is this?</p>","0","class_response","0","test","19","Andesite","Andesite","06","true","1","1","","",""
"null","","html-keyboard-response","40","2.0.0","376726","rob","1","","","","","","","<p style='font-size: 30px;'><strong>Okay</strong></p>","null","neutral_feedback","0","test","19","","","","","","","","",""
"2197","","html-button-response","41","2.0.0","378925","rob","1","","","","","","","<img src= ""rock_img/I_Diorite_09.jpg"" style=""width:8cm; height:5.27cm;""><p>What type of rock is this?</p>","2","class_response","0","test","20","Diorite","Diorite","09","true","3","3","","",""
"null","","html-keyboard-response","42","2.0.0","379438","rob","1","","","","","","","<p style='font-size: 30px;'><strong>Okay</strong></p>","null","neutral_feedback","0","test","20","","","","","","","","",""
"2870","","html-button-response","43","2.0.0","382309","rob","1","","","","","","","<img src= ""rock_img/I_Pegmatite_11.jpg"" style=""width:8cm; height:8.14cm;""><p>What type of rock is this?</p>","5","class_response","0","test","21","Pegmatite","Pegmatite","11","true","6","6","","",""
"null","","html-keyboard-response","44","2.0.0","382816","rob","1","","","","","","","<p style='font-size: 30px;'><strong>Okay</strong></p>","null","neutral_feedback","0","test","21","","","","","","","","",""
"2355","","html-button-response","45","2.0.0","385174","rob","1","","","","","","","<img src= ""rock_img/I_Basalt_14.jpg"" style=""width:8cm; height:5.82cm;""><p>What type of rock is this?</p>","3","class_response","0","test","22","Gabbro","Basalt","14","false","4","2","","",""
"null","","html-keyboard-response","46","2.0.0","385686","rob","1","","","","","","","<p style='font-size: 30px;'><strong>Okay</strong></p>","null","neutral_feedback","0","test","22","","","","","","","","",""
"2340","","html-button-response","47","2.0.0","388029","rob","1","","","","","","","<img src= ""rock_img/I_Basalt_10.jpg"" style=""width:8cm; height:5.85cm;""><p>What type of rock is this?</p>","1","class_response","0","test","23","Basalt","Basalt","10","true","2","2","","",""
"null","","html-keyboard-response","48","2.0.0","388538","rob","1","","","","","","","<p style='font-size: 30px;'><strong>Okay</strong></p>","null","neutral_feedback","0","test","23","","","","","","","","",""
"2370","","html-button-response","49","2.0.0","390910","rob","1","","","","","","","<img src= ""rock_img/I_Basalt_08.jpg"" style=""width:8cm; height:10.44cm;""><p>What type of rock is this?</p>","1","class_response","0","test","24","Basalt","Basalt","08","true","2","2","","",""
"null","","html-keyboard-response","50","2.0.0","391423","rob","1","","","","","","","<p style='font-size: 30px;'><strong>Okay</strong></p>","null","neutral_feedback","0","test","24","","","","","","","","",""
"2459","","html-button-response","51","2.0.0","393885","rob","1","","","","","","","<img src= ""rock_img/I_Peridotite_16.jpg"" style=""width:8cm; height:6.989999999999999cm;""><p>What type of rock is this?</p>","6","class_response","0","test","25","Peridotite","Peridotite","16","true","7","7","","",""
"null","","html-keyboard-response","52","2.0.0","394401","rob","1","","","","","","","<p style='font-size: 30px;'><strong>Okay</strong></p>","null","neutral_feedback","0","test","25","","","","","","","","",""
"","","call-function","53","2.0.0","394418","rob","1","","","","","","","","","","","","","","","","","","","","",""
"60299","","instructions","54","2.0.0","454716","rob","1","","","","","","[{""page_index"":0,""viewing_time"":17707},{""page_index"":1,""viewing_time"":36808},{""page_index"":2,""viewing_time"":5784}]","","","","","","","","","","","","","","",""
"18487","","html-button-response","55","2.0.0","473204","rob","1","","","","","","","","0","start_train","","","","","","","","","","","",""
"4119","","html-button-response","56","2.0.0","477324","rob","1","","","","","","","<img src= ""rock_img/I_Basalt_16.jpg"" style=""width:8cm; height:7.659999999999999cm;""><p>What type of rock is this?</p>","3","class_response","1","train","2","Gabbro","Basalt","16","false","4","2","","",""
"4254","","html-button-response","57","2.0.0","481580","rob","1","","","","","","","<img src= rock_img/I_Basalt_16.jpg style=""width:8cm; height:7.659999999999999cm;""><p style='font-size: 30px; color: red;'><strong>Incorrect!</strong></p><p style='font-size: 30px;'><strong>This rock is basalt</strong></p>","0","corr_feedback","1","train","2","","","","","","","","",""
"1927","","html-button-response","58","2.0.0","483508","rob","1","","","","","","","<img src= ""rock_img/I_Andesite_02.jpg"" style=""width:8cm; height:8.5cm;""><p>What type of rock is this?</p>","0","class_response","1","train","3","Andesite","Andesite","02","true","1","1","","",""
"1896","","html-button-response","59","2.0.0","485404","rob","1","","","","","","","<img src= rock_img/I_Andesite_02.jpg style=""width:8cm; height:8.5cm;""><p style='font-size: 30px; color: green;'><strong>Correct!</strong></p><p style='font-size: 30px;'><strong>This rock is andesite</strong></p>","0","corr_feedback","1","train","3","","","","","","","","",""
"2671","","html-button-response","60","2.0.0","488076","rob","1","","","","","","","<img src= ""rock_img/I_Diorite_11.jpg"" style=""width:8cm; height:7.11cm;""><p>What type of rock is this?</p>","2","class_response","1","train","4","Diorite","Diorite","11","true","3","3","","",""
"1848","","html-button-response","61","2.0.0","489925","rob","1","","","","","","","<img src= rock_img/I_Diorite_11.jpg style=""width:8cm; height:7.11cm;""><p style='font-size: 30px; color: green;'><strong>Correct!</strong></p><p style='font-size: 30px;'><strong>This rock is diorite</strong></p>","0","corr_feedback","1","train","4","","","","","","","","",""
"3166","","html-button-response","62","2.0.0","493092","rob","1","","","","","","","<img src= ""rock_img/I_Peridotite_12.jpg"" style=""width:8cm; height:4.54cm;""><p>What type of rock is this?</p>","6","class_response","1","train","5","Peridotite","Peridotite","12","true","7","7","","",""
"1703","","html-button-response","63","2.0.0","494796","rob","1","","","","","","","<img src= rock_img/I_Peridotite_12.jpg style=""width:8cm; height:4.54cm;""><p style='font-size: 30px; color: green;'><strong>Correct!</strong></p><p style='font-size: 30px;'><strong>This rock is peridotite</strong></p>","0","corr_feedback","1","train","5","","","","","","","","",""
"1663","","html-button-response","64","2.0.0","496460","rob","1","","","","","","","<img src= ""rock_img/I_Pumice_02.jpg"" style=""width:8cm; height:7.3999999999999995cm;""><p>What type of rock is this?</p>","7","class_response","1","train","6","Pumice","Pumice","02","true","8","8","","",""
"1335","","html-button-response","65","2.0.0","497796","rob","1","","","","","","","<img src= rock_img/I_Pumice_02.jpg style=""width:8cm; height:7.3999999999999995cm;""><p style='font-size: 30px; color: green;'><strong>Correct!</strong></p><p style='font-size: 30px;'><strong>This rock is pumice</strong></p>","0","corr_feedback","1","train","6","","","","","","","","",""
"2695","","html-button-response","66","2.0.0","500492","rob","1","","","","","","","<img src= ""rock_img/I_Andesite_14.jpg"" style=""width:8cm; height:5.449999999999999cm;""><p>What type of rock is this?</p>","0","class_response","1","train","7","Andesite","Andesite","14","true","1","1","","",""
"1423","","html-button-response","67","2.0.0","501916","rob","1","","","","","","","<img src= rock_img/I_Andesite_14.jpg style=""width:8cm; height:5.449999999999999cm;""><p style='font-size: 30px; color: green;'><strong>Correct!</strong></p><p style='font-size: 30px;'><strong>This rock is andesite</strong></p>","0","corr_feedback","1","train","7","","","","","","","","",""
"9287","","html-button-response","68","2.0.0","511204","rob","1","","","","","","","<img src= ""rock_img/I_Gabbro_03.jpg"" style=""width:8cm; height:8.52cm;""><p>What type of rock is this?</p>","3","class_response","1","train","8","Gabbro","Gabbro","03","true","4","4","","",""
"2495","","html-button-response","69","2.0.0","513700","rob","1","","","","","","","<img src= rock_img/I_Gabbro_03.jpg style=""width:8cm; height:8.52cm;""><p style='font-size: 30px; color: green;'><strong>Correct!</strong></p><p style='font-size: 30px;'><strong>This rock is gabbro</strong></p>","0","corr_feedback","1","train","8","","","","","","","","",""
"1815","","html-button-response","70","2.0.0","515516","rob","1","","","","","","","<img src= ""rock_img/I_Basalt_05.jpg"" style=""width:8cm; height:8.18cm;""><p>What type of rock is this?</p>","1","class_response","1","train","9","Basalt","Basalt","05","true","2","2","","",""
"1519","","html-button-response","71","2.0.0","517036","rob","1","","","","","","","<img src= rock_img/I_Basalt_05.jpg style=""width:8cm; height:8.18cm;""><p style='font-size: 30px; color: green;'><strong>Correct!</strong></p><p style='font-size: 30px;'><strong>This rock is basalt</strong></p>","0","corr_feedback","1","train","9","","","","","","","","",""
"1632","","html-button-response","72","2.0.0","518668","rob","1","","","","","","","<img src= ""rock_img/I_Pegmatite_09.jpg"" style=""width:8cm; height:4.03cm;""><p>What type of rock is this?</p>","5","class_response","1","train","10","Pegmatite","Pegmatite","09","true","6","6","","",""
"1279","","html-button-response","73","2.0.0","519948","rob","1","","","","","","","<img src= rock_img/I_Pegmatite_09.jpg style=""width:8cm; height:4.03cm;""><p style='font-size: 30px; color: green;'><strong>Correct!</strong></p><p style='font-size: 30px;'><strong>This rock is pegmatite</strong></p>","0","corr_feedback","1","train","10","","","","","","","","",""
"1615","","html-button-response","74","2.0.0","521564","rob","1","","","","","","","<img src= ""rock_img/I_Diorite_12.jpg"" style=""width:8cm; height:4.88cm;""><p>What type of rock is this?</p>","2","class_response","1","train","11","Diorite","Diorite","12","true","3","3","","",""
"1487","","html-button-response","75","2.0.0","523052","rob","1","","","","","","","<img src= rock_img/I_Diorite_12.jpg style=""width:8cm; height:4.88cm;""><p style='font-size: 30px; color: green;'><strong>Correct!</strong></p><p style='font-size: 30px;'><strong>This rock is diorite</strong></p>","0","corr_feedback","1","train","11","","","","","","","","",""
"2296","","html-button-response","76","2.0.0","525348","rob","1","","","","","","","<img src= ""rock_img/I_Basalt_09.jpg"" style=""width:8cm; height:6.2cm;""><p>What type of rock is this?</p>","1","class_response","1","train","12","Basalt","Basalt","09","true","2","2","","",""
"1295","","html-button-response","77","2.0.0","526644","rob","1","","","","","","","<img src= rock_img/I_Basalt_09.jpg style=""width:8cm; height:6.2cm;""><p style='font-size: 30px; color: green;'><strong>Correct!</strong></p><p style='font-size: 30px;'><strong>This rock is basalt</strong></p>","0","corr_feedback","1","train","12","","","","","","","","",""
"3271","","html-button-response","78","2.0.0","529916","rob","1","","","","","","","<img src= ""rock_img/I_Gabbro_14.jpg"" style=""width:8cm; height:8.48cm;""><p>What type of rock is this?</p>","3","class_response","1","train","13","Gabbro","Gabbro","14","true","4","4","","",""
"1351","","html-button-response","79","2.0.0","531268","rob","1","","","","","","","<img src= rock_img/I_Gabbro_14.jpg style=""width:8cm; height:8.48cm;""><p style='font-size: 30px; color: green;'><strong>Correct!</strong></p><p style='font-size: 30px;'><strong>This rock is gabbro</strong></p>","0","corr_feedback","1","train","13","","","","","","","","",""
"9231","","html-button-response","80","2.0.0","540499","rob","1","","","","","","","<img src= ""rock_img/I_Peridotite_06.jpg"" style=""width:8cm; height:7.53cm;""><p>What type of rock is this?</p>","5","class_response","1","train","14","Pegmatite","Peridotite","06","false","6","7","","",""
"2423","","html-button-response","81","2.0.0","542922","rob","1","","","","","","","<img src= rock_img/I_Peridotite_06.jpg style=""width:8cm; height:7.53cm;""><p style='font-size: 30px; color: red;'><strong>Incorrect!</strong></p><p style='font-size: 30px;'><strong>This rock is peridotite</strong></p>","0","corr_feedback","1","train","14","","","","","","","","",""
"3648","","html-button-response","82","2.0.0","546571","rob","1","","","","","","","<img src= ""rock_img/I_Basalt_11.jpg"" style=""width:8cm; height:5.359999999999999cm;""><p>What type of rock is this?</p>","1","class_response","1","train","15","Basalt","Basalt","11","true","2","2","","",""
"1631","","html-button-response","83","2.0.0","548203","rob","1","","","","","","","<img src= rock_img/I_Basalt_11.jpg style=""width:8cm; height:5.359999999999999cm;""><p style='font-size: 30px; color: green;'><strong>Correct!</strong></p><p style='font-size: 30px;'><strong>This rock is basalt</strong></p>","0","corr_feedback","1","train","15","","","","","","","","",""
"1551","","html-button-response","84","2.0.0","549755","rob","1","","","","","","","<img src= ""rock_img/I_Peridotite_10.jpg"" style=""width:8cm; height:5.390000000000001cm;""><p>What type of rock is this?</p>","6","class_response","1","train","16","Peridotite","Peridotite","10","true","7","7","","",""
"1231","","html-button-response","85","2.0.0","550987","rob","1","","","","","","","<img src= rock_img/I_Peridotite_10.jpg style=""width:8cm; height:5.390000000000001cm;""><p style='font-size: 30px; color: green;'><strong>Correct!</strong></p><p style='font-size: 30px;'><strong>This rock is peridotite</strong></p>","0","corr_feedback","1","train","16","","","","","","","","",""
"3456","","html-button-response","86","2.0.0","554444","rob","1","","","","","","","<img src= ""rock_img/I_Andesite_10.jpg"" style=""width:8cm; height:4.16cm;""><p>What type of rock is this?</p>","0","class_response","1","train","17","Andesite","Andesite","10","true","1","1","","",""
"1223","","html-button-response","87","2.0.0","555667","rob","1","","","","","","","<img src= rock_img/I_Andesite_10.jpg style=""width:8cm; height:4.16cm;""><p style='font-size: 30px; color: green;'><strong>Correct!</strong></p><p style='font-size: 30px;'><strong>This rock is andesite</strong></p>","0","corr_feedback","1","train","17","","","","","","","","",""
"2239","","html-button-response","88","2.0.0","557907","rob","1","","","","","","","<img src= ""rock_img/I_Gabbro_05.jpg"" style=""width:8cm; height:6cm;""><p>What type of rock is this?</p>","6","class_response","1","train","18","Peridotite","Gabbro","05","false","7","4","","",""
"4447","","html-button-response","89","2.0.0","562355","rob","1","","","","","","","<img src= rock_img/I_Gabbro_05.jpg style=""width:8cm; height:6cm;""><p style='font-size: 30px; color: red;'><strong>Incorrect!</strong></p><p style='font-size: 30px;'><strong>This rock is gabbro</strong></p>","0","corr_feedback","1","train","18","","","","","","","","",""
"3247","","html-button-response","90","2.0.0","565603","rob","1","","","","","","","<img src= ""rock_img/I_Basalt_02.jpg"" style=""width:8cm; height:6.45cm;""><p>What type of rock is this?</p>","1","class_response","1","train","19","Basalt","Basalt","02","true","2","2","","",""
"1543","","html-button-response","91","2.0.0","567147","rob","1","","","","","","","<img src= rock_img/I_Basalt_02.jpg style=""width:8cm; height:6.45cm;""><p style='font-size: 30px; color: green;'><strong>Correct!</strong></p><p style='font-size: 30px;'><strong>This rock is basalt</strong></p>","0","corr_feedback","1","train","19","","","","","","","","",""
"3039","","html-button-response","92","2.0.0","570187","rob","1","","","","","","","<img src= ""rock_img/I_Obsidian_11.jpg"" style=""width:8cm; height:6.05cm;""><p>What type of rock is this?</p>","4","class_response","1","train","20","Obsidian","Obsidian","11","true","5","5","","",""
"1359","","html-button-response","93","2.0.0","571547","rob","1","","","","","","","<img src= rock_img/I_Obsidian_11.jpg style=""width:8cm; height:6.05cm;""><p style='font-size: 30px; color: green;'><strong>Correct!</strong></p><p style='font-size: 30px;'><strong>This rock is obsidian</strong></p>","0","corr_feedback","1","train","20","","","","","","","","",""
"1343","","html-button-response","94","2.0.0","572891","rob","1","","","","","","","<img src= ""rock_img/I_Obsidian_02.jpg"" style=""width:8cm; height:7.51cm;""><p>What type of rock is this?</p>","4","class_response","1","train","21","Obsidian","Obsidian","02","true","5","5","","",""
"1103","","html-button-response","95","2.0.0","573994","rob","1","","","","","","","<img src= rock_img/I_Obsidian_02.jpg style=""width:8cm; height:7.51cm;""><p style='font-size: 30px; color: green;'><strong>Correct!</strong></p><p style='font-size: 30px;'><strong>This rock is obsidian</strong></p>","0","corr_feedback","1","train","21","","","","","","","","",""
"2776","","html-button-response","96","2.0.0","576771","rob","1","","","","","","","<img src= ""rock_img/I_Pegmatite_16.jpg"" style=""width:8cm; height:5.8cm;""><p>What type of rock is this?</p>","5","class_response","1","train","22","Pegmatite","Pegmatite","16","true","6","6","","",""
"1191","","html-button-response","97","2.0.0","577963","rob","1","","","","","","","<img src= rock_img/I_Pegmatite_16.jpg style=""width:8cm; height:5.8cm;""><p style='font-size: 30px; color: green;'><strong>Correct!</strong></p><p style='font-size: 30px;'><strong>This rock is pegmatite</strong></p>","0","corr_feedback","1","train","22","","","","","","","","",""
"1551","","html-button-response","98","2.0.0","579515","rob","1","","","","","","","<img src= ""rock_img/I_Pegmatite_13.jpg"" style=""width:8cm; height:4.95cm;""><p>What type of rock is this?</p>","5","class_response","1","train","23","Pegmatite","Pegmatite","13","true","6","6","","",""
"1135","","html-button-response","99","2.0.0","580651","rob","1","","","","","","","<img src= rock_img/I_Pegmatite_13.jpg style=""width:8cm; height:4.95cm;""><p style='font-size: 30px; color: green;'><strong>Correct!</strong></p><p style='font-size: 30px;'><strong>This rock is pegmatite</strong></p>","0","corr_feedback","1","train","23","","","","","","","","",""
"1215","","html-button-response","100","2.0.0","581866","rob","1","","","","","","","<img src= ""rock_img/I_Pegmatite_03.jpg"" style=""width:8cm; height:5.239999999999999cm;""><p>What type of rock is this?</p>","5","class_response","1","train","24","Pegmatite","Pegmatite","03","true","6","6","","",""
"1232","","html-button-response","101","2.0.0","583099","rob","1","","","","","","","<img src= rock_img/I_Pegmatite_03.jpg style=""width:8cm; height:5.239999999999999cm;""><p style='font-size: 30px; color: green;'><strong>Correct!</strong></p><p style='font-size: 30px;'><strong>This rock is pegmatite</strong></p>","0","corr_feedback","1","train","24","","","","","","","","",""
"7807","","html-button-response","102","2.0.0","590906","rob","1","","","","","","","<img src= ""rock_img/I_Diorite_06.jpg"" style=""width:8cm; height:6.03cm;""><p>What type of rock is this?</p>","3","class_response","1","train","25","Gabbro","Diorite","06","false","4","3","","",""
"2872","","html-button-response","103","2.0.0","593779","rob","1","","","","","","","<img src= rock_img/I_Diorite_06.jpg style=""width:8cm; height:6.03cm;""><p style='font-size: 30px; color: red;'><strong>Incorrect!</strong></p><p style='font-size: 30px;'><strong>This rock is diorite</strong></p>","0","corr_feedback","1","train","25","","","","","","","","",""
"1511","","html-button-response","104","2.0.0","595291","rob","1","","","","","","","<img src= ""rock_img/I_Diorite_07.jpg"" style=""width:8cm; height:5.239999999999999cm;""><p>What type of rock is this?</p>","2","class_response","1","train","26","Diorite","Diorite","07","true","3","3","","",""
"975","","html-button-response","105","2.0.0","596267","rob","1","","","","","","","<img src= rock_img/I_Diorite_07.jpg style=""width:8cm; height:5.239999999999999cm;""><p style='font-size: 30px; color: green;'><strong>Correct!</strong></p><p style='font-size: 30px;'><strong>This rock is diorite</strong></p>","0","corr_feedback","1","train","26","","","","","","","","",""
"1431","","html-button-response","106","2.0.0","597699","rob","1","","","","","","","<img src= ""rock_img/I_Diorite_16.jpg"" style=""width:8cm; height:6.74cm;""><p>What type of rock is this?</p>","2","class_response","1","train","27","Diorite","Diorite","16","true","3","3","","",""
"983","","html-button-response","107","2.0.0","598683","rob","1","","","","","","","<img src= rock_img/I_Diorite_16.jpg style=""width:8cm; height:6.74cm;""><p style='font-size: 30px; color: green;'><strong>Correct!</strong></p><p style='font-size: 30px;'><strong>This rock is diorite</strong></p>","0","corr_feedback","1","train","27","","","","","","","","",""
"1463","","html-button-response","108","2.0.0","600147","rob","1","","","","","","","<img src= ""rock_img/I_Pumice_04.jpg"" style=""width:8cm; height:6.819999999999999cm;""><p>What type of rock is this?</p>","7","class_response","1","train","28","Pumice","Pumice","04","true","8","8","","",""
"1199","","html-button-response","109","2.0.0","601347","rob","1","","","","","","","<img src= rock_img/I_Pumice_04.jpg style=""width:8cm; height:6.819999999999999cm;""><p style='font-size: 30px; color: green;'><strong>Correct!</strong></p><p style='font-size: 30px;'><strong>This rock is pumice</strong></p>","0","corr_feedback","1","train","28","","","","","","","","",""
"2911","","html-button-response","110","2.0.0","604259","rob","1","","","","","","","<img src= ""rock_img/I_Pegmatite_05.jpg"" style=""width:8cm; height:7.300000000000001cm;""><p>What type of rock is this?</p>","5","class_response","1","train","29","Pegmatite","Pegmatite","05","true","6","6","","",""
"1487","","html-button-response","111","2.0.0","605747","rob","1","","","","","","","<img src= rock_img/I_Pegmatite_05.jpg style=""width:8cm; height:7.300000000000001cm;""><p style='font-size: 30px; color: green;'><strong>Correct!</strong></p><p style='font-size: 30px;'><strong>This rock is pegmatite</strong></p>","0","corr_feedback","1","train","29","","","","","","","","",""
"3767","","html-button-response","112","2.0.0","609515","rob","1","","","","","","","<img src= ""rock_img/I_Gabbro_08.jpg"" style=""width:8cm; height:5.15cm;""><p>What type of rock is this?</p>","3","class_response","1","train","30","Gabbro","Gabbro","08","true","4","4","","",""
"1431","","html-button-response","113","2.0.0","610947","rob","1","","","","","","","<img src= rock_img/I_Gabbro_08.jpg style=""width:8cm; height:5.15cm;""><p style='font-size: 30px; color: green;'><strong>Correct!</strong></p><p style='font-size: 30px;'><strong>This rock is gabbro</strong></p>","0","corr_feedback","1","train","30","","","","","","","","",""
"5135","","html-button-response","114","2.0.0","616083","rob","1","","","","","","","<img src= ""rock_img/I_Gabbro_10.jpg"" style=""width:8cm; height:5.680000000000001cm;""><p>What type of rock is this?</p>","3","class_response","1","train","31","Gabbro","Gabbro","10","true","4","4","","",""
"1223","","html-button-response","115","2.0.0","617307","rob","1","","","","","","","<img src= rock_img/I_Gabbro_10.jpg style=""width:8cm; height:5.680000000000001cm;""><p style='font-size: 30px; color: green;'><strong>Correct!</strong></p><p style='font-size: 30px;'><strong>This rock is gabbro</strong></p>","0","corr_feedback","1","train","31","","","","","","","","",""
"1927","","html-button-response","116","2.0.0","619235","rob","1","","","","","","","<img src= ""rock_img/I_Pegmatite_12.jpg"" style=""width:8cm; height:5.7cm;""><p>What type of rock is this?</p>","5","class_response","1","train","32","Pegmatite","Pegmatite","12","true","6","6","","",""
"1031","","html-button-response","117","2.0.0","620267","rob","1","","","","","","","<img src= rock_img/I_Pegmatite_12.jpg style=""width:8cm; height:5.7cm;""><p style='font-size: 30px; color: green;'><strong>Correct!</strong></p><p style='font-size: 30px;'><strong>This rock is pegmatite</strong></p>","0","corr_feedback","1","train","32","","","","","","","","",""
"1575","","html-button-response","118","2.0.0","621843","rob","1","","","","","","","<img src= ""rock_img/I_Obsidian_07.jpg"" style=""width:8cm; height:4.76cm;""><p>What type of rock is this?</p>","4","class_response","1","train","33","Obsidian","Obsidian","07","true","5","5","","",""
"1175","","html-button-response","119","2.0.0","623019","rob","1","","","","","","","<img src= rock_img/I_Obsidian_07.jpg style=""width:8cm; height:4.76cm;""><p style='font-size: 30px; color: green;'><strong>Correct!</strong></p><p style='font-size: 30px;'><strong>This rock is obsidian</strong></p>","0","corr_feedback","1","train","33","","","","","","","","",""
"1399","","html-button-response","120","2.0.0","624419","rob","1","","","","","","","<img src= ""rock_img/I_Obsidian_14.jpg"" style=""width:8cm; height:7.64cm;""><p>What type of rock is this?</p>","4","class_response","1","train","34","Obsidian","Obsidian","14","true","5","5","","",""
"1039","","html-button-response","121","2.0.0","625459","rob","1","","","","","","","<img src= rock_img/I_Obsidian_14.jpg style=""width:8cm; height:7.64cm;""><p style='font-size: 30px; color: green;'><strong>Correct!</strong></p><p style='font-size: 30px;'><strong>This rock is obsidian</strong></p>","0","corr_feedback","1","train","34","","","","","","","","",""
"1127","","html-button-response","122","2.0.0","626587","rob","1","","","","","","","<img src= ""rock_img/I_Obsidian_12.jpg"" style=""width:8cm; height:6.53cm;""><p>What type of rock is this?</p>","4","class_response","1","train","35","Obsidian","Obsidian","12","true","5","5","","",""
"1159","","html-button-response","123","2.0.0","627747","rob","1","","","","","","","<img src= rock_img/I_Obsidian_12.jpg style=""width:8cm; height:6.53cm;""><p style='font-size: 30px; color: green;'><strong>Correct!</strong></p><p style='font-size: 30px;'><strong>This rock is obsidian</strong></p>","0","corr_feedback","1","train","35","","","","","","","","",""
"1687","","html-button-response","124","2.0.0","629435","rob","1","","","","","","","<img src= ""rock_img/I_Andesite_05.jpg"" style=""width:8cm; height:4.12cm;""><p>What type of rock is this?</p>","0","class_response","1","train","36","Andesite","Andesite","05","true","1","1","","",""
"999","","html-button-response","125","2.0.0","630435","rob","1","","","","","","","<img src= rock_img/I_Andesite_05.jpg style=""width:8cm; height:4.12cm;""><p style='font-size: 30px; color: green;'><strong>Correct!</strong></p><p style='font-size: 30px;'><strong>This rock is andesite</strong></p>","0","corr_feedback","1","train","36","","","","","","","","",""
"1727","","html-button-response","126","2.0.0","632163","rob","1","","","","","","","<img src= ""rock_img/I_Pumice_14.jpg"" style=""width:8cm; height:6.39cm;""><p>What type of rock is this?</p>","7","class_response","1","train","37","Pumice","Pumice","14","true","8","8","","",""
"1055","","html-button-response","127","2.0.0","633219","rob","1","","","","","","","<img src= rock_img/I_Pumice_14.jpg style=""width:8cm; height:6.39cm;""><p style='font-size: 30px; color: green;'><strong>Correct!</strong></p><p style='font-size: 30px;'><strong>This rock is pumice</strong></p>","0","corr_feedback","1","train","37","","","","","","","","",""
"1783","","html-button-response","128","2.0.0","635003","rob","1","","","","","","","<img src= ""rock_img/I_Pumice_08.jpg"" style=""width:8cm; height:6.67cm;""><p>What type of rock is this?</p>","7","class_response","1","train","38","Pumice","Pumice","08","true","8","8","","",""
"1087","","html-button-response","129","2.0.0","636091","rob","1","","","","","","","<img src= rock_img/I_Pumice_08.jpg style=""width:8cm; height:6.67cm;""><p style='font-size: 30px; color: green;'><strong>Correct!</strong></p><p style='font-size: 30px;'><strong>This rock is pumice</strong></p>","0","corr_feedback","1","train","38","","","","","","","","",""
"2055","","html-button-response","130","2.0.0","638147","rob","1","","","","","","","<img src= ""rock_img/I_Peridotite_02.jpg"" style=""width:8cm; height:5.859999999999999cm;""><p>What type of rock is this?</p>","6","class_response","1","train","39","Peridotite","Peridotite","02","true","7","7","","",""
"1463","","html-button-response","131","2.0.0","639611","rob","1","","","","","","","<img src= rock_img/I_Peridotite_02.jpg style=""width:8cm; height:5.859999999999999cm;""><p style='font-size: 30px; color: green;'><strong>Correct!</strong></p><p style='font-size: 30px;'><strong>This rock is peridotite</strong></p>","0","corr_feedback","1","train","39","","","","","","","","",""
"1871","","html-button-response","132","2.0.0","641483","rob","1","","","","","","","<img src= ""rock_img/I_Pumice_15.jpg"" style=""width:8cm; height:7.86cm;""><p>What type of rock is this?</p>","7","class_response","1","train","40","Pumice","Pumice","15","true","8","8","","",""
"1479","","html-button-response","133","2.0.0","642963","rob","1","","","","","","","<img src= rock_img/I_Pumice_15.jpg style=""width:8cm; height:7.86cm;""><p style='font-size: 30px; color: green;'><strong>Correct!</strong></p><p style='font-size: 30px;'><strong>This rock is pumice</strong></p>","0","corr_feedback","1","train","40","","","","","","","","",""
"1647","","html-button-response","134","2.0.0","644611","rob","1","","","","","","","<img src= ""rock_img/I_Andesite_07.jpg"" style=""width:8cm; height:5.93cm;""><p>What type of rock is this?</p>","0","class_response","1","train","41","Andesite","Andesite","07","true","1","1","","",""
"1303","","html-button-response","135","2.0.0","645915","rob","1","","","","","","","<img src= rock_img/I_Andesite_07.jpg style=""width:8cm; height:5.93cm;""><p style='font-size: 30px; color: green;'><strong>Correct!</strong></p><p style='font-size: 30px;'><strong>This rock is andesite</strong></p>","0","corr_feedback","1","train","41","","","","","","","","",""
"2999","","html-button-response","136","2.0.0","648915","rob","1","","","","","","","<img src= ""rock_img/I_Diorite_10.jpg"" style=""width:8cm; height:5.949999999999999cm;""><p>What type of rock is this?</p>","6","class_response","1","train","42","Peridotite","Diorite","10","false","7","3","","",""
"2033","","html-button-response","137","2.0.0","650949","rob","1","","","","","","","<img src= rock_img/I_Diorite_10.jpg style=""width:8cm; height:5.949999999999999cm;""><p style='font-size: 30px; color: red;'><strong>Incorrect!</strong></p><p style='font-size: 30px;'><strong>This rock is diorite</strong></p>","0","corr_feedback","1","train","42","","","","","","","","",""
"1549","","html-button-response","138","2.0.0","652499","rob","1","","","","","","","<img src= ""rock_img/I_Peridotite_05.jpg"" style=""width:8cm; height:7.1499999999999995cm;""><p>What type of rock is this?</p>","6","class_response","1","train","43","Peridotite","Peridotite","05","true","7","7","","",""
"983","","html-button-response","139","2.0.0","653483","rob","1","","","","","","","<img src= rock_img/I_Peridotite_05.jpg style=""width:8cm; height:7.1499999999999995cm;""><p style='font-size: 30px; color: green;'><strong>Correct!</strong></p><p style='font-size: 30px;'><strong>This rock is peridotite</strong></p>","0","corr_feedback","1","train","43","","","","","","","","",""
"1487","","html-button-response","140","2.0.0","654970","rob","1","","","","","","","<img src= ""rock_img/I_Obsidian_16.jpg"" style=""width:8cm; height:9.3cm;""><p>What type of rock is this?</p>","4","class_response","1","train","44","Obsidian","Obsidian","16","true","5","5","","",""
"1207","","html-button-response","141","2.0.0","656178","rob","1","","","","","","","<img src= rock_img/I_Obsidian_16.jpg style=""width:8cm; height:9.3cm;""><p style='font-size: 30px; color: green;'><strong>Correct!</strong></p><p style='font-size: 30px;'><strong>This rock is obsidian</strong></p>","0","corr_feedback","1","train","44","","","","","","","","",""
"1367","","html-button-response","142","2.0.0","657546","rob","1","","","","","","","<img src= ""rock_img/I_Pumice_10.jpg"" style=""width:8cm; height:7.609999999999999cm;""><p>What type of rock is this?</p>","7","class_response","1","train","45","Pumice","Pumice","10","true","8","8","","",""
"1023","","html-button-response","143","2.0.0","658570","rob","1","","","","","","","<img src= rock_img/I_Pumice_10.jpg style=""width:8cm; height:7.609999999999999cm;""><p style='font-size: 30px; color: green;'><strong>Correct!</strong></p><p style='font-size: 30px;'><strong>This rock is pumice</strong></p>","0","corr_feedback","1","train","45","","","","","","","","",""
"5159","","html-button-response","144","2.0.0","663730","rob","1","","","","","","","<img src= ""rock_img/I_Gabbro_11.jpg"" style=""width:8cm; height:6.2cm;""><p>What type of rock is this?</p>","3","class_response","1","train","46","Gabbro","Gabbro","11","true","4","4","","",""
"1119","","html-button-response","145","2.0.0","664850","rob","1","","","","","","","<img src= rock_img/I_Gabbro_11.jpg style=""width:8cm; height:6.2cm;""><p style='font-size: 30px; color: green;'><strong>Correct!</strong></p><p style='font-size: 30px;'><strong>This rock is gabbro</strong></p>","0","corr_feedback","1","train","46","","","","","","","","",""
"1319","","html-button-response","146","2.0.0","666170","rob","1","","","","","","","<img src= ""rock_img/I_Peridotite_07.jpg"" style=""width:8cm; height:4.83cm;""><p>What type of rock is this?</p>","6","class_response","1","train","47","Peridotite","Peridotite","07","true","7","7","","",""
"904","","html-button-response","147","2.0.0","667075","rob","1","","","","","","","<img src= rock_img/I_Peridotite_07.jpg style=""width:8cm; height:4.83cm;""><p style='font-size: 30px; color: green;'><strong>Correct!</strong></p><p style='font-size: 30px;'><strong>This rock is peridotite</strong></p>","0","corr_feedback","1","train","47","","","","","","","","",""
"1375","","html-button-response","148","2.0.0","668450","rob","1","","","","","","","<img src= ""rock_img/I_Andesite_16.jpg"" style=""width:8cm; height:6.010000000000001cm;""><p>What type of rock is this?</p>","0","class_response","1","train","48","Andesite","Andesite","16","true","1","1","","",""
"1463","","html-button-response","149","2.0.0","669914","rob","1","","","","","","","<img src= rock_img/I_Andesite_16.jpg style=""width:8cm; height:6.010000000000001cm;""><p style='font-size: 30px; color: green;'><strong>Correct!</strong></p><p style='font-size: 30px;'><strong>This rock is andesite</strong></p>","0","corr_feedback","1","train","48","","","","","","","","",""
"3551","","html-button-response","150","2.0.0","673466","rob","1","","","","","","","<img src= ""rock_img/I_Basalt_12.jpg"" style=""width:8cm; height:6.010000000000001cm;""><p>What type of rock is this?</p>","1","class_response","1","train","49","Basalt","Basalt","12","true","2","2","","",""
"1847","","html-button-response","151","2.0.0","675314","rob","1","","","","","","","<img src= rock_img/I_Basalt_12.jpg style=""width:8cm; height:6.010000000000001cm;""><p style='font-size: 30px; color: green;'><strong>Correct!</strong></p><p style='font-size: 30px;'><strong>This rock is basalt</strong></p>","0","corr_feedback","1","train","49","","","","","","","","",""
"35295","","instructions","152","2.0.0","710610","rob","1","","","","","","[{""page_index"":0,""viewing_time"":8951},{""page_index"":1,""viewing_time"":22240},{""page_index"":2,""viewing_time"":4104}]","","","","","","","","","","","","","","",""
"5223","","html-button-response","153","2.0.0","715833","rob","1","","","","","","","","0","start_test","","","","","","","","","","","",""
"3495","","html-button-response","154","2.0.0","719330","rob","1","","","","","","","<img src= ""rock_img/I_Pumice_13.jpg"" style=""width:8cm; height:8.200000000000001cm;""><p>What type of rock is this?</p>","7","class_response","1","test","2","Pumice","Pumice","13","true","8","8","","",""
"null","","html-keyboard-response","155","2.0.0","719845","rob","1","","","","","","","<p style='font-size: 30px;'><strong>Okay</strong></p>","null","neutral_feedback","1","test","2","","","","","","","","",""
"3340","","html-button-response","156","2.0.0","723185","rob","1","","","","","","","<img src= ""rock_img/I_Gabbro_13.jpg"" style=""width:8cm; height:5.08cm;""><p>What type of rock is this?</p>","3","class_response","1","test","3","Gabbro","Gabbro","13","true","4","4","","",""
"null","","html-keyboard-response","157","2.0.0","723695","rob","1","","","","","","","<p style='font-size: 30px;'><strong>Okay</strong></p>","null","neutral_feedback","1","test","3","","","","","","","","",""
"1760","","html-button-response","158","2.0.0","725457","rob","1","","","","","","","<img src= ""rock_img/I_Pegmatite_10.jpg"" style=""width:8cm; height:4.16cm;""><p>What type of rock is this?</p>","5","class_response","1","test","4","Pegmatite","Pegmatite","10","true","6","6","","",""
"null","","html-keyboard-response","159","2.0.0","725959","rob","1","","","","","","","<p style='font-size: 30px;'><strong>Okay</strong></p>","null","neutral_feedback","1","test","4","","","","","","","","",""
"1833","","html-button-response","160","2.0.0","727793","rob","1","","","","","","","<img src= ""rock_img/I_Peridotite_16.jpg"" style=""width:8cm; height:6.989999999999999cm;""><p>What type of rock is this?</p>","6","class_response","1","test","5","Peridotite","Peridotite","16","true","7","7","","",""
"null","","html-keyboard-response","161","2.0.0","728296","rob","1","","","","","","","<p style='font-size: 30px;'><strong>Okay</strong></p>","null","neutral_feedback","1","test","5","","","","","","","","",""
"1679","","html-button-response","162","2.0.0","729977","rob","1","","","","","","","<img src= ""rock_img/I_Basalt_08.jpg"" style=""width:8cm; height:10.44cm;""><p>What type of rock is this?</p>","1","class_response","1","test","6","Basalt","Basalt","08","true","2","2","","",""
"null","","html-keyboard-response","163","2.0.0","730491","rob","1","","","","","","","<p style='font-size: 30px;'><strong>Okay</strong></p>","null","neutral_feedback","1","test","6","","","","","","","","",""
"1621","","html-button-response","164","2.0.0","732113","rob","1","","","","","","","<img src= ""rock_img/I_Pumice_16.jpg"" style=""width:8cm; height:6.79cm;""><p>What type of rock is this?</p>","7","class_response","1","test","7","Pumice","Pumice","16","true","8","8","","",""
"null","","html-keyboard-response","165","2.0.0","732623","rob","1","","","","","","","<p style='font-size: 30px;'><strong>Okay</strong></p>","null","neutral_feedback","1","test","7","","","","","","","","",""
"1688","","html-button-response","166","2.0.0","734313","rob","1","","","","","","","<img src= ""rock_img/I_Peridotite_08.jpg"" style=""width:8cm; height:6.7cm;""><p>What type of rock is this?</p>","6","class_response","1","test","8","Peridotite","Peridotite","08","true","7","7","","",""
"null","","html-keyboard-response","167","2.0.0","734820","rob","1","","","","","","","<p style='font-size: 30px;'><strong>Okay</strong></p>","null","neutral_feedback","1","test","8","","","","","","","","",""
"1435","","html-button-response","168","2.0.0","736257","rob","1","","","","","","","<img src= ""rock_img/I_Obsidian_10.jpg"" style=""width:8cm; height:6.260000000000001cm;""><p>What type of rock is this?</p>","4","class_response","1","test","9","Obsidian","Obsidian","10","true","5","5","","",""
"null","","html-keyboard-response","169","2.0.0","736770","rob","1","","","","","","","<p style='font-size: 30px;'><strong>Okay</strong></p>","null","neutral_feedback","1","test","9","","","","","","","","",""
"1357","","html-button-response","170","2.0.0","738129","rob","1","","","","","","","<img src= ""rock_img/I_Andesite_06.jpg"" style=""width:8cm; height:6.840000000000001cm;""><p>What type of rock is this?</p>","0","class_response","1","test","10","Andesite","Andesite","06","true","1","1","","",""
"null","","html-keyboard-response","171","2.0.0","738632","rob","1","","","","","","","<p style='font-size: 30px;'><strong>Okay</strong></p>","null","neutral_feedback","1","test","10","","","","","","","","",""
"3039","","html-button-response","172","2.0.0","741673","rob","1","","","","","","","<img src= ""rock_img/I_Diorite_02.jpg"" style=""width:8cm; height:6.27cm;""><p>What type of rock is this?</p>","2","class_response","1","test","11","Diorite","Diorite","02","true","3","3","","",""
"null","","html-keyboard-response","173","2.0.0","742179","rob","1","","","","","","","<p style='font-size: 30px;'><strong>Okay</strong></p>","null","neutral_feedback","1","test","11","","","","","","","","",""
"1636","","html-button-response","174","2.0.0","743817","rob","1","","","","","","","<img src= ""rock_img/I_Diorite_09.jpg"" style=""width:8cm; height:5.27cm;""><p>What type of rock is this?</p>","2","class_response","1","test","12","Diorite","Diorite","09","true","3","3","","",""
"null","","html-keyboard-response","175","2.0.0","744330","rob","1","","","","","","","<p style='font-size: 30px;'><strong>Okay</strong></p>","null","neutral_feedback","1","test","12","","","","","","","","",""
"3397","","html-button-response","176","2.0.0","747729","rob","1","","","","","","","<img src= ""rock_img/I_Basalt_10.jpg"" style=""width:8cm; height:5.85cm;""><p>What type of rock is this?</p>","1","class_response","1","test","13","Basalt","Basalt","10","true","2","2","","",""
"null","","html-keyboard-response","177","2.0.0","748239","rob","1","","","","","","","<p style='font-size: 30px;'><strong>Okay</strong></p>","null","neutral_feedback","1","test","13","","","","","","","","",""
"1761","","html-button-response","178","2.0.0","750002","rob","1","","","","","","","<img src= ""rock_img/I_Pegmatite_15.jpg"" style=""width:8cm; height:6cm;""><p>What type of rock is this?</p>","5","class_response","1","test","14","Pegmatite","Pegmatite","15","true","6","6","","",""
"null","","html-keyboard-response","179","2.0.0","750516","rob","1","","","","","","","<p style='font-size: 30px;'><strong>Okay</strong></p>","null","neutral_feedback","1","test","14","","","","","","","","",""
"1483","","html-button-response","180","2.0.0","752001","rob","1","","","","","","","<img src= ""rock_img/I_Obsidian_04.jpg"" style=""width:8cm; height:6.930000000000001cm;""><p>What type of rock is this?</p>","4","class_response","1","test","15","Obsidian","Obsidian","04","true","5","5","","",""
"null","","html-keyboard-response","181","2.0.0","752508","rob","1","","","","","","","<p style='font-size: 30px;'><strong>Okay</strong></p>","null","neutral_feedback","1","test","15","","","","","","","","",""
"3356","","html-button-response","182","2.0.0","755865","rob","1","","","","","","","<img src= ""rock_img/I_Gabbro_15.jpg"" style=""width:8cm; height:6.29cm;""><p>What type of rock is this?</p>","3","class_response","1","test","16","Gabbro","Gabbro","15","true","4","4","","",""
"null","","html-keyboard-response","183","2.0.0","756373","rob","1","","","","","","","<p style='font-size: 30px;'><strong>Okay</strong></p>","null","neutral_feedback","1","test","16","","","","","","","","",""
"1882","","html-button-response","184","2.0.0","758257","rob","1","","","","","","","<img src= ""rock_img/I_Obsidian_05.jpg"" style=""width:8cm; height:6.33cm;""><p>What type of rock is this?</p>","4","class_response","1","test","17","Obsidian","Obsidian","05","true","5","5","","",""
"null","","html-keyboard-response","185","2.0.0","758770","rob","1","","","","","","","<p style='font-size: 30px;'><strong>Okay</strong></p>","null","neutral_feedback","1","test","17","","","","","","","","",""
"1549","","html-button-response","186","2.0.0","760321","rob","1","","","","","","","<img src= ""rock_img/I_Andesite_11.jpg"" style=""width:8cm; height:4.92cm;""><p>What type of rock is this?</p>","0","class_response","1","test","18","Andesite","Andesite","11","true","1","1","","",""
"null","","html-keyboard-response","187","2.0.0","760826","rob","1","","","","","","","<p style='font-size: 30px;'><strong>Okay</strong></p>","null","neutral_feedback","1","test","18","","","","","","","","",""
"1445","","html-button-response","188","2.0.0","762273","rob","1","","","","","","","<img src= ""rock_img/I_Pumice_09.jpg"" style=""width:8cm; height:6.44cm;""><p>What type of rock is this?</p>","7","class_response","1","test","19","Pumice","Pumice","09","true","8","8","","",""
"null","","html-keyboard-response","189","2.0.0","762787","rob","1","","","","","","","<p style='font-size: 30px;'><strong>Okay</strong></p>","null","neutral_feedback","1","test","19","","","","","","","","",""
"1908","","html-button-response","190","2.0.0","764697","rob","1","","","","","","","<img src= ""rock_img/I_Gabbro_12.jpg"" style=""width:8cm; height:7.800000000000001cm;""><p>What type of rock is this?</p>","3","class_response","1","test","20","Gabbro","Gabbro","12","true","4","4","","",""
"null","","html-keyboard-response","191","2.0.0","765200","rob","1","","","","","","","<p style='font-size: 30px;'><strong>Okay</strong></p>","null","neutral_feedback","1","test","20","","","","","","","","",""
"2104","","html-button-response","192","2.0.0","767305","rob","1","","","","","","","<img src= ""rock_img/I_Andesite_03.jpg"" style=""width:8cm; height:5.73cm;""><p>What type of rock is this?</p>","0","class_response","1","test","21","Andesite","Andesite","03","true","1","1","","",""
"null","","html-keyboard-response","193","2.0.0","767821","rob","1","","","","","","","<p style='font-size: 30px;'><strong>Okay</strong></p>","null","neutral_feedback","1","test","21","","","","","","","","",""
"3098","","html-button-response","194","2.0.0","770921","rob","1","","","","","","","<img src= ""rock_img/I_Basalt_14.jpg"" style=""width:8cm; height:5.82cm;""><p>What type of rock is this?</p>","3","class_response","1","test","22","Gabbro","Basalt","14","false","4","2","","",""
"null","","html-keyboard-response","195","2.0.0","771434","rob","1","","","","","","","<p style='font-size: 30px;'><strong>Okay</strong></p>","null","neutral_feedback","1","test","22","","","","","","","","",""
"1998","","html-button-response","196","2.0.0","773433","rob","1","","","","","","","<img src= ""rock_img/I_Pegmatite_11.jpg"" style=""width:8cm; height:8.14cm;""><p>What type of rock is this?</p>","5","class_response","1","test","23","Pegmatite","Pegmatite","11","true","6","6","","",""
"null","","html-keyboard-response","197","2.0.0","773943","rob","1","","","","","","","<p style='font-size: 30px;'><strong>Okay</strong></p>","null","neutral_feedback","1","test","23","","","","","","","","",""
"1769","","html-button-response","198","2.0.0","775713","rob","1","","","","","","","<img src= ""rock_img/I_Diorite_13.jpg"" style=""width:8cm; height:6.29cm;""><p>What type of rock is this?</p>","2","class_response","1","test","24","Diorite","Diorite","13","true","3","3","","",""
"null","","html-keyboard-response","199","2.0.0","776218","rob","1","","","","","","","<p style='font-size: 30px;'><strong>Okay</strong></p>","null","neutral_feedback","1","test","24","","","","","","","","",""
"3013","","html-button-response","200","2.0.0","779233","rob","1","","","","","","","<img src= ""rock_img/I_Peridotite_04.jpg"" style=""width:8cm; height:6.680000000000001cm;""><p>What type of rock is this?</p>","5","class_response","1","test","25","Pegmatite","Peridotite","04","false","6","7","","",""
"null","","html-keyboard-response","201","2.0.0","779741","rob","1","","","","","","","<p style='font-size: 30px;'><strong>Okay</strong></p>","null","neutral_feedback","1","test","25","","","","","","","","",""
"","","html-button-response","202","2.0.0","803305","rob","1","","","","","","","","","cycle_feedback","","","","","","","","","","","11140.90000000596","12415.700000017881"
"44359","","html-button-response","204","2.0.0","847665","rob","1","","","","","","","","0","start_train","","","","","","","","","","","",""
"3503","","html-button-response","205","2.0.0","851168","rob","1","","","","","","","<img src= ""rock_img/I_Andesite_16.jpg"" style=""width:8cm; height:6.010000000000001cm;""><p>What type of rock is this?</p>","0","class_response","2","train","2","Andesite","Andesite","16","true","1","1","","",""
"1999","","html-button-response","206","2.0.0","853168","rob","1","","","","","","","<img src= rock_img/I_Andesite_16.jpg style=""width:8cm; height:6.010000000000001cm;""><p style='font-size: 30px; color: green;'><strong>Correct!</strong></p><p style='font-size: 30px;'><strong>This rock is andesite</strong></p>","0","corr_feedback","2","train","2","","","","","","","","",""
"1375","","html-button-response","207","2.0.0","854544","rob","1","","","","","","","<img src= ""rock_img/I_Gabbro_03.jpg"" style=""width:8cm; height:8.52cm;""><p>What type of rock is this?</p>","3","class_response","2","train","3","Gabbro","Gabbro","03","true","4","4","","",""
"1287","","html-button-response","208","2.0.0","855832","rob","1","","","","","","","<img src= rock_img/I_Gabbro_03.jpg style=""width:8cm; height:8.52cm;""><p style='font-size: 30px; color: green;'><strong>Correct!</strong></p><p style='font-size: 30px;'><strong>This rock is gabbro</strong></p>","0","corr_feedback","2","train","3","","","","","","","","",""
"1831","","html-button-response","209","2.0.0","857664","rob","1","","","","","","","<img src= ""rock_img/I_Pegmatite_05.jpg"" style=""width:8cm; height:7.300000000000001cm;""><p>What type of rock is this?</p>","5","class_response","2","train","4","Pegmatite","Pegmatite","05","true","6","6","","",""
"1079","","html-button-response","210","2.0.0","858744","rob","1","","","","","","","<img src= rock_img/I_Pegmatite_05.jpg style=""width:8cm; height:7.300000000000001cm;""><p style='font-size: 30px; color: green;'><strong>Correct!</strong></p><p style='font-size: 30px;'><strong>This rock is pegmatite</strong></p>","0","corr_feedback","2","train","4","","","","","","","","",""
"3975","","html-button-response","211","2.0.0","862720","rob","1","","","","","","","<img src= ""rock_img/I_Gabbro_05.jpg"" style=""width:8cm; height:6cm;""><p>What type of rock is this?</p>","6","class_response","2","train","5","Peridotite","Gabbro","05","false","7","4","","",""
"2615","","html-button-response","212","2.0.0","865336","rob","1","","","","","","","<img src= rock_img/I_Gabbro_05.jpg style=""width:8cm; height:6cm;""><p style='font-size: 30px; color: red;'><strong>Incorrect!</strong></p><p style='font-size: 30px;'><strong>This rock is gabbro</strong></p>","0","corr_feedback","2","train","5","","","","","","","","",""
"1703","","html-button-response","213","2.0.0","867040","rob","1","","","","","","","<img src= ""rock_img/I_Diorite_16.jpg"" style=""width:8cm; height:6.74cm;""><p>What type of rock is this?</p>","2","class_response","2","train","6","Diorite","Diorite","16","true","3","3","","",""
"1071","","html-button-response","214","2.0.0","868112","rob","1","","","","","","","<img src= rock_img/I_Diorite_16.jpg style=""width:8cm; height:6.74cm;""><p style='font-size: 30px; color: green;'><strong>Correct!</strong></p><p style='font-size: 30px;'><strong>This rock is diorite</strong></p>","0","corr_feedback","2","train","6","","","","","","","","",""
"2783","","html-button-response","215","2.0.0","870896","rob","1","","","","","","","<img src= ""rock_img/I_Gabbro_10.jpg"" style=""width:8cm; height:5.680000000000001cm;""><p>What type of rock is this?</p>","3","class_response","2","train","7","Gabbro","Gabbro","10","true","4","4","","",""
"1160","","html-button-response","216","2.0.0","872056","rob","1","","","","","","","<img src= rock_img/I_Gabbro_10.jpg style=""width:8cm; height:5.680000000000001cm;""><p style='font-size: 30px; color: green;'><strong>Correct!</strong></p><p style='font-size: 30px;'><strong>This rock is gabbro</strong></p>","0","corr_feedback","2","train","7","","","","","","","","",""
"1471","","html-button-response","217","2.0.0","873528","rob","1","","","","","","","<img src= ""rock_img/I_Peridotite_05.jpg"" style=""width:8cm; height:7.1499999999999995cm;""><p>What type of rock is this?</p>","6","class_response","2","train","8","Peridotite","Peridotite","05","true","7","7","","",""
"1048","","html-button-response","218","2.0.0","874576","rob","1","","","","","","","<img src= rock_img/I_Peridotite_05.jpg style=""width:8cm; height:7.1499999999999995cm;""><p style='font-size: 30px; color: green;'><strong>Correct!</strong></p><p style='font-size: 30px;'><strong>This rock is peridotite</strong></p>","0","corr_feedback","2","train","8","","","","","","","","",""
"1719","","html-button-response","219","2.0.0","876296","rob","1","","","","","","","<img src= ""rock_img/I_Obsidian_02.jpg"" style=""width:8cm; height:7.51cm;""><p>What type of rock is this?</p>","4","class_response","2","train","9","Obsidian","Obsidian","02","true","5","5","","",""
"1151","","html-button-response","220","2.0.0","877448","rob","1","","","","","","","<img src= rock_img/I_Obsidian_02.jpg style=""width:8cm; height:7.51cm;""><p style='font-size: 30px; color: green;'><strong>Correct!</strong></p><p style='font-size: 30px;'><strong>This rock is obsidian</strong></p>","0","corr_feedback","2","train","9","","","","","","","","",""
"1800","","html-button-response","221","2.0.0","879249","rob","1","","","","","","","<img src= ""rock_img/I_Andesite_02.jpg"" style=""width:8cm; height:8.5cm;""><p>What type of rock is this?</p>","0","class_response","2","train","10","Andesite","Andesite","02","true","1","1","","",""
"934","","html-button-response","222","2.0.0","880184","rob","1","","","","","","","<img src= rock_img/I_Andesite_02.jpg style=""width:8cm; height:8.5cm;""><p style='font-size: 30px; color: green;'><strong>Correct!</strong></p><p style='font-size: 30px;'><strong>This rock is andesite</strong></p>","0","corr_feedback","2","train","10","","","","","","","","",""
"7248","","html-button-response","223","2.0.0","887433","rob","1","","","","","","","<img src= ""rock_img/I_Andesite_10.jpg"" style=""width:8cm; height:4.16cm;""><p>What type of rock is this?</p>","3","class_response","2","train","11","Gabbro","Andesite","10","false","4","1","","",""
"4383","","html-button-response","224","2.0.0","891816","rob","1","","","","","","","<img src= rock_img/I_Andesite_10.jpg style=""width:8cm; height:4.16cm;""><p style='font-size: 30px; color: red;'><strong>Incorrect!</strong></p><p style='font-size: 30px;'><strong>This rock is andesite</strong></p>","0","corr_feedback","2","train","11","","","","","","","","",""
"1879","","html-button-response","225","2.0.0","893696","rob","1","","","","","","","<img src= ""rock_img/I_Diorite_11.jpg"" style=""width:8cm; height:7.11cm;""><p>What type of rock is this?</p>","2","class_response","2","train","12","Diorite","Diorite","11","true","3","3","","",""
"1279","","html-button-response","226","2.0.0","894976","rob","1","","","","","","","<img src= rock_img/I_Diorite_11.jpg style=""width:8cm; height:7.11cm;""><p style='font-size: 30px; color: green;'><strong>Correct!</strong></p><p style='font-size: 30px;'><strong>This rock is diorite</strong></p>","0","corr_feedback","2","train","12","","","","","","","","",""
"1408","","html-button-response","227","2.0.0","896385","rob","1","","","","","","","<img src= ""rock_img/I_Obsidian_16.jpg"" style=""width:8cm; height:9.3cm;""><p>What type of rock is this?</p>","4","class_response","2","train","13","Obsidian","Obsidian","16","true","5","5","","",""
"991","","html-button-response","228","2.0.0","897376","rob","1","","","","","","","<img src= rock_img/I_Obsidian_16.jpg style=""width:8cm; height:9.3cm;""><p style='font-size: 30px; color: green;'><strong>Correct!</strong></p><p style='font-size: 30px;'><strong>This rock is obsidian</strong></p>","0","corr_feedback","2","train","13","","","","","","","","",""
"1407","","html-button-response","229","2.0.0","898784","rob","1","","","","","","","<img src= ""rock_img/I_Pegmatite_03.jpg"" style=""width:8cm; height:5.239999999999999cm;""><p>What type of rock is this?</p>","5","class_response","2","train","14","Pegmatite","Pegmatite","03","true","6","6","","",""
"895","","html-button-response","230","2.0.0","899681","rob","1","","","","","","","<img src= rock_img/I_Pegmatite_03.jpg style=""width:8cm; height:5.239999999999999cm;""><p style='font-size: 30px; color: green;'><strong>Correct!</strong></p><p style='font-size: 30px;'><strong>This rock is pegmatite</strong></p>","0","corr_feedback","2","train","14","","","","","","","","",""
"3095","","html-button-response","231","2.0.0","902776","rob","1","","","","","","","<img src= ""rock_img/I_Basalt_02.jpg"" style=""width:8cm; height:6.45cm;""><p>What type of rock is this?</p>","1","class_response","2","train","15","Basalt","Basalt","02","true","2","2","","",""
"1007","","html-button-response","232","2.0.0","903784","rob","1","","","","","","","<img src= rock_img/I_Basalt_02.jpg style=""width:8cm; height:6.45cm;""><p style='font-size: 30px; color: green;'><strong>Correct!</strong></p><p style='font-size: 30px;'><strong>This rock is basalt</strong></p>","0","corr_feedback","2","train","15","","","","","","","","",""
"1535","","html-button-response","233","2.0.0","905320","rob","1","","","","","","","<img src= ""rock_img/I_Diorite_06.jpg"" style=""width:8cm; height:6.03cm;""><p>What type of rock is this?</p>","2","class_response","2","train","16","Diorite","Diorite","06","true","3","3","","",""
"855","","html-button-response","234","2.0.0","906176","rob","1","","","","","","","<img src= rock_img/I_Diorite_06.jpg style=""width:8cm; height:6.03cm;""><p style='font-size: 30px; color: green;'><strong>Correct!</strong></p><p style='font-size: 30px;'><strong>This rock is diorite</strong></p>","0","corr_feedback","2","train","16","","","","","","","","",""
"1399","","html-button-response","235","2.0.0","907576","rob","1","","","","","","","<img src= ""rock_img/I_Peridotite_12.jpg"" style=""width:8cm; height:4.54cm;""><p>What type of rock is this?</p>","6","class_response","2","train","17","Peridotite","Peridotite","12","true","7","7","","",""
"815","","html-button-response","236","2.0.0","908392","rob","1","","","","","","","<img src= rock_img/I_Peridotite_12.jpg style=""width:8cm; height:4.54cm;""><p style='font-size: 30px; color: green;'><strong>Correct!</strong></p><p style='font-size: 30px;'><strong>This rock is peridotite</strong></p>","0","corr_feedback","2","train","17","","","","","","","","",""
"1223","","html-button-response","237","2.0.0","909616","rob","1","","","","","","","<img src= ""rock_img/I_Diorite_07.jpg"" style=""width:8cm; height:5.239999999999999cm;""><p>What type of rock is this?</p>","2","class_response","2","train","18","Diorite","Diorite","07","true","3","3","","",""
"815","","html-button-response","238","2.0.0","910432","rob","1","","","","","","","<img src= rock_img/I_Diorite_07.jpg style=""width:8cm; height:5.239999999999999cm;""><p style='font-size: 30px; color: green;'><strong>Correct!</strong></p><p style='font-size: 30px;'><strong>This rock is diorite</strong></p>","0","corr_feedback","2","train","18","","","","","","","","",""
"1383","","html-button-response","239","2.0.0","911816","rob","1","","","","","","","<img src= ""rock_img/I_Obsidian_11.jpg"" style=""width:8cm; height:6.05cm;""><p>What type of rock is this?</p>","4","class_response","2","train","19","Obsidian","Obsidian","11","true","5","5","","",""
"1087","","html-button-response","240","2.0.0","912904","rob","1","","","","","","","<img src= rock_img/I_Obsidian_11.jpg style=""width:8cm; height:6.05cm;""><p style='font-size: 30px; color: green;'><strong>Correct!</strong></p><p style='font-size: 30px;'><strong>This rock is obsidian</strong></p>","0","corr_feedback","2","train","19","","","","","","","","",""
"1335","","html-button-response","241","2.0.0","914240","rob","1","","","","","","","<img src= ""rock_img/I_Pumice_04.jpg"" style=""width:8cm; height:6.819999999999999cm;""><p>What type of rock is this?</p>","7","class_response","2","train","20","Pumice","Pumice","04","true","8","8","","",""
"1063","","html-button-response","242","2.0.0","915304","rob","1","","","","","","","<img src= rock_img/I_Pumice_04.jpg style=""width:8cm; height:6.819999999999999cm;""><p style='font-size: 30px; color: green;'><strong>Correct!</strong></p><p style='font-size: 30px;'><strong>This rock is pumice</strong></p>","0","corr_feedback","2","train","20","","","","","","","","",""
"1271","","html-button-response","243","2.0.0","916576","rob","1","","","","","","","<img src= ""rock_img/I_Andesite_07.jpg"" style=""width:8cm; height:5.93cm;""><p>What type of rock is this?</p>","0","class_response","2","train","21","Andesite","Andesite","07","true","1","1","","",""
"1135","","html-button-response","244","2.0.0","917712","rob","1","","","","","","","<img src= rock_img/I_Andesite_07.jpg style=""width:8cm; height:5.93cm;""><p style='font-size: 30px; color: green;'><strong>Correct!</strong></p><p style='font-size: 30px;'><strong>This rock is andesite</strong></p>","0","corr_feedback","2","train","21","","","","","","","","",""
"1463","","html-button-response","245","2.0.0","919176","rob","1","","","","","","","<img src= ""rock_img/I_Obsidian_07.jpg"" style=""width:8cm; height:4.76cm;""><p>What type of rock is this?</p>","4","class_response","2","train","22","Obsidian","Obsidian","07","true","5","5","","",""
"1031","","html-button-response","246","2.0.0","920208","rob","1","","","","","","","<img src= rock_img/I_Obsidian_07.jpg style=""width:8cm; height:4.76cm;""><p style='font-size: 30px; color: green;'><strong>Correct!</strong></p><p style='font-size: 30px;'><strong>This rock is obsidian</strong></p>","0","corr_feedback","2","train","22","","","","","","","","",""
"3799","","html-button-response","247","2.0.0","924008","rob","1","","","","","","","<img src= ""rock_img/I_Gabbro_08.jpg"" style=""width:8cm; height:5.15cm;""><p>What type of rock is this?</p>","3","class_response","2","train","23","Gabbro","Gabbro","08","true","4","4","","",""
"1128","","html-button-response","248","2.0.0","925136","rob","1","","","","","","","<img src= rock_img/I_Gabbro_08.jpg style=""width:8cm; height:5.15cm;""><p style='font-size: 30px; color: green;'><strong>Correct!</strong></p><p style='font-size: 30px;'><strong>This rock is gabbro</strong></p>","0","corr_feedback","2","train","23","","","","","","","","",""
"1655","","html-button-response","249","2.0.0","926792","rob","1","","","","","","","<img src= ""rock_img/I_Obsidian_14.jpg"" style=""width:8cm; height:7.64cm;""><p>What type of rock is this?</p>","4","class_response","2","train","24","Obsidian","Obsidian","14","true","5","5","","",""
"903","","html-button-response","250","2.0.0","927696","rob","1","","","","","","","<img src= rock_img/I_Obsidian_14.jpg style=""width:8cm; height:7.64cm;""><p style='font-size: 30px; color: green;'><strong>Correct!</strong></p><p style='font-size: 30px;'><strong>This rock is obsidian</strong></p>","0","corr_feedback","2","train","24","","","","","","","","",""
"1311","","html-button-response","251","2.0.0","929008","rob","1","","","","","","","<img src= ""rock_img/I_Pumice_15.jpg"" style=""width:8cm; height:7.86cm;""><p>What type of rock is this?</p>","7","class_response","2","train","25","Pumice","Pumice","15","true","8","8","","",""
"1135","","html-button-response","252","2.0.0","930144","rob","1","","","","","","","<img src= rock_img/I_Pumice_15.jpg style=""width:8cm; height:7.86cm;""><p style='font-size: 30px; color: green;'><strong>Correct!</strong></p><p style='font-size: 30px;'><strong>This rock is pumice</strong></p>","0","corr_feedback","2","train","25","","","","","","","","",""
"6607","","html-button-response","253","2.0.0","936752","rob","1","","","","","","","<img src= ""rock_img/I_Diorite_10.jpg"" style=""width:8cm; height:5.949999999999999cm;""><p>What type of rock is this?</p>","2","class_response","2","train","26","Diorite","Diorite","10","true","3","3","","",""
"2807","","html-button-response","254","2.0.0","939560","rob","1","","","","","","","<img src= rock_img/I_Diorite_10.jpg style=""width:8cm; height:5.949999999999999cm;""><p style='font-size: 30px; color: green;'><strong>Correct!</strong></p><p style='font-size: 30px;'><strong>This rock is diorite</strong></p>","0","corr_feedback","2","train","26","","","","","","","","",""
"1663","","html-button-response","255","2.0.0","941224","rob","1","","","","","","","<img src= ""rock_img/I_Peridotite_10.jpg"" style=""width:8cm; height:5.390000000000001cm;""><p>What type of rock is this?</p>","6","class_response","2","train","27","Peridotite","Peridotite","10","true","7","7","","",""
"935","","html-button-response","256","2.0.0","942160","rob","1","","","","","","","<img src= rock_img/I_Peridotite_10.jpg style=""width:8cm; height:5.390000000000001cm;""><p style='font-size: 30px; color: green;'><strong>Correct!</strong></p><p style='font-size: 30px;'><strong>This rock is peridotite</strong></p>","0","corr_feedback","2","train","27","","","","","","","","",""
"2847","","html-button-response","257","2.0.0","945008","rob","1","","","","","","","<img src= ""rock_img/I_Gabbro_11.jpg"" style=""width:8cm; height:6.2cm;""><p>What type of rock is this?</p>","3","class_response","2","train","28","Gabbro","Gabbro","11","true","4","4","","",""
"1263","","html-button-response","258","2.0.0","946272","rob","1","","","","","","","<img src= rock_img/I_Gabbro_11.jpg style=""width:8cm; height:6.2cm;""><p style='font-size: 30px; color: green;'><strong>Correct!</strong></p><p style='font-size: 30px;'><strong>This rock is gabbro</strong></p>","0","corr_feedback","2","train","28","","","","","","","","",""
"1231","","html-button-response","259","2.0.0","947504","rob","1","","","","","","","<img src= ""rock_img/I_Peridotite_07.jpg"" style=""width:8cm; height:4.83cm;""><p>What type of rock is this?</p>","6","class_response","2","train","29","Peridotite","Peridotite","07","true","7","7","","",""
"1127","","html-button-response","260","2.0.0","948632","rob","1","","","","","","","<img src= rock_img/I_Peridotite_07.jpg style=""width:8cm; height:4.83cm;""><p style='font-size: 30px; color: green;'><strong>Correct!</strong></p><p style='font-size: 30px;'><strong>This rock is peridotite</strong></p>","0","corr_feedback","2","train","29","","","","","","","","",""
"1383","","html-button-response","261","2.0.0","950016","rob","1","","","","","","","<img src= ""rock_img/I_Pegmatite_12.jpg"" style=""width:8cm; height:5.7cm;""><p>What type of rock is this?</p>","5","class_response","2","train","30","Pegmatite","Pegmatite","12","true","6","6","","",""
"935","","html-button-response","262","2.0.0","950952","rob","1","","","","","","","<img src= rock_img/I_Pegmatite_12.jpg style=""width:8cm; height:5.7cm;""><p style='font-size: 30px; color: green;'><strong>Correct!</strong></p><p style='font-size: 30px;'><strong>This rock is pegmatite</strong></p>","0","corr_feedback","2","train","30","","","","","","","","",""
"1456","","html-button-response","263","2.0.0","952408","rob","1","","","","","","","<img src= ""rock_img/I_Pumice_14.jpg"" style=""width:8cm; height:6.39cm;""><p>What type of rock is this?</p>","7","class_response","2","train","31","Pumice","Pumice","14","true","8","8","","",""
"879","","html-button-response","264","2.0.0","953288","rob","1","","","","","","","<img src= rock_img/I_Pumice_14.jpg style=""width:8cm; height:6.39cm;""><p style='font-size: 30px; color: green;'><strong>Correct!</strong></p><p style='font-size: 30px;'><strong>This rock is pumice</strong></p>","0","corr_feedback","2","train","31","","","","","","","","",""
"2039","","html-button-response","265","2.0.0","955328","rob","1","","","","","","","<img src= ""rock_img/I_Basalt_09.jpg"" style=""width:8cm; height:6.2cm;""><p>What type of rock is this?</p>","1","class_response","2","train","32","Basalt","Basalt","09","true","2","2","","",""
"1119","","html-button-response","266","2.0.0","956448","rob","1","","","","","","","<img src= rock_img/I_Basalt_09.jpg style=""width:8cm; height:6.2cm;""><p style='font-size: 30px; color: green;'><strong>Correct!</strong></p><p style='font-size: 30px;'><strong>This rock is basalt</strong></p>","0","corr_feedback","2","train","32","","","","","","","","",""
"1783","","html-button-response","267","2.0.0","958232","rob","1","","","","","","","<img src= ""rock_img/I_Peridotite_06.jpg"" style=""width:8cm; height:7.53cm;""><p>What type of rock is this?</p>","6","class_response","2","train","33","Peridotite","Peridotite","06","true","7","7","","",""
"1391","","html-button-response","268","2.0.0","959624","rob","1","","","","","","","<img src= rock_img/I_Peridotite_06.jpg style=""width:8cm; height:7.53cm;""><p style='font-size: 30px; color: green;'><strong>Correct!</strong></p><p style='font-size: 30px;'><strong>This rock is peridotite</strong></p>","0","corr_feedback","2","train","33","","","","","","","","",""
"1823","","html-button-response","269","2.0.0","961448","rob","1","","","","","","","<img src= ""rock_img/I_Basalt_16.jpg"" style=""width:8cm; height:7.659999999999999cm;""><p>What type of rock is this?</p>","3","class_response","2","train","34","Gabbro","Basalt","16","false","4","2","","",""
"5295","","html-button-response","270","2.0.0","966744","rob","1","","","","","","","<img src= rock_img/I_Basalt_16.jpg style=""width:8cm; height:7.659999999999999cm;""><p style='font-size: 30px; color: red;'><strong>Incorrect!</strong></p><p style='font-size: 30px;'><strong>This rock is basalt</strong></p>","0","corr_feedback","2","train","34","","","","","","","","",""
"2999","","html-button-response","271","2.0.0","969744","rob","1","","","","","","","<img src= ""rock_img/I_Basalt_12.jpg"" style=""width:8cm; height:6.010000000000001cm;""><p>What type of rock is this?</p>","1","class_response","2","train","35","Basalt","Basalt","12","true","2","2","","",""
"1159","","html-button-response","272","2.0.0","970903","rob","1","","","","","","","<img src= rock_img/I_Basalt_12.jpg style=""width:8cm; height:6.010000000000001cm;""><p style='font-size: 30px; color: green;'><strong>Correct!</strong></p><p style='font-size: 30px;'><strong>This rock is basalt</strong></p>","0","corr_feedback","2","train","35","","","","","","","","",""
"1615","","html-button-response","273","2.0.0","972519","rob","1","","","","","","","<img src= ""rock_img/I_Basalt_11.jpg"" style=""width:8cm; height:5.359999999999999cm;""><p>What type of rock is this?</p>","1","class_response","2","train","36","Basalt","Basalt","11","true","2","2","","",""
"1015","","html-button-response","274","2.0.0","973535","rob","1","","","","","","","<img src= rock_img/I_Basalt_11.jpg style=""width:8cm; height:5.359999999999999cm;""><p style='font-size: 30px; color: green;'><strong>Correct!</strong></p><p style='font-size: 30px;'><strong>This rock is basalt</strong></p>","0","corr_feedback","2","train","36","","","","","","","","",""
"2928","","html-button-response","275","2.0.0","976464","rob","1","","","","","","","<img src= ""rock_img/I_Pegmatite_13.jpg"" style=""width:8cm; height:4.95cm;""><p>What type of rock is this?</p>","5","class_response","2","train","37","Pegmatite","Pegmatite","13","true","6","6","","",""
"4511","","html-button-response","276","2.0.0","980975","rob","1","","","","","","","<img src= rock_img/I_Pegmatite_13.jpg style=""width:8cm; height:4.95cm;""><p style='font-size: 30px; color: green;'><strong>Correct!</strong></p><p style='font-size: 30px;'><strong>This rock is pegmatite</strong></p>","0","corr_feedback","2","train","37","","","","","","","","",""
"1567","","html-button-response","277","2.0.0","982544","rob","1","","","","","","","<img src= ""rock_img/I_Peridotite_02.jpg"" style=""width:8cm; height:5.859999999999999cm;""><p>What type of rock is this?</p>","6","class_response","2","train","38","Peridotite","Peridotite","02","true","7","7","","",""
"1447","","html-button-response","278","2.0.0","983991","rob","1","","","","","","","<img src= rock_img/I_Peridotite_02.jpg style=""width:8cm; height:5.859999999999999cm;""><p style='font-size: 30px; color: green;'><strong>Correct!</strong></p><p style='font-size: 30px;'><strong>This rock is peridotite</strong></p>","0","corr_feedback","2","train","38","","","","","","","","",""
"1767","","html-button-response","279","2.0.0","985760","rob","1","","","","","","","<img src= ""rock_img/I_Pumice_08.jpg"" style=""width:8cm; height:6.67cm;""><p>What type of rock is this?</p>","7","class_response","2","train","39","Pumice","Pumice","08","true","8","8","","",""
"1199","","html-button-response","280","2.0.0","986960","rob","1","","","","","","","<img src= rock_img/I_Pumice_08.jpg style=""width:8cm; height:6.67cm;""><p style='font-size: 30px; color: green;'><strong>Correct!</strong></p><p style='font-size: 30px;'><strong>This rock is pumice</strong></p>","0","corr_feedback","2","train","39","","","","","","","","",""
"1639","","html-button-response","281","2.0.0","988599","rob","1","","","","","","","<img src= ""rock_img/I_Pegmatite_16.jpg"" style=""width:8cm; height:5.8cm;""><p>What type of rock is this?</p>","5","class_response","2","train","40","Pegmatite","Pegmatite","16","true","6","6","","",""
"999","","html-button-response","282","2.0.0","989599","rob","1","","","","","","","<img src= rock_img/I_Pegmatite_16.jpg style=""width:8cm; height:5.8cm;""><p style='font-size: 30px; color: green;'><strong>Correct!</strong></p><p style='font-size: 30px;'><strong>This rock is pegmatite</strong></p>","0","corr_feedback","2","train","40","","","","","","","","",""
"1535","","html-button-response","283","2.0.0","991135","rob","1","","","","","","","<img src= ""rock_img/I_Andesite_05.jpg"" style=""width:8cm; height:4.12cm;""><p>What type of rock is this?</p>","0","class_response","2","train","41","Andesite","Andesite","05","true","1","1","","",""
"935","","html-button-response","284","2.0.0","992071","rob","1","","","","","","","<img src= rock_img/I_Andesite_05.jpg style=""width:8cm; height:4.12cm;""><p style='font-size: 30px; color: green;'><strong>Correct!</strong></p><p style='font-size: 30px;'><strong>This rock is andesite</strong></p>","0","corr_feedback","2","train","41","","","","","","","","",""
"2223","","html-button-response","285","2.0.0","994296","rob","1","","","","","","","<img src= ""rock_img/I_Andesite_14.jpg"" style=""width:8cm; height:5.449999999999999cm;""><p>What type of rock is this?</p>","0","class_response","2","train","42","Andesite","Andesite","14","true","1","1","","",""
"1095","","html-button-response","286","2.0.0","995391","rob","1","","","","","","","<img src= rock_img/I_Andesite_14.jpg style=""width:8cm; height:5.449999999999999cm;""><p style='font-size: 30px; color: green;'><strong>Correct!</strong></p><p style='font-size: 30px;'><strong>This rock is andesite</strong></p>","0","corr_feedback","2","train","42","","","","","","","","",""
"3583","","html-button-response","287","2.0.0","998976","rob","1","","","","","","","<img src= ""rock_img/I_Basalt_05.jpg"" style=""width:8cm; height:8.18cm;""><p>What type of rock is this?</p>","1","class_response","2","train","43","Basalt","Basalt","05","true","2","2","","",""
"1296","","html-button-response","288","2.0.0","1000272","rob","1","","","","","","","<img src= rock_img/I_Basalt_05.jpg style=""width:8cm; height:8.18cm;""><p style='font-size: 30px; color: green;'><strong>Correct!</strong></p><p style='font-size: 30px;'><strong>This rock is basalt</strong></p>","0","corr_feedback","2","train","43","","","","","","","","",""
"1623","","html-button-response","289","2.0.0","1001895","rob","1","","","","","","","<img src= ""rock_img/I_Pegmatite_09.jpg"" style=""width:8cm; height:4.03cm;""><p>What type of rock is this?</p>","5","class_response","2","train","44","Pegmatite","Pegmatite","09","true","6","6","","",""
"1311","","html-button-response","290","2.0.0","1003207","rob","1","","","","","","","<img src= rock_img/I_Pegmatite_09.jpg style=""width:8cm; height:4.03cm;""><p style='font-size: 30px; color: green;'><strong>Correct!</strong></p><p style='font-size: 30px;'><strong>This rock is pegmatite</strong></p>","0","corr_feedback","2","train","44","","","","","","","","",""
"1527","","html-button-response","291","2.0.0","1004736","rob","1","","","","","","","<img src= ""rock_img/I_Pumice_10.jpg"" style=""width:8cm; height:7.609999999999999cm;""><p>What type of rock is this?</p>","7","class_response","2","train","45","Pumice","Pumice","10","true","8","8","","",""
"1143","","html-button-response","292","2.0.0","1005879","rob","1","","","","","","","<img src= rock_img/I_Pumice_10.jpg style=""width:8cm; height:7.609999999999999cm;""><p style='font-size: 30px; color: green;'><strong>Correct!</strong></p><p style='font-size: 30px;'><strong>This rock is pumice</strong></p>","0","corr_feedback","2","train","45","","","","","","","","",""
"1399","","html-button-response","293","2.0.0","1007280","rob","1","","","","","","","<img src= ""rock_img/I_Obsidian_12.jpg"" style=""width:8cm; height:6.53cm;""><p>What type of rock is this?</p>","4","class_response","2","train","46","Obsidian","Obsidian","12","true","5","5","","",""
"943","","html-button-response","294","2.0.0","1008224","rob","1","","","","","","","<img src= rock_img/I_Obsidian_12.jpg style=""width:8cm; height:6.53cm;""><p style='font-size: 30px; color: green;'><strong>Correct!</strong></p><p style='font-size: 30px;'><strong>This rock is obsidian</strong></p>","0","corr_feedback","2","train","46","","","","","","","","",""
"3447","","html-button-response","295","2.0.0","1011672","rob","1","","","","","","","<img src= ""rock_img/I_Gabbro_14.jpg"" style=""width:8cm; height:8.48cm;""><p>What type of rock is this?</p>","3","class_response","2","train","47","Gabbro","Gabbro","14","true","4","4","","",""
"1207","","html-button-response","296","2.0.0","1012879","rob","1","","","","","","","<img src= rock_img/I_Gabbro_14.jpg style=""width:8cm; height:8.48cm;""><p style='font-size: 30px; color: green;'><strong>Correct!</strong></p><p style='font-size: 30px;'><strong>This rock is gabbro</strong></p>","0","corr_feedback","2","train","47","","","","","","","","",""
"1591","","html-button-response","297","2.0.0","1014472","rob","1","","","","","","","<img src= ""rock_img/I_Pumice_02.jpg"" style=""width:8cm; height:7.3999999999999995cm;""><p>What type of rock is this?</p>","7","class_response","2","train","48","Pumice","Pumice","02","true","8","8","","",""
"1095","","html-button-response","298","2.0.0","1015567","rob","1","","","","","","","<img src= rock_img/I_Pumice_02.jpg style=""width:8cm; height:7.3999999999999995cm;""><p style='font-size: 30px; color: green;'><strong>Correct!</strong></p><p style='font-size: 30px;'><strong>This rock is pumice</strong></p>","0","corr_feedback","2","train","48","","","","","","","","",""
"1935","","html-button-response","299","2.0.0","1017504","rob","1","","","","","","","<img src= ""rock_img/I_Diorite_12.jpg"" style=""width:8cm; height:4.88cm;""><p>What type of rock is this?</p>","2","class_response","2","train","49","Diorite","Diorite","12","true","3","3","","",""
"1231","","html-button-response","300","2.0.0","1018735","rob","1","","","","","","","<img src= rock_img/I_Diorite_12.jpg style=""width:8cm; height:4.88cm;""><p style='font-size: 30px; color: green;'><strong>Correct!</strong></p><p style='font-size: 30px;'><strong>This rock is diorite</strong></p>","0","corr_feedback","2","train","49","","","","","","","","",""
"4303","","html-button-response","302","2.0.0","1023040","rob","1","","","","","","","","0","start_test","","","","","","","","","","","",""
"5271","","html-button-response","303","2.0.0","1028310","rob","1","","","","","","","<img src= ""rock_img/I_Diorite_13.jpg"" style=""width:8cm; height:6.29cm;""><p>What type of rock is this?</p>","2","class_response","2","test","2","Diorite","Diorite","13","true","3","3","","",""
"null","","html-keyboard-response","304","2.0.0","1028825","rob","1","","","","","","","<p style='font-size: 30px;'><strong>Okay</strong></p>","null","neutral_feedback","2","test","2","","","","","","","","",""
"2115","","html-button-response","305","2.0.0","1030942","rob","1","","","","","","","<img src= ""rock_img/I_Peridotite_08.jpg"" style=""width:8cm; height:6.7cm;""><p>What type of rock is this?</p>","6","class_response","2","test","3","Peridotite","Peridotite","08","true","7","7","","",""
"null","","html-keyboard-response","306","2.0.0","1031444","rob","1","","","","","","","<p style='font-size: 30px;'><strong>Okay</strong></p>","null","neutral_feedback","2","test","3","","","","","","","","",""
"1248","","html-button-response","307","2.0.0","1032694","rob","1","","","","","","","<img src= ""rock_img/I_Obsidian_05.jpg"" style=""width:8cm; height:6.33cm;""><p>What type of rock is this?</p>","4","class_response","2","test","4","Obsidian","Obsidian","05","true","5","5","","",""
"null","","html-keyboard-response","308","2.0.0","1033205","rob","1","","","","","","","<p style='font-size: 30px;'><strong>Okay</strong></p>","null","neutral_feedback","2","test","4","","","","","","","","",""
"1479","","html-button-response","309","2.0.0","1034686","rob","1","","","","","","","<img src= ""rock_img/I_Andesite_11.jpg"" style=""width:8cm; height:4.92cm;""><p>What type of rock is this?</p>","0","class_response","2","test","5","Andesite","Andesite","11","true","1","1","","",""
"null","","html-keyboard-response","310","2.0.0","1035188","rob","1","","","","","","","<p style='font-size: 30px;'><strong>Okay</strong></p>","null","neutral_feedback","2","test","5","","","","","","","","",""
"2439","","html-button-response","311","2.0.0","1037630","rob","1","","","","","","","<img src= ""rock_img/I_Gabbro_12.jpg"" style=""width:8cm; height:7.800000000000001cm;""><p>What type of rock is this?</p>","3","class_response","2","test","6","Gabbro","Gabbro","12","true","4","4","","",""
"null","","html-keyboard-response","312","2.0.0","1038136","rob","1","","","","","","","<p style='font-size: 30px;'><strong>Okay</strong></p>","null","neutral_feedback","2","test","6","","","","","","","","",""
"1396","","html-button-response","313","2.0.0","1039534","rob","1","","","","","","","<img src= ""rock_img/I_Pumice_13.jpg"" style=""width:8cm; height:8.200000000000001cm;""><p>What type of rock is this?</p>","7","class_response","2","test","7","Pumice","Pumice","13","true","8","8","","",""
"null","","html-keyboard-response","314","2.0.0","1040050","rob","1","","","","","","","<p style='font-size: 30px;'><strong>Okay</strong></p>","null","neutral_feedback","2","test","7","","","","","","","","",""
"1834","","html-button-response","315","2.0.0","1041886","rob","1","","","","","","","<img src= ""rock_img/I_Andesite_03.jpg"" style=""width:8cm; height:5.73cm;""><p>What type of rock is this?</p>","0","class_response","2","test","8","Andesite","Andesite","03","true","1","1","","",""
"null","","html-keyboard-response","316","2.0.0","1042401","rob","1","","","","","","","<p style='font-size: 30px;'><strong>Okay</strong></p>","null","neutral_feedback","2","test","8","","","","","","","","",""
"1531","","html-button-response","317","2.0.0","1043934","rob","1","","","","","","","<img src= ""rock_img/I_Obsidian_04.jpg"" style=""width:8cm; height:6.930000000000001cm;""><p>What type of rock is this?</p>","4","class_response","2","test","9","Obsidian","Obsidian","04","true","5","5","","",""
"null","","html-keyboard-response","318","2.0.0","1044443","rob","1","","","","","","","<p style='font-size: 30px;'><strong>Okay</strong></p>","null","neutral_feedback","2","test","9","","","","","","","","",""
"1609","","html-button-response","319","2.0.0","1046054","rob","1","","","","","","","<img src= ""rock_img/I_Diorite_09.jpg"" style=""width:8cm; height:5.27cm;""><p>What type of rock is this?</p>","2","class_response","2","test","10","Diorite","Diorite","09","true","3","3","","",""
"null","","html-keyboard-response","320","2.0.0","1046562","rob","1","","","","","","","<p style='font-size: 30px;'><strong>Okay</strong></p>","null","neutral_feedback","2","test","10","","","","","","","","",""
"2034","","html-button-response","321","2.0.0","1048598","rob","1","","","","","","","<img src= ""rock_img/I_Peridotite_04.jpg"" style=""width:8cm; height:6.680000000000001cm;""><p>What type of rock is this?</p>","5","class_response","2","test","11","Pegmatite","Peridotite","04","false","6","7","","",""
"null","","html-keyboard-response","322","2.0.0","1049103","rob","1","","","","","","","<p style='font-size: 30px;'><strong>Okay</strong></p>","null","neutral_feedback","2","test","11","","","","","","","","",""
"1583","","html-button-response","323","2.0.0","1050686","rob","1","","","","","","","<img src= ""rock_img/I_Pumice_09.jpg"" style=""width:8cm; height:6.44cm;""><p>What type of rock is this?</p>","7","class_response","2","test","12","Pumice","Pumice","09","true","8","8","","",""
"null","","html-keyboard-response","324","2.0.0","1051190","rob","1","","","","","","","<p style='font-size: 30px;'><strong>Okay</strong></p>","null","neutral_feedback","2","test","12","","","","","","","","",""
"1624","","html-button-response","325","2.0.0","1052814","rob","1","","","","","","","<img src= ""rock_img/I_Basalt_08.jpg"" style=""width:8cm; height:10.44cm;""><p>What type of rock is this?</p>","1","class_response","2","test","13","Basalt","Basalt","08","true","2","2","","",""
"null","","html-keyboard-response","326","2.0.0","1053324","rob","1","","","","","","","<p style='font-size: 30px;'><strong>Okay</strong></p>","null","neutral_feedback","2","test","13","","","","","","","","",""
"5432","","html-button-response","327","2.0.0","1058758","rob","1","","","","","","","<img src= ""rock_img/I_Basalt_14.jpg"" style=""width:8cm; height:5.82cm;""><p>What type of rock is this?</p>","3","class_response","2","test","14","Gabbro","Basalt","14","false","4","2","","",""
"null","","html-keyboard-response","328","2.0.0","1059260","rob","1","","","","","","","<p style='font-size: 30px;'><strong>Okay</strong></p>","null","neutral_feedback","2","test","14","","","","","","","","",""
"1768","","html-button-response","329","2.0.0","1061030","rob","1","","","","","","","<img src= ""rock_img/I_Pegmatite_15.jpg"" style=""width:8cm; height:6cm;""><p>What type of rock is this?</p>","5","class_response","2","test","15","Pegmatite","Pegmatite","15","true","6","6","","",""
"null","","html-keyboard-response","330","2.0.0","1061532","rob","1","","","","","","","<p style='font-size: 30px;'><strong>Okay</strong></p>","null","neutral_feedback","2","test","15","","","","","","","","",""
"2896","","html-button-response","331","2.0.0","1064430","rob","1","","","","","","","<img src= ""rock_img/I_Gabbro_13.jpg"" style=""width:8cm; height:5.08cm;""><p>What type of rock is this?</p>","3","class_response","2","test","16","Gabbro","Gabbro","13","true","4","4","","",""
"null","","html-keyboard-response","332","2.0.0","1064941","rob","1","","","","","","","<p style='font-size: 30px;'><strong>Okay</strong></p>","null","neutral_feedback","2","test","16","","","","","","","","",""
"1791","","html-button-response","333","2.0.0","1066734","rob","1","","","","","","","<img src= ""rock_img/I_Peridotite_16.jpg"" style=""width:8cm; height:6.989999999999999cm;""><p>What type of rock is this?</p>","6","class_response","2","test","17","Peridotite","Peridotite","16","true","7","7","","",""
"null","","html-keyboard-response","334","2.0.0","1067239","rob","1","","","","","","","<p style='font-size: 30px;'><strong>Okay</strong></p>","null","neutral_feedback","2","test","17","","","","","","","","",""
"1318","","html-button-response","335","2.0.0","1068558","rob","1","","","","","","","<img src= ""rock_img/I_Andesite_06.jpg"" style=""width:8cm; height:6.840000000000001cm;""><p>What type of rock is this?</p>","0","class_response","2","test","18","Andesite","Andesite","06","true","1","1","","",""
"null","","html-keyboard-response","336","2.0.0","1069073","rob","1","","","","","","","<p style='font-size: 30px;'><strong>Okay</strong></p>","null","neutral_feedback","2","test","18","","","","","","","","",""
"1523","","html-button-response","337","2.0.0","1070598","rob","1","","","","","","","<img src= ""rock_img/I_Pegmatite_10.jpg"" style=""width:8cm; height:4.16cm;""><p>What type of rock is this?</p>","5","class_response","2","test","19","Pegmatite","Pegmatite","10","true","6","6","","",""
"null","","html-keyboard-response","338","2.0.0","1071101","rob","1","","","","","","","<p style='font-size: 30px;'><strong>Okay</strong></p>","null","neutral_feedback","2","test","19","","","","","","","","",""
"9007","","html-button-response","339","2.0.0","1080110","rob","1","","","","","","","<img src= ""rock_img/I_Pumice_16.jpg"" style=""width:8cm; height:6.79cm;""><p>What type of rock is this?</p>","7","class_response","2","test","20","Pumice","Pumice","16","true","8","8","","",""
"null","","html-keyboard-response","340","2.0.0","1080613","rob","1","","","","","","","<p style='font-size: 30px;'><strong>Okay</strong></p>","null","neutral_feedback","2","test","20","","","","","","","","",""
"1527","","html-button-response","341","2.0.0","1082142","rob","1","","","","","","","<img src= ""rock_img/I_Diorite_02.jpg"" style=""width:8cm; height:6.27cm;""><p>What type of rock is this?</p>","2","class_response","2","test","21","Diorite","Diorite","02","true","3","3","","",""
"null","","html-keyboard-response","342","2.0.0","1082649","rob","1","","","","","","","<p style='font-size: 30px;'><strong>Okay</strong></p>","null","neutral_feedback","2","test","21","","","","","","","","",""
"1619","","html-button-response","343","2.0.0","1084269","rob","1","","","","","","","<img src= ""rock_img/I_Pegmatite_11.jpg"" style=""width:8cm; height:8.14cm;""><p>What type of rock is this?</p>","5","class_response","2","test","22","Pegmatite","Pegmatite","11","true","6","6","","",""
"null","","html-keyboard-response","344","2.0.0","1084772","rob","1","","","","","","","<p style='font-size: 30px;'><strong>Okay</strong></p>","null","neutral_feedback","2","test","22","","","","","","","","",""
