participant,condition,date,expName,psychopyVersion,OS,frameRate,block,phase,trial,learn_mouse.x,learn_mouse.y,learn_mouse.leftButton,learn_mouse.midButton,learn_mouse.rightButton,learn_mouse.time,learn_mouse.clicked_name,cat,token,row,col,t_select,cat_rec,token_rec,cat_mouse_l.x,cat_mouse_l.y,cat_mouse_l.leftButton,cat_mouse_l.midButton,cat_mouse_l.rightButton,cat_mouse_l.time,cat_mouse_l.clicked_name,resp,t_resp,corr,train_trials.thisRepN,train_trials.thisTrialN,train_trials.thisN,train_trials.thisIndex,train_trials.ran,cat_mouse_t.x,cat_mouse_t.y,cat_mouse_t.leftButton,cat_mouse_t.midButton,cat_mouse_t.rightButton,cat_mouse_t.time,cat_mouse_t.clicked_name,test_trials.thisRepN,test_trials.thisTrialN,test_trials.thisN,test_trials.thisIndex,test_trials.ran,Bonus
5596ab22fdf99b2d3a68c840,SCR,2024-06-24_14h48.01.370,LearnStrategy,2023.2.3,MacIntel,56.49717514,,,,,,,,,,,,,,,,,,,,,,,,,,,,,,,,,,,,,,,,,,,,,
5596ab22fdf99b2d3a68c840,SCR,2024-06-24_14h48.01.370,LearnStrategy,2023.2.3,MacIntel,56.49717514,1,1,1,0.371487879,0.271279724,1,0,0,2.4111,Basalt_09,2,09,5,7,2.411,2,09,-0.070123065,-0.253208415,1,0,0,3.3019,Basalt_rect,2,3.302,1,0,0,0,0,1,,,,,,,,,,,,,
5596ab22fdf99b2d3a68c840,SCR,2024-06-24_14h48.01.370,LearnStrategy,2023.2.3,MacIntel,56.49717514,1,1,2,-0.544273009,0.094054837,1,0,0,1.8978,Peridotite_02,7,02,4,1,1.898,7,02,0.093814087,-0.231478204,1,0,0,3.7916,Diorite_rect,3,3.792,0,1,0,1,0,1,,,,,,,,,,,,,
5596ab22fdf99b2d3a68c840,SCR,2024-06-24_14h48.01.370,LearnStrategy,2023.2.3,MacIntel,56.49717514,1,1,3,0.081837746,-0.37708079,1,0,0,2.0649,Pumice_16,8,16,1,5,2.065,8,16,0.399426496,-0.394614665,1,0,0,1.8588,Pumice_rect,8,1.859,1,2,0,2,0,1,,,,,,,,,,,,,
5596ab22fdf99b2d3a68c840,SCR,2024-06-24_14h48.01.370,LearnStrategy,2023.2.3,MacIntel,56.49717514,1,1,4,-0.438667863,0.054773769,1,0,0,2.4985,Andesite_10,1,10,4,2,2.498,1,10,-0.413034792,-0.390631047,1,0,0,3.1584,Obsidian_rect,5,3.158,0,3,0,3,0,1,,,,,,,,,,,,,
5596ab22fdf99b2d3a68c840,SCR,2024-06-24_14h48.01.370,LearnStrategy,2023.2.3,MacIntel,56.49717514,1,1,5,-0.094378832,-0.11328012,1,0,0,3.5813,Diorite_10,3,10,3,4,3.581,3,10,-0.164868729,-0.255703453,1,0,0,6.8922,Basalt_rect,2,6.892,0,4,0,4,0,1,,,,,,,,,,,,,
5596ab22fdf99b2d3a68c840,SCR,2024-06-24_14h48.01.370,LearnStrategy,2023.2.3,MacIntel,56.49717514,1,1,6,-0.537482481,-0.088749864,1,0,0,1.4474,Andesite_16,1,16,3,1,1.447,1,16,-0.465055339,-0.248217039,1,0,0,2.1927,Andesite_rect,1,2.193,1,5,0,5,0,1,,,,,,,,,,,,,
5596ab22fdf99b2d3a68c840,SCR,2024-06-24_14h48.01.370,LearnStrategy,2023.2.3,MacIntel,56.49717514,1,1,7,-0.427968456,0.392959934,1,0,0,2.9301,Pegmatite_06,6,06,6,2,2.93,6,06,-0.140524801,-0.395827456,1,0,0,2.7602,Pegmatite_rect,6,2.76,1,6,0,6,0,1,,,,,,,,,,,,,
5596ab22fdf99b2d3a68c840,SCR,2024-06-24_14h48.01.370,LearnStrategy,2023.2.3,MacIntel,56.49717514,1,1,8,0.09609974,-0.110642271,1,0,0,1.2815,Diorite_13,3,13,3,5,1.281,3,13,0.40986509,-0.255785003,1,0,0,5.0422,Gabbro_rect,4,5.042,0,7,0,7,0,1,,,,,,,,,,,,,
5596ab22fdf99b2d3a68c840,SCR,2024-06-24_14h48.01.370,LearnStrategy,2023.2.3,MacIntel,56.49717514,1,1,9,0.064715237,0.070885468,1,0,0,1.1304,Gabbro_14,4,14,4,5,1.13,4,14,-0.376696382,-0.398302771,1,0,0,5.2926,Obsidian_rect,5,5.293,0,8,0,8,0,1,,,,,,,,,,,,,
5596ab22fdf99b2d3a68c840,SCR,2024-06-24_14h48.01.370,LearnStrategy,2023.2.3,MacIntel,56.49717514,1,1,10,-0.114021245,0.414273255,1,0,0,2.1812,Gabbro_16,4,16,6,4,2.181,4,16,0.468390232,-0.244339385,1,0,0,2.5921,Gabbro_rect,4,2.592,1,9,0,9,0,1,,,,,,,,,,,,,
5596ab22fdf99b2d3a68c840,SCR,2024-06-24_14h48.01.370,LearnStrategy,2023.2.3,MacIntel,56.49717514,1,1,11,0.063176134,-0.236609339,1,0,0,1.331,Pumice_03,8,03,2,5,1.331,8,03,0.33366541,-0.383415222,1,0,0,1.8919,Pumice_rect,8,1.892,1,10,0,10,0,1,,,,,,,,,,,,,
5596ab22fdf99b2d3a68c840,SCR,2024-06-24_14h48.01.370,LearnStrategy,2023.2.3,MacIntel,56.49717514,1,1,12,-0.227929744,-0.247397303,1,0,0,1.7157,Obsidian_07,5,07,2,3,1.716,5,07,-0.220597218,-0.414077646,1,0,0,5.6764,Pegmatite_rect,6,5.676,0,11,0,11,0,1,,,,,,,,,,,,,
5596ab22fdf99b2d3a68c840,SCR,2024-06-24_14h48.01.370,LearnStrategy,2023.2.3,MacIntel,56.49717514,1,1,13,0.214489746,0.387707774,1,0,0,2.5485,Basalt_02,2,02,6,6,2.548,2,02,-0.193119134,-0.252979985,1,0,0,2.9979,Basalt_rect,2,2.998,1,12,0,12,0,1,,,,,,,,,,,,,
5596ab22fdf99b2d3a68c840,SCR,2024-06-24_14h48.01.370,LearnStrategy,2023.2.3,MacIntel,56.49717514,1,1,14,-0.241779751,-0.099737944,1,0,0,1.1385,Peridotite_14,7,14,3,3,1.139,7,14,0.155398786,-0.249723477,1,0,0,1.752,Diorite_rect,3,1.752,0,13,0,13,0,1,,,,,,,,,,,,,
5596ab22fdf99b2d3a68c840,SCR,2024-06-24_14h48.01.370,LearnStrategy,2023.2.3,MacIntel,56.49717514,1,1,15,-0.551693923,0.376105188,1,0,0,2.215,Obsidian_14,5,14,6,1,2.215,5,14,-0.445315382,-0.390368878,1,0,0,2.6058,Obsidian_rect,5,2.606,1,14,0,14,0,1,,,,,,,,,,,,,
5596ab22fdf99b2d3a68c840,SCR,2024-06-24_14h48.01.370,LearnStrategy,2023.2.3,MacIntel,56.49717514,1,1,16,-0.06885359,-0.231339857,1,0,0,1.6991,Pegmatite_16,6,16,2,4,1.699,6,16,-0.120539686,-0.411104782,1,0,0,2.314,Pegmatite_rect,6,2.314,1,15,0,15,0,1,,,,,,,,,,,,,
5596ab22fdf99b2d3a68c840,SCR,2024-06-24_14h48.01.370,LearnStrategy,2023.2.3,MacIntel,56.49717514,1,2,1,,,,,,,,4,15,,,,,,,,,,,,,7,6.657,0,,,,,,0.080765336,-0.403888052,1,0,0,6.6568,Peridotite_rect,0,0,0,0,1,
5596ab22fdf99b2d3a68c840,SCR,2024-06-24_14h48.01.370,LearnStrategy,2023.2.3,MacIntel,56.49717514,1,2,2,,,,,,,,1,11,,,,,,,,,,,,,3,6.611,0,,,,,,0.105041843,-0.26844878,1,0,0,6.6109,Diorite_rect,1,0,1,0,1,
5596ab22fdf99b2d3a68c840,SCR,2024-06-24_14h48.01.370,LearnStrategy,2023.2.3,MacIntel,56.49717514,1,2,3,,,,,,,,1,05,,,,,,,,,,,,,1,7.786,1,,,,,,-0.328092787,-0.261232447,1,0,0,7.7856,Andesite_rect,2,0,2,0,1,
5596ab22fdf99b2d3a68c840,SCR,2024-06-24_14h48.01.370,LearnStrategy,2023.2.3,MacIntel,56.49717514,1,2,4,,,,,,,,5,16,,,,,,,,,,,,,5,3.209,1,,,,,,-0.401801667,-0.378893026,1,0,0,3.2085,Obsidian_rect,3,0,3,0,1,
5596ab22fdf99b2d3a68c840,SCR,2024-06-24_14h48.01.370,LearnStrategy,2023.2.3,MacIntel,56.49717514,1,2,5,,,,,,,,5,12,,,,,,,,,,,,,5,1.797,1,,,,,,-0.39804501,-0.392044293,1,0,0,1.7967,Obsidian_rect,4,0,4,0,1,
5596ab22fdf99b2d3a68c840,SCR,2024-06-24_14h48.01.370,LearnStrategy,2023.2.3,MacIntel,56.49717514,1,2,6,,,,,,,,2,06,,,,,,,,,,,,,2,1.348,1,,,,,,-0.211851784,-0.253199881,1,0,0,1.3476,Basalt_rect,5,0,5,0,1,
5596ab22fdf99b2d3a68c840,SCR,2024-06-24_14h48.01.370,LearnStrategy,2023.2.3,MacIntel,56.49717514,1,2,7,,,,,,,,2,14,,,,,,,,,,,,,8,2.433,0,,,,,,0.392234294,-0.40640061,1,0,0,2.4333,Pumice_rect,6,0,6,0,1,
5596ab22fdf99b2d3a68c840,SCR,2024-06-24_14h48.01.370,LearnStrategy,2023.2.3,MacIntel,56.49717514,1,2,8,,,,,,,,6,07,,,,,,,,,,,,,4,2.817,0,,,,,,0.382567229,-0.259787326,1,0,0,2.8168,Gabbro_rect,7,0,7,0,1,
5596ab22fdf99b2d3a68c840,SCR,2024-06-24_14h48.01.370,LearnStrategy,2023.2.3,MacIntel,56.49717514,1,2,9,,,,,,,,6,10,,,,,,,,,,,,,6,4.438,1,,,,,,-0.113540367,-0.386636183,1,0,0,4.4377,Pegmatite_rect,8,0,8,0,1,
5596ab22fdf99b2d3a68c840,SCR,2024-06-24_14h48.01.370,LearnStrategy,2023.2.3,MacIntel,56.49717514,1,2,10,,,,,,,,8,08,,,,,,,,,,,,,8,3.91,1,,,,,,0.413879282,-0.404469469,1,0,0,3.9099,Pumice_rect,9,0,9,0,1,
5596ab22fdf99b2d3a68c840,SCR,2024-06-24_14h48.01.370,LearnStrategy,2023.2.3,MacIntel,56.49717514,1,2,11,,,,,,,,7,16,,,,,,,,,,,,,4,1.643,0,,,,,,0.397729492,-0.259544938,1,0,0,1.6433,Gabbro_rect,10,0,10,0,1,
5596ab22fdf99b2d3a68c840,SCR,2024-06-24_14h48.01.370,LearnStrategy,2023.2.3,MacIntel,56.49717514,1,2,12,,,,,,,,7,12,,,,,,,,,,,,,7,6.491,1,,,,,,0.102334934,-0.414099573,1,0,0,6.4906,Peridotite_rect,11,0,11,0,1,
5596ab22fdf99b2d3a68c840,SCR,2024-06-24_14h48.01.370,LearnStrategy,2023.2.3,MacIntel,56.49717514,1,2,13,,,,,,,,8,04,,,,,,,,,,,,,8,2.346,1,,,,,,0.367988191,-0.384831125,1,0,0,2.3461,Pumice_rect,12,0,12,0,1,
5596ab22fdf99b2d3a68c840,SCR,2024-06-24_14h48.01.370,LearnStrategy,2023.2.3,MacIntel,56.49717514,1,2,14,,,,,,,,4,11,,,,,,,,,,,,,2,1.816,0,,,,,,-0.149615535,-0.252177373,1,0,0,1.8163,Basalt_rect,13,0,13,0,1,
5596ab22fdf99b2d3a68c840,SCR,2024-06-24_14h48.01.370,LearnStrategy,2023.2.3,MacIntel,56.49717514,1,2,15,,,,,,,,3,07,,,,,,,,,,,,,7,10.984,0,,,,,,0.071999218,-0.398917982,1,0,0,10.9841,Peridotite_rect,14,0,14,0,1,
5596ab22fdf99b2d3a68c840,SCR,2024-06-24_14h48.01.370,LearnStrategy,2023.2.3,MacIntel,56.49717514,1,2,16,,,,,,,,3,02,,,,,,,,,,,,,2,4.511,0,,,,,,-0.118083417,-0.259213935,1,0,0,4.5114,Basalt_rect,15,0,15,0,1,
5596ab22fdf99b2d3a68c840,SCR,2024-06-24_14h48.01.370,LearnStrategy,2023.2.3,MacIntel,56.49717514,2,1,1,0.248345721,0.107281183,1,0,0,1.6989,Andesite_06,1,06,4,6,1.699,1,06,0.103640069,-0.381743311,1,0,0,1.9259,Peridotite_rect,7,1.926,0,0,0,0,0,1,,,,,,,,,,,,,
5596ab22fdf99b2d3a68c840,SCR,2024-06-24_14h48.01.370,LearnStrategy,2023.2.3,MacIntel,56.49717514,2,1,2,0.082512297,0.373313353,1,0,0,1.7633,Gabbro_13,4,13,6,5,1.763,4,13,0.39020058,-0.232135236,1,0,0,3.0267,Gabbro_rect,4,3.027,1,1,0,1,0,1,,,,,,,,,,,,,
5596ab22fdf99b2d3a68c840,SCR,2024-06-24_14h48.01.370,LearnStrategy,2023.2.3,MacIntel,56.49717514,2,1,3,-0.581619376,0.085809185,1,0,0,1.8818,Peridotite_02,7,02,4,1,1.882,7,02,0.110329861,-0.398420037,1,0,0,3.442,Peridotite_rect,7,3.442,1,2,0,2,0,1,,,,,,,,,,,,,
5596ab22fdf99b2d3a68c840,SCR,2024-06-24_14h48.01.370,LearnStrategy,2023.2.3,MacIntel,56.49717514,2,1,4,-0.233518304,0.08752902,1,0,0,1.4642,Gabbro_12,4,12,4,3,1.464,4,12,-0.164149249,-0.237774828,1,0,0,2.9593,Basalt_rect,2,2.959,0,3,0,3,0,1,,,,,,,,,,,,,
5596ab22fdf99b2d3a68c840,SCR,2024-06-24_14h48.01.370,LearnStrategy,2023.2.3,MacIntel,56.49717514,2,1,5,0.563419596,0.071209999,1,0,0,1.664,Diorite_14,3,14,4,8,1.664,3,14,-0.336583399,-0.271570728,1,0,0,5.0925,Andesite_rect,1,5.092,0,4,0,4,0,1,,,,,,,,,,,,,
5596ab22fdf99b2d3a68c840,SCR,2024-06-24_14h48.01.370,LearnStrategy,2023.2.3,MacIntel,56.49717514,2,1,6,0.601281964,0.416158196,1,0,0,1.7636,Gabbro_01,4,01,6,8,1.764,4,01,0.139917218,-0.41766623,1,0,0,2.3429,Peridotite_rect,7,2.343,0,5,0,5,0,1,,,,,,,,,,,,,
5596ab22fdf99b2d3a68c840,SCR,2024-06-24_14h48.01.370,LearnStrategy,2023.2.3,MacIntel,56.49717514,2,1,7,0.108286992,0.442188178,1,0,0,2.6814,Gabbro_13,4,13,6,5,2.681,4,13,0.395085879,-0.24589629,1,0,0,3.0055,Gabbro_rect,4,3.005,1,6,0,6,0,1,,,,,,,,,,,,,
5596ab22fdf99b2d3a68c840,SCR,2024-06-24_14h48.01.370,LearnStrategy,2023.2.3,MacIntel,56.49717514,2,1,8,-0.275770682,-0.138056776,1,0,0,1.1658,Peridotite_14,7,14,3,3,1.166,7,14,0.13221526,-0.38613756,1,0,0,2.8374,Peridotite_rect,7,2.837,1,7,0,7,0,1,,,,,,,,,,,,,
5596ab22fdf99b2d3a68c840,SCR,2024-06-24_14h48.01.370,LearnStrategy,2023.2.3,MacIntel,56.49717514,2,1,9,-0.203157665,-0.429129989,1,0,0,1.4964,Basalt_01,2,01,1,3,1.496,2,01,-0.13328281,-0.253742416,1,0,0,1.9604,Basalt_rect,2,1.96,1,8,0,8,0,1,,,,,,,,,,,,,
5596ab22fdf99b2d3a68c840,SCR,2024-06-24_14h48.01.370,LearnStrategy,2023.2.3,MacIntel,56.49717514,2,1,10,-0.410780617,-0.269295247,1,0,0,2.0319,Diorite_08,3,08,2,2,2.032,3,08,-0.40178217,-0.254400917,1,0,0,4.2942,Andesite_rect,1,4.294,0,9,0,9,0,1,,,,,,,,,,,,,
5596ab22fdf99b2d3a68c840,SCR,2024-06-24_14h48.01.370,LearnStrategy,2023.2.3,MacIntel,56.49717514,2,1,11,0.589632161,-0.415040701,1,0,0,2.1642,Pegmatite_09,6,09,1,8,2.164,6,09,-0.122376449,-0.413233326,1,0,0,3.044,Pegmatite_rect,6,3.044,1,10,0,10,0,1,,,,,,,,,,,,,
5596ab22fdf99b2d3a68c840,SCR,2024-06-24_14h48.01.370,LearnStrategy,2023.2.3,MacIntel,56.49717514,2,1,12,-0.098591896,0.08118142,1,0,0,1.7319,Pegmatite_13,6,13,4,4,1.732,6,13,0.139482964,-0.245090739,1,0,0,3.2925,Diorite_rect,3,3.293,0,11,0,11,0,1,,,,,,,,,,,,,
5596ab22fdf99b2d3a68c840,SCR,2024-06-24_14h48.01.370,LearnStrategy,2023.2.3,MacIntel,56.49717514,2,1,13,0.387368096,-0.418378985,1,0,0,1.9487,Andesite_03,1,03,1,7,1.949,1,03,-0.328964403,-0.263091363,1,0,0,3.3758,Andesite_rect,1,3.376,1,12,0,12,0,1,,,,,,,,,,,,,
5596ab22fdf99b2d3a68c840,SCR,2024-06-24_14h48.01.370,LearnStrategy,2023.2.3,MacIntel,56.49717514,2,1,14,0.556225586,0.270477295,1,0,0,1.3992,Diorite_16,3,16,5,8,1.399,3,16,0.10143523,-0.237647502,1,0,0,3.1757,Diorite_rect,3,3.176,1,13,0,13,0,1,,,,,,,,,,,,,
5596ab22fdf99b2d3a68c840,SCR,2024-06-24_14h48.01.370,LearnStrategy,2023.2.3,MacIntel,56.49717514,2,1,15,0.383066474,0.073912896,1,0,0,1.4805,Pumice_06,8,06,4,7,1.481,8,06,0.422539153,-0.405571945,1,0,0,1.0758,Pumice_rect,8,1.076,1,14,0,14,0,1,,,,,,,,,,,,,
5596ab22fdf99b2d3a68c840,SCR,2024-06-24_14h48.01.370,LearnStrategy,2023.2.3,MacIntel,56.49717514,2,1,16,0.225230464,0.380574657,1,0,0,4.3835,Basalt_02,2,02,6,6,4.384,2,02,-0.102403824,-0.241241794,1,0,0,8.7152,Basalt_rect,2,8.715,1,15,0,15,0,1,,,,,,,,,,,,,
5596ab22fdf99b2d3a68c840,SCR,2024-06-24_14h48.01.370,LearnStrategy,2023.2.3,MacIntel,56.49717514,2,2,1,,,,,,,,4,05,,,,,,,,,,,,,4,2.141,1,,,,,,0.384905667,-0.25316196,1,0,0,2.1412,Gabbro_rect,0,0,0,0,1,
5596ab22fdf99b2d3a68c840,SCR,2024-06-24_14h48.01.370,LearnStrategy,2023.2.3,MacIntel,56.49717514,2,2,2,,,,,,,,2,12,,,,,,,,,,,,,8,2.368,0,,,,,,0.394155206,-0.410343594,1,0,0,2.3685,Pumice_rect,1,0,1,0,1,
5596ab22fdf99b2d3a68c840,SCR,2024-06-24_14h48.01.370,LearnStrategy,2023.2.3,MacIntel,56.49717514,2,2,3,,,,,,,,1,02,,,,,,,,,,,,,3,2.759,0,,,,,,0.165088117,-0.255882715,1,0,0,2.7589,Diorite_rect,2,0,2,0,1,
5596ab22fdf99b2d3a68c840,SCR,2024-06-24_14h48.01.370,LearnStrategy,2023.2.3,MacIntel,56.49717514,2,2,4,,,,,,,,7,05,,,,,,,,,,,,,7,1.377,1,,,,,,0.147074721,-0.405914194,1,0,0,1.3765,Peridotite_rect,3,0,3,0,1,
5596ab22fdf99b2d3a68c840,SCR,2024-06-24_14h48.01.370,LearnStrategy,2023.2.3,MacIntel,56.49717514,2,2,5,,,,,,,,3,12,,,,,,,,,,,,,1,3.348,0,,,,,,-0.458509431,-0.263743704,1,0,0,3.3479,Andesite_rect,4,0,4,0,1,
5596ab22fdf99b2d3a68c840,SCR,2024-06-24_14h48.01.370,LearnStrategy,2023.2.3,MacIntel,56.49717514,2,2,6,,,,,,,,4,09,,,,,,,,,,,,,4,2.042,1,,,,,,0.337842701,-0.256974792,1,0,0,2.0419,Gabbro_rect,5,0,5,0,1,
5596ab22fdf99b2d3a68c840,SCR,2024-06-24_14h48.01.370,LearnStrategy,2023.2.3,MacIntel,56.49717514,2,2,7,,,,,,,,5,09,,,,,,,,,,,,,5,2.158,1,,,,,,-0.402314476,-0.394393921,1,0,0,2.158,Obsidian_rect,6,0,6,0,1,
5596ab22fdf99b2d3a68c840,SCR,2024-06-24_14h48.01.370,LearnStrategy,2023.2.3,MacIntel,56.49717514,2,2,8,,,,,,,,5,04,,,,,,,,,,,,,5,1.265,1,,,,,,-0.402314476,-0.394393921,1,0,0,1.2654,Obsidian_rect,7,0,7,0,1,
5596ab22fdf99b2d3a68c840,SCR,2024-06-24_14h48.01.370,LearnStrategy,2023.2.3,MacIntel,56.49717514,2,2,9,,,,,,,,3,15,,,,,,,,,,,,,1,6.036,0,,,,,,-0.375783341,-0.248231054,1,0,0,6.0364,Andesite_rect,8,0,8,0,1,
5596ab22fdf99b2d3a68c840,SCR,2024-06-24_14h48.01.370,LearnStrategy,2023.2.3,MacIntel,56.49717514,2,2,10,,,,,,,,6,15,,,,,,,,,,,,,6,1.875,1,,,,,,-0.082443407,-0.3863214,1,0,0,1.8754,Pegmatite_rect,9,0,9,0,1,
5596ab22fdf99b2d3a68c840,SCR,2024-06-24_14h48.01.370,LearnStrategy,2023.2.3,MacIntel,56.49717514,2,2,11,,,,,,,,1,14,,,,,,,,,,,,,3,2.219,0,,,,,,0.105925722,-0.23554501,1,0,0,2.2188,Diorite_rect,10,0,10,0,1,
5596ab22fdf99b2d3a68c840,SCR,2024-06-24_14h48.01.370,LearnStrategy,2023.2.3,MacIntel,56.49717514,2,2,12,,,,,,,,6,05,,,,,,,,,,,,,6,1.878,1,,,,,,-0.126512089,-0.398150522,1,0,0,1.8779,Pegmatite_rect,11,0,11,0,1,
5596ab22fdf99b2d3a68c840,SCR,2024-06-24_14h48.01.370,LearnStrategy,2023.2.3,MacIntel,56.49717514,2,2,13,,,,,,,,8,14,,,,,,,,,,,,,8,1.278,1,,,,,,0.386395942,-0.389403393,1,0,0,1.2777,Pumice_rect,12,0,12,0,1,
5596ab22fdf99b2d3a68c840,SCR,2024-06-24_14h48.01.370,LearnStrategy,2023.2.3,MacIntel,56.49717514,2,2,14,,,,,,,,7,10,,,,,,,,,,,,,7,2.742,1,,,,,,0.128147154,-0.400395316,1,0,0,2.7424,Peridotite_rect,13,0,13,0,1,
5596ab22fdf99b2d3a68c840,SCR,2024-06-24_14h48.01.370,LearnStrategy,2023.2.3,MacIntel,56.49717514,2,2,15,,,,,,,,8,10,,,,,,,,,,,,,8,3.507,1,,,,,,0.419806699,-0.39074707,1,0,0,3.5066,Pumice_rect,14,0,14,0,1,
5596ab22fdf99b2d3a68c840,SCR,2024-06-24_14h48.01.370,LearnStrategy,2023.2.3,MacIntel,56.49717514,2,2,16,,,,,,,,2,04,,,,,,,,,,,,,2,3.028,1,,,,,,-0.120158951,-0.24201468,1,0,0,3.0281,Basalt_rect,15,0,15,0,1,
5596ab22fdf99b2d3a68c840,SCR,2024-06-24_14h48.01.370,LearnStrategy,2023.2.3,MacIntel,56.49717514,3,1,1,-0.111679529,-0.101604264,1,0,0,2.2154,Diorite_10,3,10,3,4,2.215,3,10,0.108853602,-0.380675139,1,0,0,2.0756,Peridotite_rect,7,2.076,0,0,0,0,0,1,,,,,,,,,,,,,
5596ab22fdf99b2d3a68c840,SCR,2024-06-24_14h48.01.370,LearnStrategy,2023.2.3,MacIntel,56.49717514,3,1,2,-0.109042528,-0.270341322,1,0,0,1.1818,Pegmatite_16,6,16,2,4,1.182,6,16,-0.112567478,-0.395760543,1,0,0,0.9743,Pegmatite_rect,6,0.974,1,1,0,1,0,1,,,,,,,,,,,,,
5596ab22fdf99b2d3a68c840,SCR,2024-06-24_14h48.01.370,LearnStrategy,2023.2.3,MacIntel,56.49717514,3,1,3,0.560304656,-0.103165012,1,0,0,3.0482,Diorite_06,3,06,3,8,3.048,3,06,0.155836882,-0.230567254,1,0,0,2.665,Diorite_rect,3,2.665,1,2,0,2,0,1,,,,,,,,,,,,,
5596ab22fdf99b2d3a68c840,SCR,2024-06-24_14h48.01.370,LearnStrategy,2023.2.3,MacIntel,56.49717514,3,1,4,0.39313185,-0.264125513,1,0,0,2.1985,Pumice_13,8,13,2,7,2.198,8,13,0.117701552,-0.252620669,1,0,0,5.8935,Diorite_rect,3,5.894,0,3,0,3,0,1,,,,,,,,,,,,,
5596ab22fdf99b2d3a68c840,SCR,2024-06-24_14h48.01.370,LearnStrategy,2023.2.3,MacIntel,56.49717514,3,1,5,-0.53736058,-0.099631529,1,0,0,1.7813,Andesite_16,1,16,3,1,1.781,1,16,0.132805379,-0.252528777,1,0,0,1.8424,Diorite_rect,3,1.842,0,4,0,4,0,1,,,,,,,,,,,,,
5596ab22fdf99b2d3a68c840,SCR,2024-06-24_14h48.01.370,LearnStrategy,2023.2.3,MacIntel,56.49717514,3,1,6,-0.073206527,-0.40858889,1,0,0,1.6308,Peridotite_06,7,06,1,4,1.631,7,06,0.101100554,-0.386721915,1,0,0,1.6274,Peridotite_rect,7,1.627,1,5,0,5,0,1,,,,,,,,,,,,,
5596ab22fdf99b2d3a68c840,SCR,2024-06-24_14h48.01.370,LearnStrategy,2023.2.3,MacIntel,56.49717514,3,1,7,0.570709794,-0.240939557,1,0,0,1.7471,Andesite_04,1,04,2,8,1.747,1,04,0.140430366,-0.252801062,1,0,0,3.8259,Diorite_rect,3,3.826,0,6,0,6,0,1,,,,,,,,,,,,,
5596ab22fdf99b2d3a68c840,SCR,2024-06-24_14h48.01.370,LearnStrategy,2023.2.3,MacIntel,56.49717514,3,1,8,-0.571675901,-0.108426242,1,0,0,1.5976,Andesite_16,1,16,3,1,1.598,1,16,-0.382558017,-0.257908348,1,0,0,2.9751,Andesite_rect,1,2.975,1,7,0,7,0,1,,,,,,,,,,,,,
5596ab22fdf99b2d3a68c840,SCR,2024-06-24_14h48.01.370,LearnStrategy,2023.2.3,MacIntel,56.49717514,3,1,9,0.081938002,-0.076132259,1,0,0,1.3312,Diorite_13,3,13,3,5,1.331,3,13,0.139508848,-0.237825577,1,0,0,1.3435,Diorite_rect,3,1.343,1,8,0,8,0,1,,,,,,,,,,,,,
5596ab22fdf99b2d3a68c840,SCR,2024-06-24_14h48.01.370,LearnStrategy,2023.2.3,MacIntel,56.49717514,3,1,10,0.388116003,0.400201303,1,0,0,1.699,Obsidian_10,5,10,6,7,1.699,5,10,-0.47294142,-0.39056696,1,0,0,1.5218,Obsidian_rect,5,1.522,1,9,0,9,0,1,,,,,,,,,,,,,
5596ab22fdf99b2d3a68c840,SCR,2024-06-24_14h48.01.370,LearnStrategy,2023.2.3,MacIntel,56.49717514,3,1,11,0.055375389,0.092509037,1,0,0,1.3324,Gabbro_14,4,14,4,5,1.332,4,14,0.358109086,-0.243995893,1,0,0,1.9254,Gabbro_rect,4,1.925,1,10,0,10,0,1,,,,,,,,,,,,,
5596ab22fdf99b2d3a68c840,SCR,2024-06-24_14h48.01.370,LearnStrategy,2023.2.3,MacIntel,56.49717514,3,1,12,0.236963795,0.068430978,1,0,0,1.5332,Andesite_06,1,06,4,6,1.533,1,06,0.114312744,-0.26271221,1,0,0,2.3759,Diorite_rect,3,2.376,0,11,0,11,0,1,,,,,,,,,,,,,
5596ab22fdf99b2d3a68c840,SCR,2024-06-24_14h48.01.370,LearnStrategy,2023.2.3,MacIntel,56.49717514,3,1,13,0.411097774,0.262508138,1,0,0,1.5628,Basalt_09,2,09,5,7,1.563,2,09,-0.113102892,-0.235715456,1,0,0,3.6096,Basalt_rect,2,3.61,1,12,0,12,0,1,,,,,,,,,,,,,
5596ab22fdf99b2d3a68c840,SCR,2024-06-24_14h48.01.370,LearnStrategy,2023.2.3,MacIntel,56.49717514,3,1,14,0.219277954,-0.375794305,1,0,0,1.6978,Basalt_10,2,10,1,6,1.698,2,10,0.397130217,-0.250733835,1,0,0,1.5913,Gabbro_rect,4,1.591,0,13,0,13,0,1,,,,,,,,,,,,,
5596ab22fdf99b2d3a68c840,SCR,2024-06-24_14h48.01.370,LearnStrategy,2023.2.3,MacIntel,56.49717514,3,1,15,-0.272754584,0.103844621,1,0,0,1.3993,Gabbro_12,4,12,4,3,1.399,4,12,0.098479433,-0.235705171,1,0,0,2.5348,Diorite_rect,3,2.535,0,14,0,14,0,1,,,,,,,,,,,,,
5596ab22fdf99b2d3a68c840,SCR,2024-06-24_14h48.01.370,LearnStrategy,2023.2.3,MacIntel,56.49717514,3,1,16,0.550642112,-0.118315238,1,0,0,11.8152,Diorite_06,3,06,3,8,11.815,3,06,-0.398457506,-0.252192801,1,0,0,2.0487,Andesite_rect,1,2.049,0,15,0,15,0,1,,,,,,,,,,,,,
5596ab22fdf99b2d3a68c840,SCR,2024-06-24_14h48.01.370,LearnStrategy,2023.2.3,MacIntel,56.49717514,3,2,1,,,,,,,,6,12,,,,,,,,,,,,,6,2.527,1,,,,,,-0.076537803,-0.416931322,1,0,0,2.5272,Pegmatite_rect,0,0,0,0,1,
5596ab22fdf99b2d3a68c840,SCR,2024-06-24_14h48.01.370,LearnStrategy,2023.2.3,MacIntel,56.49717514,3,2,2,,,,,,,,5,08,,,,,,,,,,,,,5,1.176,1,,,,,,-0.342145454,-0.392398976,1,0,0,1.1758,Obsidian_rect,1,0,1,0,1,
5596ab22fdf99b2d3a68c840,SCR,2024-06-24_14h48.01.370,LearnStrategy,2023.2.3,MacIntel,56.49717514,3,2,3,,,,,,,,3,11,,,,,,,,,,,,,3,4.176,1,,,,,,0.136034704,-0.260374451,1,0,0,4.1761,Diorite_rect,2,0,2,0,1,
5596ab22fdf99b2d3a68c840,SCR,2024-06-24_14h48.01.370,LearnStrategy,2023.2.3,MacIntel,56.49717514,3,2,4,,,,,,,,8,09,,,,,,,,,,,,,8,2.478,1,,,,,,0.367611242,-0.386288113,1,0,0,2.4779,Pumice_rect,3,0,3,0,1,
5596ab22fdf99b2d3a68c840,SCR,2024-06-24_14h48.01.370,LearnStrategy,2023.2.3,MacIntel,56.49717514,3,2,5,,,,,,,,8,05,,,,,,,,,,,,,8,1.928,1,,,,,,0.367611242,-0.386288113,1,0,0,1.9275,Pumice_rect,4,0,4,0,1,
5596ab22fdf99b2d3a68c840,SCR,2024-06-24_14h48.01.370,LearnStrategy,2023.2.3,MacIntel,56.49717514,3,2,6,,,,,,,,5,02,,,,,,,,,,,,,5,2.059,1,,,,,,-0.426489653,-0.41267395,1,0,0,2.0594,Obsidian_rect,5,0,5,0,1,
5596ab22fdf99b2d3a68c840,SCR,2024-06-24_14h48.01.370,LearnStrategy,2023.2.3,MacIntel,56.49717514,3,2,7,,,,,,,,2,08,,,,,,,,,,,,,2,4.077,1,,,,,,-0.150026449,-0.254142535,1,0,0,4.0771,Basalt_rect,6,0,6,0,1,
5596ab22fdf99b2d3a68c840,SCR,2024-06-24_14h48.01.370,LearnStrategy,2023.2.3,MacIntel,56.49717514,3,2,8,,,,,,,,2,05,,,,,,,,,,,,,4,1.782,0,,,,,,0.390410134,-0.254092577,1,0,0,1.7815,Gabbro_rect,7,0,7,0,1,
5596ab22fdf99b2d3a68c840,SCR,2024-06-24_14h48.01.370,LearnStrategy,2023.2.3,MacIntel,56.49717514,3,2,9,,,,,,,,7,15,,,,,,,,,,,,,7,2.142,1,,,,,,0.108371198,-0.390338304,1,0,0,2.1425,Peridotite_rect,8,0,8,0,1,
5596ab22fdf99b2d3a68c840,SCR,2024-06-24_14h48.01.370,LearnStrategy,2023.2.3,MacIntel,56.49717514,3,2,10,,,,,,,,6,03,,,,,,,,,,,,,6,1.61,1,,,,,,-0.143375595,-0.390563682,1,0,0,1.6102,Pegmatite_rect,9,0,9,0,1,
5596ab22fdf99b2d3a68c840,SCR,2024-06-24_14h48.01.370,LearnStrategy,2023.2.3,MacIntel,56.49717514,3,2,11,,,,,,,,3,09,,,,,,,,,,,,,1,2.391,0,,,,,,-0.427651865,-0.240008658,1,0,0,2.3914,Andesite_rect,10,0,10,0,1,
5596ab22fdf99b2d3a68c840,SCR,2024-06-24_14h48.01.370,LearnStrategy,2023.2.3,MacIntel,56.49717514,3,2,12,,,,,,,,1,07,,,,,,,,,,,,,3,4.801,0,,,,,,0.110519296,-0.261115067,1,0,0,4.8009,Diorite_rect,11,0,11,0,1,
5596ab22fdf99b2d3a68c840,SCR,2024-06-24_14h48.01.370,LearnStrategy,2023.2.3,MacIntel,56.49717514,3,2,13,,,,,,,,7,04,,,,,,,,,,,,,3,5.709,0,,,,,,0.103223334,-0.250401137,1,0,0,5.7085,Diorite_rect,12,0,12,0,1,
5596ab22fdf99b2d3a68c840,SCR,2024-06-24_14h48.01.370,LearnStrategy,2023.2.3,MacIntel,56.49717514,3,2,14,,,,,,,,4,10,,,,,,,,,,,,,4,2.727,1,,,,,,0.366506845,-0.259181496,1,0,0,2.7268,Gabbro_rect,13,0,13,0,1,
5596ab22fdf99b2d3a68c840,SCR,2024-06-24_14h48.01.370,LearnStrategy,2023.2.3,MacIntel,56.49717514,3,2,15,,,,,,,,4,03,,,,,,,,,,,,,2,2.009,0,,,,,,-0.168865628,-0.267914327,1,0,0,2.0091,Basalt_rect,14,0,14,0,1,
5596ab22fdf99b2d3a68c840,SCR,2024-06-24_14h48.01.370,LearnStrategy,2023.2.3,MacIntel,56.49717514,3,2,16,,,,,,,,1,09,,,,,,,,,,,,,1,3.632,1,,,,,,-0.343198027,-0.259880292,1,0,0,3.6318,Andesite_rect,15,0,15,0,1,
5596ab22fdf99b2d3a68c840,SCR,2024-06-24_14h48.01.370,LearnStrategy,2023.2.3,MacIntel,56.49717514,4,1,1,0.537040089,0.060315987,1,0,0,2.415,Diorite_14,3,14,4,8,2.415,3,14,-0.407943273,-0.2509283,1,0,0,1.8592,Andesite_rect,1,1.859,0,0,0,0,0,1,,,,,,,,,,,,,
5596ab22fdf99b2d3a68c840,SCR,2024-06-24_14h48.01.370,LearnStrategy,2023.2.3,MacIntel,56.49717514,4,1,2,0.240497278,-0.410014569,1,0,0,3.9652,Basalt_10,2,10,1,6,3.965,2,10,0.383390073,-0.252030945,1,0,0,2.2603,Gabbro_rect,4,2.26,0,1,0,1,0,1,,,,,,,,,,,,,
5596ab22fdf99b2d3a68c840,SCR,2024-06-24_14h48.01.370,LearnStrategy,2023.2.3,MacIntel,56.49717514,4,1,3,0.268837258,0.249972139,1,0,0,1.5641,Peridotite_08,7,08,5,6,1.564,7,08,0.127431234,-0.386918414,1,0,0,1.7396,Peridotite_rect,7,1.74,1,2,0,2,0,1,,,,,,,,,,,,,
5596ab22fdf99b2d3a68c840,SCR,2024-06-24_14h48.01.370,LearnStrategy,2023.2.3,MacIntel,56.49717514,4,1,4,0.369876438,-0.399582361,1,0,0,1.5661,Andesite_03,1,03,1,7,1.566,1,03,-0.3287913,-0.241448692,1,0,0,2.1928,Andesite_rect,1,2.193,1,3,0,3,0,1,,,,,,,,,,,,,
5596ab22fdf99b2d3a68c840,SCR,2024-06-24_14h48.01.370,LearnStrategy,2023.2.3,MacIntel,56.49717514,4,1,5,0.090402109,-0.116483505,1,0,0,0.9471,Diorite_13,3,13,3,5,0.947,3,13,0.125876759,-0.235647018,1,0,0,4.1268,Diorite_rect,3,4.127,1,4,0,4,0,1,,,,,,,,,,,,,
5596ab22fdf99b2d3a68c840,SCR,2024-06-24_14h48.01.370,LearnStrategy,2023.2.3,MacIntel,56.49717514,4,1,6,0.096006153,0.124358085,1,0,0,1.3636,Gabbro_14,4,14,4,5,1.364,4,14,0.374609036,-0.242464927,1,0,0,1.926,Gabbro_rect,4,1.926,1,5,0,5,0,1,,,,,,,,,,,,,
5596ab22fdf99b2d3a68c840,SCR,2024-06-24_14h48.01.370,LearnStrategy,2023.2.3,MacIntel,56.49717514,4,1,7,0.395238354,-0.425745533,1,0,0,2.0146,Andesite_03,1,03,1,7,2.015,1,03,-0.425045042,-0.247016737,1,0,0,1.8421,Andesite_rect,1,1.842,1,6,0,6,0,1,,,,,,,,,,,,,
5596ab22fdf99b2d3a68c840,SCR,2024-06-24_14h48.01.370,LearnStrategy,2023.2.3,MacIntel,56.49717514,4,1,8,0.547107499,0.087476631,1,0,0,1.9307,Diorite_14,3,14,4,8,1.931,3,14,0.130876329,-0.252362287,1,0,0,1.9765,Diorite_rect,3,1.976,1,7,0,7,0,1,,,,,,,,,,,,,
5596ab22fdf99b2d3a68c840,SCR,2024-06-24_14h48.01.370,LearnStrategy,2023.2.3,MacIntel,56.49717514,4,1,9,-0.417690249,0.2388853,1,0,0,1.8135,Basalt_16,2,16,5,2,1.813,2,16,0.370950769,-0.405494633,1,0,0,2.443,Pumice_rect,8,2.443,0,8,0,8,0,1,,,,,,,,,,,,,
5596ab22fdf99b2d3a68c840,SCR,2024-06-24_14h48.01.370,LearnStrategy,2023.2.3,MacIntel,56.49717514,4,1,10,0.240341187,0.406749669,1,0,0,2.1963,Basalt_02,2,02,6,6,2.196,2,02,-0.113468029,-0.235248594,1,0,0,1.8597,Basalt_rect,2,1.86,1,9,0,9,0,1,,,,,,,,,,,,,
5596ab22fdf99b2d3a68c840,SCR,2024-06-24_14h48.01.370,LearnStrategy,2023.2.3,MacIntel,56.49717514,4,1,11,0.047279527,0.377102138,1,0,0,1.7814,Gabbro_13,4,13,6,5,1.781,4,13,0.158732096,-0.235877708,1,0,0,4.277,Diorite_rect,3,4.277,0,10,0,10,0,1,,,,,,,,,,,,,
5596ab22fdf99b2d3a68c840,SCR,2024-06-24_14h48.01.370,LearnStrategy,2023.2.3,MacIntel,56.49717514,4,1,12,-0.547391821,0.084647369,1,0,0,1.8318,Peridotite_02,7,02,4,1,1.832,7,02,0.079367518,-0.406245027,1,0,0,1.2599,Peridotite_rect,7,1.26,1,11,0,11,0,1,,,,,,,,,,,,,
5596ab22fdf99b2d3a68c840,SCR,2024-06-24_14h48.01.370,LearnStrategy,2023.2.3,MacIntel,56.49717514,4,1,13,0.106846675,-0.391343519,1,0,0,1.4985,Pumice_16,8,16,1,5,1.498,8,16,0.410359022,-0.392967507,1,0,0,2.2278,Pumice_rect,8,2.228,1,12,0,12,0,1,,,,,,,,,,,,,
5596ab22fdf99b2d3a68c840,SCR,2024-06-24_14h48.01.370,LearnStrategy,2023.2.3,MacIntel,56.49717514,4,1,14,-0.562606557,-0.096089964,1,0,0,1.048,Andesite_16,1,16,3,1,1.048,1,16,-0.363511997,-0.239117262,1,0,0,2.143,Andesite_rect,1,2.143,1,13,0,13,0,1,,,,,,,,,,,,,
5596ab22fdf99b2d3a68c840,SCR,2024-06-24_14h48.01.370,LearnStrategy,2023.2.3,MacIntel,56.49717514,4,1,15,0.573059421,0.062089708,1,0,0,1.3653,Diorite_14,3,14,4,8,1.365,3,14,0.123008219,-0.252673396,1,0,0,2.9514,Diorite_rect,3,2.951,1,14,0,14,0,1,,,,,,,,,,,,,
5596ab22fdf99b2d3a68c840,SCR,2024-06-24_14h48.01.370,LearnStrategy,2023.2.3,MacIntel,56.49717514,4,1,16,-0.101008097,0.114183723,1,0,0,1.1794,Pegmatite_13,6,13,4,4,1.179,6,13,-0.072250084,-0.378552359,1,0,0,1.7526,Pegmatite_rect,6,1.753,1,15,0,15,0,1,,,,,,,,,,,,,
5596ab22fdf99b2d3a68c840,SCR,2024-06-24_14h48.01.370,LearnStrategy,2023.2.3,MacIntel,56.49717514,4,2,1,,,,,,,,3,15,,,,,,,,,,,,,1,2.134,0,,,,,,-0.36227304,-0.255272533,1,0,0,2.1342,Andesite_rect,0,0,0,0,1,
5596ab22fdf99b2d3a68c840,SCR,2024-06-24_14h48.01.370,LearnStrategy,2023.2.3,MacIntel,56.49717514,4,2,2,,,,,,,,5,08,,,,,,,,,,,,,5,1.528,1,,,,,,-0.38914162,-0.398345834,1,0,0,1.5277,Obsidian_rect,1,0,1,0,1,
5596ab22fdf99b2d3a68c840,SCR,2024-06-24_14h48.01.370,LearnStrategy,2023.2.3,MacIntel,56.49717514,4,2,3,,,,,,,,2,14,,,,,,,,,,,,,8,2.012,0,,,,,,0.360363091,-0.391161205,1,0,0,2.0117,Pumice_rect,2,0,2,0,1,
5596ab22fdf99b2d3a68c840,SCR,2024-06-24_14h48.01.370,LearnStrategy,2023.2.3,MacIntel,56.49717514,4,2,4,,,,,,,,4,11,,,,,,,,,,,,,2,3.257,0,,,,,,-0.130858697,-0.233429125,1,0,0,3.257,Basalt_rect,3,0,3,0,1,
5596ab22fdf99b2d3a68c840,SCR,2024-06-24_14h48.01.370,LearnStrategy,2023.2.3,MacIntel,56.49717514,4,2,5,,,,,,,,4,10,,,,,,,,,,,,,4,4.177,1,,,,,,0.382086747,-0.236948423,1,0,0,4.1769,Gabbro_rect,4,0,4,0,1,
5596ab22fdf99b2d3a68c840,SCR,2024-06-24_14h48.01.370,LearnStrategy,2023.2.3,MacIntel,56.49717514,4,2,6,,,,,,,,5,16,,,,,,,,,,,,,5,1.829,1,,,,,,-0.436489416,-0.397016455,1,0,0,1.8292,Obsidian_rect,5,0,5,0,1,
5596ab22fdf99b2d3a68c840,SCR,2024-06-24_14h48.01.370,LearnStrategy,2023.2.3,MacIntel,56.49717514,4,2,7,,,,,,,,6,05,,,,,,,,,,,,,6,1.64,1,,,,,,-0.140948769,-0.400551125,1,0,0,1.6398,Pegmatite_rect,6,0,6,0,1,
5596ab22fdf99b2d3a68c840,SCR,2024-06-24_14h48.01.370,LearnStrategy,2023.2.3,MacIntel,56.49717514,4,2,8,,,,,,,,1,11,,,,,,,,,,,,,3,2.947,0,,,,,,0.116826827,-0.237414664,1,0,0,2.9475,Diorite_rect,7,0,7,0,1,
5596ab22fdf99b2d3a68c840,SCR,2024-06-24_14h48.01.370,LearnStrategy,2023.2.3,MacIntel,56.49717514,4,2,9,,,,,,,,1,09,,,,,,,,,,,,,1,1.581,1,,,,,,-0.391788059,-0.261649181,1,0,0,1.5808,Andesite_rect,8,0,8,0,1,
5596ab22fdf99b2d3a68c840,SCR,2024-06-24_14h48.01.370,LearnStrategy,2023.2.3,MacIntel,56.49717514,4,2,10,,,,,,,,2,06,,,,,,,,,,,,,2,2.798,1,,,,,,-0.151499939,-0.235570328,1,0,0,2.7979,Basalt_rect,9,0,9,0,1,
5596ab22fdf99b2d3a68c840,SCR,2024-06-24_14h48.01.370,LearnStrategy,2023.2.3,MacIntel,56.49717514,4,2,11,,,,,,,,8,10,,,,,,,,,,,,,8,1.308,1,,,,,,0.378379991,-0.386748815,1,0,0,1.3082,Pumice_rect,10,0,10,0,1,
5596ab22fdf99b2d3a68c840,SCR,2024-06-24_14h48.01.370,LearnStrategy,2023.2.3,MacIntel,56.49717514,4,2,12,,,,,,,,8,08,,,,,,,,,,,,,8,0.841,1,,,,,,0.378379991,-0.38582289,1,0,0,0.841,Pumice_rect,11,0,11,0,1,
5596ab22fdf99b2d3a68c840,SCR,2024-06-24_14h48.01.370,LearnStrategy,2023.2.3,MacIntel,56.49717514,4,2,13,,,,,,,,3,09,,,,,,,,,,,,,1,2.258,0,,,,,,-0.398702099,-0.234176636,1,0,0,2.2585,Andesite_rect,12,0,12,0,1,
5596ab22fdf99b2d3a68c840,SCR,2024-06-24_14h48.01.370,LearnStrategy,2023.2.3,MacIntel,56.49717514,4,2,14,,,,,,,,6,10,,,,,,,,,,,,,6,7.369,1,,,,,,-0.138368395,-0.410026324,1,0,0,7.3694,Pegmatite_rect,13,0,13,0,1,
5596ab22fdf99b2d3a68c840,SCR,2024-06-24_14h48.01.370,LearnStrategy,2023.2.3,MacIntel,56.49717514,4,2,15,,,,,,,,7,12,,,,,,,,,,,,,7,1.534,1,,,,,,0.107170388,-0.397784254,1,0,0,1.5336,Peridotite_rect,14,0,14,0,1,
5596ab22fdf99b2d3a68c840,SCR,2024-06-24_14h48.01.370,LearnStrategy,2023.2.3,MacIntel,56.49717514,4,2,16,,,,,,,,7,05,,,,,,,,,,,,,7,1.909,1,,,,,,0.107170388,-0.397784254,1,0,0,1.9089,Peridotite_rect,15,0,15,0,1,
5596ab22fdf99b2d3a68c840,SCR,2024-06-24_14h48.01.370,LearnStrategy,2023.2.3,MacIntel,56.49717514,5,1,1,-0.243951077,-0.120709624,1,0,0,1.2983,Peridotite_14,7,14,3,3,1.298,7,14,0.142839446,-0.389315005,1,0,0,1.1222,Peridotite_rect,7,1.122,1,0,0,0,0,1,,,,,,,,,,,,,
5596ab22fdf99b2d3a68c840,SCR,2024-06-24_14h48.01.370,LearnStrategy,2023.2.3,MacIntel,56.49717514,5,1,2,-0.123628743,-0.102845029,1,0,0,1.0467,Diorite_10,3,10,3,4,1.047,3,10,-0.362282138,-0.234671586,1,0,0,1.545,Andesite_rect,1,1.545,0,1,0,1,0,1,,,,,,,,,,,,,
5596ab22fdf99b2d3a68c840,SCR,2024-06-24_14h48.01.370,LearnStrategy,2023.2.3,MacIntel,56.49717514,5,1,3,0.266704305,0.083257802,1,0,0,1.698,Andesite_06,1,06,4,6,1.698,1,06,0.097705417,-0.247728814,1,0,0,4.1602,Diorite_rect,3,4.16,0,2,0,2,0,1,,,,,,,,,,,,,
5596ab22fdf99b2d3a68c840,SCR,2024-06-24_14h48.01.370,LearnStrategy,2023.2.3,MacIntel,56.49717514,5,1,4,0.595956308,0.096166399,1,0,0,2.014,Diorite_14,3,14,4,8,2.014,3,14,0.127032923,-0.235260462,1,0,0,2.6102,Diorite_rect,3,2.61,1,3,0,3,0,1,,,,,,,,,,,,,
5596ab22fdf99b2d3a68c840,SCR,2024-06-24_14h48.01.370,LearnStrategy,2023.2.3,MacIntel,56.49717514,5,1,5,0.504309421,0.409559956,1,0,0,2.5531,Gabbro_01,4,01,6,8,2.553,4,01,0.086732539,-0.395701486,1,0,0,2.7097,Peridotite_rect,7,2.71,0,4,0,4,0,1,,,,,,,,,,,,,
5596ab22fdf99b2d3a68c840,SCR,2024-06-24_14h48.01.370,LearnStrategy,2023.2.3,MacIntel,56.49717514,5,1,6,0.238482101,-0.405846942,1,0,0,1.5158,Basalt_10,2,10,1,6,1.516,2,10,-0.076768211,-0.236593458,1,0,0,2.459,Basalt_rect,2,2.459,1,5,0,5,0,1,,,,,,,,,,,,,
5596ab22fdf99b2d3a68c840,SCR,2024-06-24_14h48.01.370,LearnStrategy,2023.2.3,MacIntel,56.49717514,5,1,7,0.532472172,0.238631807,1,0,0,1.3979,Diorite_16,3,16,5,8,1.398,3,16,0.156089952,-0.263608071,1,0,0,1.492,Diorite_rect,3,1.492,1,6,0,6,0,1,,,,,,,,,,,,,
5596ab22fdf99b2d3a68c840,SCR,2024-06-24_14h48.01.370,LearnStrategy,2023.2.3,MacIntel,56.49717514,5,1,8,-0.248377652,0.120108484,1,0,0,1.449,Gabbro_12,4,12,4,3,1.449,4,12,0.360525061,-0.269685251,1,0,0,4.9747,Gabbro_rect,4,4.975,1,7,0,7,0,1,,,,,,,,,,,,,
5596ab22fdf99b2d3a68c840,SCR,2024-06-24_14h48.01.370,LearnStrategy,2023.2.3,MacIntel,56.49717514,5,1,9,0.550303819,-0.246128111,1,0,0,2.7478,Andesite_04,1,04,2,8,2.748,1,04,0.099514884,-0.232070979,1,0,0,3.6271,Diorite_rect,3,3.627,0,8,0,8,0,1,,,,,,,,,,,,,
5596ab22fdf99b2d3a68c840,SCR,2024-06-24_14h48.01.370,LearnStrategy,2023.2.3,MacIntel,56.49717514,5,1,10,0.087995741,-0.110248763,1,0,0,1.7147,Diorite_13,3,13,3,5,1.715,3,13,-0.377996205,-0.243409955,1,0,0,1.4937,Andesite_rect,1,1.494,0,9,0,9,0,1,,,,,,,,,,,,,
5596ab22fdf99b2d3a68c840,SCR,2024-06-24_14h48.01.370,LearnStrategy,2023.2.3,MacIntel,56.49717514,5,1,11,0.543017691,-0.397031431,1,0,0,2.4484,Pegmatite_09,6,09,1,8,2.448,6,09,-0.116137413,-0.410947899,1,0,0,1.8505,Pegmatite_rect,6,1.851,1,10,0,10,0,1,,,,,,,,,,,,,
5596ab22fdf99b2d3a68c840,SCR,2024-06-24_14h48.01.370,LearnStrategy,2023.2.3,MacIntel,56.49717514,5,1,12,0.390485071,0.399447434,1,0,0,1.7653,Obsidian_10,5,10,6,7,1.765,5,10,-0.436068217,-0.415623926,1,0,0,2.0425,Obsidian_rect,5,2.043,1,11,0,11,0,1,,,,,,,,,,,,,
5596ab22fdf99b2d3a68c840,SCR,2024-06-24_14h48.01.370,LearnStrategy,2023.2.3,MacIntel,56.49717514,5,1,13,0.395160929,0.258412538,1,0,0,1.2646,Basalt_09,2,09,5,7,1.265,2,09,-0.104165988,-0.259392067,1,0,0,2.9106,Basalt_rect,2,2.911,1,12,0,12,0,1,,,,,,,,,,,,,
5596ab22fdf99b2d3a68c840,SCR,2024-06-24_14h48.01.370,LearnStrategy,2023.2.3,MacIntel,56.49717514,5,1,14,-0.220518042,0.373797,1,0,0,1.864,Basalt_11,2,11,6,3,1.864,2,11,0.440591996,-0.415143387,1,0,0,1.7594,Pumice_rect,8,1.759,0,13,0,13,0,1,,,,,,,,,,,,,
5596ab22fdf99b2d3a68c840,SCR,2024-06-24_14h48.01.370,LearnStrategy,2023.2.3,MacIntel,56.49717514,5,1,15,0.430893057,-0.410819725,1,0,0,1.8312,Andesite_03,1,03,1,7,1.831,1,03,-0.442051866,-0.245302158,1,0,0,2.4113,Andesite_rect,1,2.411,1,14,0,14,0,1,,,,,,,,,,,,,
5596ab22fdf99b2d3a68c840,SCR,2024-06-24_14h48.01.370,LearnStrategy,2023.2.3,MacIntel,56.49717514,5,1,16,0.056244801,-0.414887266,1,0,0,1.8807,Pumice_16,8,16,1,5,1.881,8,16,0.360982033,-0.419141077,1,0,0,1.0598,Pumice_rect,8,1.06,1,15,0,15,0,1,,,,,,,,,,,,,
5596ab22fdf99b2d3a68c840,SCR,2024-06-24_14h48.01.370,LearnStrategy,2023.2.3,MacIntel,56.49717514,5,2,1,,,,,,,,5,04,,,,,,,,,,,,,5,2.076,1,,,,,,-0.354645171,-0.412720857,1,0,0,2.0761,Obsidian_rect,0,0,0,0,1,
5596ab22fdf99b2d3a68c840,SCR,2024-06-24_14h48.01.370,LearnStrategy,2023.2.3,MacIntel,56.49717514,5,2,2,,,,,,,,4,03,,,,,,,,,,,,,2,3.859,0,,,,,,-0.114026275,-0.247622172,1,0,0,3.8586,Basalt_rect,1,0,1,0,1,
5596ab22fdf99b2d3a68c840,SCR,2024-06-24_14h48.01.370,LearnStrategy,2023.2.3,MacIntel,56.49717514,5,2,3,,,,,,,,8,09,,,,,,,,,,,,,8,1.392,1,,,,,,0.366600884,-0.392672334,1,0,0,1.3924,Pumice_rect,2,0,2,0,1,
5596ab22fdf99b2d3a68c840,SCR,2024-06-24_14h48.01.370,LearnStrategy,2023.2.3,MacIntel,56.49717514,5,2,4,,,,,,,,2,04,,,,,,,,,,,,,2,2.561,1,,,,,,-0.171440577,-0.265327623,1,0,0,2.5609,Basalt_rect,3,0,3,0,1,
5596ab22fdf99b2d3a68c840,SCR,2024-06-24_14h48.01.370,LearnStrategy,2023.2.3,MacIntel,56.49717514,5,2,5,,,,,,,,6,07,,,,,,,,,,,,,6,2.839,1,,,,,,-0.075029839,-0.408559842,1,0,0,2.839,Pegmatite_rect,4,0,4,0,1,
5596ab22fdf99b2d3a68c840,SCR,2024-06-24_14h48.01.370,LearnStrategy,2023.2.3,MacIntel,56.49717514,5,2,6,,,,,,,,7,16,,,,,,,,,,,,,7,5.151,1,,,,,,0.13769486,-0.386498345,1,0,0,5.151,Peridotite_rect,5,0,5,0,1,
5596ab22fdf99b2d3a68c840,SCR,2024-06-24_14h48.01.370,LearnStrategy,2023.2.3,MacIntel,56.49717514,5,2,7,,,,,,,,8,05,,,,,,,,,,,,,8,1.344,1,,,,,,0.335568237,-0.391890462,1,0,0,1.3439,Pumice_rect,6,0,6,0,1,
5596ab22fdf99b2d3a68c840,SCR,2024-06-24_14h48.01.370,LearnStrategy,2023.2.3,MacIntel,56.49717514,5,2,8,,,,,,,,3,02,,,,,,,,,,,,,3,3.237,1,,,,,,0.100980858,-0.253391577,1,0,0,3.2368,Diorite_rect,7,0,7,0,1,
5596ab22fdf99b2d3a68c840,SCR,2024-06-24_14h48.01.370,LearnStrategy,2023.2.3,MacIntel,56.49717514,5,2,9,,,,,,,,6,03,,,,,,,,,,,,,6,1.77,1,,,,,,-0.110063793,-0.391630498,1,0,0,1.7696,Pegmatite_rect,8,0,8,0,1,
5596ab22fdf99b2d3a68c840,SCR,2024-06-24_14h48.01.370,LearnStrategy,2023.2.3,MacIntel,56.49717514,5,2,10,,,,,,,,4,09,,,,,,,,,,,,,4,3.838,1,,,,,,0.327207777,-0.263940373,1,0,0,3.8384,Gabbro_rect,9,0,9,0,1,
5596ab22fdf99b2d3a68c840,SCR,2024-06-24_14h48.01.370,LearnStrategy,2023.2.3,MacIntel,56.49717514,5,2,11,,,,,,,,1,05,,,,,,,,,,,,,3,2.447,0,,,,,,0.113895218,-0.251983869,1,0,0,2.4469,Diorite_rect,10,0,10,0,1,
5596ab22fdf99b2d3a68c840,SCR,2024-06-24_14h48.01.370,LearnStrategy,2023.2.3,MacIntel,56.49717514,5,2,12,,,,,,,,5,12,,,,,,,,,,,,,5,1.446,1,,,,,,-0.429187775,-0.385491491,1,0,0,1.4463,Obsidian_rect,11,0,11,0,1,
5596ab22fdf99b2d3a68c840,SCR,2024-06-24_14h48.01.370,LearnStrategy,2023.2.3,MacIntel,56.49717514,5,2,13,,,,,,,,1,02,,,,,,,,,,,,,1,3.15,1,,,,,,-0.333104791,-0.231997455,1,0,0,3.1497,Andesite_rect,12,0,12,0,1,
5596ab22fdf99b2d3a68c840,SCR,2024-06-24_14h48.01.370,LearnStrategy,2023.2.3,MacIntel,56.49717514,5,2,14,,,,,,,,3,12,,,,,,,,,,,,,3,2.54,1,,,,,,0.058636701,-0.240887564,1,0,0,2.5395,Diorite_rect,13,0,13,0,1,
5596ab22fdf99b2d3a68c840,SCR,2024-06-24_14h48.01.370,LearnStrategy,2023.2.3,MacIntel,56.49717514,5,2,15,,,,,,,,2,12,,,,,,,,,,,,,8,5.404,0,,,,,,0.368466978,-0.40343238,1,0,0,5.4039,Pumice_rect,14,0,14,0,1,
5596ab22fdf99b2d3a68c840,SCR,2024-06-24_14h48.01.370,LearnStrategy,2023.2.3,MacIntel,56.49717514,5,2,16,,,,,,,,7,10,,,,,,,,,,,,,7,1.712,1,,,,,,0.139813119,-0.400756892,1,0,0,1.7118,Peridotite_rect,15,0,15,0,1,
5596ab22fdf99b2d3a68c840,SCR,2024-06-24_14h48.01.370,LearnStrategy,2023.2.3,MacIntel,56.49717514,6,1,1,-0.24698961,0.073057415,1,0,0,2.0661,Gabbro_12,4,12,4,3,2.066,4,12,-0.380503224,-0.241886619,1,0,0,3.9076,Andesite_rect,1,3.908,0,0,0,0,0,1,,,,,,,,,,,,,
5596ab22fdf99b2d3a68c840,SCR,2024-06-24_14h48.01.370,LearnStrategy,2023.2.3,MacIntel,56.49717514,6,1,2,-0.386909937,-0.29311303,1,0,0,1.6133,Diorite_08,3,08,2,2,1.613,3,08,-0.364104886,-0.240595895,1,0,0,4.5763,Andesite_rect,1,4.576,0,1,0,1,0,1,,,,,,,,,,,,,
5596ab22fdf99b2d3a68c840,SCR,2024-06-24_14h48.01.370,LearnStrategy,2023.2.3,MacIntel,56.49717514,6,1,3,-0.260120872,0.426388267,1,0,0,2.3804,Basalt_11,2,11,6,3,2.38,2,11,0.371531734,-0.408355826,1,0,0,3.46,Pumice_rect,8,3.46,0,2,0,2,0,1,,,,,,,,,,,,,
5596ab22fdf99b2d3a68c840,SCR,2024-06-24_14h48.01.370,LearnStrategy,2023.2.3,MacIntel,56.49717514,6,1,4,-0.37725847,0.075306278,1,0,0,1.564,Andesite_10,1,10,4,2,1.564,1,10,0.145493684,-0.259265193,1,0,0,4.8601,Diorite_rect,3,4.86,0,3,0,3,0,1,,,,,,,,,,,,,
5596ab22fdf99b2d3a68c840,SCR,2024-06-24_14h48.01.370,LearnStrategy,2023.2.3,MacIntel,56.49717514,6,1,5,-0.220937715,0.084230833,1,0,0,1.6827,Gabbro_12,4,12,4,3,1.683,4,12,0.375445896,-0.251105245,1,0,0,2.9074,Gabbro_rect,4,2.907,1,4,0,4,0,1,,,,,,,,,,,,,
5596ab22fdf99b2d3a68c840,SCR,2024-06-24_14h48.01.370,LearnStrategy,2023.2.3,MacIntel,56.49717514,6,1,6,0.408372328,-0.39822043,1,0,0,2.2152,Andesite_03,1,03,1,7,2.215,1,03,-0.355919958,-0.246516701,1,0,0,2.5581,Andesite_rect,1,2.558,1,5,0,5,0,1,,,,,,,,,,,,,
5596ab22fdf99b2d3a68c840,SCR,2024-06-24_14h48.01.370,LearnStrategy,2023.2.3,MacIntel,56.49717514,6,1,7,0.554808892,-0.401178205,1,0,0,1.7477,Pegmatite_09,6,09,1,8,1.748,6,09,-0.085246051,-0.407127324,1,0,0,2.0595,Pegmatite_rect,6,2.06,1,6,0,6,0,1,,,,,,,,,,,,,
5596ab22fdf99b2d3a68c840,SCR,2024-06-24_14h48.01.370,LearnStrategy,2023.2.3,MacIntel,56.49717514,6,1,8,0.373436031,-0.253389373,1,0,0,1.4162,Pumice_13,8,13,2,7,1.416,8,13,0.346839509,-0.388361387,1,0,0,1.3091,Pumice_rect,8,1.309,1,7,0,7,0,1,,,,,,,,,,,,,
5596ab22fdf99b2d3a68c840,SCR,2024-06-24_14h48.01.370,LearnStrategy,2023.2.3,MacIntel,56.49717514,6,1,9,-0.092618872,-0.09845841,1,0,0,0.9323,Diorite_10,3,10,3,4,0.932,3,10,-0.364313196,-0.244189679,1,0,0,4.0088,Andesite_rect,1,4.009,0,8,0,8,0,1,,,,,,,,,,,,,
5596ab22fdf99b2d3a68c840,SCR,2024-06-24_14h48.01.370,LearnStrategy,2023.2.3,MacIntel,56.49717514,6,1,10,0.217816614,0.091098418,1,0,0,1.6304,Andesite_06,1,06,4,6,1.63,1,06,0.049425139,-0.257444537,1,0,0,1.5931,Diorite_rect,3,1.593,0,9,0,9,0,1,,,,,,,,,,,,,
5596ab22fdf99b2d3a68c840,SCR,2024-06-24_14h48.01.370,LearnStrategy,2023.2.3,MacIntel,56.49717514,6,1,11,0.080222349,0.098421846,1,0,0,1.0315,Gabbro_14,4,14,4,5,1.032,4,14,0.384427332,-0.2541765,1,0,0,1.9931,Gabbro_rect,4,1.993,1,10,0,10,0,1,,,,,,,,,,,,,
5596ab22fdf99b2d3a68c840,SCR,2024-06-24_14h48.01.370,LearnStrategy,2023.2.3,MacIntel,56.49717514,6,1,12,0.594580643,0.085433819,1,0,0,1.2326,Diorite_14,3,14,4,8,1.233,3,14,0.152559068,-0.248860112,1,0,0,2.8911,Diorite_rect,3,2.891,1,11,0,11,0,1,,,,,,,,,,,,,
5596ab22fdf99b2d3a68c840,SCR,2024-06-24_14h48.01.370,LearnStrategy,2023.2.3,MacIntel,56.49717514,6,1,13,-0.563326066,0.063083507,1,0,0,1.6476,Peridotite_02,7,02,4,1,1.648,7,02,0.112046984,-0.383745321,1,0,0,1.9416,Peridotite_rect,7,1.942,1,12,0,12,0,1,,,,,,,,,,,,,
5596ab22fdf99b2d3a68c840,SCR,2024-06-24_14h48.01.370,LearnStrategy,2023.2.3,MacIntel,56.49717514,6,1,14,-0.580063403,0.368076409,1,0,0,1.7814,Obsidian_14,5,14,6,1,1.781,5,14,-0.431575577,-0.409373644,1,0,0,1.6921,Obsidian_rect,5,1.692,1,13,0,13,0,1,,,,,,,,,,,,,
5596ab22fdf99b2d3a68c840,SCR,2024-06-24_14h48.01.370,LearnStrategy,2023.2.3,MacIntel,56.49717514,6,1,15,0.255183241,-0.367710424,1,0,0,1.6653,Basalt_10,2,10,1,6,1.665,2,10,-0.135572702,-0.250366211,1,0,0,3.876,Basalt_rect,2,3.876,1,14,0,14,0,1,,,,,,,,,,,,,
5596ab22fdf99b2d3a68c840,SCR,2024-06-24_14h48.01.370,LearnStrategy,2023.2.3,MacIntel,56.49717514,6,1,16,0.219422743,0.399595571,1,0,0,2.0494,Basalt_02,2,02,6,6,2.049,2,02,-0.11894633,-0.231924156,1,0,0,2.6578,Basalt_rect,2,2.658,1,15,0,15,0,1,,,,,,,,,,,,,
5596ab22fdf99b2d3a68c840,SCR,2024-06-24_14h48.01.370,LearnStrategy,2023.2.3,MacIntel,56.49717514,6,2,1,,,,,,,,7,04,,,,,,,,,,,,,3,5.041,0,,,,,,0.12392013,-0.256154322,1,0,0,5.0414,Diorite_rect,0,0,0,0,1,
5596ab22fdf99b2d3a68c840,SCR,2024-06-24_14h48.01.370,LearnStrategy,2023.2.3,MacIntel,56.49717514,6,2,2,,,,,,,,7,15,,,,,,,,,,,,,7,1.324,1,,,,,,0.137168828,-0.396554905,1,0,0,1.3244,Peridotite_rect,1,0,1,0,1,
5596ab22fdf99b2d3a68c840,SCR,2024-06-24_14h48.01.370,LearnStrategy,2023.2.3,MacIntel,56.49717514,6,2,3,,,,,,,,3,11,,,,,,,,,,,,,1,4.192,0,,,,,,-0.358235564,-0.24670591,1,0,0,4.1916,Andesite_rect,2,0,2,0,1,
5596ab22fdf99b2d3a68c840,SCR,2024-06-24_14h48.01.370,LearnStrategy,2023.2.3,MacIntel,56.49717514,6,2,4,,,,,,,,6,12,,,,,,,,,,,,,3,2.316,0,,,,,,0.129222842,-0.255960422,1,0,0,2.3162,Diorite_rect,3,0,3,0,1,
5596ab22fdf99b2d3a68c840,SCR,2024-06-24_14h48.01.370,LearnStrategy,2023.2.3,MacIntel,56.49717514,6,2,5,,,,,,,,2,08,,,,,,,,,,,,,2,2.001,1,,,,,,-0.125295003,-0.252033714,1,0,0,2.0011,Basalt_rect,4,0,4,0,1,
5596ab22fdf99b2d3a68c840,SCR,2024-06-24_14h48.01.370,LearnStrategy,2023.2.3,MacIntel,56.49717514,6,2,6,,,,,,,,2,05,,,,,,,,,,,,,2,2.488,1,,,,,,-0.124578066,-0.252033714,1,0,0,2.4876,Basalt_rect,5,0,5,0,1,
5596ab22fdf99b2d3a68c840,SCR,2024-06-24_14h48.01.370,LearnStrategy,2023.2.3,MacIntel,56.49717514,6,2,7,,,,,,,,1,07,,,,,,,,,,,,,1,1.742,1,,,,,,-0.353284596,-0.237438682,1,0,0,1.7424,Andesite_rect,6,0,6,0,1,
5596ab22fdf99b2d3a68c840,SCR,2024-06-24_14h48.01.370,LearnStrategy,2023.2.3,MacIntel,56.49717514,6,2,8,,,,,,,,5,09,,,,,,,,,,,,,5,1.841,1,,,,,,-0.372082293,-0.387100898,1,0,0,1.8415,Obsidian_rect,7,0,7,0,1,
5596ab22fdf99b2d3a68c840,SCR,2024-06-24_14h48.01.370,LearnStrategy,2023.2.3,MacIntel,56.49717514,6,2,9,,,,,,,,3,07,,,,,,,,,,,,,1,4.553,0,,,,,,-0.391711708,-0.263316741,1,0,0,4.5534,Andesite_rect,8,0,8,0,1,
5596ab22fdf99b2d3a68c840,SCR,2024-06-24_14h48.01.370,LearnStrategy,2023.2.3,MacIntel,56.49717514,6,2,10,,,,,,,,8,14,,,,,,,,,,,,,8,1.508,1,,,,,,0.385311664,-0.400624763,1,0,0,1.5081,Pumice_rect,9,0,9,0,1,
5596ab22fdf99b2d3a68c840,SCR,2024-06-24_14h48.01.370,LearnStrategy,2023.2.3,MacIntel,56.49717514,6,2,11,,,,,,,,6,15,,,,,,,,,,,,,6,1.813,1,,,,,,-0.144526955,-0.409259316,1,0,0,1.8134,Pegmatite_rect,10,0,10,0,1,
5596ab22fdf99b2d3a68c840,SCR,2024-06-24_14h48.01.370,LearnStrategy,2023.2.3,MacIntel,56.49717514,6,2,12,,,,,,,,5,02,,,,,,,,,,,,,5,1.38,1,,,,,,-0.381605134,-0.401625852,1,0,0,1.3803,Obsidian_rect,11,0,11,0,1,
5596ab22fdf99b2d3a68c840,SCR,2024-06-24_14h48.01.370,LearnStrategy,2023.2.3,MacIntel,56.49717514,6,2,13,,,,,,,,4,15,,,,,,,,,,,,,4,1.936,1,,,,,,0.389677825,-0.25960569,1,0,0,1.9358,Gabbro_rect,12,0,12,0,1,
5596ab22fdf99b2d3a68c840,SCR,2024-06-24_14h48.01.370,LearnStrategy,2023.2.3,MacIntel,56.49717514,6,2,14,,,,,,,,4,05,,,,,,,,,,,,,4,3.277,1,,,,,,0.365143048,-0.239983114,1,0,0,3.2767,Gabbro_rect,13,0,13,0,1,
5596ab22fdf99b2d3a68c840,SCR,2024-06-24_14h48.01.370,LearnStrategy,2023.2.3,MacIntel,56.49717514,6,2,15,,,,,,,,1,14,,,,,,,,,,,,,1,3.537,1,,,,,,-0.498662426,-0.242999607,1,0,0,3.5368,Andesite_rect,14,0,14,0,1,
5596ab22fdf99b2d3a68c840,SCR,2024-06-24_14h48.01.370,LearnStrategy,2023.2.3,MacIntel,56.49717514,6,2,16,,,,,,,,8,04,,,,,,,,,,,,,8,2.715,1,,,,,,0.389075611,-0.386962608,1,0,0,2.7147,Pumice_rect,15,0,15,0,1,
5596ab22fdf99b2d3a68c840,SCR,2024-06-24_14h48.01.370,LearnStrategy,2023.2.3,MacIntel,56.49717514,7,1,1,0.562081683,-0.107095789,1,0,0,1.3646,Diorite_06,3,06,3,8,1.365,3,06,-0.364173268,-0.248387655,1,0,0,17.4104,Andesite_rect,1,17.41,0,0,0,0,0,1,,,,,,,,,,,,,
5596ab22fdf99b2d3a68c840,SCR,2024-06-24_14h48.01.370,LearnStrategy,2023.2.3,MacIntel,56.49717514,7,1,2,-0.551085974,-0.135818594,1,0,0,1.3298,Andesite_16,1,16,3,1,1.33,1,16,-0.387326954,-0.239111724,1,0,0,1.5483,Andesite_rect,1,1.548,1,1,0,1,0,1,,,,,,,,,,,,,
5596ab22fdf99b2d3a68c840,SCR,2024-06-24_14h48.01.370,LearnStrategy,2023.2.3,MacIntel,56.49717514,7,1,3,0.531865212,0.239578445,1,0,0,1.6993,Diorite_16,3,16,5,8,1.699,3,16,0.188904148,-0.23957237,1,0,0,1.8635,Diorite_rect,3,1.864,1,2,0,2,0,1,,,,,,,,,,,,,
5596ab22fdf99b2d3a68c840,SCR,2024-06-24_14h48.01.370,LearnStrategy,2023.2.3,MacIntel,56.49717514,7,1,4,-0.071880312,0.14013946,1,0,0,1.0982,Pegmatite_13,6,13,4,4,1.098,6,13,-0.177233096,-0.414349196,1,0,0,1.425,Pegmatite_rect,6,1.425,1,3,0,3,0,1,,,,,,,,,,,,,
5596ab22fdf99b2d3a68c840,SCR,2024-06-24_14h48.01.370,LearnStrategy,2023.2.3,MacIntel,56.49717514,7,1,5,-0.408605618,-0.285720034,1,0,0,1.2326,Diorite_08,3,08,2,2,1.233,3,08,-0.380094175,-0.244229352,1,0,0,1.9755,Andesite_rect,1,1.976,0,4,0,4,0,1,,,,,,,,,,,,,
5596ab22fdf99b2d3a68c840,SCR,2024-06-24_14h48.01.370,LearnStrategy,2023.2.3,MacIntel,56.49717514,7,1,6,0.214695344,-0.395461019,1,0,0,1.6489,Basalt_10,2,10,1,6,1.649,2,10,-0.130915889,-0.254247199,1,0,0,2.5259,Basalt_rect,2,2.526,1,5,0,5,0,1,,,,,,,,,,,,,
5596ab22fdf99b2d3a68c840,SCR,2024-06-24_14h48.01.370,LearnStrategy,2023.2.3,MacIntel,56.49717514,7,1,7,-0.113592868,-0.258496207,1,0,0,1.6145,Pegmatite_16,6,16,2,4,1.615,6,16,-0.123304692,-0.399307647,1,0,0,1.2407,Pegmatite_rect,6,1.241,1,6,0,6,0,1,,,,,,,,,,,,,
5596ab22fdf99b2d3a68c840,SCR,2024-06-24_14h48.01.370,LearnStrategy,2023.2.3,MacIntel,56.49717514,7,1,8,-0.088944386,0.260166959,1,0,0,1.9645,Obsidian_06,5,06,5,4,1.965,5,06,-0.392008124,-0.404773232,1,0,0,2.9634,Obsidian_rect,5,2.963,1,7,0,7,0,1,,,,,,,,,,,,,
5596ab22fdf99b2d3a68c840,SCR,2024-06-24_14h48.01.370,LearnStrategy,2023.2.3,MacIntel,56.49717514,7,1,9,0.537562165,0.092225449,1,0,0,1.465,Diorite_14,3,14,4,8,1.465,3,14,0.136011081,-0.261525811,1,0,0,2.1197,Diorite_rect,3,2.12,1,8,0,8,0,1,,,,,,,,,,,,,
5596ab22fdf99b2d3a68c840,SCR,2024-06-24_14h48.01.370,LearnStrategy,2023.2.3,MacIntel,56.49717514,7,1,10,-0.527789759,-0.110951346,1,0,0,1.6981,Andesite_16,1,16,3,1,1.698,1,16,-0.366773535,-0.262595113,1,0,0,1.0762,Andesite_rect,1,1.076,1,9,0,9,0,1,,,,,,,,,,,,,
5596ab22fdf99b2d3a68c840,SCR,2024-06-24_14h48.01.370,LearnStrategy,2023.2.3,MacIntel,56.49717514,7,1,11,-0.578491974,0.241006583,1,0,0,1.5642,Peridotite_07,7,07,5,1,1.564,7,07,0.126355772,-0.417246105,1,0,0,1.5087,Peridotite_rect,7,1.509,1,10,0,10,0,1,,,,,,,,,,,,,
5596ab22fdf99b2d3a68c840,SCR,2024-06-24_14h48.01.370,LearnStrategy,2023.2.3,MacIntel,56.49717514,7,1,12,-0.547473653,0.244700227,1,0,0,1.8486,Peridotite_07,7,07,5,1,1.849,7,07,0.096268944,-0.407491161,1,0,0,1.7429,Peridotite_rect,7,1.743,1,11,0,11,0,1,,,,,,,,,,,,,
5596ab22fdf99b2d3a68c840,SCR,2024-06-24_14h48.01.370,LearnStrategy,2023.2.3,MacIntel,56.49717514,7,1,13,0.10085031,0.377409956,1,0,0,2.1325,Gabbro_13,4,13,6,5,2.132,4,13,0.382316646,-0.246885907,1,0,0,3.0582,Gabbro_rect,4,3.058,1,12,0,12,0,1,,,,,,,,,,,,,
5596ab22fdf99b2d3a68c840,SCR,2024-06-24_14h48.01.370,LearnStrategy,2023.2.3,MacIntel,56.49717514,7,1,14,0.363949472,0.07886799,1,0,0,1.3479,Pumice_06,8,06,4,7,1.348,8,06,0.391731771,-0.392142967,1,0,0,1.4425,Pumice_rect,8,1.443,1,13,0,13,0,1,,,,,,,,,,,,,
5596ab22fdf99b2d3a68c840,SCR,2024-06-24_14h48.01.370,LearnStrategy,2023.2.3,MacIntel,56.49717514,7,1,15,0.561580178,0.38449286,1,0,0,1.8991,Gabbro_01,4,01,6,8,1.899,4,01,0.137578328,-0.419364195,1,0,0,8.7685,Peridotite_rect,7,8.768,0,14,0,14,0,1,,,,,,,,,,,,,
5596ab22fdf99b2d3a68c840,SCR,2024-06-24_14h48.01.370,LearnStrategy,2023.2.3,MacIntel,56.49717514,7,1,16,0.21940398,-0.373274061,1,0,0,1.855,Basalt_10,2,10,1,6,1.855,2,10,-0.147633136,-0.236768821,1,0,0,2.3746,Basalt_rect,2,2.375,1,15,0,15,0,1,,,,,,,,,,,,,
5596ab22fdf99b2d3a68c840,SCR,2024-06-24_14h48.01.370,LearnStrategy,2023.2.3,MacIntel,56.49717514,7,2,1,,,,,,,,7,05,,,,,,,,,,,,,7,4.799,1,,,,,,0.129031033,-0.402029419,1,0,0,4.799,Peridotite_rect,0,0,0,0,1,
5596ab22fdf99b2d3a68c840,SCR,2024-06-24_14h48.01.370,LearnStrategy,2023.2.3,MacIntel,56.49717514,7,2,2,,,,,,,,1,07,,,,,,,,,,,,,3,2.771,0,,,,,,0.115855577,-0.25716954,1,0,0,2.7715,Diorite_rect,1,0,1,0,1,
5596ab22fdf99b2d3a68c840,SCR,2024-06-24_14h48.01.370,LearnStrategy,2023.2.3,MacIntel,56.49717514,7,2,3,,,,,,,,8,08,,,,,,,,,,,,,8,1.837,1,,,,,,0.438885046,-0.394541423,1,0,0,1.8368,Pumice_rect,2,0,2,0,1,
5596ab22fdf99b2d3a68c840,SCR,2024-06-24_14h48.01.370,LearnStrategy,2023.2.3,MacIntel,56.49717514,7,2,4,,,,,,,,4,10,,,,,,,,,,,,,4,2.932,1,,,,,,0.341612639,-0.238177547,1,0,0,2.9322,Gabbro_rect,3,0,3,0,1,
5596ab22fdf99b2d3a68c840,SCR,2024-06-24_14h48.01.370,LearnStrategy,2023.2.3,MacIntel,56.49717514,7,2,5,,,,,,,,5,04,,,,,,,,,,,,,5,1.644,1,,,,,,-0.443606935,-0.393941526,1,0,0,1.6438,Obsidian_rect,4,0,4,0,1,
5596ab22fdf99b2d3a68c840,SCR,2024-06-24_14h48.01.370,LearnStrategy,2023.2.3,MacIntel,56.49717514,7,2,6,,,,,,,,2,08,,,,,,,,,,,,,2,1.646,1,,,,,,-0.154916721,-0.249243334,1,0,0,1.6461,Basalt_rect,5,0,5,0,1,
5596ab22fdf99b2d3a68c840,SCR,2024-06-24_14h48.01.370,LearnStrategy,2023.2.3,MacIntel,56.49717514,7,2,7,,,,,,,,3,12,,,,,,,,,,,,,1,2.991,0,,,,,,-0.402531433,-0.266305542,1,0,0,2.9912,Andesite_rect,6,0,6,0,1,
5596ab22fdf99b2d3a68c840,SCR,2024-06-24_14h48.01.370,LearnStrategy,2023.2.3,MacIntel,56.49717514,7,2,8,,,,,,,,5,12,,,,,,,,,,,,,5,1.382,1,,,,,,-0.355563015,-0.399890815,1,0,0,1.3818,Obsidian_rect,7,0,7,0,1,
5596ab22fdf99b2d3a68c840,SCR,2024-06-24_14h48.01.370,LearnStrategy,2023.2.3,MacIntel,56.49717514,7,2,9,,,,,,,,4,15,,,,,,,,,,,,,4,2.019,1,,,,,,0.354845287,-0.242086509,1,0,0,2.019,Gabbro_rect,8,0,8,0,1,
5596ab22fdf99b2d3a68c840,SCR,2024-06-24_14h48.01.370,LearnStrategy,2023.2.3,MacIntel,56.49717514,7,2,10,,,,,,,,8,04,,,,,,,,,,,,,8,1.159,1,,,,,,0.399877817,-0.411964303,1,0,0,1.1593,Pumice_rect,9,0,9,0,1,
5596ab22fdf99b2d3a68c840,SCR,2024-06-24_14h48.01.370,LearnStrategy,2023.2.3,MacIntel,56.49717514,7,2,11,,,,,,,,6,15,,,,,,,,,,,,,6,1.544,1,,,,,,-0.148481637,-0.399234687,1,0,0,1.5437,Pegmatite_rect,10,0,10,0,1,
5596ab22fdf99b2d3a68c840,SCR,2024-06-24_14h48.01.370,LearnStrategy,2023.2.3,MacIntel,56.49717514,7,2,12,,,,,,,,1,02,,,,,,,,,,,,,1,4.53,1,,,,,,-0.475930334,-0.241117068,1,0,0,4.5302,Andesite_rect,11,0,11,0,1,
5596ab22fdf99b2d3a68c840,SCR,2024-06-24_14h48.01.370,LearnStrategy,2023.2.3,MacIntel,56.49717514,7,2,13,,,,,,,,6,10,,,,,,,,,,,,,6,1.986,1,,,,,,-0.132238091,-0.38222142,1,0,0,1.9859,Pegmatite_rect,12,0,12,0,1,
5596ab22fdf99b2d3a68c840,SCR,2024-06-24_14h48.01.370,LearnStrategy,2023.2.3,MacIntel,56.49717514,7,2,14,,,,,,,,2,06,,,,,,,,,,,,,2,2.372,1,,,,,,-0.12036048,-0.230797323,1,0,0,2.3721,Basalt_rect,13,0,13,0,1,
5596ab22fdf99b2d3a68c840,SCR,2024-06-24_14h48.01.370,LearnStrategy,2023.2.3,MacIntel,56.49717514,7,2,15,,,,,,,,7,15,,,,,,,,,,,,,7,1.671,1,,,,,,0.148654062,-0.407183329,1,0,0,1.671,Peridotite_rect,14,0,14,0,1,
5596ab22fdf99b2d3a68c840,SCR,2024-06-24_14h48.01.370,LearnStrategy,2023.2.3,MacIntel,56.49717514,7,2,16,,,,,,,,3,09,,,,,,,,,,,,,3,1.7,1,,,,,,0.144897122,-0.257500882,1,0,0,1.6999,Diorite_rect,15,0,15,0,1,
5596ab22fdf99b2d3a68c840,SCR,2024-06-24_14h48.01.370,LearnStrategy,2023.2.3,MacIntel,56.49717514,8,1,1,0.591350188,0.099581796,1,0,0,1.7483,Diorite_14,3,14,4,8,1.748,3,14,0.148047779,-0.240434435,1,0,0,3.8582,Diorite_rect,3,3.858,1,0,0,0,0,1,,,,,,,,,,,,,
5596ab22fdf99b2d3a68c840,SCR,2024-06-24_14h48.01.370,LearnStrategy,2023.2.3,MacIntel,56.49717514,8,1,2,0.532372256,0.217444667,1,0,0,1.3814,Diorite_16,3,16,5,8,1.381,3,16,0.18050198,-0.254919999,1,0,0,1.6918,Diorite_rect,3,1.692,1,1,0,1,0,1,,,,,,,,,,,,,
5596ab22fdf99b2d3a68c840,SCR,2024-06-24_14h48.01.370,LearnStrategy,2023.2.3,MacIntel,56.49717514,8,1,3,-0.566401192,-0.102349967,1,0,0,1.5484,Andesite_16,1,16,3,1,1.548,1,16,-0.430003526,-0.243582888,1,0,0,3.7093,Andesite_rect,1,3.709,1,2,0,2,0,1,,,,,,,,,,,,,
5596ab22fdf99b2d3a68c840,SCR,2024-06-24_14h48.01.370,LearnStrategy,2023.2.3,MacIntel,56.49717514,8,1,4,-0.396564342,-0.26801577,1,0,0,1.2474,Diorite_08,3,08,2,2,1.247,3,08,0.131837972,-0.253037912,1,0,0,1.5772,Diorite_rect,3,1.577,1,3,0,3,0,1,,,,,,,,,,,,,
5596ab22fdf99b2d3a68c840,SCR,2024-06-24_14h48.01.370,LearnStrategy,2023.2.3,MacIntel,56.49717514,8,1,5,0.08407491,-0.27046068,1,0,0,1.1653,Pumice_03,8,03,2,5,1.165,8,03,0.347853597,-0.395794847,1,0,0,0.9554,Pumice_rect,8,0.955,1,4,0,4,0,1,,,,,,,,,,,,,
5596ab22fdf99b2d3a68c840,SCR,2024-06-24_14h48.01.370,LearnStrategy,2023.2.3,MacIntel,56.49717514,8,1,6,-0.578088379,0.225569435,1,0,0,1.966,Peridotite_07,7,07,5,1,1.966,7,07,0.183258057,-0.407131958,1,0,0,1.8694,Peridotite_rect,7,1.869,1,5,0,5,0,1,,,,,,,,,,,,,
5596ab22fdf99b2d3a68c840,SCR,2024-06-24_14h48.01.370,LearnStrategy,2023.2.3,MacIntel,56.49717514,8,1,7,-0.120333636,-0.106103007,1,0,0,1.2969,Diorite_10,3,10,3,4,1.297,3,10,-0.388991292,-0.252083559,1,0,0,2.1456,Andesite_rect,1,2.146,0,6,0,6,0,1,,,,,,,,,,,,,
5596ab22fdf99b2d3a68c840,SCR,2024-06-24_14h48.01.370,LearnStrategy,2023.2.3,MacIntel,56.49717514,8,1,8,-0.401736902,0.064855731,1,0,0,1.7155,Andesite_10,1,10,4,2,1.716,1,10,0.118254824,-0.263860575,1,0,0,4.9527,Diorite_rect,3,4.953,0,7,0,7,0,1,,,,,,,,,,,,,
5596ab22fdf99b2d3a68c840,SCR,2024-06-24_14h48.01.370,LearnStrategy,2023.2.3,MacIntel,56.49717514,8,1,9,-0.408023128,-0.296533542,1,0,0,1.1136,Diorite_08,3,08,2,2,1.114,3,08,0.124663176,-0.230317123,1,0,0,1.8544,Diorite_rect,3,1.854,1,8,0,8,0,1,,,,,,,,,,,,,
5596ab22fdf99b2d3a68c840,SCR,2024-06-24_14h48.01.370,LearnStrategy,2023.2.3,MacIntel,56.49717514,8,1,10,0.427278533,-0.417683806,1,0,0,1.8316,Andesite_03,1,03,1,7,1.832,1,03,-0.378863186,-0.253878954,1,0,0,1.5733,Andesite_rect,1,1.573,1,9,0,9,0,1,,,,,,,,,,,,,
5596ab22fdf99b2d3a68c840,SCR,2024-06-24_14h48.01.370,LearnStrategy,2023.2.3,MacIntel,56.49717514,8,1,11,-0.245103737,0.215600162,1,0,0,1.6147,Obsidian_05,5,05,5,3,1.615,5,05,-0.364070977,-0.413560938,1,0,0,1.8616,Obsidian_rect,5,1.862,1,10,0,10,0,1,,,,,,,,,,,,,
5596ab22fdf99b2d3a68c840,SCR,2024-06-24_14h48.01.370,LearnStrategy,2023.2.3,MacIntel,56.49717514,8,1,12,0.06344548,0.064899388,1,0,0,0.9149,Gabbro_14,4,14,4,5,0.915,4,14,0.43759517,-0.259410491,1,0,0,1.3917,Gabbro_rect,4,1.392,1,11,0,11,0,1,,,,,,,,,,,,,
5596ab22fdf99b2d3a68c840,SCR,2024-06-24_14h48.01.370,LearnStrategy,2023.2.3,MacIntel,56.49717514,8,1,13,-0.114894161,-0.291431512,1,0,0,1.1816,Pegmatite_16,6,16,2,4,1.182,6,16,-0.157589722,-0.387188495,1,0,0,1.8258,Pegmatite_rect,6,1.826,1,12,0,12,0,1,,,,,,,,,,,,,
5596ab22fdf99b2d3a68c840,SCR,2024-06-24_14h48.01.370,LearnStrategy,2023.2.3,MacIntel,56.49717514,8,1,14,0.035697428,0.389997638,1,0,0,2.5321,Gabbro_13,4,13,6,5,2.532,4,13,0.405875877,-0.239806394,1,0,0,1.9076,Gabbro_rect,4,1.908,1,13,0,13,0,1,,,,,,,,,,,,,
5596ab22fdf99b2d3a68c840,SCR,2024-06-24_14h48.01.370,LearnStrategy,2023.2.3,MacIntel,56.49717514,8,1,15,-0.219911872,0.370023233,1,0,0,2.3994,Basalt_11,2,11,6,3,2.399,2,11,-0.10756446,-0.2635875,1,0,0,3.4866,Basalt_rect,2,3.487,1,14,0,14,0,1,,,,,,,,,,,,,
5596ab22fdf99b2d3a68c840,SCR,2024-06-24_14h48.01.370,LearnStrategy,2023.2.3,MacIntel,56.49717514,8,1,16,0.430441058,0.232706536,1,0,0,1.2635,Basalt_09,2,09,5,7,1.264,2,09,-0.12680065,-0.251675754,1,0,0,1.8342,Basalt_rect,2,1.834,1,15,0,15,0,1,,,,,,,,,,,,,
5596ab22fdf99b2d3a68c840,SCR,2024-06-24_14h48.01.370,LearnStrategy,2023.2.3,MacIntel,56.49717514,8,2,1,,,,,,,,8,10,,,,,,,,,,,,,8,3.678,1,,,,,,0.384971336,-0.404556557,1,0,0,3.6782,Pumice_rect,0,0,0,0,1,
5596ab22fdf99b2d3a68c840,SCR,2024-06-24_14h48.01.370,LearnStrategy,2023.2.3,MacIntel,56.49717514,8,2,2,,,,,,,,2,12,,,,,,,,,,,,,2,1.623,1,,,,,,-0.135009709,-0.26655929,1,0,0,1.6231,Basalt_rect,1,0,1,0,1,
5596ab22fdf99b2d3a68c840,SCR,2024-06-24_14h48.01.370,LearnStrategy,2023.2.3,MacIntel,56.49717514,8,2,3,,,,,,,,8,09,,,,,,,,,,,,,8,1.436,1,,,,,,0.344968895,-0.403270806,1,0,0,1.4356,Pumice_rect,2,0,2,0,1,
5596ab22fdf99b2d3a68c840,SCR,2024-06-24_14h48.01.370,LearnStrategy,2023.2.3,MacIntel,56.49717514,8,2,4,,,,,,,,6,03,,,,,,,,,,,,,6,1.738,1,,,,,,-0.085540941,-0.397044147,1,0,0,1.7375,Pegmatite_rect,3,0,3,0,1,
5596ab22fdf99b2d3a68c840,SCR,2024-06-24_14h48.01.370,LearnStrategy,2023.2.3,MacIntel,56.49717514,8,2,5,,,,,,,,5,09,,,,,,,,,,,,,5,1.251,1,,,,,,-0.357907218,-0.412774263,1,0,0,1.2512,Obsidian_rect,4,0,4,0,1,
5596ab22fdf99b2d3a68c840,SCR,2024-06-24_14h48.01.370,LearnStrategy,2023.2.3,MacIntel,56.49717514,8,2,6,,,,,,,,3,15,,,,,,,,,,,,,1,4.188,0,,,,,,-0.359227668,-0.244151532,1,0,0,4.1876,Andesite_rect,5,0,5,0,1,
5596ab22fdf99b2d3a68c840,SCR,2024-06-24_14h48.01.370,LearnStrategy,2023.2.3,MacIntel,56.49717514,8,2,7,,,,,,,,4,09,,,,,,,,,,,,,4,2.361,1,,,,,,0.305912724,-0.23909946,1,0,0,2.3608,Gabbro_rect,6,0,6,0,1,
5596ab22fdf99b2d3a68c840,SCR,2024-06-24_14h48.01.370,LearnStrategy,2023.2.3,MacIntel,56.49717514,8,2,8,,,,,,,,7,04,,,,,,,,,,,,,3,1.19,0,,,,,,0.147205268,-0.271689577,1,0,0,1.1905,Diorite_rect,7,0,7,0,1,
5596ab22fdf99b2d3a68c840,SCR,2024-06-24_14h48.01.370,LearnStrategy,2023.2.3,MacIntel,56.49717514,8,2,9,,,,,,,,4,03,,,,,,,,,,,,,1,5.167,0,,,,,,-0.356885387,-0.246670024,1,0,0,5.1665,Andesite_rect,8,0,8,0,1,
5596ab22fdf99b2d3a68c840,SCR,2024-06-24_14h48.01.370,LearnStrategy,2023.2.3,MacIntel,56.49717514,8,2,10,,,,,,,,1,14,,,,,,,,,,,,,1,6.836,1,,,,,,-0.386717281,-0.246623569,1,0,0,6.8358,Andesite_rect,9,0,9,0,1,
5596ab22fdf99b2d3a68c840,SCR,2024-06-24_14h48.01.370,LearnStrategy,2023.2.3,MacIntel,56.49717514,8,2,11,,,,,,,,1,09,,,,,,,,,,,,,3,1.399,0,,,,,,0.145090287,-0.25053191,1,0,0,1.399,Diorite_rect,10,0,10,0,1,
5596ab22fdf99b2d3a68c840,SCR,2024-06-24_14h48.01.370,LearnStrategy,2023.2.3,MacIntel,56.49717514,8,2,12,,,,,,,,7,16,,,,,,,,,,,,,4,4.904,0,,,,,,0.391437107,-0.252528099,1,0,0,4.9044,Gabbro_rect,11,0,11,0,1,
5596ab22fdf99b2d3a68c840,SCR,2024-06-24_14h48.01.370,LearnStrategy,2023.2.3,MacIntel,56.49717514,8,2,13,,,,,,,,3,07,,,,,,,,,,,,,3,1.617,1,,,,,,0.084071972,-0.23384179,1,0,0,1.6174,Diorite_rect,12,0,12,0,1,
5596ab22fdf99b2d3a68c840,SCR,2024-06-24_14h48.01.370,LearnStrategy,2023.2.3,MacIntel,56.49717514,8,2,14,,,,,,,,6,07,,,,,,,,,,,,,6,1.355,1,,,,,,-0.137007311,-0.393520497,1,0,0,1.3547,Pegmatite_rect,13,0,13,0,1,
5596ab22fdf99b2d3a68c840,SCR,2024-06-24_14h48.01.370,LearnStrategy,2023.2.3,MacIntel,56.49717514,8,2,15,,,,,,,,2,14,,,,,,,,,,,,,8,1.587,0,,,,,,0.366909903,-0.40817775,1,0,0,1.5871,Pumice_rect,14,0,14,0,1,
5596ab22fdf99b2d3a68c840,SCR,2024-06-24_14h48.01.370,LearnStrategy,2023.2.3,MacIntel,56.49717514,8,2,16,,,,,,,,5,02,,,,,,,,,,,,,5,1.559,1,,,,,,-0.395117301,-0.407243517,1,0,0,1.5592,Obsidian_rect,15,0,15,0,1,
5596ab22fdf99b2d3a68c840,SCR,2024-06-24_14h48.01.370,LearnStrategy,2023.2.3,MacIntel,56.49717514,9,1,1,0.092945805,0.08547643,1,0,0,1.9853,Gabbro_14,4,14,4,5,1.985,4,14,0.331396823,-0.243406056,1,0,0,5.4396,Gabbro_rect,4,5.44,1,0,0,0,0,1,,,,,,,,,,,,,
5596ab22fdf99b2d3a68c840,SCR,2024-06-24_14h48.01.370,LearnStrategy,2023.2.3,MacIntel,56.49717514,9,1,2,-0.27303399,-0.072511574,1,0,0,1.2127,Peridotite_14,7,14,3,3,1.213,7,14,0.164501162,-0.407124724,1,0,0,1.0084,Peridotite_rect,7,1.008,1,1,0,1,0,1,,,,,,,,,,,,,
5596ab22fdf99b2d3a68c840,SCR,2024-06-24_14h48.01.370,LearnStrategy,2023.2.3,MacIntel,56.49717514,9,1,3,0.231994742,-0.116256375,1,0,0,1.465,Pumice_15,8,15,3,6,1.465,8,15,0.425914623,-0.398363184,1,0,0,1.9879,Pumice_rect,8,1.988,1,2,0,2,0,1,,,,,,,,,,,,,
5596ab22fdf99b2d3a68c840,SCR,2024-06-24_14h48.01.370,LearnStrategy,2023.2.3,MacIntel,56.49717514,9,1,4,0.521513536,-0.237217034,1,0,0,2.1001,Andesite_04,1,04,2,8,2.1,1,04,0.157662964,-0.255202173,1,0,0,1.5075,Diorite_rect,3,1.508,0,3,0,3,0,1,,,,,,,,,,,,,
5596ab22fdf99b2d3a68c840,SCR,2024-06-24_14h48.01.370,LearnStrategy,2023.2.3,MacIntel,56.49717514,9,1,5,0.559326285,0.235177188,1,0,0,1.6162,Diorite_16,3,16,5,8,1.616,3,16,0.113819264,-0.234459036,1,0,0,1.4084,Diorite_rect,3,1.408,1,4,0,4,0,1,,,,,,,,,,,,,
5596ab22fdf99b2d3a68c840,SCR,2024-06-24_14h48.01.370,LearnStrategy,2023.2.3,MacIntel,56.49717514,9,1,6,0.039227125,-0.101943631,1,0,0,0.9143,Diorite_13,3,13,3,5,0.914,3,13,0.155143681,-0.233853093,1,0,0,1.6101,Diorite_rect,3,1.61,1,5,0,5,0,1,,,,,,,,,,,,,
5596ab22fdf99b2d3a68c840,SCR,2024-06-24_14h48.01.370,LearnStrategy,2023.2.3,MacIntel,56.49717514,9,1,7,0.059255812,0.389851662,1,0,0,2.3157,Gabbro_13,4,13,6,5,2.316,4,13,0.40385324,-0.26247293,1,0,0,2.0073,Gabbro_rect,4,2.007,1,6,0,6,0,1,,,,,,,,,,,,,
5596ab22fdf99b2d3a68c840,SCR,2024-06-24_14h48.01.370,LearnStrategy,2023.2.3,MacIntel,56.49717514,9,1,8,0.5319805,-0.098008615,1,0,0,1.4663,Diorite_06,3,06,3,8,1.466,3,06,0.083119371,-0.238829945,1,0,0,2.492,Diorite_rect,3,2.492,1,7,0,7,0,1,,,,,,,,,,,,,
5596ab22fdf99b2d3a68c840,SCR,2024-06-24_14h48.01.370,LearnStrategy,2023.2.3,MacIntel,56.49717514,9,1,9,-0.081696009,-0.457065384,1,0,0,1.3487,Peridotite_06,7,06,1,4,1.349,7,06,0.14529385,-0.385490474,1,0,0,1.1591,Peridotite_rect,7,1.159,1,8,0,8,0,1,,,,,,,,,,,,,
5596ab22fdf99b2d3a68c840,SCR,2024-06-24_14h48.01.370,LearnStrategy,2023.2.3,MacIntel,56.49717514,9,1,10,-0.424084727,-0.442890026,1,0,0,1.6156,Peridotite_13,7,13,1,2,1.616,7,13,0.131667865,-0.402816999,1,0,0,2.1243,Peridotite_rect,7,2.124,1,9,0,9,0,1,,,,,,,,,,,,,
5596ab22fdf99b2d3a68c840,SCR,2024-06-24_14h48.01.370,LearnStrategy,2023.2.3,MacIntel,56.49717514,9,1,11,-0.392994464,0.411091557,1,0,0,1.7315,Pegmatite_06,6,06,6,2,1.731,6,06,-0.162482424,-0.382218651,1,0,0,1.4313,Pegmatite_rect,6,1.431,1,10,0,10,0,1,,,,,,,,,,,,,
5596ab22fdf99b2d3a68c840,SCR,2024-06-24_14h48.01.370,LearnStrategy,2023.2.3,MacIntel,56.49717514,9,1,12,0.258114624,0.056140787,1,0,0,1.0139,Andesite_06,1,06,4,6,1.014,1,06,-0.360443454,-0.247893044,1,0,0,2.0394,Andesite_rect,1,2.039,1,11,0,11,0,1,,,,,,,,,,,,,
5596ab22fdf99b2d3a68c840,SCR,2024-06-24_14h48.01.370,LearnStrategy,2023.2.3,MacIntel,56.49717514,9,1,13,-0.386562997,0.24674465,1,0,0,1.7806,Basalt_16,2,16,5,2,1.781,2,16,0.366784329,-0.397770239,1,0,0,2.8909,Pumice_rect,8,2.891,0,12,0,12,0,1,,,,,,,,,,,,,
5596ab22fdf99b2d3a68c840,SCR,2024-06-24_14h48.01.370,LearnStrategy,2023.2.3,MacIntel,56.49717514,9,1,14,-0.414492346,0.084013254,1,0,0,1.3814,Andesite_10,1,10,4,2,1.381,1,10,0.199875669,-0.248582967,1,0,0,3.4911,Diorite_rect,3,3.491,0,13,0,13,0,1,,,,,,,,,,,,,
5596ab22fdf99b2d3a68c840,SCR,2024-06-24_14h48.01.370,LearnStrategy,2023.2.3,MacIntel,56.49717514,9,1,15,-0.24628002,-0.41631741,1,0,0,1.5479,Basalt_01,2,01,1,3,1.548,2,01,-0.198523175,-0.244250432,1,0,0,1.8439,Basalt_rect,2,1.844,1,14,0,14,0,1,,,,,,,,,,,,,
5596ab22fdf99b2d3a68c840,SCR,2024-06-24_14h48.01.370,LearnStrategy,2023.2.3,MacIntel,56.49717514,9,1,16,0.512119774,-0.093092064,1,0,0,3.5307,Diorite_06,3,06,3,8,3.531,3,06,0.134104298,-0.25405313,1,0,0,1.297,Diorite_rect,3,1.297,1,15,0,15,0,1,,,,,,,,,,,,,
5596ab22fdf99b2d3a68c840,SCR,2024-06-24_14h48.01.370,LearnStrategy,2023.2.3,MacIntel,56.49717514,9,2,1,,,,,,,,5,08,,,,,,,,,,,,,5,1.091,1,,,,,,-0.409741776,-0.405843099,1,0,0,1.0909,Obsidian_rect,0,0,0,0,1,
5596ab22fdf99b2d3a68c840,SCR,2024-06-24_14h48.01.370,LearnStrategy,2023.2.3,MacIntel,56.49717514,9,2,2,,,,,,,,2,04,,,,,,,,,,,,,2,1.309,1,,,,,,-0.167014906,-0.251849365,1,0,0,1.3091,Basalt_rect,1,0,1,0,1,
5596ab22fdf99b2d3a68c840,SCR,2024-06-24_14h48.01.370,LearnStrategy,2023.2.3,MacIntel,56.49717514,9,2,3,,,,,,,,1,05,,,,,,,,,,,,,7,3.095,0,,,,,,0.139553494,-0.405858245,1,0,0,3.0947,Peridotite_rect,2,0,2,0,1,
5596ab22fdf99b2d3a68c840,SCR,2024-06-24_14h48.01.370,LearnStrategy,2023.2.3,MacIntel,56.49717514,9,2,4,,,,,,,,3,02,,,,,,,,,,,,,3,1.589,1,,,,,,0.119271964,-0.269531476,1,0,0,1.5891,Diorite_rect,3,0,3,0,1,
5596ab22fdf99b2d3a68c840,SCR,2024-06-24_14h48.01.370,LearnStrategy,2023.2.3,MacIntel,56.49717514,9,2,5,,,,,,,,6,12,,,,,,,,,,,,,6,2.145,1,,,,,,-0.089313196,-0.401836028,1,0,0,2.145,Pegmatite_rect,4,0,4,0,1,
5596ab22fdf99b2d3a68c840,SCR,2024-06-24_14h48.01.370,LearnStrategy,2023.2.3,MacIntel,56.49717514,9,2,6,,,,,,,,8,05,,,,,,,,,,,,,8,3.009,1,,,,,,0.437243878,-0.394015729,1,0,0,3.0091,Pumice_rect,5,0,5,0,1,
5596ab22fdf99b2d3a68c840,SCR,2024-06-24_14h48.01.370,LearnStrategy,2023.2.3,MacIntel,56.49717514,9,2,7,,,,,,,,5,16,,,,,,,,,,,,,5,1.524,1,,,,,,-0.368621431,-0.409074289,1,0,0,1.524,Obsidian_rect,6,0,6,0,1,
5596ab22fdf99b2d3a68c840,SCR,2024-06-24_14h48.01.370,LearnStrategy,2023.2.3,MacIntel,56.49717514,9,2,8,,,,,,,,7,10,,,,,,,,,,,,,7,1.717,1,,,,,,0.176494909,-0.405513622,1,0,0,1.7166,Peridotite_rect,7,0,7,0,1,
5596ab22fdf99b2d3a68c840,SCR,2024-06-24_14h48.01.370,LearnStrategy,2023.2.3,MacIntel,56.49717514,9,2,9,,,,,,,,8,14,,,,,,,,,,,,,8,1.542,1,,,,,,0.362476942,-0.397786854,1,0,0,1.5419,Pumice_rect,8,0,8,0,1,
5596ab22fdf99b2d3a68c840,SCR,2024-06-24_14h48.01.370,LearnStrategy,2023.2.3,MacIntel,56.49717514,9,2,10,,,,,,,,3,11,,,,,,,,,,,,,3,3.319,1,,,,,,0.10544151,-0.242870472,1,0,0,3.3186,Diorite_rect,9,0,9,0,1,
5596ab22fdf99b2d3a68c840,SCR,2024-06-24_14h48.01.370,LearnStrategy,2023.2.3,MacIntel,56.49717514,9,2,11,,,,,,,,2,05,,,,,,,,,,,,,2,1.307,1,,,,,,-0.133050763,-0.25588961,1,0,0,1.3071,Basalt_rect,10,0,10,0,1,
5596ab22fdf99b2d3a68c840,SCR,2024-06-24_14h48.01.370,LearnStrategy,2023.2.3,MacIntel,56.49717514,9,2,12,,,,,,,,4,05,,,,,,,,,,,,,4,3.157,1,,,,,,0.397820367,-0.269496098,1,0,0,3.1573,Gabbro_rect,11,0,11,0,1,
5596ab22fdf99b2d3a68c840,SCR,2024-06-24_14h48.01.370,LearnStrategy,2023.2.3,MacIntel,56.49717514,9,2,13,,,,,,,,6,05,,,,,,,,,,,,,6,1.541,1,,,,,,-0.134269771,-0.40730037,1,0,0,1.5409,Pegmatite_rect,12,0,12,0,1,
5596ab22fdf99b2d3a68c840,SCR,2024-06-24_14h48.01.370,LearnStrategy,2023.2.3,MacIntel,56.49717514,9,2,14,,,,,,,,7,12,,,,,,,,,,,,,7,1.6,1,,,,,,0.146912977,-0.398879496,1,0,0,1.5999,Peridotite_rect,13,0,13,0,1,
5596ab22fdf99b2d3a68c840,SCR,2024-06-24_14h48.01.370,LearnStrategy,2023.2.3,MacIntel,56.49717514,9,2,15,,,,,,,,1,11,,,,,,,,,,,,,3,2.505,0,,,,,,0.112393641,-0.258352774,1,0,0,2.5054,Diorite_rect,14,0,14,0,1,
5596ab22fdf99b2d3a68c840,SCR,2024-06-24_14h48.01.370,LearnStrategy,2023.2.3,MacIntel,56.49717514,9,2,16,,,,,,,,4,11,,,,,,,,,,,,,2,2.051,0,,,,,,-0.137199006,-0.248532218,1,0,0,2.051,Basalt_rect,15,0,15,0,1,
5596ab22fdf99b2d3a68c840,SCR,2024-06-24_14h48.01.370,LearnStrategy,2023.2.3,MacIntel,56.49717514,,,,,,,,,,,,,,,,,,,,,,,,,,,,,,,,,,,,,,,,,,,,,1
5596ab22fdf99b2d3a68c840,SCR,2024-06-24_14h48.01.370,LearnStrategy,2023.2.3,MacIntel,56.49717514,,,,,,,,,,,,,,,,,,,,,,,,,,,,,,,,,,,,,,,,,,,,,
5596ab22fdf99b2d3a68c840,SCR,2024-06-24_14h48.01.370,LearnStrategy,2023.2.3,MacIntel,56.49717514,,,,,,,,,,,8,02,1,1,,,,,,,,,,,,,,,,,,,,,,,,,,,,,,,
5596ab22fdf99b2d3a68c840,SCR,2024-06-24_14h48.01.370,LearnStrategy,2023.2.3,MacIntel,56.49717514,,,,,,,,,,,7,13,1,2,,,,,,,,,,,,,,,,,,,,,,,,,,,,,,,
5596ab22fdf99b2d3a68c840,SCR,2024-06-24_14h48.01.370,LearnStrategy,2023.2.3,MacIntel,56.49717514,,,,,,,,,,,2,01,1,3,,,,,,,,,,,,,,,,,,,,,,,,,,,,,,,
5596ab22fdf99b2d3a68c840,SCR,2024-06-24_14h48.01.370,LearnStrategy,2023.2.3,MacIntel,56.49717514,,,,,,,,,,,7,06,1,4,,,,,,,,,,,,,,,,,,,,,,,,,,,,,,,
5596ab22fdf99b2d3a68c840,SCR,2024-06-24_14h48.01.370,LearnStrategy,2023.2.3,MacIntel,56.49717514,,,,,,,,,,,8,16,1,5,,,,,,,,,,,,,,,,,,,,,,,,,,,,,,,
5596ab22fdf99b2d3a68c840,SCR,2024-06-24_14h48.01.370,LearnStrategy,2023.2.3,MacIntel,56.49717514,,,,,,,,,,,2,10,1,6,,,,,,,,,,,,,,,,,,,,,,,,,,,,,,,
5596ab22fdf99b2d3a68c840,SCR,2024-06-24_14h48.01.370,LearnStrategy,2023.2.3,MacIntel,56.49717514,,,,,,,,,,,1,03,1,7,,,,,,,,,,,,,,,,,,,,,,,,,,,,,,,
5596ab22fdf99b2d3a68c840,SCR,2024-06-24_14h48.01.370,LearnStrategy,2023.2.3,MacIntel,56.49717514,,,,,,,,,,,6,09,1,8,,,,,,,,,,,,,,,,,,,,,,,,,,,,,,,
5596ab22fdf99b2d3a68c840,SCR,2024-06-24_14h48.01.370,LearnStrategy,2023.2.3,MacIntel,56.49717514,,,,,,,,,,,6,11,2,1,,,,,,,,,,,,,,,,,,,,,,,,,,,,,,,
5596ab22fdf99b2d3a68c840,SCR,2024-06-24_14h48.01.370,LearnStrategy,2023.2.3,MacIntel,56.49717514,,,,,,,,,,,3,08,2,2,,,,,,,,,,,,,,,,,,,,,,,,,,,,,,,
5596ab22fdf99b2d3a68c840,SCR,2024-06-24_14h48.01.370,LearnStrategy,2023.2.3,MacIntel,56.49717514,,,,,,,,,,,5,07,2,3,,,,,,,,,,,,,,,,,,,,,,,,,,,,,,,
5596ab22fdf99b2d3a68c840,SCR,2024-06-24_14h48.01.370,LearnStrategy,2023.2.3,MacIntel,56.49717514,,,,,,,,,,,6,16,2,4,,,,,,,,,,,,,,,,,,,,,,,,,,,,,,,
5596ab22fdf99b2d3a68c840,SCR,2024-06-24_14h48.01.370,LearnStrategy,2023.2.3,MacIntel,56.49717514,,,,,,,,,,,8,03,2,5,,,,,,,,,,,,,,,,,,,,,,,,,,,,,,,
5596ab22fdf99b2d3a68c840,SCR,2024-06-24_14h48.01.370,LearnStrategy,2023.2.3,MacIntel,56.49717514,,,,,,,,,,,4,08,2,6,,,,,,,,,,,,,,,,,,,,,,,,,,,,,,,
5596ab22fdf99b2d3a68c840,SCR,2024-06-24_14h48.01.370,LearnStrategy,2023.2.3,MacIntel,56.49717514,,,,,,,,,,,8,13,2,7,,,,,,,,,,,,,,,,,,,,,,,,,,,,,,,
5596ab22fdf99b2d3a68c840,SCR,2024-06-24_14h48.01.370,LearnStrategy,2023.2.3,MacIntel,56.49717514,,,,,,,,,,,1,04,2,8,,,,,,,,,,,,,,,,,,,,,,,,,,,,,,,
5596ab22fdf99b2d3a68c840,SCR,2024-06-24_14h48.01.370,LearnStrategy,2023.2.3,MacIntel,56.49717514,,,,,,,,,,,1,16,3,1,,,,,,,,,,,,,,,,,,,,,,,,,,,,,,,
5596ab22fdf99b2d3a68c840,SCR,2024-06-24_14h48.01.370,LearnStrategy,2023.2.3,MacIntel,56.49717514,,,,,,,,,,,5,11,3,2,,,,,,,,,,,,,,,,,,,,,,,,,,,,,,,
5596ab22fdf99b2d3a68c840,SCR,2024-06-24_14h48.01.370,LearnStrategy,2023.2.3,MacIntel,56.49717514,,,,,,,,,,,7,14,3,3,,,,,,,,,,,,,,,,,,,,,,,,,,,,,,,
5596ab22fdf99b2d3a68c840,SCR,2024-06-24_14h48.01.370,LearnStrategy,2023.2.3,MacIntel,56.49717514,,,,,,,,,,,3,10,3,4,,,,,,,,,,,,,,,,,,,,,,,,,,,,,,,
5596ab22fdf99b2d3a68c840,SCR,2024-06-24_14h48.01.370,LearnStrategy,2023.2.3,MacIntel,56.49717514,,,,,,,,,,,3,13,3,5,,,,,,,,,,,,,,,,,,,,,,,,,,,,,,,
5596ab22fdf99b2d3a68c840,SCR,2024-06-24_14h48.01.370,LearnStrategy,2023.2.3,MacIntel,56.49717514,,,,,,,,,,,8,15,3,6,,,,,,,,,,,,,,,,,,,,,,,,,,,,,,,
5596ab22fdf99b2d3a68c840,SCR,2024-06-24_14h48.01.370,LearnStrategy,2023.2.3,MacIntel,56.49717514,,,,,,,,,,,6,08,3,7,,,,,,,,,,,,,,,,,,,,,,,,,,,,,,,
5596ab22fdf99b2d3a68c840,SCR,2024-06-24_14h48.01.370,LearnStrategy,2023.2.3,MacIntel,56.49717514,,,,,,,,,,,3,06,3,8,,,,,,,,,,,,,,,,,,,,,,,,,,,,,,,
5596ab22fdf99b2d3a68c840,SCR,2024-06-24_14h48.01.370,LearnStrategy,2023.2.3,MacIntel,56.49717514,,,,,,,,,,,7,02,4,1,,,,,,,,,,,,,,,,,,,,,,,,,,,,,,,
5596ab22fdf99b2d3a68c840,SCR,2024-06-24_14h48.01.370,LearnStrategy,2023.2.3,MacIntel,56.49717514,,,,,,,,,,,1,10,4,2,,,,,,,,,,,,,,,,,,,,,,,,,,,,,,,
5596ab22fdf99b2d3a68c840,SCR,2024-06-24_14h48.01.370,LearnStrategy,2023.2.3,MacIntel,56.49717514,,,,,,,,,,,4,12,4,3,,,,,,,,,,,,,,,,,,,,,,,,,,,,,,,
5596ab22fdf99b2d3a68c840,SCR,2024-06-24_14h48.01.370,LearnStrategy,2023.2.3,MacIntel,56.49717514,,,,,,,,,,,6,13,4,4,,,,,,,,,,,,,,,,,,,,,,,,,,,,,,,
5596ab22fdf99b2d3a68c840,SCR,2024-06-24_14h48.01.370,LearnStrategy,2023.2.3,MacIntel,56.49717514,,,,,,,,,,,4,14,4,5,,,,,,,,,,,,,,,,,,,,,,,,,,,,,,,
5596ab22fdf99b2d3a68c840,SCR,2024-06-24_14h48.01.370,LearnStrategy,2023.2.3,MacIntel,56.49717514,,,,,,,,,,,1,06,4,6,,,,,,,,,,,,,,,,,,,,,,,,,,,,,,,
5596ab22fdf99b2d3a68c840,SCR,2024-06-24_14h48.01.370,LearnStrategy,2023.2.3,MacIntel,56.49717514,,,,,,,,,,,8,06,4,7,,,,,,,,,,,,,,,,,,,,,,,,,,,,,,,
5596ab22fdf99b2d3a68c840,SCR,2024-06-24_14h48.01.370,LearnStrategy,2023.2.3,MacIntel,56.49717514,,,,,,,,,,,3,14,4,8,,,,,,,,,,,,,,,,,,,,,,,,,,,,,,,
5596ab22fdf99b2d3a68c840,SCR,2024-06-24_14h48.01.370,LearnStrategy,2023.2.3,MacIntel,56.49717514,,,,,,,,,,,7,07,5,1,,,,,,,,,,,,,,,,,,,,,,,,,,,,,,,
5596ab22fdf99b2d3a68c840,SCR,2024-06-24_14h48.01.370,LearnStrategy,2023.2.3,MacIntel,56.49717514,,,,,,,,,,,2,16,5,2,,,,,,,,,,,,,,,,,,,,,,,,,,,,,,,
5596ab22fdf99b2d3a68c840,SCR,2024-06-24_14h48.01.370,LearnStrategy,2023.2.3,MacIntel,56.49717514,,,,,,,,,,,5,05,5,3,,,,,,,,,,,,,,,,,,,,,,,,,,,,,,,
5596ab22fdf99b2d3a68c840,SCR,2024-06-24_14h48.01.370,LearnStrategy,2023.2.3,MacIntel,56.49717514,,,,,,,,,,,5,06,5,4,,,,,,,,,,,,,,,,,,,,,,,,,,,,,,,
5596ab22fdf99b2d3a68c840,SCR,2024-06-24_14h48.01.370,LearnStrategy,2023.2.3,MacIntel,56.49717514,,,,,,,,,,,1,01,5,5,,,,,,,,,,,,,,,,,,,,,,,,,,,,,,,
5596ab22fdf99b2d3a68c840,SCR,2024-06-24_14h48.01.370,LearnStrategy,2023.2.3,MacIntel,56.49717514,,,,,,,,,,,7,08,5,6,,,,,,,,,,,,,,,,,,,,,,,,,,,,,,,
5596ab22fdf99b2d3a68c840,SCR,2024-06-24_14h48.01.370,LearnStrategy,2023.2.3,MacIntel,56.49717514,,,,,,,,,,,2,09,5,7,,,,,,,,,,,,,,,,,,,,,,,,,,,,,,,
5596ab22fdf99b2d3a68c840,SCR,2024-06-24_14h48.01.370,LearnStrategy,2023.2.3,MacIntel,56.49717514,,,,,,,,,,,3,16,5,8,,,,,,,,,,,,,,,,,,,,,,,,,,,,,,,
5596ab22fdf99b2d3a68c840,SCR,2024-06-24_14h48.01.370,LearnStrategy,2023.2.3,MacIntel,56.49717514,,,,,,,,,,,5,14,6,1,,,,,,,,,,,,,,,,,,,,,,,,,,,,,,,
5596ab22fdf99b2d3a68c840,SCR,2024-06-24_14h48.01.370,LearnStrategy,2023.2.3,MacIntel,56.49717514,,,,,,,,,,,6,06,6,2,,,,,,,,,,,,,,,,,,,,,,,,,,,,,,,
5596ab22fdf99b2d3a68c840,SCR,2024-06-24_14h48.01.370,LearnStrategy,2023.2.3,MacIntel,56.49717514,,,,,,,,,,,2,11,6,3,,,,,,,,,,,,,,,,,,,,,,,,,,,,,,,
5596ab22fdf99b2d3a68c840,SCR,2024-06-24_14h48.01.370,LearnStrategy,2023.2.3,MacIntel,56.49717514,,,,,,,,,,,4,16,6,4,,,,,,,,,,,,,,,,,,,,,,,,,,,,,,,
5596ab22fdf99b2d3a68c840,SCR,2024-06-24_14h48.01.370,LearnStrategy,2023.2.3,MacIntel,56.49717514,,,,,,,,,,,4,13,6,5,,,,,,,,,,,,,,,,,,,,,,,,,,,,,,,
5596ab22fdf99b2d3a68c840,SCR,2024-06-24_14h48.01.370,LearnStrategy,2023.2.3,MacIntel,56.49717514,,,,,,,,,,,2,02,6,6,,,,,,,,,,,,,,,,,,,,,,,,,,,,,,,
5596ab22fdf99b2d3a68c840,SCR,2024-06-24_14h48.01.370,LearnStrategy,2023.2.3,MacIntel,56.49717514,,,,,,,,,,,5,10,6,7,,,,,,,,,,,,,,,,,,,,,,,,,,,,,,,
5596ab22fdf99b2d3a68c840,SCR,2024-06-24_14h48.01.370,LearnStrategy,2023.2.3,MacIntel,56.49717514,,,,,,,,,,,4,01,6,8,,,,,,,,,,,,,,,,,,,,,,,,,,,,,,,