participant,condition,date,expName,psychopyVersion,OS,frameRate,block,phase,trial,learn_mouse.x,learn_mouse.y,learn_mouse.leftButton,learn_mouse.midButton,learn_mouse.rightButton,learn_mouse.time,learn_mouse.clicked_name,cat,token,row,col,t_select,cat_mouse_l.x,cat_mouse_l.y,cat_mouse_l.leftButton,cat_mouse_l.midButton,cat_mouse_l.rightButton,cat_mouse_l.time,cat_mouse_l.clicked_name,resp,t_resp,corr,train_trials.thisRepN,train_trials.thisTrialN,train_trials.thisN,train_trials.thisIndex,train_trials.ran,cat_mouse_t.x,cat_mouse_t.y,cat_mouse_t.leftButton,cat_mouse_t.midButton,cat_mouse_t.rightButton,cat_mouse_t.time,cat_mouse_t.clicked_name,test_trials.thisRepN,test_trials.thisTrialN,test_trials.thisN,test_trials.thisIndex,test_trials.ran,Bonus
55b00063fdf99b5c0061941f,SCN,2024-06-24_14h43.50.698,LearnStrategy,2023.2.3,Win32,17.98561151,,,,,,,,,,,,,,,,,,,,,,,,,,,,,,,,,,,,,,,,,,,
55b00063fdf99b5c0061941f,SCN,2024-06-24_14h43.50.698,LearnStrategy,2023.2.3,Win32,17.98561151,1,1,1,-0.525,0.413888889,1,0,0,2.8526,Pumice_03,8,03,6,1,2.853,0.383333333,-0.387037037,1,0,0,12.5703,Pumice_rect,8,12.57,1,0,0,0,0,1,,,,,,,,,,,,,
55b00063fdf99b5c0061941f,SCN,2024-06-24_14h43.50.698,LearnStrategy,2023.2.3,Win32,17.98561151,1,1,2,-0.392592593,0.412037037,1,0,0,1.9236,Basalt_10,2,10,6,2,1.924,-0.128703704,-0.25462963,1,0,0,10.0296,Basalt_rect,2,10.03,1,1,0,1,0,1,,,,,,,,,,,,,
55b00063fdf99b5c0061941f,SCN,2024-06-24_14h43.50.698,LearnStrategy,2023.2.3,Win32,17.98561151,1,1,3,-0.22037037,0.410185185,1,0,0,2.7199,Diorite_14,3,14,6,3,2.72,0.107407407,-0.252777778,1,0,0,13.499,Diorite_rect,3,13.499,1,2,0,2,0,1,,,,,,,,,,,,,
55b00063fdf99b5c0061941f,SCN,2024-06-24_14h43.50.698,LearnStrategy,2023.2.3,Win32,17.98561151,1,1,4,-0.064814815,0.418518519,1,0,0,1.3202,Obsidian_07,5,07,6,4,1.32,-0.393518519,-0.391666667,1,0,0,16.511,Obsidian_rect,5,16.511,1,3,0,3,0,1,,,,,,,,,,,,,
55b00063fdf99b5c0061941f,SCN,2024-06-24_14h43.50.698,LearnStrategy,2023.2.3,Win32,17.98561151,1,1,5,0.078703704,0.39537037,1,0,0,1.7816,Gabbro_10,4,10,6,5,1.782,0.356481481,-0.244444444,1,0,0,18.5818,Gabbro_rect,4,18.582,1,4,0,4,0,1,,,,,,,,,,,,,
55b00063fdf99b5c0061941f,SCN,2024-06-24_14h43.50.698,LearnStrategy,2023.2.3,Win32,17.98561151,1,1,6,0.258333333,0.406481481,1,0,0,2.4165,Andesite_07,1,07,6,6,2.416,0.137962963,-0.264814815,1,0,0,24.2271,Diorite_rect,3,24.227,0,5,0,5,0,1,,,,,,,,,,,,,
55b00063fdf99b5c0061941f,SCN,2024-06-24_14h43.50.698,LearnStrategy,2023.2.3,Win32,17.98561151,1,1,7,0.406481481,0.405555556,1,0,0,2.0728,Peridotite_06,7,06,6,7,2.073,0.137962963,-0.396296296,1,0,0,4.0261,Peridotite_rect,7,4.026,1,6,0,6,0,1,,,,,,,,,,,,,
55b00063fdf99b5c0061941f,SCN,2024-06-24_14h43.50.698,LearnStrategy,2023.2.3,Win32,17.98561151,1,1,8,0.530555556,0.398148148,1,0,0,1.1668,Andesite_16,1,16,6,8,1.167,0.15,-0.262037037,1,0,0,25.7962,Diorite_rect,3,25.796,0,7,0,7,0,1,,,,,,,,,,,,,
55b00063fdf99b5c0061941f,SCN,2024-06-24_14h43.50.698,LearnStrategy,2023.2.3,Win32,17.98561151,1,1,9,-0.544444444,0.251851852,1,0,0,9.6587,Peridotite_02,7,02,5,1,9.659,0.087037037,-0.414814815,1,0,0,2.745,Peridotite_rect,7,2.745,1,8,0,8,0,1,,,,,,,,,,,,,
55b00063fdf99b5c0061941f,SCN,2024-06-24_14h43.50.698,LearnStrategy,2023.2.3,Win32,17.98561151,1,1,10,-0.391666667,0.267592593,1,0,0,1.1237,Obsidian_06,5,06,5,2,1.124,-0.130555556,-0.243518519,1,0,0,1.7692,Basalt_rect,2,1.769,0,9,0,9,0,1,,,,,,,,,,,,,
55b00063fdf99b5c0061941f,SCN,2024-06-24_14h43.50.698,LearnStrategy,2023.2.3,Win32,17.98561151,1,1,11,-0.218518519,0.256481481,1,0,0,1.5966,Diorite_06,3,06,5,3,1.597,-0.37037037,-0.239814815,1,0,0,3.0825,Andesite_rect,1,3.083,0,10,0,10,0,1,,,,,,,,,,,,,
55b00063fdf99b5c0061941f,SCN,2024-06-24_14h43.50.698,LearnStrategy,2023.2.3,Win32,17.98561151,1,1,12,-0.072222222,0.262037037,1,0,0,1.4242,Pumice_04,8,04,5,4,1.424,0.426851852,-0.387037037,1,0,0,1.7845,Pumice_rect,8,1.785,1,11,0,11,0,1,,,,,,,,,,,,,
55b00063fdf99b5c0061941f,SCN,2024-06-24_14h43.50.698,LearnStrategy,2023.2.3,Win32,17.98561151,1,1,13,0.075,0.294444444,1,0,0,1.1231,Pegmatite_16,6,16,5,5,1.123,-0.109259259,-0.407407407,1,0,0,6.9894,Pegmatite_rect,6,6.989,1,12,0,12,0,1,,,,,,,,,,,,,
55b00063fdf99b5c0061941f,SCN,2024-06-24_14h43.50.698,LearnStrategy,2023.2.3,Win32,17.98561151,1,1,14,0.225,0.27962963,1,0,0,1.445,Pegmatite_08,6,08,5,6,1.445,-0.111111111,-0.402777778,1,0,0,6.153,Pegmatite_rect,6,6.153,1,13,0,13,0,1,,,,,,,,,,,,,
55b00063fdf99b5c0061941f,SCN,2024-06-24_14h43.50.698,LearnStrategy,2023.2.3,Win32,17.98561151,1,1,15,0.385185185,0.263888889,1,0,0,6.5181,Diorite_15,3,15,5,7,6.518,-0.371296296,-0.233333333,1,0,0,25.2052,Andesite_rect,1,25.205,0,14,0,14,0,1,,,,,,,,,,,,,
55b00063fdf99b5c0061941f,SCN,2024-06-24_14h43.50.698,LearnStrategy,2023.2.3,Win32,17.98561151,1,1,16,0.563888889,0.260185185,1,0,0,1.4485,Gabbro_08,4,08,5,8,1.448,-0.364814815,-0.233333333,1,0,0,7.211,Andesite_rect,1,7.211,0,15,0,15,0,1,,,,,,,,,,,,,
55b00063fdf99b5c0061941f,SCN,2024-06-24_14h43.50.698,LearnStrategy,2023.2.3,Win32,17.98561151,1,2,1,,,,,,,,8,09,,,,,,,,,,,8,5.43,1,,,,,,0.400925926,-0.417592593,1,0,0,5.4301,Pumice_rect,0,0,0,0,1,
55b00063fdf99b5c0061941f,SCN,2024-06-24_14h43.50.698,LearnStrategy,2023.2.3,Win32,17.98561151,1,2,2,,,,,,,,3,07,,,,,,,,,,,3,5.188,1,,,,,,0.135185185,-0.249074074,1,0,0,5.188,Diorite_rect,1,0,1,0,1,
55b00063fdf99b5c0061941f,SCN,2024-06-24_14h43.50.698,LearnStrategy,2023.2.3,Win32,17.98561151,1,2,3,,,,,,,,8,13,,,,,,,,,,,8,8.966,1,,,,,,0.383333333,-0.414814815,1,0,0,8.9664,Pumice_rect,2,0,2,0,1,
55b00063fdf99b5c0061941f,SCN,2024-06-24_14h43.50.698,LearnStrategy,2023.2.3,Win32,17.98561151,1,2,4,,,,,,,,6,10,,,,,,,,,,,7,3.609,0,,,,,,0.137962963,-0.401851852,1,0,0,3.6095,Peridotite_rect,3,0,3,0,1,
55b00063fdf99b5c0061941f,SCN,2024-06-24_14h43.50.698,LearnStrategy,2023.2.3,Win32,17.98561151,1,2,5,,,,,,,,2,04,,,,,,,,,,,2,1.438,1,,,,,,-0.112037037,-0.241666667,1,0,0,1.4378,Basalt_rect,4,0,4,0,1,
55b00063fdf99b5c0061941f,SCN,2024-06-24_14h43.50.698,LearnStrategy,2023.2.3,Win32,17.98561151,1,2,6,,,,,,,,5,05,,,,,,,,,,,6,4.723,0,,,,,,-0.105555556,-0.387037037,1,0,0,4.7227,Pegmatite_rect,5,0,5,0,1,
55b00063fdf99b5c0061941f,SCN,2024-06-24_14h43.50.698,LearnStrategy,2023.2.3,Win32,17.98561151,1,2,7,,,,,,,,5,11,,,,,,,,,,,5,1.814,1,,,,,,-0.371296296,-0.383333333,1,0,0,1.8142,Obsidian_rect,6,0,6,0,1,
55b00063fdf99b5c0061941f,SCN,2024-06-24_14h43.50.698,LearnStrategy,2023.2.3,Win32,17.98561151,1,2,8,,,,,,,,4,11,,,,,,,,,,,4,2.005,1,,,,,,0.425,-0.255555556,1,0,0,2.0053,Gabbro_rect,7,0,7,0,1,
55b00063fdf99b5c0061941f,SCN,2024-06-24_14h43.50.698,LearnStrategy,2023.2.3,Win32,17.98561151,1,2,9,,,,,,,,4,12,,,,,,,,,,,4,1.429,1,,,,,,0.412037037,-0.25,1,0,0,1.4291,Gabbro_rect,8,0,8,0,1,
55b00063fdf99b5c0061941f,SCN,2024-06-24_14h43.50.698,LearnStrategy,2023.2.3,Win32,17.98561151,1,2,10,,,,,,,,3,02,,,,,,,,,,,3,5.031,1,,,,,,0.075925926,-0.242592593,1,0,0,5.0312,Diorite_rect,9,0,9,0,1,
55b00063fdf99b5c0061941f,SCN,2024-06-24_14h43.50.698,LearnStrategy,2023.2.3,Win32,17.98561151,1,2,11,,,,,,,,1,01,,,,,,,,,,,2,7.731,0,,,,,,-0.182407407,-0.250925926,1,0,0,7.7305,Basalt_rect,10,0,10,0,1,
55b00063fdf99b5c0061941f,SCN,2024-06-24_14h43.50.698,LearnStrategy,2023.2.3,Win32,17.98561151,1,2,12,,,,,,,,7,08,,,,,,,,,,,7,1.942,1,,,,,,0.162962963,-0.405555556,1,0,0,1.9419,Peridotite_rect,11,0,11,0,1,
55b00063fdf99b5c0061941f,SCN,2024-06-24_14h43.50.698,LearnStrategy,2023.2.3,Win32,17.98561151,1,2,13,,,,,,,,6,05,,,,,,,,,,,6,5.943,1,,,,,,-0.134259259,-0.40462963,1,0,0,5.943,Pegmatite_rect,12,0,12,0,1,
55b00063fdf99b5c0061941f,SCN,2024-06-24_14h43.50.698,LearnStrategy,2023.2.3,Win32,17.98561151,1,2,14,,,,,,,,7,15,,,,,,,,,,,7,1.485,1,,,,,,0.122222222,-0.412962963,1,0,0,1.4852,Peridotite_rect,13,0,13,0,1,
55b00063fdf99b5c0061941f,SCN,2024-06-24_14h43.50.698,LearnStrategy,2023.2.3,Win32,17.98561151,1,2,15,,,,,,,,2,02,,,,,,,,,,,2,7.804,1,,,,,,-0.169444444,-0.252777778,1,0,0,7.8043,Basalt_rect,14,0,14,0,1,
55b00063fdf99b5c0061941f,SCN,2024-06-24_14h43.50.698,LearnStrategy,2023.2.3,Win32,17.98561151,1,2,16,,,,,,,,1,02,,,,,,,,,,,1,3.795,1,,,,,,-0.378703704,-0.243518519,1,0,0,3.7947,Andesite_rect,15,0,15,0,1,
55b00063fdf99b5c0061941f,SCN,2024-06-24_14h43.50.698,LearnStrategy,2023.2.3,Win32,17.98561151,2,1,1,-0.563888889,0.094444444,1,0,0,8.4822,Peridotite_10,7,10,4,1,8.482,0.101851852,-0.401851852,1,0,0,3.1173,Peridotite_rect,7,3.117,1,0,0,0,0,1,,,,,,,,,,,,,
55b00063fdf99b5c0061941f,SCN,2024-06-24_14h43.50.698,LearnStrategy,2023.2.3,Win32,17.98561151,2,1,2,-0.233333333,0.089814815,1,0,0,2.2274,Peridotite_04,7,04,4,3,2.227,-0.10462963,-0.387962963,1,0,0,2.27,Pegmatite_rect,6,2.27,0,1,0,1,0,1,,,,,,,,,,,,,
55b00063fdf99b5c0061941f,SCN,2024-06-24_14h43.50.698,LearnStrategy,2023.2.3,Win32,17.98561151,2,1,3,-0.063888889,0.121296296,1,0,0,1.7722,Basalt_14,2,14,4,4,1.772,0.350925926,-0.246296296,1,0,0,4.5294,Gabbro_rect,4,4.529,0,2,0,2,0,1,,,,,,,,,,,,,
55b00063fdf99b5c0061941f,SCN,2024-06-24_14h43.50.698,LearnStrategy,2023.2.3,Win32,17.98561151,2,1,4,0.075,0.094444444,1,0,0,2.7467,Pegmatite_07,6,07,4,5,2.747,-0.127777778,-0.396296296,1,0,0,2.7251,Pegmatite_rect,6,2.725,1,3,0,3,0,1,,,,,,,,,,,,,
55b00063fdf99b5c0061941f,SCN,2024-06-24_14h43.50.698,LearnStrategy,2023.2.3,Win32,17.98561151,2,1,5,0.402777778,0.119444444,1,0,0,1.444,Obsidian_12,5,12,4,7,1.444,-0.37037037,-0.403703704,1,0,0,5.2819,Obsidian_rect,5,5.282,1,4,0,4,0,1,,,,,,,,,,,,,
55b00063fdf99b5c0061941f,SCN,2024-06-24_14h43.50.698,LearnStrategy,2023.2.3,Win32,17.98561151,2,1,6,0.227777778,0.103703704,1,0,0,1.4386,Pumice_06,8,06,4,6,1.439,0.347222222,-0.390740741,1,0,0,3.1904,Pumice_rect,8,3.19,1,5,0,5,0,1,,,,,,,,,,,,,
55b00063fdf99b5c0061941f,SCN,2024-06-24_14h43.50.698,LearnStrategy,2023.2.3,Win32,17.98561151,2,1,7,-0.384259259,-0.105555556,1,0,0,6.9182,Andesite_06,1,06,3,2,6.918,0.075,-0.246296296,1,0,0,2.7248,Diorite_rect,3,2.725,0,6,0,6,0,1,,,,,,,,,,,,,
55b00063fdf99b5c0061941f,SCN,2024-06-24_14h43.50.698,LearnStrategy,2023.2.3,Win32,17.98561151,2,1,8,-0.534259259,-0.112037037,1,0,0,1.4651,Peridotite_05,7,05,3,1,1.465,0.15,-0.405555556,1,0,0,2.5625,Peridotite_rect,7,2.563,1,7,0,7,0,1,,,,,,,,,,,,,
55b00063fdf99b5c0061941f,SCN,2024-06-24_14h43.50.698,LearnStrategy,2023.2.3,Win32,17.98561151,2,1,9,-0.412037037,-0.088888889,1,0,0,6.0753,Andesite_06,1,06,3,2,6.075,-0.372222222,-0.241666667,1,0,0,2.0639,Andesite_rect,1,2.064,1,8,0,8,0,1,,,,,,,,,,,,,
55b00063fdf99b5c0061941f,SCN,2024-06-24_14h43.50.698,LearnStrategy,2023.2.3,Win32,17.98561151,2,1,10,0.085185185,-0.080555556,1,0,0,1.4405,Diorite_13,3,13,3,5,1.44,0.139814815,-0.247222222,1,0,0,4.3158,Diorite_rect,3,4.316,1,9,0,9,0,1,,,,,,,,,,,,,
55b00063fdf99b5c0061941f,SCN,2024-06-24_14h43.50.698,LearnStrategy,2023.2.3,Win32,17.98561151,2,1,11,0.560185185,-0.258333333,1,0,0,18.8091,Gabbro_05,4,05,2,8,18.809,0.375925926,-0.243518519,1,0,0,4.5389,Gabbro_rect,4,4.539,1,10,0,10,0,1,,,,,,,,,,,,,
55b00063fdf99b5c0061941f,SCN,2024-06-24_14h43.50.698,LearnStrategy,2023.2.3,Win32,17.98561151,2,1,12,-0.353703704,-0.258333333,1,0,0,4.6237,Diorite_16,3,16,2,2,4.624,0.083333333,-0.244444444,1,0,0,9.5288,Diorite_rect,3,9.529,1,11,0,11,0,1,,,,,,,,,,,,,
55b00063fdf99b5c0061941f,SCN,2024-06-24_14h43.50.698,LearnStrategy,2023.2.3,Win32,17.98561151,2,1,13,0.089814815,-0.387037037,1,0,0,3.2431,Andesite_03,1,03,1,5,3.243,-0.12962963,-0.258333333,1,0,0,5.683,Basalt_rect,2,5.683,0,12,0,12,0,1,,,,,,,,,,,,,
55b00063fdf99b5c0061941f,SCN,2024-06-24_14h43.50.698,LearnStrategy,2023.2.3,Win32,17.98561151,2,1,14,0.24537037,-0.416666667,1,0,0,1.7705,Basalt_12,2,12,1,6,1.771,-0.344444444,-0.252777778,1,0,0,6.2996,Andesite_rect,1,6.3,0,13,0,13,0,1,,,,,,,,,,,,,
55b00063fdf99b5c0061941f,SCN,2024-06-24_14h43.50.698,LearnStrategy,2023.2.3,Win32,17.98561151,2,1,15,-0.374074074,-0.414814815,1,0,0,3.42,Pegmatite_12,6,12,1,2,3.42,-0.138888889,-0.398148148,1,0,0,2.8133,Pegmatite_rect,6,2.813,1,14,0,14,0,1,,,,,,,,,,,,,
55b00063fdf99b5c0061941f,SCN,2024-06-24_14h43.50.698,LearnStrategy,2023.2.3,Win32,17.98561151,2,1,16,-0.530555556,-0.399074074,1,0,0,1.7767,Pegmatite_13,6,13,1,1,1.777,-0.111111111,-0.411111111,1,0,0,1.4896,Pegmatite_rect,6,1.49,1,15,0,15,0,1,,,,,,,,,,,,,
55b00063fdf99b5c0061941f,SCN,2024-06-24_14h43.50.698,LearnStrategy,2023.2.3,Win32,17.98561151,2,2,1,,,,,,,,4,01,,,,,,,,,,,1,5.703,0,,,,,,-0.357407407,-0.228703704,1,0,0,5.7026,Andesite_rect,0,0,0,0,1,
55b00063fdf99b5c0061941f,SCN,2024-06-24_14h43.50.698,LearnStrategy,2023.2.3,Win32,17.98561151,2,2,2,,,,,,,,2,01,,,,,,,,,,,2,3.21,1,,,,,,-0.106481481,-0.243518519,1,0,0,3.2103,Basalt_rect,1,0,1,0,1,
55b00063fdf99b5c0061941f,SCN,2024-06-24_14h43.50.698,LearnStrategy,2023.2.3,Win32,17.98561151,2,2,3,,,,,,,,8,02,,,,,,,,,,,8,1.464,1,,,,,,0.383333333,-0.398148148,1,0,0,1.4637,Pumice_rect,2,0,2,0,1,
55b00063fdf99b5c0061941f,SCN,2024-06-24_14h43.50.698,LearnStrategy,2023.2.3,Win32,17.98561151,2,2,4,,,,,,,,4,09,,,,,,,,,,,2,2.441,0,,,,,,-0.099074074,-0.25,1,0,0,2.4413,Basalt_rect,3,0,3,0,1,
55b00063fdf99b5c0061941f,SCN,2024-06-24_14h43.50.698,LearnStrategy,2023.2.3,Win32,17.98561151,2,2,5,,,,,,,,3,10,,,,,,,,,,,3,3.773,1,,,,,,0.122222222,-0.244444444,1,0,0,3.773,Diorite_rect,4,0,4,0,1,
55b00063fdf99b5c0061941f,SCN,2024-06-24_14h43.50.698,LearnStrategy,2023.2.3,Win32,17.98561151,2,2,6,,,,,,,,2,08,,,,,,,,,,,2,2.997,1,,,,,,-0.116666667,-0.246296296,1,0,0,2.9973,Basalt_rect,5,0,5,0,1,
55b00063fdf99b5c0061941f,SCN,2024-06-24_14h43.50.698,LearnStrategy,2023.2.3,Win32,17.98561151,2,2,7,,,,,,,,1,14,,,,,,,,,,,1,10.495,1,,,,,,-0.357407407,-0.242592593,1,0,0,10.4948,Andesite_rect,6,0,6,0,1,
55b00063fdf99b5c0061941f,SCN,2024-06-24_14h43.50.698,LearnStrategy,2023.2.3,Win32,17.98561151,2,2,8,,,,,,,,5,10,,,,,,,,,,,5,1.669,1,,,,,,-0.394444444,-0.394444444,1,0,0,1.6692,Obsidian_rect,7,0,7,0,1,
55b00063fdf99b5c0061941f,SCN,2024-06-24_14h43.50.698,LearnStrategy,2023.2.3,Win32,17.98561151,2,2,9,,,,,,,,3,11,,,,,,,,,,,3,1.469,1,,,,,,0.124074074,-0.25,1,0,0,1.4689,Diorite_rect,8,0,8,0,1,
55b00063fdf99b5c0061941f,SCN,2024-06-24_14h43.50.698,LearnStrategy,2023.2.3,Win32,17.98561151,2,2,10,,,,,,,,6,15,,,,,,,,,,,6,1.328,1,,,,,,-0.130555556,-0.416666667,1,0,0,1.3278,Pegmatite_rect,9,0,9,0,1,
55b00063fdf99b5c0061941f,SCN,2024-06-24_14h43.50.698,LearnStrategy,2023.2.3,Win32,17.98561151,2,2,11,,,,,,,,7,12,,,,,,,,,,,7,1.563,1,,,,,,0.137037037,-0.391666667,1,0,0,1.5625,Peridotite_rect,10,0,10,0,1,
55b00063fdf99b5c0061941f,SCN,2024-06-24_14h43.50.698,LearnStrategy,2023.2.3,Win32,17.98561151,2,2,12,,,,,,,,8,10,,,,,,,,,,,8,6.469,1,,,,,,0.357407407,-0.392592593,1,0,0,6.4694,Pumice_rect,11,0,11,0,1,
55b00063fdf99b5c0061941f,SCN,2024-06-24_14h43.50.698,LearnStrategy,2023.2.3,Win32,17.98561151,2,2,13,,,,,,,,6,03,,,,,,,,,,,6,2.371,1,,,,,,-0.123148148,-0.4,1,0,0,2.3712,Pegmatite_rect,12,0,12,0,1,
55b00063fdf99b5c0061941f,SCN,2024-06-24_14h43.50.698,LearnStrategy,2023.2.3,Win32,17.98561151,2,2,14,,,,,,,,1,09,,,,,,,,,,,1,5.449,1,,,,,,-0.393518519,-0.242592593,1,0,0,5.4487,Andesite_rect,13,0,13,0,1,
55b00063fdf99b5c0061941f,SCN,2024-06-24_14h43.50.698,LearnStrategy,2023.2.3,Win32,17.98561151,2,2,15,,,,,,,,5,08,,,,,,,,,,,5,1.458,1,,,,,,-0.416666667,-0.412962963,1,0,0,1.4584,Obsidian_rect,14,0,14,0,1,
55b00063fdf99b5c0061941f,SCN,2024-06-24_14h43.50.698,LearnStrategy,2023.2.3,Win32,17.98561151,2,2,16,,,,,,,,7,13,,,,,,,,,,,7,1.311,1,,,,,,0.110185185,-0.401851852,1,0,0,1.311,Peridotite_rect,15,0,15,0,1,
55b00063fdf99b5c0061941f,SCN,2024-06-24_14h43.50.698,LearnStrategy,2023.2.3,Win32,17.98561151,3,1,1,-0.062962963,0.090740741,1,0,0,1.6324,Basalt_14,2,14,4,4,1.632,0.402777778,-0.258333333,1,0,0,12.2755,Gabbro_rect,4,12.276,0,0,0,0,0,1,,,,,,,,,,,,,
55b00063fdf99b5c0061941f,SCN,2024-06-24_14h43.50.698,LearnStrategy,2023.2.3,Win32,17.98561151,3,1,2,-0.227777778,-0.243518519,1,0,0,2.7317,Gabbro_03,4,03,2,3,2.732,0.144444444,-0.25462963,1,0,0,7.0415,Diorite_rect,3,7.042,0,1,0,1,0,1,,,,,,,,,,,,,
55b00063fdf99b5c0061941f,SCN,2024-06-24_14h43.50.698,LearnStrategy,2023.2.3,Win32,17.98561151,3,1,3,0.562037037,-0.263888889,1,0,0,13.7929,Gabbro_05,4,05,2,8,13.793,0.397222222,-0.240740741,1,0,0,2.5908,Gabbro_rect,4,2.591,1,2,0,2,0,1,,,,,,,,,,,,,
55b00063fdf99b5c0061941f,SCN,2024-06-24_14h43.50.698,LearnStrategy,2023.2.3,Win32,17.98561151,3,1,4,0.076851852,-0.097222222,1,0,0,2.4195,Diorite_13,3,13,3,5,2.42,0.108333333,-0.25,1,0,0,3.6893,Diorite_rect,3,3.689,1,3,0,3,0,1,,,,,,,,,,,,,
55b00063fdf99b5c0061941f,SCN,2024-06-24_14h43.50.698,LearnStrategy,2023.2.3,Win32,17.98561151,3,1,5,-0.074074074,0.275,1,0,0,1.4366,Pumice_04,8,04,5,4,1.437,0.357407407,-0.397222222,1,0,0,1.1339,Pumice_rect,8,1.134,1,4,0,4,0,1,,,,,,,,,,,,,
55b00063fdf99b5c0061941f,SCN,2024-06-24_14h43.50.698,LearnStrategy,2023.2.3,Win32,17.98561151,3,1,6,0.094444444,-0.400925926,1,0,0,1.6053,Andesite_03,1,03,1,5,1.605,-0.394444444,-0.241666667,1,0,0,0.9806,Andesite_rect,1,0.981,1,5,0,5,0,1,,,,,,,,,,,,,
55b00063fdf99b5c0061941f,SCN,2024-06-24_14h43.50.698,LearnStrategy,2023.2.3,Win32,17.98561151,3,1,7,0.573148148,-0.406481481,1,0,0,1.636,Obsidian_09,5,09,1,8,1.636,-0.435185185,-0.4,1,0,0,1.1675,Obsidian_rect,5,1.168,1,6,0,6,0,1,,,,,,,,,,,,,
55b00063fdf99b5c0061941f,SCN,2024-06-24_14h43.50.698,LearnStrategy,2023.2.3,Win32,17.98561151,3,1,8,-0.239814815,0.417592593,1,0,0,3.5957,Diorite_14,3,14,6,3,3.596,0.12962963,-0.25,1,0,0,1.1351,Diorite_rect,3,1.135,1,7,0,7,0,1,,,,,,,,,,,,,
55b00063fdf99b5c0061941f,SCN,2024-06-24_14h43.50.698,LearnStrategy,2023.2.3,Win32,17.98561151,3,1,9,-0.378703704,-0.242592593,1,0,0,2.2661,Diorite_16,3,16,2,2,2.266,0.101851852,-0.25462963,1,0,0,1.2967,Diorite_rect,3,1.297,1,8,0,8,0,1,,,,,,,,,,,,,
55b00063fdf99b5c0061941f,SCN,2024-06-24_14h43.50.698,LearnStrategy,2023.2.3,Win32,17.98561151,3,1,10,-0.514814815,-0.236111111,1,0,0,3.5103,Basalt_09,2,09,2,1,3.51,-0.143518519,-0.259259259,1,0,0,1.3016,Basalt_rect,2,1.302,1,9,0,9,0,1,,,,,,,,,,,,,
55b00063fdf99b5c0061941f,SCN,2024-06-24_14h43.50.698,LearnStrategy,2023.2.3,Win32,17.98561151,3,1,11,0.400925926,-0.080555556,1,0,0,1.9535,Gabbro_14,4,14,3,7,1.954,0.382407407,-0.25462963,1,0,0,2.8131,Gabbro_rect,4,2.813,1,10,0,10,0,1,,,,,,,,,,,,,
55b00063fdf99b5c0061941f,SCN,2024-06-24_14h43.50.698,LearnStrategy,2023.2.3,Win32,17.98561151,3,1,12,0.222222222,-0.238888889,1,0,0,3.3508,Pegmatite_09,6,09,2,6,3.351,0.096296296,-0.388888889,1,0,0,5.4415,Peridotite_rect,7,5.441,0,11,0,11,0,1,,,,,,,,,,,,,
55b00063fdf99b5c0061941f,SCN,2024-06-24_14h43.50.698,LearnStrategy,2023.2.3,Win32,17.98561151,3,1,13,-0.197222222,0.089814815,1,0,0,3.2771,Peridotite_04,7,04,4,3,3.277,0.119444444,-0.400925926,1,0,0,4.9595,Peridotite_rect,7,4.96,1,12,0,12,0,1,,,,,,,,,,,,,
55b00063fdf99b5c0061941f,SCN,2024-06-24_14h43.50.698,LearnStrategy,2023.2.3,Win32,17.98561151,3,1,14,-0.071296296,-0.396296296,1,0,0,6.0474,Gabbro_16,4,16,1,4,6.047,0.424074074,-0.239814815,1,0,0,1.7758,Gabbro_rect,4,1.776,1,13,0,13,0,1,,,,,,,,,,,,,
55b00063fdf99b5c0061941f,SCN,2024-06-24_14h43.50.698,LearnStrategy,2023.2.3,Win32,17.98561151,3,1,15,0.250925926,0.10462963,1,0,0,5.683,Pumice_06,8,06,4,6,5.683,0.374074074,-0.396296296,1,0,0,2.7444,Pumice_rect,8,2.744,1,14,0,14,0,1,,,,,,,,,,,,,
55b00063fdf99b5c0061941f,SCN,2024-06-24_14h43.50.698,LearnStrategy,2023.2.3,Win32,17.98561151,3,1,16,0.572222222,-0.080555556,1,0,0,1.2876,Andesite_11,1,11,3,8,1.288,-0.365740741,-0.236111111,1,0,0,4.4527,Andesite_rect,1,4.453,1,15,0,15,0,1,,,,,,,,,,,,,
55b00063fdf99b5c0061941f,SCN,2024-06-24_14h43.50.698,LearnStrategy,2023.2.3,Win32,17.98561151,3,2,1,,,,,,,,2,16,,,,,,,,,,,4,6.154,0,,,,,,0.387962963,-0.234259259,1,0,0,6.1535,Gabbro_rect,0,0,0,0,1,
55b00063fdf99b5c0061941f,SCN,2024-06-24_14h43.50.698,LearnStrategy,2023.2.3,Win32,17.98561151,3,2,2,,,,,,,,5,14,,,,,,,,,,,5,1.306,1,,,,,,-0.47962963,-0.398148148,1,0,0,1.3058,Obsidian_rect,1,0,1,0,1,
55b00063fdf99b5c0061941f,SCN,2024-06-24_14h43.50.698,LearnStrategy,2023.2.3,Win32,17.98561151,3,2,3,,,,,,,,3,09,,,,,,,,,,,3,1.538,1,,,,,,0.150925926,-0.237962963,1,0,0,1.5381,Diorite_rect,2,0,2,0,1,
55b00063fdf99b5c0061941f,SCN,2024-06-24_14h43.50.698,LearnStrategy,2023.2.3,Win32,17.98561151,3,2,4,,,,,,,,4,13,,,,,,,,,,,3,4.91,0,,,,,,0.132407407,-0.24537037,1,0,0,4.9102,Diorite_rect,3,0,3,0,1,
55b00063fdf99b5c0061941f,SCN,2024-06-24_14h43.50.698,LearnStrategy,2023.2.3,Win32,17.98561151,3,2,5,,,,,,,,2,05,,,,,,,,,,,2,1.288,1,,,,,,-0.137962963,-0.239814815,1,0,0,1.2878,Basalt_rect,4,0,4,0,1,
55b00063fdf99b5c0061941f,SCN,2024-06-24_14h43.50.698,LearnStrategy,2023.2.3,Win32,17.98561151,3,2,6,,,,,,,,6,06,,,,,,,,,,,6,3.849,1,,,,,,-0.148148148,-0.389814815,1,0,0,3.8487,Pegmatite_rect,5,0,5,0,1,
55b00063fdf99b5c0061941f,SCN,2024-06-24_14h43.50.698,LearnStrategy,2023.2.3,Win32,17.98561151,3,2,7,,,,,,,,5,16,,,,,,,,,,,5,1.278,1,,,,,,-0.399074074,-0.4,1,0,0,1.2775,Obsidian_rect,6,0,6,0,1,
55b00063fdf99b5c0061941f,SCN,2024-06-24_14h43.50.698,LearnStrategy,2023.2.3,Win32,17.98561151,3,2,8,,,,,,,,6,11,,,,,,,,,,,6,2.595,1,,,,,,-0.142592593,-0.398148148,1,0,0,2.5945,Pegmatite_rect,7,0,7,0,1,
55b00063fdf99b5c0061941f,SCN,2024-06-24_14h43.50.698,LearnStrategy,2023.2.3,Win32,17.98561151,3,2,9,,,,,,,,3,08,,,,,,,,,,,3,1.323,1,,,,,,0.139814815,-0.250925926,1,0,0,1.3228,Diorite_rect,8,0,8,0,1,
55b00063fdf99b5c0061941f,SCN,2024-06-24_14h43.50.698,LearnStrategy,2023.2.3,Win32,17.98561151,3,2,10,,,,,,,,7,16,,,,,,,,,,,7,2.127,1,,,,,,0.117592593,-0.402777778,1,0,0,2.1268,Peridotite_rect,9,0,9,0,1,
55b00063fdf99b5c0061941f,SCN,2024-06-24_14h43.50.698,LearnStrategy,2023.2.3,Win32,17.98561151,3,2,11,,,,,,,,1,04,,,,,,,,,,,3,8.767,0,,,,,,0.084259259,-0.238888889,1,0,0,8.7674,Diorite_rect,10,0,10,0,1,
55b00063fdf99b5c0061941f,SCN,2024-06-24_14h43.50.698,LearnStrategy,2023.2.3,Win32,17.98561151,3,2,12,,,,,,,,4,15,,,,,,,,,,,3,2.965,0,,,,,,0.116666667,-0.247222222,1,0,0,2.9649,Diorite_rect,11,0,11,0,1,
55b00063fdf99b5c0061941f,SCN,2024-06-24_14h43.50.698,LearnStrategy,2023.2.3,Win32,17.98561151,3,2,13,,,,,,,,1,10,,,,,,,,,,,4,1.924,0,,,,,,0.386111111,-0.257407407,1,0,0,1.9236,Gabbro_rect,12,0,12,0,1,
55b00063fdf99b5c0061941f,SCN,2024-06-24_14h43.50.698,LearnStrategy,2023.2.3,Win32,17.98561151,3,2,14,,,,,,,,7,07,,,,,,,,,,,7,1.528,1,,,,,,0.125925926,-0.408333333,1,0,0,1.5282,Peridotite_rect,13,0,13,0,1,
55b00063fdf99b5c0061941f,SCN,2024-06-24_14h43.50.698,LearnStrategy,2023.2.3,Win32,17.98561151,3,2,15,,,,,,,,8,15,,,,,,,,,,,8,3.39,1,,,,,,0.386111111,-0.405555556,1,0,0,3.3896,Pumice_rect,14,0,14,0,1,
55b00063fdf99b5c0061941f,SCN,2024-06-24_14h43.50.698,LearnStrategy,2023.2.3,Win32,17.98561151,3,2,16,,,,,,,,8,08,,,,,,,,,,,8,1.811,1,,,,,,0.403703704,-0.403703704,1,0,0,1.8108,Pumice_rect,15,0,15,0,1,
55b00063fdf99b5c0061941f,SCN,2024-06-24_14h43.50.698,LearnStrategy,2023.2.3,Win32,17.98561151,4,1,1,-0.222222222,0.253703704,1,0,0,4.1784,Diorite_06,3,06,5,3,4.178,-0.415740741,-0.238888889,1,0,0,1.9625,Andesite_rect,1,1.963,0,0,0,0,0,1,,,,,,,,,,,,,
55b00063fdf99b5c0061941f,SCN,2024-06-24_14h43.50.698,LearnStrategy,2023.2.3,Win32,17.98561151,4,1,2,0.082407407,0.264814815,1,0,0,2.7058,Pegmatite_16,6,16,5,5,2.706,-0.112037037,-0.412962963,1,0,0,1.3011,Pegmatite_rect,6,1.301,1,1,0,1,0,1,,,,,,,,,,,,,
55b00063fdf99b5c0061941f,SCN,2024-06-24_14h43.50.698,LearnStrategy,2023.2.3,Win32,17.98561151,4,1,3,0.564814815,0.080555556,1,0,0,1.9252,Peridotite_14,7,14,4,8,1.925,0.176851852,-0.401851852,1,0,0,9.1542,Peridotite_rect,7,9.154,1,2,0,2,0,1,,,,,,,,,,,,,
55b00063fdf99b5c0061941f,SCN,2024-06-24_14h43.50.698,LearnStrategy,2023.2.3,Win32,17.98561151,4,1,4,-0.222222222,-0.091666667,1,0,0,1.7586,Andesite_05,1,05,3,3,1.759,0.143518519,-0.247222222,1,0,0,2.557,Diorite_rect,3,2.557,0,3,0,3,0,1,,,,,,,,,,,,,
55b00063fdf99b5c0061941f,SCN,2024-06-24_14h43.50.698,LearnStrategy,2023.2.3,Win32,17.98561151,4,1,5,-0.396296296,-0.087037037,1,0,0,2.7273,Andesite_06,1,06,3,2,2.727,0.117592593,-0.231481481,1,0,0,1.1333,Diorite_rect,3,1.133,0,4,0,4,0,1,,,,,,,,,,,,,
55b00063fdf99b5c0061941f,SCN,2024-06-24_14h43.50.698,LearnStrategy,2023.2.3,Win32,17.98561151,4,1,6,-0.227777778,-0.084259259,1,0,0,2.7018,Andesite_05,1,05,3,3,2.702,-0.37037037,-0.256481481,1,0,0,1.5368,Andesite_rect,1,1.537,1,5,0,5,0,1,,,,,,,,,,,,,
55b00063fdf99b5c0061941f,SCN,2024-06-24_14h43.50.698,LearnStrategy,2023.2.3,Win32,17.98561151,4,1,7,0.083333333,-0.088888889,1,0,0,2.8363,Diorite_13,3,13,3,5,2.836,0.137962963,-0.237962963,1,0,0,1.1239,Diorite_rect,3,1.124,1,6,0,6,0,1,,,,,,,,,,,,,
55b00063fdf99b5c0061941f,SCN,2024-06-24_14h43.50.698,LearnStrategy,2023.2.3,Win32,17.98561151,4,1,8,-0.525925926,-0.087037037,1,0,0,1.919,Peridotite_05,7,05,3,1,1.919,0.142592593,-0.403703704,1,0,0,1.4595,Peridotite_rect,7,1.46,1,7,0,7,0,1,,,,,,,,,,,,,
55b00063fdf99b5c0061941f,SCN,2024-06-24_14h43.50.698,LearnStrategy,2023.2.3,Win32,17.98561151,4,1,9,0.10462963,0.408333333,1,0,0,5.5773,Gabbro_10,4,10,6,5,5.577,0.400925926,-0.230555556,1,0,0,2.1405,Gabbro_rect,4,2.14,1,8,0,8,0,1,,,,,,,,,,,,,
55b00063fdf99b5c0061941f,SCN,2024-06-24_14h43.50.698,LearnStrategy,2023.2.3,Win32,17.98561151,4,1,10,0.236111111,0.400925926,1,0,0,1.4519,Andesite_07,1,07,6,6,1.452,0.122222222,-0.234259259,1,0,0,1.1665,Diorite_rect,3,1.166,0,9,0,9,0,1,,,,,,,,,,,,,
55b00063fdf99b5c0061941f,SCN,2024-06-24_14h43.50.698,LearnStrategy,2023.2.3,Win32,17.98561151,4,1,11,-0.260185185,0.418518519,1,0,0,0.9772,Diorite_14,3,14,6,3,0.977,0.149074074,-0.246296296,1,0,0,1.1529,Diorite_rect,3,1.153,1,10,0,10,0,1,,,,,,,,,,,,,
55b00063fdf99b5c0061941f,SCN,2024-06-24_14h43.50.698,LearnStrategy,2023.2.3,Win32,17.98561151,4,1,12,0.543518519,0.406481481,1,0,0,1.6785,Andesite_16,1,16,6,8,1.678,-0.425,-0.251851852,1,0,0,3.4415,Andesite_rect,1,3.442,1,11,0,11,0,1,,,,,,,,,,,,,
55b00063fdf99b5c0061941f,SCN,2024-06-24_14h43.50.698,LearnStrategy,2023.2.3,Win32,17.98561151,4,1,13,0.547222222,-0.076851852,1,0,0,3.2672,Andesite_11,1,11,3,8,3.267,-0.407407407,-0.248148148,1,0,0,1.1555,Andesite_rect,1,1.155,1,12,0,12,0,1,,,,,,,,,,,,,
55b00063fdf99b5c0061941f,SCN,2024-06-24_14h43.50.698,LearnStrategy,2023.2.3,Win32,17.98561151,4,1,14,0.085185185,-0.398148148,1,0,0,1.6146,Andesite_03,1,03,1,5,1.615,-0.388888889,-0.240740741,1,0,0,1.8095,Andesite_rect,1,1.809,1,13,0,13,0,1,,,,,,,,,,,,,
55b00063fdf99b5c0061941f,SCN,2024-06-24_14h43.50.698,LearnStrategy,2023.2.3,Win32,17.98561151,4,1,15,-0.090740741,-0.416666667,1,0,0,4.1506,Gabbro_16,4,16,1,4,4.151,-0.108333333,-0.25,1,0,0,1.2868,Basalt_rect,2,1.287,0,14,0,14,0,1,,,,,,,,,,,,,
55b00063fdf99b5c0061941f,SCN,2024-06-24_14h43.50.698,LearnStrategy,2023.2.3,Win32,17.98561151,4,1,16,0.384259259,-0.411111111,1,0,0,2.2603,Obsidian_02,5,02,1,7,2.26,-0.42962963,-0.421296296,1,0,0,1.2706,Obsidian_rect,5,1.271,1,15,0,15,0,1,,,,,,,,,,,,,
55b00063fdf99b5c0061941f,SCN,2024-06-24_14h43.50.698,LearnStrategy,2023.2.3,Win32,17.98561151,4,2,1,,,,,,,,6,11,,,,,,,,,,,6,2.259,1,,,,,,-0.151851852,-0.398148148,1,0,0,2.2595,Pegmatite_rect,0,0,0,0,1,
55b00063fdf99b5c0061941f,SCN,2024-06-24_14h43.50.698,LearnStrategy,2023.2.3,Win32,17.98561151,4,2,2,,,,,,,,5,16,,,,,,,,,,,5,1.119,1,,,,,,-0.384259259,-0.398148148,1,0,0,1.119,Obsidian_rect,1,0,1,0,1,
55b00063fdf99b5c0061941f,SCN,2024-06-24_14h43.50.698,LearnStrategy,2023.2.3,Win32,17.98561151,4,2,3,,,,,,,,8,13,,,,,,,,,,,8,1.299,1,,,,,,0.422222222,-0.396296296,1,0,0,1.2985,Pumice_rect,2,0,2,0,1,
55b00063fdf99b5c0061941f,SCN,2024-06-24_14h43.50.698,LearnStrategy,2023.2.3,Win32,17.98561151,4,2,4,,,,,,,,4,11,,,,,,,,,,,2,2.319,0,,,,,,-0.130555556,-0.248148148,1,0,0,2.319,Basalt_rect,3,0,3,0,1,
55b00063fdf99b5c0061941f,SCN,2024-06-24_14h43.50.698,LearnStrategy,2023.2.3,Win32,17.98561151,4,2,5,,,,,,,,3,08,,,,,,,,,,,3,1.161,1,,,,,,0.139814815,-0.257407407,1,0,0,1.1611,Diorite_rect,4,0,4,0,1,
55b00063fdf99b5c0061941f,SCN,2024-06-24_14h43.50.698,LearnStrategy,2023.2.3,Win32,17.98561151,4,2,6,,,,,,,,3,09,,,,,,,,,,,3,4.541,1,,,,,,0.12037037,-0.257407407,1,0,0,4.5413,Diorite_rect,5,0,5,0,1,
55b00063fdf99b5c0061941f,SCN,2024-06-24_14h43.50.698,LearnStrategy,2023.2.3,Win32,17.98561151,4,2,7,,,,,,,,1,04,,,,,,,,,,,1,1.515,1,,,,,,-0.415740741,-0.271296296,1,0,0,1.5146,Andesite_rect,6,0,6,0,1,
55b00063fdf99b5c0061941f,SCN,2024-06-24_14h43.50.698,LearnStrategy,2023.2.3,Win32,17.98561151,4,2,8,,,,,,,,7,12,,,,,,,,,,,7,2.406,1,,,,,,0.118518519,-0.403703704,1,0,0,2.4062,Peridotite_rect,7,0,7,0,1,
55b00063fdf99b5c0061941f,SCN,2024-06-24_14h43.50.698,LearnStrategy,2023.2.3,Win32,17.98561151,4,2,9,,,,,,,,4,15,,,,,,,,,,,3,1.821,0,,,,,,0.115740741,-0.262037037,1,0,0,1.8211,Diorite_rect,8,0,8,0,1,
55b00063fdf99b5c0061941f,SCN,2024-06-24_14h43.50.698,LearnStrategy,2023.2.3,Win32,17.98561151,4,2,10,,,,,,,,2,08,,,,,,,,,,,2,2.086,1,,,,,,-0.162962963,-0.237962963,1,0,0,2.0865,Basalt_rect,9,0,9,0,1,
55b00063fdf99b5c0061941f,SCN,2024-06-24_14h43.50.698,LearnStrategy,2023.2.3,Win32,17.98561151,4,2,11,,,,,,,,7,15,,,,,,,,,,,7,3.932,1,,,,,,0.138888889,-0.405555556,1,0,0,3.9323,Peridotite_rect,10,0,10,0,1,
55b00063fdf99b5c0061941f,SCN,2024-06-24_14h43.50.698,LearnStrategy,2023.2.3,Win32,17.98561151,4,2,12,,,,,,,,2,04,,,,,,,,,,,2,2.247,1,,,,,,-0.098148148,-0.251851852,1,0,0,2.2474,Basalt_rect,11,0,11,0,1,
55b00063fdf99b5c0061941f,SCN,2024-06-24_14h43.50.698,LearnStrategy,2023.2.3,Win32,17.98561151,4,2,13,,,,,,,,6,03,,,,,,,,,,,6,1.856,1,,,,,,-0.1,-0.410185185,1,0,0,1.8563,Pegmatite_rect,12,0,12,0,1,
55b00063fdf99b5c0061941f,SCN,2024-06-24_14h43.50.698,LearnStrategy,2023.2.3,Win32,17.98561151,4,2,14,,,,,,,,8,09,,,,,,,,,,,8,1.346,1,,,,,,0.376851852,-0.401851852,1,0,0,1.3457,Pumice_rect,13,0,13,0,1,
55b00063fdf99b5c0061941f,SCN,2024-06-24_14h43.50.698,LearnStrategy,2023.2.3,Win32,17.98561151,4,2,15,,,,,,,,1,10,,,,,,,,,,,1,1.587,1,,,,,,-0.409259259,-0.25462963,1,0,0,1.5871,Andesite_rect,14,0,14,0,1,
55b00063fdf99b5c0061941f,SCN,2024-06-24_14h43.50.698,LearnStrategy,2023.2.3,Win32,17.98561151,4,2,16,,,,,,,,5,11,,,,,,,,,,,5,1.336,1,,,,,,-0.39537037,-0.387962963,1,0,0,1.3363,Obsidian_rect,15,0,15,0,1,
55b00063fdf99b5c0061941f,SCN,2024-06-24_14h43.50.698,LearnStrategy,2023.2.3,Win32,17.98561151,5,1,1,-0.05462963,0.088888889,1,0,0,1.3081,Basalt_14,2,14,4,4,1.308,-0.134259259,-0.241666667,1,0,0,2.4576,Basalt_rect,2,2.458,1,0,0,0,0,1,,,,,,,,,,,,,
55b00063fdf99b5c0061941f,SCN,2024-06-24_14h43.50.698,LearnStrategy,2023.2.3,Win32,17.98561151,5,1,2,0.087962963,0.264814815,1,0,0,1.5945,Pegmatite_16,6,16,5,5,1.594,-0.132407407,-0.4,1,0,0,1.6394,Pegmatite_rect,6,1.639,1,1,0,1,0,1,,,,,,,,,,,,,
55b00063fdf99b5c0061941f,SCN,2024-06-24_14h43.50.698,LearnStrategy,2023.2.3,Win32,17.98561151,5,1,3,-0.238888889,-0.082407407,1,0,0,0.9574,Andesite_05,1,05,3,3,0.957,-0.346296296,-0.230555556,1,0,0,1.0138,Andesite_rect,1,1.014,1,2,0,2,0,1,,,,,,,,,,,,,
55b00063fdf99b5c0061941f,SCN,2024-06-24_14h43.50.698,LearnStrategy,2023.2.3,Win32,17.98561151,5,1,4,-0.563888889,-0.252777778,1,0,0,1.5869,Basalt_09,2,09,2,1,1.587,-0.112037037,-0.246296296,1,0,0,2.9391,Basalt_rect,2,2.939,1,3,0,3,0,1,,,,,,,,,,,,,
55b00063fdf99b5c0061941f,SCN,2024-06-24_14h43.50.698,LearnStrategy,2023.2.3,Win32,17.98561151,5,1,5,0.562962963,0.225,1,0,0,2.2865,Gabbro_08,4,08,5,8,2.286,0.402777778,-0.241666667,1,0,0,2.4876,Gabbro_rect,4,2.488,1,4,0,4,0,1,,,,,,,,,,,,,
55b00063fdf99b5c0061941f,SCN,2024-06-24_14h43.50.698,LearnStrategy,2023.2.3,Win32,17.98561151,5,1,6,-0.392592593,-0.407407407,1,0,0,3.2297,Pegmatite_12,6,12,1,2,3.23,-0.141666667,-0.396296296,1,0,0,1.315,Pegmatite_rect,6,1.315,1,5,0,5,0,1,,,,,,,,,,,,,
55b00063fdf99b5c0061941f,SCN,2024-06-24_14h43.50.698,LearnStrategy,2023.2.3,Win32,17.98561151,5,1,7,-0.555555556,-0.423148148,1,0,0,1.1205,Pegmatite_13,6,13,1,1,1.12,-0.165740741,-0.413888889,1,0,0,0.9913,Pegmatite_rect,6,0.991,1,6,0,6,0,1,,,,,,,,,,,,,
55b00063fdf99b5c0061941f,SCN,2024-06-24_14h43.50.698,LearnStrategy,2023.2.3,Win32,17.98561151,5,1,8,-0.209259259,0.262037037,1,0,0,3.1075,Diorite_06,3,06,5,3,3.107,-0.374074074,-0.260185185,1,0,0,2.8156,Andesite_rect,1,2.816,0,7,0,7,0,1,,,,,,,,,,,,,
55b00063fdf99b5c0061941f,SCN,2024-06-24_14h43.50.698,LearnStrategy,2023.2.3,Win32,17.98561151,5,1,9,0.230555556,-0.263888889,1,0,0,6.5593,Pegmatite_09,6,09,2,6,6.559,-0.096296296,-0.400925926,1,0,0,3.2552,Pegmatite_rect,6,3.255,1,8,0,8,0,1,,,,,,,,,,,,,
55b00063fdf99b5c0061941f,SCN,2024-06-24_14h43.50.698,LearnStrategy,2023.2.3,Win32,17.98561151,5,1,10,-0.055555556,-0.242592593,1,0,0,3.6604,Pumice_14,8,14,2,4,3.66,0.376851852,-0.397222222,1,0,0,1.3071,Pumice_rect,8,1.307,1,9,0,9,0,1,,,,,,,,,,,,,
55b00063fdf99b5c0061941f,SCN,2024-06-24_14h43.50.698,LearnStrategy,2023.2.3,Win32,17.98561151,5,1,11,-0.378703704,-0.113888889,1,0,0,5.3398,Andesite_06,1,06,3,2,5.34,-0.363888889,-0.24537037,1,0,0,7.0076,Andesite_rect,1,7.008,1,10,0,10,0,1,,,,,,,,,,,,,
55b00063fdf99b5c0061941f,SCN,2024-06-24_14h43.50.698,LearnStrategy,2023.2.3,Win32,17.98561151,5,1,12,0.062962963,-0.253703704,1,0,0,1.7652,Pumice_05,8,05,2,5,1.765,0.407407407,-0.400925926,1,0,0,0.963,Pumice_rect,8,0.963,1,11,0,11,0,1,,,,,,,,,,,,,
55b00063fdf99b5c0061941f,SCN,2024-06-24_14h43.50.698,LearnStrategy,2023.2.3,Win32,17.98561151,5,1,13,-0.065740741,-0.115740741,1,0,0,2.5682,Basalt_06,2,06,3,4,2.568,-0.148148148,-0.252777778,1,0,0,0.8063,Basalt_rect,2,0.806,1,12,0,12,0,1,,,,,,,,,,,,,
55b00063fdf99b5c0061941f,SCN,2024-06-24_14h43.50.698,LearnStrategy,2023.2.3,Win32,17.98561151,5,1,14,-0.388888889,0.274074074,1,0,0,1.3085,Obsidian_06,5,06,5,2,1.309,-0.376851852,-0.4,1,0,0,2.7346,Obsidian_rect,5,2.735,1,13,0,13,0,1,,,,,,,,,,,,,
55b00063fdf99b5c0061941f,SCN,2024-06-24_14h43.50.698,LearnStrategy,2023.2.3,Win32,17.98561151,5,1,15,0.255555556,0.103703704,1,0,0,1.461,Pumice_06,8,06,4,6,1.461,0.401851852,-0.407407407,1,0,0,4.3305,Pumice_rect,8,4.331,1,14,0,14,0,1,,,,,,,,,,,,,
55b00063fdf99b5c0061941f,SCN,2024-06-24_14h43.50.698,LearnStrategy,2023.2.3,Win32,17.98561151,5,1,16,0.39537037,0.084259259,1,0,0,3.0235,Obsidian_12,5,12,4,7,3.024,-0.369444444,-0.40462963,1,0,0,0.9672,Obsidian_rect,5,0.967,1,15,0,15,0,1,,,,,,,,,,,,,
55b00063fdf99b5c0061941f,SCN,2024-06-24_14h43.50.698,LearnStrategy,2023.2.3,Win32,17.98561151,5,2,1,,,,,,,,7,07,,,,,,,,,,,7,1.742,1,,,,,,0.102777778,-0.402777778,1,0,0,1.7416,Peridotite_rect,0,0,0,0,1,
55b00063fdf99b5c0061941f,SCN,2024-06-24_14h43.50.698,LearnStrategy,2023.2.3,Win32,17.98561151,5,2,2,,,,,,,,4,12,,,,,,,,,,,2,5.021,0,,,,,,-0.133333333,-0.256481481,1,0,0,5.0208,Basalt_rect,1,0,1,0,1,
55b00063fdf99b5c0061941f,SCN,2024-06-24_14h43.50.698,LearnStrategy,2023.2.3,Win32,17.98561151,5,2,3,,,,,,,,5,08,,,,,,,,,,,5,1.47,1,,,,,,-0.424074074,-0.410185185,1,0,0,1.4702,Obsidian_rect,2,0,2,0,1,
55b00063fdf99b5c0061941f,SCN,2024-06-24_14h43.50.698,LearnStrategy,2023.2.3,Win32,17.98561151,5,2,4,,,,,,,,3,11,,,,,,,,,,,3,2.304,1,,,,,,0.158333333,-0.260185185,1,0,0,2.3044,Diorite_rect,3,0,3,0,1,
55b00063fdf99b5c0061941f,SCN,2024-06-24_14h43.50.698,LearnStrategy,2023.2.3,Win32,17.98561151,5,2,5,,,,,,,,3,10,,,,,,,,,,,1,17.126,0,,,,,,-0.436111111,-0.235185185,1,0,0,17.1264,Andesite_rect,4,0,4,0,1,
55b00063fdf99b5c0061941f,SCN,2024-06-24_14h43.50.698,LearnStrategy,2023.2.3,Win32,17.98561151,5,2,6,,,,,,,,6,10,,,,,,,,,,,6,6.086,1,,,,,,-0.116666667,-0.399074074,1,0,0,6.0865,Pegmatite_rect,5,0,5,0,1,
55b00063fdf99b5c0061941f,SCN,2024-06-24_14h43.50.698,LearnStrategy,2023.2.3,Win32,17.98561151,5,2,7,,,,,,,,2,02,,,,,,,,,,,2,1.961,1,,,,,,-0.097222222,-0.234259259,1,0,0,1.9613,Basalt_rect,6,0,6,0,1,
55b00063fdf99b5c0061941f,SCN,2024-06-24_14h43.50.698,LearnStrategy,2023.2.3,Win32,17.98561151,5,2,8,,,,,,,,2,16,,,,,,,,,,,2,2.159,1,,,,,,-0.146296296,-0.24537037,1,0,0,2.1587,Basalt_rect,7,0,7,0,1,
55b00063fdf99b5c0061941f,SCN,2024-06-24_14h43.50.698,LearnStrategy,2023.2.3,Win32,17.98561151,5,2,9,,,,,,,,4,01,,,,,,,,,,,1,8.019,0,,,,,,-0.396296296,-0.248148148,1,0,0,8.0189,Andesite_rect,8,0,8,0,1,
55b00063fdf99b5c0061941f,SCN,2024-06-24_14h43.50.698,LearnStrategy,2023.2.3,Win32,17.98561151,5,2,10,,,,,,,,7,08,,,,,,,,,,,7,3.249,1,,,,,,0.155555556,-0.399074074,1,0,0,3.2486,Peridotite_rect,9,0,9,0,1,
55b00063fdf99b5c0061941f,SCN,2024-06-24_14h43.50.698,LearnStrategy,2023.2.3,Win32,17.98561151,5,2,11,,,,,,,,8,08,,,,,,,,,,,8,1.332,1,,,,,,0.415740741,-0.39537037,1,0,0,1.3316,Pumice_rect,10,0,10,0,1,
55b00063fdf99b5c0061941f,SCN,2024-06-24_14h43.50.698,LearnStrategy,2023.2.3,Win32,17.98561151,5,2,12,,,,,,,,1,14,,,,,,,,,,,1,3.838,1,,,,,,-0.349074074,-0.250925926,1,0,0,3.8381,Andesite_rect,11,0,11,0,1,
55b00063fdf99b5c0061941f,SCN,2024-06-24_14h43.50.698,LearnStrategy,2023.2.3,Win32,17.98561151,5,2,13,,,,,,,,8,02,,,,,,,,,,,8,1.487,1,,,,,,0.421296296,-0.401851852,1,0,0,1.4866,Pumice_rect,12,0,12,0,1,
55b00063fdf99b5c0061941f,SCN,2024-06-24_14h43.50.698,LearnStrategy,2023.2.3,Win32,17.98561151,5,2,14,,,,,,,,1,01,,,,,,,,,,,2,22.035,0,,,,,,-0.133333333,-0.256481481,1,0,0,22.0352,Basalt_rect,13,0,13,0,1,
55b00063fdf99b5c0061941f,SCN,2024-06-24_14h43.50.698,LearnStrategy,2023.2.3,Win32,17.98561151,5,2,15,,,,,,,,6,05,,,,,,,,,,,6,2.175,1,,,,,,-0.117592593,-0.392592593,1,0,0,2.1745,Pegmatite_rect,14,0,14,0,1,
55b00063fdf99b5c0061941f,SCN,2024-06-24_14h43.50.698,LearnStrategy,2023.2.3,Win32,17.98561151,5,2,16,,,,,,,,5,05,,,,,,,,,,,5,3.305,1,,,,,,-0.410185185,-0.37962963,1,0,0,3.3051,Obsidian_rect,15,0,15,0,1,
55b00063fdf99b5c0061941f,SCN,2024-06-24_14h43.50.698,LearnStrategy,2023.2.3,Win32,17.98561151,6,1,1,0.083333333,0.277777778,1,0,0,5.3843,Pegmatite_16,6,16,5,5,5.384,-0.140740741,-0.391666667,1,0,0,2.6538,Pegmatite_rect,6,2.654,1,0,0,0,0,1,,,,,,,,,,,,,
55b00063fdf99b5c0061941f,SCN,2024-06-24_14h43.50.698,LearnStrategy,2023.2.3,Win32,17.98561151,6,1,2,0.385185185,-0.257407407,1,0,0,2.0982,Diorite_12,3,12,2,7,2.098,-0.353703704,-0.243518519,1,0,0,2.8429,Andesite_rect,1,2.843,0,1,0,1,0,1,,,,,,,,,,,,,
55b00063fdf99b5c0061941f,SCN,2024-06-24_14h43.50.698,LearnStrategy,2023.2.3,Win32,17.98561151,6,1,3,0.37037037,-0.237037037,1,0,0,3.1006,Diorite_12,3,12,2,7,3.101,0.169444444,-0.251851852,1,0,0,1.995,Diorite_rect,3,1.995,1,2,0,2,0,1,,,,,,,,,,,,,
55b00063fdf99b5c0061941f,SCN,2024-06-24_14h43.50.698,LearnStrategy,2023.2.3,Win32,17.98561151,6,1,4,-0.247222222,0.428703704,1,0,0,1.1387,Diorite_14,3,14,6,3,1.139,0.125,-0.248148148,1,0,0,2.1356,Diorite_rect,3,2.136,1,3,0,3,0,1,,,,,,,,,,,,,
55b00063fdf99b5c0061941f,SCN,2024-06-24_14h43.50.698,LearnStrategy,2023.2.3,Win32,17.98561151,6,1,5,0.07962963,0.428703704,1,0,0,2.0957,Gabbro_10,4,10,6,5,2.096,0.369444444,-0.251851852,1,0,0,1.955,Gabbro_rect,4,1.955,1,4,0,4,0,1,,,,,,,,,,,,,
55b00063fdf99b5c0061941f,SCN,2024-06-24_14h43.50.698,LearnStrategy,2023.2.3,Win32,17.98561151,6,1,6,0.562037037,0.07962963,1,0,0,2.5739,Peridotite_14,7,14,4,8,2.574,-0.405555556,-0.259259259,1,0,0,5.4347,Andesite_rect,1,5.435,0,5,0,5,0,1,,,,,,,,,,,,,
55b00063fdf99b5c0061941f,SCN,2024-06-24_14h43.50.698,LearnStrategy,2023.2.3,Win32,17.98561151,6,1,7,-0.233333333,-0.244444444,1,0,0,3.1419,Gabbro_03,4,03,2,3,3.142,-0.373148148,-0.231481481,1,0,0,4.1218,Andesite_rect,1,4.122,0,6,0,6,0,1,,,,,,,,,,,,,
55b00063fdf99b5c0061941f,SCN,2024-06-24_14h43.50.698,LearnStrategy,2023.2.3,Win32,17.98561151,6,1,8,-0.237962963,-0.266666667,1,0,0,1.6008,Gabbro_03,4,03,2,3,1.601,0.425,-0.240740741,1,0,0,1.1048,Gabbro_rect,4,1.105,1,7,0,7,0,1,,,,,,,,,,,,,
55b00063fdf99b5c0061941f,SCN,2024-06-24_14h43.50.698,LearnStrategy,2023.2.3,Win32,17.98561151,6,1,9,-0.225925926,-0.109259259,1,0,0,1.9084,Andesite_05,1,05,3,3,1.908,-0.364814815,-0.25,1,0,0,2.3763,Andesite_rect,1,2.376,1,8,0,8,0,1,,,,,,,,,,,,,
55b00063fdf99b5c0061941f,SCN,2024-06-24_14h43.50.698,LearnStrategy,2023.2.3,Win32,17.98561151,6,1,10,-0.410185185,-0.093518519,1,0,0,1.1138,Andesite_06,1,06,3,2,1.114,-0.406481481,-0.237962963,1,0,0,1.288,Andesite_rect,1,1.288,1,9,0,9,0,1,,,,,,,,,,,,,
55b00063fdf99b5c0061941f,SCN,2024-06-24_14h43.50.698,LearnStrategy,2023.2.3,Win32,17.98561151,6,1,11,-0.408333333,-0.388888889,1,0,0,2.4761,Pegmatite_12,6,12,1,2,2.476,-0.132407407,-0.386111111,1,0,0,1.1698,Pegmatite_rect,6,1.17,1,10,0,10,0,1,,,,,,,,,,,,,
55b00063fdf99b5c0061941f,SCN,2024-06-24_14h43.50.698,LearnStrategy,2023.2.3,Win32,17.98561151,6,1,12,-0.537962963,-0.097222222,1,0,0,1.1334,Peridotite_05,7,05,3,1,1.133,0.166666667,-0.396296296,1,0,0,1.6244,Peridotite_rect,7,1.624,1,11,0,11,0,1,,,,,,,,,,,,,
55b00063fdf99b5c0061941f,SCN,2024-06-24_14h43.50.698,LearnStrategy,2023.2.3,Win32,17.98561151,6,1,13,0.575,-0.07962963,1,0,0,2.4585,Andesite_11,1,11,3,8,2.458,-0.392592593,-0.236111111,1,0,0,1.6683,Andesite_rect,1,1.668,1,12,0,12,0,1,,,,,,,,,,,,,
55b00063fdf99b5c0061941f,SCN,2024-06-24_14h43.50.698,LearnStrategy,2023.2.3,Win32,17.98561151,6,1,14,0.552777778,0.237037037,1,0,0,2.9218,Gabbro_08,4,08,5,8,2.922,0.406481481,-0.260185185,1,0,0,2.6294,Gabbro_rect,4,2.629,1,13,0,13,0,1,,,,,,,,,,,,,
55b00063fdf99b5c0061941f,SCN,2024-06-24_14h43.50.698,LearnStrategy,2023.2.3,Win32,17.98561151,6,1,15,-0.22962963,-0.412962963,1,0,0,3.093,Pumice_16,8,16,1,3,3.093,0.435185185,-0.412037037,1,0,0,1.1262,Pumice_rect,8,1.126,1,14,0,14,0,1,,,,,,,,,,,,,
55b00063fdf99b5c0061941f,SCN,2024-06-24_14h43.50.698,LearnStrategy,2023.2.3,Win32,17.98561151,6,1,16,-0.551851852,-0.237037037,1,0,0,2.4168,Basalt_09,2,09,2,1,2.417,-0.151851852,-0.256481481,1,0,0,1.1476,Basalt_rect,2,1.148,1,15,0,15,0,1,,,,,,,,,,,,,
55b00063fdf99b5c0061941f,SCN,2024-06-24_14h43.50.698,LearnStrategy,2023.2.3,Win32,17.98561151,6,2,1,,,,,,,,4,13,,,,,,,,,,,1,23.241,0,,,,,,-0.398148148,-0.260185185,1,0,0,23.241,Andesite_rect,0,0,0,0,1,
55b00063fdf99b5c0061941f,SCN,2024-06-24_14h43.50.698,LearnStrategy,2023.2.3,Win32,17.98561151,6,2,2,,,,,,,,8,15,,,,,,,,,,,8,1.943,1,,,,,,0.392592593,-0.394444444,1,0,0,1.9432,Pumice_rect,1,0,1,0,1,
55b00063fdf99b5c0061941f,SCN,2024-06-24_14h43.50.698,LearnStrategy,2023.2.3,Win32,17.98561151,6,2,3,,,,,,,,3,07,,,,,,,,,,,3,1.683,1,,,,,,0.128703704,-0.257407407,1,0,0,1.6835,Diorite_rect,2,0,2,0,1,
55b00063fdf99b5c0061941f,SCN,2024-06-24_14h43.50.698,LearnStrategy,2023.2.3,Win32,17.98561151,6,2,4,,,,,,,,3,02,,,,,,,,,,,3,1.958,1,,,,,,0.122222222,-0.251851852,1,0,0,1.9577,Diorite_rect,3,0,3,0,1,
55b00063fdf99b5c0061941f,SCN,2024-06-24_14h43.50.698,LearnStrategy,2023.2.3,Win32,17.98561151,6,2,5,,,,,,,,2,01,,,,,,,,,,,2,1.763,1,,,,,,-0.105555556,-0.265740741,1,0,0,1.7631,Basalt_rect,4,0,4,0,1,
55b00063fdf99b5c0061941f,SCN,2024-06-24_14h43.50.698,LearnStrategy,2023.2.3,Win32,17.98561151,6,2,6,,,,,,,,2,05,,,,,,,,,,,2,1.442,1,,,,,,-0.084259259,-0.24537037,1,0,0,1.442,Basalt_rect,5,0,5,0,1,
55b00063fdf99b5c0061941f,SCN,2024-06-24_14h43.50.698,LearnStrategy,2023.2.3,Win32,17.98561151,6,2,7,,,,,,,,7,16,,,,,,,,,,,7,3.068,1,,,,,,0.121296296,-0.401851852,1,0,0,3.0682,Peridotite_rect,6,0,6,0,1,
55b00063fdf99b5c0061941f,SCN,2024-06-24_14h43.50.698,LearnStrategy,2023.2.3,Win32,17.98561151,6,2,8,,,,,,,,1,09,,,,,,,,,,,1,2.338,1,,,,,,-0.391666667,-0.232407407,1,0,0,2.3379,Andesite_rect,7,0,7,0,1,
55b00063fdf99b5c0061941f,SCN,2024-06-24_14h43.50.698,LearnStrategy,2023.2.3,Win32,17.98561151,6,2,9,,,,,,,,8,10,,,,,,,,,,,8,2.265,1,,,,,,0.407407407,-0.410185185,1,0,0,2.265,Pumice_rect,8,0,8,0,1,
55b00063fdf99b5c0061941f,SCN,2024-06-24_14h43.50.698,LearnStrategy,2023.2.3,Win32,17.98561151,6,2,10,,,,,,,,7,13,,,,,,,,,,,7,2.426,1,,,,,,0.112037037,-0.400925926,1,0,0,2.4259,Peridotite_rect,9,0,9,0,1,
55b00063fdf99b5c0061941f,SCN,2024-06-24_14h43.50.698,LearnStrategy,2023.2.3,Win32,17.98561151,6,2,11,,,,,,,,5,14,,,,,,,,,,,5,1.948,1,,,,,,-0.365740741,-0.412037037,1,0,0,1.9485,Obsidian_rect,10,0,10,0,1,
55b00063fdf99b5c0061941f,SCN,2024-06-24_14h43.50.698,LearnStrategy,2023.2.3,Win32,17.98561151,6,2,12,,,,,,,,1,02,,,,,,,,,,,1,3.039,1,,,,,,-0.348148148,-0.250925926,1,0,0,3.0395,Andesite_rect,11,0,11,0,1,
55b00063fdf99b5c0061941f,SCN,2024-06-24_14h43.50.698,LearnStrategy,2023.2.3,Win32,17.98561151,6,2,13,,,,,,,,6,06,,,,,,,,,,,6,1.712,1,,,,,,-0.140740741,-0.407407407,1,0,0,1.7119,Pegmatite_rect,12,0,12,0,1,
55b00063fdf99b5c0061941f,SCN,2024-06-24_14h43.50.698,LearnStrategy,2023.2.3,Win32,17.98561151,6,2,14,,,,,,,,5,10,,,,,,,,,,,5,2.183,1,,,,,,-0.390740741,-0.407407407,1,0,0,2.1827,Obsidian_rect,13,0,13,0,1,
55b00063fdf99b5c0061941f,SCN,2024-06-24_14h43.50.698,LearnStrategy,2023.2.3,Win32,17.98561151,6,2,15,,,,,,,,4,09,,,,,,,,,,,4,2.126,1,,,,,,0.408333333,-0.235185185,1,0,0,2.1261,Gabbro_rect,14,0,14,0,1,
55b00063fdf99b5c0061941f,SCN,2024-06-24_14h43.50.698,LearnStrategy,2023.2.3,Win32,17.98561151,6,2,16,,,,,,,,6,15,,,,,,,,,,,6,3.011,1,,,,,,-0.109259259,-0.390740741,1,0,0,3.0112,Pegmatite_rect,15,0,15,0,1,
55b00063fdf99b5c0061941f,SCN,2024-06-24_14h43.50.698,LearnStrategy,2023.2.3,Win32,17.98561151,7,1,1,-0.205555556,-0.090740741,1,0,0,2.3992,Andesite_05,1,05,3,3,2.399,-0.34537037,-0.235185185,1,0,0,1.1875,Andesite_rect,1,1.188,1,0,0,0,0,1,,,,,,,,,,,,,
55b00063fdf99b5c0061941f,SCN,2024-06-24_14h43.50.698,LearnStrategy,2023.2.3,Win32,17.98561151,7,1,2,0.1,0.417592593,1,0,0,1.4509,Gabbro_10,4,10,6,5,1.451,0.401851852,-0.241666667,1,0,0,3.5837,Gabbro_rect,4,3.584,1,1,0,1,0,1,,,,,,,,,,,,,
55b00063fdf99b5c0061941f,SCN,2024-06-24_14h43.50.698,LearnStrategy,2023.2.3,Win32,17.98561151,7,1,3,0.40462963,0.415740741,1,0,0,1.9126,Peridotite_06,7,06,6,7,1.913,0.175925926,-0.396296296,1,0,0,1.2946,Peridotite_rect,7,1.295,1,2,0,2,0,1,,,,,,,,,,,,,
55b00063fdf99b5c0061941f,SCN,2024-06-24_14h43.50.698,LearnStrategy,2023.2.3,Win32,17.98561151,7,1,4,-0.240740741,0.257407407,1,0,0,1.7623,Diorite_06,3,06,5,3,1.762,0.102777778,-0.246296296,1,0,0,5.3584,Diorite_rect,3,5.358,1,3,0,3,0,1,,,,,,,,,,,,,
55b00063fdf99b5c0061941f,SCN,2024-06-24_14h43.50.698,LearnStrategy,2023.2.3,Win32,17.98561151,7,1,5,0.266666667,0.397222222,1,0,0,22.4111,Andesite_07,1,07,6,6,22.411,-0.40462963,-0.240740741,1,0,0,21.5086,Andesite_rect,1,21.509,1,4,0,4,0,1,,,,,,,,,,,,,
55b00063fdf99b5c0061941f,SCN,2024-06-24_14h43.50.698,LearnStrategy,2023.2.3,Win32,17.98561151,7,1,6,0.086111111,-0.098148148,1,0,0,9.054,Diorite_13,3,13,3,5,9.054,-0.375,-0.238888889,1,0,0,10.2306,Andesite_rect,1,10.231,0,5,0,5,0,1,,,,,,,,,,,,,
55b00063fdf99b5c0061941f,SCN,2024-06-24_14h43.50.698,LearnStrategy,2023.2.3,Win32,17.98561151,7,1,7,-0.225,0.110185185,1,0,0,1.4527,Peridotite_04,7,04,4,3,1.453,0.101851852,-0.402777778,1,0,0,1.9433,Peridotite_rect,7,1.943,1,6,0,6,0,1,,,,,,,,,,,,,
55b00063fdf99b5c0061941f,SCN,2024-06-24_14h43.50.698,LearnStrategy,2023.2.3,Win32,17.98561151,7,1,8,-0.232407407,-0.25,1,0,0,1.6377,Gabbro_03,4,03,2,3,1.638,0.42037037,-0.228703704,1,0,0,1.5881,Gabbro_rect,4,1.588,1,7,0,7,0,1,,,,,,,,,,,,,
55b00063fdf99b5c0061941f,SCN,2024-06-24_14h43.50.698,LearnStrategy,2023.2.3,Win32,17.98561151,7,1,9,-0.064814815,-0.412037037,1,0,0,3.2301,Gabbro_16,4,16,1,4,3.23,-0.090740741,-0.233333333,1,0,0,2.5926,Basalt_rect,2,2.593,0,8,0,8,0,1,,,,,,,,,,,,,
55b00063fdf99b5c0061941f,SCN,2024-06-24_14h43.50.698,LearnStrategy,2023.2.3,Win32,17.98561151,7,1,10,-0.064814815,0.097222222,1,0,0,1.1321,Basalt_14,2,14,4,4,1.132,-0.143518519,-0.248148148,1,0,0,1.3029,Basalt_rect,2,1.303,1,9,0,9,0,1,,,,,,,,,,,,,
55b00063fdf99b5c0061941f,SCN,2024-06-24_14h43.50.698,LearnStrategy,2023.2.3,Win32,17.98561151,7,1,11,0.082407407,-0.397222222,1,0,0,2.8965,Andesite_03,1,03,1,5,2.897,-0.373148148,-0.241666667,1,0,0,1.9679,Andesite_rect,1,1.968,1,10,0,10,0,1,,,,,,,,,,,,,
55b00063fdf99b5c0061941f,SCN,2024-06-24_14h43.50.698,LearnStrategy,2023.2.3,Win32,17.98561151,7,1,12,0.246296296,-0.42037037,1,0,0,1.9247,Basalt_12,2,12,1,6,1.925,0.428703704,-0.414814815,1,0,0,1.8054,Pumice_rect,8,1.805,0,11,0,11,0,1,,,,,,,,,,,,,
55b00063fdf99b5c0061941f,SCN,2024-06-24_14h43.50.698,LearnStrategy,2023.2.3,Win32,17.98561151,7,1,13,0.078703704,-0.4,1,0,0,1.4568,Andesite_03,1,03,1,5,1.457,-0.339814815,-0.248148148,1,0,0,1.3247,Andesite_rect,1,1.325,1,12,0,12,0,1,,,,,,,,,,,,,
55b00063fdf99b5c0061941f,SCN,2024-06-24_14h43.50.698,LearnStrategy,2023.2.3,Win32,17.98561151,7,1,14,0.569444444,0.396296296,1,0,0,2.2744,Andesite_16,1,16,6,8,2.274,-0.374074074,-0.241666667,1,0,0,3.9186,Andesite_rect,1,3.919,1,13,0,13,0,1,,,,,,,,,,,,,
55b00063fdf99b5c0061941f,SCN,2024-06-24_14h43.50.698,LearnStrategy,2023.2.3,Win32,17.98561151,7,1,15,-0.4,0.087037037,1,0,0,2.8786,Basalt_11,2,11,4,2,2.879,0.425,-0.24537037,1,0,0,1.8174,Gabbro_rect,4,1.817,0,14,0,14,0,1,,,,,,,,,,,,,
55b00063fdf99b5c0061941f,SCN,2024-06-24_14h43.50.698,LearnStrategy,2023.2.3,Win32,17.98561151,7,1,16,-0.528703704,0.112962963,1,0,0,2.2254,Peridotite_10,7,10,4,1,2.225,0.133333333,-0.418518519,1,0,0,1.4868,Peridotite_rect,7,1.487,1,15,0,15,0,1,,,,,,,,,,,,,
55b00063fdf99b5c0061941f,SCN,2024-06-24_14h43.50.698,LearnStrategy,2023.2.3,Win32,17.98561151,7,2,1,,,,,,,,8,08,,,,,,,,,,,8,4.282,1,,,,,,0.419444444,-0.399074074,1,0,0,4.2821,Pumice_rect,0,0,0,0,1,
55b00063fdf99b5c0061941f,SCN,2024-06-24_14h43.50.698,LearnStrategy,2023.2.3,Win32,17.98561151,7,2,2,,,,,,,,5,10,,,,,,,,,,,5,1.834,1,,,,,,-0.40462963,-0.409259259,1,0,0,1.8343,Obsidian_rect,1,0,1,0,1,
55b00063fdf99b5c0061941f,SCN,2024-06-24_14h43.50.698,LearnStrategy,2023.2.3,Win32,17.98561151,7,2,3,,,,,,,,3,10,,,,,,,,,,,1,4.023,0,,,,,,-0.334259259,-0.239814815,1,0,0,4.0225,Andesite_rect,2,0,2,0,1,
55b00063fdf99b5c0061941f,SCN,2024-06-24_14h43.50.698,LearnStrategy,2023.2.3,Win32,17.98561151,7,2,4,,,,,,,,7,16,,,,,,,,,,,7,2.321,1,,,,,,0.1,-0.388888889,1,0,0,2.3206,Peridotite_rect,3,0,3,0,1,
55b00063fdf99b5c0061941f,SCN,2024-06-24_14h43.50.698,LearnStrategy,2023.2.3,Win32,17.98561151,7,2,5,,,,,,,,1,04,,,,,,,,,,,3,14.715,0,,,,,,0.093518519,-0.231481481,1,0,0,14.7148,Diorite_rect,4,0,4,0,1,
55b00063fdf99b5c0061941f,SCN,2024-06-24_14h43.50.698,LearnStrategy,2023.2.3,Win32,17.98561151,7,2,6,,,,,,,,5,05,,,,,,,,,,,5,2.818,1,,,,,,-0.387037037,-0.406481481,1,0,0,2.8176,Obsidian_rect,5,0,5,0,1,
55b00063fdf99b5c0061941f,SCN,2024-06-24_14h43.50.698,LearnStrategy,2023.2.3,Win32,17.98561151,7,2,7,,,,,,,,8,09,,,,,,,,,,,8,2.956,1,,,,,,0.390740741,-0.410185185,1,0,0,2.9562,Pumice_rect,6,0,6,0,1,
55b00063fdf99b5c0061941f,SCN,2024-06-24_14h43.50.698,LearnStrategy,2023.2.3,Win32,17.98561151,7,2,8,,,,,,,,1,14,,,,,,,,,,,1,3.858,1,,,,,,-0.375925926,-0.25,1,0,0,3.8584,Andesite_rect,7,0,7,0,1,
55b00063fdf99b5c0061941f,SCN,2024-06-24_14h43.50.698,LearnStrategy,2023.2.3,Win32,17.98561151,7,2,9,,,,,,,,7,15,,,,,,,,,,,7,4.129,1,,,,,,0.157407407,-0.390740741,1,0,0,4.1287,Peridotite_rect,8,0,8,0,1,
55b00063fdf99b5c0061941f,SCN,2024-06-24_14h43.50.698,LearnStrategy,2023.2.3,Win32,17.98561151,7,2,10,,,,,,,,6,11,,,,,,,,,,,6,3.059,1,,,,,,-0.125925926,-0.40462963,1,0,0,3.0587,Pegmatite_rect,9,0,9,0,1,
55b00063fdf99b5c0061941f,SCN,2024-06-24_14h43.50.698,LearnStrategy,2023.2.3,Win32,17.98561151,7,2,11,,,,,,,,4,12,,,,,,,,,,,4,2.603,1,,,,,,0.428703704,-0.268518519,1,0,0,2.6031,Gabbro_rect,10,0,10,0,1,
55b00063fdf99b5c0061941f,SCN,2024-06-24_14h43.50.698,LearnStrategy,2023.2.3,Win32,17.98561151,7,2,12,,,,,,,,3,08,,,,,,,,,,,3,2.13,1,,,,,,0.119444444,-0.250925926,1,0,0,2.1299,Diorite_rect,11,0,11,0,1,
55b00063fdf99b5c0061941f,SCN,2024-06-24_14h43.50.698,LearnStrategy,2023.2.3,Win32,17.98561151,7,2,13,,,,,,,,2,01,,,,,,,,,,,2,1.759,1,,,,,,-0.108333333,-0.267592593,1,0,0,1.7587,Basalt_rect,12,0,12,0,1,
55b00063fdf99b5c0061941f,SCN,2024-06-24_14h43.50.698,LearnStrategy,2023.2.3,Win32,17.98561151,7,2,14,,,,,,,,6,06,,,,,,,,,,,6,3.536,1,,,,,,-0.12962963,-0.419444444,1,0,0,3.5359,Pegmatite_rect,13,0,13,0,1,
55b00063fdf99b5c0061941f,SCN,2024-06-24_14h43.50.698,LearnStrategy,2023.2.3,Win32,17.98561151,7,2,15,,,,,,,,4,15,,,,,,,,,,,3,5.595,0,,,,,,0.110185185,-0.25462963,1,0,0,5.5955,Diorite_rect,14,0,14,0,1,
55b00063fdf99b5c0061941f,SCN,2024-06-24_14h43.50.698,LearnStrategy,2023.2.3,Win32,17.98561151,7,2,16,,,,,,,,2,04,,,,,,,,,,,2,1.629,1,,,,,,-0.112962963,-0.259259259,1,0,0,1.629,Basalt_rect,15,0,15,0,1,
55b00063fdf99b5c0061941f,SCN,2024-06-24_14h43.50.698,LearnStrategy,2023.2.3,Win32,17.98561151,8,1,1,0.075925926,-0.096296296,1,0,0,2.9022,Diorite_13,3,13,3,5,2.902,0.110185185,-0.237962963,1,0,0,1.9242,Diorite_rect,3,1.924,1,0,0,0,0,1,,,,,,,,,,,,,
55b00063fdf99b5c0061941f,SCN,2024-06-24_14h43.50.698,LearnStrategy,2023.2.3,Win32,17.98561151,8,1,2,-0.248148148,0.25462963,1,0,0,1.8889,Diorite_06,3,06,5,3,1.889,-0.386111111,-0.249074074,1,0,0,3.4609,Andesite_rect,1,3.461,0,1,0,1,0,1,,,,,,,,,,,,,
55b00063fdf99b5c0061941f,SCN,2024-06-24_14h43.50.698,LearnStrategy,2023.2.3,Win32,17.98561151,8,1,3,-0.225925926,0.275925926,1,0,0,17.297,Diorite_06,3,06,5,3,17.297,0.087962963,-0.241666667,1,0,0,1.7849,Diorite_rect,3,1.785,1,2,0,2,0,1,,,,,,,,,,,,,
55b00063fdf99b5c0061941f,SCN,2024-06-24_14h43.50.698,LearnStrategy,2023.2.3,Win32,17.98561151,8,1,4,0.222222222,0.398148148,1,0,0,2.0877,Andesite_07,1,07,6,6,2.088,0.155555556,-0.271296296,1,0,0,5.7087,Diorite_rect,3,5.709,0,3,0,3,0,1,,,,,,,,,,,,,
55b00063fdf99b5c0061941f,SCN,2024-06-24_14h43.50.698,LearnStrategy,2023.2.3,Win32,17.98561151,8,1,5,0.241666667,0.396296296,1,0,0,2.5607,Andesite_07,1,07,6,6,2.561,-0.42037037,-0.244444444,1,0,0,1.1628,Andesite_rect,1,1.163,1,4,0,4,0,1,,,,,,,,,,,,,
55b00063fdf99b5c0061941f,SCN,2024-06-24_14h43.50.698,LearnStrategy,2023.2.3,Win32,17.98561151,8,1,6,-0.249074074,0.427777778,1,0,0,2.3997,Diorite_14,3,14,6,3,2.4,0.151851852,-0.263888889,1,0,0,1.9677,Diorite_rect,3,1.968,1,5,0,5,0,1,,,,,,,,,,,,,
55b00063fdf99b5c0061941f,SCN,2024-06-24_14h43.50.698,LearnStrategy,2023.2.3,Win32,17.98561151,8,1,7,0.537037037,0.091666667,1,0,0,1.4571,Peridotite_14,7,14,4,8,1.457,0.137037037,-0.397222222,1,0,0,1.9892,Peridotite_rect,7,1.989,1,6,0,6,0,1,,,,,,,,,,,,,
55b00063fdf99b5c0061941f,SCN,2024-06-24_14h43.50.698,LearnStrategy,2023.2.3,Win32,17.98561151,8,1,8,0.225925926,-0.251851852,1,0,0,2.0984,Pegmatite_09,6,09,2,6,2.098,-0.155555556,-0.409259259,1,0,0,1.6991,Pegmatite_rect,6,1.699,1,7,0,7,0,1,,,,,,,,,,,,,
55b00063fdf99b5c0061941f,SCN,2024-06-24_14h43.50.698,LearnStrategy,2023.2.3,Win32,17.98561151,8,1,9,0.275,0.405555556,1,0,0,7.593,Andesite_07,1,07,6,6,7.593,-0.400925926,-0.233333333,1,0,0,1.1406,Andesite_rect,1,1.141,1,8,0,8,0,1,,,,,,,,,,,,,
55b00063fdf99b5c0061941f,SCN,2024-06-24_14h43.50.698,LearnStrategy,2023.2.3,Win32,17.98561151,8,1,10,-0.535185185,-0.07037037,1,0,0,1.7921,Peridotite_05,7,05,3,1,1.792,0.131481481,-0.382407407,1,0,0,1.4457,Peridotite_rect,7,1.446,1,9,0,9,0,1,,,,,,,,,,,,,
55b00063fdf99b5c0061941f,SCN,2024-06-24_14h43.50.698,LearnStrategy,2023.2.3,Win32,17.98561151,8,1,11,-0.228703704,-0.409259259,1,0,0,2.5523,Pumice_16,8,16,1,3,2.552,0.356481481,-0.384259259,1,0,0,1.2971,Pumice_rect,8,1.297,1,10,0,10,0,1,,,,,,,,,,,,,
55b00063fdf99b5c0061941f,SCN,2024-06-24_14h43.50.698,LearnStrategy,2023.2.3,Win32,17.98561151,8,1,12,0.583333333,-0.24537037,1,0,0,1.1265,Gabbro_05,4,05,2,8,1.127,0.392592593,-0.233333333,1,0,0,1.481,Gabbro_rect,4,1.481,1,11,0,11,0,1,,,,,,,,,,,,,
55b00063fdf99b5c0061941f,SCN,2024-06-24_14h43.50.698,LearnStrategy,2023.2.3,Win32,17.98561151,8,1,13,-0.562962963,-0.24537037,1,0,0,1.6156,Basalt_09,2,09,2,1,1.616,-0.143518519,-0.261111111,1,0,0,0.9867,Basalt_rect,2,0.987,1,12,0,12,0,1,,,,,,,,,,,,,
55b00063fdf99b5c0061941f,SCN,2024-06-24_14h43.50.698,LearnStrategy,2023.2.3,Win32,17.98561151,8,1,14,-0.530555556,-0.07962963,1,0,0,1.4589,Peridotite_05,7,05,3,1,1.459,0.135185185,-0.418518519,1,0,0,1.4672,Peridotite_rect,7,1.467,1,13,0,13,0,1,,,,,,,,,,,,,
55b00063fdf99b5c0061941f,SCN,2024-06-24_14h43.50.698,LearnStrategy,2023.2.3,Win32,17.98561151,8,1,15,-0.526851852,0.272222222,1,0,0,2.7436,Peridotite_02,7,02,5,1,2.744,0.128703704,-0.390740741,1,0,0,1.5057,Peridotite_rect,7,1.506,1,14,0,14,0,1,,,,,,,,,,,,,
55b00063fdf99b5c0061941f,SCN,2024-06-24_14h43.50.698,LearnStrategy,2023.2.3,Win32,17.98561151,8,1,16,-0.07962963,0.406481481,1,0,0,1.4398,Obsidian_07,5,07,6,4,1.44,-0.408333333,-0.408333333,1,0,0,1.0189,Obsidian_rect,5,1.019,1,15,0,15,0,1,,,,,,,,,,,,,
55b00063fdf99b5c0061941f,SCN,2024-06-24_14h43.50.698,LearnStrategy,2023.2.3,Win32,17.98561151,8,2,1,,,,,,,,6,05,,,,,,,,,,,6,2.136,1,,,,,,-0.121296296,-0.406481481,1,0,0,2.136,Pegmatite_rect,0,0,0,0,1,
55b00063fdf99b5c0061941f,SCN,2024-06-24_14h43.50.698,LearnStrategy,2023.2.3,Win32,17.98561151,8,2,2,,,,,,,,1,10,,,,,,,,,,,4,2.615,0,,,,,,0.434259259,-0.241666667,1,0,0,2.6149,Gabbro_rect,1,0,1,0,1,
55b00063fdf99b5c0061941f,SCN,2024-06-24_14h43.50.698,LearnStrategy,2023.2.3,Win32,17.98561151,8,2,3,,,,,,,,7,13,,,,,,,,,,,7,1.947,1,,,,,,0.177777778,-0.402777778,1,0,0,1.947,Peridotite_rect,2,0,2,0,1,
55b00063fdf99b5c0061941f,SCN,2024-06-24_14h43.50.698,LearnStrategy,2023.2.3,Win32,17.98561151,8,2,4,,,,,,,,6,10,,,,,,,,,,,6,2.286,1,,,,,,-0.127777778,-0.396296296,1,0,0,2.286,Pegmatite_rect,3,0,3,0,1,
55b00063fdf99b5c0061941f,SCN,2024-06-24_14h43.50.698,LearnStrategy,2023.2.3,Win32,17.98561151,8,2,5,,,,,,,,3,02,,,,,,,,,,,3,4.291,1,,,,,,0.094444444,-0.248148148,1,0,0,4.2913,Diorite_rect,4,0,4,0,1,
55b00063fdf99b5c0061941f,SCN,2024-06-24_14h43.50.698,LearnStrategy,2023.2.3,Win32,17.98561151,8,2,6,,,,,,,,4,01,,,,,,,,,,,1,3.197,0,,,,,,-0.406481481,-0.247222222,1,0,0,3.1975,Andesite_rect,5,0,5,0,1,
55b00063fdf99b5c0061941f,SCN,2024-06-24_14h43.50.698,LearnStrategy,2023.2.3,Win32,17.98561151,8,2,7,,,,,,,,5,11,,,,,,,,,,,5,1.669,1,,,,,,-0.457407407,-0.418518519,1,0,0,1.6695,Obsidian_rect,6,0,6,0,1,
55b00063fdf99b5c0061941f,SCN,2024-06-24_14h43.50.698,LearnStrategy,2023.2.3,Win32,17.98561151,8,2,8,,,,,,,,3,09,,,,,,,,,,,3,3.543,1,,,,,,0.135185185,-0.264814815,1,0,0,3.5427,Diorite_rect,7,0,7,0,1,
55b00063fdf99b5c0061941f,SCN,2024-06-24_14h43.50.698,LearnStrategy,2023.2.3,Win32,17.98561151,8,2,9,,,,,,,,2,05,,,,,,,,,,,2,1.94,1,,,,,,-0.115740741,-0.252777778,1,0,0,1.9401,Basalt_rect,8,0,8,0,1,
55b00063fdf99b5c0061941f,SCN,2024-06-24_14h43.50.698,LearnStrategy,2023.2.3,Win32,17.98561151,8,2,10,,,,,,,,5,14,,,,,,,,,,,5,1.779,1,,,,,,-0.408333333,-0.4,1,0,0,1.7785,Obsidian_rect,9,0,9,0,1,
55b00063fdf99b5c0061941f,SCN,2024-06-24_14h43.50.698,LearnStrategy,2023.2.3,Win32,17.98561151,8,2,11,,,,,,,,1,02,,,,,,,,,,,1,1.971,1,,,,,,-0.390740741,-0.237962963,1,0,0,1.9709,Andesite_rect,10,0,10,0,1,
55b00063fdf99b5c0061941f,SCN,2024-06-24_14h43.50.698,LearnStrategy,2023.2.3,Win32,17.98561151,8,2,12,,,,,,,,2,02,,,,,,,,,,,2,1.811,1,,,,,,-0.135185185,-0.266666667,1,0,0,1.8114,Basalt_rect,11,0,11,0,1,
55b00063fdf99b5c0061941f,SCN,2024-06-24_14h43.50.698,LearnStrategy,2023.2.3,Win32,17.98561151,8,2,13,,,,,,,,8,13,,,,,,,,,,,8,2.405,1,,,,,,0.418518519,-0.416666667,1,0,0,2.4053,Pumice_rect,12,0,12,0,1,
55b00063fdf99b5c0061941f,SCN,2024-06-24_14h43.50.698,LearnStrategy,2023.2.3,Win32,17.98561151,8,2,14,,,,,,,,4,11,,,,,,,,,,,4,1.636,1,,,,,,0.387962963,-0.262037037,1,0,0,1.6358,Gabbro_rect,13,0,13,0,1,
55b00063fdf99b5c0061941f,SCN,2024-06-24_14h43.50.698,LearnStrategy,2023.2.3,Win32,17.98561151,8,2,15,,,,,,,,7,07,,,,,,,,,,,7,2.048,1,,,,,,0.130555556,-0.399074074,1,0,0,2.0484,Peridotite_rect,14,0,14,0,1,
55b00063fdf99b5c0061941f,SCN,2024-06-24_14h43.50.698,LearnStrategy,2023.2.3,Win32,17.98561151,8,2,16,,,,,,,,8,02,,,,,,,,,,,8,1.784,1,,,,,,0.389814815,-0.400925926,1,0,0,1.7843,Pumice_rect,15,0,15,0,1,
55b00063fdf99b5c0061941f,SCN,2024-06-24_14h43.50.698,LearnStrategy,2023.2.3,Win32,17.98561151,9,1,1,0.060185185,0.088888889,1,0,0,1.4281,Pegmatite_07,6,07,4,5,1.428,-0.119444444,-0.389814815,1,0,0,1.7612,Pegmatite_rect,6,1.761,1,0,0,0,0,1,,,,,,,,,,,,,
55b00063fdf99b5c0061941f,SCN,2024-06-24_14h43.50.698,LearnStrategy,2023.2.3,Win32,17.98561151,9,1,2,-0.366666667,-0.259259259,1,0,0,1.4607,Diorite_16,3,16,2,2,1.461,-0.37037037,-0.234259259,1,0,0,1.7727,Andesite_rect,1,1.773,0,1,0,1,0,1,,,,,,,,,,,,,
55b00063fdf99b5c0061941f,SCN,2024-06-24_14h43.50.698,LearnStrategy,2023.2.3,Win32,17.98561151,9,1,3,-0.218518519,-0.250925926,1,0,0,1.6087,Gabbro_03,4,03,2,3,1.609,0.359259259,-0.238888889,1,0,0,2.3808,Gabbro_rect,4,2.381,1,2,0,2,0,1,,,,,,,,,,,,,
55b00063fdf99b5c0061941f,SCN,2024-06-24_14h43.50.698,LearnStrategy,2023.2.3,Win32,17.98561151,9,1,4,-0.384259259,-0.084259259,1,0,0,2.8854,Andesite_06,1,06,3,2,2.885,-0.365740741,-0.240740741,1,0,0,1.1379,Andesite_rect,1,1.138,1,3,0,3,0,1,,,,,,,,,,,,,
55b00063fdf99b5c0061941f,SCN,2024-06-24_14h43.50.698,LearnStrategy,2023.2.3,Win32,17.98561151,9,1,5,-0.383333333,-0.25,1,0,0,0.8156,Diorite_16,3,16,2,2,0.816,0.152777778,-0.241666667,1,0,0,1.5016,Diorite_rect,3,1.502,1,4,0,4,0,1,,,,,,,,,,,,,
55b00063fdf99b5c0061941f,SCN,2024-06-24_14h43.50.698,LearnStrategy,2023.2.3,Win32,17.98561151,9,1,6,-0.207407407,-0.090740741,1,0,0,1.1323,Andesite_05,1,05,3,3,1.132,-0.375925926,-0.236111111,1,0,0,1.2142,Andesite_rect,1,1.214,1,5,0,5,0,1,,,,,,,,,,,,,
55b00063fdf99b5c0061941f,SCN,2024-06-24_14h43.50.698,LearnStrategy,2023.2.3,Win32,17.98561151,9,1,7,0.1,-0.100925926,1,0,0,1.4619,Diorite_13,3,13,3,5,1.462,0.12962963,-0.241666667,1,0,0,1.2988,Diorite_rect,3,1.299,1,6,0,6,0,1,,,,,,,,,,,,,
55b00063fdf99b5c0061941f,SCN,2024-06-24_14h43.50.698,LearnStrategy,2023.2.3,Win32,17.98561151,9,1,8,-0.387962963,-0.236111111,1,0,0,1.7568,Diorite_16,3,16,2,2,1.757,0.141666667,-0.237037037,1,0,0,1.1466,Diorite_rect,3,1.147,1,7,0,7,0,1,,,,,,,,,,,,,
55b00063fdf99b5c0061941f,SCN,2024-06-24_14h43.50.698,LearnStrategy,2023.2.3,Win32,17.98561151,9,1,9,-0.235185185,0.436111111,1,0,0,1.7614,Diorite_14,3,14,6,3,1.761,0.132407407,-0.237962963,1,0,0,0.9863,Diorite_rect,3,0.986,1,8,0,8,0,1,,,,,,,,,,,,,
55b00063fdf99b5c0061941f,SCN,2024-06-24_14h43.50.698,LearnStrategy,2023.2.3,Win32,17.98561151,9,1,10,0.243518519,0.375,1,0,0,0.982,Andesite_07,1,07,6,6,0.982,-0.374074074,-0.250925926,1,0,0,1.1565,Andesite_rect,1,1.157,1,9,0,9,0,1,,,,,,,,,,,,,
55b00063fdf99b5c0061941f,SCN,2024-06-24_14h43.50.698,LearnStrategy,2023.2.3,Win32,17.98561151,9,1,11,0.393518519,0.262037037,1,0,0,0.9546,Diorite_15,3,15,5,7,0.955,-0.425925926,-0.236111111,1,0,0,1.8324,Andesite_rect,1,1.832,0,10,0,10,0,1,,,,,,,,,,,,,
55b00063fdf99b5c0061941f,SCN,2024-06-24_14h43.50.698,LearnStrategy,2023.2.3,Win32,17.98561151,9,1,12,0.399074074,0.255555556,1,0,0,1.2963,Diorite_15,3,15,5,7,1.296,0.176851852,-0.258333333,1,0,0,0.9918,Diorite_rect,3,0.992,1,11,0,11,0,1,,,,,,,,,,,,,
55b00063fdf99b5c0061941f,SCN,2024-06-24_14h43.50.698,LearnStrategy,2023.2.3,Win32,17.98561151,9,1,13,-0.218518519,0.102777778,1,0,0,1.2862,Peridotite_04,7,04,4,3,1.286,0.089814815,-0.39537037,1,0,0,1.2976,Peridotite_rect,7,1.298,1,12,0,12,0,1,,,,,,,,,,,,,
55b00063fdf99b5c0061941f,SCN,2024-06-24_14h43.50.698,LearnStrategy,2023.2.3,Win32,17.98561151,9,1,14,-0.40462963,-0.096296296,1,0,0,1.424,Andesite_06,1,06,3,2,1.424,-0.385185185,-0.248148148,1,0,0,1.1352,Andesite_rect,1,1.135,1,13,0,13,0,1,,,,,,,,,,,,,
55b00063fdf99b5c0061941f,SCN,2024-06-24_14h43.50.698,LearnStrategy,2023.2.3,Win32,17.98561151,9,1,15,-0.540740741,0.098148148,1,0,0,1.1428,Peridotite_10,7,10,4,1,1.143,0.116666667,-0.403703704,1,0,0,1.3245,Peridotite_rect,7,1.324,1,14,0,14,0,1,,,,,,,,,,,,,
55b00063fdf99b5c0061941f,SCN,2024-06-24_14h43.50.698,LearnStrategy,2023.2.3,Win32,17.98561151,9,1,16,-0.540740741,0.406481481,1,0,0,3.048,Pumice_03,8,03,6,1,3.048,0.421296296,-0.393518519,1,0,0,1.6427,Pumice_rect,8,1.643,1,15,0,15,0,1,,,,,,,,,,,,,
55b00063fdf99b5c0061941f,SCN,2024-06-24_14h43.50.698,LearnStrategy,2023.2.3,Win32,17.98561151,9,2,1,,,,,,,,8,15,,,,,,,,,,,8,1.811,1,,,,,,0.415740741,-0.392592593,1,0,0,1.8111,Pumice_rect,0,0,0,0,1,
55b00063fdf99b5c0061941f,SCN,2024-06-24_14h43.50.698,LearnStrategy,2023.2.3,Win32,17.98561151,9,2,2,,,,,,,,4,13,,,,,,,,,,,3,2.712,0,,,,,,0.102777778,-0.246296296,1,0,0,2.7122,Diorite_rect,1,0,1,0,1,
55b00063fdf99b5c0061941f,SCN,2024-06-24_14h43.50.698,LearnStrategy,2023.2.3,Win32,17.98561151,9,2,3,,,,,,,,8,10,,,,,,,,,,,8,1.482,1,,,,,,0.390740741,-0.406481481,1,0,0,1.4816,Pumice_rect,2,0,2,0,1,
55b00063fdf99b5c0061941f,SCN,2024-06-24_14h43.50.698,LearnStrategy,2023.2.3,Win32,17.98561151,9,2,4,,,,,,,,6,15,,,,,,,,,,,6,1.68,1,,,,,,-0.211111111,-0.405555556,1,0,0,1.6805,Pegmatite_rect,3,0,3,0,1,
55b00063fdf99b5c0061941f,SCN,2024-06-24_14h43.50.698,LearnStrategy,2023.2.3,Win32,17.98561151,9,2,5,,,,,,,,1,09,,,,,,,,,,,1,1.836,1,,,,,,-0.394444444,-0.249074074,1,0,0,1.8362,Andesite_rect,4,0,4,0,1,
55b00063fdf99b5c0061941f,SCN,2024-06-24_14h43.50.698,LearnStrategy,2023.2.3,Win32,17.98561151,9,2,6,,,,,,,,7,12,,,,,,,,,,,7,2.244,1,,,,,,0.187962963,-0.418518519,1,0,0,2.2438,Peridotite_rect,5,0,5,0,1,
55b00063fdf99b5c0061941f,SCN,2024-06-24_14h43.50.698,LearnStrategy,2023.2.3,Win32,17.98561151,9,2,7,,,,,,,,3,11,,,,,,,,,,,3,1.987,1,,,,,,0.121296296,-0.262037037,1,0,0,1.9873,Diorite_rect,6,0,6,0,1,
55b00063fdf99b5c0061941f,SCN,2024-06-24_14h43.50.698,LearnStrategy,2023.2.3,Win32,17.98561151,9,2,8,,,,,,,,3,07,,,,,,,,,,,3,5.709,1,,,,,,0.149074074,-0.246296296,1,0,0,5.7088,Diorite_rect,7,0,7,0,1,
55b00063fdf99b5c0061941f,SCN,2024-06-24_14h43.50.698,LearnStrategy,2023.2.3,Win32,17.98561151,9,2,9,,,,,,,,1,01,,,,,,,,,,,2,6.89,0,,,,,,-0.126851852,-0.242592593,1,0,0,6.8903,Basalt_rect,8,0,8,0,1,
55b00063fdf99b5c0061941f,SCN,2024-06-24_14h43.50.698,LearnStrategy,2023.2.3,Win32,17.98561151,9,2,10,,,,,,,,6,03,,,,,,,,,,,6,4.788,1,,,,,,-0.123148148,-0.409259259,1,0,0,4.7877,Pegmatite_rect,9,0,9,0,1,
55b00063fdf99b5c0061941f,SCN,2024-06-24_14h43.50.698,LearnStrategy,2023.2.3,Win32,17.98561151,9,2,11,,,,,,,,4,09,,,,,,,,,,,4,1.995,1,,,,,,0.405555556,-0.265740741,1,0,0,1.9949,Gabbro_rect,10,0,10,0,1,
55b00063fdf99b5c0061941f,SCN,2024-06-24_14h43.50.698,LearnStrategy,2023.2.3,Win32,17.98561151,9,2,12,,,,,,,,2,08,,,,,,,,,,,2,1.931,1,,,,,,-0.161111111,-0.264814815,1,0,0,1.9308,Basalt_rect,11,0,11,0,1,
55b00063fdf99b5c0061941f,SCN,2024-06-24_14h43.50.698,LearnStrategy,2023.2.3,Win32,17.98561151,9,2,13,,,,,,,,2,16,,,,,,,,,,,2,5.153,1,,,,,,-0.146296296,-0.248148148,1,0,0,5.1531,Basalt_rect,12,0,12,0,1,
55b00063fdf99b5c0061941f,SCN,2024-06-24_14h43.50.698,LearnStrategy,2023.2.3,Win32,17.98561151,9,2,14,,,,,,,,7,08,,,,,,,,,,,7,1.652,1,,,,,,0.125,-0.397222222,1,0,0,1.6524,Peridotite_rect,13,0,13,0,1,
55b00063fdf99b5c0061941f,SCN,2024-06-24_14h43.50.698,LearnStrategy,2023.2.3,Win32,17.98561151,9,2,15,,,,,,,,5,08,,,,,,,,,,,5,2.789,1,,,,,,-0.42037037,-0.419444444,1,0,0,2.7894,Obsidian_rect,14,0,14,0,1,
55b00063fdf99b5c0061941f,SCN,2024-06-24_14h43.50.698,LearnStrategy,2023.2.3,Win32,17.98561151,9,2,16,,,,,,,,5,16,,,,,,,,,,,5,1.757,1,,,,,,-0.411111111,-0.413888889,1,0,0,1.7575,Obsidian_rect,15,0,15,0,1,
55b00063fdf99b5c0061941f,SCN,2024-06-24_14h43.50.698,LearnStrategy,2023.2.3,Win32,17.98561151,,,,,,,,,,,,,,,,,,,,,,,,,,,,,,,,,,,,,,,,,,,1
55b00063fdf99b5c0061941f,SCN,2024-06-24_14h43.50.698,LearnStrategy,2023.2.3,Win32,17.98561151,,,,,,,,,,,,,,,,,,,,,,,,,,,,,,,,,,,,,,,,,,,
55b00063fdf99b5c0061941f,SCN,2024-06-24_14h43.50.698,LearnStrategy,2023.2.3,Win32,17.98561151,,,,,,,,,,,6,13,1,1,,,,,,,,,,,,,,,,,,,,,,,,,,,,,
55b00063fdf99b5c0061941f,SCN,2024-06-24_14h43.50.698,LearnStrategy,2023.2.3,Win32,17.98561151,,,,,,,,,,,6,12,1,2,,,,,,,,,,,,,,,,,,,,,,,,,,,,,
55b00063fdf99b5c0061941f,SCN,2024-06-24_14h43.50.698,LearnStrategy,2023.2.3,Win32,17.98561151,,,,,,,,,,,8,16,1,3,,,,,,,,,,,,,,,,,,,,,,,,,,,,,
55b00063fdf99b5c0061941f,SCN,2024-06-24_14h43.50.698,LearnStrategy,2023.2.3,Win32,17.98561151,,,,,,,,,,,4,16,1,4,,,,,,,,,,,,,,,,,,,,,,,,,,,,,
55b00063fdf99b5c0061941f,SCN,2024-06-24_14h43.50.698,LearnStrategy,2023.2.3,Win32,17.98561151,,,,,,,,,,,1,03,1,5,,,,,,,,,,,,,,,,,,,,,,,,,,,,,
55b00063fdf99b5c0061941f,SCN,2024-06-24_14h43.50.698,LearnStrategy,2023.2.3,Win32,17.98561151,,,,,,,,,,,2,12,1,6,,,,,,,,,,,,,,,,,,,,,,,,,,,,,
55b00063fdf99b5c0061941f,SCN,2024-06-24_14h43.50.698,LearnStrategy,2023.2.3,Win32,17.98561151,,,,,,,,,,,5,02,1,7,,,,,,,,,,,,,,,,,,,,,,,,,,,,,
55b00063fdf99b5c0061941f,SCN,2024-06-24_14h43.50.698,LearnStrategy,2023.2.3,Win32,17.98561151,,,,,,,,,,,5,09,1,8,,,,,,,,,,,,,,,,,,,,,,,,,,,,,
55b00063fdf99b5c0061941f,SCN,2024-06-24_14h43.50.698,LearnStrategy,2023.2.3,Win32,17.98561151,,,,,,,,,,,2,09,2,1,,,,,,,,,,,,,,,,,,,,,,,,,,,,,
55b00063fdf99b5c0061941f,SCN,2024-06-24_14h43.50.698,LearnStrategy,2023.2.3,Win32,17.98561151,,,,,,,,,,,3,16,2,2,,,,,,,,,,,,,,,,,,,,,,,,,,,,,
55b00063fdf99b5c0061941f,SCN,2024-06-24_14h43.50.698,LearnStrategy,2023.2.3,Win32,17.98561151,,,,,,,,,,,4,03,2,3,,,,,,,,,,,,,,,,,,,,,,,,,,,,,
55b00063fdf99b5c0061941f,SCN,2024-06-24_14h43.50.698,LearnStrategy,2023.2.3,Win32,17.98561151,,,,,,,,,,,8,14,2,4,,,,,,,,,,,,,,,,,,,,,,,,,,,,,
55b00063fdf99b5c0061941f,SCN,2024-06-24_14h43.50.698,LearnStrategy,2023.2.3,Win32,17.98561151,,,,,,,,,,,8,05,2,5,,,,,,,,,,,,,,,,,,,,,,,,,,,,,
55b00063fdf99b5c0061941f,SCN,2024-06-24_14h43.50.698,LearnStrategy,2023.2.3,Win32,17.98561151,,,,,,,,,,,6,09,2,6,,,,,,,,,,,,,,,,,,,,,,,,,,,,,
55b00063fdf99b5c0061941f,SCN,2024-06-24_14h43.50.698,LearnStrategy,2023.2.3,Win32,17.98561151,,,,,,,,,,,3,12,2,7,,,,,,,,,,,,,,,,,,,,,,,,,,,,,
55b00063fdf99b5c0061941f,SCN,2024-06-24_14h43.50.698,LearnStrategy,2023.2.3,Win32,17.98561151,,,,,,,,,,,4,05,2,8,,,,,,,,,,,,,,,,,,,,,,,,,,,,,
55b00063fdf99b5c0061941f,SCN,2024-06-24_14h43.50.698,LearnStrategy,2023.2.3,Win32,17.98561151,,,,,,,,,,,7,05,3,1,,,,,,,,,,,,,,,,,,,,,,,,,,,,,
55b00063fdf99b5c0061941f,SCN,2024-06-24_14h43.50.698,LearnStrategy,2023.2.3,Win32,17.98561151,,,,,,,,,,,1,06,3,2,,,,,,,,,,,,,,,,,,,,,,,,,,,,,
55b00063fdf99b5c0061941f,SCN,2024-06-24_14h43.50.698,LearnStrategy,2023.2.3,Win32,17.98561151,,,,,,,,,,,1,05,3,3,,,,,,,,,,,,,,,,,,,,,,,,,,,,,
55b00063fdf99b5c0061941f,SCN,2024-06-24_14h43.50.698,LearnStrategy,2023.2.3,Win32,17.98561151,,,,,,,,,,,2,06,3,4,,,,,,,,,,,,,,,,,,,,,,,,,,,,,
55b00063fdf99b5c0061941f,SCN,2024-06-24_14h43.50.698,LearnStrategy,2023.2.3,Win32,17.98561151,,,,,,,,,,,3,13,3,5,,,,,,,,,,,,,,,,,,,,,,,,,,,,,
55b00063fdf99b5c0061941f,SCN,2024-06-24_14h43.50.698,LearnStrategy,2023.2.3,Win32,17.98561151,,,,,,,,,,,5,04,3,6,,,,,,,,,,,,,,,,,,,,,,,,,,,,,
55b00063fdf99b5c0061941f,SCN,2024-06-24_14h43.50.698,LearnStrategy,2023.2.3,Win32,17.98561151,,,,,,,,,,,4,14,3,7,,,,,,,,,,,,,,,,,,,,,,,,,,,,,
55b00063fdf99b5c0061941f,SCN,2024-06-24_14h43.50.698,LearnStrategy,2023.2.3,Win32,17.98561151,,,,,,,,,,,1,11,3,8,,,,,,,,,,,,,,,,,,,,,,,,,,,,,
55b00063fdf99b5c0061941f,SCN,2024-06-24_14h43.50.698,LearnStrategy,2023.2.3,Win32,17.98561151,,,,,,,,,,,7,10,4,1,,,,,,,,,,,,,,,,,,,,,,,,,,,,,
55b00063fdf99b5c0061941f,SCN,2024-06-24_14h43.50.698,LearnStrategy,2023.2.3,Win32,17.98561151,,,,,,,,,,,2,11,4,2,,,,,,,,,,,,,,,,,,,,,,,,,,,,,
55b00063fdf99b5c0061941f,SCN,2024-06-24_14h43.50.698,LearnStrategy,2023.2.3,Win32,17.98561151,,,,,,,,,,,7,04,4,3,,,,,,,,,,,,,,,,,,,,,,,,,,,,,
55b00063fdf99b5c0061941f,SCN,2024-06-24_14h43.50.698,LearnStrategy,2023.2.3,Win32,17.98561151,,,,,,,,,,,2,14,4,4,,,,,,,,,,,,,,,,,,,,,,,,,,,,,
55b00063fdf99b5c0061941f,SCN,2024-06-24_14h43.50.698,LearnStrategy,2023.2.3,Win32,17.98561151,,,,,,,,,,,6,07,4,5,,,,,,,,,,,,,,,,,,,,,,,,,,,,,
55b00063fdf99b5c0061941f,SCN,2024-06-24_14h43.50.698,LearnStrategy,2023.2.3,Win32,17.98561151,,,,,,,,,,,8,06,4,6,,,,,,,,,,,,,,,,,,,,,,,,,,,,,
55b00063fdf99b5c0061941f,SCN,2024-06-24_14h43.50.698,LearnStrategy,2023.2.3,Win32,17.98561151,,,,,,,,,,,5,12,4,7,,,,,,,,,,,,,,,,,,,,,,,,,,,,,
55b00063fdf99b5c0061941f,SCN,2024-06-24_14h43.50.698,LearnStrategy,2023.2.3,Win32,17.98561151,,,,,,,,,,,7,14,4,8,,,,,,,,,,,,,,,,,,,,,,,,,,,,,
55b00063fdf99b5c0061941f,SCN,2024-06-24_14h43.50.698,LearnStrategy,2023.2.3,Win32,17.98561151,,,,,,,,,,,7,02,5,1,,,,,,,,,,,,,,,,,,,,,,,,,,,,,
55b00063fdf99b5c0061941f,SCN,2024-06-24_14h43.50.698,LearnStrategy,2023.2.3,Win32,17.98561151,,,,,,,,,,,5,06,5,2,,,,,,,,,,,,,,,,,,,,,,,,,,,,,
55b00063fdf99b5c0061941f,SCN,2024-06-24_14h43.50.698,LearnStrategy,2023.2.3,Win32,17.98561151,,,,,,,,,,,3,06,5,3,,,,,,,,,,,,,,,,,,,,,,,,,,,,,
55b00063fdf99b5c0061941f,SCN,2024-06-24_14h43.50.698,LearnStrategy,2023.2.3,Win32,17.98561151,,,,,,,,,,,8,04,5,4,,,,,,,,,,,,,,,,,,,,,,,,,,,,,
55b00063fdf99b5c0061941f,SCN,2024-06-24_14h43.50.698,LearnStrategy,2023.2.3,Win32,17.98561151,,,,,,,,,,,6,16,5,5,,,,,,,,,,,,,,,,,,,,,,,,,,,,,
55b00063fdf99b5c0061941f,SCN,2024-06-24_14h43.50.698,LearnStrategy,2023.2.3,Win32,17.98561151,,,,,,,,,,,6,08,5,6,,,,,,,,,,,,,,,,,,,,,,,,,,,,,
55b00063fdf99b5c0061941f,SCN,2024-06-24_14h43.50.698,LearnStrategy,2023.2.3,Win32,17.98561151,,,,,,,,,,,3,15,5,7,,,,,,,,,,,,,,,,,,,,,,,,,,,,,
55b00063fdf99b5c0061941f,SCN,2024-06-24_14h43.50.698,LearnStrategy,2023.2.3,Win32,17.98561151,,,,,,,,,,,4,08,5,8,,,,,,,,,,,,,,,,,,,,,,,,,,,,,
55b00063fdf99b5c0061941f,SCN,2024-06-24_14h43.50.698,LearnStrategy,2023.2.3,Win32,17.98561151,,,,,,,,,,,8,03,6,1,,,,,,,,,,,,,,,,,,,,,,,,,,,,,
55b00063fdf99b5c0061941f,SCN,2024-06-24_14h43.50.698,LearnStrategy,2023.2.3,Win32,17.98561151,,,,,,,,,,,2,10,6,2,,,,,,,,,,,,,,,,,,,,,,,,,,,,,
55b00063fdf99b5c0061941f,SCN,2024-06-24_14h43.50.698,LearnStrategy,2023.2.3,Win32,17.98561151,,,,,,,,,,,3,14,6,3,,,,,,,,,,,,,,,,,,,,,,,,,,,,,
55b00063fdf99b5c0061941f,SCN,2024-06-24_14h43.50.698,LearnStrategy,2023.2.3,Win32,17.98561151,,,,,,,,,,,5,07,6,4,,,,,,,,,,,,,,,,,,,,,,,,,,,,,
55b00063fdf99b5c0061941f,SCN,2024-06-24_14h43.50.698,LearnStrategy,2023.2.3,Win32,17.98561151,,,,,,,,,,,4,10,6,5,,,,,,,,,,,,,,,,,,,,,,,,,,,,,
55b00063fdf99b5c0061941f,SCN,2024-06-24_14h43.50.698,LearnStrategy,2023.2.3,Win32,17.98561151,,,,,,,,,,,1,07,6,6,,,,,,,,,,,,,,,,,,,,,,,,,,,,,
55b00063fdf99b5c0061941f,SCN,2024-06-24_14h43.50.698,LearnStrategy,2023.2.3,Win32,17.98561151,,,,,,,,,,,7,06,6,7,,,,,,,,,,,,,,,,,,,,,,,,,,,,,
55b00063fdf99b5c0061941f,SCN,2024-06-24_14h43.50.698,LearnStrategy,2023.2.3,Win32,17.98561151,,,,,,,,,,,1,16,6,8,,,,,,,,,,,,,,,,,,,,,,,,,,,,,