participant,condition,date,expName,psychopyVersion,OS,frameRate,block,phase,trial,learn_mouse_2.x,learn_mouse_2.y,learn_mouse_2.leftButton,learn_mouse_2.midButton,learn_mouse_2.rightButton,learn_mouse_2.time,learn_mouse_2.clicked_name,cat,token,row,col,t_select,cat_mouse_l.x,cat_mouse_l.y,cat_mouse_l.leftButton,cat_mouse_l.midButton,cat_mouse_l.rightButton,cat_mouse_l.time,cat_mouse_l.clicked_name,resp,t_resp,corr,train_trials.thisRepN,train_trials.thisTrialN,train_trials.thisN,train_trials.thisIndex,train_trials.ran,cat_mouse_t.x,cat_mouse_t.y,cat_mouse_t.leftButton,cat_mouse_t.midButton,cat_mouse_t.rightButton,cat_mouse_t.time,cat_mouse_t.clicked_name,test_trials.thisRepN,test_trials.thisTrialN,test_trials.thisN,test_trials.thisIndex,test_trials.ran,Bonus
55d35935da14d7001295326b,TCR,2024-06-11_10h10.44.952,LearnStrategy,2023.2.3,MacIntel,59.95203837,,,,,,,,,,,,,,,,,,,,,,,,,,,,,,,,,,,,,,,,,,,
55d35935da14d7001295326b,TCR,2024-06-11_10h10.44.952,LearnStrategy,2023.2.3,MacIntel,59.95203837,1,1,1,0.1,0.004672897,1,0,0,1.452,rock_grid_rect_2,6,15,-1,-1,1.452,0.400934579,-0.23364486,1,0,0,3.715,Gabbro_rect,4,3.715,0,0,0,0,0,1,,,,,,,,,,,,,
55d35935da14d7001295326b,TCR,2024-06-11_10h10.44.952,LearnStrategy,2023.2.3,MacIntel,59.95203837,1,1,2,0.040186916,-0.01682243,1,0,0,1.296,rock_grid_rect_2,2,02,-1,-1,1.296,-0.062616822,-0.231775701,1,0,0,1.477,Basalt_rect,2,1.477,1,1,0,1,0,1,,,,,,,,,,,,,
55d35935da14d7001295326b,TCR,2024-06-11_10h10.44.952,LearnStrategy,2023.2.3,MacIntel,59.95203837,1,1,3,0.087850467,-0.005607477,1,0,0,0.93,rock_grid_rect_2,2,08,-1,-1,0.93,-0.357943925,-0.404672897,1,0,0,1.806,Obsidian_rect,5,1.806,0,2,0,2,0,1,,,,,,,,,,,,,
55d35935da14d7001295326b,TCR,2024-06-11_10h10.44.952,LearnStrategy,2023.2.3,MacIntel,59.95203837,1,1,4,0.058878505,-0.002803738,1,0,0,1.062,rock_grid_rect_2,8,16,-1,-1,1.062,0.362616822,-0.410280374,1,0,0,3.595,Pumice_rect,8,3.595,1,3,0,3,0,1,,,,,,,,,,,,,
55d35935da14d7001295326b,TCR,2024-06-11_10h10.44.952,LearnStrategy,2023.2.3,MacIntel,59.95203837,1,1,5,0.102803738,-0.022429907,1,0,0,0.982,rock_grid_rect_2,7,06,-1,-1,0.982,-0.385046729,-0.265420561,1,0,0,4.524,Andesite_rect,1,4.524,0,4,0,4,0,1,,,,,,,,,,,,,
55d35935da14d7001295326b,TCR,2024-06-11_10h10.44.952,LearnStrategy,2023.2.3,MacIntel,59.95203837,1,1,6,0.046728972,-0.004672897,1,0,0,1.093,rock_grid_rect_2,4,03,-1,-1,1.093,0.357009346,-0.268224299,1,0,0,3.179,Gabbro_rect,4,3.179,1,5,0,5,0,1,,,,,,,,,,,,,
55d35935da14d7001295326b,TCR,2024-06-11_10h10.44.952,LearnStrategy,2023.2.3,MacIntel,59.95203837,1,1,7,0.08411215,-0.007476636,1,0,0,1.08,rock_grid_rect_2,5,10,-1,-1,1.08,-0.368224299,-0.396261682,1,0,0,3.32,Obsidian_rect,5,3.32,1,6,0,6,0,1,,,,,,,,,,,,,
55d35935da14d7001295326b,TCR,2024-06-11_10h10.44.952,LearnStrategy,2023.2.3,MacIntel,59.95203837,1,1,8,0.022429907,0.005607477,1,0,0,0.814,rock_grid_rect_2,5,06,-1,-1,0.814,-0.344859813,-0.400934579,1,0,0,5.928,Obsidian_rect,5,5.928,1,7,0,7,0,1,,,,,,,,,,,,,
55d35935da14d7001295326b,TCR,2024-06-11_10h10.44.952,LearnStrategy,2023.2.3,MacIntel,59.95203837,1,1,9,0.114018692,-0.019626168,1,0,0,0.863,rock_grid_rect_2,7,04,-1,-1,0.863,-0.399065421,-0.244859813,1,0,0,4.848,Andesite_rect,1,4.848,0,8,0,8,0,1,,,,,,,,,,,,,
55d35935da14d7001295326b,TCR,2024-06-11_10h10.44.952,LearnStrategy,2023.2.3,MacIntel,59.95203837,1,1,10,0.127102804,-0.002803738,1,0,0,0.99,rock_grid_rect_2,4,08,-1,-1,0.99,-0.112149533,-0.398130841,1,0,0,5.258,Pegmatite_rect,6,5.258,0,9,0,9,0,1,,,,,,,,,,,,,
55d35935da14d7001295326b,TCR,2024-06-11_10h10.44.952,LearnStrategy,2023.2.3,MacIntel,59.95203837,1,1,11,0.136448598,0.004672897,1,0,0,0.963,rock_grid_rect_2,8,05,-1,-1,0.963,0.400934579,-0.406542056,1,0,0,2.502,Pumice_rect,8,2.502,1,10,0,10,0,1,,,,,,,,,,,,,
55d35935da14d7001295326b,TCR,2024-06-11_10h10.44.952,LearnStrategy,2023.2.3,MacIntel,59.95203837,1,1,12,0.178504673,-0.018691589,1,0,0,0.78,rock_grid_rect_2,3,14,-1,-1,0.78,0.072897196,-0.396261682,1,0,0,8.909,Peridotite_rect,7,8.909,0,11,0,11,0,1,,,,,,,,,,,,,
55d35935da14d7001295326b,TCR,2024-06-11_10h10.44.952,LearnStrategy,2023.2.3,MacIntel,59.95203837,1,1,13,0.006542056,-0.019626168,1,0,0,1.298,rock_grid_rect_2,3,02,-1,-1,1.298,0.146728972,-0.240186916,1,0,0,1.128,Diorite_rect,3,1.128,1,12,0,12,0,1,,,,,,,,,,,,,
55d35935da14d7001295326b,TCR,2024-06-11_10h10.44.952,LearnStrategy,2023.2.3,MacIntel,59.95203837,1,1,14,0.034579439,0,1,0,0,0.881,rock_grid_rect_2,6,05,-1,-1,0.881,0.348598131,-0.247663551,1,0,0,5.764,Gabbro_rect,4,5.764,0,13,0,13,0,1,,,,,,,,,,,,,
55d35935da14d7001295326b,TCR,2024-06-11_10h10.44.952,LearnStrategy,2023.2.3,MacIntel,59.95203837,1,1,15,0,-0.011214953,1,0,0,1.026,rock_grid_rect_2,1,05,-1,-1,1.026,-0.11588785,-0.242056075,1,0,0,4.113,Basalt_rect,2,4.113,0,14,0,14,0,1,,,,,,,,,,,,,
55d35935da14d7001295326b,TCR,2024-06-11_10h10.44.952,LearnStrategy,2023.2.3,MacIntel,59.95203837,1,1,16,0.026168224,0.007476636,1,0,0,0.865,rock_grid_rect_2,1,09,-1,-1,0.865,-0.118691589,-0.246728972,1,0,0,2.203,Basalt_rect,2,2.203,0,15,0,15,0,1,,,,,,,,,,,,,
55d35935da14d7001295326b,TCR,2024-06-11_10h10.44.952,LearnStrategy,2023.2.3,MacIntel,59.95203837,1,2,1,,,,,,,,2,06,,,,,,,,,,,2,9.385,1,,,,,,-0.174766355,-0.26728972,1,0,0,9.385,Basalt_rect,0,0,0,0,1,
55d35935da14d7001295326b,TCR,2024-06-11_10h10.44.952,LearnStrategy,2023.2.3,MacIntel,59.95203837,1,2,2,,,,,,,,5,14,,,,,,,,,,,5,1.466,1,,,,,,-0.353271028,-0.388785047,1,0,0,1.466,Obsidian_rect,1,0,1,0,1,
55d35935da14d7001295326b,TCR,2024-06-11_10h10.44.952,LearnStrategy,2023.2.3,MacIntel,59.95203837,1,2,3,,,,,,,,8,10,,,,,,,,,,,8,1.716,1,,,,,,0.387850467,-0.379439252,1,0,0,1.716,Pumice_rect,2,0,2,0,1,
55d35935da14d7001295326b,TCR,2024-06-11_10h10.44.952,LearnStrategy,2023.2.3,MacIntel,59.95203837,1,2,4,,,,,,,,3,11,,,,,,,,,,,6,6.596,0,,,,,,-0.075700935,-0.397196262,1,0,0,6.596,Pegmatite_rect,3,0,3,0,1,
55d35935da14d7001295326b,TCR,2024-06-11_10h10.44.952,LearnStrategy,2023.2.3,MacIntel,59.95203837,1,2,5,,,,,,,,4,05,,,,,,,,,,,7,1.803,0,,,,,,0.098130841,-0.407476636,1,0,0,1.803,Peridotite_rect,4,0,4,0,1,
55d35935da14d7001295326b,TCR,2024-06-11_10h10.44.952,LearnStrategy,2023.2.3,MacIntel,59.95203837,1,2,6,,,,,,,,6,03,,,,,,,,,,,6,2.418,1,,,,,,-0.128971963,-0.380373832,1,0,0,2.418,Pegmatite_rect,5,0,5,0,1,
55d35935da14d7001295326b,TCR,2024-06-11_10h10.44.952,LearnStrategy,2023.2.3,MacIntel,59.95203837,1,2,7,,,,,,,,2,12,,,,,,,,,,,8,1.998,0,,,,,,0.348598131,-0.398130841,1,0,0,1.998,Pumice_rect,6,0,6,0,1,
55d35935da14d7001295326b,TCR,2024-06-11_10h10.44.952,LearnStrategy,2023.2.3,MacIntel,59.95203837,1,2,8,,,,,,,,8,15,,,,,,,,,,,8,0.851,1,,,,,,0.348598131,-0.398130841,1,0,0,0.851,Pumice_rect,7,0,7,0,1,
55d35935da14d7001295326b,TCR,2024-06-11_10h10.44.952,LearnStrategy,2023.2.3,MacIntel,59.95203837,1,2,9,,,,,,,,3,07,,,,,,,,,,,1,2.203,0,,,,,,-0.357009346,-0.258878505,1,0,0,2.203,Andesite_rect,8,0,8,0,1,
55d35935da14d7001295326b,TCR,2024-06-11_10h10.44.952,LearnStrategy,2023.2.3,MacIntel,59.95203837,1,2,10,,,,,,,,7,02,,,,,,,,,,,1,1.978,0,,,,,,-0.357009346,-0.258878505,1,0,0,1.978,Andesite_rect,9,0,9,0,1,
55d35935da14d7001295326b,TCR,2024-06-11_10h10.44.952,LearnStrategy,2023.2.3,MacIntel,59.95203837,1,2,11,,,,,,,,1,06,,,,,,,,,,,3,4.082,0,,,,,,0.140186916,-0.247663551,1,0,0,4.082,Diorite_rect,10,0,10,0,1,
55d35935da14d7001295326b,TCR,2024-06-11_10h10.44.952,LearnStrategy,2023.2.3,MacIntel,59.95203837,1,2,12,,,,,,,,1,04,,,,,,,,,,,3,0.989,0,,,,,,0.140186916,-0.247663551,1,0,0,0.989,Diorite_rect,11,0,11,0,1,
55d35935da14d7001295326b,TCR,2024-06-11_10h10.44.952,LearnStrategy,2023.2.3,MacIntel,59.95203837,1,2,13,,,,,,,,7,15,,,,,,,,,,,7,4.448,1,,,,,,0.097196262,-0.391588785,1,0,0,4.448,Peridotite_rect,12,0,12,0,1,
55d35935da14d7001295326b,TCR,2024-06-11_10h10.44.952,LearnStrategy,2023.2.3,MacIntel,59.95203837,1,2,14,,,,,,,,5,08,,,,,,,,,,,5,1.187,1,,,,,,-0.41682243,-0.4,1,0,0,1.187,Obsidian_rect,13,0,13,0,1,
55d35935da14d7001295326b,TCR,2024-06-11_10h10.44.952,LearnStrategy,2023.2.3,MacIntel,59.95203837,1,2,15,,,,,,,,6,06,,,,,,,,,,,6,10.434,1,,,,,,-0.079439252,-0.413084112,1,0,0,10.434,Pegmatite_rect,14,0,14,0,1,
55d35935da14d7001295326b,TCR,2024-06-11_10h10.44.952,LearnStrategy,2023.2.3,MacIntel,59.95203837,1,2,16,,,,,,,,4,15,,,,,,,,,,,3,1.162,0,,,,,,0.097196262,-0.261682243,1,0,0,1.162,Diorite_rect,15,0,15,0,1,
55d35935da14d7001295326b,TCR,2024-06-11_10h10.44.952,LearnStrategy,2023.2.3,MacIntel,59.95203837,2,1,1,0.074766355,-0.01588785,1,0,0,1.246,rock_grid_rect_2,2,09,-1,-1,1.246,-0.107476636,-0.261682243,1,0,0,4.083,Basalt_rect,2,4.083,1,0,0,0,0,1,,,,,,,,,,,,,
55d35935da14d7001295326b,TCR,2024-06-11_10h10.44.952,LearnStrategy,2023.2.3,MacIntel,59.95203837,2,1,2,-0.000934579,-0.011214953,1,0,0,0.93,rock_grid_rect_2,2,16,-1,-1,0.93,0.112149533,-0.25046729,1,0,0,3.992,Diorite_rect,3,3.992,0,1,0,1,0,1,,,,,,,,,,,,,
55d35935da14d7001295326b,TCR,2024-06-11_10h10.44.952,LearnStrategy,2023.2.3,MacIntel,59.95203837,2,1,3,0.059813084,-0.014953271,1,0,0,0.924,rock_grid_rect_2,1,01,-1,-1,0.924,0.135514019,-0.237383178,1,0,0,1.49,Diorite_rect,3,1.49,0,2,0,2,0,1,,,,,,,,,,,,,
55d35935da14d7001295326b,TCR,2024-06-11_10h10.44.952,LearnStrategy,2023.2.3,MacIntel,59.95203837,2,1,4,0.096261682,-0.009345794,1,0,0,1.113,rock_grid_rect_2,3,16,-1,-1,1.113,0.099065421,-0.256074766,1,0,0,2.27,Diorite_rect,3,2.27,1,3,0,3,0,1,,,,,,,,,,,,,
55d35935da14d7001295326b,TCR,2024-06-11_10h10.44.952,LearnStrategy,2023.2.3,MacIntel,59.95203837,2,1,5,0.071028037,0.014953271,1,0,0,0.695,rock_grid_rect_2,7,06,-1,-1,0.695,-0.128037383,-0.401869159,1,0,0,1.878,Pegmatite_rect,6,1.878,0,4,0,4,0,1,,,,,,,,,,,,,
55d35935da14d7001295326b,TCR,2024-06-11_10h10.44.952,LearnStrategy,2023.2.3,MacIntel,59.95203837,2,1,6,0.085981308,0,1,0,0,1.012,rock_grid_rect_2,1,14,-1,-1,1.012,-0.14953271,-0.413084112,1,0,0,2.468,Pegmatite_rect,6,2.468,0,5,0,5,0,1,,,,,,,,,,,,,
55d35935da14d7001295326b,TCR,2024-06-11_10h10.44.952,LearnStrategy,2023.2.3,MacIntel,59.95203837,2,1,7,0.1,-0.006542056,1,0,0,1.029,rock_grid_rect_2,4,08,-1,-1,1.029,0.418691589,-0.261682243,1,0,0,4.25,Gabbro_rect,4,4.25,1,6,0,6,0,1,,,,,,,,,,,,,
55d35935da14d7001295326b,TCR,2024-06-11_10h10.44.952,LearnStrategy,2023.2.3,MacIntel,59.95203837,2,1,8,0.11682243,-0.017757009,1,0,0,0.977,rock_grid_rect_2,4,08,-1,-1,0.977,0.373831776,-0.243925234,1,0,0,1.256,Gabbro_rect,4,1.256,1,7,0,7,0,1,,,,,,,,,,,,,
55d35935da14d7001295326b,TCR,2024-06-11_10h10.44.952,LearnStrategy,2023.2.3,MacIntel,59.95203837,2,1,9,0.073831776,0.002803738,1,0,0,0.749,rock_grid_rect_2,6,12,-1,-1,0.749,0.080373832,-0.413084112,1,0,0,1.722,Peridotite_rect,7,1.722,0,8,0,8,0,1,,,,,,,,,,,,,
55d35935da14d7001295326b,TCR,2024-06-11_10h10.44.952,LearnStrategy,2023.2.3,MacIntel,59.95203837,2,1,10,0.092523364,-0.002803738,1,0,0,0.897,rock_grid_rect_2,3,14,-1,-1,0.897,0.131775701,-0.244859813,1,0,0,1.09,Diorite_rect,3,1.09,1,9,0,9,0,1,,,,,,,,,,,,,
55d35935da14d7001295326b,TCR,2024-06-11_10h10.44.952,LearnStrategy,2023.2.3,MacIntel,59.95203837,2,1,11,0.074766355,-0.008411215,1,0,0,1.228,rock_grid_rect_2,4,09,-1,-1,1.228,0.085046729,-0.421495327,1,0,0,7.87,Peridotite_rect,7,7.87,0,10,0,10,0,1,,,,,,,,,,,,,
55d35935da14d7001295326b,TCR,2024-06-11_10h10.44.952,LearnStrategy,2023.2.3,MacIntel,59.95203837,2,1,12,0.05046729,0.009345794,1,0,0,0.829,rock_grid_rect_2,3,02,-1,-1,0.829,0.121495327,-0.242990654,1,0,0,1.107,Diorite_rect,3,1.107,1,11,0,11,0,1,,,,,,,,,,,,,
55d35935da14d7001295326b,TCR,2024-06-11_10h10.44.952,LearnStrategy,2023.2.3,MacIntel,59.95203837,2,1,13,0.057009346,-0.014953271,1,0,0,0.732,rock_grid_rect_2,1,14,-1,-1,0.732,-0.328971963,-0.262616822,1,0,0,4.32,Andesite_rect,1,4.32,1,12,0,12,0,1,,,,,,,,,,,,,
55d35935da14d7001295326b,TCR,2024-06-11_10h10.44.952,LearnStrategy,2023.2.3,MacIntel,59.95203837,2,1,14,0.014018692,0.010280374,1,0,0,0.73,rock_grid_rect_2,3,02,-1,-1,0.73,0.1,-0.247663551,1,0,0,1.078,Diorite_rect,3,1.078,1,13,0,13,0,1,,,,,,,,,,,,,
55d35935da14d7001295326b,TCR,2024-06-11_10h10.44.952,LearnStrategy,2023.2.3,MacIntel,59.95203837,2,1,15,0.000934579,-0.021495327,1,0,0,0.763,rock_grid_rect_2,7,05,-1,-1,0.763,-0.371028037,-0.24953271,1,0,0,1.485,Andesite_rect,1,1.485,0,14,0,14,0,1,,,,,,,,,,,,,
55d35935da14d7001295326b,TCR,2024-06-11_10h10.44.952,LearnStrategy,2023.2.3,MacIntel,59.95203837,2,1,16,0.108411215,-0.001869159,1,0,0,1.013,rock_grid_rect_2,8,14,-1,-1,1.013,0.391588785,-0.413084112,1,0,0,1.359,Pumice_rect,8,1.359,1,15,0,15,0,1,,,,,,,,,,,,,
55d35935da14d7001295326b,TCR,2024-06-11_10h10.44.952,LearnStrategy,2023.2.3,MacIntel,59.95203837,2,2,1,,,,,,,,7,16,,,,,,,,,,,7,2.383,1,,,,,,0.124299065,-0.399065421,1,0,0,2.383,Peridotite_rect,0,0,0,0,1,
55d35935da14d7001295326b,TCR,2024-06-11_10h10.44.952,LearnStrategy,2023.2.3,MacIntel,59.95203837,2,2,2,,,,,,,,4,12,,,,,,,,,,,4,1.923,1,,,,,,0.355140187,-0.241121495,1,0,0,1.923,Gabbro_rect,1,0,1,0,1,
55d35935da14d7001295326b,TCR,2024-06-11_10h10.44.952,LearnStrategy,2023.2.3,MacIntel,59.95203837,2,2,3,,,,,,,,2,14,,,,,,,,,,,8,2.75,0,,,,,,0.351401869,-0.381308411,1,0,0,2.75,Pumice_rect,2,0,2,0,1,
55d35935da14d7001295326b,TCR,2024-06-11_10h10.44.952,LearnStrategy,2023.2.3,MacIntel,59.95203837,2,2,4,,,,,,,,1,16,,,,,,,,,,,3,1.923,0,,,,,,0.101869159,-0.251401869,1,0,0,1.923,Diorite_rect,3,0,3,0,1,
55d35935da14d7001295326b,TCR,2024-06-11_10h10.44.952,LearnStrategy,2023.2.3,MacIntel,59.95203837,2,2,5,,,,,,,,7,12,,,,,,,,,,,1,2.187,0,,,,,,-0.423364486,-0.23271028,1,0,0,2.187,Andesite_rect,4,0,4,0,1,
55d35935da14d7001295326b,TCR,2024-06-11_10h10.44.952,LearnStrategy,2023.2.3,MacIntel,59.95203837,2,2,6,,,,,,,,3,15,,,,,,,,,,,3,2.21,1,,,,,,0.107476636,-0.237383178,1,0,0,2.21,Diorite_rect,5,0,5,0,1,
55d35935da14d7001295326b,TCR,2024-06-11_10h10.44.952,LearnStrategy,2023.2.3,MacIntel,59.95203837,2,2,7,,,,,,,,1,11,,,,,,,,,,,6,4.298,0,,,,,,-0.178504673,-0.412149533,1,0,0,4.298,Pegmatite_rect,6,0,6,0,1,
55d35935da14d7001295326b,TCR,2024-06-11_10h10.44.952,LearnStrategy,2023.2.3,MacIntel,59.95203837,2,2,8,,,,,,,,3,06,,,,,,,,,,,3,4.947,1,,,,,,0.085046729,-0.261682243,1,0,0,4.947,Diorite_rect,7,0,7,0,1,
55d35935da14d7001295326b,TCR,2024-06-11_10h10.44.952,LearnStrategy,2023.2.3,MacIntel,59.95203837,2,2,9,,,,,,,,8,06,,,,,,,,,,,8,1.977,1,,,,,,0.406542056,-0.403738318,1,0,0,1.977,Pumice_rect,8,0,8,0,1,
55d35935da14d7001295326b,TCR,2024-06-11_10h10.44.952,LearnStrategy,2023.2.3,MacIntel,59.95203837,2,2,10,,,,,,,,8,08,,,,,,,,,,,8,1.841,1,,,,,,0.403738318,-0.408411215,1,0,0,1.841,Pumice_rect,9,0,9,0,1,
55d35935da14d7001295326b,TCR,2024-06-11_10h10.44.952,LearnStrategy,2023.2.3,MacIntel,59.95203837,2,2,11,,,,,,,,4,13,,,,,,,,,,,7,3.606,0,,,,,,0.131775701,-0.408411215,1,0,0,3.606,Peridotite_rect,10,0,10,0,1,
55d35935da14d7001295326b,TCR,2024-06-11_10h10.44.952,LearnStrategy,2023.2.3,MacIntel,59.95203837,2,2,12,,,,,,,,6,11,,,,,,,,,,,1,1.566,0,,,,,,-0.378504673,-0.243925234,1,0,0,1.566,Andesite_rect,11,0,11,0,1,
55d35935da14d7001295326b,TCR,2024-06-11_10h10.44.952,LearnStrategy,2023.2.3,MacIntel,59.95203837,2,2,13,,,,,,,,6,10,,,,,,,,,,,1,3.392,0,,,,,,-0.378504673,-0.243925234,1,0,0,3.392,Andesite_rect,12,0,12,0,1,
55d35935da14d7001295326b,TCR,2024-06-11_10h10.44.952,LearnStrategy,2023.2.3,MacIntel,59.95203837,2,2,14,,,,,,,,5,07,,,,,,,,,,,5,1.037,1,,,,,,-0.396261682,-0.38317757,1,0,0,1.037,Obsidian_rect,13,0,13,0,1,
55d35935da14d7001295326b,TCR,2024-06-11_10h10.44.952,LearnStrategy,2023.2.3,MacIntel,59.95203837,2,2,15,,,,,,,,2,05,,,,,,,,,,,4,1.549,0,,,,,,0.387850467,-0.248598131,1,0,0,1.549,Gabbro_rect,14,0,14,0,1,
55d35935da14d7001295326b,TCR,2024-06-11_10h10.44.952,LearnStrategy,2023.2.3,MacIntel,59.95203837,2,2,16,,,,,,,,5,09,,,,,,,,,,,5,1.183,1,,,,,,-0.400934579,-0.397196262,1,0,0,1.183,Obsidian_rect,15,0,15,0,1,
55d35935da14d7001295326b,TCR,2024-06-11_10h10.44.952,LearnStrategy,2023.2.3,MacIntel,59.95203837,3,1,1,0.040186916,0.009345794,1,0,0,1.064,rock_grid_rect_2,4,03,-1,-1,1.064,0.408411215,-0.245794393,1,0,0,1.522,Gabbro_rect,4,1.522,1,0,0,0,0,1,,,,,,,,,,,,,
55d35935da14d7001295326b,TCR,2024-06-11_10h10.44.952,LearnStrategy,2023.2.3,MacIntel,59.95203837,3,1,2,0.070093458,0.010280374,1,0,0,1.181,rock_grid_rect_2,7,07,-1,-1,1.181,-0.403738318,-0.235514019,1,0,0,4.111,Andesite_rect,1,4.111,0,1,0,1,0,1,,,,,,,,,,,,,
55d35935da14d7001295326b,TCR,2024-06-11_10h10.44.952,LearnStrategy,2023.2.3,MacIntel,59.95203837,3,1,3,0.057009346,-0.009345794,1,0,0,0.846,rock_grid_rect_2,2,10,-1,-1,0.846,-0.105607477,-0.230841121,1,0,0,1.53,Basalt_rect,2,1.53,1,2,0,2,0,1,,,,,,,,,,,,,
55d35935da14d7001295326b,TCR,2024-06-11_10h10.44.952,LearnStrategy,2023.2.3,MacIntel,59.95203837,3,1,4,0.079439252,0.014018692,1,0,0,0.83,rock_grid_rect_2,6,12,-1,-1,0.83,-0.144859813,-0.409345794,1,0,0,5.05,Pegmatite_rect,6,5.05,1,3,0,3,0,1,,,,,,,,,,,,,
55d35935da14d7001295326b,TCR,2024-06-11_10h10.44.952,LearnStrategy,2023.2.3,MacIntel,59.95203837,3,1,5,0.027102804,0.002803738,1,0,0,0.697,rock_grid_rect_2,3,09,-1,-1,0.697,0.096261682,-0.246728972,1,0,0,1.277,Diorite_rect,3,1.277,1,4,0,4,0,1,,,,,,,,,,,,,
55d35935da14d7001295326b,TCR,2024-06-11_10h10.44.952,LearnStrategy,2023.2.3,MacIntel,59.95203837,3,1,6,0.022429907,-0.000934579,1,0,0,0.763,rock_grid_rect_2,8,09,-1,-1,0.763,0.414018692,-0.418691589,1,0,0,1.158,Pumice_rect,8,1.158,1,5,0,5,0,1,,,,,,,,,,,,,
55d35935da14d7001295326b,TCR,2024-06-11_10h10.44.952,LearnStrategy,2023.2.3,MacIntel,59.95203837,3,1,7,0.1,0.005607477,1,0,0,0.747,rock_grid_rect_2,1,09,-1,-1,0.747,-0.151401869,-0.24953271,1,0,0,1.78,Basalt_rect,2,1.78,0,6,0,6,0,1,,,,,,,,,,,,,
55d35935da14d7001295326b,TCR,2024-06-11_10h10.44.952,LearnStrategy,2023.2.3,MacIntel,59.95203837,3,1,8,0.102803738,-0.007476636,1,0,0,0.864,rock_grid_rect_2,1,07,-1,-1,0.864,0.138317757,-0.254205607,1,0,0,1.711,Diorite_rect,3,1.711,0,7,0,7,0,1,,,,,,,,,,,,,
55d35935da14d7001295326b,TCR,2024-06-11_10h10.44.952,LearnStrategy,2023.2.3,MacIntel,59.95203837,3,1,9,0.024299065,0.012149533,1,0,0,0.696,rock_grid_rect_2,2,04,-1,-1,0.696,-0.136448598,-0.256074766,1,0,0,1.375,Basalt_rect,2,1.375,1,8,0,8,0,1,,,,,,,,,,,,,
55d35935da14d7001295326b,TCR,2024-06-11_10h10.44.952,LearnStrategy,2023.2.3,MacIntel,59.95203837,3,1,10,0.041121495,0,1,0,0,0.664,rock_grid_rect_2,6,05,-1,-1,0.664,-0.138317757,-0.389719626,1,0,0,3.236,Pegmatite_rect,6,3.236,1,9,0,9,0,1,,,,,,,,,,,,,
55d35935da14d7001295326b,TCR,2024-06-11_10h10.44.952,LearnStrategy,2023.2.3,MacIntel,59.95203837,3,1,11,0.071028037,0.001869159,1,0,0,0.666,rock_grid_rect_2,1,10,-1,-1,0.666,0.379439252,-0.271028037,1,0,0,4.043,Gabbro_rect,4,4.043,0,10,0,10,0,1,,,,,,,,,,,,,
55d35935da14d7001295326b,TCR,2024-06-11_10h10.44.952,LearnStrategy,2023.2.3,MacIntel,59.95203837,3,1,12,0.108411215,-0.014953271,1,0,0,0.745,rock_grid_rect_2,2,08,-1,-1,0.745,-0.098130841,-0.242056075,1,0,0,1.735,Basalt_rect,2,1.735,1,11,0,11,0,1,,,,,,,,,,,,,
55d35935da14d7001295326b,TCR,2024-06-11_10h10.44.952,LearnStrategy,2023.2.3,MacIntel,59.95203837,3,1,13,0.073831776,0.001869159,1,0,0,0.746,rock_grid_rect_2,7,04,-1,-1,0.746,0.138317757,-0.240186916,1,0,0,3.081,Diorite_rect,3,3.081,0,12,0,12,0,1,,,,,,,,,,,,,
55d35935da14d7001295326b,TCR,2024-06-11_10h10.44.952,LearnStrategy,2023.2.3,MacIntel,59.95203837,3,1,14,0.065420561,0.008411215,1,0,0,0.813,rock_grid_rect_2,3,16,-1,-1,0.813,-0.371028037,-0.258878505,1,0,0,4.66,Andesite_rect,1,4.66,0,13,0,13,0,1,,,,,,,,,,,,,
55d35935da14d7001295326b,TCR,2024-06-11_10h10.44.952,LearnStrategy,2023.2.3,MacIntel,59.95203837,3,1,15,0.11682243,0.005607477,1,0,0,0.783,rock_grid_rect_2,1,14,-1,-1,0.783,-0.091588785,-0.406542056,1,0,0,2.726,Pegmatite_rect,6,2.726,0,14,0,14,0,1,,,,,,,,,,,,,
55d35935da14d7001295326b,TCR,2024-06-11_10h10.44.952,LearnStrategy,2023.2.3,MacIntel,59.95203837,3,1,16,0.096261682,-0.009345794,1,0,0,0.713,rock_grid_rect_2,4,14,-1,-1,0.713,-0.108411215,-0.400934579,1,0,0,7.592,Pegmatite_rect,6,7.592,0,15,0,15,0,1,,,,,,,,,,,,,
55d35935da14d7001295326b,TCR,2024-06-11_10h10.44.952,LearnStrategy,2023.2.3,MacIntel,59.95203837,3,2,1,,,,,,,,5,04,,,,,,,,,,,5,1.105,1,,,,,,-0.398130841,-0.403738318,1,0,0,1.105,Obsidian_rect,0,0,0,0,1,
55d35935da14d7001295326b,TCR,2024-06-11_10h10.44.952,LearnStrategy,2023.2.3,MacIntel,59.95203837,3,2,2,,,,,,,,1,02,,,,,,,,,,,1,3.139,1,,,,,,-0.385046729,-0.246728972,1,0,0,3.139,Andesite_rect,1,0,1,0,1,
55d35935da14d7001295326b,TCR,2024-06-11_10h10.44.952,LearnStrategy,2023.2.3,MacIntel,59.95203837,3,2,3,,,,,,,,6,13,,,,,,,,,,,6,2.07,1,,,,,,-0.155140187,-0.406542056,1,0,0,2.07,Pegmatite_rect,2,0,2,0,1,
55d35935da14d7001295326b,TCR,2024-06-11_10h10.44.952,LearnStrategy,2023.2.3,MacIntel,59.95203837,3,2,4,,,,,,,,7,10,,,,,,,,,,,3,2.313,0,,,,,,0.120560748,-0.239252336,1,0,0,2.313,Diorite_rect,3,0,3,0,1,
55d35935da14d7001295326b,TCR,2024-06-11_10h10.44.952,LearnStrategy,2023.2.3,MacIntel,59.95203837,3,2,5,,,,,,,,4,11,,,,,,,,,,,4,1.1,1,,,,,,0.362616822,-0.256074766,1,0,0,1.1,Gabbro_rect,4,0,4,0,1,
55d35935da14d7001295326b,TCR,2024-06-11_10h10.44.952,LearnStrategy,2023.2.3,MacIntel,59.95203837,3,2,6,,,,,,,,2,01,,,,,,,,,,,2,0.97,1,,,,,,-0.111214953,-0.251401869,1,0,0,0.97,Basalt_rect,5,0,5,0,1,
55d35935da14d7001295326b,TCR,2024-06-11_10h10.44.952,LearnStrategy,2023.2.3,MacIntel,59.95203837,3,2,7,,,,,,,,1,03,,,,,,,,,,,1,1.877,1,,,,,,-0.338317757,-0.230841121,1,0,0,1.877,Andesite_rect,6,0,6,0,1,
55d35935da14d7001295326b,TCR,2024-06-11_10h10.44.952,LearnStrategy,2023.2.3,MacIntel,59.95203837,3,2,8,,,,,,,,5,12,,,,,,,,,,,5,1.009,1,,,,,,-0.403738318,-0.413084112,1,0,0,1.009,Obsidian_rect,7,0,7,0,1,
55d35935da14d7001295326b,TCR,2024-06-11_10h10.44.952,LearnStrategy,2023.2.3,MacIntel,59.95203837,3,2,9,,,,,,,,8,02,,,,,,,,,,,8,1.005,1,,,,,,0.381308411,-0.385981308,1,0,0,1.005,Pumice_rect,8,0,8,0,1,
55d35935da14d7001295326b,TCR,2024-06-11_10h10.44.952,LearnStrategy,2023.2.3,MacIntel,59.95203837,3,2,10,,,,,,,,7,14,,,,,,,,,,,7,1.679,1,,,,,,0.129906542,-0.394392523,1,0,0,1.679,Peridotite_rect,9,0,9,0,1,
55d35935da14d7001295326b,TCR,2024-06-11_10h10.44.952,LearnStrategy,2023.2.3,MacIntel,59.95203837,3,2,11,,,,,,,,6,07,,,,,,,,,,,6,1.205,1,,,,,,-0.079439252,-0.397196262,1,0,0,1.205,Pegmatite_rect,10,0,10,0,1,
55d35935da14d7001295326b,TCR,2024-06-11_10h10.44.952,LearnStrategy,2023.2.3,MacIntel,59.95203837,3,2,12,,,,,,,,8,03,,,,,,,,,,,8,1.022,1,,,,,,0.369158879,-0.390654206,1,0,0,1.022,Pumice_rect,11,0,11,0,1,
55d35935da14d7001295326b,TCR,2024-06-11_10h10.44.952,LearnStrategy,2023.2.3,MacIntel,59.95203837,3,2,13,,,,,,,,3,12,,,,,,,,,,,3,3.43,1,,,,,,0.122429907,-0.239252336,1,0,0,3.43,Diorite_rect,12,0,12,0,1,
55d35935da14d7001295326b,TCR,2024-06-11_10h10.44.952,LearnStrategy,2023.2.3,MacIntel,59.95203837,3,2,14,,,,,,,,2,11,,,,,,,,,,,8,2.05,0,,,,,,0.406542056,-0.386915888,1,0,0,2.05,Pumice_rect,13,0,13,0,1,
55d35935da14d7001295326b,TCR,2024-06-11_10h10.44.952,LearnStrategy,2023.2.3,MacIntel,59.95203837,3,2,15,,,,,,,,4,10,,,,,,,,,,,4,3.278,1,,,,,,0.406542056,-0.246728972,1,0,0,3.278,Gabbro_rect,14,0,14,0,1,
55d35935da14d7001295326b,TCR,2024-06-11_10h10.44.952,LearnStrategy,2023.2.3,MacIntel,59.95203837,3,2,16,,,,,,,,3,13,,,,,,,,,,,3,2.826,1,,,,,,0.080373832,-0.270093458,1,0,0,2.826,Diorite_rect,15,0,15,0,1,
55d35935da14d7001295326b,TCR,2024-06-11_10h10.44.952,LearnStrategy,2023.2.3,MacIntel,59.95203837,4,1,1,0.072897196,-0.008411215,1,0,0,0.894,rock_grid_rect_2,1,10,-1,-1,0.894,-0.371028037,-0.245794393,1,0,0,6.661,Andesite_rect,1,6.661,1,0,0,0,0,1,,,,,,,,,,,,,
55d35935da14d7001295326b,TCR,2024-06-11_10h10.44.952,LearnStrategy,2023.2.3,MacIntel,59.95203837,4,1,2,0.03364486,-0.008411215,1,0,0,1.198,rock_grid_rect_2,7,08,-1,-1,1.198,0.13271028,-0.400934579,1,0,0,3.087,Peridotite_rect,7,3.087,1,1,0,1,0,1,,,,,,,,,,,,,
55d35935da14d7001295326b,TCR,2024-06-11_10h10.44.952,LearnStrategy,2023.2.3,MacIntel,59.95203837,4,1,3,0.118691589,-0.010280374,1,0,0,1.113,rock_grid_rect_2,2,02,-1,-1,1.113,-0.092523364,-0.24953271,1,0,0,1.407,Basalt_rect,2,1.407,1,2,0,2,0,1,,,,,,,,,,,,,
55d35935da14d7001295326b,TCR,2024-06-11_10h10.44.952,LearnStrategy,2023.2.3,MacIntel,59.95203837,4,1,4,0.042990654,-0.000934579,1,0,0,0.614,rock_grid_rect_2,4,08,-1,-1,0.614,-0.341121495,-0.262616822,1,0,0,4.884,Andesite_rect,1,4.884,0,3,0,3,0,1,,,,,,,,,,,,,
55d35935da14d7001295326b,TCR,2024-06-11_10h10.44.952,LearnStrategy,2023.2.3,MacIntel,59.95203837,4,1,5,0.085046729,-0.009345794,1,0,0,0.725,rock_grid_rect_2,8,16,-1,-1,0.725,0.396261682,-0.391588785,1,0,0,1.122,Pumice_rect,8,1.122,1,4,0,4,0,1,,,,,,,,,,,,,
55d35935da14d7001295326b,TCR,2024-06-11_10h10.44.952,LearnStrategy,2023.2.3,MacIntel,59.95203837,4,1,6,0.055140187,-0.001869159,1,0,0,0.762,rock_grid_rect_2,4,08,-1,-1,0.762,0.393457944,-0.246728972,1,0,0,1.663,Gabbro_rect,4,1.663,1,5,0,5,0,1,,,,,,,,,,,,,
55d35935da14d7001295326b,TCR,2024-06-11_10h10.44.952,LearnStrategy,2023.2.3,MacIntel,59.95203837,4,1,7,0.071028037,0,1,0,0,0.93,rock_grid_rect_2,2,08,-1,-1,0.93,-0.109345794,-0.24953271,1,0,0,1.376,Basalt_rect,2,1.376,1,6,0,6,0,1,,,,,,,,,,,,,
55d35935da14d7001295326b,TCR,2024-06-11_10h10.44.952,LearnStrategy,2023.2.3,MacIntel,59.95203837,4,1,8,0.069158879,0.000934579,1,0,0,0.663,rock_grid_rect_2,7,08,-1,-1,0.663,-0.389719626,-0.246728972,1,0,0,3.153,Andesite_rect,1,3.153,0,7,0,7,0,1,,,,,,,,,,,,,
55d35935da14d7001295326b,TCR,2024-06-11_10h10.44.952,LearnStrategy,2023.2.3,MacIntel,59.95203837,4,1,9,0.146728972,0.005607477,1,0,0,0.749,rock_grid_rect_2,6,09,-1,-1,0.749,-0.124299065,-0.412149533,1,0,0,1.341,Pegmatite_rect,6,1.341,1,8,0,8,0,1,,,,,,,,,,,,,
55d35935da14d7001295326b,TCR,2024-06-11_10h10.44.952,LearnStrategy,2023.2.3,MacIntel,59.95203837,4,1,10,0.13271028,0.012149533,1,0,0,0.715,rock_grid_rect_2,6,16,-1,-1,0.715,-0.110280374,-0.397196262,1,0,0,1.109,Pegmatite_rect,6,1.109,1,9,0,9,0,1,,,,,,,,,,,,,
55d35935da14d7001295326b,TCR,2024-06-11_10h10.44.952,LearnStrategy,2023.2.3,MacIntel,59.95203837,4,1,11,0.154205607,-0.010280374,1,0,0,0.613,rock_grid_rect_2,2,04,-1,-1,0.613,-0.08411215,-0.253271028,1,0,0,1.007,Basalt_rect,2,1.007,1,10,0,10,0,1,,,,,,,,,,,,,
55d35935da14d7001295326b,TCR,2024-06-11_10h10.44.952,LearnStrategy,2023.2.3,MacIntel,59.95203837,4,1,12,0.136448598,0.024299065,1,0,0,0.615,rock_grid_rect_2,1,10,-1,-1,0.615,-0.413084112,-0.270093458,1,0,0,5.933,Andesite_rect,1,5.933,1,11,0,11,0,1,,,,,,,,,,,,,
55d35935da14d7001295326b,TCR,2024-06-11_10h10.44.952,LearnStrategy,2023.2.3,MacIntel,59.95203837,4,1,13,0.14953271,-0.008411215,1,0,0,1.08,rock_grid_rect_2,3,08,-1,-1,1.08,0.130841121,-0.245794393,1,0,0,0.976,Diorite_rect,3,0.976,1,12,0,12,0,1,,,,,,,,,,,,,
55d35935da14d7001295326b,TCR,2024-06-11_10h10.44.952,LearnStrategy,2023.2.3,MacIntel,59.95203837,4,1,14,0.087850467,0.000934579,1,0,0,0.647,rock_grid_rect_2,5,06,-1,-1,0.647,-0.375700935,-0.4,1,0,0,1.186,Obsidian_rect,5,1.186,1,13,0,13,0,1,,,,,,,,,,,,,
55d35935da14d7001295326b,TCR,2024-06-11_10h10.44.952,LearnStrategy,2023.2.3,MacIntel,59.95203837,4,1,15,0.069158879,0.002803738,1,0,0,0.756,rock_grid_rect_2,3,10,-1,-1,0.756,-0.388785047,-0.242990654,1,0,0,2.635,Andesite_rect,1,2.635,0,14,0,14,0,1,,,,,,,,,,,,,
55d35935da14d7001295326b,TCR,2024-06-11_10h10.44.952,LearnStrategy,2023.2.3,MacIntel,59.95203837,4,1,16,0.134579439,-0.006542056,1,0,0,0.782,rock_grid_rect_2,7,08,-1,-1,0.782,0.16635514,-0.405607477,1,0,0,2.263,Peridotite_rect,7,2.263,1,15,0,15,0,1,,,,,,,,,,,,,
55d35935da14d7001295326b,TCR,2024-06-11_10h10.44.952,LearnStrategy,2023.2.3,MacIntel,59.95203837,4,2,1,,,,,,,,3,13,,,,,,,,,,,3,1.589,1,,,,,,0.174766355,-0.253271028,1,0,0,1.589,Diorite_rect,0,0,0,0,1,
55d35935da14d7001295326b,TCR,2024-06-11_10h10.44.952,LearnStrategy,2023.2.3,MacIntel,59.95203837,4,2,2,,,,,,,,5,08,,,,,,,,,,,5,1.039,1,,,,,,-0.434579439,-0.393457944,1,0,0,1.039,Obsidian_rect,1,0,1,0,1,
55d35935da14d7001295326b,TCR,2024-06-11_10h10.44.952,LearnStrategy,2023.2.3,MacIntel,59.95203837,4,2,3,,,,,,,,6,11,,,,,,,,,,,6,1.04,1,,,,,,-0.151401869,-0.393457944,1,0,0,1.04,Pegmatite_rect,2,0,2,0,1,
55d35935da14d7001295326b,TCR,2024-06-11_10h10.44.952,LearnStrategy,2023.2.3,MacIntel,59.95203837,4,2,4,,,,,,,,1,16,,,,,,,,,,,1,5.062,1,,,,,,-0.422429907,-0.241121495,1,0,0,5.062,Andesite_rect,3,0,3,0,1,
55d35935da14d7001295326b,TCR,2024-06-11_10h10.44.952,LearnStrategy,2023.2.3,MacIntel,59.95203837,4,2,5,,,,,,,,8,08,,,,,,,,,,,8,1.143,1,,,,,,0.393457944,-0.396261682,1,0,0,1.143,Pumice_rect,4,0,4,0,1,
55d35935da14d7001295326b,TCR,2024-06-11_10h10.44.952,LearnStrategy,2023.2.3,MacIntel,59.95203837,4,2,6,,,,,,,,2,11,,,,,,,,,,,8,1.708,0,,,,,,0.393457944,-0.396261682,1,0,0,1.708,Pumice_rect,5,0,5,0,1,
55d35935da14d7001295326b,TCR,2024-06-11_10h10.44.952,LearnStrategy,2023.2.3,MacIntel,59.95203837,4,2,7,,,,,,,,4,10,,,,,,,,,,,4,1.747,1,,,,,,0.355140187,-0.248598131,1,0,0,1.747,Gabbro_rect,6,0,6,0,1,
55d35935da14d7001295326b,TCR,2024-06-11_10h10.44.952,LearnStrategy,2023.2.3,MacIntel,59.95203837,4,2,8,,,,,,,,8,06,,,,,,,,,,,8,1.377,1,,,,,,0.399065421,-0.390654206,1,0,0,1.377,Pumice_rect,7,0,7,0,1,
55d35935da14d7001295326b,TCR,2024-06-11_10h10.44.952,LearnStrategy,2023.2.3,MacIntel,59.95203837,4,2,9,,,,,,,,4,12,,,,,,,,,,,4,1.271,1,,,,,,0.344859813,-0.243925234,1,0,0,1.271,Gabbro_rect,8,0,8,0,1,
55d35935da14d7001295326b,TCR,2024-06-11_10h10.44.952,LearnStrategy,2023.2.3,MacIntel,59.95203837,4,2,10,,,,,,,,3,15,,,,,,,,,,,3,3.36,1,,,,,,0.092523364,-0.236448598,1,0,0,3.36,Diorite_rect,9,0,9,0,1,
55d35935da14d7001295326b,TCR,2024-06-11_10h10.44.952,LearnStrategy,2023.2.3,MacIntel,59.95203837,4,2,11,,,,,,,,6,06,,,,,,,,,,,6,0.967,1,,,,,,-0.18411215,-0.397196262,1,0,0,0.967,Pegmatite_rect,10,0,10,0,1,
55d35935da14d7001295326b,TCR,2024-06-11_10h10.44.952,LearnStrategy,2023.2.3,MacIntel,59.95203837,4,2,12,,,,,,,,1,06,,,,,,,,,,,1,2.96,1,,,,,,-0.425233645,-0.251401869,1,0,0,2.96,Andesite_rect,11,0,11,0,1,
55d35935da14d7001295326b,TCR,2024-06-11_10h10.44.952,LearnStrategy,2023.2.3,MacIntel,59.95203837,4,2,13,,,,,,,,5,12,,,,,,,,,,,5,0.967,1,,,,,,-0.399065421,-0.387850467,1,0,0,0.967,Obsidian_rect,12,0,12,0,1,
55d35935da14d7001295326b,TCR,2024-06-11_10h10.44.952,LearnStrategy,2023.2.3,MacIntel,59.95203837,4,2,14,,,,,,,,7,02,,,,,,,,,,,6,1.916,0,,,,,,-0.112149533,-0.4,1,0,0,1.916,Pegmatite_rect,13,0,13,0,1,
55d35935da14d7001295326b,TCR,2024-06-11_10h10.44.952,LearnStrategy,2023.2.3,MacIntel,59.95203837,4,2,15,,,,,,,,7,10,,,,,,,,,,,7,1.524,1,,,,,,0.122429907,-0.395327103,1,0,0,1.524,Peridotite_rect,14,0,14,0,1,
55d35935da14d7001295326b,TCR,2024-06-11_10h10.44.952,LearnStrategy,2023.2.3,MacIntel,59.95203837,4,2,16,,,,,,,,2,06,,,,,,,,,,,2,1.941,1,,,,,,-0.137383178,-0.243925234,1,0,0,1.941,Basalt_rect,15,0,15,0,1,
55d35935da14d7001295326b,TCR,2024-06-11_10h10.44.952,LearnStrategy,2023.2.3,MacIntel,59.95203837,5,1,1,0.075700935,0.009345794,1,0,0,0.947,rock_grid_rect_2,6,15,-1,-1,0.947,-0.134579439,-0.396261682,1,0,0,2.244,Pegmatite_rect,6,2.244,1,0,0,0,0,1,,,,,,,,,,,,,
55d35935da14d7001295326b,TCR,2024-06-11_10h10.44.952,LearnStrategy,2023.2.3,MacIntel,59.95203837,5,1,2,0.000934579,-0.007476636,1,0,0,0.829,rock_grid_rect_2,2,10,-1,-1,0.829,-0.121495327,-0.253271028,1,0,0,1.63,Basalt_rect,2,1.63,1,1,0,1,0,1,,,,,,,,,,,,,
55d35935da14d7001295326b,TCR,2024-06-11_10h10.44.952,LearnStrategy,2023.2.3,MacIntel,59.95203837,5,1,3,0.081308411,-0.022429907,1,0,0,0.698,rock_grid_rect_2,5,11,-1,-1,0.698,-0.400934579,-0.389719626,1,0,0,1.059,Obsidian_rect,5,1.059,1,2,0,2,0,1,,,,,,,,,,,,,
55d35935da14d7001295326b,TCR,2024-06-11_10h10.44.952,LearnStrategy,2023.2.3,MacIntel,59.95203837,5,1,4,0.076635514,-0.000934579,1,0,0,0.646,rock_grid_rect_2,7,07,-1,-1,0.646,-0.392523364,-0.254205607,1,0,0,2.983,Andesite_rect,1,2.983,0,3,0,3,0,1,,,,,,,,,,,,,
55d35935da14d7001295326b,TCR,2024-06-11_10h10.44.952,LearnStrategy,2023.2.3,MacIntel,59.95203837,5,1,5,0.069158879,0.003738318,1,0,0,0.747,rock_grid_rect_2,7,05,-1,-1,0.747,-0.13271028,-0.413084112,1,0,0,1.597,Pegmatite_rect,6,1.597,0,4,0,4,0,1,,,,,,,,,,,,,
55d35935da14d7001295326b,TCR,2024-06-11_10h10.44.952,LearnStrategy,2023.2.3,MacIntel,59.95203837,5,1,6,0.047663551,-0.000934579,1,0,0,0.797,rock_grid_rect_2,7,04,-1,-1,0.797,-0.380373832,-0.256074766,1,0,0,2.261,Andesite_rect,1,2.261,0,5,0,5,0,1,,,,,,,,,,,,,
55d35935da14d7001295326b,TCR,2024-06-11_10h10.44.952,LearnStrategy,2023.2.3,MacIntel,59.95203837,5,1,7,0.043925234,0.003738318,1,0,0,0.747,rock_grid_rect_2,4,14,-1,-1,0.747,-0.356074766,-0.253271028,1,0,0,2.412,Andesite_rect,1,2.412,0,6,0,6,0,1,,,,,,,,,,,,,
55d35935da14d7001295326b,TCR,2024-06-11_10h10.44.952,LearnStrategy,2023.2.3,MacIntel,59.95203837,5,1,8,0.121495327,-0.006542056,1,0,0,0.68,rock_grid_rect_2,2,08,-1,-1,0.68,0.407476636,-0.252336449,1,0,0,1.643,Gabbro_rect,4,1.643,0,7,0,7,0,1,,,,,,,,,,,,,
55d35935da14d7001295326b,TCR,2024-06-11_10h10.44.952,LearnStrategy,2023.2.3,MacIntel,59.95203837,5,1,9,0.085046729,0.005607477,1,0,0,0.747,rock_grid_rect_2,4,16,-1,-1,0.747,0.326168224,-0.254205607,1,0,0,1.675,Gabbro_rect,4,1.675,1,8,0,8,0,1,,,,,,,,,,,,,
55d35935da14d7001295326b,TCR,2024-06-11_10h10.44.952,LearnStrategy,2023.2.3,MacIntel,59.95203837,5,1,10,0.089719626,0.005607477,1,0,0,0.697,rock_grid_rect_2,1,07,-1,-1,0.697,0.120560748,-0.244859813,1,0,0,1.399,Diorite_rect,3,1.399,0,9,0,9,0,1,,,,,,,,,,,,,
55d35935da14d7001295326b,TCR,2024-06-11_10h10.44.952,LearnStrategy,2023.2.3,MacIntel,59.95203837,5,1,11,0.065420561,-0.006542056,1,0,0,0.715,rock_grid_rect_2,2,02,-1,-1,0.715,-0.127102804,-0.259813084,1,0,0,1.275,Basalt_rect,2,1.275,1,10,0,10,0,1,,,,,,,,,,,,,
55d35935da14d7001295326b,TCR,2024-06-11_10h10.44.952,LearnStrategy,2023.2.3,MacIntel,59.95203837,5,1,12,0.036448598,-0.023364486,1,0,0,0.631,rock_grid_rect_2,6,15,-1,-1,0.631,-0.119626168,-0.400934579,1,0,0,1.175,Pegmatite_rect,6,1.175,1,11,0,11,0,1,,,,,,,,,,,,,
55d35935da14d7001295326b,TCR,2024-06-11_10h10.44.952,LearnStrategy,2023.2.3,MacIntel,59.95203837,5,1,13,0.080373832,-0.014018692,1,0,0,0.796,rock_grid_rect_2,8,13,-1,-1,0.796,0.439252336,-0.410280374,1,0,0,1.158,Pumice_rect,8,1.158,1,12,0,12,0,1,,,,,,,,,,,,,
55d35935da14d7001295326b,TCR,2024-06-11_10h10.44.952,LearnStrategy,2023.2.3,MacIntel,59.95203837,5,1,14,0.079439252,-0.023364486,1,0,0,0.647,rock_grid_rect_2,3,16,-1,-1,0.647,0.152336449,-0.247663551,1,0,0,1.475,Diorite_rect,3,1.475,1,13,0,13,0,1,,,,,,,,,,,,,
55d35935da14d7001295326b,TCR,2024-06-11_10h10.44.952,LearnStrategy,2023.2.3,MacIntel,59.95203837,5,1,15,0.028037383,-0.008411215,1,0,0,0.679,rock_grid_rect_2,2,16,-1,-1,0.679,0.389719626,-0.253271028,1,0,0,3.68,Gabbro_rect,4,3.68,0,14,0,14,0,1,,,,,,,,,,,,,
55d35935da14d7001295326b,TCR,2024-06-11_10h10.44.952,LearnStrategy,2023.2.3,MacIntel,59.95203837,5,1,16,0.100934579,-0.01588785,1,0,0,0.914,rock_grid_rect_2,1,05,-1,-1,0.914,-0.397196262,-0.254205607,1,0,0,2.459,Andesite_rect,1,2.459,1,15,0,15,0,1,,,,,,,,,,,,,
55d35935da14d7001295326b,TCR,2024-06-11_10h10.44.952,LearnStrategy,2023.2.3,MacIntel,59.95203837,5,2,1,,,,,,,,4,13,,,,,,,,,,,7,3.102,0,,,,,,0.136448598,-0.417757009,1,0,0,3.102,Peridotite_rect,0,0,0,0,1,
55d35935da14d7001295326b,TCR,2024-06-11_10h10.44.952,LearnStrategy,2023.2.3,MacIntel,59.95203837,5,2,2,,,,,,,,7,15,,,,,,,,,,,6,4.282,0,,,,,,-0.096261682,-0.398130841,1,0,0,4.282,Pegmatite_rect,1,0,1,0,1,
55d35935da14d7001295326b,TCR,2024-06-11_10h10.44.952,LearnStrategy,2023.2.3,MacIntel,59.95203837,5,2,3,,,,,,,,7,12,,,,,,,,,,,6,1.574,0,,,,,,-0.123364486,-0.388785047,1,0,0,1.574,Pegmatite_rect,2,0,2,0,1,
55d35935da14d7001295326b,TCR,2024-06-11_10h10.44.952,LearnStrategy,2023.2.3,MacIntel,59.95203837,5,2,4,,,,,,,,3,11,,,,,,,,,,,1,2.16,0,,,,,,-0.371028037,-0.251401869,1,0,0,2.16,Andesite_rect,3,0,3,0,1,
55d35935da14d7001295326b,TCR,2024-06-11_10h10.44.952,LearnStrategy,2023.2.3,MacIntel,59.95203837,5,2,5,,,,,,,,2,01,,,,,,,,,,,2,0.942,1,,,,,,-0.180373832,-0.256074766,1,0,0,0.942,Basalt_rect,4,0,4,0,1,
55d35935da14d7001295326b,TCR,2024-06-11_10h10.44.952,LearnStrategy,2023.2.3,MacIntel,59.95203837,5,2,6,,,,,,,,3,06,,,,,,,,,,,7,8.712,0,,,,,,0.146728972,-0.395327103,1,0,0,8.712,Peridotite_rect,5,0,5,0,1,
55d35935da14d7001295326b,TCR,2024-06-11_10h10.44.952,LearnStrategy,2023.2.3,MacIntel,59.95203837,5,2,7,,,,,,,,8,10,,,,,,,,,,,8,1.015,1,,,,,,0.392523364,-0.398130841,1,0,0,1.015,Pumice_rect,6,0,6,0,1,
55d35935da14d7001295326b,TCR,2024-06-11_10h10.44.952,LearnStrategy,2023.2.3,MacIntel,59.95203837,5,2,8,,,,,,,,5,14,,,,,,,,,,,5,1.062,1,,,,,,-0.394392523,-0.394392523,1,0,0,1.062,Obsidian_rect,7,0,7,0,1,
55d35935da14d7001295326b,TCR,2024-06-11_10h10.44.952,LearnStrategy,2023.2.3,MacIntel,59.95203837,5,2,9,,,,,,,,1,04,,,,,,,,,,,3,6.189,0,,,,,,0.178504673,-0.254205607,1,0,0,6.189,Diorite_rect,8,0,8,0,1,
55d35935da14d7001295326b,TCR,2024-06-11_10h10.44.952,LearnStrategy,2023.2.3,MacIntel,59.95203837,5,2,10,,,,,,,,1,03,,,,,,,,,,,1,1.653,1,,,,,,-0.371962617,-0.258878505,1,0,0,1.653,Andesite_rect,9,0,9,0,1,
55d35935da14d7001295326b,TCR,2024-06-11_10h10.44.952,LearnStrategy,2023.2.3,MacIntel,59.95203837,5,2,11,,,,,,,,4,05,,,,,,,,,,,4,2.828,1,,,,,,0.401869159,-0.240186916,1,0,0,2.828,Gabbro_rect,10,0,10,0,1,
55d35935da14d7001295326b,TCR,2024-06-11_10h10.44.952,LearnStrategy,2023.2.3,MacIntel,59.95203837,5,2,12,,,,,,,,6,07,,,,,,,,,,,6,1.083,1,,,,,,-0.174766355,-0.378504673,1,0,0,1.083,Pegmatite_rect,11,0,11,0,1,
55d35935da14d7001295326b,TCR,2024-06-11_10h10.44.952,LearnStrategy,2023.2.3,MacIntel,59.95203837,5,2,13,,,,,,,,8,15,,,,,,,,,,,8,1.091,1,,,,,,0.411214953,-0.38411215,1,0,0,1.091,Pumice_rect,12,0,12,0,1,
55d35935da14d7001295326b,TCR,2024-06-11_10h10.44.952,LearnStrategy,2023.2.3,MacIntel,59.95203837,5,2,14,,,,,,,,6,10,,,,,,,,,,,6,1.172,1,,,,,,-0.081308411,-0.396261682,1,0,0,1.172,Pegmatite_rect,13,0,13,0,1,
55d35935da14d7001295326b,TCR,2024-06-11_10h10.44.952,LearnStrategy,2023.2.3,MacIntel,59.95203837,5,2,15,,,,,,,,5,07,,,,,,,,,,,5,0.908,1,,,,,,-0.404672897,-0.378504673,1,0,0,0.908,Obsidian_rect,14,0,14,0,1,
55d35935da14d7001295326b,TCR,2024-06-11_10h10.44.952,LearnStrategy,2023.2.3,MacIntel,59.95203837,5,2,16,,,,,,,,2,12,,,,,,,,,,,8,1.206,0,,,,,,0.41588785,-0.394392523,1,0,0,1.206,Pumice_rect,15,0,15,0,1,
55d35935da14d7001295326b,TCR,2024-06-11_10h10.44.952,LearnStrategy,2023.2.3,MacIntel,59.95203837,6,1,1,-0.004672897,0.010280374,1,0,0,1.228,rock_grid_rect_2,1,07,-1,-1,1.228,0.18317757,-0.248598131,1,0,0,2.233,Diorite_rect,3,2.233,0,0,0,0,0,1,,,,,,,,,,,,,
55d35935da14d7001295326b,TCR,2024-06-11_10h10.44.952,LearnStrategy,2023.2.3,MacIntel,59.95203837,6,1,2,0.030841121,-0.023364486,1,0,0,0.762,rock_grid_rect_2,3,09,-1,-1,0.762,0.171028037,-0.252336449,1,0,0,1.208,Diorite_rect,3,1.208,1,1,0,1,0,1,,,,,,,,,,,,,
55d35935da14d7001295326b,TCR,2024-06-11_10h10.44.952,LearnStrategy,2023.2.3,MacIntel,59.95203837,6,1,3,0.043925234,0.014953271,1,0,0,0.649,rock_grid_rect_2,7,04,-1,-1,0.649,0.130841121,-0.405607477,1,0,0,2.686,Peridotite_rect,7,2.686,1,2,0,2,0,1,,,,,,,,,,,,,
55d35935da14d7001295326b,TCR,2024-06-11_10h10.44.952,LearnStrategy,2023.2.3,MacIntel,59.95203837,6,1,4,0.048598131,0.008411215,1,0,0,0.647,rock_grid_rect_2,8,14,-1,-1,0.647,0.434579439,-0.409345794,1,0,0,0.999,Pumice_rect,8,0.999,1,3,0,3,0,1,,,,,,,,,,,,,
55d35935da14d7001295326b,TCR,2024-06-11_10h10.44.952,LearnStrategy,2023.2.3,MacIntel,59.95203837,6,1,5,0.034579439,0.005607477,1,0,0,0.78,rock_grid_rect_2,3,02,-1,-1,0.78,0.126168224,-0.254205607,1,0,0,1.869,Diorite_rect,3,1.869,1,4,0,4,0,1,,,,,,,,,,,,,
55d35935da14d7001295326b,TCR,2024-06-11_10h10.44.952,LearnStrategy,2023.2.3,MacIntel,59.95203837,6,1,6,0.039252336,-0.007476636,1,0,0,0.713,rock_grid_rect_2,4,09,-1,-1,0.713,0.431775701,-0.240186916,1,0,0,3.266,Gabbro_rect,4,3.266,1,5,0,5,0,1,,,,,,,,,,,,,
55d35935da14d7001295326b,TCR,2024-06-11_10h10.44.952,LearnStrategy,2023.2.3,MacIntel,59.95203837,6,1,7,0.043925234,0.011214953,1,0,0,0.629,rock_grid_rect_2,2,09,-1,-1,0.629,-0.118691589,-0.26728972,1,0,0,1.158,Basalt_rect,2,1.158,1,6,0,6,0,1,,,,,,,,,,,,,
55d35935da14d7001295326b,TCR,2024-06-11_10h10.44.952,LearnStrategy,2023.2.3,MacIntel,59.95203837,6,1,8,0.026168224,0.010280374,1,0,0,0.614,rock_grid_rect_2,3,10,-1,-1,0.614,-0.38317757,-0.251401869,1,0,0,1.995,Andesite_rect,1,1.995,0,7,0,7,0,1,,,,,,,,,,,,,
55d35935da14d7001295326b,TCR,2024-06-11_10h10.44.952,LearnStrategy,2023.2.3,MacIntel,59.95203837,6,1,9,0.070093458,0,1,0,0,0.727,rock_grid_rect_2,5,10,-1,-1,0.727,-0.381308411,-0.401869159,1,0,0,1.485,Obsidian_rect,5,1.485,1,8,0,8,0,1,,,,,,,,,,,,,
55d35935da14d7001295326b,TCR,2024-06-11_10h10.44.952,LearnStrategy,2023.2.3,MacIntel,59.95203837,6,1,10,0.054205607,-0.004672897,1,0,0,0.698,rock_grid_rect_2,7,13,-1,-1,0.698,-0.137383178,-0.408411215,1,0,0,1.795,Pegmatite_rect,6,1.795,0,9,0,9,0,1,,,,,,,,,,,,,
55d35935da14d7001295326b,TCR,2024-06-11_10h10.44.952,LearnStrategy,2023.2.3,MacIntel,59.95203837,6,1,11,0.152336449,0.011214953,1,0,0,0.763,rock_grid_rect_2,6,05,-1,-1,0.763,-0.140186916,-0.396261682,1,0,0,1.643,Pegmatite_rect,6,1.643,1,10,0,10,0,1,,,,,,,,,,,,,
55d35935da14d7001295326b,TCR,2024-06-11_10h10.44.952,LearnStrategy,2023.2.3,MacIntel,59.95203837,6,1,12,0.058878505,-0.018691589,1,0,0,0.631,rock_grid_rect_2,7,06,-1,-1,0.631,0.058878505,-0.41682243,1,0,0,2.338,Peridotite_rect,7,2.338,1,11,0,11,0,1,,,,,,,,,,,,,
55d35935da14d7001295326b,TCR,2024-06-11_10h10.44.952,LearnStrategy,2023.2.3,MacIntel,59.95203837,6,1,13,0.088785047,0.011214953,1,0,0,0.982,rock_grid_rect_2,7,08,-1,-1,0.982,-0.374766355,-0.242056075,1,0,0,2.705,Andesite_rect,1,2.705,0,12,0,12,0,1,,,,,,,,,,,,,
55d35935da14d7001295326b,TCR,2024-06-11_10h10.44.952,LearnStrategy,2023.2.3,MacIntel,59.95203837,6,1,14,0.093457944,-0.003738318,1,0,0,0.682,rock_grid_rect_2,4,03,-1,-1,0.682,0.365420561,-0.259813084,1,0,0,1.56,Gabbro_rect,4,1.56,1,13,0,13,0,1,,,,,,,,,,,,,
55d35935da14d7001295326b,TCR,2024-06-11_10h10.44.952,LearnStrategy,2023.2.3,MacIntel,59.95203837,6,1,15,0.090654206,-0.010280374,1,0,0,0.715,rock_grid_rect_2,2,09,-1,-1,0.715,-0.124299065,-0.262616822,1,0,0,0.863,Basalt_rect,2,0.863,1,14,0,14,0,1,,,,,,,,,,,,,
55d35935da14d7001295326b,TCR,2024-06-11_10h10.44.952,LearnStrategy,2023.2.3,MacIntel,59.95203837,6,1,16,0.08411215,-0.000934579,1,0,0,0.582,rock_grid_rect_2,2,02,-1,-1,0.582,-0.130841121,-0.244859813,1,0,0,1.09,Basalt_rect,2,1.09,1,15,0,15,0,1,,,,,,,,,,,,,
55d35935da14d7001295326b,TCR,2024-06-11_10h10.44.952,LearnStrategy,2023.2.3,MacIntel,59.95203837,6,2,1,,,,,,,,5,09,,,,,,,,,,,5,0.981,1,,,,,,-0.36635514,-0.408411215,1,0,0,0.981,Obsidian_rect,0,0,0,0,1,
55d35935da14d7001295326b,TCR,2024-06-11_10h10.44.952,LearnStrategy,2023.2.3,MacIntel,59.95203837,6,2,2,,,,,,,,2,14,,,,,,,,,,,8,1.174,0,,,,,,0.397196262,-0.397196262,1,0,0,1.174,Pumice_rect,1,0,1,0,1,
55d35935da14d7001295326b,TCR,2024-06-11_10h10.44.952,LearnStrategy,2023.2.3,MacIntel,59.95203837,6,2,3,,,,,,,,4,15,,,,,,,,,,,1,2.896,0,,,,,,-0.38317757,-0.248598131,1,0,0,2.896,Andesite_rect,2,0,2,0,1,
55d35935da14d7001295326b,TCR,2024-06-11_10h10.44.952,LearnStrategy,2023.2.3,MacIntel,59.95203837,6,2,4,,,,,,,,6,13,,,,,,,,,,,6,1.606,1,,,,,,-0.135514019,-0.402803738,1,0,0,1.606,Pegmatite_rect,3,0,3,0,1,
55d35935da14d7001295326b,TCR,2024-06-11_10h10.44.952,LearnStrategy,2023.2.3,MacIntel,59.95203837,6,2,5,,,,,,,,4,11,,,,,,,,,,,4,2.049,1,,,,,,0.36728972,-0.252336449,1,0,0,2.049,Gabbro_rect,4,0,4,0,1,
55d35935da14d7001295326b,TCR,2024-06-11_10h10.44.952,LearnStrategy,2023.2.3,MacIntel,59.95203837,6,2,6,,,,,,,,2,05,,,,,,,,,,,2,0.966,1,,,,,,-0.104672897,-0.244859813,1,0,0,0.966,Basalt_rect,5,0,5,0,1,
55d35935da14d7001295326b,TCR,2024-06-11_10h10.44.952,LearnStrategy,2023.2.3,MacIntel,59.95203837,6,2,7,,,,,,,,1,11,,,,,,,,,,,7,4.263,0,,,,,,0.105607477,-0.390654206,1,0,0,4.263,Peridotite_rect,6,0,6,0,1,
55d35935da14d7001295326b,TCR,2024-06-11_10h10.44.952,LearnStrategy,2023.2.3,MacIntel,59.95203837,6,2,8,,,,,,,,8,02,,,,,,,,,,,8,1.033,1,,,,,,0.353271028,-0.391588785,1,0,0,1.033,Pumice_rect,7,0,7,0,1,
55d35935da14d7001295326b,TCR,2024-06-11_10h10.44.952,LearnStrategy,2023.2.3,MacIntel,59.95203837,6,2,9,,,,,,,,1,02,,,,,,,,,,,7,6.918,0,,,,,,0.072897196,-0.403738318,1,0,0,6.918,Peridotite_rect,8,0,8,0,1,
55d35935da14d7001295326b,TCR,2024-06-11_10h10.44.952,LearnStrategy,2023.2.3,MacIntel,59.95203837,6,2,10,,,,,,,,3,07,,,,,,,,,,,3,3.37,1,,,,,,0.125233645,-0.253271028,1,0,0,3.37,Diorite_rect,9,0,9,0,1,
55d35935da14d7001295326b,TCR,2024-06-11_10h10.44.952,LearnStrategy,2023.2.3,MacIntel,59.95203837,6,2,11,,,,,,,,6,03,,,,,,,,,,,6,1.106,1,,,,,,-0.131775701,-0.390654206,1,0,0,1.106,Pegmatite_rect,10,0,10,0,1,
55d35935da14d7001295326b,TCR,2024-06-11_10h10.44.952,LearnStrategy,2023.2.3,MacIntel,59.95203837,6,2,12,,,,,,,,7,14,,,,,,,,,,,7,3.138,1,,,,,,0.128037383,-0.401869159,1,0,0,3.138,Peridotite_rect,11,0,11,0,1,
55d35935da14d7001295326b,TCR,2024-06-11_10h10.44.952,LearnStrategy,2023.2.3,MacIntel,59.95203837,6,2,13,,,,,,,,5,04,,,,,,,,,,,5,1.592,1,,,,,,-0.406542056,-0.403738318,1,0,0,1.592,Obsidian_rect,12,0,12,0,1,
55d35935da14d7001295326b,TCR,2024-06-11_10h10.44.952,LearnStrategy,2023.2.3,MacIntel,59.95203837,6,2,14,,,,,,,,7,16,,,,,,,,,,,4,2.574,0,,,,,,0.398130841,-0.242056075,1,0,0,2.574,Gabbro_rect,13,0,13,0,1,
55d35935da14d7001295326b,TCR,2024-06-11_10h10.44.952,LearnStrategy,2023.2.3,MacIntel,59.95203837,6,2,15,,,,,,,,3,12,,,,,,,,,,,1,2.829,0,,,,,,-0.385046729,-0.253271028,1,0,0,2.829,Andesite_rect,14,0,14,0,1,
55d35935da14d7001295326b,TCR,2024-06-11_10h10.44.952,LearnStrategy,2023.2.3,MacIntel,59.95203837,6,2,16,,,,,,,,8,03,,,,,,,,,,,8,1.47,1,,,,,,0.387850467,-0.410280374,1,0,0,1.47,Pumice_rect,15,0,15,0,1,
55d35935da14d7001295326b,TCR,2024-06-11_10h10.44.952,LearnStrategy,2023.2.3,MacIntel,59.95203837,7,1,1,0.070093458,0.018691589,1,0,0,0.929,rock_grid_rect_2,6,12,-1,-1,0.929,-0.142990654,-0.396261682,1,0,0,1.831,Pegmatite_rect,6,1.831,1,0,0,0,0,1,,,,,,,,,,,,,
55d35935da14d7001295326b,TCR,2024-06-11_10h10.44.952,LearnStrategy,2023.2.3,MacIntel,59.95203837,7,1,2,0.101869159,0.002803738,1,0,0,1.245,rock_grid_rect_2,8,05,-1,-1,1.245,0.414018692,-0.392523364,1,0,0,1.117,Pumice_rect,8,1.117,1,1,0,1,0,1,,,,,,,,,,,,,
55d35935da14d7001295326b,TCR,2024-06-11_10h10.44.952,LearnStrategy,2023.2.3,MacIntel,59.95203837,7,1,3,0.069158879,-0.018691589,1,0,0,1.53,rock_grid_rect_2,1,05,-1,-1,1.53,-0.393457944,-0.242056075,1,0,0,2.782,Andesite_rect,1,2.782,1,2,0,2,0,1,,,,,,,,,,,,,
55d35935da14d7001295326b,TCR,2024-06-11_10h10.44.952,LearnStrategy,2023.2.3,MacIntel,59.95203837,7,1,4,0.071962617,-0.014018692,1,0,0,1.013,rock_grid_rect_2,4,16,-1,-1,1.013,0.396261682,-0.239252336,1,0,0,2.79,Gabbro_rect,4,2.79,1,3,0,3,0,1,,,,,,,,,,,,,
55d35935da14d7001295326b,TCR,2024-06-11_10h10.44.952,LearnStrategy,2023.2.3,MacIntel,59.95203837,7,1,5,0.04953271,-0.013084112,1,0,0,0.725,rock_grid_rect_2,1,07,-1,-1,0.725,-0.376635514,-0.243925234,1,0,0,2.746,Andesite_rect,1,2.746,1,4,0,4,0,1,,,,,,,,,,,,,
55d35935da14d7001295326b,TCR,2024-06-11_10h10.44.952,LearnStrategy,2023.2.3,MacIntel,59.95203837,7,1,6,0.019626168,0.009345794,1,0,0,0.705,rock_grid_rect_2,7,04,-1,-1,0.705,0.110280374,-0.404672897,1,0,0,2.404,Peridotite_rect,7,2.404,1,5,0,5,0,1,,,,,,,,,,,,,
55d35935da14d7001295326b,TCR,2024-06-11_10h10.44.952,LearnStrategy,2023.2.3,MacIntel,59.95203837,7,1,7,0.085981308,-0.008411215,1,0,0,0.98,rock_grid_rect_2,3,09,-1,-1,0.98,0.164485981,-0.25046729,1,0,0,1.8,Diorite_rect,3,1.8,1,6,0,6,0,1,,,,,,,,,,,,,
55d35935da14d7001295326b,TCR,2024-06-11_10h10.44.952,LearnStrategy,2023.2.3,MacIntel,59.95203837,7,1,8,0.052336449,0.003738318,1,0,0,0.697,rock_grid_rect_2,2,16,-1,-1,0.697,0.380373832,-0.257943925,1,0,0,1.926,Gabbro_rect,4,1.926,0,7,0,7,0,1,,,,,,,,,,,,,
55d35935da14d7001295326b,TCR,2024-06-11_10h10.44.952,LearnStrategy,2023.2.3,MacIntel,59.95203837,7,1,9,0.090654206,-0.006542056,1,0,0,0.947,rock_grid_rect_2,7,08,-1,-1,0.947,-0.33271028,-0.252336449,1,0,0,3.223,Andesite_rect,1,3.223,0,8,0,8,0,1,,,,,,,,,,,,,
55d35935da14d7001295326b,TCR,2024-06-11_10h10.44.952,LearnStrategy,2023.2.3,MacIntel,59.95203837,7,1,10,0.019626168,-0.012149533,1,0,0,0.813,rock_grid_rect_2,7,08,-1,-1,0.813,0.08317757,-0.388785047,1,0,0,0.884,Peridotite_rect,7,0.884,1,9,0,9,0,1,,,,,,,,,,,,,
55d35935da14d7001295326b,TCR,2024-06-11_10h10.44.952,LearnStrategy,2023.2.3,MacIntel,59.95203837,7,1,11,0.072897196,0.008411215,1,0,0,0.914,rock_grid_rect_2,3,09,-1,-1,0.914,0.128971963,-0.239252336,1,0,0,2.033,Diorite_rect,3,2.033,1,10,0,10,0,1,,,,,,,,,,,,,
55d35935da14d7001295326b,TCR,2024-06-11_10h10.44.952,LearnStrategy,2023.2.3,MacIntel,59.95203837,7,1,12,0.028971963,0.006542056,1,0,0,0.73,rock_grid_rect_2,3,14,-1,-1,0.73,0.179439252,-0.24953271,1,0,0,1.157,Diorite_rect,3,1.157,1,11,0,11,0,1,,,,,,,,,,,,,
55d35935da14d7001295326b,TCR,2024-06-11_10h10.44.952,LearnStrategy,2023.2.3,MacIntel,59.95203837,7,1,13,0.036448598,-0.004672897,1,0,0,0.631,rock_grid_rect_2,4,14,-1,-1,0.631,-0.374766355,-0.245794393,1,0,0,4.819,Andesite_rect,1,4.819,0,12,0,12,0,1,,,,,,,,,,,,,
55d35935da14d7001295326b,TCR,2024-06-11_10h10.44.952,LearnStrategy,2023.2.3,MacIntel,59.95203837,7,1,14,-0.007476636,-0.005607477,1,0,0,0.694,rock_grid_rect_2,1,01,-1,-1,0.694,-0.400934579,-0.246728972,1,0,0,1.93,Andesite_rect,1,1.93,1,13,0,13,0,1,,,,,,,,,,,,,
55d35935da14d7001295326b,TCR,2024-06-11_10h10.44.952,LearnStrategy,2023.2.3,MacIntel,59.95203837,7,1,15,0.031775701,-0.019626168,1,0,0,0.981,rock_grid_rect_2,2,16,-1,-1,0.981,0.356074766,-0.239252336,1,0,0,2.79,Gabbro_rect,4,2.79,0,14,0,14,0,1,,,,,,,,,,,,,
55d35935da14d7001295326b,TCR,2024-06-11_10h10.44.952,LearnStrategy,2023.2.3,MacIntel,59.95203837,7,1,16,0.086915888,-0.007476636,1,0,0,0.949,rock_grid_rect_2,2,04,-1,-1,0.949,-0.127102804,-0.245794393,1,0,0,1.191,Basalt_rect,2,1.191,1,15,0,15,0,1,,,,,,,,,,,,,
55d35935da14d7001295326b,TCR,2024-06-11_10h10.44.952,LearnStrategy,2023.2.3,MacIntel,59.95203837,7,2,1,,,,,,,,6,10,,,,,,,,,,,6,1.339,1,,,,,,-0.168224299,-0.385981308,1,0,0,1.339,Pegmatite_rect,0,0,0,0,1,
55d35935da14d7001295326b,TCR,2024-06-11_10h10.44.952,LearnStrategy,2023.2.3,MacIntel,59.95203837,7,2,2,,,,,,,,8,10,,,,,,,,,,,8,0.878,1,,,,,,0.385046729,-0.401869159,1,0,0,0.878,Pumice_rect,1,0,1,0,1,
55d35935da14d7001295326b,TCR,2024-06-11_10h10.44.952,LearnStrategy,2023.2.3,MacIntel,59.95203837,7,2,3,,,,,,,,7,15,,,,,,,,,,,7,2.03,1,,,,,,0.142056075,-0.410280374,1,0,0,2.03,Peridotite_rect,2,0,2,0,1,
55d35935da14d7001295326b,TCR,2024-06-11_10h10.44.952,LearnStrategy,2023.2.3,MacIntel,59.95203837,7,2,4,,,,,,,,1,06,,,,,,,,,,,1,1.735,1,,,,,,-0.342990654,-0.253271028,1,0,0,1.735,Andesite_rect,3,0,3,0,1,
55d35935da14d7001295326b,TCR,2024-06-11_10h10.44.952,LearnStrategy,2023.2.3,MacIntel,59.95203837,7,2,5,,,,,,,,4,11,,,,,,,,,,,4,2.589,1,,,,,,0.402803738,-0.261682243,1,0,0,2.589,Gabbro_rect,4,0,4,0,1,
55d35935da14d7001295326b,TCR,2024-06-11_10h10.44.952,LearnStrategy,2023.2.3,MacIntel,59.95203837,7,2,6,,,,,,,,5,04,,,,,,,,,,,5,1.005,1,,,,,,-0.368224299,-0.401869159,1,0,0,1.005,Obsidian_rect,5,0,5,0,1,
55d35935da14d7001295326b,TCR,2024-06-11_10h10.44.952,LearnStrategy,2023.2.3,MacIntel,59.95203837,7,2,7,,,,,,,,4,12,,,,,,,,,,,4,2.322,1,,,,,,0.378504673,-0.242056075,1,0,0,2.322,Gabbro_rect,6,0,6,0,1,
55d35935da14d7001295326b,TCR,2024-06-11_10h10.44.952,LearnStrategy,2023.2.3,MacIntel,59.95203837,7,2,8,,,,,,,,5,12,,,,,,,,,,,5,1.138,1,,,,,,-0.38317757,-0.414953271,1,0,0,1.138,Obsidian_rect,7,0,7,0,1,
55d35935da14d7001295326b,TCR,2024-06-11_10h10.44.952,LearnStrategy,2023.2.3,MacIntel,59.95203837,7,2,9,,,,,,,,2,12,,,,,,,,,,,8,1.225,0,,,,,,0.385046729,-0.397196262,1,0,0,1.225,Pumice_rect,8,0,8,0,1,
55d35935da14d7001295326b,TCR,2024-06-11_10h10.44.952,LearnStrategy,2023.2.3,MacIntel,59.95203837,7,2,10,,,,,,,,3,06,,,,,,,,,,,1,2.282,0,,,,,,-0.371028037,-0.251401869,1,0,0,2.282,Andesite_rect,9,0,9,0,1,
55d35935da14d7001295326b,TCR,2024-06-11_10h10.44.952,LearnStrategy,2023.2.3,MacIntel,59.95203837,7,2,11,,,,,,,,1,04,,,,,,,,,,,1,5.029,1,,,,,,-0.38411215,-0.242990654,1,0,0,5.029,Andesite_rect,10,0,10,0,1,
55d35935da14d7001295326b,TCR,2024-06-11_10h10.44.952,LearnStrategy,2023.2.3,MacIntel,59.95203837,7,2,12,,,,,,,,8,08,,,,,,,,,,,8,1.056,1,,,,,,0.388785047,-0.385046729,1,0,0,1.056,Pumice_rect,11,0,11,0,1,
55d35935da14d7001295326b,TCR,2024-06-11_10h10.44.952,LearnStrategy,2023.2.3,MacIntel,59.95203837,7,2,13,,,,,,,,3,07,,,,,,,,,,,3,1.253,1,,,,,,0.155140187,-0.256074766,1,0,0,1.253,Diorite_rect,12,0,12,0,1,
55d35935da14d7001295326b,TCR,2024-06-11_10h10.44.952,LearnStrategy,2023.2.3,MacIntel,59.95203837,7,2,14,,,,,,,,6,13,,,,,,,,,,,6,1.157,1,,,,,,-0.137383178,-0.397196262,1,0,0,1.157,Pegmatite_rect,13,0,13,0,1,
55d35935da14d7001295326b,TCR,2024-06-11_10h10.44.952,LearnStrategy,2023.2.3,MacIntel,59.95203837,7,2,15,,,,,,,,2,11,,,,,,,,,,,8,1.238,0,,,,,,0.348598131,-0.410280374,1,0,0,1.238,Pumice_rect,14,0,14,0,1,
55d35935da14d7001295326b,TCR,2024-06-11_10h10.44.952,LearnStrategy,2023.2.3,MacIntel,59.95203837,7,2,16,,,,,,,,7,16,,,,,,,,,,,7,5.641,1,,,,,,0.157009346,-0.408411215,1,0,0,5.641,Peridotite_rect,15,0,15,0,1,
55d35935da14d7001295326b,TCR,2024-06-11_10h10.44.952,LearnStrategy,2023.2.3,MacIntel,59.95203837,8,1,1,0.022429907,-0.013084112,1,0,0,0.779,rock_grid_rect_2,4,03,-1,-1,0.779,0.385046729,-0.234579439,1,0,0,2.005,Gabbro_rect,4,2.005,1,0,0,0,0,1,,,,,,,,,,,,,
55d35935da14d7001295326b,TCR,2024-06-11_10h10.44.952,LearnStrategy,2023.2.3,MacIntel,59.95203837,8,1,2,0.080373832,-0.008411215,1,0,0,0.847,rock_grid_rect_2,5,05,-1,-1,0.847,-0.382242991,-0.410280374,1,0,0,1.572,Obsidian_rect,5,1.572,1,1,0,1,0,1,,,,,,,,,,,,,
55d35935da14d7001295326b,TCR,2024-06-11_10h10.44.952,LearnStrategy,2023.2.3,MacIntel,59.95203837,8,1,3,0.080373832,-0.011214953,1,0,0,1.429,rock_grid_rect_2,4,14,-1,-1,1.429,-0.357009346,-0.245794393,1,0,0,5.53,Andesite_rect,1,5.53,0,2,0,2,0,1,,,,,,,,,,,,,
55d35935da14d7001295326b,TCR,2024-06-11_10h10.44.952,LearnStrategy,2023.2.3,MacIntel,59.95203837,8,1,4,0.064485981,-0.014953271,1,0,0,0.696,rock_grid_rect_2,2,09,-1,-1,0.696,0.397196262,-0.24953271,1,0,0,1.207,Gabbro_rect,4,1.207,0,3,0,3,0,1,,,,,,,,,,,,,
55d35935da14d7001295326b,TCR,2024-06-11_10h10.44.952,LearnStrategy,2023.2.3,MacIntel,59.95203837,8,1,5,0.071962617,0.013084112,1,0,0,0.674,rock_grid_rect_2,1,14,-1,-1,0.674,-0.138317757,-0.395327103,1,0,0,1.775,Pegmatite_rect,6,1.775,0,4,0,4,0,1,,,,,,,,,,,,,
55d35935da14d7001295326b,TCR,2024-06-11_10h10.44.952,LearnStrategy,2023.2.3,MacIntel,59.95203837,8,1,6,0.029906542,0.008411215,1,0,0,0.664,rock_grid_rect_2,2,10,-1,-1,0.664,-0.125233645,-0.245794393,1,0,0,1.291,Basalt_rect,2,1.291,1,5,0,5,0,1,,,,,,,,,,,,,
55d35935da14d7001295326b,TCR,2024-06-11_10h10.44.952,LearnStrategy,2023.2.3,MacIntel,59.95203837,8,1,7,0.046728972,0.011214953,1,0,0,0.58,rock_grid_rect_2,3,10,-1,-1,0.58,-0.378504673,-0.234579439,1,0,0,2.881,Andesite_rect,1,2.881,0,6,0,6,0,1,,,,,,,,,,,,,
55d35935da14d7001295326b,TCR,2024-06-11_10h10.44.952,LearnStrategy,2023.2.3,MacIntel,59.95203837,8,1,8,0.135514019,0.022429907,1,0,0,0.779,rock_grid_rect_2,8,13,-1,-1,0.779,0.354205607,-0.407476636,1,0,0,1.03,Pumice_rect,8,1.03,1,7,0,7,0,1,,,,,,,,,,,,,
55d35935da14d7001295326b,TCR,2024-06-11_10h10.44.952,LearnStrategy,2023.2.3,MacIntel,59.95203837,8,1,9,0.041121495,-0.008411215,1,0,0,1.014,rock_grid_rect_2,1,07,-1,-1,1.014,0.128971963,-0.400934579,1,0,0,5.579,Peridotite_rect,7,5.579,0,8,0,8,0,1,,,,,,,,,,,,,
55d35935da14d7001295326b,TCR,2024-06-11_10h10.44.952,LearnStrategy,2023.2.3,MacIntel,59.95203837,8,1,10,0.062616822,0.003738318,1,0,0,0.739,rock_grid_rect_2,7,05,-1,-1,0.739,-0.139252336,-0.413084112,1,0,0,1.487,Pegmatite_rect,6,1.487,0,9,0,9,0,1,,,,,,,,,,,,,
55d35935da14d7001295326b,TCR,2024-06-11_10h10.44.952,LearnStrategy,2023.2.3,MacIntel,59.95203837,8,1,11,0.123364486,-0.022429907,1,0,0,1.365,rock_grid_rect_2,3,02,-1,-1,1.365,0.136448598,-0.246728972,1,0,0,1.933,Diorite_rect,3,1.933,1,10,0,10,0,1,,,,,,,,,,,,,
55d35935da14d7001295326b,TCR,2024-06-11_10h10.44.952,LearnStrategy,2023.2.3,MacIntel,59.95203837,8,1,12,0.06728972,-0.01588785,1,0,0,0.58,rock_grid_rect_2,7,07,-1,-1,0.58,-0.324299065,-0.242056075,1,0,0,2.635,Andesite_rect,1,2.635,0,11,0,11,0,1,,,,,,,,,,,,,
55d35935da14d7001295326b,TCR,2024-06-11_10h10.44.952,LearnStrategy,2023.2.3,MacIntel,59.95203837,8,1,13,0.080373832,-0.000934579,1,0,0,0.696,rock_grid_rect_2,2,16,-1,-1,0.696,-0.14953271,-0.260747664,1,0,0,1.164,Basalt_rect,2,1.164,1,12,0,12,0,1,,,,,,,,,,,,,
55d35935da14d7001295326b,TCR,2024-06-11_10h10.44.952,LearnStrategy,2023.2.3,MacIntel,59.95203837,8,1,14,0.021495327,-0.01682243,1,0,0,0.598,rock_grid_rect_2,3,09,-1,-1,0.598,0.108411215,-0.245794393,1,0,0,1.415,Diorite_rect,3,1.415,1,13,0,13,0,1,,,,,,,,,,,,,
55d35935da14d7001295326b,TCR,2024-06-11_10h10.44.952,LearnStrategy,2023.2.3,MacIntel,59.95203837,8,1,15,0.091588785,-0.013084112,1,0,0,0.58,rock_grid_rect_2,7,07,-1,-1,0.58,0.064485981,-0.390654206,1,0,0,1.784,Peridotite_rect,7,1.784,1,14,0,14,0,1,,,,,,,,,,,,,
55d35935da14d7001295326b,TCR,2024-06-11_10h10.44.952,LearnStrategy,2023.2.3,MacIntel,59.95203837,8,1,16,0.055140187,-0.009345794,1,0,0,0.631,rock_grid_rect_2,6,09,-1,-1,0.631,-0.169158879,-0.399065421,1,0,0,1.024,Pegmatite_rect,6,1.024,1,15,0,15,0,1,,,,,,,,,,,,,
55d35935da14d7001295326b,TCR,2024-06-11_10h10.44.952,LearnStrategy,2023.2.3,MacIntel,59.95203837,8,2,1,,,,,,,,3,12,,,,,,,,,,,3,1.322,1,,,,,,0.119626168,-0.228971963,1,0,0,1.322,Diorite_rect,0,0,0,0,1,
55d35935da14d7001295326b,TCR,2024-06-11_10h10.44.952,LearnStrategy,2023.2.3,MacIntel,59.95203837,8,2,2,,,,,,,,6,11,,,,,,,,,,,6,1.153,1,,,,,,-0.088785047,-0.396261682,1,0,0,1.153,Pegmatite_rect,1,0,1,0,1,
55d35935da14d7001295326b,TCR,2024-06-11_10h10.44.952,LearnStrategy,2023.2.3,MacIntel,59.95203837,8,2,3,,,,,,,,1,03,,,,,,,,,,,1,2.034,1,,,,,,-0.374766355,-0.245794393,1,0,0,2.034,Andesite_rect,2,0,2,0,1,
55d35935da14d7001295326b,TCR,2024-06-11_10h10.44.952,LearnStrategy,2023.2.3,MacIntel,59.95203837,8,2,4,,,,,,,,5,09,,,,,,,,,,,5,1.016,1,,,,,,-0.419626168,-0.393457944,1,0,0,1.016,Obsidian_rect,3,0,3,0,1,
55d35935da14d7001295326b,TCR,2024-06-11_10h10.44.952,LearnStrategy,2023.2.3,MacIntel,59.95203837,8,2,5,,,,,,,,7,02,,,,,,,,,,,6,1.712,0,,,,,,-0.128971963,-0.4,1,0,0,1.712,Pegmatite_rect,4,0,4,0,1,
55d35935da14d7001295326b,TCR,2024-06-11_10h10.44.952,LearnStrategy,2023.2.3,MacIntel,59.95203837,8,2,6,,,,,,,,4,15,,,,,,,,,,,7,4.511,0,,,,,,0.176635514,-0.399065421,1,0,0,4.511,Peridotite_rect,5,0,5,0,1,
55d35935da14d7001295326b,TCR,2024-06-11_10h10.44.952,LearnStrategy,2023.2.3,MacIntel,59.95203837,8,2,7,,,,,,,,3,13,,,,,,,,,,,3,2.721,1,,,,,,0.157943925,-0.242056075,1,0,0,2.721,Diorite_rect,6,0,6,0,1,
55d35935da14d7001295326b,TCR,2024-06-11_10h10.44.952,LearnStrategy,2023.2.3,MacIntel,59.95203837,8,2,8,,,,,,,,5,07,,,,,,,,,,,5,0.972,1,,,,,,-0.379439252,-0.4,1,0,0,0.972,Obsidian_rect,7,0,7,0,1,
55d35935da14d7001295326b,TCR,2024-06-11_10h10.44.952,LearnStrategy,2023.2.3,MacIntel,59.95203837,8,2,9,,,,,,,,1,11,,,,,,,,,,,1,1.77,1,,,,,,-0.4,-0.248598131,1,0,0,1.77,Andesite_rect,8,0,8,0,1,
55d35935da14d7001295326b,TCR,2024-06-11_10h10.44.952,LearnStrategy,2023.2.3,MacIntel,59.95203837,8,2,10,,,,,,,,8,02,,,,,,,,,,,8,1.239,1,,,,,,0.388785047,-0.400934579,1,0,0,1.239,Pumice_rect,9,0,9,0,1,
55d35935da14d7001295326b,TCR,2024-06-11_10h10.44.952,LearnStrategy,2023.2.3,MacIntel,59.95203837,8,2,11,,,,,,,,2,06,,,,,,,,,,,2,2.848,1,,,,,,-0.125233645,-0.264485981,1,0,0,2.848,Basalt_rect,10,0,10,0,1,
55d35935da14d7001295326b,TCR,2024-06-11_10h10.44.952,LearnStrategy,2023.2.3,MacIntel,59.95203837,8,2,12,,,,,,,,4,10,,,,,,,,,,,4,3.429,1,,,,,,0.378504673,-0.242056075,1,0,0,3.429,Gabbro_rect,11,0,11,0,1,
55d35935da14d7001295326b,TCR,2024-06-11_10h10.44.952,LearnStrategy,2023.2.3,MacIntel,59.95203837,8,2,13,,,,,,,,6,03,,,,,,,,,,,6,0.939,1,,,,,,-0.113084112,-0.398130841,1,0,0,0.939,Pegmatite_rect,12,0,12,0,1,
55d35935da14d7001295326b,TCR,2024-06-11_10h10.44.952,LearnStrategy,2023.2.3,MacIntel,59.95203837,8,2,14,,,,,,,,8,03,,,,,,,,,,,8,1.139,1,,,,,,0.410280374,-0.388785047,1,0,0,1.139,Pumice_rect,13,0,13,0,1,
55d35935da14d7001295326b,TCR,2024-06-11_10h10.44.952,LearnStrategy,2023.2.3,MacIntel,59.95203837,8,2,15,,,,,,,,2,14,,,,,,,,,,,8,3.327,0,,,,,,0.38411215,-0.402803738,1,0,0,3.327,Pumice_rect,14,0,14,0,1,
55d35935da14d7001295326b,TCR,2024-06-11_10h10.44.952,LearnStrategy,2023.2.3,MacIntel,59.95203837,8,2,16,,,,,,,,7,12,,,,,,,,,,,7,4.175,1,,,,,,0.144859813,-0.396261682,1,0,0,4.175,Peridotite_rect,15,0,15,0,1,
55d35935da14d7001295326b,TCR,2024-06-11_10h10.44.952,LearnStrategy,2023.2.3,MacIntel,59.95203837,9,1,1,0.035514019,-0.013084112,1,0,0,0.765,rock_grid_rect_2,3,09,-1,-1,0.765,0.154205607,-0.25046729,1,0,0,2.002,Diorite_rect,3,2.002,1,0,0,0,0,1,,,,,,,,,,,,,
55d35935da14d7001295326b,TCR,2024-06-11_10h10.44.952,LearnStrategy,2023.2.3,MacIntel,59.95203837,9,1,2,0.118691589,0.01588785,1,0,0,0.799,rock_grid_rect_2,4,16,-1,-1,0.799,0.419626168,-0.243925234,1,0,0,1.831,Gabbro_rect,4,1.831,1,1,0,1,0,1,,,,,,,,,,,,,
55d35935da14d7001295326b,TCR,2024-06-11_10h10.44.952,LearnStrategy,2023.2.3,MacIntel,59.95203837,9,1,3,0.03271028,-0.014953271,1,0,0,0.564,rock_grid_rect_2,3,02,-1,-1,0.564,0.103738318,-0.265420561,1,0,0,1.501,Diorite_rect,3,1.501,1,2,0,2,0,1,,,,,,,,,,,,,
55d35935da14d7001295326b,TCR,2024-06-11_10h10.44.952,LearnStrategy,2023.2.3,MacIntel,59.95203837,9,1,4,0.177570093,-0.005607477,1,0,0,0.832,rock_grid_rect_2,4,14,-1,-1,0.832,0.127102804,-0.395327103,1,0,0,4.523,Peridotite_rect,7,4.523,0,3,0,3,0,1,,,,,,,,,,,,,
55d35935da14d7001295326b,TCR,2024-06-11_10h10.44.952,LearnStrategy,2023.2.3,MacIntel,59.95203837,9,1,5,0.131775701,-0.008411215,1,0,0,0.663,rock_grid_rect_2,1,01,-1,-1,0.663,-0.305607477,-0.254205607,1,0,0,1.225,Andesite_rect,1,1.225,1,4,0,4,0,1,,,,,,,,,,,,,
55d35935da14d7001295326b,TCR,2024-06-11_10h10.44.952,LearnStrategy,2023.2.3,MacIntel,59.95203837,9,1,6,0.097196262,-0.011214953,1,0,0,0.715,rock_grid_rect_2,7,08,-1,-1,0.715,0.087850467,-0.406542056,1,0,0,2.576,Peridotite_rect,7,2.576,1,5,0,5,0,1,,,,,,,,,,,,,
55d35935da14d7001295326b,TCR,2024-06-11_10h10.44.952,LearnStrategy,2023.2.3,MacIntel,59.95203837,9,1,7,0.047663551,0.014018692,1,0,0,0.748,rock_grid_rect_2,5,16,-1,-1,0.748,-0.370093458,-0.411214953,1,0,0,1.108,Obsidian_rect,5,1.108,1,6,0,6,0,1,,,,,,,,,,,,,
55d35935da14d7001295326b,TCR,2024-06-11_10h10.44.952,LearnStrategy,2023.2.3,MacIntel,59.95203837,9,1,8,0.059813084,0.014018692,1,0,0,0.73,rock_grid_rect_2,7,06,-1,-1,0.73,-0.126168224,-0.396261682,1,0,0,1.158,Pegmatite_rect,6,1.158,0,7,0,7,0,1,,,,,,,,,,,,,
55d35935da14d7001295326b,TCR,2024-06-11_10h10.44.952,LearnStrategy,2023.2.3,MacIntel,59.95203837,9,1,9,0.04953271,0.002803738,1,0,0,0.661,rock_grid_rect_2,8,05,-1,-1,0.661,0.434579439,-0.388785047,1,0,0,1.139,Pumice_rect,8,1.139,1,8,0,8,0,1,,,,,,,,,,,,,
55d35935da14d7001295326b,TCR,2024-06-11_10h10.44.952,LearnStrategy,2023.2.3,MacIntel,59.95203837,9,1,10,0.018691589,-0.009345794,1,0,0,0.647,rock_grid_rect_2,2,16,-1,-1,0.647,0.403738318,-0.255140187,1,0,0,3.025,Gabbro_rect,4,3.025,0,9,0,9,0,1,,,,,,,,,,,,,
55d35935da14d7001295326b,TCR,2024-06-11_10h10.44.952,LearnStrategy,2023.2.3,MacIntel,59.95203837,9,1,11,0.117757009,-0.024299065,1,0,0,0.68,rock_grid_rect_2,2,08,-1,-1,0.68,-0.085046729,-0.252336449,1,0,0,1.008,Basalt_rect,2,1.008,1,10,0,10,0,1,,,,,,,,,,,,,
55d35935da14d7001295326b,TCR,2024-06-11_10h10.44.952,LearnStrategy,2023.2.3,MacIntel,59.95203837,9,1,12,0.073831776,0.012149533,1,0,0,0.581,rock_grid_rect_2,2,02,-1,-1,0.581,-0.134579439,-0.256074766,1,0,0,1.371,Basalt_rect,2,1.371,1,11,0,11,0,1,,,,,,,,,,,,,
55d35935da14d7001295326b,TCR,2024-06-11_10h10.44.952,LearnStrategy,2023.2.3,MacIntel,59.95203837,9,1,13,0.035514019,-0.000934579,1,0,0,0.582,rock_grid_rect_2,1,09,-1,-1,0.582,-0.334579439,-0.230841121,1,0,0,1.952,Andesite_rect,1,1.952,1,12,0,12,0,1,,,,,,,,,,,,,
55d35935da14d7001295326b,TCR,2024-06-11_10h10.44.952,LearnStrategy,2023.2.3,MacIntel,59.95203837,9,1,14,0.104672897,0.009345794,1,0,0,0.68,rock_grid_rect_2,6,16,-1,-1,0.68,-0.148598131,-0.413084112,1,0,0,1.086,Pegmatite_rect,6,1.086,1,13,0,13,0,1,,,,,,,,,,,,,
55d35935da14d7001295326b,TCR,2024-06-11_10h10.44.952,LearnStrategy,2023.2.3,MacIntel,59.95203837,9,1,15,0.063551402,-0.003738318,1,0,0,0.631,rock_grid_rect_2,7,06,-1,-1,0.631,0.110280374,-0.404672897,1,0,0,2.106,Peridotite_rect,7,2.106,1,14,0,14,0,1,,,,,,,,,,,,,
55d35935da14d7001295326b,TCR,2024-06-11_10h10.44.952,LearnStrategy,2023.2.3,MacIntel,59.95203837,9,1,16,0.090654206,-0.023364486,1,0,0,0.697,rock_grid_rect_2,2,09,-1,-1,0.697,-0.134579439,-0.263551402,1,0,0,1.8,Basalt_rect,2,1.8,1,15,0,15,0,1,,,,,,,,,,,,,
55d35935da14d7001295326b,TCR,2024-06-11_10h10.44.952,LearnStrategy,2023.2.3,MacIntel,59.95203837,9,2,1,,,,,,,,4,05,,,,,,,,,,,4,6.776,1,,,,,,0.388785047,-0.252336449,1,0,0,6.776,Gabbro_rect,0,0,0,0,1,
55d35935da14d7001295326b,TCR,2024-06-11_10h10.44.952,LearnStrategy,2023.2.3,MacIntel,59.95203837,9,2,2,,,,,,,,3,15,,,,,,,,,,,1,2.005,0,,,,,,-0.35046729,-0.248598131,1,0,0,2.005,Andesite_rect,1,0,1,0,1,
55d35935da14d7001295326b,TCR,2024-06-11_10h10.44.952,LearnStrategy,2023.2.3,MacIntel,59.95203837,9,2,3,,,,,,,,8,15,,,,,,,,,,,8,1.002,1,,,,,,0.424299065,-0.406542056,1,0,0,1.002,Pumice_rect,2,0,2,0,1,
55d35935da14d7001295326b,TCR,2024-06-11_10h10.44.952,LearnStrategy,2023.2.3,MacIntel,59.95203837,9,2,4,,,,,,,,3,11,,,,,,,,,,,3,2.467,1,,,,,,0.158878505,-0.244859813,1,0,0,2.467,Diorite_rect,3,0,3,0,1,
55d35935da14d7001295326b,TCR,2024-06-11_10h10.44.952,LearnStrategy,2023.2.3,MacIntel,59.95203837,9,2,5,,,,,,,,5,14,,,,,,,,,,,5,1.038,1,,,,,,-0.371028037,-0.407476636,1,0,0,1.038,Obsidian_rect,4,0,4,0,1,
55d35935da14d7001295326b,TCR,2024-06-11_10h10.44.952,LearnStrategy,2023.2.3,MacIntel,59.95203837,9,2,6,,,,,,,,1,02,,,,,,,,,,,1,1.354,1,,,,,,-0.341121495,-0.256074766,1,0,0,1.354,Andesite_rect,5,0,5,0,1,
55d35935da14d7001295326b,TCR,2024-06-11_10h10.44.952,LearnStrategy,2023.2.3,MacIntel,59.95203837,9,2,7,,,,,,,,2,01,,,,,,,,,,,2,1.178,1,,,,,,-0.152336449,-0.261682243,1,0,0,1.178,Basalt_rect,6,0,6,0,1,
55d35935da14d7001295326b,TCR,2024-06-11_10h10.44.952,LearnStrategy,2023.2.3,MacIntel,59.95203837,9,2,8,,,,,,,,8,06,,,,,,,,,,,8,1.098,1,,,,,,0.381308411,-0.4,1,0,0,1.098,Pumice_rect,7,0,7,0,1,
55d35935da14d7001295326b,TCR,2024-06-11_10h10.44.952,LearnStrategy,2023.2.3,MacIntel,59.95203837,9,2,9,,,,,,,,7,14,,,,,,,,,,,7,3.732,1,,,,,,0.111214953,-0.393457944,1,0,0,3.732,Peridotite_rect,8,0,8,0,1,
55d35935da14d7001295326b,TCR,2024-06-11_10h10.44.952,LearnStrategy,2023.2.3,MacIntel,59.95203837,9,2,10,,,,,,,,2,05,,,,,,,,,,,2,3.028,1,,,,,,-0.131775701,-0.257943925,1,0,0,3.028,Basalt_rect,9,0,9,0,1,
55d35935da14d7001295326b,TCR,2024-06-11_10h10.44.952,LearnStrategy,2023.2.3,MacIntel,59.95203837,9,2,11,,,,,,,,7,10,,,,,,,,,,,7,2.468,1,,,,,,0.108411215,-0.395327103,1,0,0,2.468,Peridotite_rect,10,0,10,0,1,
55d35935da14d7001295326b,TCR,2024-06-11_10h10.44.952,LearnStrategy,2023.2.3,MacIntel,59.95203837,9,2,12,,,,,,,,4,13,,,,,,,,,,,1,2.026,0,,,,,,-0.346728972,-0.263551402,1,0,0,2.026,Andesite_rect,11,0,11,0,1,
55d35935da14d7001295326b,TCR,2024-06-11_10h10.44.952,LearnStrategy,2023.2.3,MacIntel,59.95203837,9,2,13,,,,,,,,1,16,,,,,,,,,,,1,2.774,1,,,,,,-0.346728972,-0.263551402,1,0,0,2.774,Andesite_rect,12,0,12,0,1,
55d35935da14d7001295326b,TCR,2024-06-11_10h10.44.952,LearnStrategy,2023.2.3,MacIntel,59.95203837,9,2,14,,,,,,,,6,07,,,,,,,,,,,6,0.898,1,,,,,,-0.120560748,-0.386915888,1,0,0,0.898,Pegmatite_rect,13,0,13,0,1,
55d35935da14d7001295326b,TCR,2024-06-11_10h10.44.952,LearnStrategy,2023.2.3,MacIntel,59.95203837,9,2,15,,,,,,,,6,06,,,,,,,,,,,6,1.095,1,,,,,,-0.120560748,-0.386915888,1,0,0,1.095,Pegmatite_rect,14,0,14,0,1,
55d35935da14d7001295326b,TCR,2024-06-11_10h10.44.952,LearnStrategy,2023.2.3,MacIntel,59.95203837,9,2,16,,,,,,,,5,08,,,,,,,,,,,5,0.956,1,,,,,,-0.35046729,-0.382242991,1,0,0,0.956,Obsidian_rect,15,0,15,0,1,
55d35935da14d7001295326b,TCR,2024-06-11_10h10.44.952,LearnStrategy,2023.2.3,MacIntel,59.95203837,,,,,,,,,,,,,,,,,,,,,,,,,,,,,,,,,,,,,,,,,,,1
55d35935da14d7001295326b,TCR,2024-06-11_10h10.44.952,LearnStrategy,2023.2.3,MacIntel,59.95203837,,,,,,,,,,,,,,,,,,,,,,,,,,,,,,,,,,,,,,,,,,,
55d35935da14d7001295326b,TCR,2024-06-11_10h10.44.952,LearnStrategy,2023.2.3,MacIntel,59.95203837,,,,,,,,,,,1,10,1,1,,,,,,,,,,,,,,,,,,,,,,,,,,,,,
55d35935da14d7001295326b,TCR,2024-06-11_10h10.44.952,LearnStrategy,2023.2.3,MacIntel,59.95203837,,,,,,,,,,,5,05,1,2,,,,,,,,,,,,,,,,,,,,,,,,,,,,,
55d35935da14d7001295326b,TCR,2024-06-11_10h10.44.952,LearnStrategy,2023.2.3,MacIntel,59.95203837,,,,,,,,,,,8,14,1,3,,,,,,,,,,,,,,,,,,,,,,,,,,,,,
55d35935da14d7001295326b,TCR,2024-06-11_10h10.44.952,LearnStrategy,2023.2.3,MacIntel,59.95203837,,,,,,,,,,,6,12,1,4,,,,,,,,,,,,,,,,,,,,,,,,,,,,,
55d35935da14d7001295326b,TCR,2024-06-11_10h10.44.952,LearnStrategy,2023.2.3,MacIntel,59.95203837,,,,,,,,,,,5,16,1,5,,,,,,,,,,,,,,,,,,,,,,,,,,,,,
55d35935da14d7001295326b,TCR,2024-06-11_10h10.44.952,LearnStrategy,2023.2.3,MacIntel,59.95203837,,,,,,,,,,,6,08,1,6,,,,,,,,,,,,,,,,,,,,,,,,,,,,,
55d35935da14d7001295326b,TCR,2024-06-11_10h10.44.952,LearnStrategy,2023.2.3,MacIntel,59.95203837,,,,,,,,,,,1,05,1,7,,,,,,,,,,,,,,,,,,,,,,,,,,,,,
55d35935da14d7001295326b,TCR,2024-06-11_10h10.44.952,LearnStrategy,2023.2.3,MacIntel,59.95203837,,,,,,,,,,,2,16,1,8,,,,,,,,,,,,,,,,,,,,,,,,,,,,,
55d35935da14d7001295326b,TCR,2024-06-11_10h10.44.952,LearnStrategy,2023.2.3,MacIntel,59.95203837,,,,,,,,,,,5,06,2,1,,,,,,,,,,,,,,,,,,,,,,,,,,,,,
55d35935da14d7001295326b,TCR,2024-06-11_10h10.44.952,LearnStrategy,2023.2.3,MacIntel,59.95203837,,,,,,,,,,,5,10,2,2,,,,,,,,,,,,,,,,,,,,,,,,,,,,,
55d35935da14d7001295326b,TCR,2024-06-11_10h10.44.952,LearnStrategy,2023.2.3,MacIntel,59.95203837,,,,,,,,,,,7,08,2,3,,,,,,,,,,,,,,,,,,,,,,,,,,,,,
55d35935da14d7001295326b,TCR,2024-06-11_10h10.44.952,LearnStrategy,2023.2.3,MacIntel,59.95203837,,,,,,,,,,,2,08,2,4,,,,,,,,,,,,,,,,,,,,,,,,,,,,,
55d35935da14d7001295326b,TCR,2024-06-11_10h10.44.952,LearnStrategy,2023.2.3,MacIntel,59.95203837,,,,,,,,,,,4,09,2,5,,,,,,,,,,,,,,,,,,,,,,,,,,,,,
55d35935da14d7001295326b,TCR,2024-06-11_10h10.44.952,LearnStrategy,2023.2.3,MacIntel,59.95203837,,,,,,,,,,,5,02,2,6,,,,,,,,,,,,,,,,,,,,,,,,,,,,,
55d35935da14d7001295326b,TCR,2024-06-11_10h10.44.952,LearnStrategy,2023.2.3,MacIntel,59.95203837,,,,,,,,,,,3,02,2,7,,,,,,,,,,,,,,,,,,,,,,,,,,,,,
55d35935da14d7001295326b,TCR,2024-06-11_10h10.44.952,LearnStrategy,2023.2.3,MacIntel,59.95203837,,,,,,,,,,,6,16,2,8,,,,,,,,,,,,,,,,,,,,,,,,,,,,,
55d35935da14d7001295326b,TCR,2024-06-11_10h10.44.952,LearnStrategy,2023.2.3,MacIntel,59.95203837,,,,,,,,,,,2,09,3,1,,,,,,,,,,,,,,,,,,,,,,,,,,,,,
55d35935da14d7001295326b,TCR,2024-06-11_10h10.44.952,LearnStrategy,2023.2.3,MacIntel,59.95203837,,,,,,,,,,,7,04,3,2,,,,,,,,,,,,,,,,,,,,,,,,,,,,,
55d35935da14d7001295326b,TCR,2024-06-11_10h10.44.952,LearnStrategy,2023.2.3,MacIntel,59.95203837,,,,,,,,,,,2,04,3,3,,,,,,,,,,,,,,,,,,,,,,,,,,,,,
55d35935da14d7001295326b,TCR,2024-06-11_10h10.44.952,LearnStrategy,2023.2.3,MacIntel,59.95203837,,,,,,,,,,,8,13,3,4,,,,,,,,,,,,,,,,,,,,,,,,,,,,,
55d35935da14d7001295326b,TCR,2024-06-11_10h10.44.952,LearnStrategy,2023.2.3,MacIntel,59.95203837,,,,,,,,,,,1,09,3,5,,,,,,,,,,,,,,,,,,,,,,,,,,,,,
55d35935da14d7001295326b,TCR,2024-06-11_10h10.44.952,LearnStrategy,2023.2.3,MacIntel,59.95203837,,,,,,,,,,,4,14,3,6,,,,,,,,,,,,,,,,,,,,,,,,,,,,,
55d35935da14d7001295326b,TCR,2024-06-11_10h10.44.952,LearnStrategy,2023.2.3,MacIntel,59.95203837,,,,,,,,,,,1,01,3,7,,,,,,,,,,,,,,,,,,,,,,,,,,,,,
55d35935da14d7001295326b,TCR,2024-06-11_10h10.44.952,LearnStrategy,2023.2.3,MacIntel,59.95203837,,,,,,,,,,,7,06,3,8,,,,,,,,,,,,,,,,,,,,,,,,,,,,,
55d35935da14d7001295326b,TCR,2024-06-11_10h10.44.952,LearnStrategy,2023.2.3,MacIntel,59.95203837,,,,,,,,,,,7,05,4,1,,,,,,,,,,,,,,,,,,,,,,,,,,,,,
55d35935da14d7001295326b,TCR,2024-06-11_10h10.44.952,LearnStrategy,2023.2.3,MacIntel,59.95203837,,,,,,,,,,,1,07,4,2,,,,,,,,,,,,,,,,,,,,,,,,,,,,,
55d35935da14d7001295326b,TCR,2024-06-11_10h10.44.952,LearnStrategy,2023.2.3,MacIntel,59.95203837,,,,,,,,,,,4,03,4,3,,,,,,,,,,,,,,,,,,,,,,,,,,,,,
55d35935da14d7001295326b,TCR,2024-06-11_10h10.44.952,LearnStrategy,2023.2.3,MacIntel,59.95203837,,,,,,,,,,,6,05,4,4,,,,,,,,,,,,,,,,,,,,,,,,,,,,,
55d35935da14d7001295326b,TCR,2024-06-11_10h10.44.952,LearnStrategy,2023.2.3,MacIntel,59.95203837,,,,,,,,,,,5,11,4,5,,,,,,,,,,,,,,,,,,,,,,,,,,,,,
55d35935da14d7001295326b,TCR,2024-06-11_10h10.44.952,LearnStrategy,2023.2.3,MacIntel,59.95203837,,,,,,,,,,,3,09,4,6,,,,,,,,,,,,,,,,,,,,,,,,,,,,,
55d35935da14d7001295326b,TCR,2024-06-11_10h10.44.952,LearnStrategy,2023.2.3,MacIntel,59.95203837,,,,,,,,,,,3,16,4,7,,,,,,,,,,,,,,,,,,,,,,,,,,,,,
55d35935da14d7001295326b,TCR,2024-06-11_10h10.44.952,LearnStrategy,2023.2.3,MacIntel,59.95203837,,,,,,,,,,,2,10,4,8,,,,,,,,,,,,,,,,,,,,,,,,,,,,,
55d35935da14d7001295326b,TCR,2024-06-11_10h10.44.952,LearnStrategy,2023.2.3,MacIntel,59.95203837,,,,,,,,,,,7,07,5,1,,,,,,,,,,,,,,,,,,,,,,,,,,,,,
55d35935da14d7001295326b,TCR,2024-06-11_10h10.44.952,LearnStrategy,2023.2.3,MacIntel,59.95203837,,,,,,,,,,,3,14,5,2,,,,,,,,,,,,,,,,,,,,,,,,,,,,,
55d35935da14d7001295326b,TCR,2024-06-11_10h10.44.952,LearnStrategy,2023.2.3,MacIntel,59.95203837,,,,,,,,,,,4,08,5,3,,,,,,,,,,,,,,,,,,,,,,,,,,,,,
55d35935da14d7001295326b,TCR,2024-06-11_10h10.44.952,LearnStrategy,2023.2.3,MacIntel,59.95203837,,,,,,,,,,,8,16,5,4,,,,,,,,,,,,,,,,,,,,,,,,,,,,,
55d35935da14d7001295326b,TCR,2024-06-11_10h10.44.952,LearnStrategy,2023.2.3,MacIntel,59.95203837,,,,,,,,,,,3,08,5,5,,,,,,,,,,,,,,,,,,,,,,,,,,,,,
55d35935da14d7001295326b,TCR,2024-06-11_10h10.44.952,LearnStrategy,2023.2.3,MacIntel,59.95203837,,,,,,,,,,,1,14,5,6,,,,,,,,,,,,,,,,,,,,,,,,,,,,,
55d35935da14d7001295326b,TCR,2024-06-11_10h10.44.952,LearnStrategy,2023.2.3,MacIntel,59.95203837,,,,,,,,,,,4,16,5,7,,,,,,,,,,,,,,,,,,,,,,,,,,,,,
55d35935da14d7001295326b,TCR,2024-06-11_10h10.44.952,LearnStrategy,2023.2.3,MacIntel,59.95203837,,,,,,,,,,,4,01,5,8,,,,,,,,,,,,,,,,,,,,,,,,,,,,,
55d35935da14d7001295326b,TCR,2024-06-11_10h10.44.952,LearnStrategy,2023.2.3,MacIntel,59.95203837,,,,,,,,,,,8,05,6,1,,,,,,,,,,,,,,,,,,,,,,,,,,,,,
55d35935da14d7001295326b,TCR,2024-06-11_10h10.44.952,LearnStrategy,2023.2.3,MacIntel,59.95203837,,,,,,,,,,,2,02,6,2,,,,,,,,,,,,,,,,,,,,,,,,,,,,,
55d35935da14d7001295326b,TCR,2024-06-11_10h10.44.952,LearnStrategy,2023.2.3,MacIntel,59.95203837,,,,,,,,,,,6,09,6,3,,,,,,,,,,,,,,,,,,,,,,,,,,,,,
55d35935da14d7001295326b,TCR,2024-06-11_10h10.44.952,LearnStrategy,2023.2.3,MacIntel,59.95203837,,,,,,,,,,,3,10,6,4,,,,,,,,,,,,,,,,,,,,,,,,,,,,,
55d35935da14d7001295326b,TCR,2024-06-11_10h10.44.952,LearnStrategy,2023.2.3,MacIntel,59.95203837,,,,,,,,,,,8,09,6,5,,,,,,,,,,,,,,,,,,,,,,,,,,,,,
55d35935da14d7001295326b,TCR,2024-06-11_10h10.44.952,LearnStrategy,2023.2.3,MacIntel,59.95203837,,,,,,,,,,,6,15,6,6,,,,,,,,,,,,,,,,,,,,,,,,,,,,,
55d35935da14d7001295326b,TCR,2024-06-11_10h10.44.952,LearnStrategy,2023.2.3,MacIntel,59.95203837,,,,,,,,,,,7,13,6,7,,,,,,,,,,,,,,,,,,,,,,,,,,,,,
55d35935da14d7001295326b,TCR,2024-06-11_10h10.44.952,LearnStrategy,2023.2.3,MacIntel,59.95203837,,,,,,,,,,,8,04,6,8,,,,,,,,,,,,,,,,,,,,,,,,,,,,,