participant,condition,date,expName,psychopyVersion,OS,frameRate,block,phase,trial,learn_mouse.x,learn_mouse.y,learn_mouse.leftButton,learn_mouse.midButton,learn_mouse.rightButton,learn_mouse.time,learn_mouse.clicked_name,cat,token,row,col,t_select,cat_mouse_l.x,cat_mouse_l.y,cat_mouse_l.leftButton,cat_mouse_l.midButton,cat_mouse_l.rightButton,cat_mouse_l.time,cat_mouse_l.clicked_name,resp,t_resp,corr,train_trials.thisRepN,train_trials.thisTrialN,train_trials.thisN,train_trials.thisIndex,train_trials.ran,cat_mouse_t.x,cat_mouse_t.y,cat_mouse_t.leftButton,cat_mouse_t.midButton,cat_mouse_t.rightButton,cat_mouse_t.time,cat_mouse_t.clicked_name,test_trials.thisRepN,test_trials.thisTrialN,test_trials.thisN,test_trials.thisIndex,test_trials.ran,Bonus
55d4d11258c35800113dc2ab,SCN,2024-06-25_12h46.42.014,LearnStrategy,2023.2.3,Win32,59.88023952,,,,,,,,,,,,,,,,,,,,,,,,,,,,,,,,,,,,,,,,,,,
55d4d11258c35800113dc2ab,SCN,2024-06-25_12h46.42.014,LearnStrategy,2023.2.3,Win32,59.88023952,1,1,1,-0.542592593,0.389814808,1,0,0,3.1772,Obsidian_12,5,12,6,1,3.177,0.374074187,-0.385185185,1,0,0,7.251,Pumice_rect,8,7.251,0,0,0,0,0,1,,,,,,,,,,,,,
55d4d11258c35800113dc2ab,SCN,2024-06-25_12h46.42.014,LearnStrategy,2023.2.3,Win32,59.88023952,1,1,2,-0.37962963,0.423148148,1,0,0,5.2469,Diorite_07,3,07,6,2,5.247,0.435185185,-0.387962963,1,0,0,7.2418,Pumice_rect,8,7.242,0,1,0,1,0,1,,,,,,,,,,,,,
55d4d11258c35800113dc2ab,SCN,2024-06-25_12h46.42.014,LearnStrategy,2023.2.3,Win32,59.88023952,1,1,3,0.096296296,0.386111111,1,0,0,4.8051,Gabbro_03,4,03,6,5,4.805,0.393518519,-0.238888889,1,0,0,5.4492,Gabbro_rect,4,5.449,1,2,0,2,0,1,,,,,,,,,,,,,
55d4d11258c35800113dc2ab,SCN,2024-06-25_12h46.42.014,LearnStrategy,2023.2.3,Win32,59.88023952,1,1,4,0.225,-0.277777778,1,0,0,5.5503,Pumice_08,8,08,2,6,5.55,-0.139814815,-0.231481481,1,0,0,7.0981,Basalt_rect,2,7.098,0,3,0,3,0,1,,,,,,,,,,,,,
55d4d11258c35800113dc2ab,SCN,2024-06-25_12h46.42.014,LearnStrategy,2023.2.3,Win32,59.88023952,1,1,5,0.075925926,-0.291666667,1,0,0,9.0041,Pegmatite_10,6,10,2,5,9.004,0.174074074,-0.380555556,1,0,0,4.5851,Peridotite_rect,7,4.585,0,4,0,4,0,1,,,,,,,,,,,,,
55d4d11258c35800113dc2ab,SCN,2024-06-25_12h46.42.014,LearnStrategy,2023.2.3,Win32,59.88023952,1,1,6,-0.538888889,-0.122222279,1,0,0,3.512,Pegmatite_11,6,11,3,1,3.512,-0.162037037,-0.393518519,1,0,0,4.1323,Pegmatite_rect,6,4.132,1,5,0,5,0,1,,,,,,,,,,,,,
55d4d11258c35800113dc2ab,SCN,2024-06-25_12h46.42.014,LearnStrategy,2023.2.3,Win32,59.88023952,1,1,7,0.264814815,0.427777778,1,0,0,3.7549,Obsidian_09,5,09,6,6,3.755,-0.383333333,-0.418518575,1,0,0,1.9467,Obsidian_rect,5,1.947,1,6,0,6,0,1,,,,,,,,,,,,,
55d4d11258c35800113dc2ab,SCN,2024-06-25_12h46.42.014,LearnStrategy,2023.2.3,Win32,59.88023952,1,1,8,-0.547222222,-0.419444444,1,0,0,6.3291,Gabbro_11,4,11,1,1,6.329,0.447222222,-0.267592593,1,0,0,2.1416,Gabbro_rect,4,2.142,1,7,0,7,0,1,,,,,,,,,,,,,
55d4d11258c35800113dc2ab,SCN,2024-06-25_12h46.42.014,LearnStrategy,2023.2.3,Win32,59.88023952,1,1,9,0.059259259,-0.105555556,1,0,0,4.5131,Basalt_08,2,08,3,5,4.513,0.12962963,-0.22962963,1,0,0,3.1746,Diorite_rect,3,3.175,0,8,0,8,0,1,,,,,,,,,,,,,
55d4d11258c35800113dc2ab,SCN,2024-06-25_12h46.42.014,LearnStrategy,2023.2.3,Win32,59.88023952,1,1,10,0.549074074,0.251851852,1,0,0,4.6284,Pumice_09,8,09,5,8,4.628,-0.412037037,-0.260185185,1,0,0,7.8307,Andesite_rect,1,7.831,0,9,0,9,0,1,,,,,,,,,,,,,
55d4d11258c35800113dc2ab,SCN,2024-06-25_12h46.42.014,LearnStrategy,2023.2.3,Win32,59.88023952,1,1,11,0.259259259,0.106481481,1,0,0,1.6018,Basalt_16,2,16,4,6,1.602,-0.147222222,-0.249074074,1,0,0,6.6244,Basalt_rect,2,6.624,1,10,0,10,0,1,,,,,,,,,,,,,
55d4d11258c35800113dc2ab,SCN,2024-06-25_12h46.42.014,LearnStrategy,2023.2.3,Win32,59.88023952,1,1,12,0.559259372,0.091666638,1,0,0,2.0994,Peridotite_13,7,13,4,8,2.099,0.126851852,-0.256481538,1,0,0,3.7923,Diorite_rect,3,3.792,0,11,0,11,0,1,,,,,,,,,,,,,
55d4d11258c35800113dc2ab,SCN,2024-06-25_12h46.42.014,LearnStrategy,2023.2.3,Win32,59.88023952,1,1,13,-0.100925926,-0.255555556,1,0,0,3.1155,Basalt_04,2,04,2,4,3.115,-0.144444444,-0.253703704,1,0,0,2.7608,Basalt_rect,2,2.761,1,12,0,12,0,1,,,,,,,,,,,,,
55d4d11258c35800113dc2ab,SCN,2024-06-25_12h46.42.014,LearnStrategy,2023.2.3,Win32,59.88023952,1,1,14,-0.222222222,0.241666667,1,0,0,1.9391,Andesite_02,1,02,5,3,1.939,0.12037037,-0.261111168,1,0,0,9.257,Diorite_rect,3,9.257,0,13,0,13,0,1,,,,,,,,,,,,,
55d4d11258c35800113dc2ab,SCN,2024-06-25_12h46.42.014,LearnStrategy,2023.2.3,Win32,59.88023952,1,1,15,-0.400925926,0.427777778,1,0,0,1.9953,Diorite_07,3,07,6,2,1.995,-0.366666667,-0.246296296,1,0,0,2.0728,Andesite_rect,1,2.073,0,14,0,14,0,1,,,,,,,,,,,,,
55d4d11258c35800113dc2ab,SCN,2024-06-25_12h46.42.014,LearnStrategy,2023.2.3,Win32,59.88023952,1,1,16,0.408333333,-0.237037037,1,0,0,2.9465,Andesite_07,1,07,2,7,2.947,0.128703704,-0.256481538,1,0,0,2.0891,Diorite_rect,3,2.089,0,15,0,15,0,1,,,,,,,,,,,,,
55d4d11258c35800113dc2ab,SCN,2024-06-25_12h46.42.014,LearnStrategy,2023.2.3,Win32,59.88023952,1,2,1,,,,,,,,5,08,,,,,,,,,,,5,9.314,1,,,,,,-0.380555556,-0.402777778,1,0,0,9.3136,Obsidian_rect,0,0,0,0,1,
55d4d11258c35800113dc2ab,SCN,2024-06-25_12h46.42.014,LearnStrategy,2023.2.3,Win32,59.88023952,1,2,2,,,,,,,,7,10,,,,,,,,,,,1,19.873,0,,,,,,-0.416666667,-0.269444444,1,0,0,19.8729,Andesite_rect,1,0,1,0,1,
55d4d11258c35800113dc2ab,SCN,2024-06-25_12h46.42.014,LearnStrategy,2023.2.3,Win32,59.88023952,1,2,3,,,,,,,,2,10,,,,,,,,,,,2,3.669,1,,,,,,-0.102777778,-0.269444444,1,0,0,3.6687,Basalt_rect,2,0,2,0,1,
55d4d11258c35800113dc2ab,SCN,2024-06-25_12h46.42.014,LearnStrategy,2023.2.3,Win32,59.88023952,1,2,4,,,,,,,,4,15,,,,,,,,,,,3,6.377,0,,,,,,0.173148148,-0.236111111,1,0,0,6.3772,Diorite_rect,3,0,3,0,1,
55d4d11258c35800113dc2ab,SCN,2024-06-25_12h46.42.014,LearnStrategy,2023.2.3,Win32,59.88023952,1,2,5,,,,,,,,8,16,,,,,,,,,,,8,3.505,1,,,,,,0.458333333,-0.388888889,1,0,0,3.5052,Pumice_rect,4,0,4,0,1,
55d4d11258c35800113dc2ab,SCN,2024-06-25_12h46.42.014,LearnStrategy,2023.2.3,Win32,59.88023952,1,2,6,,,,,,,,7,07,,,,,,,,,,,7,4.265,1,,,,,,0.058333333,-0.393518519,1,0,0,4.2654,Peridotite_rect,5,0,5,0,1,
55d4d11258c35800113dc2ab,SCN,2024-06-25_12h46.42.014,LearnStrategy,2023.2.3,Win32,59.88023952,1,2,7,,,,,,,,2,02,,,,,,,,,,,4,2.654,0,,,,,,0.368518519,-0.262037037,1,0,0,2.6544,Gabbro_rect,6,0,6,0,1,
55d4d11258c35800113dc2ab,SCN,2024-06-25_12h46.42.014,LearnStrategy,2023.2.3,Win32,59.88023952,1,2,8,,,,,,,,4,16,,,,,,,,,,,2,5.111,0,,,,,,-0.106481481,-0.243518519,1,0,0,5.1109,Basalt_rect,7,0,7,0,1,
55d4d11258c35800113dc2ab,SCN,2024-06-25_12h46.42.014,LearnStrategy,2023.2.3,Win32,59.88023952,1,2,9,,,,,,,,5,07,,,,,,,,,,,5,2.427,1,,,,,,-0.375,-0.400925926,1,0,0,2.4273,Obsidian_rect,8,0,8,0,1,
55d4d11258c35800113dc2ab,SCN,2024-06-25_12h46.42.014,LearnStrategy,2023.2.3,Win32,59.88023952,1,2,10,,,,,,,,3,15,,,,,,,,,,,1,6.76,0,,,,,,-0.4,-0.250925926,1,0,0,6.7604,Andesite_rect,9,0,9,0,1,
55d4d11258c35800113dc2ab,SCN,2024-06-25_12h46.42.014,LearnStrategy,2023.2.3,Win32,59.88023952,1,2,11,,,,,,,,1,01,,,,,,,,,,,1,5.018,1,,,,,,-0.409259259,-0.256481538,1,0,0,5.0181,Andesite_rect,10,0,10,0,1,
55d4d11258c35800113dc2ab,SCN,2024-06-25_12h46.42.014,LearnStrategy,2023.2.3,Win32,59.88023952,1,2,12,,,,,,,,6,16,,,,,,,,,,,6,6.18,1,,,,,,-0.087962963,-0.412037037,1,0,0,6.1803,Pegmatite_rect,11,0,11,0,1,
55d4d11258c35800113dc2ab,SCN,2024-06-25_12h46.42.014,LearnStrategy,2023.2.3,Win32,59.88023952,1,2,13,,,,,,,,6,03,,,,,,,,,,,6,4.279,1,,,,,,-0.110185185,-0.421296296,1,0,0,4.2794,Pegmatite_rect,12,0,12,0,1,
55d4d11258c35800113dc2ab,SCN,2024-06-25_12h46.42.014,LearnStrategy,2023.2.3,Win32,59.88023952,1,2,14,,,,,,,,1,16,,,,,,,,,,,1,3.858,1,,,,,,-0.381481481,-0.256481538,1,0,0,3.8579,Andesite_rect,13,0,13,0,1,
55d4d11258c35800113dc2ab,SCN,2024-06-25_12h46.42.014,LearnStrategy,2023.2.3,Win32,59.88023952,1,2,15,,,,,,,,8,02,,,,,,,,,,,8,3.008,1,,,,,,0.412037037,-0.403703704,1,0,0,3.0079,Pumice_rect,14,0,14,0,1,
55d4d11258c35800113dc2ab,SCN,2024-06-25_12h46.42.014,LearnStrategy,2023.2.3,Win32,59.88023952,1,2,16,,,,,,,,3,14,,,,,,,,,,,3,3.686,1,,,,,,0.140740741,-0.234259259,1,0,0,3.6864,Diorite_rect,15,0,15,0,1,
55d4d11258c35800113dc2ab,SCN,2024-06-25_12h46.42.014,LearnStrategy,2023.2.3,Win32,59.88023952,2,1,1,-0.219444444,0.385185178,1,0,0,5.9397,Basalt_06,2,06,6,3,5.94,0.412037037,-0.250925926,1,0,0,1.7565,Gabbro_rect,4,1.756,0,0,0,0,0,1,,,,,,,,,,,,,
55d4d11258c35800113dc2ab,SCN,2024-06-25_12h46.42.014,LearnStrategy,2023.2.3,Win32,59.88023952,2,1,2,-0.544444444,0.394444437,1,0,0,1.2592,Obsidian_12,5,12,6,1,1.259,-0.357407407,-0.386111168,1,0,0,1.9679,Obsidian_rect,5,1.968,1,1,0,1,0,1,,,,,,,,,,,,,
55d4d11258c35800113dc2ab,SCN,2024-06-25_12h46.42.014,LearnStrategy,2023.2.3,Win32,59.88023952,2,1,3,0.390740741,0.234259259,1,0,0,1.2968,Gabbro_01,4,01,5,7,1.297,-0.414814815,-0.268518519,1,0,0,7.5004,Andesite_rect,1,7.5,0,2,0,2,0,1,,,,,,,,,,,,,
55d4d11258c35800113dc2ab,SCN,2024-06-25_12h46.42.014,LearnStrategy,2023.2.3,Win32,59.88023952,2,1,4,-0.221296296,-0.421296296,1,0,0,4.6538,Pegmatite_07,6,07,1,3,4.654,-0.112962963,-0.409259316,1,0,0,3.0277,Pegmatite_rect,6,3.028,1,3,0,3,0,1,,,,,,,,,,,,,
55d4d11258c35800113dc2ab,SCN,2024-06-25_12h46.42.014,LearnStrategy,2023.2.3,Win32,59.88023952,2,1,5,0.068518519,-0.240740741,0,0,1,1.8785,Pegmatite_10,6,10,2,5,1.878,0.150925926,-0.388888889,1,0,0,1.2021,Peridotite_rect,7,1.202,0,4,0,4,0,1,,,,,,,,,,,,,
55d4d11258c35800113dc2ab,SCN,2024-06-25_12h46.42.014,LearnStrategy,2023.2.3,Win32,59.88023952,2,1,6,0.225,0.085185185,1,0,0,2.1735,Basalt_16,2,16,4,6,2.173,-0.163888889,-0.266666667,1,0,0,1.3732,Basalt_rect,2,1.373,1,5,0,5,0,1,,,,,,,,,,,,,
55d4d11258c35800113dc2ab,SCN,2024-06-25_12h46.42.014,LearnStrategy,2023.2.3,Win32,59.88023952,2,1,7,-0.237037037,0.081481481,1,0,0,1.1173,Pegmatite_06,6,06,4,3,1.117,-0.082407407,-0.406481481,1,0,0,1.5508,Pegmatite_rect,6,1.551,1,6,0,6,0,1,,,,,,,,,,,,,
55d4d11258c35800113dc2ab,SCN,2024-06-25_12h46.42.014,LearnStrategy,2023.2.3,Win32,59.88023952,2,1,8,0.238888889,-0.25462963,1,0,0,1.1012,Pumice_08,8,08,2,6,1.101,0.433333333,-0.391666667,1,0,0,1.1797,Pumice_rect,8,1.18,1,7,0,7,0,1,,,,,,,,,,,,,
55d4d11258c35800113dc2ab,SCN,2024-06-25_12h46.42.014,LearnStrategy,2023.2.3,Win32,59.88023952,2,1,9,0.526851965,0.086111111,1,0,0,1.59,Peridotite_13,7,13,4,8,1.59,0.098148148,-0.394444444,1,0,0,2.9109,Peridotite_rect,7,2.911,1,8,0,8,0,1,,,,,,,,,,,,,
55d4d11258c35800113dc2ab,SCN,2024-06-25_12h46.42.014,LearnStrategy,2023.2.3,Win32,59.88023952,2,1,10,-0.078703704,0.082407379,1,0,0,2.8074,Pumice_06,8,06,4,4,2.807,0.384259259,-0.396296296,1,0,0,2.759,Pumice_rect,8,2.759,1,9,0,9,0,1,,,,,,,,,,,,,
55d4d11258c35800113dc2ab,SCN,2024-06-25_12h46.42.014,LearnStrategy,2023.2.3,Win32,59.88023952,2,1,11,-0.555555556,0.091666638,1,0,0,1.4962,Andesite_06,1,06,4,1,1.496,0.406481595,-0.243518519,1,0,0,1.5457,Gabbro_rect,4,1.546,0,10,0,10,0,1,,,,,,,,,,,,,
55d4d11258c35800113dc2ab,SCN,2024-06-25_12h46.42.014,LearnStrategy,2023.2.3,Win32,59.88023952,2,1,12,-0.375,-0.082407407,1,0,0,1.1679,Basalt_01,2,01,3,2,1.168,-0.125925926,-0.246296296,1,0,0,1.7773,Basalt_rect,2,1.777,1,11,0,11,0,1,,,,,,,,,,,,,
55d4d11258c35800113dc2ab,SCN,2024-06-25_12h46.42.014,LearnStrategy,2023.2.3,Win32,59.88023952,2,1,13,0.547222222,-0.255555556,1,0,0,2.0468,Andesite_14,1,14,2,8,2.047,-0.113888832,-0.407407407,1,0,0,2.8952,Pegmatite_rect,6,2.895,0,12,0,12,0,1,,,,,,,,,,,,,
55d4d11258c35800113dc2ab,SCN,2024-06-25_12h46.42.014,LearnStrategy,2023.2.3,Win32,59.88023952,2,1,14,0.084259259,-0.415740741,1,0,0,1.2756,Andesite_09,1,09,1,5,1.276,0.396296296,-0.23333339,1,0,0,1.2145,Gabbro_rect,4,1.214,0,13,0,13,0,1,,,,,,,,,,,,,
55d4d11258c35800113dc2ab,SCN,2024-06-25_12h46.42.014,LearnStrategy,2023.2.3,Win32,59.88023952,2,1,15,0.067592593,0.231481481,1,0,0,4.2974,Peridotite_06,7,06,5,5,4.297,-0.121296296,-0.395370427,1,0,0,2.2096,Pegmatite_rect,6,2.21,0,14,0,14,0,1,,,,,,,,,,,,,
55d4d11258c35800113dc2ab,SCN,2024-06-25_12h46.42.014,LearnStrategy,2023.2.3,Win32,59.88023952,2,1,16,-0.219444444,-0.271296296,1,0,0,4.5164,Gabbro_09,4,09,2,3,4.516,0.137962963,-0.408333333,1,0,0,3.9237,Peridotite_rect,7,3.924,0,15,0,15,0,1,,,,,,,,,,,,,
55d4d11258c35800113dc2ab,SCN,2024-06-25_12h46.42.014,LearnStrategy,2023.2.3,Win32,59.88023952,2,2,1,,,,,,,,8,05,,,,,,,,,,,8,3.214,1,,,,,,0.401851965,-0.419444444,1,0,0,3.2135,Pumice_rect,0,0,0,0,1,
55d4d11258c35800113dc2ab,SCN,2024-06-25_12h46.42.014,LearnStrategy,2023.2.3,Win32,59.88023952,2,2,2,,,,,,,,7,02,,,,,,,,,,,1,5.416,0,,,,,,-0.373148148,-0.242592649,1,0,0,5.4165,Andesite_rect,1,0,1,0,1,
55d4d11258c35800113dc2ab,SCN,2024-06-25_12h46.42.014,LearnStrategy,2023.2.3,Win32,59.88023952,2,2,3,,,,,,,,3,08,,,,,,,,,,,3,1.325,1,,,,,,0.088888889,-0.266666667,1,0,0,1.3253,Diorite_rect,2,0,2,0,1,
55d4d11258c35800113dc2ab,SCN,2024-06-25_12h46.42.014,LearnStrategy,2023.2.3,Win32,59.88023952,2,2,4,,,,,,,,1,10,,,,,,,,,,,4,2.919,0,,,,,,0.410185185,-0.259259259,1,0,0,2.9186,Gabbro_rect,3,0,3,0,1,
55d4d11258c35800113dc2ab,SCN,2024-06-25_12h46.42.014,LearnStrategy,2023.2.3,Win32,59.88023952,2,2,5,,,,,,,,3,16,,,,,,,,,,,3,3.077,1,,,,,,0.1,-0.250925926,1,0,0,3.0765,Diorite_rect,4,0,4,0,1,
55d4d11258c35800113dc2ab,SCN,2024-06-25_12h46.42.014,LearnStrategy,2023.2.3,Win32,59.88023952,2,2,6,,,,,,,,5,06,,,,,,,,,,,2,1.689,0,,,,,,-0.140740741,-0.255555556,1,0,0,1.6887,Basalt_rect,5,0,5,0,1,
55d4d11258c35800113dc2ab,SCN,2024-06-25_12h46.42.014,LearnStrategy,2023.2.3,Win32,59.88023952,2,2,7,,,,,,,,7,12,,,,,,,,,,,3,6.101,0,,,,,,0.189814815,-0.243518519,1,0,0,6.1005,Diorite_rect,6,0,6,0,1,
55d4d11258c35800113dc2ab,SCN,2024-06-25_12h46.42.014,LearnStrategy,2023.2.3,Win32,59.88023952,2,2,8,,,,,,,,4,05,,,,,,,,,,,4,3.14,1,,,,,,0.350926039,-0.259259259,1,0,0,3.1403,Gabbro_rect,7,0,7,0,1,
55d4d11258c35800113dc2ab,SCN,2024-06-25_12h46.42.014,LearnStrategy,2023.2.3,Win32,59.88023952,2,2,9,,,,,,,,2,11,,,,,,,,,,,7,6.72,0,,,,,,0.09537037,-0.412037037,1,0,0,6.7197,Peridotite_rect,8,0,8,0,1,
55d4d11258c35800113dc2ab,SCN,2024-06-25_12h46.42.014,LearnStrategy,2023.2.3,Win32,59.88023952,2,2,10,,,,,,,,5,05,,,,,,,,,,,3,4.158,0,,,,,,0.099074074,-0.24537037,1,0,0,4.1583,Diorite_rect,9,0,9,0,1,
55d4d11258c35800113dc2ab,SCN,2024-06-25_12h46.42.014,LearnStrategy,2023.2.3,Win32,59.88023952,2,2,11,,,,,,,,6,15,,,,,,,,,,,6,2.839,1,,,,,,-0.093518519,-0.413888945,1,0,0,2.8388,Pegmatite_rect,10,0,10,0,1,
55d4d11258c35800113dc2ab,SCN,2024-06-25_12h46.42.014,LearnStrategy,2023.2.3,Win32,59.88023952,2,2,12,,,,,,,,6,09,,,,,,,,,,,6,3.986,1,,,,,,-0.113888832,-0.401851852,1,0,0,3.9856,Pegmatite_rect,11,0,11,0,1,
55d4d11258c35800113dc2ab,SCN,2024-06-25_12h46.42.014,LearnStrategy,2023.2.3,Win32,59.88023952,2,2,13,,,,,,,,2,05,,,,,,,,,,,2,3.297,1,,,,,,-0.106481481,-0.248148148,1,0,0,3.2972,Basalt_rect,12,0,12,0,1,
55d4d11258c35800113dc2ab,SCN,2024-06-25_12h46.42.014,LearnStrategy,2023.2.3,Win32,59.88023952,2,2,14,,,,,,,,8,03,,,,,,,,,,,8,1.5,1,,,,,,0.433333333,-0.392592593,1,0,0,1.5005,Pumice_rect,13,0,13,0,1,
55d4d11258c35800113dc2ab,SCN,2024-06-25_12h46.42.014,LearnStrategy,2023.2.3,Win32,59.88023952,2,2,15,,,,,,,,1,04,,,,,,,,,,,1,4.31,1,,,,,,-0.397222222,-0.262962963,1,0,0,4.3096,Andesite_rect,14,0,14,0,1,
55d4d11258c35800113dc2ab,SCN,2024-06-25_12h46.42.014,LearnStrategy,2023.2.3,Win32,59.88023952,2,2,16,,,,,,,,4,08,,,,,,,,,,,7,2.274,0,,,,,,0.149074074,-0.387037037,1,0,0,2.2738,Peridotite_rect,15,0,15,0,1,
55d4d11258c35800113dc2ab,SCN,2024-06-25_12h46.42.014,LearnStrategy,2023.2.3,Win32,59.88023952,3,1,1,-0.382407407,-0.092592593,1,0,0,1.969,Basalt_01,2,01,3,2,1.969,-0.121296296,-0.237963019,1,0,0,5.1322,Basalt_rect,2,5.132,1,0,0,0,0,1,,,,,,,,,,,,,
55d4d11258c35800113dc2ab,SCN,2024-06-25_12h46.42.014,LearnStrategy,2023.2.3,Win32,59.88023952,3,1,2,0.25,0.087962963,1,0,0,1.1207,Basalt_16,2,16,4,6,1.121,-0.113888832,-0.251851908,1,0,0,1.1678,Basalt_rect,2,1.168,1,1,0,1,0,1,,,,,,,,,,,,,
55d4d11258c35800113dc2ab,SCN,2024-06-25_12h46.42.014,LearnStrategy,2023.2.3,Win32,59.88023952,3,1,3,0.087037037,0.228703704,1,0,0,1.0501,Peridotite_06,7,06,5,5,1.05,-0.161111111,-0.401851852,1,0,0,2.353,Pegmatite_rect,6,2.353,0,2,0,2,0,1,,,,,,,,,,,,,
55d4d11258c35800113dc2ab,SCN,2024-06-25_12h46.42.014,LearnStrategy,2023.2.3,Win32,59.88023952,3,1,4,0.087962963,-0.252777778,1,0,0,2.4302,Pegmatite_10,6,10,2,5,2.43,-0.12037037,-0.394444444,1,0,0,0.9664,Pegmatite_rect,6,0.966,1,3,0,3,0,1,,,,,,,,,,,,,
55d4d11258c35800113dc2ab,SCN,2024-06-25_12h46.42.014,LearnStrategy,2023.2.3,Win32,59.88023952,3,1,5,-0.525925926,0.261111111,1,0,0,2.0491,Pegmatite_08,6,08,5,1,2.049,-0.118518462,-0.393518519,1,0,0,1.6765,Pegmatite_rect,6,1.677,1,4,0,4,0,1,,,,,,,,,,,,,
55d4d11258c35800113dc2ab,SCN,2024-06-25_12h46.42.014,LearnStrategy,2023.2.3,Win32,59.88023952,3,1,6,0.066666667,0.237037037,1,0,0,1.8622,Peridotite_06,7,06,5,5,1.862,-0.196296296,-0.403703704,1,0,0,6.1218,Pegmatite_rect,6,6.122,0,5,0,5,0,1,,,,,,,,,,,,,
55d4d11258c35800113dc2ab,SCN,2024-06-25_12h46.42.014,LearnStrategy,2023.2.3,Win32,59.88023952,3,1,7,0.540740854,-0.408333333,0,0,1,2.2282,Pumice_13,8,13,1,8,2.228,0.418518519,-0.412962963,1,0,0,1.8043,Pumice_rect,8,1.804,1,6,0,6,0,1,,,,,,,,,,,,,
55d4d11258c35800113dc2ab,SCN,2024-06-25_12h46.42.014,LearnStrategy,2023.2.3,Win32,59.88023952,3,1,8,0.383333446,-0.437962963,1,0,0,1.1284,Pumice_15,8,15,1,7,1.128,0.35462963,-0.400925926,1,0,0,1.4605,Pumice_rect,8,1.461,1,7,0,7,0,1,,,,,,,,,,,,,
55d4d11258c35800113dc2ab,SCN,2024-06-25_12h46.42.014,LearnStrategy,2023.2.3,Win32,59.88023952,3,1,9,0.248148148,-0.430555556,1,0,0,1.044,Basalt_12,2,12,1,6,1.044,0.300925926,-0.414814815,1,0,0,2.4825,Pumice_rect,8,2.482,0,8,0,8,0,1,,,,,,,,,,,,,
55d4d11258c35800113dc2ab,SCN,2024-06-25_12h46.42.014,LearnStrategy,2023.2.3,Win32,59.88023952,3,1,10,-0.231481481,-0.414814815,1,0,0,3.2302,Pegmatite_07,6,07,1,3,3.23,-0.088888889,-0.383333333,1,0,0,1.2712,Pegmatite_rect,6,1.271,1,9,0,9,0,1,,,,,,,,,,,,,
55d4d11258c35800113dc2ab,SCN,2024-06-25_12h46.42.014,LearnStrategy,2023.2.3,Win32,59.88023952,3,1,11,0.071296296,-0.403703704,0,0,1,1.0509,Andesite_09,1,09,1,5,1.051,0.119444444,-0.401851852,1,0,0,4.8587,Peridotite_rect,7,4.859,0,10,0,10,0,1,,,,,,,,,,,,,
55d4d11258c35800113dc2ab,SCN,2024-06-25_12h46.42.014,LearnStrategy,2023.2.3,Win32,59.88023952,3,1,12,-0.531481453,0.07962963,1,0,0,1.572,Andesite_06,1,06,4,1,1.572,-0.40462963,-0.249074074,1,0,0,1.6033,Andesite_rect,1,1.603,1,11,0,11,0,1,,,,,,,,,,,,,
55d4d11258c35800113dc2ab,SCN,2024-06-25_12h46.42.014,LearnStrategy,2023.2.3,Win32,59.88023952,3,1,13,0.4,0.261111111,1,0,0,1.3982,Gabbro_01,4,01,5,7,1.398,-0.366666667,-0.232407407,1,0,0,1.7482,Andesite_rect,1,1.748,0,12,0,12,0,1,,,,,,,,,,,,,
55d4d11258c35800113dc2ab,SCN,2024-06-25_12h46.42.014,LearnStrategy,2023.2.3,Win32,59.88023952,3,1,14,-0.384259259,-0.412037037,1,0,0,4.6475,Gabbro_14,4,14,1,2,4.647,-0.106481481,-0.239814815,1,0,0,1.8388,Basalt_rect,2,1.839,0,13,0,13,0,1,,,,,,,,,,,,,
55d4d11258c35800113dc2ab,SCN,2024-06-25_12h46.42.014,LearnStrategy,2023.2.3,Win32,59.88023952,3,1,15,0.232407407,0.222222222,1,0,0,1.4666,Obsidian_10,5,10,5,6,1.467,-0.421296296,-0.410185185,1,0,0,1.1119,Obsidian_rect,5,1.112,1,14,0,14,0,1,,,,,,,,,,,,,
55d4d11258c35800113dc2ab,SCN,2024-06-25_12h46.42.014,LearnStrategy,2023.2.3,Win32,59.88023952,3,1,16,0.539814815,0.258333333,1,0,0,1.4126,Pumice_09,8,09,5,8,1.413,0.40462963,-0.395370427,1,0,0,1.9986,Pumice_rect,8,1.999,1,15,0,15,0,1,,,,,,,,,,,,,
55d4d11258c35800113dc2ab,SCN,2024-06-25_12h46.42.014,LearnStrategy,2023.2.3,Win32,59.88023952,3,2,1,,,,,,,,3,12,,,,,,,,,,,1,8.136,0,,,,,,-0.378703704,-0.252777778,1,0,0,8.1364,Andesite_rect,0,0,0,0,1,
55d4d11258c35800113dc2ab,SCN,2024-06-25_12h46.42.014,LearnStrategy,2023.2.3,Win32,59.88023952,3,2,2,,,,,,,,7,15,,,,,,,,,,,1,3.89,0,,,,,,-0.378703704,-0.252777778,1,0,0,3.8896,Andesite_rect,1,0,1,0,1,
55d4d11258c35800113dc2ab,SCN,2024-06-25_12h46.42.014,LearnStrategy,2023.2.3,Win32,59.88023952,3,2,3,,,,,,,,6,13,,,,,,,,,,,6,2.886,1,,,,,,-0.117592593,-0.396296296,1,0,0,2.8858,Pegmatite_rect,2,0,2,0,1,
55d4d11258c35800113dc2ab,SCN,2024-06-25_12h46.42.014,LearnStrategy,2023.2.3,Win32,59.88023952,3,2,4,,,,,,,,3,02,,,,,,,,,,,3,2.193,1,,,,,,0.138888889,-0.262962963,1,0,0,2.1926,Diorite_rect,3,0,3,0,1,
55d4d11258c35800113dc2ab,SCN,2024-06-25_12h46.42.014,LearnStrategy,2023.2.3,Win32,59.88023952,3,2,5,,,,,,,,2,09,,,,,,,,,,,4,4.83,0,,,,,,0.413888889,-0.251851908,1,0,0,4.8304,Gabbro_rect,4,0,4,0,1,
55d4d11258c35800113dc2ab,SCN,2024-06-25_12h46.42.014,LearnStrategy,2023.2.3,Win32,59.88023952,3,2,6,,,,,,,,2,14,,,,,,,,,,,7,9.811,0,,,,,,0.14537037,-0.389814815,1,0,0,9.8114,Peridotite_rect,5,0,5,0,1,
55d4d11258c35800113dc2ab,SCN,2024-06-25_12h46.42.014,LearnStrategy,2023.2.3,Win32,59.88023952,3,2,7,,,,,,,,5,16,,,,,,,,,,,2,1.898,0,,,,,,-0.092592593,-0.258333333,1,0,0,1.8984,Basalt_rect,6,0,6,0,1,
55d4d11258c35800113dc2ab,SCN,2024-06-25_12h46.42.014,LearnStrategy,2023.2.3,Win32,59.88023952,3,2,8,,,,,,,,8,10,,,,,,,,,,,2,6.941,0,,,,,,-0.092592593,-0.258333333,1,0,0,6.9408,Basalt_rect,7,0,7,0,1,
55d4d11258c35800113dc2ab,SCN,2024-06-25_12h46.42.014,LearnStrategy,2023.2.3,Win32,59.88023952,3,2,9,,,,,,,,1,05,,,,,,,,,,,7,3.198,0,,,,,,0.087962963,-0.415740741,1,0,0,3.1985,Peridotite_rect,8,0,8,0,1,
55d4d11258c35800113dc2ab,SCN,2024-06-25_12h46.42.014,LearnStrategy,2023.2.3,Win32,59.88023952,3,2,10,,,,,,,,5,04,,,,,,,,,,,5,5.083,1,,,,,,-0.316666667,-0.419444444,1,0,0,5.0826,Obsidian_rect,9,0,9,0,1,
55d4d11258c35800113dc2ab,SCN,2024-06-25_12h46.42.014,LearnStrategy,2023.2.3,Win32,59.88023952,3,2,11,,,,,,,,4,12,,,,,,,,,,,4,1.715,1,,,,,,0.407407407,-0.237963019,1,0,0,1.715,Gabbro_rect,10,0,10,0,1,
55d4d11258c35800113dc2ab,SCN,2024-06-25_12h46.42.014,LearnStrategy,2023.2.3,Win32,59.88023952,3,2,12,,,,,,,,8,14,,,,,,,,,,,8,1.454,1,,,,,,0.390740741,-0.384259259,1,0,0,1.4537,Pumice_rect,11,0,11,0,1,
55d4d11258c35800113dc2ab,SCN,2024-06-25_12h46.42.014,LearnStrategy,2023.2.3,Win32,59.88023952,3,2,13,,,,,,,,6,05,,,,,,,,,,,7,3.443,0,,,,,,0.123148148,-0.394444444,1,0,0,3.4434,Peridotite_rect,12,0,12,0,1,
55d4d11258c35800113dc2ab,SCN,2024-06-25_12h46.42.014,LearnStrategy,2023.2.3,Win32,59.88023952,3,2,14,,,,,,,,4,13,,,,,,,,,,,7,2.78,0,,,,,,0.097222222,-0.409259316,1,0,0,2.7797,Peridotite_rect,13,0,13,0,1,
55d4d11258c35800113dc2ab,SCN,2024-06-25_12h46.42.014,LearnStrategy,2023.2.3,Win32,59.88023952,3,2,15,,,,,,,,1,03,,,,,,,,,,,1,1.815,1,,,,,,-0.378703704,-0.262037037,1,0,0,1.815,Andesite_rect,14,0,14,0,1,
55d4d11258c35800113dc2ab,SCN,2024-06-25_12h46.42.014,LearnStrategy,2023.2.3,Win32,59.88023952,3,2,16,,,,,,,,7,14,,,,,,,,,,,4,3.179,0,,,,,,0.375,-0.237963019,0,0,1,3.1789,Gabbro_rect,15,0,15,0,1,
55d4d11258c35800113dc2ab,SCN,2024-06-25_12h46.42.014,LearnStrategy,2023.2.3,Win32,59.88023952,4,1,1,-0.04537037,-0.07962963,1,0,0,1.1479,Pegmatite_12,6,12,3,4,1.148,0.057407464,-0.394444444,1,0,0,2.4016,Peridotite_rect,7,2.402,0,0,0,0,0,1,,,,,,,,,,,,,
55d4d11258c35800113dc2ab,SCN,2024-06-25_12h46.42.014,LearnStrategy,2023.2.3,Win32,59.88023952,4,1,2,0.367592593,0.243518519,1,0,0,3.9029,Gabbro_01,4,01,5,7,3.903,0.124074074,-0.394444444,1,0,0,2.3684,Peridotite_rect,7,2.368,0,1,0,1,0,1,,,,,,,,,,,,,
55d4d11258c35800113dc2ab,SCN,2024-06-25_12h46.42.014,LearnStrategy,2023.2.3,Win32,59.88023952,4,1,3,0.52962963,-0.102777778,1,0,0,1.4952,Gabbro_10,4,10,3,8,1.495,0.077777778,-0.407407407,1,0,0,2.6125,Peridotite_rect,7,2.612,0,2,0,2,0,1,,,,,,,,,,,,,
55d4d11258c35800113dc2ab,SCN,2024-06-25_12h46.42.014,LearnStrategy,2023.2.3,Win32,59.88023952,4,1,4,-0.378703704,-0.413888945,1,0,0,1.2699,Gabbro_14,4,14,1,2,1.27,0.443518632,-0.238888889,1,0,0,2.3732,Gabbro_rect,4,2.373,1,3,0,3,0,1,,,,,,,,,,,,,
55d4d11258c35800113dc2ab,SCN,2024-06-25_12h46.42.014,LearnStrategy,2023.2.3,Win32,59.88023952,4,1,5,0.075925926,0.243518519,1,0,0,1.9544,Peridotite_06,7,06,5,5,1.954,0.106481481,-0.408333333,1,0,0,3.1551,Peridotite_rect,7,3.155,1,4,0,4,0,1,,,,,,,,,,,,,
55d4d11258c35800113dc2ab,SCN,2024-06-25_12h46.42.014,LearnStrategy,2023.2.3,Win32,59.88023952,4,1,6,-0.222222222,-0.422222222,1,0,0,2.6209,Pegmatite_07,6,07,1,3,2.621,-0.125925926,-0.405555556,1,0,0,4.1923,Pegmatite_rect,6,4.192,1,5,0,5,0,1,,,,,,,,,,,,,
55d4d11258c35800113dc2ab,SCN,2024-06-25_12h46.42.014,LearnStrategy,2023.2.3,Win32,59.88023952,4,1,7,-0.053703647,0.410185185,1,0,0,1.6455,Peridotite_04,7,04,6,4,1.645,-0.112037037,-0.389814815,1,0,0,2.2347,Pegmatite_rect,6,2.235,0,6,0,6,0,1,,,,,,,,,,,,,
55d4d11258c35800113dc2ab,SCN,2024-06-25_12h46.42.014,LearnStrategy,2023.2.3,Win32,59.88023952,4,1,8,-0.07037037,-0.247222279,1,0,0,2.3503,Basalt_04,2,04,2,4,2.35,-0.115740741,-0.251851908,1,0,0,1.9064,Basalt_rect,2,1.906,1,7,0,7,0,1,,,,,,,,,,,,,
55d4d11258c35800113dc2ab,SCN,2024-06-25_12h46.42.014,LearnStrategy,2023.2.3,Win32,59.88023952,4,1,9,0.068518519,0.252777778,1,0,0,1.7129,Peridotite_06,7,06,5,5,1.713,0.146296296,-0.394444444,1,0,0,2.7908,Peridotite_rect,7,2.791,1,8,0,8,0,1,,,,,,,,,,,,,
55d4d11258c35800113dc2ab,SCN,2024-06-25_12h46.42.014,LearnStrategy,2023.2.3,Win32,59.88023952,4,1,10,0.387037037,-0.262037037,1,0,0,2.1161,Andesite_07,1,07,2,7,2.116,-0.362962963,-0.241666667,1,0,0,2.2152,Andesite_rect,1,2.215,1,9,0,9,0,1,,,,,,,,,,,,,
55d4d11258c35800113dc2ab,SCN,2024-06-25_12h46.42.014,LearnStrategy,2023.2.3,Win32,59.88023952,4,1,11,-0.383333333,0.437962963,1,0,0,2.1189,Diorite_07,3,07,6,2,2.119,-0.084259259,-0.249074074,1,0,0,2.2909,Basalt_rect,2,2.291,0,10,0,10,0,1,,,,,,,,,,,,,
55d4d11258c35800113dc2ab,SCN,2024-06-25_12h46.42.014,LearnStrategy,2023.2.3,Win32,59.88023952,4,1,12,0.356481481,-0.446296353,1,0,0,1.7145,Pumice_15,8,15,1,7,1.714,0.463888889,-0.386111168,1,0,0,1.8379,Pumice_rect,8,1.838,1,11,0,11,0,1,,,,,,,,,,,,,
55d4d11258c35800113dc2ab,SCN,2024-06-25_12h46.42.014,LearnStrategy,2023.2.3,Win32,59.88023952,4,1,13,-0.37962963,-0.271296296,1,0,0,1.7635,Peridotite_05,7,05,2,2,1.764,0.127777778,-0.415740741,1,0,0,2.5717,Peridotite_rect,7,2.572,1,12,0,12,0,1,,,,,,,,,,,,,
55d4d11258c35800113dc2ab,SCN,2024-06-25_12h46.42.014,LearnStrategy,2023.2.3,Win32,59.88023952,4,1,14,0.383333446,0.22037037,1,0,0,2.2957,Gabbro_01,4,01,5,7,2.296,0.37037037,-0.271296296,1,0,0,1.8921,Gabbro_rect,4,1.892,1,13,0,13,0,1,,,,,,,,,,,,,
55d4d11258c35800113dc2ab,SCN,2024-06-25_12h46.42.014,LearnStrategy,2023.2.3,Win32,59.88023952,4,1,15,-0.076851795,-0.414814815,1,0,0,1.4816,Diorite_13,3,13,1,4,1.482,-0.386111111,-0.240740741,1,0,0,2.4233,Andesite_rect,1,2.423,0,14,0,14,0,1,,,,,,,,,,,,,
55d4d11258c35800113dc2ab,SCN,2024-06-25_12h46.42.014,LearnStrategy,2023.2.3,Win32,59.88023952,4,1,16,0.416666667,-0.271296296,1,0,0,1.5471,Andesite_07,1,07,2,7,1.547,0.12037037,-0.262037037,1,0,0,1.3745,Diorite_rect,3,1.375,0,15,0,15,0,1,,,,,,,,,,,,,
55d4d11258c35800113dc2ab,SCN,2024-06-25_12h46.42.014,LearnStrategy,2023.2.3,Win32,59.88023952,4,2,1,,,,,,,,2,05,,,,,,,,,,,2,3.948,1,,,,,,-0.137036981,-0.252777778,1,0,0,3.9482,Basalt_rect,0,0,0,0,1,
55d4d11258c35800113dc2ab,SCN,2024-06-25_12h46.42.014,LearnStrategy,2023.2.3,Win32,59.88023952,4,2,2,,,,,,,,6,09,,,,,,,,,,,6,2.237,1,,,,,,-0.109259203,-0.412962963,1,0,0,2.2372,Pegmatite_rect,1,0,1,0,1,
55d4d11258c35800113dc2ab,SCN,2024-06-25_12h46.42.014,LearnStrategy,2023.2.3,Win32,59.88023952,4,2,3,,,,,,,,4,12,,,,,,,,,,,4,1.578,1,,,,,,0.439814815,-0.238888889,1,0,0,1.5778,Gabbro_rect,2,0,2,0,1,
55d4d11258c35800113dc2ab,SCN,2024-06-25_12h46.42.014,LearnStrategy,2023.2.3,Win32,59.88023952,4,2,4,,,,,,,,7,10,,,,,,,,,,,4,5.228,0,,,,,,0.386111111,-0.25462963,1,0,0,5.2276,Gabbro_rect,3,0,3,0,1,
55d4d11258c35800113dc2ab,SCN,2024-06-25_12h46.42.014,LearnStrategy,2023.2.3,Win32,59.88023952,4,2,5,,,,,,,,3,14,,,,,,,,,,,3,3.593,1,,,,,,0.1,-0.262962963,1,0,0,3.5929,Diorite_rect,4,0,4,0,1,
55d4d11258c35800113dc2ab,SCN,2024-06-25_12h46.42.014,LearnStrategy,2023.2.3,Win32,59.88023952,4,2,6,,,,,,,,7,12,,,,,,,,,,,1,1.665,0,,,,,,-0.387962963,-0.248148148,1,0,0,1.6648,Andesite_rect,5,0,5,0,1,
55d4d11258c35800113dc2ab,SCN,2024-06-25_12h46.42.014,LearnStrategy,2023.2.3,Win32,59.88023952,4,2,7,,,,,,,,5,04,,,,,,,,,,,5,1.96,1,,,,,,-0.401851852,-0.411111111,1,0,0,1.9604,Obsidian_rect,6,0,6,0,1,
55d4d11258c35800113dc2ab,SCN,2024-06-25_12h46.42.014,LearnStrategy,2023.2.3,Win32,59.88023952,4,2,8,,,,,,,,8,03,,,,,,,,,,,8,1.299,1,,,,,,0.420370483,-0.388888889,1,0,0,1.299,Pumice_rect,7,0,7,0,1,
55d4d11258c35800113dc2ab,SCN,2024-06-25_12h46.42.014,LearnStrategy,2023.2.3,Win32,59.88023952,4,2,9,,,,,,,,6,16,,,,,,,,,,,7,2.716,0,,,,,,0.137037037,-0.416666667,1,0,0,2.7162,Peridotite_rect,8,0,8,0,1,
55d4d11258c35800113dc2ab,SCN,2024-06-25_12h46.42.014,LearnStrategy,2023.2.3,Win32,59.88023952,4,2,10,,,,,,,,1,01,,,,,,,,,,,1,3.507,1,,,,,,-0.380555556,-0.237037037,1,0,0,3.5068,Andesite_rect,9,0,9,0,1,
55d4d11258c35800113dc2ab,SCN,2024-06-25_12h46.42.014,LearnStrategy,2023.2.3,Win32,59.88023952,4,2,11,,,,,,,,4,05,,,,,,,,,,,7,3.384,0,,,,,,0.131481481,-0.407407407,1,0,0,3.3843,Peridotite_rect,10,0,10,0,1,
55d4d11258c35800113dc2ab,SCN,2024-06-25_12h46.42.014,LearnStrategy,2023.2.3,Win32,59.88023952,4,2,12,,,,,,,,8,10,,,,,,,,,,,8,1.497,1,,,,,,0.339814815,-0.421296296,1,0,0,1.4973,Pumice_rect,11,0,11,0,1,
55d4d11258c35800113dc2ab,SCN,2024-06-25_12h46.42.014,LearnStrategy,2023.2.3,Win32,59.88023952,4,2,13,,,,,,,,2,09,,,,,,,,,,,4,1.072,0,,,,,,0.378703817,-0.247222279,1,0,0,1.0715,Gabbro_rect,12,0,12,0,1,
55d4d11258c35800113dc2ab,SCN,2024-06-25_12h46.42.014,LearnStrategy,2023.2.3,Win32,59.88023952,4,2,14,,,,,,,,1,04,,,,,,,,,,,1,3.836,1,,,,,,-0.40462963,-0.269444444,1,0,0,3.8356,Andesite_rect,13,0,13,0,1,
55d4d11258c35800113dc2ab,SCN,2024-06-25_12h46.42.014,LearnStrategy,2023.2.3,Win32,59.88023952,4,2,15,,,,,,,,5,07,,,,,,,,,,,5,3.844,1,,,,,,-0.359259259,-0.405555556,1,0,0,3.8442,Obsidian_rect,14,0,14,0,1,
55d4d11258c35800113dc2ab,SCN,2024-06-25_12h46.42.014,LearnStrategy,2023.2.3,Win32,59.88023952,4,2,16,,,,,,,,3,02,,,,,,,,,,,3,1.647,1,,,,,,0.162962963,-0.244444444,1,0,0,1.647,Diorite_rect,15,0,15,0,1,
55d4d11258c35800113dc2ab,SCN,2024-06-25_12h46.42.014,LearnStrategy,2023.2.3,Win32,59.88023952,5,1,1,0.087962963,0.062037037,1,0,0,0.8004,Andesite_11,1,11,4,5,0.8,0.103703704,-0.406481481,1,0,0,1.698,Peridotite_rect,7,1.698,0,0,0,0,0,1,,,,,,,,,,,,,
55d4d11258c35800113dc2ab,SCN,2024-06-25_12h46.42.014,LearnStrategy,2023.2.3,Win32,59.88023952,5,1,2,0.098148148,0.263888889,1,0,0,0.9359,Peridotite_06,7,06,5,5,0.936,0.125,-0.382407407,1,0,0,2.0575,Peridotite_rect,7,2.057,1,1,0,1,0,1,,,,,,,,,,,,,
55d4d11258c35800113dc2ab,SCN,2024-06-25_12h46.42.014,LearnStrategy,2023.2.3,Win32,59.88023952,5,1,3,0.24537037,-0.133333333,1,0,0,1.1307,Peridotite_08,7,08,3,6,1.131,0.086111111,-0.402777778,1,0,0,1.5574,Peridotite_rect,7,1.557,1,2,0,2,0,1,,,,,,,,,,,,,
55d4d11258c35800113dc2ab,SCN,2024-06-25_12h46.42.014,LearnStrategy,2023.2.3,Win32,59.88023952,5,1,4,-0.101851852,-0.118518519,1,0,0,0.9967,Pegmatite_12,6,12,3,4,0.997,-0.153703704,-0.402777778,1,0,0,3.4694,Pegmatite_rect,6,3.469,1,3,0,3,0,1,,,,,,,,,,,,,
55d4d11258c35800113dc2ab,SCN,2024-06-25_12h46.42.014,LearnStrategy,2023.2.3,Win32,59.88023952,5,1,5,0.388888889,-0.277777778,1,0,0,1.1773,Andesite_07,1,07,2,7,1.177,0.167592593,-0.23333339,1,0,0,1.3699,Diorite_rect,3,1.37,0,4,0,4,0,1,,,,,,,,,,,,,
55d4d11258c35800113dc2ab,SCN,2024-06-25_12h46.42.014,LearnStrategy,2023.2.3,Win32,59.88023952,5,1,6,0.387037037,0.264814815,1,0,0,1.4528,Gabbro_01,4,01,5,7,1.453,0.160185185,-0.401851852,1,0,0,2.6242,Peridotite_rect,7,2.624,0,5,0,5,0,1,,,,,,,,,,,,,
55d4d11258c35800113dc2ab,SCN,2024-06-25_12h46.42.014,LearnStrategy,2023.2.3,Win32,59.88023952,5,1,7,-0.40462963,-0.252777778,1,0,0,1.4137,Peridotite_05,7,05,2,2,1.414,0.410185185,-0.250925926,1,0,0,2.8955,Gabbro_rect,4,2.896,0,6,0,6,0,1,,,,,,,,,,,,,
55d4d11258c35800113dc2ab,SCN,2024-06-25_12h46.42.014,LearnStrategy,2023.2.3,Win32,59.88023952,5,1,8,0.561111111,0.083333333,1,0,0,2.9475,Peridotite_13,7,13,4,8,2.948,0.40462963,-0.240740741,1,0,0,2.6008,Gabbro_rect,4,2.601,0,7,0,7,0,1,,,,,,,,,,,,,
55d4d11258c35800113dc2ab,SCN,2024-06-25_12h46.42.014,LearnStrategy,2023.2.3,Win32,59.88023952,5,1,9,-0.560185185,0.080555556,1,0,0,1.0637,Andesite_06,1,06,4,1,1.064,-0.364814815,-0.244444444,1,0,0,2.2829,Andesite_rect,1,2.283,1,8,0,8,0,1,,,,,,,,,,,,,
55d4d11258c35800113dc2ab,SCN,2024-06-25_12h46.42.014,LearnStrategy,2023.2.3,Win32,59.88023952,5,1,10,-0.20462963,-0.267592593,1,0,0,1.4805,Gabbro_09,4,09,2,3,1.48,0.357407407,-0.261111168,1,0,0,3.9076,Gabbro_rect,4,3.908,1,9,0,9,0,1,,,,,,,,,,,,,
55d4d11258c35800113dc2ab,SCN,2024-06-25_12h46.42.014,LearnStrategy,2023.2.3,Win32,59.88023952,5,1,11,0.251851852,-0.410185185,1,0,0,1.9348,Basalt_12,2,12,1,6,1.935,0.405555556,-0.387037037,1,0,0,1.8536,Pumice_rect,8,1.854,0,10,0,10,0,1,,,,,,,,,,,,,
55d4d11258c35800113dc2ab,SCN,2024-06-25_12h46.42.014,LearnStrategy,2023.2.3,Win32,59.88023952,5,1,12,-0.25,0.118518519,1,0,0,2.6532,Pegmatite_06,6,06,4,3,2.653,-0.087037037,-0.401851852,1,0,0,1.402,Pegmatite_rect,6,1.402,1,11,0,11,0,1,,,,,,,,,,,,,
55d4d11258c35800113dc2ab,SCN,2024-06-25_12h46.42.014,LearnStrategy,2023.2.3,Win32,59.88023952,5,1,13,0.071296296,0.296296296,1,0,0,1.2215,Peridotite_06,7,06,5,5,1.221,0.125,-0.398148148,1,0,0,1.9934,Peridotite_rect,7,1.993,1,12,0,12,0,1,,,,,,,,,,,,,
55d4d11258c35800113dc2ab,SCN,2024-06-25_12h46.42.014,LearnStrategy,2023.2.3,Win32,59.88023952,5,1,14,0.372222222,0.212962963,1,0,0,1.3309,Gabbro_01,4,01,5,7,1.331,0.421296296,-0.236111111,1,0,0,1.5992,Gabbro_rect,4,1.599,1,13,0,13,0,1,,,,,,,,,,,,,
55d4d11258c35800113dc2ab,SCN,2024-06-25_12h46.42.014,LearnStrategy,2023.2.3,Win32,59.88023952,5,1,15,0.35,-0.435185185,1,0,0,1.9132,Pumice_15,8,15,1,7,1.913,0.424074074,-0.409259316,1,0,0,0.9871,Pumice_rect,8,0.987,1,14,0,14,0,1,,,,,,,,,,,,,
55d4d11258c35800113dc2ab,SCN,2024-06-25_12h46.42.014,LearnStrategy,2023.2.3,Win32,59.88023952,5,1,16,-0.524074074,-0.266666667,1,0,0,1.9274,Obsidian_11,5,11,2,1,1.927,-0.137962963,-0.271296296,1,0,0,1.2792,Basalt_rect,2,1.279,0,15,0,15,0,1,,,,,,,,,,,,,
55d4d11258c35800113dc2ab,SCN,2024-06-25_12h46.42.014,LearnStrategy,2023.2.3,Win32,59.88023952,5,2,1,,,,,,,,3,15,,,,,,,,,,,1,4.488,0,,,,,,-0.368518519,-0.247222279,1,0,0,4.4876,Andesite_rect,0,0,0,0,1,
55d4d11258c35800113dc2ab,SCN,2024-06-25_12h46.42.014,LearnStrategy,2023.2.3,Win32,59.88023952,5,2,2,,,,,,,,8,02,,,,,,,,,,,8,1.373,1,,,,,,0.468518519,-0.415740741,1,0,0,1.3731,Pumice_rect,1,0,1,0,1,
55d4d11258c35800113dc2ab,SCN,2024-06-25_12h46.42.014,LearnStrategy,2023.2.3,Win32,59.88023952,5,2,3,,,,,,,,3,12,,,,,,,,,,,1,5.338,0,,,,,,-0.350925926,-0.257407407,1,0,0,5.3379,Andesite_rect,2,0,2,0,1,
55d4d11258c35800113dc2ab,SCN,2024-06-25_12h46.42.014,LearnStrategy,2023.2.3,Win32,59.88023952,5,2,4,,,,,,,,5,06,,,,,,,,,,,5,1.632,1,,,,,,-0.360185185,-0.387037037,1,0,0,1.6323,Obsidian_rect,3,0,3,0,1,
55d4d11258c35800113dc2ab,SCN,2024-06-25_12h46.42.014,LearnStrategy,2023.2.3,Win32,59.88023952,5,2,5,,,,,,,,6,05,,,,,,,,,,,7,6.562,0,,,,,,0.1,-0.383333333,1,0,0,6.5615,Peridotite_rect,4,0,4,0,1,
55d4d11258c35800113dc2ab,SCN,2024-06-25_12h46.42.014,LearnStrategy,2023.2.3,Win32,59.88023952,5,2,6,,,,,,,,7,07,,,,,,,,,,,4,4.369,0,,,,,,0.362037037,-0.243518519,1,0,0,4.3692,Gabbro_rect,5,0,5,0,1,
55d4d11258c35800113dc2ab,SCN,2024-06-25_12h46.42.014,LearnStrategy,2023.2.3,Win32,59.88023952,5,2,7,,,,,,,,1,10,,,,,,,,,,,7,2.004,0,,,,,,0.211111111,-0.383333333,1,0,0,2.0041,Peridotite_rect,6,0,6,0,1,
55d4d11258c35800113dc2ab,SCN,2024-06-25_12h46.42.014,LearnStrategy,2023.2.3,Win32,59.88023952,5,2,8,,,,,,,,8,16,,,,,,,,,,,8,3.246,1,,,,,,0.438889002,-0.417592593,1,0,0,3.2465,Pumice_rect,7,0,7,0,1,
55d4d11258c35800113dc2ab,SCN,2024-06-25_12h46.42.014,LearnStrategy,2023.2.3,Win32,59.88023952,5,2,9,,,,,,,,6,15,,,,,,,,,,,6,1.628,1,,,,,,-0.131481481,-0.400925926,1,0,0,1.6275,Pegmatite_rect,8,0,8,0,1,
55d4d11258c35800113dc2ab,SCN,2024-06-25_12h46.42.014,LearnStrategy,2023.2.3,Win32,59.88023952,5,2,10,,,,,,,,2,10,,,,,,,,,,,2,2.928,1,,,,,,-0.130555556,-0.249074074,1,0,0,2.9282,Basalt_rect,9,0,9,0,1,
55d4d11258c35800113dc2ab,SCN,2024-06-25_12h46.42.014,LearnStrategy,2023.2.3,Win32,59.88023952,5,2,11,,,,,,,,1,16,,,,,,,,,,,1,3.877,1,,,,,,-0.343518519,-0.241666667,1,0,0,3.8773,Andesite_rect,10,0,10,0,1,
55d4d11258c35800113dc2ab,SCN,2024-06-25_12h46.42.014,LearnStrategy,2023.2.3,Win32,59.88023952,5,2,12,,,,,,,,4,15,,,,,,,,,,,4,6.535,1,,,,,,0.396296296,-0.244444444,1,0,0,6.5352,Gabbro_rect,11,0,11,0,1,
55d4d11258c35800113dc2ab,SCN,2024-06-25_12h46.42.014,LearnStrategy,2023.2.3,Win32,59.88023952,5,2,13,,,,,,,,4,08,,,,,,,,,,,4,2.706,1,,,,,,0.430555556,-0.259259259,1,0,0,2.706,Gabbro_rect,12,0,12,0,1,
55d4d11258c35800113dc2ab,SCN,2024-06-25_12h46.42.014,LearnStrategy,2023.2.3,Win32,59.88023952,5,2,14,,,,,,,,7,02,,,,,,,,,,,7,1.739,1,,,,,,0.130555556,-0.406481481,1,0,0,1.7387,Peridotite_rect,13,0,13,0,1,
55d4d11258c35800113dc2ab,SCN,2024-06-25_12h46.42.014,LearnStrategy,2023.2.3,Win32,59.88023952,5,2,15,,,,,,,,2,02,,,,,,,,,,,4,1.761,0,,,,,,0.412962963,-0.248148148,1,0,0,1.7614,Gabbro_rect,14,0,14,0,1,
55d4d11258c35800113dc2ab,SCN,2024-06-25_12h46.42.014,LearnStrategy,2023.2.3,Win32,59.88023952,5,2,16,,,,,,,,5,16,,,,,,,,,,,5,1.658,1,,,,,,-0.372222222,-0.387037037,1,0,0,1.6576,Obsidian_rect,15,0,15,0,1,
55d4d11258c35800113dc2ab,SCN,2024-06-25_12h46.42.014,LearnStrategy,2023.2.3,Win32,59.88023952,6,1,1,0.07037037,-0.253703704,1,0,0,3.416,Pegmatite_10,6,10,2,5,3.416,-0.140740741,-0.410185185,1,0,0,1.1817,Pegmatite_rect,6,1.182,1,0,0,0,0,1,,,,,,,,,,,,,
55d4d11258c35800113dc2ab,SCN,2024-06-25_12h46.42.014,LearnStrategy,2023.2.3,Win32,59.88023952,6,1,2,0.237962963,-0.412037037,1,0,0,2.98,Basalt_12,2,12,1,6,2.98,-0.137962963,-0.261111168,1,0,0,3.9451,Basalt_rect,2,3.945,1,1,0,1,0,1,,,,,,,,,,,,,
55d4d11258c35800113dc2ab,SCN,2024-06-25_12h46.42.014,LearnStrategy,2023.2.3,Win32,59.88023952,6,1,3,-0.539814815,-0.428703704,1,0,0,1.6782,Gabbro_11,4,11,1,1,1.678,0.428703704,-0.240740741,1,0,0,2.1705,Gabbro_rect,4,2.17,1,2,0,2,0,1,,,,,,,,,,,,,
55d4d11258c35800113dc2ab,SCN,2024-06-25_12h46.42.014,LearnStrategy,2023.2.3,Win32,59.88023952,6,1,4,0.068518519,-0.402777778,1,0,0,2.0463,Andesite_09,1,09,1,5,2.046,0.444444444,-0.253703704,1,0,0,2.1241,Gabbro_rect,4,2.124,0,3,0,3,0,1,,,,,,,,,,,,,
55d4d11258c35800113dc2ab,SCN,2024-06-25_12h46.42.014,LearnStrategy,2023.2.3,Win32,59.88023952,6,1,5,-0.538888889,-0.427777834,1,0,0,1.433,Gabbro_11,4,11,1,1,1.433,0.398148148,-0.231481481,1,0,0,3.2502,Gabbro_rect,4,3.25,1,4,0,4,0,1,,,,,,,,,,,,,
55d4d11258c35800113dc2ab,SCN,2024-06-25_12h46.42.014,LearnStrategy,2023.2.3,Win32,59.88023952,6,1,6,0.235185185,-0.418518575,0,0,1,1.8797,Basalt_12,2,12,1,6,1.88,-0.112962963,-0.243518519,1,0,0,3.1312,Basalt_rect,2,3.131,1,5,0,5,0,1,,,,,,,,,,,,,
55d4d11258c35800113dc2ab,SCN,2024-06-25_12h46.42.014,LearnStrategy,2023.2.3,Win32,59.88023952,6,1,7,0.048148205,-0.408333333,1,0,0,2.4282,Andesite_09,1,09,1,5,2.428,-0.356481481,-0.25,1,0,0,4.1092,Andesite_rect,1,4.109,1,6,0,6,0,1,,,,,,,,,,,,,
55d4d11258c35800113dc2ab,SCN,2024-06-25_12h46.42.014,LearnStrategy,2023.2.3,Win32,59.88023952,6,1,8,0.37962963,0.234259259,1,0,0,3.4002,Gabbro_01,4,01,5,7,3.4,0.437037037,-0.25462963,1,0,0,1.9681,Gabbro_rect,4,1.968,1,7,0,7,0,1,,,,,,,,,,,,,
55d4d11258c35800113dc2ab,SCN,2024-06-25_12h46.42.014,LearnStrategy,2023.2.3,Win32,59.88023952,6,1,9,0.101851852,-0.091666667,1,0,0,1.4128,Basalt_08,2,08,3,5,1.413,-0.115740741,-0.241666667,1,0,0,1.5454,Basalt_rect,2,1.545,1,8,0,8,0,1,,,,,,,,,,,,,
55d4d11258c35800113dc2ab,SCN,2024-06-25_12h46.42.014,LearnStrategy,2023.2.3,Win32,59.88023952,6,1,10,0.082407407,0.405555556,1,0,0,4.2008,Gabbro_03,4,03,6,5,4.201,-0.389814815,-0.25462963,1,0,0,3.9955,Andesite_rect,1,3.995,0,9,0,9,0,1,,,,,,,,,,,,,
55d4d11258c35800113dc2ab,SCN,2024-06-25_12h46.42.014,LearnStrategy,2023.2.3,Win32,59.88023952,6,1,11,-0.396296296,0.078703704,1,0,0,8.1722,Diorite_10,3,10,4,2,8.172,-0.400925926,-0.24537037,1,0,0,1.8424,Andesite_rect,1,1.842,0,10,0,10,0,1,,,,,,,,,,,,,
55d4d11258c35800113dc2ab,SCN,2024-06-25_12h46.42.014,LearnStrategy,2023.2.3,Win32,59.88023952,6,1,12,0.363888889,-0.285185185,1,0,0,1.679,Andesite_07,1,07,2,7,1.679,-0.382407407,-0.248148148,1,0,0,1.3341,Andesite_rect,1,1.334,1,11,0,11,0,1,,,,,,,,,,,,,
55d4d11258c35800113dc2ab,SCN,2024-06-25_12h46.42.014,LearnStrategy,2023.2.3,Win32,59.88023952,6,1,13,0.533333333,-0.258333333,1,0,0,1.9787,Andesite_14,1,14,2,8,1.979,-0.118518462,-0.409259316,1,0,0,3.5353,Pegmatite_rect,6,3.535,0,12,0,12,0,1,,,,,,,,,,,,,
55d4d11258c35800113dc2ab,SCN,2024-06-25_12h46.42.014,LearnStrategy,2023.2.3,Win32,59.88023952,6,1,14,0.388888889,-0.412962963,1,0,0,1.6125,Pumice_15,8,15,1,7,1.612,0.458333333,-0.414814815,1,0,0,1.8662,Pumice_rect,8,1.866,1,13,0,13,0,1,,,,,,,,,,,,,
55d4d11258c35800113dc2ab,SCN,2024-06-25_12h46.42.014,LearnStrategy,2023.2.3,Win32,59.88023952,6,1,15,-0.052777778,0.112037037,1,0,0,2.3663,Pumice_06,8,06,4,4,2.366,0.416666667,-0.389814815,1,0,0,1.4871,Pumice_rect,8,1.487,1,14,0,14,0,1,,,,,,,,,,,,,
55d4d11258c35800113dc2ab,SCN,2024-06-25_12h46.42.014,LearnStrategy,2023.2.3,Win32,59.88023952,6,1,16,-0.239814815,-0.282407407,1,0,0,1.5454,Gabbro_09,4,09,2,3,1.545,0.447222222,-0.25462963,1,0,0,1.7675,Gabbro_rect,4,1.767,1,15,0,15,0,1,,,,,,,,,,,,,
55d4d11258c35800113dc2ab,SCN,2024-06-25_12h46.42.014,LearnStrategy,2023.2.3,Win32,59.88023952,6,2,1,,,,,,,,4,16,,,,,,,,,,,2,3.095,0,,,,,,-0.064814815,-0.239814815,1,0,0,3.0949,Basalt_rect,0,0,0,0,1,
55d4d11258c35800113dc2ab,SCN,2024-06-25_12h46.42.014,LearnStrategy,2023.2.3,Win32,59.88023952,6,2,2,,,,,,,,6,13,,,,,,,,,,,6,4.075,1,,,,,,-0.139814815,-0.400925926,1,0,0,4.075,Pegmatite_rect,1,0,1,0,1,
55d4d11258c35800113dc2ab,SCN,2024-06-25_12h46.42.014,LearnStrategy,2023.2.3,Win32,59.88023952,6,2,3,,,,,,,,1,03,,,,,,,,,,,4,4.432,0,,,,,,0.414814815,-0.258333333,1,0,0,4.4316,Gabbro_rect,2,0,2,0,1,
55d4d11258c35800113dc2ab,SCN,2024-06-25_12h46.42.014,LearnStrategy,2023.2.3,Win32,59.88023952,6,2,4,,,,,,,,6,03,,,,,,,,,,,6,1.668,1,,,,,,-0.094444444,-0.390740797,1,0,0,1.6679,Pegmatite_rect,3,0,3,0,1,
55d4d11258c35800113dc2ab,SCN,2024-06-25_12h46.42.014,LearnStrategy,2023.2.3,Win32,59.88023952,6,2,5,,,,,,,,3,16,,,,,,,,,,,1,5.472,0,,,,,,-0.400925926,-0.269444444,1,0,0,5.4721,Andesite_rect,4,0,4,0,1,
55d4d11258c35800113dc2ab,SCN,2024-06-25_12h46.42.014,LearnStrategy,2023.2.3,Win32,59.88023952,6,2,6,,,,,,,,5,08,,,,,,,,,,,5,2.256,1,,,,,,-0.362962963,-0.403703704,1,0,0,2.2556,Obsidian_rect,5,0,5,0,1,
55d4d11258c35800113dc2ab,SCN,2024-06-25_12h46.42.014,LearnStrategy,2023.2.3,Win32,59.88023952,6,2,7,,,,,,,,7,15,,,,,,,,,,,1,5.914,0,,,,,,-0.35462963,-0.25462963,1,0,0,5.914,Andesite_rect,6,0,6,0,1,
55d4d11258c35800113dc2ab,SCN,2024-06-25_12h46.42.014,LearnStrategy,2023.2.3,Win32,59.88023952,6,2,8,,,,,,,,4,13,,,,,,,,,,,1,14.035,0,,,,,,-0.348148148,-0.257407407,1,0,0,14.0346,Andesite_rect,7,0,7,0,1,
55d4d11258c35800113dc2ab,SCN,2024-06-25_12h46.42.014,LearnStrategy,2023.2.3,Win32,59.88023952,6,2,9,,,,,,,,2,11,,,,,,,,,,,4,3.752,0,,,,,,0.401851965,-0.247222279,1,0,0,3.7521,Gabbro_rect,8,0,8,0,1,
55d4d11258c35800113dc2ab,SCN,2024-06-25_12h46.42.014,LearnStrategy,2023.2.3,Win32,59.88023952,6,2,10,,,,,,,,1,05,,,,,,,,,,,1,2.124,1,,,,,,-0.418518519,-0.248148148,1,0,0,2.1239,Andesite_rect,9,0,9,0,1,
55d4d11258c35800113dc2ab,SCN,2024-06-25_12h46.42.014,LearnStrategy,2023.2.3,Win32,59.88023952,6,2,11,,,,,,,,8,05,,,,,,,,,,,8,1.435,1,,,,,,0.473148148,-0.387037037,1,0,0,1.435,Pumice_rect,10,0,10,0,1,
55d4d11258c35800113dc2ab,SCN,2024-06-25_12h46.42.014,LearnStrategy,2023.2.3,Win32,59.88023952,6,2,12,,,,,,,,3,08,,,,,,,,,,,3,1.4,1,,,,,,0.12037037,-0.259259259,1,0,0,1.4003,Diorite_rect,11,0,11,0,1,
55d4d11258c35800113dc2ab,SCN,2024-06-25_12h46.42.014,LearnStrategy,2023.2.3,Win32,59.88023952,6,2,13,,,,,,,,5,05,,,,,,,,,,,1,2.263,0,,,,,,-0.383333333,-0.262962963,1,0,0,2.2633,Andesite_rect,12,0,12,0,1,
55d4d11258c35800113dc2ab,SCN,2024-06-25_12h46.42.014,LearnStrategy,2023.2.3,Win32,59.88023952,6,2,14,,,,,,,,8,14,,,,,,,,,,,8,13.025,1,,,,,,0.352777778,-0.400925926,1,0,0,13.0248,Pumice_rect,13,0,13,0,1,
55d4d11258c35800113dc2ab,SCN,2024-06-25_12h46.42.014,LearnStrategy,2023.2.3,Win32,59.88023952,6,2,15,,,,,,,,2,14,,,,,,,,,,,1,10.923,0,,,,,,-0.430555556,-0.263888889,1,0,0,10.9232,Andesite_rect,14,0,14,0,1,
55d4d11258c35800113dc2ab,SCN,2024-06-25_12h46.42.014,LearnStrategy,2023.2.3,Win32,59.88023952,6,2,16,,,,,,,,7,14,,,,,,,,,,,7,11.433,1,,,,,,0.125,-0.398148148,1,0,0,11.4335,Peridotite_rect,15,0,15,0,1,
55d4d11258c35800113dc2ab,SCN,2024-06-25_12h46.42.014,LearnStrategy,2023.2.3,Win32,59.88023952,7,1,1,0.072222222,-0.096296296,1,0,0,1.1254,Basalt_08,2,08,3,5,1.125,-0.085185185,-0.249074074,1,0,0,1.6921,Basalt_rect,2,1.692,1,0,0,0,0,1,,,,,,,,,,,,,
55d4d11258c35800113dc2ab,SCN,2024-06-25_12h46.42.014,LearnStrategy,2023.2.3,Win32,59.88023952,7,1,2,0.213888889,-0.071296296,1,0,0,0.9855,Peridotite_08,7,08,3,6,0.986,0.182407407,-0.398148148,1,0,0,3.0321,Peridotite_rect,7,3.032,1,1,0,1,0,1,,,,,,,,,,,,,
55d4d11258c35800113dc2ab,SCN,2024-06-25_12h46.42.014,LearnStrategy,2023.2.3,Win32,59.88023952,7,1,3,0.390740741,-0.083333333,1,0,0,1.745,Diorite_06,3,06,3,7,1.745,0.189814815,-0.408333333,1,0,0,3.6662,Peridotite_rect,7,3.666,0,2,0,2,0,1,,,,,,,,,,,,,
55d4d11258c35800113dc2ab,SCN,2024-06-25_12h46.42.014,LearnStrategy,2023.2.3,Win32,59.88023952,7,1,4,0.6,-0.087962963,1,0,0,2.1166,Gabbro_10,4,10,3,8,2.117,0.401851965,-0.253703704,1,0,0,1.8738,Gabbro_rect,4,1.874,1,3,0,3,0,1,,,,,,,,,,,,,
55d4d11258c35800113dc2ab,SCN,2024-06-25_12h46.42.014,LearnStrategy,2023.2.3,Win32,59.88023952,7,1,5,-0.107407407,-0.126851908,1,0,0,1.5294,Pegmatite_12,6,12,3,4,1.529,-0.12962963,-0.385185185,1,0,0,1.7796,Pegmatite_rect,6,1.78,1,4,0,4,0,1,,,,,,,,,,,,,
55d4d11258c35800113dc2ab,SCN,2024-06-25_12h46.42.014,LearnStrategy,2023.2.3,Win32,59.88023952,7,1,6,-0.397222222,-0.125,1,0,0,1.2973,Basalt_01,2,01,3,2,1.297,-0.119444444,-0.247222279,1,0,0,4.17,Basalt_rect,2,4.17,1,5,0,5,0,1,,,,,,,,,,,,,
55d4d11258c35800113dc2ab,SCN,2024-06-25_12h46.42.014,LearnStrategy,2023.2.3,Win32,59.88023952,7,1,7,-0.545370342,-0.099074131,1,0,0,1.1672,Pegmatite_11,6,11,3,1,1.167,-0.123148092,-0.389814815,1,0,0,3.0345,Pegmatite_rect,6,3.034,1,6,0,6,0,1,,,,,,,,,,,,,
55d4d11258c35800113dc2ab,SCN,2024-06-25_12h46.42.014,LearnStrategy,2023.2.3,Win32,59.88023952,7,1,8,-0.367592593,-0.262037037,1,0,0,1.7335,Peridotite_05,7,05,2,2,1.734,0.438889002,-0.232407407,1,0,0,2.7267,Gabbro_rect,4,2.727,0,7,0,7,0,1,,,,,,,,,,,,,
55d4d11258c35800113dc2ab,SCN,2024-06-25_12h46.42.014,LearnStrategy,2023.2.3,Win32,59.88023952,7,1,9,-0.362037037,-0.267592593,1,0,0,1.5964,Peridotite_05,7,05,2,2,1.596,0.067592593,-0.403703704,1,0,0,8.6819,Peridotite_rect,7,8.682,1,8,0,8,0,1,,,,,,,,,,,,,
55d4d11258c35800113dc2ab,SCN,2024-06-25_12h46.42.014,LearnStrategy,2023.2.3,Win32,59.88023952,7,1,10,-0.383333333,-0.442592593,1,0,0,1.1477,Gabbro_14,4,14,1,2,1.148,0.452777891,-0.249074074,1,0,0,2.632,Gabbro_rect,4,2.632,1,9,0,9,0,1,,,,,,,,,,,,,
55d4d11258c35800113dc2ab,SCN,2024-06-25_12h46.42.014,LearnStrategy,2023.2.3,Win32,59.88023952,7,1,11,-0.047222222,-0.414814815,1,0,0,4.8325,Diorite_13,3,13,1,4,4.832,0.156481481,-0.258333333,1,0,0,1.4689,Diorite_rect,3,1.469,1,10,0,10,0,1,,,,,,,,,,,,,
55d4d11258c35800113dc2ab,SCN,2024-06-25_12h46.42.014,LearnStrategy,2023.2.3,Win32,59.88023952,7,1,12,0.099074074,-0.414814815,1,0,0,1.2464,Andesite_09,1,09,1,5,1.246,-0.37962963,-0.252777778,1,0,0,6.4492,Andesite_rect,1,6.449,1,11,0,11,0,1,,,,,,,,,,,,,
55d4d11258c35800113dc2ab,SCN,2024-06-25_12h46.42.014,LearnStrategy,2023.2.3,Win32,59.88023952,7,1,13,-0.225925926,-0.116666667,1,0,0,6.9338,Diorite_11,3,11,3,3,6.934,0.161111111,-0.257407407,1,0,0,1.9644,Diorite_rect,3,1.964,1,12,0,12,0,1,,,,,,,,,,,,,
55d4d11258c35800113dc2ab,SCN,2024-06-25_12h46.42.014,LearnStrategy,2023.2.3,Win32,59.88023952,7,1,14,0.544444444,0.226851852,1,0,0,1.9927,Pumice_09,8,09,5,8,1.993,0.412037037,-0.417592593,1,0,0,1.2879,Pumice_rect,8,1.288,1,13,0,13,0,1,,,,,,,,,,,,,
55d4d11258c35800113dc2ab,SCN,2024-06-25_12h46.42.014,LearnStrategy,2023.2.3,Win32,59.88023952,7,1,15,0.10462963,0.40462963,1,0,0,1.6475,Gabbro_03,4,03,6,5,1.648,-0.361111111,-0.236111111,1,0,0,6.4619,Andesite_rect,1,6.462,0,14,0,14,0,1,,,,,,,,,,,,,
55d4d11258c35800113dc2ab,SCN,2024-06-25_12h46.42.014,LearnStrategy,2023.2.3,Win32,59.88023952,7,1,16,0.559259372,-0.259259259,1,0,0,3.385,Andesite_14,1,14,2,8,3.385,0.156481481,-0.396296296,1,0,0,1.8204,Peridotite_rect,7,1.82,0,15,0,15,0,1,,,,,,,,,,,,,
55d4d11258c35800113dc2ab,SCN,2024-06-25_12h46.42.014,LearnStrategy,2023.2.3,Win32,59.88023952,7,2,1,,,,,,,,6,16,,,,,,,,,,,6,1.77,1,,,,,,-0.14166661,-0.402777778,1,0,0,1.7696,Pegmatite_rect,0,0,0,0,1,
55d4d11258c35800113dc2ab,SCN,2024-06-25_12h46.42.014,LearnStrategy,2023.2.3,Win32,59.88023952,7,2,2,,,,,,,,2,09,,,,,,,,,,,4,7.451,0,,,,,,0.422222222,-0.256481538,1,0,0,7.4515,Gabbro_rect,1,0,1,0,1,
55d4d11258c35800113dc2ab,SCN,2024-06-25_12h46.42.014,LearnStrategy,2023.2.3,Win32,59.88023952,7,2,3,,,,,,,,3,14,,,,,,,,,,,3,2.246,1,,,,,,0.137037037,-0.248148148,1,0,0,2.2456,Diorite_rect,2,0,2,0,1,
55d4d11258c35800113dc2ab,SCN,2024-06-25_12h46.42.014,LearnStrategy,2023.2.3,Win32,59.88023952,7,2,4,,,,,,,,5,07,,,,,,,,,,,5,1.659,1,,,,,,-0.396296296,-0.416666667,1,0,0,1.6589,Obsidian_rect,3,0,3,0,1,
55d4d11258c35800113dc2ab,SCN,2024-06-25_12h46.42.014,LearnStrategy,2023.2.3,Win32,59.88023952,7,2,5,,,,,,,,4,15,,,,,,,,,,,4,2.649,1,,,,,,0.360185298,-0.243518519,1,0,0,2.6493,Gabbro_rect,4,0,4,0,1,
55d4d11258c35800113dc2ab,SCN,2024-06-25_12h46.42.014,LearnStrategy,2023.2.3,Win32,59.88023952,7,2,6,,,,,,,,8,16,,,,,,,,,,,8,1.413,1,,,,,,0.368518519,-0.392592593,1,0,0,1.4131,Pumice_rect,5,0,5,0,1,
55d4d11258c35800113dc2ab,SCN,2024-06-25_12h46.42.014,LearnStrategy,2023.2.3,Win32,59.88023952,7,2,7,,,,,,,,6,05,,,,,,,,,,,7,5.62,0,,,,,,0.126851852,-0.405555556,1,0,0,5.6199,Peridotite_rect,6,0,6,0,1,
55d4d11258c35800113dc2ab,SCN,2024-06-25_12h46.42.014,LearnStrategy,2023.2.3,Win32,59.88023952,7,2,8,,,,,,,,7,10,,,,,,,,,,,1,13.101,0,,,,,,-0.416666667,-0.263888889,1,0,0,13.1006,Andesite_rect,7,0,7,0,1,
55d4d11258c35800113dc2ab,SCN,2024-06-25_12h46.42.014,LearnStrategy,2023.2.3,Win32,59.88023952,7,2,9,,,,,,,,2,14,,,,,,,,,,,7,8.498,0,,,,,,0.140740741,-0.401851852,1,0,0,8.4981,Peridotite_rect,8,0,8,0,1,
55d4d11258c35800113dc2ab,SCN,2024-06-25_12h46.42.014,LearnStrategy,2023.2.3,Win32,59.88023952,7,2,10,,,,,,,,1,03,,,,,,,,,,,1,4.501,1,,,,,,-0.421296296,-0.268518519,1,0,0,4.5011,Andesite_rect,9,0,9,0,1,
55d4d11258c35800113dc2ab,SCN,2024-06-25_12h46.42.014,LearnStrategy,2023.2.3,Win32,59.88023952,7,2,11,,,,,,,,3,15,,,,,,,,,,,7,8.627,0,,,,,,0.161111111,-0.389814815,1,0,0,8.6274,Peridotite_rect,10,0,10,0,1,
55d4d11258c35800113dc2ab,SCN,2024-06-25_12h46.42.014,LearnStrategy,2023.2.3,Win32,59.88023952,7,2,12,,,,,,,,4,16,,,,,,,,,,,2,5.184,0,,,,,,-0.14537037,-0.244444444,1,0,0,5.1837,Basalt_rect,11,0,11,0,1,
55d4d11258c35800113dc2ab,SCN,2024-06-25_12h46.42.014,LearnStrategy,2023.2.3,Win32,59.88023952,7,2,13,,,,,,,,1,05,,,,,,,,,,,1,2.256,1,,,,,,-0.359259259,-0.259259259,1,0,0,2.256,Andesite_rect,12,0,12,0,1,
55d4d11258c35800113dc2ab,SCN,2024-06-25_12h46.42.014,LearnStrategy,2023.2.3,Win32,59.88023952,7,2,14,,,,,,,,8,05,,,,,,,,,,,8,1.353,1,,,,,,0.437037037,-0.392592593,1,0,0,1.3531,Pumice_rect,13,0,13,0,1,
55d4d11258c35800113dc2ab,SCN,2024-06-25_12h46.42.014,LearnStrategy,2023.2.3,Win32,59.88023952,7,2,15,,,,,,,,7,07,,,,,,,,,,,7,3.81,1,,,,,,0.158333333,-0.402777778,1,0,0,3.8096,Peridotite_rect,14,0,14,0,1,
55d4d11258c35800113dc2ab,SCN,2024-06-25_12h46.42.014,LearnStrategy,2023.2.3,Win32,59.88023952,7,2,16,,,,,,,,5,08,,,,,,,,,,,5,2.583,1,,,,,,-0.374074074,-0.390740797,1,0,0,2.5828,Obsidian_rect,15,0,15,0,1,
55d4d11258c35800113dc2ab,SCN,2024-06-25_12h46.42.014,LearnStrategy,2023.2.3,Win32,59.88023952,8,1,1,-0.217592593,0.12037037,1,0,0,1.606,Pegmatite_06,6,06,4,3,1.606,-0.14166661,-0.399074074,1,0,0,1.587,Pegmatite_rect,6,1.587,1,0,0,0,0,1,,,,,,,,,,,,,
55d4d11258c35800113dc2ab,SCN,2024-06-25_12h46.42.014,LearnStrategy,2023.2.3,Win32,59.88023952,8,1,2,0.212962963,0.108333333,1,0,0,1.8687,Basalt_16,2,16,4,6,1.869,-0.095370314,-0.257407407,1,0,0,2.0107,Basalt_rect,2,2.011,1,1,0,1,0,1,,,,,,,,,,,,,
55d4d11258c35800113dc2ab,SCN,2024-06-25_12h46.42.014,LearnStrategy,2023.2.3,Win32,59.88023952,8,1,3,-0.210185185,0.396296296,1,0,0,1.7822,Basalt_06,2,06,6,3,1.782,-0.098148148,-0.236111111,1,0,0,1.6769,Basalt_rect,2,1.677,1,2,0,2,0,1,,,,,,,,,,,,,
55d4d11258c35800113dc2ab,SCN,2024-06-25_12h46.42.014,LearnStrategy,2023.2.3,Win32,59.88023952,8,1,4,-0.409259259,-0.393518519,1,0,0,1.347,Gabbro_14,4,14,1,2,1.347,-0.15462963,-0.250925926,1,0,0,1.714,Basalt_rect,2,1.714,0,3,0,3,0,1,,,,,,,,,,,,,
55d4d11258c35800113dc2ab,SCN,2024-06-25_12h46.42.014,LearnStrategy,2023.2.3,Win32,59.88023952,8,1,5,0.585185185,-0.097222222,1,0,0,2.9017,Gabbro_10,4,10,3,8,2.902,0.425000113,-0.247222279,1,0,0,1.087,Gabbro_rect,4,1.087,1,4,0,4,0,1,,,,,,,,,,,,,
55d4d11258c35800113dc2ab,SCN,2024-06-25_12h46.42.014,LearnStrategy,2023.2.3,Win32,59.88023952,8,1,6,0.072222222,-0.100925926,1,0,0,1.3966,Basalt_08,2,08,3,5,1.397,-0.110185185,-0.244444444,1,0,0,1.5101,Basalt_rect,2,1.51,1,5,0,5,0,1,,,,,,,,,,,,,
55d4d11258c35800113dc2ab,SCN,2024-06-25_12h46.42.014,LearnStrategy,2023.2.3,Win32,59.88023952,8,1,7,0.265740741,0.099074074,1,0,0,3.289,Basalt_16,2,16,4,6,3.289,-0.149074074,-0.257407407,1,0,0,1.3665,Basalt_rect,2,1.366,1,6,0,6,0,1,,,,,,,,,,,,,
55d4d11258c35800113dc2ab,SCN,2024-06-25_12h46.42.014,LearnStrategy,2023.2.3,Win32,59.88023952,8,1,8,-0.262036981,0.412037037,1,0,0,1.8636,Basalt_06,2,06,6,3,1.864,-0.121296296,-0.246296296,1,0,0,1.6709,Basalt_rect,2,1.671,1,7,0,7,0,1,,,,,,,,,,,,,
55d4d11258c35800113dc2ab,SCN,2024-06-25_12h46.42.014,LearnStrategy,2023.2.3,Win32,59.88023952,8,1,9,-0.075925926,-0.274074074,1,0,0,4.1144,Basalt_04,2,04,2,4,4.114,-0.138888889,-0.257407407,1,0,0,1.0192,Basalt_rect,2,1.019,1,8,0,8,0,1,,,,,,,,,,,,,
55d4d11258c35800113dc2ab,SCN,2024-06-25_12h46.42.014,LearnStrategy,2023.2.3,Win32,59.88023952,8,1,10,0.213888889,-0.123148148,1,0,0,1.0293,Peridotite_08,7,08,3,6,1.029,0.182407407,-0.401851852,1,0,0,1.4748,Peridotite_rect,7,1.475,1,9,0,9,0,1,,,,,,,,,,,,,
55d4d11258c35800113dc2ab,SCN,2024-06-25_12h46.42.014,LearnStrategy,2023.2.3,Win32,59.88023952,8,1,11,0.421296296,-0.263888889,1,0,0,1.1796,Andesite_07,1,07,2,7,1.18,-0.401851852,-0.25,1,0,0,1.1926,Andesite_rect,1,1.193,1,10,0,10,0,1,,,,,,,,,,,,,
55d4d11258c35800113dc2ab,SCN,2024-06-25_12h46.42.014,LearnStrategy,2023.2.3,Win32,59.88023952,8,1,12,0.048148205,0.239814815,1,0,0,1.7304,Peridotite_06,7,06,5,5,1.73,0.191666667,-0.404629686,1,0,0,1.2277,Peridotite_rect,7,1.228,1,11,0,11,0,1,,,,,,,,,,,,,
55d4d11258c35800113dc2ab,SCN,2024-06-25_12h46.42.014,LearnStrategy,2023.2.3,Win32,59.88023952,8,1,13,-0.362962963,0.430555556,1,0,0,1.6089,Diorite_07,3,07,6,2,1.609,0.127777778,-0.24537037,1,0,0,2.3867,Diorite_rect,3,2.387,1,12,0,12,0,1,,,,,,,,,,,,,
55d4d11258c35800113dc2ab,SCN,2024-06-25_12h46.42.014,LearnStrategy,2023.2.3,Win32,59.88023952,8,1,14,0.231481481,-0.137037037,1,0,0,2.4629,Peridotite_08,7,08,3,6,2.463,0.426851852,-0.246296296,1,0,0,1.1543,Gabbro_rect,4,1.154,0,13,0,13,0,1,,,,,,,,,,,,,
55d4d11258c35800113dc2ab,SCN,2024-06-25_12h46.42.014,LearnStrategy,2023.2.3,Win32,59.88023952,8,1,15,-0.362962963,-0.42962963,1,0,0,2.0639,Gabbro_14,4,14,1,2,2.064,0.433333333,-0.244444444,1,0,0,1.6729,Gabbro_rect,4,1.673,1,14,0,14,0,1,,,,,,,,,,,,,
55d4d11258c35800113dc2ab,SCN,2024-06-25_12h46.42.014,LearnStrategy,2023.2.3,Win32,59.88023952,8,1,16,0.405555556,0.255555556,1,0,0,3.5443,Gabbro_01,4,01,5,7,3.544,0.429629743,-0.249074074,1,0,0,5.3775,Gabbro_rect,4,5.378,1,15,0,15,0,1,,,,,,,,,,,,,
55d4d11258c35800113dc2ab,SCN,2024-06-25_12h46.42.014,LearnStrategy,2023.2.3,Win32,59.88023952,8,2,1,,,,,,,,8,03,,,,,,,,,,,8,2.043,1,,,,,,0.372222222,-0.409259316,1,0,0,2.0429,Pumice_rect,0,0,0,0,1,
55d4d11258c35800113dc2ab,SCN,2024-06-25_12h46.42.014,LearnStrategy,2023.2.3,Win32,59.88023952,8,2,2,,,,,,,,6,15,,,,,,,,,,,6,1.204,1,,,,,,-0.108333333,-0.400000057,1,0,0,1.2039,Pegmatite_rect,1,0,1,0,1,
55d4d11258c35800113dc2ab,SCN,2024-06-25_12h46.42.014,LearnStrategy,2023.2.3,Win32,59.88023952,8,2,3,,,,,,,,5,04,,,,,,,,,,,5,1.491,1,,,,,,-0.359259259,-0.411111111,1,0,0,1.4906,Obsidian_rect,2,0,2,0,1,
55d4d11258c35800113dc2ab,SCN,2024-06-25_12h46.42.014,LearnStrategy,2023.2.3,Win32,59.88023952,8,2,4,,,,,,,,1,16,,,,,,,,,,,1,2.364,1,,,,,,-0.401851852,-0.263888889,1,0,0,2.3645,Andesite_rect,3,0,3,0,1,
55d4d11258c35800113dc2ab,SCN,2024-06-25_12h46.42.014,LearnStrategy,2023.2.3,Win32,59.88023952,8,2,5,,,,,,,,4,05,,,,,,,,,,,4,4.487,1,,,,,,0.392592706,-0.247222279,1,0,0,4.4873,Gabbro_rect,4,0,4,0,1,
55d4d11258c35800113dc2ab,SCN,2024-06-25_12h46.42.014,LearnStrategy,2023.2.3,Win32,59.88023952,8,2,6,,,,,,,,8,10,,,,,,,,,,,8,1.404,1,,,,,,0.37037037,-0.421296296,1,0,0,1.404,Pumice_rect,5,0,5,0,1,
55d4d11258c35800113dc2ab,SCN,2024-06-25_12h46.42.014,LearnStrategy,2023.2.3,Win32,59.88023952,8,2,7,,,,,,,,5,05,,,,,,,,,,,1,2.741,0,,,,,,-0.394444444,-0.243518519,1,0,0,2.7411,Andesite_rect,6,0,6,0,1,
55d4d11258c35800113dc2ab,SCN,2024-06-25_12h46.42.014,LearnStrategy,2023.2.3,Win32,59.88023952,8,2,8,,,,,,,,7,02,,,,,,,,,,,7,3.4,1,,,,,,0.111111111,-0.407407407,1,0,0,3.4003,Peridotite_rect,7,0,7,0,1,
55d4d11258c35800113dc2ab,SCN,2024-06-25_12h46.42.014,LearnStrategy,2023.2.3,Win32,59.88023952,8,2,9,,,,,,,,3,12,,,,,,,,,,,3,1.469,1,,,,,,0.119444444,-0.250925926,1,0,0,1.4692,Diorite_rect,8,0,8,0,1,
55d4d11258c35800113dc2ab,SCN,2024-06-25_12h46.42.014,LearnStrategy,2023.2.3,Win32,59.88023952,8,2,10,,,,,,,,6,03,,,,,,,,,,,6,1.553,1,,,,,,-0.076851795,-0.388888889,1,0,0,1.5533,Pegmatite_rect,9,0,9,0,1,
55d4d11258c35800113dc2ab,SCN,2024-06-25_12h46.42.014,LearnStrategy,2023.2.3,Win32,59.88023952,8,2,11,,,,,,,,7,14,,,,,,,,,,,7,7.808,1,,,,,,0.162962963,-0.402777778,1,0,0,7.8079,Peridotite_rect,10,0,10,0,1,
55d4d11258c35800113dc2ab,SCN,2024-06-25_12h46.42.014,LearnStrategy,2023.2.3,Win32,59.88023952,8,2,12,,,,,,,,3,16,,,,,,,,,,,3,1.64,1,,,,,,0.127777778,-0.249074074,1,0,0,1.6399,Diorite_rect,11,0,11,0,1,
55d4d11258c35800113dc2ab,SCN,2024-06-25_12h46.42.014,LearnStrategy,2023.2.3,Win32,59.88023952,8,2,13,,,,,,,,4,08,,,,,,,,,,,4,2.03,1,,,,,,0.382407407,-0.246296296,1,0,0,2.0304,Gabbro_rect,12,0,12,0,1,
55d4d11258c35800113dc2ab,SCN,2024-06-25_12h46.42.014,LearnStrategy,2023.2.3,Win32,59.88023952,8,2,14,,,,,,,,2,10,,,,,,,,,,,2,4.17,1,,,,,,-0.134259259,-0.23333339,1,0,0,4.1704,Basalt_rect,13,0,13,0,1,
55d4d11258c35800113dc2ab,SCN,2024-06-25_12h46.42.014,LearnStrategy,2023.2.3,Win32,59.88023952,8,2,15,,,,,,,,1,10,,,,,,,,,,,1,4.22,1,,,,,,-0.378703704,-0.256481538,1,0,0,4.2195,Andesite_rect,14,0,14,0,1,
55d4d11258c35800113dc2ab,SCN,2024-06-25_12h46.42.014,LearnStrategy,2023.2.3,Win32,59.88023952,8,2,16,,,,,,,,2,11,,,,,,,,,,,2,6.464,1,,,,,,-0.130555556,-0.265740797,1,0,0,6.4643,Basalt_rect,15,0,15,0,1,
55d4d11258c35800113dc2ab,SCN,2024-06-25_12h46.42.014,LearnStrategy,2023.2.3,Win32,59.88023952,9,1,1,-0.210185185,0.089814815,1,0,0,1.6553,Pegmatite_06,6,06,4,3,1.655,-0.101851852,-0.384259259,1,0,0,1.9069,Pegmatite_rect,6,1.907,1,0,0,0,0,1,,,,,,,,,,,,,
55d4d11258c35800113dc2ab,SCN,2024-06-25_12h46.42.014,LearnStrategy,2023.2.3,Win32,59.88023952,9,1,2,0.260185185,0.092592593,1,0,0,0.9684,Basalt_16,2,16,4,6,0.968,-0.17962963,-0.255555556,1,0,0,2.0476,Basalt_rect,2,2.048,1,1,0,1,0,1,,,,,,,,,,,,,
55d4d11258c35800113dc2ab,SCN,2024-06-25_12h46.42.014,LearnStrategy,2023.2.3,Win32,59.88023952,9,1,3,0.365740741,-0.1,1,0,0,0.9996,Diorite_06,3,06,3,7,1,-0.383333333,-0.253703704,1,0,0,4.495,Andesite_rect,1,4.495,0,2,0,2,0,1,,,,,,,,,,,,,
55d4d11258c35800113dc2ab,SCN,2024-06-25_12h46.42.014,LearnStrategy,2023.2.3,Win32,59.88023952,9,1,4,0.403703704,0.239814815,1,0,0,2.4117,Gabbro_01,4,01,5,7,2.412,0.413888889,-0.25,1,0,0,2.2189,Gabbro_rect,4,2.219,1,3,0,3,0,1,,,,,,,,,,,,,
55d4d11258c35800113dc2ab,SCN,2024-06-25_12h46.42.014,LearnStrategy,2023.2.3,Win32,59.88023952,9,1,5,0.064814815,0.383333333,1,0,0,1.4815,Gabbro_03,4,03,6,5,1.481,-0.382407407,-0.248148148,1,0,0,6.2502,Andesite_rect,1,6.25,0,4,0,4,0,1,,,,,,,,,,,,,
55d4d11258c35800113dc2ab,SCN,2024-06-25_12h46.42.014,LearnStrategy,2023.2.3,Win32,59.88023952,9,1,6,0.217592593,-0.225,1,0,0,1.6284,Pumice_08,8,08,2,6,1.628,0.4,-0.405555556,1,0,0,2.8262,Pumice_rect,8,2.826,1,5,0,5,0,1,,,,,,,,,,,,,
55d4d11258c35800113dc2ab,SCN,2024-06-25_12h46.42.014,LearnStrategy,2023.2.3,Win32,59.88023952,9,1,7,0.237962963,-0.262037037,1,0,0,2.4658,Pumice_08,8,08,2,6,2.466,0.360185298,-0.411111111,1,0,0,1.1278,Pumice_rect,8,1.128,1,6,0,6,0,1,,,,,,,,,,,,,
55d4d11258c35800113dc2ab,SCN,2024-06-25_12h46.42.014,LearnStrategy,2023.2.3,Win32,59.88023952,9,1,8,-0.274074074,-0.259259259,1,0,0,1.1299,Gabbro_09,4,09,2,3,1.13,0.367592593,-0.268518519,1,0,0,2.5404,Gabbro_rect,4,2.54,1,7,0,7,0,1,,,,,,,,,,,,,
55d4d11258c35800113dc2ab,SCN,2024-06-25_12h46.42.014,LearnStrategy,2023.2.3,Win32,59.88023952,9,1,9,0.397222335,0.410185185,1,0,0,1.7012,Pumice_04,8,04,6,7,1.701,0.417592593,-0.400000057,1,0,0,1.3799,Pumice_rect,8,1.38,1,8,0,8,0,1,,,,,,,,,,,,,
55d4d11258c35800113dc2ab,SCN,2024-06-25_12h46.42.014,LearnStrategy,2023.2.3,Win32,59.88023952,9,1,10,0.553703704,0.416666667,1,0,0,1.051,Diorite_09,3,09,6,8,1.051,0.080555556,-0.253703704,1,0,0,1.4936,Diorite_rect,3,1.494,1,9,0,9,0,1,,,,,,,,,,,,,
55d4d11258c35800113dc2ab,SCN,2024-06-25_12h46.42.014,LearnStrategy,2023.2.3,Win32,59.88023952,9,1,11,-0.536111083,0.237037037,1,0,0,2.0895,Pegmatite_08,6,08,5,1,2.089,-0.140740741,-0.402777778,1,0,0,1.4431,Pegmatite_rect,6,1.443,1,10,0,10,0,1,,,,,,,,,,,,,
55d4d11258c35800113dc2ab,SCN,2024-06-25_12h46.42.014,LearnStrategy,2023.2.3,Win32,59.88023952,9,1,12,-0.061111111,-0.086111111,1,0,0,2.1241,Pegmatite_12,6,12,3,4,2.124,-0.108333333,-0.413888945,1,0,0,1.4384,Pegmatite_rect,6,1.438,1,11,0,11,0,1,,,,,,,,,,,,,
55d4d11258c35800113dc2ab,SCN,2024-06-25_12h46.42.014,LearnStrategy,2023.2.3,Win32,59.88023952,9,1,13,0.091666667,-0.238888889,1,0,0,1.5806,Pegmatite_10,6,10,2,5,1.581,-0.137962963,-0.396296296,1,0,0,1.3827,Pegmatite_rect,6,1.383,1,12,0,12,0,1,,,,,,,,,,,,,
55d4d11258c35800113dc2ab,SCN,2024-06-25_12h46.42.014,LearnStrategy,2023.2.3,Win32,59.88023952,9,1,14,0.539814815,-0.423148205,1,0,0,2.5145,Pumice_13,8,13,1,8,2.514,0.449074074,-0.397222222,1,0,0,1.0233,Pumice_rect,8,1.023,1,13,0,13,0,1,,,,,,,,,,,,,
55d4d11258c35800113dc2ab,SCN,2024-06-25_12h46.42.014,LearnStrategy,2023.2.3,Win32,59.88023952,9,1,15,-0.073148148,-0.414814815,1,0,0,2.2285,Diorite_13,3,13,1,4,2.228,0.09537037,-0.269444444,1,0,0,1.8484,Diorite_rect,3,1.848,1,14,0,14,0,1,,,,,,,,,,,,,
55d4d11258c35800113dc2ab,SCN,2024-06-25_12h46.42.014,LearnStrategy,2023.2.3,Win32,59.88023952,9,1,16,-0.211111055,0.25462963,1,0,0,1.1477,Andesite_02,1,02,5,3,1.148,-0.347222222,-0.257407407,1,0,0,2.4672,Andesite_rect,1,2.467,1,15,0,15,0,1,,,,,,,,,,,,,
55d4d11258c35800113dc2ab,SCN,2024-06-25_12h46.42.014,LearnStrategy,2023.2.3,Win32,59.88023952,9,2,1,,,,,,,,6,09,,,,,,,,,,,6,2.201,1,,,,,,-0.110185185,-0.399074074,1,0,0,2.2006,Pegmatite_rect,0,0,0,0,1,
55d4d11258c35800113dc2ab,SCN,2024-06-25_12h46.42.014,LearnStrategy,2023.2.3,Win32,59.88023952,9,2,2,,,,,,,,8,02,,,,,,,,,,,8,1.971,1,,,,,,0.391666667,-0.402777778,1,0,0,1.9713,Pumice_rect,1,0,1,0,1,
55d4d11258c35800113dc2ab,SCN,2024-06-25_12h46.42.014,LearnStrategy,2023.2.3,Win32,59.88023952,9,2,3,,,,,,,,3,02,,,,,,,,,,,3,1.398,1,,,,,,0.182407407,-0.263888889,1,0,0,1.3975,Diorite_rect,2,0,2,0,1,
55d4d11258c35800113dc2ab,SCN,2024-06-25_12h46.42.014,LearnStrategy,2023.2.3,Win32,59.88023952,9,2,4,,,,,,,,1,04,,,,,,,,,,,1,3.81,1,,,,,,-0.388888889,-0.253703704,1,0,0,3.8103,Andesite_rect,3,0,3,0,1,
55d4d11258c35800113dc2ab,SCN,2024-06-25_12h46.42.014,LearnStrategy,2023.2.3,Win32,59.88023952,9,2,5,,,,,,,,1,01,,,,,,,,,,,1,7.911,1,,,,,,-0.398148148,-0.25,1,0,0,7.9111,Andesite_rect,4,0,4,0,1,
55d4d11258c35800113dc2ab,SCN,2024-06-25_12h46.42.014,LearnStrategy,2023.2.3,Win32,59.88023952,9,2,6,,,,,,,,7,12,,,,,,,,,,,3,4.732,0,,,,,,0.100925926,-0.255555556,1,0,0,4.7321,Diorite_rect,5,0,5,0,1,
55d4d11258c35800113dc2ab,SCN,2024-06-25_12h46.42.014,LearnStrategy,2023.2.3,Win32,59.88023952,9,2,7,,,,,,,,8,14,,,,,,,,,,,8,1.297,1,,,,,,0.390740741,-0.407407407,1,0,0,1.2974,Pumice_rect,6,0,6,0,1,
55d4d11258c35800113dc2ab,SCN,2024-06-25_12h46.42.014,LearnStrategy,2023.2.3,Win32,59.88023952,9,2,8,,,,,,,,7,15,,,,,,,,,,,1,6.407,0,,,,,,-0.362962963,-0.230555556,1,0,0,6.4071,Andesite_rect,7,0,7,0,1,
55d4d11258c35800113dc2ab,SCN,2024-06-25_12h46.42.014,LearnStrategy,2023.2.3,Win32,59.88023952,9,2,9,,,,,,,,5,06,,,,,,,,,,,5,1.296,1,,,,,,-0.384259259,-0.392592593,1,0,0,1.296,Obsidian_rect,8,0,8,0,1,
55d4d11258c35800113dc2ab,SCN,2024-06-25_12h46.42.014,LearnStrategy,2023.2.3,Win32,59.88023952,9,2,10,,,,,,,,6,13,,,,,,,,,,,6,1.5,1,,,,,,-0.07037037,-0.390740797,1,0,0,1.4999,Pegmatite_rect,9,0,9,0,1,
55d4d11258c35800113dc2ab,SCN,2024-06-25_12h46.42.014,LearnStrategy,2023.2.3,Win32,59.88023952,9,2,11,,,,,,,,2,05,,,,,,,,,,,2,1.374,1,,,,,,-0.113888832,-0.266666667,1,0,0,1.3742,Basalt_rect,10,0,10,0,1,
55d4d11258c35800113dc2ab,SCN,2024-06-25_12h46.42.014,LearnStrategy,2023.2.3,Win32,59.88023952,9,2,12,,,,,,,,5,16,,,,,,,,,,,5,1.774,1,,,,,,-0.416666667,-0.403703704,1,0,0,1.7739,Obsidian_rect,11,0,11,0,1,
55d4d11258c35800113dc2ab,SCN,2024-06-25_12h46.42.014,LearnStrategy,2023.2.3,Win32,59.88023952,9,2,13,,,,,,,,3,08,,,,,,,,,,,3,1.584,1,,,,,,0.076851852,-0.260185185,1,0,0,1.5838,Diorite_rect,12,0,12,0,1,
55d4d11258c35800113dc2ab,SCN,2024-06-25_12h46.42.014,LearnStrategy,2023.2.3,Win32,59.88023952,9,2,14,,,,,,,,4,12,,,,,,,,,,,4,1.723,1,,,,,,0.433333333,-0.256481538,1,0,0,1.7225,Gabbro_rect,13,0,13,0,1,
55d4d11258c35800113dc2ab,SCN,2024-06-25_12h46.42.014,LearnStrategy,2023.2.3,Win32,59.88023952,9,2,15,,,,,,,,2,02,,,,,,,,,,,2,1.588,1,,,,,,-0.152777778,-0.262037037,1,0,0,1.588,Basalt_rect,14,0,14,0,1,
55d4d11258c35800113dc2ab,SCN,2024-06-25_12h46.42.014,LearnStrategy,2023.2.3,Win32,59.88023952,9,2,16,,,,,,,,4,13,,,,,,,,,,,4,1.782,1,,,,,,0.387963076,-0.243518519,1,0,0,1.7816,Gabbro_rect,15,0,15,0,1,
55d4d11258c35800113dc2ab,SCN,2024-06-25_12h46.42.014,LearnStrategy,2023.2.3,Win32,59.88023952,,,,,,,,,,,,,,,,,,,,,,,,,,,,,,,,,,,,,,,,,,,1
55d4d11258c35800113dc2ab,SCN,2024-06-25_12h46.42.014,LearnStrategy,2023.2.3,Win32,59.88023952,,,,,,,,,,,,,,,,,,,,,,,,,,,,,,,,,,,,,,,,,,,
55d4d11258c35800113dc2ab,SCN,2024-06-25_12h46.42.014,LearnStrategy,2023.2.3,Win32,59.88023952,,,,,,,,,,,4,11,1,1,,,,,,,,,,,,,,,,,,,,,,,,,,,,,
55d4d11258c35800113dc2ab,SCN,2024-06-25_12h46.42.014,LearnStrategy,2023.2.3,Win32,59.88023952,,,,,,,,,,,4,14,1,2,,,,,,,,,,,,,,,,,,,,,,,,,,,,,
55d4d11258c35800113dc2ab,SCN,2024-06-25_12h46.42.014,LearnStrategy,2023.2.3,Win32,59.88023952,,,,,,,,,,,6,07,1,3,,,,,,,,,,,,,,,,,,,,,,,,,,,,,
55d4d11258c35800113dc2ab,SCN,2024-06-25_12h46.42.014,LearnStrategy,2023.2.3,Win32,59.88023952,,,,,,,,,,,3,13,1,4,,,,,,,,,,,,,,,,,,,,,,,,,,,,,
55d4d11258c35800113dc2ab,SCN,2024-06-25_12h46.42.014,LearnStrategy,2023.2.3,Win32,59.88023952,,,,,,,,,,,1,09,1,5,,,,,,,,,,,,,,,,,,,,,,,,,,,,,
55d4d11258c35800113dc2ab,SCN,2024-06-25_12h46.42.014,LearnStrategy,2023.2.3,Win32,59.88023952,,,,,,,,,,,2,12,1,6,,,,,,,,,,,,,,,,,,,,,,,,,,,,,
55d4d11258c35800113dc2ab,SCN,2024-06-25_12h46.42.014,LearnStrategy,2023.2.3,Win32,59.88023952,,,,,,,,,,,8,15,1,7,,,,,,,,,,,,,,,,,,,,,,,,,,,,,
55d4d11258c35800113dc2ab,SCN,2024-06-25_12h46.42.014,LearnStrategy,2023.2.3,Win32,59.88023952,,,,,,,,,,,8,13,1,8,,,,,,,,,,,,,,,,,,,,,,,,,,,,,
55d4d11258c35800113dc2ab,SCN,2024-06-25_12h46.42.014,LearnStrategy,2023.2.3,Win32,59.88023952,,,,,,,,,,,5,11,2,1,,,,,,,,,,,,,,,,,,,,,,,,,,,,,
55d4d11258c35800113dc2ab,SCN,2024-06-25_12h46.42.014,LearnStrategy,2023.2.3,Win32,59.88023952,,,,,,,,,,,7,05,2,2,,,,,,,,,,,,,,,,,,,,,,,,,,,,,
55d4d11258c35800113dc2ab,SCN,2024-06-25_12h46.42.014,LearnStrategy,2023.2.3,Win32,59.88023952,,,,,,,,,,,4,09,2,3,,,,,,,,,,,,,,,,,,,,,,,,,,,,,
55d4d11258c35800113dc2ab,SCN,2024-06-25_12h46.42.014,LearnStrategy,2023.2.3,Win32,59.88023952,,,,,,,,,,,2,04,2,4,,,,,,,,,,,,,,,,,,,,,,,,,,,,,
55d4d11258c35800113dc2ab,SCN,2024-06-25_12h46.42.014,LearnStrategy,2023.2.3,Win32,59.88023952,,,,,,,,,,,6,10,2,5,,,,,,,,,,,,,,,,,,,,,,,,,,,,,
55d4d11258c35800113dc2ab,SCN,2024-06-25_12h46.42.014,LearnStrategy,2023.2.3,Win32,59.88023952,,,,,,,,,,,8,08,2,6,,,,,,,,,,,,,,,,,,,,,,,,,,,,,
55d4d11258c35800113dc2ab,SCN,2024-06-25_12h46.42.014,LearnStrategy,2023.2.3,Win32,59.88023952,,,,,,,,,,,1,07,2,7,,,,,,,,,,,,,,,,,,,,,,,,,,,,,
55d4d11258c35800113dc2ab,SCN,2024-06-25_12h46.42.014,LearnStrategy,2023.2.3,Win32,59.88023952,,,,,,,,,,,1,14,2,8,,,,,,,,,,,,,,,,,,,,,,,,,,,,,
55d4d11258c35800113dc2ab,SCN,2024-06-25_12h46.42.014,LearnStrategy,2023.2.3,Win32,59.88023952,,,,,,,,,,,6,11,3,1,,,,,,,,,,,,,,,,,,,,,,,,,,,,,
55d4d11258c35800113dc2ab,SCN,2024-06-25_12h46.42.014,LearnStrategy,2023.2.3,Win32,59.88023952,,,,,,,,,,,2,01,3,2,,,,,,,,,,,,,,,,,,,,,,,,,,,,,
55d4d11258c35800113dc2ab,SCN,2024-06-25_12h46.42.014,LearnStrategy,2023.2.3,Win32,59.88023952,,,,,,,,,,,3,11,3,3,,,,,,,,,,,,,,,,,,,,,,,,,,,,,
55d4d11258c35800113dc2ab,SCN,2024-06-25_12h46.42.014,LearnStrategy,2023.2.3,Win32,59.88023952,,,,,,,,,,,6,12,3,4,,,,,,,,,,,,,,,,,,,,,,,,,,,,,
55d4d11258c35800113dc2ab,SCN,2024-06-25_12h46.42.014,LearnStrategy,2023.2.3,Win32,59.88023952,,,,,,,,,,,2,08,3,5,,,,,,,,,,,,,,,,,,,,,,,,,,,,,
55d4d11258c35800113dc2ab,SCN,2024-06-25_12h46.42.014,LearnStrategy,2023.2.3,Win32,59.88023952,,,,,,,,,,,7,08,3,6,,,,,,,,,,,,,,,,,,,,,,,,,,,,,
55d4d11258c35800113dc2ab,SCN,2024-06-25_12h46.42.014,LearnStrategy,2023.2.3,Win32,59.88023952,,,,,,,,,,,3,06,3,7,,,,,,,,,,,,,,,,,,,,,,,,,,,,,
55d4d11258c35800113dc2ab,SCN,2024-06-25_12h46.42.014,LearnStrategy,2023.2.3,Win32,59.88023952,,,,,,,,,,,4,10,3,8,,,,,,,,,,,,,,,,,,,,,,,,,,,,,
55d4d11258c35800113dc2ab,SCN,2024-06-25_12h46.42.014,LearnStrategy,2023.2.3,Win32,59.88023952,,,,,,,,,,,1,06,4,1,,,,,,,,,,,,,,,,,,,,,,,,,,,,,
55d4d11258c35800113dc2ab,SCN,2024-06-25_12h46.42.014,LearnStrategy,2023.2.3,Win32,59.88023952,,,,,,,,,,,3,10,4,2,,,,,,,,,,,,,,,,,,,,,,,,,,,,,
55d4d11258c35800113dc2ab,SCN,2024-06-25_12h46.42.014,LearnStrategy,2023.2.3,Win32,59.88023952,,,,,,,,,,,6,06,4,3,,,,,,,,,,,,,,,,,,,,,,,,,,,,,
55d4d11258c35800113dc2ab,SCN,2024-06-25_12h46.42.014,LearnStrategy,2023.2.3,Win32,59.88023952,,,,,,,,,,,8,06,4,4,,,,,,,,,,,,,,,,,,,,,,,,,,,,,
55d4d11258c35800113dc2ab,SCN,2024-06-25_12h46.42.014,LearnStrategy,2023.2.3,Win32,59.88023952,,,,,,,,,,,1,11,4,5,,,,,,,,,,,,,,,,,,,,,,,,,,,,,
55d4d11258c35800113dc2ab,SCN,2024-06-25_12h46.42.014,LearnStrategy,2023.2.3,Win32,59.88023952,,,,,,,,,,,2,16,4,6,,,,,,,,,,,,,,,,,,,,,,,,,,,,,
55d4d11258c35800113dc2ab,SCN,2024-06-25_12h46.42.014,LearnStrategy,2023.2.3,Win32,59.88023952,,,,,,,,,,,7,16,4,7,,,,,,,,,,,,,,,,,,,,,,,,,,,,,
55d4d11258c35800113dc2ab,SCN,2024-06-25_12h46.42.014,LearnStrategy,2023.2.3,Win32,59.88023952,,,,,,,,,,,7,13,4,8,,,,,,,,,,,,,,,,,,,,,,,,,,,,,
55d4d11258c35800113dc2ab,SCN,2024-06-25_12h46.42.014,LearnStrategy,2023.2.3,Win32,59.88023952,,,,,,,,,,,6,08,5,1,,,,,,,,,,,,,,,,,,,,,,,,,,,,,
55d4d11258c35800113dc2ab,SCN,2024-06-25_12h46.42.014,LearnStrategy,2023.2.3,Win32,59.88023952,,,,,,,,,,,5,02,5,2,,,,,,,,,,,,,,,,,,,,,,,,,,,,,
55d4d11258c35800113dc2ab,SCN,2024-06-25_12h46.42.014,LearnStrategy,2023.2.3,Win32,59.88023952,,,,,,,,,,,1,02,5,3,,,,,,,,,,,,,,,,,,,,,,,,,,,,,
55d4d11258c35800113dc2ab,SCN,2024-06-25_12h46.42.014,LearnStrategy,2023.2.3,Win32,59.88023952,,,,,,,,,,,5,14,5,4,,,,,,,,,,,,,,,,,,,,,,,,,,,,,
55d4d11258c35800113dc2ab,SCN,2024-06-25_12h46.42.014,LearnStrategy,2023.2.3,Win32,59.88023952,,,,,,,,,,,7,06,5,5,,,,,,,,,,,,,,,,,,,,,,,,,,,,,
55d4d11258c35800113dc2ab,SCN,2024-06-25_12h46.42.014,LearnStrategy,2023.2.3,Win32,59.88023952,,,,,,,,,,,5,10,5,6,,,,,,,,,,,,,,,,,,,,,,,,,,,,,
55d4d11258c35800113dc2ab,SCN,2024-06-25_12h46.42.014,LearnStrategy,2023.2.3,Win32,59.88023952,,,,,,,,,,,4,01,5,7,,,,,,,,,,,,,,,,,,,,,,,,,,,,,
55d4d11258c35800113dc2ab,SCN,2024-06-25_12h46.42.014,LearnStrategy,2023.2.3,Win32,59.88023952,,,,,,,,,,,8,09,5,8,,,,,,,,,,,,,,,,,,,,,,,,,,,,,
55d4d11258c35800113dc2ab,SCN,2024-06-25_12h46.42.014,LearnStrategy,2023.2.3,Win32,59.88023952,,,,,,,,,,,5,12,6,1,,,,,,,,,,,,,,,,,,,,,,,,,,,,,
55d4d11258c35800113dc2ab,SCN,2024-06-25_12h46.42.014,LearnStrategy,2023.2.3,Win32,59.88023952,,,,,,,,,,,3,07,6,2,,,,,,,,,,,,,,,,,,,,,,,,,,,,,
55d4d11258c35800113dc2ab,SCN,2024-06-25_12h46.42.014,LearnStrategy,2023.2.3,Win32,59.88023952,,,,,,,,,,,2,06,6,3,,,,,,,,,,,,,,,,,,,,,,,,,,,,,
55d4d11258c35800113dc2ab,SCN,2024-06-25_12h46.42.014,LearnStrategy,2023.2.3,Win32,59.88023952,,,,,,,,,,,7,04,6,4,,,,,,,,,,,,,,,,,,,,,,,,,,,,,
55d4d11258c35800113dc2ab,SCN,2024-06-25_12h46.42.014,LearnStrategy,2023.2.3,Win32,59.88023952,,,,,,,,,,,4,03,6,5,,,,,,,,,,,,,,,,,,,,,,,,,,,,,
55d4d11258c35800113dc2ab,SCN,2024-06-25_12h46.42.014,LearnStrategy,2023.2.3,Win32,59.88023952,,,,,,,,,,,5,09,6,6,,,,,,,,,,,,,,,,,,,,,,,,,,,,,
55d4d11258c35800113dc2ab,SCN,2024-06-25_12h46.42.014,LearnStrategy,2023.2.3,Win32,59.88023952,,,,,,,,,,,8,04,6,7,,,,,,,,,,,,,,,,,,,,,,,,,,,,,
55d4d11258c35800113dc2ab,SCN,2024-06-25_12h46.42.014,LearnStrategy,2023.2.3,Win32,59.88023952,,,,,,,,,,,3,09,6,8,,,,,,,,,,,,,,,,,,,,,,,,,,,,,