participant,condition,date,expName,psychopyVersion,OS,frameRate,block,phase,trial,learn_mouse.x,learn_mouse.y,learn_mouse.leftButton,learn_mouse.midButton,learn_mouse.rightButton,learn_mouse.time,learn_mouse.clicked_name,cat,token,row,col,t_select,cat_rec,token_rec,cat_mouse_l.x,cat_mouse_l.y,cat_mouse_l.leftButton,cat_mouse_l.midButton,cat_mouse_l.rightButton,cat_mouse_l.time,cat_mouse_l.clicked_name,resp,t_resp,corr,train_trials.thisRepN,train_trials.thisTrialN,train_trials.thisN,train_trials.thisIndex,train_trials.ran,cat_mouse_t.x,cat_mouse_t.y,cat_mouse_t.leftButton,cat_mouse_t.midButton,cat_mouse_t.rightButton,cat_mouse_t.time,cat_mouse_t.clicked_name,test_trials.thisRepN,test_trials.thisTrialN,test_trials.thisN,test_trials.thisIndex,test_trials.ran,Bonus
56259489ed6e5a0005c80fde,SCR,2024-06-11_12h32.04.319,LearnStrategy,2023.2.3,Win32,60.24096386,,,,,,,,,,,,,,,,,,,,,,,,,,,,,,,,,,,,,,,,,,,,,
56259489ed6e5a0005c80fde,SCR,2024-06-11_12h32.04.319,LearnStrategy,2023.2.3,Win32,60.24096386,1,1,1,0.200925968,0.070370356,1,0,0,3.1526,Pegmatite_10,6,10,4,6,3.153,3,11,0.146296325,-0.234259288,1,0,0,4.3982,Diorite_rect,3,4.398,0,0,0,0,0,1,,,,,,,,,,,,,
56259489ed6e5a0005c80fde,SCR,2024-06-11_12h32.04.319,LearnStrategy,2023.2.3,Win32,60.24096386,1,1,2,-0.247222194,0.249074071,1,0,0,2.3204,Obsidian_07,5,07,5,3,2.32,8,16,-0.354629623,-0.408333319,1,0,0,4.9667,Obsidian_rect,5,4.967,1,1,0,1,0,1,,,,,,,,,,,,,
56259489ed6e5a0005c80fde,SCR,2024-06-11_12h32.04.319,LearnStrategy,2023.2.3,Win32,60.24096386,1,1,3,0.402777778,-0.233333376,1,0,0,3.0806,Pumice_16,8,16,2,7,3.081,6,08,-0.12037037,-0.24537037,1,0,0,2.3177,Basalt_rect,2,2.318,0,2,0,2,0,1,,,,,,,,,,,,,
56259489ed6e5a0005c80fde,SCR,2024-06-11_12h32.04.319,LearnStrategy,2023.2.3,Win32,60.24096386,1,1,4,-0.034259231,0.080555563,1,0,0,1.0797,Basalt_11,2,11,4,4,1.08,2,02,-0.089814787,-0.243518547,1,0,0,1.6414,Basalt_rect,2,1.641,1,3,0,3,0,1,,,,,,,,,,,,,
56259489ed6e5a0005c80fde,SCR,2024-06-11_12h32.04.319,LearnStrategy,2023.2.3,Win32,60.24096386,1,1,5,0.074074074,0.26203703,1,0,0,3.1312,Peridotite_02,7,02,5,5,3.131,7,02,0.10092594,-0.252777806,1,0,0,1.4026,Diorite_rect,3,1.403,0,4,0,4,0,1,,,,,,,,,,,,,
56259489ed6e5a0005c80fde,SCR,2024-06-11_12h32.04.319,LearnStrategy,2023.2.3,Win32,60.24096386,1,1,6,-0.502777771,0.092592593,1,0,0,2.0374,Andesite_11,1,11,4,1,2.037,1,11,0.348148205,-0.260185171,1,0,0,3.3688,Gabbro_rect,4,3.369,0,5,0,5,0,1,,,,,,,,,,,,,
56259489ed6e5a0005c80fde,SCR,2024-06-11_12h32.04.319,LearnStrategy,2023.2.3,Win32,60.24096386,1,1,7,0.212962963,-0.248148176,1,0,0,1.4799,Obsidian_11,5,11,2,6,1.48,5,11,-0.357407393,-0.39444443,1,0,0,2.4419,Obsidian_rect,5,2.442,1,6,0,6,0,1,,,,,,,,,,,,,
56259489ed6e5a0005c80fde,SCR,2024-06-11_12h32.04.319,LearnStrategy,2023.2.3,Win32,60.24096386,1,1,8,-0.215740698,-0.402777778,1,0,0,1.3273,Obsidian_02,5,02,1,3,1.327,5,02,-0.364814794,-0.39444443,1,0,0,1.1398,Obsidian_rect,5,1.14,1,7,0,7,0,1,,,,,,,,,,,,,
56259489ed6e5a0005c80fde,SCR,2024-06-11_12h32.04.319,LearnStrategy,2023.2.3,Win32,60.24096386,1,1,9,0.209259245,0.26203703,1,0,0,2.7481,Gabbro_13,4,13,5,6,2.748,4,13,0.150925954,-0.25,1,0,0,2.8254,Diorite_rect,3,2.825,0,8,0,8,0,1,,,,,,,,,,,,,
56259489ed6e5a0005c80fde,SCR,2024-06-11_12h32.04.319,LearnStrategy,2023.2.3,Win32,60.24096386,1,1,10,0.544444473,0.397222219,1,0,0,1.6973,Pumice_15,8,15,6,8,1.697,8,15,0.356481481,-0.39444443,1,0,0,5.475,Pumice_rect,8,5.475,1,9,0,9,0,1,,,,,,,,,,,,,
56259489ed6e5a0005c80fde,SCR,2024-06-11_12h32.04.319,LearnStrategy,2023.2.3,Win32,60.24096386,1,1,11,-0.041666667,0.086111104,1,0,0,1.0471,Basalt_11,2,11,4,4,1.047,2,11,-0.083333333,-0.25,1,0,0,0.9323,Basalt_rect,2,0.932,1,10,0,10,0,1,,,,,,,,,,,,,
56259489ed6e5a0005c80fde,SCR,2024-06-11_12h32.04.319,LearnStrategy,2023.2.3,Win32,60.24096386,1,1,12,0.385185242,0.411111108,1,0,0,1.303,Gabbro_08,4,08,6,7,1.303,4,08,0.133333347,-0.249074088,1,0,0,2.0487,Diorite_rect,3,2.049,0,11,0,11,0,1,,,,,,,,,,,,,
56259489ed6e5a0005c80fde,SCR,2024-06-11_12h32.04.319,LearnStrategy,2023.2.3,Win32,60.24096386,1,1,13,-0.064814815,-0.265740783,1,0,0,1.0466,Diorite_13,3,13,2,4,1.047,3,13,0.112963005,-0.263888889,1,0,0,2.475,Diorite_rect,3,2.475,1,12,0,12,0,1,,,,,,,,,,,,,
56259489ed6e5a0005c80fde,SCR,2024-06-11_12h32.04.319,LearnStrategy,2023.2.3,Win32,60.24096386,1,1,14,-0.062037009,-0.419444473,1,0,0,1.0142,Pegmatite_05,6,05,1,4,1.014,6,05,-0.030555513,-0.409259302,1,0,0,1.8899,Pegmatite_rect,6,1.89,1,13,0,13,0,1,,,,,,,,,,,,,
56259489ed6e5a0005c80fde,SCR,2024-06-11_12h32.04.319,LearnStrategy,2023.2.3,Win32,60.24096386,1,1,15,-0.059259273,0.392592589,1,0,0,1.1309,Andesite_02,1,02,6,4,1.131,1,02,0.050925926,-0.237037023,1,0,0,1.596,Diorite_rect,3,1.596,0,14,0,14,0,1,,,,,,,,,,,,,
56259489ed6e5a0005c80fde,SCR,2024-06-11_12h32.04.319,LearnStrategy,2023.2.3,Win32,60.24096386,1,1,16,0.538888861,0.2462963,1,0,0,1.1474,Peridotite_15,7,15,5,8,1.147,7,15,0.231481481,-0.413888931,1,0,0,1.4942,Peridotite_rect,7,1.494,1,15,0,15,0,1,,,,,,,,,,,,,
56259489ed6e5a0005c80fde,SCR,2024-06-11_12h32.04.319,LearnStrategy,2023.2.3,Win32,60.24096386,1,2,1,,,,,,,,6,16,,,,,,,,,,,,,6,4.003,1,,,,,,-0.10555557,-0.412962949,1,0,0,4.0032,Pegmatite_rect,0,0,0,0,1,
56259489ed6e5a0005c80fde,SCR,2024-06-11_12h32.04.319,LearnStrategy,2023.2.3,Win32,60.24096386,1,2,2,,,,,,,,5,08,,,,,,,,,,,,,5,1.664,1,,,,,,-0.412037037,-0.414814843,1,0,0,1.6636,Obsidian_rect,1,0,1,0,1,
56259489ed6e5a0005c80fde,SCR,2024-06-11_12h32.04.319,LearnStrategy,2023.2.3,Win32,60.24096386,1,2,3,,,,,,,,7,13,,,,,,,,,,,,,7,1.336,1,,,,,,0.152777778,-0.40370369,1,0,0,1.336,Peridotite_rect,2,0,2,0,1,
56259489ed6e5a0005c80fde,SCR,2024-06-11_12h32.04.319,LearnStrategy,2023.2.3,Win32,60.24096386,1,2,4,,,,,,,,2,01,,,,,,,,,,,,,2,2.471,1,,,,,,-0.084259245,-0.255555541,1,0,0,2.4707,Basalt_rect,3,0,3,0,1,
56259489ed6e5a0005c80fde,SCR,2024-06-11_12h32.04.319,LearnStrategy,2023.2.3,Win32,60.24096386,1,2,5,,,,,,,,2,12,,,,,,,,,,,,,4,4.55,0,,,,,,0.384259259,-0.235185199,1,0,0,4.5501,Gabbro_rect,4,0,4,0,1,
56259489ed6e5a0005c80fde,SCR,2024-06-11_12h32.04.319,LearnStrategy,2023.2.3,Win32,60.24096386,1,2,6,,,,,,,,4,10,,,,,,,,,,,,,2,2.729,0,,,,,,-0.09629631,-0.256481524,1,0,0,2.729,Basalt_rect,5,0,5,0,1,
56259489ed6e5a0005c80fde,SCR,2024-06-11_12h32.04.319,LearnStrategy,2023.2.3,Win32,60.24096386,1,2,7,,,,,,,,5,05,,,,,,,,,,,,,1,5.132,0,,,,,,-0.327777757,-0.268518519,1,0,0,5.1317,Andesite_rect,6,0,6,0,1,
56259489ed6e5a0005c80fde,SCR,2024-06-11_12h32.04.319,LearnStrategy,2023.2.3,Win32,60.24096386,1,2,8,,,,,,,,7,06,,,,,,,,,,,,,7,1.301,1,,,,,,0.146296325,-0.384259259,1,0,0,1.3011,Peridotite_rect,7,0,7,0,1,
56259489ed6e5a0005c80fde,SCR,2024-06-11_12h32.04.319,LearnStrategy,2023.2.3,Win32,60.24096386,1,2,9,,,,,,,,1,14,,,,,,,,,,,,,3,3.887,0,,,,,,0.109259288,-0.24537037,1,0,0,3.887,Diorite_rect,8,0,8,0,1,
56259489ed6e5a0005c80fde,SCR,2024-06-11_12h32.04.319,LearnStrategy,2023.2.3,Win32,60.24096386,1,2,10,,,,,,,,6,09,,,,,,,,,,,,,3,5.672,0,,,,,,0.109259288,-0.24537037,1,0,0,5.6717,Diorite_rect,9,0,9,0,1,
56259489ed6e5a0005c80fde,SCR,2024-06-11_12h32.04.319,LearnStrategy,2023.2.3,Win32,60.24096386,1,2,11,,,,,,,,3,08,,,,,,,,,,,,,1,1.817,0,,,,,,-0.366666653,-0.262962977,1,0,0,1.8172,Andesite_rect,10,0,10,0,1,
56259489ed6e5a0005c80fde,SCR,2024-06-11_12h32.04.319,LearnStrategy,2023.2.3,Win32,60.24096386,1,2,12,,,,,,,,3,15,,,,,,,,,,,,,3,7.957,1,,,,,,0.141666695,-0.247222265,1,0,0,7.9568,Diorite_rect,11,0,11,0,1,
56259489ed6e5a0005c80fde,SCR,2024-06-11_12h32.04.319,LearnStrategy,2023.2.3,Win32,60.24096386,1,2,13,,,,,,,,8,09,,,,,,,,,,,,,8,3.192,1,,,,,,0.365740741,-0.397222236,1,0,0,3.1917,Pumice_rect,12,0,12,0,1,
56259489ed6e5a0005c80fde,SCR,2024-06-11_12h32.04.319,LearnStrategy,2023.2.3,Win32,60.24096386,1,2,14,,,,,,,,1,04,,,,,,,,,,,,,1,4.465,1,,,,,,-0.376851859,-0.262962977,1,0,0,4.4655,Andesite_rect,13,0,13,0,1,
56259489ed6e5a0005c80fde,SCR,2024-06-11_12h32.04.319,LearnStrategy,2023.2.3,Win32,60.24096386,1,2,15,,,,,,,,4,01,,,,,,,,,,,,,2,1.535,0,,,,,,-0.17314812,-0.265740783,1,0,0,1.5345,Basalt_rect,14,0,14,0,1,
56259489ed6e5a0005c80fde,SCR,2024-06-11_12h32.04.319,LearnStrategy,2023.2.3,Win32,60.24096386,1,2,16,,,,,,,,8,06,,,,,,,,,,,,,8,1.61,1,,,,,,0.419444473,-0.398148148,1,0,0,1.6096,Pumice_rect,15,0,15,0,1,
56259489ed6e5a0005c80fde,SCR,2024-06-11_12h32.04.319,LearnStrategy,2023.2.3,Win32,60.24096386,2,1,1,-0.51666666,-0.398148148,1,0,0,1.8236,Diorite_09,3,09,1,1,1.824,3,09,-0.436111097,-0.260185171,1,0,0,1.7771,Andesite_rect,1,1.777,0,0,0,0,0,1,,,,,,,,,,,,,
56259489ed6e5a0005c80fde,SCR,2024-06-11_12h32.04.319,LearnStrategy,2023.2.3,Win32,60.24096386,2,1,2,0.095370399,-0.39907406,1,0,0,1.1971,Andesite_05,1,05,1,5,1.197,1,05,0.079629616,-0.262962977,1,0,0,1.4552,Diorite_rect,3,1.455,0,1,0,1,0,1,,,,,,,,,,,,,
56259489ed6e5a0005c80fde,SCR,2024-06-11_12h32.04.319,LearnStrategy,2023.2.3,Win32,60.24096386,2,1,3,0.399074131,0.271296289,1,0,0,1.2474,Gabbro_11,4,11,5,7,1.247,4,11,-0.065740727,-0.234259288,1,0,0,1.7245,Basalt_rect,2,1.725,0,2,0,2,0,1,,,,,,,,,,,,,
56259489ed6e5a0005c80fde,SCR,2024-06-11_12h32.04.319,LearnStrategy,2023.2.3,Win32,60.24096386,2,1,4,0.258333347,-0.102777764,1,0,0,2.9486,Peridotite_12,7,12,3,6,2.949,4,11,0.166666667,-0.413888931,1,0,0,2.2292,Peridotite_rect,7,2.229,1,3,0,3,0,1,,,,,,,,,,,,,
56259489ed6e5a0005c80fde,SCR,2024-06-11_12h32.04.319,LearnStrategy,2023.2.3,Win32,60.24096386,2,1,5,0.053703732,-0.242592635,1,0,0,1.0639,Andesite_06,1,06,2,5,1.064,1,06,0.093518504,-0.235185199,1,0,0,1.5419,Diorite_rect,3,1.542,0,4,0,4,0,1,,,,,,,,,,,,,
56259489ed6e5a0005c80fde,SCR,2024-06-11_12h32.04.319,LearnStrategy,2023.2.3,Win32,60.24096386,2,1,6,0.05740745,-0.393518519,1,0,0,1.0651,Andesite_05,1,05,1,5,1.065,1,05,0.060185185,-0.236111111,1,0,0,1.3416,Diorite_rect,3,1.342,0,5,0,5,0,1,,,,,,,,,,,,,
56259489ed6e5a0005c80fde,SCR,2024-06-11_12h32.04.319,LearnStrategy,2023.2.3,Win32,60.24096386,2,1,7,-0.064814815,-0.37962963,1,0,0,1.0635,Pegmatite_05,6,05,1,4,1.063,6,05,-0.064814815,-0.37962963,1,0,0,1.6104,Pegmatite_rect,6,1.61,1,6,0,6,0,1,,,,,,,,,,,,,
56259489ed6e5a0005c80fde,SCR,2024-06-11_12h32.04.319,LearnStrategy,2023.2.3,Win32,60.24096386,2,1,8,-0.031481496,-0.25462963,1,0,0,1.0816,Diorite_13,3,13,2,4,1.082,3,13,0.14444443,-0.265740783,1,0,0,3.0205,Diorite_rect,3,3.021,1,7,0,7,0,1,,,,,,,,,,,,,
56259489ed6e5a0005c80fde,SCR,2024-06-11_12h32.04.319,LearnStrategy,2023.2.3,Win32,60.24096386,2,1,9,-0.424999979,0.087962963,1,0,0,2.7653,Gabbro_09,4,09,4,2,2.765,5,10,-0.112962935,-0.23055557,1,0,0,1.5833,Basalt_rect,2,1.583,0,8,0,8,0,1,,,,,,,,,,,,,
56259489ed6e5a0005c80fde,SCR,2024-06-11_12h32.04.319,LearnStrategy,2023.2.3,Win32,60.24096386,2,1,10,-0.190740727,-0.12962963,1,0,0,1.0635,Pegmatite_06,6,06,3,3,1.064,6,06,-0.079629616,-0.388888889,1,0,0,2.2087,Pegmatite_rect,6,2.209,1,9,0,9,0,1,,,,,,,,,,,,,
56259489ed6e5a0005c80fde,SCR,2024-06-11_12h32.04.319,LearnStrategy,2023.2.3,Win32,60.24096386,2,1,11,-0.026851866,0.082407386,1,0,0,1.3324,Basalt_11,2,11,4,4,1.332,2,11,-0.068518533,-0.237037023,1,0,0,1.3291,Basalt_rect,2,1.329,1,10,0,10,0,1,,,,,,,,,,,,,
56259489ed6e5a0005c80fde,SCR,2024-06-11_12h32.04.319,LearnStrategy,2023.2.3,Win32,60.24096386,2,1,12,-0.369444423,0.055555556,1,0,0,1.0812,Gabbro_09,4,09,4,2,1.081,4,09,0.376851824,-0.234259288,1,0,0,2.2586,Gabbro_rect,4,2.259,1,11,0,11,0,1,,,,,,,,,,,,,
56259489ed6e5a0005c80fde,SCR,2024-06-11_12h32.04.319,LearnStrategy,2023.2.3,Win32,60.24096386,2,1,13,-0.224074046,-0.412037037,1,0,0,1.1475,Obsidian_02,5,02,1,3,1.148,5,02,-0.400000007,-0.406481496,1,0,0,0.9699,Obsidian_rect,5,0.97,1,12,0,12,0,1,,,,,,,,,,,,,
56259489ed6e5a0005c80fde,SCR,2024-06-11_12h32.04.319,LearnStrategy,2023.2.3,Win32,60.24096386,2,1,14,0.537963019,0.088888875,1,0,0,1.1579,Gabbro_14,4,14,4,8,1.158,4,14,-0.140740712,-0.244444459,1,0,0,1.7752,Basalt_rect,2,1.775,0,13,0,13,0,1,,,,,,,,,,,,,
56259489ed6e5a0005c80fde,SCR,2024-06-11_12h32.04.319,LearnStrategy,2023.2.3,Win32,60.24096386,2,1,15,0.249074088,-0.412962949,1,0,0,0.999,Basalt_02,2,02,1,6,0.999,2,02,-0.091666681,-0.238888917,1,0,0,1.0081,Basalt_rect,2,1.008,1,14,0,14,0,1,,,,,,,,,,,,,
56259489ed6e5a0005c80fde,SCR,2024-06-11_12h32.04.319,LearnStrategy,2023.2.3,Win32,60.24096386,2,1,16,-0.40370369,0.24537037,1,0,0,0.9973,Basalt_10,2,10,5,2,0.997,2,10,0.354629658,-0.256481524,1,0,0,5.638,Gabbro_rect,4,5.638,0,15,0,15,0,1,,,,,,,,,,,,,
56259489ed6e5a0005c80fde,SCR,2024-06-11_12h32.04.319,LearnStrategy,2023.2.3,Win32,60.24096386,2,2,1,,,,,,,,7,10,,,,,,,,,,,,,7,1.555,1,,,,,,0.146296325,-0.383333347,1,0,0,1.555,Peridotite_rect,0,0,0,0,1,
56259489ed6e5a0005c80fde,SCR,2024-06-11_12h32.04.319,LearnStrategy,2023.2.3,Win32,60.24096386,2,2,2,,,,,,,,6,03,,,,,,,,,,,,,6,1.309,1,,,,,,-0.094444416,-0.381481524,1,0,0,1.309,Pegmatite_rect,1,0,1,0,1,
56259489ed6e5a0005c80fde,SCR,2024-06-11_12h32.04.319,LearnStrategy,2023.2.3,Win32,60.24096386,2,2,3,,,,,,,,4,16,,,,,,,,,,,,,4,4.111,1,,,,,,0.396296325,-0.252777806,1,0,0,4.1109,Gabbro_rect,2,0,2,0,1,
56259489ed6e5a0005c80fde,SCR,2024-06-11_12h32.04.319,LearnStrategy,2023.2.3,Win32,60.24096386,2,2,4,,,,,,,,3,12,,,,,,,,,,,,,3,2.94,1,,,,,,0.161111125,-0.25462963,1,0,0,2.9405,Diorite_rect,3,0,3,0,1,
56259489ed6e5a0005c80fde,SCR,2024-06-11_12h32.04.319,LearnStrategy,2023.2.3,Win32,60.24096386,2,2,5,,,,,,,,7,07,,,,,,,,,,,,,7,1.351,1,,,,,,0.166666667,-0.382407436,1,0,0,1.3514,Peridotite_rect,4,0,4,0,1,
56259489ed6e5a0005c80fde,SCR,2024-06-11_12h32.04.319,LearnStrategy,2023.2.3,Win32,60.24096386,2,2,6,,,,,,,,1,03,,,,,,,,,,,,,1,1.923,1,,,,,,-0.347222222,-0.237037023,1,0,0,1.9228,Andesite_rect,5,0,5,0,1,
56259489ed6e5a0005c80fde,SCR,2024-06-11_12h32.04.319,LearnStrategy,2023.2.3,Win32,60.24096386,2,2,7,,,,,,,,6,12,,,,,,,,,,,,,6,1.42,1,,,,,,-0.179629644,-0.390740783,1,0,0,1.4198,Pegmatite_rect,6,0,6,0,1,
56259489ed6e5a0005c80fde,SCR,2024-06-11_12h32.04.319,LearnStrategy,2023.2.3,Win32,60.24096386,2,2,8,,,,,,,,3,14,,,,,,,,,,,,,3,1.992,1,,,,,,0.128703718,-0.255555541,1,0,0,1.9922,Diorite_rect,7,0,7,0,1,
56259489ed6e5a0005c80fde,SCR,2024-06-11_12h32.04.319,LearnStrategy,2023.2.3,Win32,60.24096386,2,2,9,,,,,,,,8,08,,,,,,,,,,,,,8,1.657,1,,,,,,0.361111111,-0.414814843,1,0,0,1.6572,Pumice_rect,8,0,8,0,1,
56259489ed6e5a0005c80fde,SCR,2024-06-11_12h32.04.319,LearnStrategy,2023.2.3,Win32,60.24096386,2,2,10,,,,,,,,8,14,,,,,,,,,,,,,8,0.808,1,,,,,,0.361111111,-0.414814843,1,0,0,0.8081,Pumice_rect,9,0,9,0,1,
56259489ed6e5a0005c80fde,SCR,2024-06-11_12h32.04.319,LearnStrategy,2023.2.3,Win32,60.24096386,2,2,11,,,,,,,,5,12,,,,,,,,,,,,,5,1.454,1,,,,,,-0.38703703,-0.396296325,1,0,0,1.4544,Obsidian_rect,10,0,10,0,1,
56259489ed6e5a0005c80fde,SCR,2024-06-11_12h32.04.319,LearnStrategy,2023.2.3,Win32,60.24096386,2,2,12,,,,,,,,2,16,,,,,,,,,,,,,2,2.142,1,,,,,,-0.127777735,-0.253703718,1,0,0,2.1425,Basalt_rect,11,0,11,0,1,
56259489ed6e5a0005c80fde,SCR,2024-06-11_12h32.04.319,LearnStrategy,2023.2.3,Win32,60.24096386,2,2,13,,,,,,,,4,03,,,,,,,,,,,,,1,6.978,0,,,,,,-0.349999993,-0.243518547,1,0,0,6.9779,Andesite_rect,12,0,12,0,1,
56259489ed6e5a0005c80fde,SCR,2024-06-11_12h32.04.319,LearnStrategy,2023.2.3,Win32,60.24096386,2,2,14,,,,,,,,5,14,,,,,,,,,,,,,5,1.034,1,,,,,,-0.333333333,-0.391666695,1,0,0,1.0337,Obsidian_rect,13,0,13,0,1,
56259489ed6e5a0005c80fde,SCR,2024-06-11_12h32.04.319,LearnStrategy,2023.2.3,Win32,60.24096386,2,2,15,,,,,,,,1,01,,,,,,,,,,,,,1,7.044,1,,,,,,-0.325925933,-0.248148176,1,0,0,7.0444,Andesite_rect,14,0,14,0,1,
56259489ed6e5a0005c80fde,SCR,2024-06-11_12h32.04.319,LearnStrategy,2023.2.3,Win32,60.24096386,2,2,16,,,,,,,,2,05,,,,,,,,,,,,,2,1.669,1,,,,,,-0.143518519,-0.248148176,1,0,0,1.6693,Basalt_rect,15,0,15,0,1,
56259489ed6e5a0005c80fde,SCR,2024-06-11_12h32.04.319,LearnStrategy,2023.2.3,Win32,60.24096386,3,1,1,0.205555598,-0.42777782,1,0,0,2.2162,Basalt_02,2,02,1,6,2.216,2,02,-0.070370356,-0.24537037,1,0,0,0.9528,Basalt_rect,2,0.953,1,0,0,0,0,1,,,,,,,,,,,,,
56259489ed6e5a0005c80fde,SCR,2024-06-11_12h32.04.319,LearnStrategy,2023.2.3,Win32,60.24096386,3,1,2,-0.401851831,-0.387037065,1,0,0,2.0538,Diorite_02,3,02,1,2,2.054,3,02,0.085185228,-0.253703718,1,0,0,2.4939,Diorite_rect,3,2.494,1,1,0,1,0,1,,,,,,,,,,,,,
56259489ed6e5a0005c80fde,SCR,2024-06-11_12h32.04.319,LearnStrategy,2023.2.3,Win32,60.24096386,3,1,3,-0.346296275,-0.233333376,1,0,0,1.1192,Basalt_06,2,06,2,2,1.119,2,06,-0.175925926,-0.238888917,1,0,0,4.3657,Basalt_rect,2,4.366,1,2,0,2,0,1,,,,,,,,,,,,,
56259489ed6e5a0005c80fde,SCR,2024-06-11_12h32.04.319,LearnStrategy,2023.2.3,Win32,60.24096386,3,1,4,0.08148151,-0.249074088,1,0,0,0.9325,Andesite_06,1,06,2,5,0.932,1,06,-0.354629623,-0.237037023,1,0,0,2.2533,Andesite_rect,1,2.253,1,3,0,3,0,1,,,,,,,,,,,,,
56259489ed6e5a0005c80fde,SCR,2024-06-11_12h32.04.319,LearnStrategy,2023.2.3,Win32,60.24096386,3,1,5,0.380555612,-0.237037023,1,0,0,1.3043,Pumice_16,8,16,2,7,1.304,8,16,0.384259259,-0.398148148,1,0,0,1.5133,Pumice_rect,8,1.513,1,4,0,4,0,1,,,,,,,,,,,,,
56259489ed6e5a0005c80fde,SCR,2024-06-11_12h32.04.319,LearnStrategy,2023.2.3,Win32,60.24096386,3,1,6,0.204629616,0.070370356,1,0,0,0.981,Pegmatite_10,6,10,4,6,0.981,6,10,-0.080555527,-0.400000042,1,0,0,2.8733,Pegmatite_rect,6,2.873,1,5,0,5,0,1,,,,,,,,,,,,,
56259489ed6e5a0005c80fde,SCR,2024-06-11_12h32.04.319,LearnStrategy,2023.2.3,Win32,60.24096386,3,1,7,0.512037065,0.107407393,1,0,0,1.0492,Gabbro_14,4,14,4,8,1.049,4,14,-0.404629637,-0.237963005,1,0,0,2.4749,Andesite_rect,1,2.475,0,6,0,6,0,1,,,,,,,,,,,,,
56259489ed6e5a0005c80fde,SCR,2024-06-11_12h32.04.319,LearnStrategy,2023.2.3,Win32,60.24096386,3,1,8,0.222222222,0.278703707,1,0,0,0.9314,Gabbro_13,4,13,5,6,0.931,4,13,0.412037037,-0.262962977,1,0,0,0.928,Gabbro_rect,4,0.928,1,7,0,7,0,1,,,,,,,,,,,,,
56259489ed6e5a0005c80fde,SCR,2024-06-11_12h32.04.319,LearnStrategy,2023.2.3,Win32,60.24096386,3,1,9,0.42314812,-0.393518519,1,0,0,1.5974,Diorite_06,3,06,1,7,1.597,3,06,0.150925954,-0.236111111,1,0,0,3.7604,Diorite_rect,3,3.76,1,8,0,8,0,1,,,,,,,,,,,,,
56259489ed6e5a0005c80fde,SCR,2024-06-11_12h32.04.319,LearnStrategy,2023.2.3,Win32,60.24096386,3,1,10,0.25,0.065740727,1,0,0,0.9311,Pegmatite_10,6,10,4,6,0.931,6,10,-0.126851824,-0.405555584,1,0,0,1.3067,Pegmatite_rect,6,1.307,1,9,0,9,0,1,,,,,,,,,,,,,
56259489ed6e5a0005c80fde,SCR,2024-06-11_12h32.04.319,LearnStrategy,2023.2.3,Win32,60.24096386,3,1,11,-0.380555541,0.072222215,1,0,0,1.0656,Gabbro_09,4,09,4,2,1.066,4,09,0.345370399,-0.228703746,1,0,0,2.1444,Gabbro_rect,4,2.144,1,10,0,10,0,1,,,,,,,,,,,,,
56259489ed6e5a0005c80fde,SCR,2024-06-11_12h32.04.319,LearnStrategy,2023.2.3,Win32,60.24096386,3,1,12,0.535185213,0.205555545,1,0,0,1.0811,Peridotite_15,7,15,5,8,1.081,7,15,0.137037065,-0.402777778,1,0,0,0.9885,Peridotite_rect,7,0.989,1,11,0,11,0,1,,,,,,,,,,,,,
56259489ed6e5a0005c80fde,SCR,2024-06-11_12h32.04.319,LearnStrategy,2023.2.3,Win32,60.24096386,3,1,13,0.211111139,0.219444434,1,0,0,1.0537,Gabbro_13,4,13,5,6,1.054,4,13,0.343518575,-0.246296282,1,0,0,3.3162,Gabbro_rect,4,3.316,1,12,0,12,0,1,,,,,,,,,,,,,
56259489ed6e5a0005c80fde,SCR,2024-06-11_12h32.04.319,LearnStrategy,2023.2.3,Win32,60.24096386,3,1,14,-0.046296296,-0.098148134,1,0,0,0.981,Gabbro_12,4,12,3,4,0.981,4,12,-0.090740698,-0.232407393,1,0,0,2.2695,Basalt_rect,2,2.269,0,13,0,13,0,1,,,,,,,,,,,,,
56259489ed6e5a0005c80fde,SCR,2024-06-11_12h32.04.319,LearnStrategy,2023.2.3,Win32,60.24096386,3,1,15,0.600000028,-0.252777806,1,0,0,1.0251,Obsidian_06,5,06,2,8,1.025,5,06,-0.375925912,-0.393518519,1,0,0,1.17,Obsidian_rect,5,1.17,1,14,0,14,0,1,,,,,,,,,,,,,
56259489ed6e5a0005c80fde,SCR,2024-06-11_12h32.04.319,LearnStrategy,2023.2.3,Win32,60.24096386,3,1,16,-0.057407379,0.242592582,1,0,0,2.4662,Peridotite_04,7,04,5,4,2.466,5,02,0.152777778,-0.239814829,1,0,0,1.9201,Diorite_rect,3,1.92,0,15,0,15,0,1,,,,,,,,,,,,,
56259489ed6e5a0005c80fde,SCR,2024-06-11_12h32.04.319,LearnStrategy,2023.2.3,Win32,60.24096386,3,2,1,,,,,,,,7,16,,,,,,,,,,,,,7,4.19,1,,,,,,0.146296325,-0.382407436,1,0,0,4.1897,Peridotite_rect,0,0,0,0,1,
56259489ed6e5a0005c80fde,SCR,2024-06-11_12h32.04.319,LearnStrategy,2023.2.3,Win32,60.24096386,3,2,2,,,,,,,,6,15,,,,,,,,,,,,,6,1.446,1,,,,,,-0.085185157,-0.385185171,1,0,0,1.446,Pegmatite_rect,1,0,1,0,1,
56259489ed6e5a0005c80fde,SCR,2024-06-11_12h32.04.319,LearnStrategy,2023.2.3,Win32,60.24096386,3,2,3,,,,,,,,3,16,,,,,,,,,,,,,3,1.69,1,,,,,,0.127777806,-0.252777806,1,0,0,1.6905,Diorite_rect,2,0,2,0,1,
56259489ed6e5a0005c80fde,SCR,2024-06-11_12h32.04.319,LearnStrategy,2023.2.3,Win32,60.24096386,3,2,4,,,,,,,,4,05,,,,,,,,,,,,,4,2.526,1,,,,,,0.369444529,-0.248148176,1,0,0,2.5257,Gabbro_rect,3,0,3,0,1,
56259489ed6e5a0005c80fde,SCR,2024-06-11_12h32.04.319,LearnStrategy,2023.2.3,Win32,60.24096386,3,2,5,,,,,,,,2,08,,,,,,,,,,,,,2,2.752,1,,,,,,-0.102777764,-0.249074088,1,0,0,2.7524,Basalt_rect,4,0,4,0,1,
56259489ed6e5a0005c80fde,SCR,2024-06-11_12h32.04.319,LearnStrategy,2023.2.3,Win32,60.24096386,3,2,6,,,,,,,,5,04,,,,,,,,,,,,,5,1.126,1,,,,,,-0.350925905,-0.411111125,1,0,0,1.1256,Obsidian_rect,5,0,5,0,1,
56259489ed6e5a0005c80fde,SCR,2024-06-11_12h32.04.319,LearnStrategy,2023.2.3,Win32,60.24096386,3,2,7,,,,,,,,6,11,,,,,,,,,,,,,6,2.754,1,,,,,,-0.121296282,-0.411111125,1,0,0,2.7537,Pegmatite_rect,6,0,6,0,1,
56259489ed6e5a0005c80fde,SCR,2024-06-11_12h32.04.319,LearnStrategy,2023.2.3,Win32,60.24096386,3,2,8,,,,,,,,5,16,,,,,,,,,,,,,5,1.084,1,,,,,,-0.363888882,-0.386111153,1,0,0,1.0843,Obsidian_rect,7,0,7,0,1,
56259489ed6e5a0005c80fde,SCR,2024-06-11_12h32.04.319,LearnStrategy,2023.2.3,Win32,60.24096386,3,2,9,,,,,,,,1,10,,,,,,,,,,,,,1,7.712,1,,,,,,-0.312962956,-0.248148176,1,0,0,7.712,Andesite_rect,8,0,8,0,1,
56259489ed6e5a0005c80fde,SCR,2024-06-11_12h32.04.319,LearnStrategy,2023.2.3,Win32,60.24096386,3,2,10,,,,,,,,3,10,,,,,,,,,,,,,3,1.735,1,,,,,,0.080555598,-0.267592607,1,0,0,1.7346,Diorite_rect,9,0,9,0,1,
56259489ed6e5a0005c80fde,SCR,2024-06-11_12h32.04.319,LearnStrategy,2023.2.3,Win32,60.24096386,3,2,11,,,,,,,,8,04,,,,,,,,,,,,,8,1.475,1,,,,,,0.37037037,-0.40370369,1,0,0,1.4748,Pumice_rect,10,0,10,0,1,
56259489ed6e5a0005c80fde,SCR,2024-06-11_12h32.04.319,LearnStrategy,2023.2.3,Win32,60.24096386,3,2,12,,,,,,,,8,13,,,,,,,,,,,,,8,1.191,1,,,,,,0.37037037,-0.40370369,1,0,0,1.1911,Pumice_rect,11,0,11,0,1,
56259489ed6e5a0005c80fde,SCR,2024-06-11_12h32.04.319,LearnStrategy,2023.2.3,Win32,60.24096386,3,2,13,,,,,,,,2,04,,,,,,,,,,,,,2,1.692,1,,,,,,-0.10555557,-0.250925912,1,0,0,1.6919,Basalt_rect,12,0,12,0,1,
56259489ed6e5a0005c80fde,SCR,2024-06-11_12h32.04.319,LearnStrategy,2023.2.3,Win32,60.24096386,3,2,14,,,,,,,,7,14,,,,,,,,,,,,,7,1.779,1,,,,,,0.097222222,-0.396296325,1,0,0,1.7794,Peridotite_rect,13,0,13,0,1,
56259489ed6e5a0005c80fde,SCR,2024-06-11_12h32.04.319,LearnStrategy,2023.2.3,Win32,60.24096386,3,2,15,,,,,,,,1,09,,,,,,,,,,,,,1,3.572,1,,,,,,-0.321296303,-0.228703746,1,0,0,3.5723,Andesite_rect,14,0,14,0,1,
56259489ed6e5a0005c80fde,SCR,2024-06-11_12h32.04.319,LearnStrategy,2023.2.3,Win32,60.24096386,3,2,16,,,,,,,,4,15,,,,,,,,,,,,,4,1.73,1,,,,,,0.357407464,-0.235185199,1,0,0,1.7304,Gabbro_rect,15,0,15,0,1,
56259489ed6e5a0005c80fde,SCR,2024-06-11_12h32.04.319,LearnStrategy,2023.2.3,Win32,60.24096386,4,1,1,-0.563888868,0.068518497,1,0,0,1.1707,Andesite_11,1,11,4,1,1.171,1,11,0.136111153,-0.234259288,1,0,0,2.3943,Diorite_rect,3,2.394,0,0,0,0,0,1,,,,,,,,,,,,,
56259489ed6e5a0005c80fde,SCR,2024-06-11_12h32.04.319,LearnStrategy,2023.2.3,Win32,60.24096386,4,1,2,0.414814843,0.232407411,1,0,0,1.3703,Gabbro_11,4,11,5,7,1.37,4,11,-0.09629631,-0.239814829,1,0,0,1.1427,Basalt_rect,2,1.143,0,1,0,1,0,1,,,,,,,,,,,,,
56259489ed6e5a0005c80fde,SCR,2024-06-11_12h32.04.319,LearnStrategy,2023.2.3,Win32,60.24096386,4,1,3,0.097222222,-0.090740734,1,0,0,0.9477,Basalt_14,2,14,3,5,0.948,2,14,0.367592564,-0.390740783,1,0,0,1.4559,Pumice_rect,8,1.456,0,2,0,2,0,1,,,,,,,,,,,,,
56259489ed6e5a0005c80fde,SCR,2024-06-11_12h32.04.319,LearnStrategy,2023.2.3,Win32,60.24096386,4,1,4,0.380555612,-0.112963005,1,0,0,1.3031,Pegmatite_07,6,07,3,7,1.303,6,07,-0.118518476,-0.396296325,1,0,0,0.9429,Pegmatite_rect,6,0.943,1,3,0,3,0,1,,,,,,,,,,,,,
56259489ed6e5a0005c80fde,SCR,2024-06-11_12h32.04.319,LearnStrategy,2023.2.3,Win32,60.24096386,4,1,5,0.049074102,0.264814818,1,0,0,1.1377,Peridotite_02,7,02,5,5,1.138,7,02,0.146296325,-0.386111153,1,0,0,1.4945,Peridotite_rect,7,1.495,1,4,0,4,0,1,,,,,,,,,,,,,
56259489ed6e5a0005c80fde,SCR,2024-06-11_12h32.04.319,LearnStrategy,2023.2.3,Win32,60.24096386,4,1,6,0.545370455,0.064814815,1,0,0,1.037,Gabbro_14,4,14,4,8,1.037,4,14,0.411111196,-0.234259288,1,0,0,2.0502,Gabbro_rect,4,2.05,1,5,0,5,0,1,,,,,,,,,,,,,
56259489ed6e5a0005c80fde,SCR,2024-06-11_12h32.04.319,LearnStrategy,2023.2.3,Win32,60.24096386,4,1,7,0.357407464,0.426851851,1,0,0,1.1145,Gabbro_08,4,08,6,7,1.114,4,08,0.385185242,-0.241666653,1,0,0,1.9751,Gabbro_rect,4,1.975,1,6,0,6,0,1,,,,,,,,,,,,,
56259489ed6e5a0005c80fde,SCR,2024-06-11_12h32.04.319,LearnStrategy,2023.2.3,Win32,60.24096386,4,1,8,-0.387962942,-0.117592635,1,0,0,1.2314,Andesite_07,1,07,3,2,1.231,1,07,0.138888889,-0.259259259,1,0,0,1.225,Diorite_rect,3,1.225,0,7,0,7,0,1,,,,,,,,,,,,,
56259489ed6e5a0005c80fde,SCR,2024-06-11_12h32.04.319,LearnStrategy,2023.2.3,Win32,60.24096386,4,1,9,0.225000028,0.362962961,1,0,0,1.3302,Pumice_10,8,10,6,6,1.33,8,10,0.300925926,-0.387962977,1,0,0,1.1366,Pumice_rect,8,1.137,1,8,0,8,0,1,,,,,,,,,,,,,
56259489ed6e5a0005c80fde,SCR,2024-06-11_12h32.04.319,LearnStrategy,2023.2.3,Win32,60.24096386,4,1,10,0.564814815,-0.086111104,1,0,0,1.2805,Pegmatite_13,6,13,3,8,1.28,6,13,-0.056481467,-0.408333319,1,0,0,1.4415,Pegmatite_rect,6,1.441,1,9,0,9,0,1,,,,,,,,,,,,,
56259489ed6e5a0005c80fde,SCR,2024-06-11_12h32.04.319,LearnStrategy,2023.2.3,Win32,60.24096386,4,1,11,-0.537962949,0.361111111,1,0,0,1.0642,Basalt_09,2,09,6,1,1.064,2,09,-0.123148106,-0.237037023,1,0,0,1.1695,Basalt_rect,2,1.169,1,10,0,10,0,1,,,,,,,,,,,,,
56259489ed6e5a0005c80fde,SCR,2024-06-11_12h32.04.319,LearnStrategy,2023.2.3,Win32,60.24096386,4,1,12,0.398148148,0.229629623,1,0,0,1.2027,Gabbro_11,4,11,5,7,1.203,4,11,-0.116666653,-0.261111153,1,0,0,2.4438,Basalt_rect,2,2.444,0,11,0,11,0,1,,,,,,,,,,,,,
56259489ed6e5a0005c80fde,SCR,2024-06-11_12h32.04.319,LearnStrategy,2023.2.3,Win32,60.24096386,4,1,13,0.382407436,-0.359259288,1,0,0,1.098,Diorite_06,3,06,1,7,1.098,3,06,0.165740755,-0.233333376,1,0,0,1.3916,Diorite_rect,3,1.392,1,12,0,12,0,1,,,,,,,,,,,,,
56259489ed6e5a0005c80fde,SCR,2024-06-11_12h32.04.319,LearnStrategy,2023.2.3,Win32,60.24096386,4,1,14,-0.047222208,-0.237037023,1,0,0,0.9476,Diorite_13,3,13,2,4,0.948,3,13,0.125925912,-0.231481481,1,0,0,1.3395,Diorite_rect,3,1.34,1,13,0,13,0,1,,,,,,,,,,,,,
56259489ed6e5a0005c80fde,SCR,2024-06-11_12h32.04.319,LearnStrategy,2023.2.3,Win32,60.24096386,4,1,15,-0.51666666,0.114814794,1,0,0,3.199,Andesite_11,1,11,4,1,3.199,5,09,-0.376851859,-0.233333376,1,0,0,0.7742,Andesite_rect,1,0.774,1,14,0,14,0,1,,,,,,,,,,,,,
56259489ed6e5a0005c80fde,SCR,2024-06-11_12h32.04.319,LearnStrategy,2023.2.3,Win32,60.24096386,4,1,16,-0.38703703,-0.42777782,1,0,0,2.3662,Diorite_02,3,02,1,2,2.366,5,10,0.080555598,-0.266666695,1,0,0,1.2627,Diorite_rect,3,1.263,1,15,0,15,0,1,,,,,,,,,,,,,
56259489ed6e5a0005c80fde,SCR,2024-06-11_12h32.04.319,LearnStrategy,2023.2.3,Win32,60.24096386,4,2,1,,,,,,,,4,01,,,,,,,,,,,,,7,6.511,0,,,,,,0.068518533,-0.388888889,1,0,0,6.5109,Peridotite_rect,0,0,0,0,1,
56259489ed6e5a0005c80fde,SCR,2024-06-11_12h32.04.319,LearnStrategy,2023.2.3,Win32,60.24096386,4,2,2,,,,,,,,5,04,,,,,,,,,,,,,5,1.041,1,,,,,,-0.416666667,-0.383333347,1,0,0,1.0411,Obsidian_rect,1,0,1,0,1,
56259489ed6e5a0005c80fde,SCR,2024-06-11_12h32.04.319,LearnStrategy,2023.2.3,Win32,60.24096386,4,2,3,,,,,,,,1,09,,,,,,,,,,,,,1,3.733,1,,,,,,-0.357407393,-0.252777806,1,0,0,3.7335,Andesite_rect,2,0,2,0,1,
56259489ed6e5a0005c80fde,SCR,2024-06-11_12h32.04.319,LearnStrategy,2023.2.3,Win32,60.24096386,4,2,4,,,,,,,,3,16,,,,,,,,,,,,,3,1.189,1,,,,,,0.055555556,-0.264814801,1,0,0,1.1891,Diorite_rect,3,0,3,0,1,
56259489ed6e5a0005c80fde,SCR,2024-06-11_12h32.04.319,LearnStrategy,2023.2.3,Win32,60.24096386,4,2,5,,,,,,,,1,14,,,,,,,,,,,,,6,1.839,0,,,,,,-0.079629616,-0.419444473,1,0,0,1.8389,Pegmatite_rect,4,0,4,0,1,
56259489ed6e5a0005c80fde,SCR,2024-06-11_12h32.04.319,LearnStrategy,2023.2.3,Win32,60.24096386,4,2,6,,,,,,,,2,05,,,,,,,,,,,,,2,1.113,1,,,,,,-0.086111069,-0.260185171,1,0,0,1.1126,Basalt_rect,5,0,5,0,1,
56259489ed6e5a0005c80fde,SCR,2024-06-11_12h32.04.319,LearnStrategy,2023.2.3,Win32,60.24096386,4,2,7,,,,,,,,3,10,,,,,,,,,,,,,3,5.122,1,,,,,,0.143518519,-0.253703718,1,0,0,5.1223,Diorite_rect,6,0,6,0,1,
56259489ed6e5a0005c80fde,SCR,2024-06-11_12h32.04.319,LearnStrategy,2023.2.3,Win32,60.24096386,4,2,8,,,,,,,,5,08,,,,,,,,,,,,,5,1.945,1,,,,,,-0.393518519,-0.408333319,1,0,0,1.9455,Obsidian_rect,7,0,7,0,1,
56259489ed6e5a0005c80fde,SCR,2024-06-11_12h32.04.319,LearnStrategy,2023.2.3,Win32,60.24096386,4,2,9,,,,,,,,7,14,,,,,,,,,,,,,7,1.154,1,,,,,,0.161111125,-0.387037065,1,0,0,1.1544,Peridotite_rect,8,0,8,0,1,
56259489ed6e5a0005c80fde,SCR,2024-06-11_12h32.04.319,LearnStrategy,2023.2.3,Win32,60.24096386,4,2,10,,,,,,,,6,09,,,,,,,,,,,,,6,1.19,1,,,,,,-0.079629616,-0.386111153,1,0,0,1.1896,Pegmatite_rect,9,0,9,0,1,
56259489ed6e5a0005c80fde,SCR,2024-06-11_12h32.04.319,LearnStrategy,2023.2.3,Win32,60.24096386,4,2,11,,,,,,,,2,16,,,,,,,,,,,,,4,3.16,0,,,,,,0.425000085,-0.243518547,1,0,0,3.16,Gabbro_rect,10,0,10,0,1,
56259489ed6e5a0005c80fde,SCR,2024-06-11_12h32.04.319,LearnStrategy,2023.2.3,Win32,60.24096386,4,2,12,,,,,,,,7,16,,,,,,,,,,,,,7,1.398,1,,,,,,0.163888931,-0.400925954,1,0,0,1.3981,Peridotite_rect,11,0,11,0,1,
56259489ed6e5a0005c80fde,SCR,2024-06-11_12h32.04.319,LearnStrategy,2023.2.3,Win32,60.24096386,4,2,13,,,,,,,,6,03,,,,,,,,,,,,,6,1.123,1,,,,,,-0.121296282,-0.380555541,1,0,0,1.1228,Pegmatite_rect,12,0,12,0,1,
56259489ed6e5a0005c80fde,SCR,2024-06-11_12h32.04.319,LearnStrategy,2023.2.3,Win32,60.24096386,4,2,14,,,,,,,,4,03,,,,,,,,,,,,,4,3.413,1,,,,,,0.367592564,-0.236111111,1,0,0,3.413,Gabbro_rect,13,0,13,0,1,
56259489ed6e5a0005c80fde,SCR,2024-06-11_12h32.04.319,LearnStrategy,2023.2.3,Win32,60.24096386,4,2,15,,,,,,,,8,09,,,,,,,,,,,,,8,1.418,1,,,,,,0.376851824,-0.391666695,1,0,0,1.4177,Pumice_rect,14,0,14,0,1,
56259489ed6e5a0005c80fde,SCR,2024-06-11_12h32.04.319,LearnStrategy,2023.2.3,Win32,60.24096386,4,2,16,,,,,,,,8,08,,,,,,,,,,,,,8,0.914,1,,,,,,0.376851824,-0.391666695,1,0,0,0.9135,Pumice_rect,15,0,15,0,1,
56259489ed6e5a0005c80fde,SCR,2024-06-11_12h32.04.319,LearnStrategy,2023.2.3,Win32,60.24096386,5,1,1,0.218518504,-0.391666695,1,0,0,1.9659,Basalt_02,2,02,1,6,1.966,2,02,-0.089814787,-0.239814829,1,0,0,2.9591,Basalt_rect,2,2.959,1,0,0,0,0,1,,,,,,,,,,,,,
56259489ed6e5a0005c80fde,SCR,2024-06-11_12h32.04.319,LearnStrategy,2023.2.3,Win32,60.24096386,5,1,2,-0.523148148,0.393518519,1,0,0,1.4159,Basalt_09,2,09,6,1,1.416,2,09,-0.070370356,-0.248148176,1,0,0,1.0746,Basalt_rect,2,1.075,1,1,0,1,0,1,,,,,,,,,,,,,
56259489ed6e5a0005c80fde,SCR,2024-06-11_12h32.04.319,LearnStrategy,2023.2.3,Win32,60.24096386,5,1,3,0.53333339,-0.419444473,1,0,0,1.6097,Andesite_16,1,16,1,8,1.61,1,16,0.394444501,-0.253703718,1,0,0,2.4519,Gabbro_rect,4,2.452,0,2,0,2,0,1,,,,,,,,,,,,,
56259489ed6e5a0005c80fde,SCR,2024-06-11_12h32.04.319,LearnStrategy,2023.2.3,Win32,60.24096386,5,1,4,0.535185213,-0.123148176,1,0,0,1.181,Pegmatite_13,6,13,3,8,1.181,6,13,-0.103703675,-0.387962977,1,0,0,1.1765,Pegmatite_rect,6,1.177,1,3,0,3,0,1,,,,,,,,,,,,,
56259489ed6e5a0005c80fde,SCR,2024-06-11_12h32.04.319,LearnStrategy,2023.2.3,Win32,60.24096386,5,1,5,-0.373148141,0.073148127,1,0,0,1.098,Gabbro_09,4,09,4,2,1.098,4,09,0.412963019,-0.246296282,1,0,0,1.5023,Gabbro_rect,4,1.502,1,4,0,4,0,1,,,,,,,,,,,,,
56259489ed6e5a0005c80fde,SCR,2024-06-11_12h32.04.319,LearnStrategy,2023.2.3,Win32,60.24096386,5,1,6,0.113888917,-0.452777792,1,0,0,1.049,Andesite_05,1,05,1,5,1.049,1,05,-0.349999993,-0.236111111,1,0,0,1.3446,Andesite_rect,1,1.345,1,5,0,5,0,1,,,,,,,,,,,,,
56259489ed6e5a0005c80fde,SCR,2024-06-11_12h32.04.319,LearnStrategy,2023.2.3,Win32,60.24096386,5,1,7,-0.10092594,0.363888891,1,0,0,1.0988,Andesite_02,1,02,6,4,1.099,1,02,-0.328703704,-0.238888917,1,0,0,1.5922,Andesite_rect,1,1.592,1,6,0,6,0,1,,,,,,,,,,,,,
56259489ed6e5a0005c80fde,SCR,2024-06-11_12h32.04.319,LearnStrategy,2023.2.3,Win32,60.24096386,5,1,8,0.524999972,0.073148127,1,0,0,1.5112,Gabbro_14,4,14,4,8,1.511,4,14,0.407407407,-0.255555541,1,0,0,1.0398,Gabbro_rect,4,1.04,1,7,0,7,0,1,,,,,,,,,,,,,
56259489ed6e5a0005c80fde,SCR,2024-06-11_12h32.04.319,LearnStrategy,2023.2.3,Win32,60.24096386,5,1,9,0.375,0.060185185,1,0,0,1.0307,Diorite_07,3,07,4,7,1.031,3,07,0.187962991,-0.242592635,1,0,0,1.2651,Diorite_rect,3,1.265,1,8,0,8,0,1,,,,,,,,,,,,,
56259489ed6e5a0005c80fde,SCR,2024-06-11_12h32.04.319,LearnStrategy,2023.2.3,Win32,60.24096386,5,1,10,-0.380555541,-0.138888889,1,0,0,1.1315,Andesite_07,1,07,3,2,1.131,1,07,0.085185228,-0.25462963,1,0,0,1.1395,Diorite_rect,3,1.139,0,9,0,9,0,1,,,,,,,,,,,,,
56259489ed6e5a0005c80fde,SCR,2024-06-11_12h32.04.319,LearnStrategy,2023.2.3,Win32,60.24096386,5,1,11,0.412963019,0.24166667,1,0,0,0.999,Gabbro_11,4,11,5,7,0.999,4,11,-0.081481439,-0.246296282,1,0,0,1.3583,Basalt_rect,2,1.358,0,10,0,10,0,1,,,,,,,,,,,,,
56259489ed6e5a0005c80fde,SCR,2024-06-11_12h32.04.319,LearnStrategy,2023.2.3,Win32,60.24096386,5,1,12,0.049074102,0.393518519,1,0,0,0.931,Pumice_02,8,02,6,5,0.931,8,02,0.414814843,-0.397222236,1,0,0,1.8384,Pumice_rect,8,1.838,1,11,0,11,0,1,,,,,,,,,,,,,
56259489ed6e5a0005c80fde,SCR,2024-06-11_12h32.04.319,LearnStrategy,2023.2.3,Win32,60.24096386,5,1,13,-0.37037037,0.103703711,1,0,0,2.0139,Gabbro_09,4,09,4,2,2.014,4,09,0.425925926,-0.232407393,1,0,0,1.4281,Gabbro_rect,4,1.428,1,12,0,12,0,1,,,,,,,,,,,,,
56259489ed6e5a0005c80fde,SCR,2024-06-11_12h32.04.319,LearnStrategy,2023.2.3,Win32,60.24096386,5,1,14,0.404629601,-0.393518519,1,0,0,2.9992,Diorite_06,3,06,1,7,2.999,7,15,0.100000028,-0.247222265,1,0,0,0.8724,Diorite_rect,3,0.872,1,13,0,13,0,1,,,,,,,,,,,,,
56259489ed6e5a0005c80fde,SCR,2024-06-11_12h32.04.319,LearnStrategy,2023.2.3,Win32,60.24096386,5,1,15,-0.088888875,0.081481474,1,0,0,1.5802,Basalt_11,2,11,4,4,1.58,2,11,0.386111083,-0.389814801,1,0,0,2.7083,Pumice_rect,8,2.708,0,14,0,14,0,1,,,,,,,,,,,,,
56259489ed6e5a0005c80fde,SCR,2024-06-11_12h32.04.319,LearnStrategy,2023.2.3,Win32,60.24096386,5,1,16,0.52870376,-0.393518519,1,0,0,1.8823,Andesite_16,1,16,1,8,1.882,5,06,-0.341666645,-0.248148176,1,0,0,2.0762,Andesite_rect,1,2.076,1,15,0,15,0,1,,,,,,,,,,,,,
56259489ed6e5a0005c80fde,SCR,2024-06-11_12h32.04.319,LearnStrategy,2023.2.3,Win32,60.24096386,5,2,1,,,,,,,,8,06,,,,,,,,,,,,,8,1.121,1,,,,,,0.377777806,-0.415740755,1,0,0,1.1206,Pumice_rect,0,0,0,0,1,
56259489ed6e5a0005c80fde,SCR,2024-06-11_12h32.04.319,LearnStrategy,2023.2.3,Win32,60.24096386,5,2,2,,,,,,,,3,08,,,,,,,,,,,,,3,1.209,1,,,,,,0.174074102,-0.237037023,1,0,0,1.2088,Diorite_rect,1,0,1,0,1,
56259489ed6e5a0005c80fde,SCR,2024-06-11_12h32.04.319,LearnStrategy,2023.2.3,Win32,60.24096386,5,2,3,,,,,,,,7,13,,,,,,,,,,,,,7,1.191,1,,,,,,0.179629644,-0.416666667,1,0,0,1.1912,Peridotite_rect,2,0,2,0,1,
56259489ed6e5a0005c80fde,SCR,2024-06-11_12h32.04.319,LearnStrategy,2023.2.3,Win32,60.24096386,5,2,4,,,,,,,,6,16,,,,,,,,,,,,,6,1.119,1,,,,,,-0.135185171,-0.400000042,1,0,0,1.1193,Pegmatite_rect,3,0,3,0,1,
56259489ed6e5a0005c80fde,SCR,2024-06-11_12h32.04.319,LearnStrategy,2023.2.3,Win32,60.24096386,5,2,5,,,,,,,,2,01,,,,,,,,,,,,,2,1.708,1,,,,,,-0.132407365,-0.252777806,1,0,0,1.7082,Basalt_rect,4,0,4,0,1,
56259489ed6e5a0005c80fde,SCR,2024-06-11_12h32.04.319,LearnStrategy,2023.2.3,Win32,60.24096386,5,2,6,,,,,,,,2,04,,,,,,,,,,,,,2,0.93,1,,,,,,-0.132407365,-0.252777806,1,0,0,0.9297,Basalt_rect,5,0,5,0,1,
56259489ed6e5a0005c80fde,SCR,2024-06-11_12h32.04.319,LearnStrategy,2023.2.3,Win32,60.24096386,5,2,7,,,,,,,,6,12,,,,,,,,,,,,,6,2.36,1,,,,,,-0.073148162,-0.382407436,1,0,0,2.3596,Pegmatite_rect,6,0,6,0,1,
56259489ed6e5a0005c80fde,SCR,2024-06-11_12h32.04.319,LearnStrategy,2023.2.3,Win32,60.24096386,5,2,8,,,,,,,,4,10,,,,,,,,,,,,,4,2.002,1,,,,,,0.349074046,-0.240740741,1,0,0,2.0018,Gabbro_rect,7,0,7,0,1,
56259489ed6e5a0005c80fde,SCR,2024-06-11_12h32.04.319,LearnStrategy,2023.2.3,Win32,60.24096386,5,2,9,,,,,,,,5,12,,,,,,,,,,,,,5,1.437,1,,,,,,-0.416666667,-0.414814843,1,0,0,1.4365,Obsidian_rect,8,0,8,0,1,
56259489ed6e5a0005c80fde,SCR,2024-06-11_12h32.04.319,LearnStrategy,2023.2.3,Win32,60.24096386,5,2,10,,,,,,,,1,04,,,,,,,,,,,,,1,1.175,1,,,,,,-0.378703683,-0.25,1,0,0,1.175,Andesite_rect,9,0,9,0,1,
56259489ed6e5a0005c80fde,SCR,2024-06-11_12h32.04.319,LearnStrategy,2023.2.3,Win32,60.24096386,5,2,11,,,,,,,,4,16,,,,,,,,,,,,,4,1.972,1,,,,,,0.40370376,-0.266666695,1,0,0,1.9716,Gabbro_rect,10,0,10,0,1,
56259489ed6e5a0005c80fde,SCR,2024-06-11_12h32.04.319,LearnStrategy,2023.2.3,Win32,60.24096386,5,2,12,,,,,,,,5,05,,,,,,,,,,,,,3,2.109,0,,,,,,0.103703746,-0.247222265,1,0,0,2.1087,Diorite_rect,11,0,11,0,1,
56259489ed6e5a0005c80fde,SCR,2024-06-11_12h32.04.319,LearnStrategy,2023.2.3,Win32,60.24096386,5,2,13,,,,,,,,1,10,,,,,,,,,,,,,1,2.396,1,,,,,,-0.349074081,-0.248148176,1,0,0,2.396,Andesite_rect,12,0,12,0,1,
56259489ed6e5a0005c80fde,SCR,2024-06-11_12h32.04.319,LearnStrategy,2023.2.3,Win32,60.24096386,5,2,14,,,,,,,,8,13,,,,,,,,,,,,,8,1.869,1,,,,,,0.362037094,-0.392592607,1,0,0,1.8688,Pumice_rect,13,0,13,0,1,
56259489ed6e5a0005c80fde,SCR,2024-06-11_12h32.04.319,LearnStrategy,2023.2.3,Win32,60.24096386,5,2,15,,,,,,,,7,06,,,,,,,,,,,,,7,1.721,1,,,,,,0.18240745,-0.387962977,1,0,0,1.721,Peridotite_rect,14,0,14,0,1,
56259489ed6e5a0005c80fde,SCR,2024-06-11_12h32.04.319,LearnStrategy,2023.2.3,Win32,60.24096386,5,2,16,,,,,,,,3,14,,,,,,,,,,,,,3,1.367,1,,,,,,0.163888931,-0.237037023,1,0,0,1.3668,Diorite_rect,15,0,15,0,1,
56259489ed6e5a0005c80fde,SCR,2024-06-11_12h32.04.319,LearnStrategy,2023.2.3,Win32,60.24096386,6,1,1,0.091666681,-0.231481481,1,0,0,1.0659,Andesite_06,1,06,2,5,1.066,1,06,-0.372222229,-0.238888917,1,0,0,1.7416,Andesite_rect,1,1.742,1,0,0,0,0,1,,,,,,,,,,,,,
56259489ed6e5a0005c80fde,SCR,2024-06-11_12h32.04.319,LearnStrategy,2023.2.3,Win32,60.24096386,6,1,2,0.558333362,0.382407409,1,0,0,1.1314,Pumice_15,8,15,6,8,1.131,8,15,0.431481538,-0.409259302,1,0,0,0.9353,Pumice_rect,8,0.935,1,1,0,1,0,1,,,,,,,,,,,,,
56259489ed6e5a0005c80fde,SCR,2024-06-11_12h32.04.319,LearnStrategy,2023.2.3,Win32,60.24096386,6,1,3,0.247222265,-0.073148162,1,0,0,1.9246,Peridotite_12,7,12,3,6,1.925,5,06,0.136111153,-0.382407436,1,0,0,1.8589,Peridotite_rect,7,1.859,1,2,0,2,0,1,,,,,,,,,,,,,
56259489ed6e5a0005c80fde,SCR,2024-06-11_12h32.04.319,LearnStrategy,2023.2.3,Win32,60.24096386,6,1,4,0.084259245,0.056481467,1,0,0,1.8198,Peridotite_08,7,08,4,5,1.82,7,12,0.125,-0.387962977,1,0,0,1.741,Peridotite_rect,7,1.741,1,3,0,3,0,1,,,,,,,,,,,,,
56259489ed6e5a0005c80fde,SCR,2024-06-11_12h32.04.319,LearnStrategy,2023.2.3,Win32,60.24096386,6,1,5,-0.075925898,-0.277777778,1,0,0,1.1643,Diorite_13,3,13,2,4,1.164,3,13,0.133333347,-0.246296282,1,0,0,1.9432,Diorite_rect,3,1.943,1,4,0,4,0,1,,,,,,,,,,,,,
56259489ed6e5a0005c80fde,SCR,2024-06-11_12h32.04.319,LearnStrategy,2023.2.3,Win32,60.24096386,6,1,6,-0.046296296,0.059259238,1,0,0,1.1307,Basalt_11,2,11,4,4,1.131,2,11,-0.066666638,-0.249074088,1,0,0,1.0794,Basalt_rect,2,1.079,1,5,0,5,0,1,,,,,,,,,,,,,
56259489ed6e5a0005c80fde,SCR,2024-06-11_12h32.04.319,LearnStrategy,2023.2.3,Win32,60.24096386,6,1,7,0.404629601,0.38148148,1,0,0,1.1552,Gabbro_08,4,08,6,7,1.155,4,08,0.404629601,-0.267592607,1,0,0,1.2917,Gabbro_rect,4,1.292,1,6,0,6,0,1,,,,,,,,,,,,,
56259489ed6e5a0005c80fde,SCR,2024-06-11_12h32.04.319,LearnStrategy,2023.2.3,Win32,60.24096386,6,1,8,0.58148151,0.083333333,1,0,0,1.9322,Gabbro_14,4,14,4,8,1.932,4,14,0.368518547,-0.246296282,1,0,0,1.5369,Gabbro_rect,4,1.537,1,7,0,7,0,1,,,,,,,,,,,,,
56259489ed6e5a0005c80fde,SCR,2024-06-11_12h32.04.319,LearnStrategy,2023.2.3,Win32,60.24096386,6,1,9,-0.378703683,-0.398148148,1,0,0,1.1039,Diorite_02,3,02,1,2,1.104,3,02,0.099074116,-0.259259259,1,0,0,1.9897,Diorite_rect,3,1.99,1,8,0,8,0,1,,,,,,,,,,,,,
56259489ed6e5a0005c80fde,SCR,2024-06-11_12h32.04.319,LearnStrategy,2023.2.3,Win32,60.24096386,6,1,10,0.088888875,0.080555563,1,0,0,1.8481,Peridotite_08,7,08,4,5,1.848,6,07,0.137962977,-0.400925954,1,0,0,1.6588,Peridotite_rect,7,1.659,1,9,0,9,0,1,,,,,,,,,,,,,
56259489ed6e5a0005c80fde,SCR,2024-06-11_12h32.04.319,LearnStrategy,2023.2.3,Win32,60.24096386,6,1,11,-0.098148134,0.391666668,1,0,0,1.9654,Andesite_02,1,02,6,4,1.965,1,02,-0.396296289,-0.259259259,1,0,0,1.775,Andesite_rect,1,1.775,1,10,0,10,0,1,,,,,,,,,,,,,
56259489ed6e5a0005c80fde,SCR,2024-06-11_12h32.04.319,LearnStrategy,2023.2.3,Win32,60.24096386,6,1,12,0.354629658,0.407407407,1,0,0,1.4482,Gabbro_08,4,08,6,7,1.448,4,08,0.345370399,-0.235185199,1,0,0,1.0917,Gabbro_rect,4,1.092,1,11,0,11,0,1,,,,,,,,,,,,,
56259489ed6e5a0005c80fde,SCR,2024-06-11_12h32.04.319,LearnStrategy,2023.2.3,Win32,60.24096386,6,1,13,0.067592621,-0.413888931,1,0,0,2.3821,Andesite_05,1,05,1,5,2.382,5,02,-0.374074053,-0.23055557,1,0,0,1.5073,Andesite_rect,1,1.507,1,12,0,12,0,1,,,,,,,,,,,,,
56259489ed6e5a0005c80fde,SCR,2024-06-11_12h32.04.319,LearnStrategy,2023.2.3,Win32,60.24096386,6,1,14,-0.357407393,0.218518522,1,0,0,1.0489,Basalt_10,2,10,5,2,1.049,2,10,-0.080555527,-0.234259288,1,0,0,1.2965,Basalt_rect,2,1.296,1,13,0,13,0,1,,,,,,,,,,,,,
56259489ed6e5a0005c80fde,SCR,2024-06-11_12h32.04.319,LearnStrategy,2023.2.3,Win32,60.24096386,6,1,15,-0.383333312,-0.134259259,1,0,0,1.0653,Andesite_07,1,07,3,2,1.065,1,07,0.09629631,-0.250925912,1,0,0,1.6243,Diorite_rect,3,1.624,0,14,0,14,0,1,,,,,,,,,,,,,
56259489ed6e5a0005c80fde,SCR,2024-06-11_12h32.04.319,LearnStrategy,2023.2.3,Win32,60.24096386,6,1,16,-0.375925912,0.261111101,1,0,0,2.1485,Basalt_10,2,10,5,2,2.149,5,07,-0.071296268,-0.235185199,1,0,0,0.7783,Basalt_rect,2,0.778,1,15,0,15,0,1,,,,,,,,,,,,,
56259489ed6e5a0005c80fde,SCR,2024-06-11_12h32.04.319,LearnStrategy,2023.2.3,Win32,60.24096386,6,2,1,,,,,,,,3,12,,,,,,,,,,,,,3,4.86,1,,,,,,0.094444487,-0.250925912,1,0,0,4.8596,Diorite_rect,0,0,0,0,1,
56259489ed6e5a0005c80fde,SCR,2024-06-11_12h32.04.319,LearnStrategy,2023.2.3,Win32,60.24096386,6,2,2,,,,,,,,2,08,,,,,,,,,,,,,2,1.097,1,,,,,,-0.101851852,-0.247222265,1,0,0,1.0974,Basalt_rect,1,0,1,0,1,
56259489ed6e5a0005c80fde,SCR,2024-06-11_12h32.04.319,LearnStrategy,2023.2.3,Win32,60.24096386,6,2,3,,,,,,,,2,12,,,,,,,,,,,,,2,2.259,1,,,,,,-0.101851852,-0.247222265,1,0,0,2.2592,Basalt_rect,2,0,2,0,1,
56259489ed6e5a0005c80fde,SCR,2024-06-11_12h32.04.319,LearnStrategy,2023.2.3,Win32,60.24096386,6,2,4,,,,,,,,7,10,,,,,,,,,,,,,7,1.196,1,,,,,,0.137962977,-0.395370413,1,0,0,1.1962,Peridotite_rect,3,0,3,0,1,
56259489ed6e5a0005c80fde,SCR,2024-06-11_12h32.04.319,LearnStrategy,2023.2.3,Win32,60.24096386,6,2,5,,,,,,,,1,01,,,,,,,,,,,,,1,3.222,1,,,,,,-0.344444452,-0.25,1,0,0,3.2218,Andesite_rect,4,0,4,0,1,
56259489ed6e5a0005c80fde,SCR,2024-06-11_12h32.04.319,LearnStrategy,2023.2.3,Win32,60.24096386,6,2,6,,,,,,,,3,15,,,,,,,,,,,,,1,5.97,0,,,,,,-0.333333333,-0.237963005,1,0,0,5.9704,Andesite_rect,5,0,5,0,1,
56259489ed6e5a0005c80fde,SCR,2024-06-11_12h32.04.319,LearnStrategy,2023.2.3,Win32,60.24096386,6,2,7,,,,,,,,8,14,,,,,,,,,,,,,8,1.28,1,,,,,,0.395370342,-0.414814843,1,0,0,1.2801,Pumice_rect,6,0,6,0,1,
56259489ed6e5a0005c80fde,SCR,2024-06-11_12h32.04.319,LearnStrategy,2023.2.3,Win32,60.24096386,6,2,8,,,,,,,,7,07,,,,,,,,,,,,,7,1.108,1,,,,,,0.162037037,-0.380555541,1,0,0,1.108,Peridotite_rect,7,0,7,0,1,
56259489ed6e5a0005c80fde,SCR,2024-06-11_12h32.04.319,LearnStrategy,2023.2.3,Win32,60.24096386,6,2,9,,,,,,,,4,15,,,,,,,,,,,,,4,4.655,1,,,,,,0.389814871,-0.240740741,1,0,0,4.6548,Gabbro_rect,8,0,8,0,1,
56259489ed6e5a0005c80fde,SCR,2024-06-11_12h32.04.319,LearnStrategy,2023.2.3,Win32,60.24096386,6,2,10,,,,,,,,4,05,,,,,,,,,,,,,4,1.65,1,,,,,,0.359259288,-0.24537037,1,0,0,1.6498,Gabbro_rect,9,0,9,0,1,
56259489ed6e5a0005c80fde,SCR,2024-06-11_12h32.04.319,LearnStrategy,2023.2.3,Win32,60.24096386,6,2,11,,,,,,,,6,15,,,,,,,,,,,,,6,1.058,1,,,,,,-0.135185171,-0.397222236,1,0,0,1.058,Pegmatite_rect,10,0,10,0,1,
56259489ed6e5a0005c80fde,SCR,2024-06-11_12h32.04.319,LearnStrategy,2023.2.3,Win32,60.24096386,6,2,12,,,,,,,,5,14,,,,,,,,,,,,,5,1.141,1,,,,,,-0.388888889,-0.400000042,1,0,0,1.1414,Obsidian_rect,11,0,11,0,1,
56259489ed6e5a0005c80fde,SCR,2024-06-11_12h32.04.319,LearnStrategy,2023.2.3,Win32,60.24096386,6,2,13,,,,,,,,5,16,,,,,,,,,,,,,5,0.789,1,,,,,,-0.388888889,-0.400000042,1,0,0,0.7893,Obsidian_rect,12,0,12,0,1,
56259489ed6e5a0005c80fde,SCR,2024-06-11_12h32.04.319,LearnStrategy,2023.2.3,Win32,60.24096386,6,2,14,,,,,,,,8,04,,,,,,,,,,,,,8,1.209,1,,,,,,0.312037009,-0.411111125,1,0,0,1.209,Pumice_rect,13,0,13,0,1,
56259489ed6e5a0005c80fde,SCR,2024-06-11_12h32.04.319,LearnStrategy,2023.2.3,Win32,60.24096386,6,2,15,,,,,,,,1,03,,,,,,,,,,,,,1,1.654,1,,,,,,-0.344444452,-0.252777806,1,0,0,1.6537,Andesite_rect,14,0,14,0,1,
56259489ed6e5a0005c80fde,SCR,2024-06-11_12h32.04.319,LearnStrategy,2023.2.3,Win32,60.24096386,6,2,16,,,,,,,,6,11,,,,,,,,,,,,,6,1.105,1,,,,,,-0.114814829,-0.404629672,1,0,0,1.1051,Pegmatite_rect,15,0,15,0,1,
56259489ed6e5a0005c80fde,SCR,2024-06-11_12h32.04.319,LearnStrategy,2023.2.3,Win32,60.24096386,7,1,1,-0.409259266,-0.081481474,1,0,0,0.8568,Andesite_07,1,07,3,2,0.857,1,07,-0.313888868,-0.237963005,1,0,0,2.3992,Andesite_rect,1,2.399,1,0,0,0,0,1,,,,,,,,,,,,,
56259489ed6e5a0005c80fde,SCR,2024-06-11_12h32.04.319,LearnStrategy,2023.2.3,Win32,60.24096386,7,1,2,-0.027777778,-0.22592594,1,0,0,1.0308,Diorite_13,3,13,2,4,1.031,3,13,0.122222265,-0.25462963,1,0,0,1.8702,Diorite_rect,3,1.87,1,1,0,1,0,1,,,,,,,,,,,,,
56259489ed6e5a0005c80fde,SCR,2024-06-11_12h32.04.319,LearnStrategy,2023.2.3,Win32,60.24096386,7,1,3,0.556481538,0.101851852,1,0,0,1.4037,Gabbro_14,4,14,4,8,1.404,4,14,0.422222279,-0.239814829,1,0,0,1.0831,Gabbro_rect,4,1.083,1,2,0,2,0,1,,,,,,,,,,,,,
56259489ed6e5a0005c80fde,SCR,2024-06-11_12h32.04.319,LearnStrategy,2023.2.3,Win32,60.24096386,7,1,4,0.095370399,-0.087962963,1,0,0,0.9142,Basalt_14,2,14,3,5,0.914,2,14,0.401851937,-0.407407407,1,0,0,2.8757,Pumice_rect,8,2.876,0,3,0,3,0,1,,,,,,,,,,,,,
56259489ed6e5a0005c80fde,SCR,2024-06-11_12h32.04.319,LearnStrategy,2023.2.3,Win32,60.24096386,7,1,5,0.344444416,0.097222222,1,0,0,1.0332,Diorite_07,3,07,4,7,1.033,3,07,0.124074088,-0.238888917,1,0,0,1.4144,Diorite_rect,3,1.414,1,4,0,4,0,1,,,,,,,,,,,,,
56259489ed6e5a0005c80fde,SCR,2024-06-11_12h32.04.319,LearnStrategy,2023.2.3,Win32,60.24096386,7,1,6,0.257407436,0.236111111,1,0,0,1.3872,Gabbro_13,4,13,5,6,1.387,3,07,0.293518561,-0.235185199,1,0,0,1.0414,Gabbro_rect,4,1.041,1,5,0,5,0,1,,,,,,,,,,,,,
56259489ed6e5a0005c80fde,SCR,2024-06-11_12h32.04.319,LearnStrategy,2023.2.3,Win32,60.24096386,7,1,7,0.357407464,0.095370363,1,0,0,1.4638,Diorite_07,3,07,4,7,1.464,3,07,0.127777806,-0.248148176,1,0,0,0.945,Diorite_rect,3,0.945,1,6,0,6,0,1,,,,,,,,,,,,,
56259489ed6e5a0005c80fde,SCR,2024-06-11_12h32.04.319,LearnStrategy,2023.2.3,Win32,60.24096386,7,1,8,0.069444444,-0.093518504,1,0,0,1.0489,Basalt_14,2,14,3,5,1.049,2,14,-0.084259245,-0.258333347,1,0,0,1.4883,Basalt_rect,2,1.488,1,7,0,7,0,1,,,,,,,,,,,,,
56259489ed6e5a0005c80fde,SCR,2024-06-11_12h32.04.319,LearnStrategy,2023.2.3,Win32,60.24096386,7,1,9,0.413888861,0.424074076,1,0,0,1.3041,Gabbro_08,4,08,6,7,1.304,4,08,0.344444416,-0.232407393,1,0,0,1.6275,Gabbro_rect,4,1.628,1,8,0,8,0,1,,,,,,,,,,,,,
56259489ed6e5a0005c80fde,SCR,2024-06-11_12h32.04.319,LearnStrategy,2023.2.3,Win32,60.24096386,7,1,10,0.37962963,-0.400000042,1,0,0,2.4086,Diorite_06,3,06,1,7,2.409,6,07,0.147222236,-0.267592607,1,0,0,0.9261,Diorite_rect,3,0.926,1,9,0,9,0,1,,,,,,,,,,,,,
56259489ed6e5a0005c80fde,SCR,2024-06-11_12h32.04.319,LearnStrategy,2023.2.3,Win32,60.24096386,7,1,11,0.539814843,-0.390740783,1,0,0,1.8316,Andesite_16,1,16,1,8,1.832,5,06,-0.366666653,-0.251851894,1,0,0,2.3417,Andesite_rect,1,2.342,1,10,0,10,0,1,,,,,,,,,,,,,
56259489ed6e5a0005c80fde,SCR,2024-06-11_12h32.04.319,LearnStrategy,2023.2.3,Win32,60.24096386,7,1,12,-0.239814829,0.411111108,1,0,0,1.5467,Pumice_05,8,05,6,3,1.547,5,07,0.366666723,-0.383333347,1,0,0,1.8911,Pumice_rect,8,1.891,1,11,0,11,0,1,,,,,,,,,,,,,
56259489ed6e5a0005c80fde,SCR,2024-06-11_12h32.04.319,LearnStrategy,2023.2.3,Win32,60.24096386,7,1,13,0.069444444,0.148148148,1,0,0,0.8973,Peridotite_08,7,08,4,5,0.897,7,08,0.140740783,-0.384259259,1,0,0,1.578,Peridotite_rect,7,1.578,1,12,0,12,0,1,,,,,,,,,,,,,
56259489ed6e5a0005c80fde,SCR,2024-06-11_12h32.04.319,LearnStrategy,2023.2.3,Win32,60.24096386,7,1,14,0.091666681,-0.27870369,1,0,0,0.9323,Andesite_06,1,06,2,5,0.932,1,06,-0.375,-0.237037023,1,0,0,1.0457,Andesite_rect,1,1.046,1,13,0,13,0,1,,,,,,,,,,,,,
56259489ed6e5a0005c80fde,SCR,2024-06-11_12h32.04.319,LearnStrategy,2023.2.3,Win32,60.24096386,7,1,15,0.088888875,-0.409259302,1,0,0,1.6318,Andesite_05,1,05,1,5,1.632,1,16,-0.350925905,-0.239814829,1,0,0,1.1197,Andesite_rect,1,1.12,1,14,0,14,0,1,,,,,,,,,,,,,
56259489ed6e5a0005c80fde,SCR,2024-06-11_12h32.04.319,LearnStrategy,2023.2.3,Win32,60.24096386,7,1,16,0.371296353,0.408333328,1,0,0,1.5709,Gabbro_08,4,08,6,7,1.571,8,15,0.385185242,-0.247222265,1,0,0,0.9437,Gabbro_rect,4,0.944,1,15,0,15,0,1,,,,,,,,,,,,,
56259489ed6e5a0005c80fde,SCR,2024-06-11_12h32.04.319,LearnStrategy,2023.2.3,Win32,60.24096386,7,2,1,,,,,,,,4,01,,,,,,,,,,,,,7,3.149,0,,,,,,0.066666709,-0.388888889,1,0,0,3.1492,Peridotite_rect,0,0,0,0,1,
56259489ed6e5a0005c80fde,SCR,2024-06-11_12h32.04.319,LearnStrategy,2023.2.3,Win32,60.24096386,7,2,2,,,,,,,,1,01,,,,,,,,,,,,,1,3.699,1,,,,,,-0.436111097,-0.260185171,1,0,0,3.6995,Andesite_rect,1,0,1,0,1,
56259489ed6e5a0005c80fde,SCR,2024-06-11_12h32.04.319,LearnStrategy,2023.2.3,Win32,60.24096386,7,2,3,,,,,,,,4,15,,,,,,,,,,,,,4,0.984,1,,,,,,0.415740826,-0.236111111,1,0,0,0.9844,Gabbro_rect,2,0,2,0,1,
56259489ed6e5a0005c80fde,SCR,2024-06-11_12h32.04.319,LearnStrategy,2023.2.3,Win32,60.24096386,7,2,4,,,,,,,,3,08,,,,,,,,,,,,,3,1.192,1,,,,,,0.165740755,-0.240740741,1,0,0,1.1922,Diorite_rect,3,0,3,0,1,
56259489ed6e5a0005c80fde,SCR,2024-06-11_12h32.04.319,LearnStrategy,2023.2.3,Win32,60.24096386,7,2,5,,,,,,,,8,06,,,,,,,,,,,,,8,1.16,1,,,,,,0.384259259,-0.406481496,1,0,0,1.1599,Pumice_rect,4,0,4,0,1,
56259489ed6e5a0005c80fde,SCR,2024-06-11_12h32.04.319,LearnStrategy,2023.2.3,Win32,60.24096386,7,2,6,,,,,,,,6,11,,,,,,,,,,,,,6,1.242,1,,,,,,-0.057407379,-0.395370413,1,0,0,1.2423,Pegmatite_rect,5,0,5,0,1,
56259489ed6e5a0005c80fde,SCR,2024-06-11_12h32.04.319,LearnStrategy,2023.2.3,Win32,60.24096386,7,2,7,,,,,,,,5,05,,,,,,,,,,,,,3,1.143,0,,,,,,0.113888917,-0.234259288,1,0,0,1.1428,Diorite_rect,6,0,6,0,1,
56259489ed6e5a0005c80fde,SCR,2024-06-11_12h32.04.319,LearnStrategy,2023.2.3,Win32,60.24096386,7,2,8,,,,,,,,7,10,,,,,,,,,,,,,7,1.219,1,,,,,,0.140740783,-0.397222236,1,0,0,1.2188,Peridotite_rect,7,0,7,0,1,
56259489ed6e5a0005c80fde,SCR,2024-06-11_12h32.04.319,LearnStrategy,2023.2.3,Win32,60.24096386,7,2,9,,,,,,,,2,05,,,,,,,,,,,,,2,1.176,1,,,,,,-0.12037037,-0.248148176,1,0,0,1.176,Basalt_rect,8,0,8,0,1,
56259489ed6e5a0005c80fde,SCR,2024-06-11_12h32.04.319,LearnStrategy,2023.2.3,Win32,60.24096386,7,2,10,,,,,,,,3,14,,,,,,,,,,,,,3,1.009,1,,,,,,0.161111125,-0.248148176,1,0,0,1.0089,Diorite_rect,9,0,9,0,1,
56259489ed6e5a0005c80fde,SCR,2024-06-11_12h32.04.319,LearnStrategy,2023.2.3,Win32,60.24096386,7,2,11,,,,,,,,5,12,,,,,,,,,,,,,5,1.088,1,,,,,,-0.384259259,-0.392592607,1,0,0,1.088,Obsidian_rect,10,0,10,0,1,
56259489ed6e5a0005c80fde,SCR,2024-06-11_12h32.04.319,LearnStrategy,2023.2.3,Win32,60.24096386,7,2,12,,,,,,,,8,14,,,,,,,,,,,,,8,1.159,1,,,,,,0.325000057,-0.414814843,1,0,0,1.1585,Pumice_rect,11,0,11,0,1,
56259489ed6e5a0005c80fde,SCR,2024-06-11_12h32.04.319,LearnStrategy,2023.2.3,Win32,60.24096386,7,2,13,,,,,,,,2,08,,,,,,,,,,,,,2,1.009,1,,,,,,-0.182407379,-0.237963005,1,0,0,1.0093,Basalt_rect,12,0,12,0,1,
56259489ed6e5a0005c80fde,SCR,2024-06-11_12h32.04.319,LearnStrategy,2023.2.3,Win32,60.24096386,7,2,14,,,,,,,,6,09,,,,,,,,,,,,,6,1.971,1,,,,,,-0.085185157,-0.406481496,1,0,0,1.9708,Pegmatite_rect,13,0,13,0,1,
56259489ed6e5a0005c80fde,SCR,2024-06-11_12h32.04.319,LearnStrategy,2023.2.3,Win32,60.24096386,7,2,15,,,,,,,,1,04,,,,,,,,,,,,,1,1.796,1,,,,,,-0.392592571,-0.248148176,1,0,0,1.7958,Andesite_rect,14,0,14,0,1,
56259489ed6e5a0005c80fde,SCR,2024-06-11_12h32.04.319,LearnStrategy,2023.2.3,Win32,60.24096386,7,2,16,,,,,,,,7,06,,,,,,,,,,,,,7,1.115,1,,,,,,0.150000042,-0.37962963,1,0,0,1.1148,Peridotite_rect,15,0,15,0,1,
56259489ed6e5a0005c80fde,SCR,2024-06-11_12h32.04.319,LearnStrategy,2023.2.3,Win32,60.24096386,8,1,1,-0.353703711,-0.369444459,1,0,0,1.0749,Diorite_02,3,02,1,2,1.075,3,02,0.121296282,-0.249074088,1,0,0,2.1787,Diorite_rect,3,2.179,1,0,0,0,0,1,,,,,,,,,,,,,
56259489ed6e5a0005c80fde,SCR,2024-06-11_12h32.04.319,LearnStrategy,2023.2.3,Win32,60.24096386,8,1,2,0.059259273,-0.246296282,1,0,0,0.8985,Andesite_06,1,06,2,5,0.899,1,06,-0.355555534,-0.24537037,1,0,0,1.4508,Andesite_rect,1,1.451,1,1,0,1,0,1,,,,,,,,,,,,,
56259489ed6e5a0005c80fde,SCR,2024-06-11_12h32.04.319,LearnStrategy,2023.2.3,Win32,60.24096386,8,1,3,-0.525925919,-0.408333319,1,0,0,1.044,Diorite_09,3,09,1,1,1.044,3,09,0.111111111,-0.232407393,1,0,0,1.6274,Diorite_rect,3,1.627,1,2,0,2,0,1,,,,,,,,,,,,,
56259489ed6e5a0005c80fde,SCR,2024-06-11_12h32.04.319,LearnStrategy,2023.2.3,Win32,60.24096386,8,1,4,0.273148148,0.229629623,1,0,0,0.9314,Gabbro_13,4,13,5,6,0.931,4,13,0.445370427,-0.258333347,1,0,0,1.8669,Gabbro_rect,4,1.867,1,3,0,3,0,1,,,,,,,,,,,,,
56259489ed6e5a0005c80fde,SCR,2024-06-11_12h32.04.319,LearnStrategy,2023.2.3,Win32,60.24096386,8,1,5,-0.211111069,0.37222222,1,0,0,1.3637,Pumice_05,8,05,6,3,1.364,8,05,0.463888945,-0.378703718,1,0,0,0.7722,Pumice_rect,8,0.772,1,4,0,4,0,1,,,,,,,,,,,,,
56259489ed6e5a0005c80fde,SCR,2024-06-11_12h32.04.319,LearnStrategy,2023.2.3,Win32,60.24096386,8,1,6,0.264814801,0.261111101,1,0,0,0.8982,Gabbro_13,4,13,5,6,0.898,4,13,0.399999972,-0.23055557,1,0,0,0.9353,Gabbro_rect,4,0.935,1,5,0,5,0,1,,,,,,,,,,,,,
56259489ed6e5a0005c80fde,SCR,2024-06-11_12h32.04.319,LearnStrategy,2023.2.3,Win32,60.24096386,8,1,7,-0.413888896,0.228703693,1,0,0,1.265,Basalt_10,2,10,5,2,1.265,2,10,-0.150925884,-0.229629658,1,0,0,1.1022,Basalt_rect,2,1.102,1,6,0,6,0,1,,,,,,,,,,,,,
56259489ed6e5a0005c80fde,SCR,2024-06-11_12h32.04.319,LearnStrategy,2023.2.3,Win32,60.24096386,8,1,8,0.3648149,0.055555556,1,0,0,1.0139,Diorite_07,3,07,4,7,1.014,3,07,0.168518561,-0.228703746,1,0,0,0.7362,Diorite_rect,3,0.736,1,7,0,7,0,1,,,,,,,,,,,,,
56259489ed6e5a0005c80fde,SCR,2024-06-11_12h32.04.319,LearnStrategy,2023.2.3,Win32,60.24096386,8,1,9,0.032407407,0.063888868,1,0,0,0.921,Peridotite_08,7,08,4,5,0.921,7,08,0.137037065,-0.402777778,1,0,0,1.9158,Peridotite_rect,7,1.916,1,8,0,8,0,1,,,,,,,,,,,,,
56259489ed6e5a0005c80fde,SCR,2024-06-11_12h32.04.319,LearnStrategy,2023.2.3,Win32,60.24096386,8,1,10,-0.583333333,0.060185185,1,0,0,0.8985,Andesite_11,1,11,4,1,0.898,1,11,-0.405555548,-0.23055557,1,0,0,0.8748,Andesite_rect,1,0.875,1,9,0,9,0,1,,,,,,,,,,,,,
56259489ed6e5a0005c80fde,SCR,2024-06-11_12h32.04.319,LearnStrategy,2023.2.3,Win32,60.24096386,8,1,11,0.503703788,-0.092592593,1,0,0,1.4495,Pegmatite_13,6,13,3,8,1.45,6,13,-0.082407422,-0.417592578,1,0,0,0.8573,Pegmatite_rect,6,0.857,1,10,0,10,0,1,,,,,,,,,,,,,
56259489ed6e5a0005c80fde,SCR,2024-06-11_12h32.04.319,LearnStrategy,2023.2.3,Win32,60.24096386,8,1,12,-0.058333291,-0.125,1,0,0,0.8319,Gabbro_12,4,12,3,4,0.832,4,12,0.396296325,-0.256481524,1,0,0,1.9916,Gabbro_rect,4,1.992,1,11,0,11,0,1,,,,,,,,,,,,,
56259489ed6e5a0005c80fde,SCR,2024-06-11_12h32.04.319,LearnStrategy,2023.2.3,Win32,60.24096386,8,1,13,-0.243518476,0.084259245,1,0,0,1.0648,Obsidian_09,5,09,4,3,1.065,5,09,-0.401851831,-0.411111125,1,0,0,1.027,Obsidian_rect,5,1.027,1,12,0,12,0,1,,,,,,,,,,,,,
56259489ed6e5a0005c80fde,SCR,2024-06-11_12h32.04.319,LearnStrategy,2023.2.3,Win32,60.24096386,8,1,14,-0.051851838,0.262962959,1,0,0,1.8827,Peridotite_04,7,04,5,4,1.883,5,09,0.150925954,-0.400000042,1,0,0,2.7748,Peridotite_rect,7,2.775,1,13,0,13,0,1,,,,,,,,,,,,,
56259489ed6e5a0005c80fde,SCR,2024-06-11_12h32.04.319,LearnStrategy,2023.2.3,Win32,60.24096386,8,1,15,-0.081481439,0.416666667,1,0,0,1.5297,Andesite_02,1,02,6,4,1.53,5,07,-0.365740741,-0.237963005,1,0,0,1.97,Andesite_rect,1,1.97,1,14,0,14,0,1,,,,,,,,,,,,,
56259489ed6e5a0005c80fde,SCR,2024-06-11_12h32.04.319,LearnStrategy,2023.2.3,Win32,60.24096386,8,1,16,-0.340740734,-0.229629658,1,0,0,1.338,Basalt_06,2,06,2,2,1.338,2,06,-0.102777764,-0.241666653,1,0,0,1.0425,Basalt_rect,2,1.043,1,15,0,15,0,1,,,,,,,,,,,,,
56259489ed6e5a0005c80fde,SCR,2024-06-11_12h32.04.319,LearnStrategy,2023.2.3,Win32,60.24096386,8,2,1,,,,,,,,2,12,,,,,,,,,,,,,2,1.959,1,,,,,,-0.101851852,-0.258333347,1,0,0,1.9592,Basalt_rect,0,0,0,0,1,
56259489ed6e5a0005c80fde,SCR,2024-06-11_12h32.04.319,LearnStrategy,2023.2.3,Win32,60.24096386,8,2,2,,,,,,,,7,07,,,,,,,,,,,,,7,1.15,1,,,,,,0.147222236,-0.407407407,1,0,0,1.15,Peridotite_rect,1,0,1,0,1,
56259489ed6e5a0005c80fde,SCR,2024-06-11_12h32.04.319,LearnStrategy,2023.2.3,Win32,60.24096386,8,2,3,,,,,,,,6,03,,,,,,,,,,,,,6,1.104,1,,,,,,-0.083333333,-0.390740783,1,0,0,1.1043,Pegmatite_rect,2,0,2,0,1,
56259489ed6e5a0005c80fde,SCR,2024-06-11_12h32.04.319,LearnStrategy,2023.2.3,Win32,60.24096386,8,2,4,,,,,,,,5,16,,,,,,,,,,,,,5,1.039,1,,,,,,-0.362037023,-0.39444443,1,0,0,1.0391,Obsidian_rect,3,0,3,0,1,
56259489ed6e5a0005c80fde,SCR,2024-06-11_12h32.04.319,LearnStrategy,2023.2.3,Win32,60.24096386,8,2,5,,,,,,,,4,05,,,,,,,,,,,,,4,2.032,1,,,,,,0.345370399,-0.234259288,1,0,0,2.0319,Gabbro_rect,4,0,4,0,1,
56259489ed6e5a0005c80fde,SCR,2024-06-11_12h32.04.319,LearnStrategy,2023.2.3,Win32,60.24096386,8,2,6,,,,,,,,1,10,,,,,,,,,,,,,1,1.298,1,,,,,,-0.385185171,-0.234259288,1,0,0,1.2978,Andesite_rect,5,0,5,0,1,
56259489ed6e5a0005c80fde,SCR,2024-06-11_12h32.04.319,LearnStrategy,2023.2.3,Win32,60.24096386,8,2,7,,,,,,,,1,03,,,,,,,,,,,,,1,0.816,1,,,,,,-0.385185171,-0.234259288,1,0,0,0.8157,Andesite_rect,6,0,6,0,1,
56259489ed6e5a0005c80fde,SCR,2024-06-11_12h32.04.319,LearnStrategy,2023.2.3,Win32,60.24096386,8,2,8,,,,,,,,8,08,,,,,,,,,,,,,8,1.393,1,,,,,,0.371296353,-0.387962977,1,0,0,1.3928,Pumice_rect,7,0,7,0,1,
56259489ed6e5a0005c80fde,SCR,2024-06-11_12h32.04.319,LearnStrategy,2023.2.3,Win32,60.24096386,8,2,9,,,,,,,,4,16,,,,,,,,,,,,,4,1.775,1,,,,,,0.380555612,-0.25462963,1,0,0,1.7748,Gabbro_rect,8,0,8,0,1,
56259489ed6e5a0005c80fde,SCR,2024-06-11_12h32.04.319,LearnStrategy,2023.2.3,Win32,60.24096386,8,2,10,,,,,,,,5,14,,,,,,,,,,,,,5,1.358,1,,,,,,-0.364814794,-0.391666695,1,0,0,1.3583,Obsidian_rect,9,0,9,0,1,
56259489ed6e5a0005c80fde,SCR,2024-06-11_12h32.04.319,LearnStrategy,2023.2.3,Win32,60.24096386,8,2,11,,,,,,,,8,13,,,,,,,,,,,,,8,1.463,1,,,,,,0.365740741,-0.397222236,1,0,0,1.4634,Pumice_rect,10,0,10,0,1,
56259489ed6e5a0005c80fde,SCR,2024-06-11_12h32.04.319,LearnStrategy,2023.2.3,Win32,60.24096386,8,2,12,,,,,,,,3,12,,,,,,,,,,,,,3,1.409,1,,,,,,0.148148148,-0.228703746,1,0,0,1.4092,Diorite_rect,11,0,11,0,1,
56259489ed6e5a0005c80fde,SCR,2024-06-11_12h32.04.319,LearnStrategy,2023.2.3,Win32,60.24096386,8,2,13,,,,,,,,6,16,,,,,,,,,,,,,6,1.126,1,,,,,,-0.140740712,-0.410185213,1,0,0,1.126,Pegmatite_rect,12,0,12,0,1,
56259489ed6e5a0005c80fde,SCR,2024-06-11_12h32.04.319,LearnStrategy,2023.2.3,Win32,60.24096386,8,2,14,,,,,,,,7,13,,,,,,,,,,,,,7,1.142,1,,,,,,0.142592607,-0.40370369,1,0,0,1.1418,Peridotite_rect,13,0,13,0,1,
56259489ed6e5a0005c80fde,SCR,2024-06-11_12h32.04.319,LearnStrategy,2023.2.3,Win32,60.24096386,8,2,15,,,,,,,,2,04,,,,,,,,,,,,,2,1.126,1,,,,,,-0.107407393,-0.247222265,1,0,0,1.1256,Basalt_rect,14,0,14,0,1,
56259489ed6e5a0005c80fde,SCR,2024-06-11_12h32.04.319,LearnStrategy,2023.2.3,Win32,60.24096386,8,2,16,,,,,,,,3,15,,,,,,,,,,,,,3,2.138,1,,,,,,0.089814857,-0.267592607,1,0,0,2.138,Diorite_rect,15,0,15,0,1,
56259489ed6e5a0005c80fde,SCR,2024-06-11_12h32.04.319,LearnStrategy,2023.2.3,Win32,60.24096386,9,1,1,0.568518603,0.464814815,1,0,0,1.1655,Pumice_15,8,15,6,8,1.165,8,15,0.431481538,-0.413888931,1,0,0,1.7357,Pumice_rect,8,1.736,1,0,0,0,0,1,,,,,,,,,,,,,
56259489ed6e5a0005c80fde,SCR,2024-06-11_12h32.04.319,LearnStrategy,2023.2.3,Win32,60.24096386,9,1,2,-0.532407407,0.400925928,1,0,0,1.2208,Basalt_09,2,09,6,1,1.221,2,09,-0.142592607,-0.233333376,1,0,0,1.1682,Basalt_rect,2,1.168,1,1,0,1,0,1,,,,,,,,,,,,,
56259489ed6e5a0005c80fde,SCR,2024-06-11_12h32.04.319,LearnStrategy,2023.2.3,Win32,60.24096386,9,1,3,0.396296325,0.396296298,1,0,0,1.2824,Gabbro_08,4,08,6,7,1.282,4,08,0.417592649,-0.25462963,1,0,0,0.9235,Gabbro_rect,4,0.924,1,2,0,2,0,1,,,,,,,,,,,,,
56259489ed6e5a0005c80fde,SCR,2024-06-11_12h32.04.319,LearnStrategy,2023.2.3,Win32,60.24096386,9,1,4,-0.082407422,-0.228703746,1,0,0,1.599,Diorite_13,3,13,2,4,1.599,6,08,0.139814801,-0.255555541,1,0,0,1.3262,Diorite_rect,3,1.326,1,3,0,3,0,1,,,,,,,,,,,,,
56259489ed6e5a0005c80fde,SCR,2024-06-11_12h32.04.319,LearnStrategy,2023.2.3,Win32,60.24096386,9,1,5,-0.423148155,0.056481467,1,0,0,0.9155,Gabbro_09,4,09,4,2,0.916,4,09,0.330555527,-0.266666695,1,0,0,1.3222,Gabbro_rect,4,1.322,1,4,0,4,0,1,,,,,,,,,,,,,
56259489ed6e5a0005c80fde,SCR,2024-06-11_12h32.04.319,LearnStrategy,2023.2.3,Win32,60.24096386,9,1,6,-0.526851831,0.064814815,1,0,0,0.8816,Andesite_11,1,11,4,1,0.882,1,11,-0.387962942,-0.247222265,1,0,0,1.0414,Andesite_rect,1,1.041,1,5,0,5,0,1,,,,,,,,,,,,,
56259489ed6e5a0005c80fde,SCR,2024-06-11_12h32.04.319,LearnStrategy,2023.2.3,Win32,60.24096386,9,1,7,-0.576851845,-0.409259302,1,0,0,1.3656,Diorite_09,3,09,1,1,1.366,3,09,0.12037037,-0.258333347,1,0,0,0.8196,Diorite_rect,3,0.82,1,6,0,6,0,1,,,,,,,,,,,,,
56259489ed6e5a0005c80fde,SCR,2024-06-11_12h32.04.319,LearnStrategy,2023.2.3,Win32,60.24096386,9,1,8,-0.073148162,0.357407402,1,0,0,0.9369,Andesite_02,1,02,6,4,0.937,1,02,-0.364814794,-0.239814829,1,0,0,1.3435,Andesite_rect,1,1.343,1,7,0,7,0,1,,,,,,,,,,,,,
56259489ed6e5a0005c80fde,SCR,2024-06-11_12h32.04.319,LearnStrategy,2023.2.3,Win32,60.24096386,9,1,9,0.092592593,-0.224074116,1,0,0,1.5241,Andesite_06,1,06,2,5,1.524,5,11,-0.349074081,-0.249074088,1,0,0,1.3501,Andesite_rect,1,1.35,1,8,0,8,0,1,,,,,,,,,,,,,
56259489ed6e5a0005c80fde,SCR,2024-06-11_12h32.04.319,LearnStrategy,2023.2.3,Win32,60.24096386,9,1,10,0.256481524,0.216666663,1,0,0,1.5497,Gabbro_13,4,13,5,6,1.55,4,13,0.405555584,-0.248148176,1,0,0,0.7691,Gabbro_rect,4,0.769,1,9,0,9,0,1,,,,,,,,,,,,,
56259489ed6e5a0005c80fde,SCR,2024-06-11_12h32.04.319,LearnStrategy,2023.2.3,Win32,60.24096386,9,1,11,0.10092594,-0.122222265,1,0,0,0.9204,Basalt_14,2,14,3,5,0.92,2,14,-0.116666653,-0.256481524,1,0,0,1.6421,Basalt_rect,2,1.642,1,10,0,10,0,1,,,,,,,,,,,,,
56259489ed6e5a0005c80fde,SCR,2024-06-11_12h32.04.319,LearnStrategy,2023.2.3,Win32,60.24096386,9,1,12,0.512963048,0.238888882,1,0,0,1.4041,Peridotite_15,7,15,5,8,1.404,7,15,0.184259273,-0.413888931,1,0,0,1.0114,Peridotite_rect,7,1.011,1,11,0,11,0,1,,,,,,,,,,,,,
56259489ed6e5a0005c80fde,SCR,2024-06-11_12h32.04.319,LearnStrategy,2023.2.3,Win32,60.24096386,9,1,13,0.37962963,-0.431481467,1,0,0,1.871,Diorite_06,3,06,1,7,1.871,5,06,0.162962949,-0.266666695,1,0,0,0.9359,Diorite_rect,3,0.936,1,12,0,12,0,1,,,,,,,,,,,,,
56259489ed6e5a0005c80fde,SCR,2024-06-11_12h32.04.319,LearnStrategy,2023.2.3,Win32,60.24096386,9,1,14,0.416666667,0.071296303,1,0,0,0.9979,Diorite_07,3,07,4,7,0.998,3,07,0.151851866,-0.257407436,1,0,0,1.2998,Diorite_rect,3,1.3,1,13,0,13,0,1,,,,,,,,,,,,,
56259489ed6e5a0005c80fde,SCR,2024-06-11_12h32.04.319,LearnStrategy,2023.2.3,Win32,60.24096386,9,1,15,-0.518518519,-0.397222236,1,0,0,1.5989,Diorite_09,3,09,1,1,1.599,3,09,0.130555541,-0.244444459,1,0,0,1.4361,Diorite_rect,3,1.436,1,14,0,14,0,1,,,,,,,,,,,,,
56259489ed6e5a0005c80fde,SCR,2024-06-11_12h32.04.319,LearnStrategy,2023.2.3,Win32,60.24096386,9,1,16,-0.051851838,-0.448148162,1,0,0,1.3224,Pegmatite_05,6,05,1,4,1.322,5,02,-0.090740698,-0.388888889,1,0,0,0.6962,Pegmatite_rect,6,0.696,1,15,0,15,0,1,,,,,,,,,,,,,
56259489ed6e5a0005c80fde,SCR,2024-06-11_12h32.04.319,LearnStrategy,2023.2.3,Win32,60.24096386,9,2,1,,,,,,,,6,15,,,,,,,,,,,,,6,1.082,1,,,,,,-0.101851852,-0.409259302,1,0,0,1.0821,Pegmatite_rect,0,0,0,0,1,
56259489ed6e5a0005c80fde,SCR,2024-06-11_12h32.04.319,LearnStrategy,2023.2.3,Win32,60.24096386,9,2,2,,,,,,,,3,10,,,,,,,,,,,,,3,3.529,1,,,,,,0.151851866,-0.262037065,1,0,0,3.5293,Diorite_rect,1,0,1,0,1,
56259489ed6e5a0005c80fde,SCR,2024-06-11_12h32.04.319,LearnStrategy,2023.2.3,Win32,60.24096386,9,2,3,,,,,,,,8,09,,,,,,,,,,,,,8,1.184,1,,,,,,0.375925982,-0.385185171,1,0,0,1.1845,Pumice_rect,2,0,2,0,1,
56259489ed6e5a0005c80fde,SCR,2024-06-11_12h32.04.319,LearnStrategy,2023.2.3,Win32,60.24096386,9,2,4,,,,,,,,8,04,,,,,,,,,,,,,8,0.854,1,,,,,,0.375925982,-0.385185171,1,0,0,0.8536,Pumice_rect,3,0,3,0,1,
56259489ed6e5a0005c80fde,SCR,2024-06-11_12h32.04.319,LearnStrategy,2023.2.3,Win32,60.24096386,9,2,5,,,,,,,,7,14,,,,,,,,,,,,,7,1.319,1,,,,,,0.151851866,-0.383333347,1,0,0,1.3187,Peridotite_rect,4,0,4,0,1,
56259489ed6e5a0005c80fde,SCR,2024-06-11_12h32.04.319,LearnStrategy,2023.2.3,Win32,60.24096386,9,2,6,,,,,,,,2,01,,,,,,,,,,,,,2,1.062,1,,,,,,-0.101851852,-0.229629658,1,0,0,1.0621,Basalt_rect,5,0,5,0,1,
56259489ed6e5a0005c80fde,SCR,2024-06-11_12h32.04.319,LearnStrategy,2023.2.3,Win32,60.24096386,9,2,7,,,,,,,,7,16,,,,,,,,,,,,,7,1.31,1,,,,,,0.157407407,-0.405555584,1,0,0,1.31,Peridotite_rect,6,0,6,0,1,
56259489ed6e5a0005c80fde,SCR,2024-06-11_12h32.04.319,LearnStrategy,2023.2.3,Win32,60.24096386,9,2,8,,,,,,,,6,12,,,,,,,,,,,,,6,1.054,1,,,,,,-0.110185199,-0.40370369,1,0,0,1.0544,Pegmatite_rect,7,0,7,0,1,
56259489ed6e5a0005c80fde,SCR,2024-06-11_12h32.04.319,LearnStrategy,2023.2.3,Win32,60.24096386,9,2,9,,,,,,,,4,10,,,,,,,,,,,,,4,2.016,1,,,,,,0.400925954,-0.25,1,0,0,2.0162,Gabbro_rect,8,0,8,0,1,
56259489ed6e5a0005c80fde,SCR,2024-06-11_12h32.04.319,LearnStrategy,2023.2.3,Win32,60.24096386,9,2,10,,,,,,,,5,08,,,,,,,,,,,,,5,1.211,1,,,,,,-0.343518504,-0.413888931,1,0,0,1.2105,Obsidian_rect,9,0,9,0,1,
56259489ed6e5a0005c80fde,SCR,2024-06-11_12h32.04.319,LearnStrategy,2023.2.3,Win32,60.24096386,9,2,11,,,,,,,,3,16,,,,,,,,,,,,,3,1.195,1,,,,,,0.113888917,-0.239814829,1,0,0,1.1953,Diorite_rect,10,0,10,0,1,
56259489ed6e5a0005c80fde,SCR,2024-06-11_12h32.04.319,LearnStrategy,2023.2.3,Win32,60.24096386,9,2,12,,,,,,,,1,09,,,,,,,,,,,,,1,1.755,1,,,,,,-0.339814822,-0.253703718,1,0,0,1.7545,Andesite_rect,11,0,11,0,1,
56259489ed6e5a0005c80fde,SCR,2024-06-11_12h32.04.319,LearnStrategy,2023.2.3,Win32,60.24096386,9,2,13,,,,,,,,1,14,,,,,,,,,,,,,1,4.561,1,,,,,,-0.35833334,-0.262962977,1,0,0,4.5605,Andesite_rect,12,0,12,0,1,
56259489ed6e5a0005c80fde,SCR,2024-06-11_12h32.04.319,LearnStrategy,2023.2.3,Win32,60.24096386,9,2,14,,,,,,,,2,16,,,,,,,,,,,,,4,1.813,0,,,,,,0.385185242,-0.238888917,1,0,0,1.8132,Gabbro_rect,13,0,13,0,1,
56259489ed6e5a0005c80fde,SCR,2024-06-11_12h32.04.319,LearnStrategy,2023.2.3,Win32,60.24096386,9,2,15,,,,,,,,4,03,,,,,,,,,,,,,4,0.896,1,,,,,,0.385185242,-0.238888917,1,0,0,0.8956,Gabbro_rect,14,0,14,0,1,
56259489ed6e5a0005c80fde,SCR,2024-06-11_12h32.04.319,LearnStrategy,2023.2.3,Win32,60.24096386,9,2,16,,,,,,,,5,04,,,,,,,,,,,,,5,1.092,1,,,,,,-0.404629637,-0.410185213,1,0,0,1.0921,Obsidian_rect,15,0,15,0,1,
56259489ed6e5a0005c80fde,SCR,2024-06-11_12h32.04.319,LearnStrategy,2023.2.3,Win32,60.24096386,,,,,,,,,,,,,,,,,,,,,,,,,,,,,,,,,,,,,,,,,,,,,1
56259489ed6e5a0005c80fde,SCR,2024-06-11_12h32.04.319,LearnStrategy,2023.2.3,Win32,60.24096386,,,,,,,,,,,,,,,,,,,,,,,,,,,,,,,,,,,,,,,,,,,,,
56259489ed6e5a0005c80fde,SCR,2024-06-11_12h32.04.319,LearnStrategy,2023.2.3,Win32,60.24096386,,,,,,,,,,,3,09,1,1,,,,,,,,,,,,,,,,,,,,,,,,,,,,,,,
56259489ed6e5a0005c80fde,SCR,2024-06-11_12h32.04.319,LearnStrategy,2023.2.3,Win32,60.24096386,,,,,,,,,,,3,02,1,2,,,,,,,,,,,,,,,,,,,,,,,,,,,,,,,
56259489ed6e5a0005c80fde,SCR,2024-06-11_12h32.04.319,LearnStrategy,2023.2.3,Win32,60.24096386,,,,,,,,,,,5,02,1,3,,,,,,,,,,,,,,,,,,,,,,,,,,,,,,,
56259489ed6e5a0005c80fde,SCR,2024-06-11_12h32.04.319,LearnStrategy,2023.2.3,Win32,60.24096386,,,,,,,,,,,6,05,1,4,,,,,,,,,,,,,,,,,,,,,,,,,,,,,,,
56259489ed6e5a0005c80fde,SCR,2024-06-11_12h32.04.319,LearnStrategy,2023.2.3,Win32,60.24096386,,,,,,,,,,,1,05,1,5,,,,,,,,,,,,,,,,,,,,,,,,,,,,,,,
56259489ed6e5a0005c80fde,SCR,2024-06-11_12h32.04.319,LearnStrategy,2023.2.3,Win32,60.24096386,,,,,,,,,,,2,02,1,6,,,,,,,,,,,,,,,,,,,,,,,,,,,,,,,
56259489ed6e5a0005c80fde,SCR,2024-06-11_12h32.04.319,LearnStrategy,2023.2.3,Win32,60.24096386,,,,,,,,,,,3,06,1,7,,,,,,,,,,,,,,,,,,,,,,,,,,,,,,,
56259489ed6e5a0005c80fde,SCR,2024-06-11_12h32.04.319,LearnStrategy,2023.2.3,Win32,60.24096386,,,,,,,,,,,1,16,1,8,,,,,,,,,,,,,,,,,,,,,,,,,,,,,,,
56259489ed6e5a0005c80fde,SCR,2024-06-11_12h32.04.319,LearnStrategy,2023.2.3,Win32,60.24096386,,,,,,,,,,,5,10,2,1,,,,,,,,,,,,,,,,,,,,,,,,,,,,,,,
56259489ed6e5a0005c80fde,SCR,2024-06-11_12h32.04.319,LearnStrategy,2023.2.3,Win32,60.24096386,,,,,,,,,,,2,06,2,2,,,,,,,,,,,,,,,,,,,,,,,,,,,,,,,
56259489ed6e5a0005c80fde,SCR,2024-06-11_12h32.04.319,LearnStrategy,2023.2.3,Win32,60.24096386,,,,,,,,,,,6,08,2,3,,,,,,,,,,,,,,,,,,,,,,,,,,,,,,,
56259489ed6e5a0005c80fde,SCR,2024-06-11_12h32.04.319,LearnStrategy,2023.2.3,Win32,60.24096386,,,,,,,,,,,3,13,2,4,,,,,,,,,,,,,,,,,,,,,,,,,,,,,,,
56259489ed6e5a0005c80fde,SCR,2024-06-11_12h32.04.319,LearnStrategy,2023.2.3,Win32,60.24096386,,,,,,,,,,,1,06,2,5,,,,,,,,,,,,,,,,,,,,,,,,,,,,,,,
56259489ed6e5a0005c80fde,SCR,2024-06-11_12h32.04.319,LearnStrategy,2023.2.3,Win32,60.24096386,,,,,,,,,,,5,11,2,6,,,,,,,,,,,,,,,,,,,,,,,,,,,,,,,
56259489ed6e5a0005c80fde,SCR,2024-06-11_12h32.04.319,LearnStrategy,2023.2.3,Win32,60.24096386,,,,,,,,,,,8,16,2,7,,,,,,,,,,,,,,,,,,,,,,,,,,,,,,,
56259489ed6e5a0005c80fde,SCR,2024-06-11_12h32.04.319,LearnStrategy,2023.2.3,Win32,60.24096386,,,,,,,,,,,5,06,2,8,,,,,,,,,,,,,,,,,,,,,,,,,,,,,,,
56259489ed6e5a0005c80fde,SCR,2024-06-11_12h32.04.319,LearnStrategy,2023.2.3,Win32,60.24096386,,,,,,,,,,,7,05,3,1,,,,,,,,,,,,,,,,,,,,,,,,,,,,,,,
56259489ed6e5a0005c80fde,SCR,2024-06-11_12h32.04.319,LearnStrategy,2023.2.3,Win32,60.24096386,,,,,,,,,,,1,07,3,2,,,,,,,,,,,,,,,,,,,,,,,,,,,,,,,
56259489ed6e5a0005c80fde,SCR,2024-06-11_12h32.04.319,LearnStrategy,2023.2.3,Win32,60.24096386,,,,,,,,,,,6,06,3,3,,,,,,,,,,,,,,,,,,,,,,,,,,,,,,,
56259489ed6e5a0005c80fde,SCR,2024-06-11_12h32.04.319,LearnStrategy,2023.2.3,Win32,60.24096386,,,,,,,,,,,4,12,3,4,,,,,,,,,,,,,,,,,,,,,,,,,,,,,,,
56259489ed6e5a0005c80fde,SCR,2024-06-11_12h32.04.319,LearnStrategy,2023.2.3,Win32,60.24096386,,,,,,,,,,,2,14,3,5,,,,,,,,,,,,,,,,,,,,,,,,,,,,,,,
56259489ed6e5a0005c80fde,SCR,2024-06-11_12h32.04.319,LearnStrategy,2023.2.3,Win32,60.24096386,,,,,,,,,,,7,12,3,6,,,,,,,,,,,,,,,,,,,,,,,,,,,,,,,
56259489ed6e5a0005c80fde,SCR,2024-06-11_12h32.04.319,LearnStrategy,2023.2.3,Win32,60.24096386,,,,,,,,,,,6,07,3,7,,,,,,,,,,,,,,,,,,,,,,,,,,,,,,,
56259489ed6e5a0005c80fde,SCR,2024-06-11_12h32.04.319,LearnStrategy,2023.2.3,Win32,60.24096386,,,,,,,,,,,6,13,3,8,,,,,,,,,,,,,,,,,,,,,,,,,,,,,,,
56259489ed6e5a0005c80fde,SCR,2024-06-11_12h32.04.319,LearnStrategy,2023.2.3,Win32,60.24096386,,,,,,,,,,,1,11,4,1,,,,,,,,,,,,,,,,,,,,,,,,,,,,,,,
56259489ed6e5a0005c80fde,SCR,2024-06-11_12h32.04.319,LearnStrategy,2023.2.3,Win32,60.24096386,,,,,,,,,,,4,09,4,2,,,,,,,,,,,,,,,,,,,,,,,,,,,,,,,
56259489ed6e5a0005c80fde,SCR,2024-06-11_12h32.04.319,LearnStrategy,2023.2.3,Win32,60.24096386,,,,,,,,,,,5,09,4,3,,,,,,,,,,,,,,,,,,,,,,,,,,,,,,,
56259489ed6e5a0005c80fde,SCR,2024-06-11_12h32.04.319,LearnStrategy,2023.2.3,Win32,60.24096386,,,,,,,,,,,2,11,4,4,,,,,,,,,,,,,,,,,,,,,,,,,,,,,,,
56259489ed6e5a0005c80fde,SCR,2024-06-11_12h32.04.319,LearnStrategy,2023.2.3,Win32,60.24096386,,,,,,,,,,,7,08,4,5,,,,,,,,,,,,,,,,,,,,,,,,,,,,,,,
56259489ed6e5a0005c80fde,SCR,2024-06-11_12h32.04.319,LearnStrategy,2023.2.3,Win32,60.24096386,,,,,,,,,,,6,10,4,6,,,,,,,,,,,,,,,,,,,,,,,,,,,,,,,
56259489ed6e5a0005c80fde,SCR,2024-06-11_12h32.04.319,LearnStrategy,2023.2.3,Win32,60.24096386,,,,,,,,,,,3,07,4,7,,,,,,,,,,,,,,,,,,,,,,,,,,,,,,,
56259489ed6e5a0005c80fde,SCR,2024-06-11_12h32.04.319,LearnStrategy,2023.2.3,Win32,60.24096386,,,,,,,,,,,4,14,4,8,,,,,,,,,,,,,,,,,,,,,,,,,,,,,,,
56259489ed6e5a0005c80fde,SCR,2024-06-11_12h32.04.319,LearnStrategy,2023.2.3,Win32,60.24096386,,,,,,,,,,,3,11,5,1,,,,,,,,,,,,,,,,,,,,,,,,,,,,,,,
56259489ed6e5a0005c80fde,SCR,2024-06-11_12h32.04.319,LearnStrategy,2023.2.3,Win32,60.24096386,,,,,,,,,,,2,10,5,2,,,,,,,,,,,,,,,,,,,,,,,,,,,,,,,
56259489ed6e5a0005c80fde,SCR,2024-06-11_12h32.04.319,LearnStrategy,2023.2.3,Win32,60.24096386,,,,,,,,,,,5,07,5,3,,,,,,,,,,,,,,,,,,,,,,,,,,,,,,,
56259489ed6e5a0005c80fde,SCR,2024-06-11_12h32.04.319,LearnStrategy,2023.2.3,Win32,60.24096386,,,,,,,,,,,7,04,5,4,,,,,,,,,,,,,,,,,,,,,,,,,,,,,,,
56259489ed6e5a0005c80fde,SCR,2024-06-11_12h32.04.319,LearnStrategy,2023.2.3,Win32,60.24096386,,,,,,,,,,,7,02,5,5,,,,,,,,,,,,,,,,,,,,,,,,,,,,,,,
56259489ed6e5a0005c80fde,SCR,2024-06-11_12h32.04.319,LearnStrategy,2023.2.3,Win32,60.24096386,,,,,,,,,,,4,13,5,6,,,,,,,,,,,,,,,,,,,,,,,,,,,,,,,
56259489ed6e5a0005c80fde,SCR,2024-06-11_12h32.04.319,LearnStrategy,2023.2.3,Win32,60.24096386,,,,,,,,,,,4,11,5,7,,,,,,,,,,,,,,,,,,,,,,,,,,,,,,,
56259489ed6e5a0005c80fde,SCR,2024-06-11_12h32.04.319,LearnStrategy,2023.2.3,Win32,60.24096386,,,,,,,,,,,7,15,5,8,,,,,,,,,,,,,,,,,,,,,,,,,,,,,,,
56259489ed6e5a0005c80fde,SCR,2024-06-11_12h32.04.319,LearnStrategy,2023.2.3,Win32,60.24096386,,,,,,,,,,,2,09,6,1,,,,,,,,,,,,,,,,,,,,,,,,,,,,,,,
56259489ed6e5a0005c80fde,SCR,2024-06-11_12h32.04.319,LearnStrategy,2023.2.3,Win32,60.24096386,,,,,,,,,,,8,03,6,2,,,,,,,,,,,,,,,,,,,,,,,,,,,,,,,
56259489ed6e5a0005c80fde,SCR,2024-06-11_12h32.04.319,LearnStrategy,2023.2.3,Win32,60.24096386,,,,,,,,,,,8,05,6,3,,,,,,,,,,,,,,,,,,,,,,,,,,,,,,,
56259489ed6e5a0005c80fde,SCR,2024-06-11_12h32.04.319,LearnStrategy,2023.2.3,Win32,60.24096386,,,,,,,,,,,1,02,6,4,,,,,,,,,,,,,,,,,,,,,,,,,,,,,,,
56259489ed6e5a0005c80fde,SCR,2024-06-11_12h32.04.319,LearnStrategy,2023.2.3,Win32,60.24096386,,,,,,,,,,,8,02,6,5,,,,,,,,,,,,,,,,,,,,,,,,,,,,,,,
56259489ed6e5a0005c80fde,SCR,2024-06-11_12h32.04.319,LearnStrategy,2023.2.3,Win32,60.24096386,,,,,,,,,,,8,10,6,6,,,,,,,,,,,,,,,,,,,,,,,,,,,,,,,
56259489ed6e5a0005c80fde,SCR,2024-06-11_12h32.04.319,LearnStrategy,2023.2.3,Win32,60.24096386,,,,,,,,,,,4,08,6,7,,,,,,,,,,,,,,,,,,,,,,,,,,,,,,,
56259489ed6e5a0005c80fde,SCR,2024-06-11_12h32.04.319,LearnStrategy,2023.2.3,Win32,60.24096386,,,,,,,,,,,8,15,6,8,,,,,,,,,,,,,,,,,,,,,,,,,,,,,,,