participant,condition,date,expName,psychopyVersion,OS,frameRate,block,phase,trial,learn_mouse.x,learn_mouse.y,learn_mouse.leftButton,learn_mouse.midButton,learn_mouse.rightButton,learn_mouse.time,learn_mouse.clicked_name,cat,token,row,col,t_select,cat_mouse_l.x,cat_mouse_l.y,cat_mouse_l.leftButton,cat_mouse_l.midButton,cat_mouse_l.rightButton,cat_mouse_l.time,cat_mouse_l.clicked_name,resp,t_resp,corr,train_trials.thisRepN,train_trials.thisTrialN,train_trials.thisN,train_trials.thisIndex,train_trials.ran,cat_mouse_t.x,cat_mouse_t.y,cat_mouse_t.leftButton,cat_mouse_t.midButton,cat_mouse_t.rightButton,cat_mouse_t.time,cat_mouse_t.clicked_name,test_trials.thisRepN,test_trials.thisTrialN,test_trials.thisN,test_trials.thisIndex,test_trials.ran,Bonus
5639a8adbe9cac000daaa30f,SCN,2024-06-11_12h24.34.753,LearnStrategy,2023.2.3,Win32,60.24096386,,,,,,,,,,,,,,,,,,,,,,,,,,,,,,,,,,,,,,,,,,,
5639a8adbe9cac000daaa30f,SCN,2024-06-11_12h24.34.753,LearnStrategy,2023.2.3,Win32,60.24096386,1,1,1,-0.555555556,0.419444444,1,0,0,5.675,Diorite_13,3,13,6,1,5.675,-0.378703704,-0.249074074,1,0,0,39.0168,Andesite_rect,1,39.017,0,0,0,0,0,1,,,,,,,,,,,,,
5639a8adbe9cac000daaa30f,SCN,2024-06-11_12h24.34.753,LearnStrategy,2023.2.3,Win32,60.24096386,1,1,2,-0.565740741,-0.417592593,1,0,0,16.0986,Obsidian_02,5,02,1,1,16.099,-0.151851852,-0.256481481,1,0,0,3.3392,Basalt_rect,2,3.339,0,1,0,1,0,1,,,,,,,,,,,,,
5639a8adbe9cac000daaa30f,SCN,2024-06-11_12h24.34.753,LearnStrategy,2023.2.3,Win32,60.24096386,1,1,3,-0.223148148,0.387962963,1,0,0,5.2984,Pumice_16,8,16,6,3,5.298,0.371296296,-0.405555556,1,0,0,3.6895,Pumice_rect,8,3.69,1,2,0,2,0,1,,,,,,,,,,,,,
5639a8adbe9cac000daaa30f,SCN,2024-06-11_12h24.34.753,LearnStrategy,2023.2.3,Win32,60.24096386,1,1,4,-0.048148148,0.383333333,1,0,0,1.8648,Pegmatite_10,6,10,6,4,1.865,0.400925926,-0.239814815,1,0,0,1.8781,Gabbro_rect,4,1.878,0,3,0,3,0,1,,,,,,,,,,,,,
5639a8adbe9cac000daaa30f,SCN,2024-06-11_12h24.34.753,LearnStrategy,2023.2.3,Win32,60.24096386,1,1,5,0.390740741,0.111111111,1,0,0,2.1832,Obsidian_06,5,06,4,7,2.183,-0.37037037,-0.238888889,1,0,0,2.8276,Andesite_rect,1,2.828,0,4,0,4,0,1,,,,,,,,,,,,,
5639a8adbe9cac000daaa30f,SCN,2024-06-11_12h24.34.753,LearnStrategy,2023.2.3,Win32,60.24096386,1,1,6,0.562037037,-0.432407407,1,0,0,9.282,Pegmatite_16,6,16,1,8,9.282,-0.375,-0.260185185,1,0,0,3.7228,Andesite_rect,1,3.723,0,5,0,5,0,1,,,,,,,,,,,,,
5639a8adbe9cac000daaa30f,SCN,2024-06-11_12h24.34.753,LearnStrategy,2023.2.3,Win32,60.24096386,1,1,7,-0.212037037,-0.093518519,1,0,0,2.2483,Diorite_02,3,02,3,3,2.248,0.082407407,-0.410185185,1,0,0,1.2779,Peridotite_rect,7,1.278,0,6,0,6,0,1,,,,,,,,,,,,,
5639a8adbe9cac000daaa30f,SCN,2024-06-11_12h24.34.753,LearnStrategy,2023.2.3,Win32,60.24096386,1,1,8,0.571296296,0.263888889,1,0,0,14.1993,Basalt_01,2,01,5,8,14.199,0.409259259,-0.235185185,1,0,0,6.5068,Gabbro_rect,4,6.507,0,7,0,7,0,1,,,,,,,,,,,,,
5639a8adbe9cac000daaa30f,SCN,2024-06-11_12h24.34.753,LearnStrategy,2023.2.3,Win32,60.24096386,1,1,9,-0.216666667,-0.234259259,1,0,0,9.4985,Pegmatite_06,6,06,2,3,9.498,0.203703704,-0.401851852,1,0,0,6.2565,Peridotite_rect,7,6.257,0,8,0,8,0,1,,,,,,,,,,,,,
5639a8adbe9cac000daaa30f,SCN,2024-06-11_12h24.34.753,LearnStrategy,2023.2.3,Win32,60.24096386,1,1,10,0.4,-0.269444444,1,0,0,5.8986,Peridotite_04,7,04,2,7,5.899,-0.358333333,-0.252777778,1,0,0,7.0897,Andesite_rect,1,7.09,0,9,0,9,0,1,,,,,,,,,,,,,
5639a8adbe9cac000daaa30f,SCN,2024-06-11_12h24.34.753,LearnStrategy,2023.2.3,Win32,60.24096386,1,1,11,-0.536111111,-0.097222222,1,0,0,14.3484,Andesite_01,1,01,3,1,14.348,0.137962963,-0.40462963,1,0,0,5.7739,Peridotite_rect,7,5.774,0,10,0,10,0,1,,,,,,,,,,,,,
5639a8adbe9cac000daaa30f,SCN,2024-06-11_12h24.34.753,LearnStrategy,2023.2.3,Win32,60.24096386,1,1,12,-0.216666667,0.240740741,1,0,0,8.0659,Gabbro_12,4,12,5,3,8.066,-0.130555556,-0.230555556,1,0,0,2.8556,Basalt_rect,2,2.856,0,11,0,11,0,1,,,,,,,,,,,,,
5639a8adbe9cac000daaa30f,SCN,2024-06-11_12h24.34.753,LearnStrategy,2023.2.3,Win32,60.24096386,1,1,13,-0.55,0.262962963,1,0,0,3.5824,Peridotite_05,7,05,5,1,3.582,0.09537037,-0.409259259,1,0,0,3.6579,Peridotite_rect,7,3.658,1,12,0,12,0,1,,,,,,,,,,,,,
5639a8adbe9cac000daaa30f,SCN,2024-06-11_12h24.34.753,LearnStrategy,2023.2.3,Win32,60.24096386,1,1,14,-0.071296296,0.226851852,1,0,0,5.9991,Gabbro_08,4,08,5,4,5.999,-0.101851852,-0.230555556,1,0,0,3.2571,Basalt_rect,2,3.257,0,13,0,13,0,1,,,,,,,,,,,,,
5639a8adbe9cac000daaa30f,SCN,2024-06-11_12h24.34.753,LearnStrategy,2023.2.3,Win32,60.24096386,1,1,15,0.268518519,0.262037037,1,0,0,2.2988,Gabbro_13,4,13,5,6,2.299,-0.083333333,-0.237962963,1,0,0,22.4958,Basalt_rect,2,22.496,0,14,0,14,0,1,,,,,,,,,,,,,
5639a8adbe9cac000daaa30f,SCN,2024-06-11_12h24.34.753,LearnStrategy,2023.2.3,Win32,60.24096386,1,1,16,0.562962963,0.262037037,1,0,0,4.6598,Basalt_01,2,01,5,8,4.66,-0.165740741,-0.253703704,1,0,0,3.4405,Basalt_rect,2,3.44,1,15,0,15,0,1,,,,,,,,,,,,,
5639a8adbe9cac000daaa30f,SCN,2024-06-11_12h24.34.753,LearnStrategy,2023.2.3,Win32,60.24096386,1,2,1,,,,,,,,5,07,,,,,,,,,,,5,9.278,1,,,,,,-0.421296296,-0.413888889,1,0,0,9.2782,Obsidian_rect,0,0,0,0,1,
5639a8adbe9cac000daaa30f,SCN,2024-06-11_12h24.34.753,LearnStrategy,2023.2.3,Win32,60.24096386,1,2,2,,,,,,,,1,04,,,,,,,,,,,7,11.111,0,,,,,,0.102777778,-0.401851852,1,0,0,11.1112,Peridotite_rect,1,0,1,0,1,
5639a8adbe9cac000daaa30f,SCN,2024-06-11_12h24.34.753,LearnStrategy,2023.2.3,Win32,60.24096386,1,2,3,,,,,,,,6,05,,,,,,,,,,,6,7.328,1,,,,,,-0.09537037,-0.389814815,1,0,0,7.3276,Pegmatite_rect,2,0,2,0,1,
5639a8adbe9cac000daaa30f,SCN,2024-06-11_12h24.34.753,LearnStrategy,2023.2.3,Win32,60.24096386,1,2,4,,,,,,,,8,04,,,,,,,,,,,8,1.595,1,,,,,,0.325,-0.405555556,1,0,0,1.5948,Pumice_rect,3,0,3,0,1,
5639a8adbe9cac000daaa30f,SCN,2024-06-11_12h24.34.753,LearnStrategy,2023.2.3,Win32,60.24096386,1,2,5,,,,,,,,4,09,,,,,,,,,,,3,14.678,0,,,,,,0.15462963,-0.267592593,1,0,0,14.6779,Diorite_rect,4,0,4,0,1,
5639a8adbe9cac000daaa30f,SCN,2024-06-11_12h24.34.753,LearnStrategy,2023.2.3,Win32,60.24096386,1,2,6,,,,,,,,3,06,,,,,,,,,,,1,4.695,0,,,,,,-0.386111111,-0.234259259,1,0,0,4.695,Andesite_rect,5,0,5,0,1,
5639a8adbe9cac000daaa30f,SCN,2024-06-11_12h24.34.753,LearnStrategy,2023.2.3,Win32,60.24096386,1,2,7,,,,,,,,7,13,,,,,,,,,,,6,9.845,0,,,,,,-0.143518519,-0.382407407,1,0,0,9.8452,Pegmatite_rect,6,0,6,0,1,
5639a8adbe9cac000daaa30f,SCN,2024-06-11_12h24.34.753,LearnStrategy,2023.2.3,Win32,60.24096386,1,2,8,,,,,,,,4,05,,,,,,,,,,,4,3.228,1,,,,,,0.321296296,-0.268518519,1,0,0,3.2279,Gabbro_rect,7,0,7,0,1,
5639a8adbe9cac000daaa30f,SCN,2024-06-11_12h24.34.753,LearnStrategy,2023.2.3,Win32,60.24096386,1,2,9,,,,,,,,3,12,,,,,,,,,,,1,3.095,0,,,,,,-0.367592593,-0.238888889,1,0,0,3.0946,Andesite_rect,8,0,8,0,1,
5639a8adbe9cac000daaa30f,SCN,2024-06-11_12h24.34.753,LearnStrategy,2023.2.3,Win32,60.24096386,1,2,10,,,,,,,,8,14,,,,,,,,,,,8,1.445,1,,,,,,0.39537037,-0.386111111,1,0,0,1.4445,Pumice_rect,9,0,9,0,1,
5639a8adbe9cac000daaa30f,SCN,2024-06-11_12h24.34.753,LearnStrategy,2023.2.3,Win32,60.24096386,1,2,11,,,,,,,,6,15,,,,,,,,,,,6,12.328,1,,,,,,-0.149074074,-0.388888889,1,0,0,12.3281,Pegmatite_rect,10,0,10,0,1,
5639a8adbe9cac000daaa30f,SCN,2024-06-11_12h24.34.753,LearnStrategy,2023.2.3,Win32,60.24096386,1,2,12,,,,,,,,2,10,,,,,,,,,,,2,7.245,1,,,,,,-0.119444444,-0.253703704,1,0,0,7.2449,Basalt_rect,11,0,11,0,1,
5639a8adbe9cac000daaa30f,SCN,2024-06-11_12h24.34.753,LearnStrategy,2023.2.3,Win32,60.24096386,1,2,13,,,,,,,,5,11,,,,,,,,,,,5,1.211,1,,,,,,-0.391666667,-0.381481481,1,0,0,1.2113,Obsidian_rect,12,0,12,0,1,
5639a8adbe9cac000daaa30f,SCN,2024-06-11_12h24.34.753,LearnStrategy,2023.2.3,Win32,60.24096386,1,2,14,,,,,,,,1,16,,,,,,,,,,,7,4.529,0,,,,,,0.075,-0.400925926,1,0,0,4.5292,Peridotite_rect,13,0,13,0,1,
5639a8adbe9cac000daaa30f,SCN,2024-06-11_12h24.34.753,LearnStrategy,2023.2.3,Win32,60.24096386,1,2,15,,,,,,,,7,10,,,,,,,,,,,7,0.861,1,,,,,,0.075925926,-0.400925926,1,0,0,0.8609,Peridotite_rect,14,0,14,0,1,
5639a8adbe9cac000daaa30f,SCN,2024-06-11_12h24.34.753,LearnStrategy,2023.2.3,Win32,60.24096386,1,2,16,,,,,,,,2,09,,,,,,,,,,,2,3.329,1,,,,,,-0.150925926,-0.25462963,1,0,0,3.3287,Basalt_rect,15,0,15,0,1,
5639a8adbe9cac000daaa30f,SCN,2024-06-11_12h24.34.753,LearnStrategy,2023.2.3,Win32,60.24096386,2,1,1,-0.084259259,-0.249074074,1,0,0,15.393,Peridotite_08,7,08,2,4,15.393,0.12962963,-0.414814815,1,0,0,1.3725,Peridotite_rect,7,1.372,1,0,0,0,0,1,,,,,,,,,,,,,
5639a8adbe9cac000daaa30f,SCN,2024-06-11_12h24.34.753,LearnStrategy,2023.2.3,Win32,60.24096386,2,1,2,-0.384259259,-0.425,1,0,0,3.3825,Andesite_02,1,02,1,2,3.382,0.058333333,-0.407407407,1,0,0,3.0912,Peridotite_rect,7,3.091,0,1,0,1,0,1,,,,,,,,,,,,,
5639a8adbe9cac000daaa30f,SCN,2024-06-11_12h24.34.753,LearnStrategy,2023.2.3,Win32,60.24096386,2,1,3,0.259259259,0.094444444,1,0,0,7.2324,Peridotite_12,7,12,4,6,7.232,-0.090740741,-0.386111111,1,0,0,11.7402,Pegmatite_rect,6,11.74,0,2,0,2,0,1,,,,,,,,,,,,,
5639a8adbe9cac000daaa30f,SCN,2024-06-11_12h24.34.753,LearnStrategy,2023.2.3,Win32,60.24096386,2,1,4,0.557407407,0.386111111,1,0,0,5.7482,Diorite_15,3,15,6,8,5.748,-0.388888889,-0.259259259,1,0,0,2.1399,Andesite_rect,1,2.14,0,3,0,3,0,1,,,,,,,,,,,,,
5639a8adbe9cac000daaa30f,SCN,2024-06-11_12h24.34.753,LearnStrategy,2023.2.3,Win32,60.24096386,2,1,5,0.39537037,0.246296296,1,0,0,1.7817,Diorite_08,3,08,5,7,1.782,-0.386111111,-0.231481481,1,0,0,1.3789,Andesite_rect,1,1.379,0,4,0,4,0,1,,,,,,,,,,,,,
5639a8adbe9cac000daaa30f,SCN,2024-06-11_12h24.34.753,LearnStrategy,2023.2.3,Win32,60.24096386,2,1,6,-0.374074074,0.07962963,1,0,0,5.5989,Basalt_11,2,11,4,2,5.599,0.37037037,-0.386111111,1,0,0,5.8066,Pumice_rect,8,5.807,0,5,0,5,0,1,,,,,,,,,,,,,
5639a8adbe9cac000daaa30f,SCN,2024-06-11_12h24.34.753,LearnStrategy,2023.2.3,Win32,60.24096386,2,1,7,-0.267592593,0.105555556,1,0,0,1.2814,Pegmatite_12,6,12,4,3,1.281,0.191666667,-0.234259259,1,0,0,10.9294,Diorite_rect,3,10.929,0,6,0,6,0,1,,,,,,,,,,,,,
5639a8adbe9cac000daaa30f,SCN,2024-06-11_12h24.34.753,LearnStrategy,2023.2.3,Win32,60.24096386,2,1,8,0.559259259,-0.107407407,1,0,0,8.3324,Pumice_13,8,13,3,8,8.332,0.431481481,-0.380555556,1,0,0,1.1396,Pumice_rect,8,1.14,1,7,0,7,0,1,,,,,,,,,,,,,
5639a8adbe9cac000daaa30f,SCN,2024-06-11_12h24.34.753,LearnStrategy,2023.2.3,Win32,60.24096386,2,1,9,0.375925926,-0.087962963,1,0,0,0.7826,Gabbro_01,4,01,3,7,0.783,0.124074074,-0.409259259,1,0,0,2.8795,Peridotite_rect,7,2.88,0,8,0,8,0,1,,,,,,,,,,,,,
5639a8adbe9cac000daaa30f,SCN,2024-06-11_12h24.34.753,LearnStrategy,2023.2.3,Win32,60.24096386,2,1,10,0.25462963,-0.092592593,1,0,0,0.8821,Gabbro_15,4,15,3,6,0.882,0.128703704,-0.246296296,1,0,0,5.9624,Diorite_rect,3,5.962,0,9,0,9,0,1,,,,,,,,,,,,,
5639a8adbe9cac000daaa30f,SCN,2024-06-11_12h24.34.753,LearnStrategy,2023.2.3,Win32,60.24096386,2,1,11,0.083333333,-0.094444444,1,0,0,0.9817,Gabbro_10,4,10,3,5,0.982,0.099074074,-0.243518519,1,0,0,1.4784,Diorite_rect,3,1.478,0,10,0,10,0,1,,,,,,,,,,,,,
5639a8adbe9cac000daaa30f,SCN,2024-06-11_12h24.34.753,LearnStrategy,2023.2.3,Win32,60.24096386,2,1,12,-0.060185185,-0.085185185,1,0,0,0.6328,Basalt_08,2,08,3,4,0.633,-0.146296296,-0.228703704,1,0,0,1.1452,Basalt_rect,2,1.145,1,11,0,11,0,1,,,,,,,,,,,,,
5639a8adbe9cac000daaa30f,SCN,2024-06-11_12h24.34.753,LearnStrategy,2023.2.3,Win32,60.24096386,2,1,13,-0.22962963,-0.064814815,1,0,0,1.0821,Diorite_02,3,02,3,3,1.082,-0.409259259,-0.24537037,1,0,0,1.8614,Andesite_rect,1,1.861,0,12,0,12,0,1,,,,,,,,,,,,,
5639a8adbe9cac000daaa30f,SCN,2024-06-11_12h24.34.753,LearnStrategy,2023.2.3,Win32,60.24096386,2,1,14,-0.519444444,-0.256481481,1,0,0,2.3826,Diorite_11,3,11,2,1,2.383,0.075925926,-0.258333333,1,0,0,1.945,Diorite_rect,3,1.945,1,13,0,13,0,1,,,,,,,,,,,,,
5639a8adbe9cac000daaa30f,SCN,2024-06-11_12h24.34.753,LearnStrategy,2023.2.3,Win32,60.24096386,2,1,15,-0.22962963,-0.428703704,1,0,0,1.1659,Pumice_10,8,10,1,3,1.166,0.325925926,-0.399074074,1,0,0,0.9121,Pumice_rect,8,0.912,1,14,0,14,0,1,,,,,,,,,,,,,
5639a8adbe9cac000daaa30f,SCN,2024-06-11_12h24.34.753,LearnStrategy,2023.2.3,Win32,60.24096386,2,1,16,-0.537037037,-0.447222222,1,0,0,1.6489,Obsidian_02,5,02,1,1,1.649,-0.464814815,-0.401851852,1,0,0,0.9787,Obsidian_rect,5,0.979,1,15,0,15,0,1,,,,,,,,,,,,,
5639a8adbe9cac000daaa30f,SCN,2024-06-11_12h24.34.753,LearnStrategy,2023.2.3,Win32,60.24096386,2,2,1,,,,,,,,2,12,,,,,,,,,,,8,4.178,0,,,,,,0.375,-0.398148148,1,0,0,4.1784,Pumice_rect,0,0,0,0,1,
5639a8adbe9cac000daaa30f,SCN,2024-06-11_12h24.34.753,LearnStrategy,2023.2.3,Win32,60.24096386,2,2,2,,,,,,,,3,09,,,,,,,,,,,3,8.495,1,,,,,,0.132407407,-0.238888889,1,0,0,8.4953,Diorite_rect,1,0,1,0,1,
5639a8adbe9cac000daaa30f,SCN,2024-06-11_12h24.34.753,LearnStrategy,2023.2.3,Win32,60.24096386,2,2,3,,,,,,,,8,08,,,,,,,,,,,8,4.845,1,,,,,,0.360185185,-0.387037037,1,0,0,4.8448,Pumice_rect,2,0,2,0,1,
5639a8adbe9cac000daaa30f,SCN,2024-06-11_12h24.34.753,LearnStrategy,2023.2.3,Win32,60.24096386,2,2,4,,,,,,,,5,09,,,,,,,,,,,5,1.195,1,,,,,,-0.402777778,-0.415740741,1,0,0,1.1951,Obsidian_rect,3,0,3,0,1,
5639a8adbe9cac000daaa30f,SCN,2024-06-11_12h24.34.753,LearnStrategy,2023.2.3,Win32,60.24096386,2,2,5,,,,,,,,4,16,,,,,,,,,,,4,2.095,1,,,,,,0.396296296,-0.25462963,1,0,0,2.0947,Gabbro_rect,4,0,4,0,1,
5639a8adbe9cac000daaa30f,SCN,2024-06-11_12h24.34.753,LearnStrategy,2023.2.3,Win32,60.24096386,2,2,6,,,,,,,,6,08,,,,,,,,,,,7,3.907,0,,,,,,0.138888889,-0.384259259,1,0,0,3.9067,Peridotite_rect,5,0,5,0,1,
5639a8adbe9cac000daaa30f,SCN,2024-06-11_12h24.34.753,LearnStrategy,2023.2.3,Win32,60.24096386,2,2,7,,,,,,,,1,03,,,,,,,,,,,4,18.211,0,,,,,,0.37037037,-0.27037037,1,0,0,18.211,Gabbro_rect,6,0,6,0,1,
5639a8adbe9cac000daaa30f,SCN,2024-06-11_12h24.34.753,LearnStrategy,2023.2.3,Win32,60.24096386,2,2,8,,,,,,,,7,14,,,,,,,,,,,1,5.846,0,,,,,,-0.388888889,-0.239814815,1,0,0,5.8463,Andesite_rect,7,0,7,0,1,
5639a8adbe9cac000daaa30f,SCN,2024-06-11_12h24.34.753,LearnStrategy,2023.2.3,Win32,60.24096386,2,2,9,,,,,,,,6,09,,,,,,,,,,,6,8.512,1,,,,,,-0.126851852,-0.396296296,1,0,0,8.5118,Pegmatite_rect,8,0,8,0,1,
5639a8adbe9cac000daaa30f,SCN,2024-06-11_12h24.34.753,LearnStrategy,2023.2.3,Win32,60.24096386,2,2,10,,,,,,,,3,07,,,,,,,,,,,7,5.411,0,,,,,,0.100925926,-0.417592593,1,0,0,5.4113,Peridotite_rect,9,0,9,0,1,
5639a8adbe9cac000daaa30f,SCN,2024-06-11_12h24.34.753,LearnStrategy,2023.2.3,Win32,60.24096386,2,2,11,,,,,,,,8,03,,,,,,,,,,,8,0.878,1,,,,,,0.372222222,-0.399074074,1,0,0,0.8778,Pumice_rect,10,0,10,0,1,
5639a8adbe9cac000daaa30f,SCN,2024-06-11_12h24.34.753,LearnStrategy,2023.2.3,Win32,60.24096386,2,2,12,,,,,,,,2,16,,,,,,,,,,,4,2.528,0,,,,,,0.339814815,-0.239814815,1,0,0,2.5282,Gabbro_rect,11,0,11,0,1,
5639a8adbe9cac000daaa30f,SCN,2024-06-11_12h24.34.753,LearnStrategy,2023.2.3,Win32,60.24096386,2,2,13,,,,,,,,5,04,,,,,,,,,,,5,1.012,1,,,,,,-0.425925926,-0.406481481,1,0,0,1.0116,Obsidian_rect,12,0,12,0,1,
5639a8adbe9cac000daaa30f,SCN,2024-06-11_12h24.34.753,LearnStrategy,2023.2.3,Win32,60.24096386,2,2,14,,,,,,,,1,07,,,,,,,,,,,1,3.796,1,,,,,,-0.392592593,-0.260185185,1,0,0,3.7957,Andesite_rect,13,0,13,0,1,
5639a8adbe9cac000daaa30f,SCN,2024-06-11_12h24.34.753,LearnStrategy,2023.2.3,Win32,60.24096386,2,2,15,,,,,,,,7,07,,,,,,,,,,,7,1.311,1,,,,,,0.136111111,-0.385185185,1,0,0,1.3111,Peridotite_rect,14,0,14,0,1,
5639a8adbe9cac000daaa30f,SCN,2024-06-11_12h24.34.753,LearnStrategy,2023.2.3,Win32,60.24096386,2,2,16,,,,,,,,4,03,,,,,,,,,,,7,1.595,0,,,,,,0.136111111,-0.385185185,1,0,0,1.5951,Peridotite_rect,15,0,15,0,1,
5639a8adbe9cac000daaa30f,SCN,2024-06-11_12h24.34.753,LearnStrategy,2023.2.3,Win32,60.24096386,3,1,1,-0.376851852,-0.421296296,1,0,0,7.5158,Andesite_02,1,02,1,2,7.516,0.144444444,-0.402777778,1,0,0,3.7565,Peridotite_rect,7,3.756,0,0,0,0,0,1,,,,,,,,,,,,,
5639a8adbe9cac000daaa30f,SCN,2024-06-11_12h24.34.753,LearnStrategy,2023.2.3,Win32,60.24096386,3,1,2,-0.081481481,-0.427777778,1,0,0,1.7763,Andesite_14,1,14,1,4,1.776,-0.361111111,-0.237962963,1,0,0,1.1952,Andesite_rect,1,1.195,1,1,0,1,0,1,,,,,,,,,,,,,
5639a8adbe9cac000daaa30f,SCN,2024-06-11_12h24.34.753,LearnStrategy,2023.2.3,Win32,60.24096386,3,1,3,0.419444444,-0.416666667,1,0,0,1.7827,Andesite_09,1,09,1,7,1.783,-0.356481481,-0.263888889,1,0,0,0.8447,Andesite_rect,1,0.845,1,2,0,2,0,1,,,,,,,,,,,,,
5639a8adbe9cac000daaa30f,SCN,2024-06-11_12h24.34.753,LearnStrategy,2023.2.3,Win32,60.24096386,3,1,4,-0.381481481,0.100925926,1,0,0,2.4159,Basalt_11,2,11,4,2,2.416,0.412037037,-0.383333333,1,0,0,1.1461,Pumice_rect,8,1.146,0,3,0,3,0,1,,,,,,,,,,,,,
5639a8adbe9cac000daaa30f,SCN,2024-06-11_12h24.34.753,LearnStrategy,2023.2.3,Win32,60.24096386,3,1,5,-0.060185185,0.260185185,1,0,0,1.816,Gabbro_08,4,08,5,4,1.816,-0.374074074,-0.250925926,1,0,0,0.9615,Andesite_rect,1,0.961,0,4,0,4,0,1,,,,,,,,,,,,,
5639a8adbe9cac000daaa30f,SCN,2024-06-11_12h24.34.753,LearnStrategy,2023.2.3,Win32,60.24096386,3,1,6,0.397222222,-0.116666667,1,0,0,1.5997,Gabbro_01,4,01,3,7,1.6,0.37962963,-0.250925926,1,0,0,1.2617,Gabbro_rect,4,1.262,1,5,0,5,0,1,,,,,,,,,,,,,
5639a8adbe9cac000daaa30f,SCN,2024-06-11_12h24.34.753,LearnStrategy,2023.2.3,Win32,60.24096386,3,1,7,0.541666667,0.385185185,1,0,0,1.2326,Diorite_15,3,15,6,8,1.233,-0.325925926,-0.257407407,1,0,0,0.9781,Andesite_rect,1,0.978,0,6,0,6,0,1,,,,,,,,,,,,,
5639a8adbe9cac000daaa30f,SCN,2024-06-11_12h24.34.753,LearnStrategy,2023.2.3,Win32,60.24096386,3,1,8,-0.368518519,-0.090740741,1,0,0,2.349,Obsidian_14,5,14,3,2,2.349,-0.388888889,-0.42037037,1,0,0,1.1077,Obsidian_rect,5,1.108,1,7,0,7,0,1,,,,,,,,,,,,,
5639a8adbe9cac000daaa30f,SCN,2024-06-11_12h24.34.753,LearnStrategy,2023.2.3,Win32,60.24096386,3,1,9,-0.080555556,-0.250925926,1,0,0,4.0994,Peridotite_08,7,08,2,4,4.099,0.180555556,-0.401851852,1,0,0,1.0577,Peridotite_rect,7,1.058,1,8,0,8,0,1,,,,,,,,,,,,,
5639a8adbe9cac000daaa30f,SCN,2024-06-11_12h24.34.753,LearnStrategy,2023.2.3,Win32,60.24096386,3,1,10,0.22962963,-0.280555556,1,0,0,0.9653,Pegmatite_03,6,03,2,6,0.965,-0.068518519,-0.383333333,1,0,0,1.329,Pegmatite_rect,6,1.329,1,9,0,9,0,1,,,,,,,,,,,,,
5639a8adbe9cac000daaa30f,SCN,2024-06-11_12h24.34.753,LearnStrategy,2023.2.3,Win32,60.24096386,3,1,11,0.4,-0.280555556,1,0,0,0.8156,Peridotite_04,7,04,2,7,0.816,0.182407407,-0.389814815,1,0,0,2.4457,Peridotite_rect,7,2.446,1,10,0,10,0,1,,,,,,,,,,,,,
5639a8adbe9cac000daaa30f,SCN,2024-06-11_12h24.34.753,LearnStrategy,2023.2.3,Win32,60.24096386,3,1,12,0.566666667,-0.274074074,1,0,0,0.6821,Basalt_05,2,05,2,8,0.682,-0.093518519,-0.244444444,1,0,0,0.9288,Basalt_rect,2,0.929,1,11,0,11,0,1,,,,,,,,,,,,,
5639a8adbe9cac000daaa30f,SCN,2024-06-11_12h24.34.753,LearnStrategy,2023.2.3,Win32,60.24096386,3,1,13,-0.408333333,-0.415740741,1,0,0,1.4489,Andesite_02,1,02,1,2,1.449,-0.375925926,-0.253703704,1,0,0,3.0288,Andesite_rect,1,3.029,1,12,0,12,0,1,,,,,,,,,,,,,
5639a8adbe9cac000daaa30f,SCN,2024-06-11_12h24.34.753,LearnStrategy,2023.2.3,Win32,60.24096386,3,1,14,0.091666667,-0.435185185,1,0,0,1.6489,Pegmatite_11,6,11,1,5,1.649,-0.125925926,-0.412037037,1,0,0,0.8459,Pegmatite_rect,6,0.846,1,13,0,13,0,1,,,,,,,,,,,,,
5639a8adbe9cac000daaa30f,SCN,2024-06-11_12h24.34.753,LearnStrategy,2023.2.3,Win32,60.24096386,3,1,15,0.408333333,-0.413888889,1,0,0,1.1162,Andesite_09,1,09,1,7,1.116,-0.102777778,-0.262037037,1,0,0,1.2115,Basalt_rect,2,1.211,0,14,0,14,0,1,,,,,,,,,,,,,
5639a8adbe9cac000daaa30f,SCN,2024-06-11_12h24.34.753,LearnStrategy,2023.2.3,Win32,60.24096386,3,1,16,0.533333333,-0.40462963,1,0,0,2.066,Pegmatite_16,6,16,1,8,2.066,-0.155555556,-0.402777778,1,0,0,2.0455,Pegmatite_rect,6,2.046,1,15,0,15,0,1,,,,,,,,,,,,,
5639a8adbe9cac000daaa30f,SCN,2024-06-11_12h24.34.753,LearnStrategy,2023.2.3,Win32,60.24096386,3,2,1,,,,,,,,6,07,,,,,,,,,,,6,5.795,1,,,,,,-0.139814815,-0.392592593,1,0,0,5.795,Pegmatite_rect,0,0,0,0,1,
5639a8adbe9cac000daaa30f,SCN,2024-06-11_12h24.34.753,LearnStrategy,2023.2.3,Win32,60.24096386,3,2,2,,,,,,,,8,09,,,,,,,,,,,8,1.761,1,,,,,,0.366666667,-0.386111111,1,0,0,1.7612,Pumice_rect,1,0,1,0,1,
5639a8adbe9cac000daaa30f,SCN,2024-06-11_12h24.34.753,LearnStrategy,2023.2.3,Win32,60.24096386,3,2,3,,,,,,,,2,02,,,,,,,,,,,2,4.177,1,,,,,,-0.083333333,-0.242592593,1,0,0,4.1767,Basalt_rect,2,0,2,0,1,
5639a8adbe9cac000daaa30f,SCN,2024-06-11_12h24.34.753,LearnStrategy,2023.2.3,Win32,60.24096386,3,2,4,,,,,,,,1,06,,,,,,,,,,,4,2.707,0,,,,,,0.37962963,-0.25462963,1,0,0,2.7072,Gabbro_rect,3,0,3,0,1,
5639a8adbe9cac000daaa30f,SCN,2024-06-11_12h24.34.753,LearnStrategy,2023.2.3,Win32,60.24096386,3,2,5,,,,,,,,7,16,,,,,,,,,,,7,5.357,1,,,,,,0.152777778,-0.387962963,1,0,0,5.357,Peridotite_rect,4,0,4,0,1,
5639a8adbe9cac000daaa30f,SCN,2024-06-11_12h24.34.753,LearnStrategy,2023.2.3,Win32,60.24096386,3,2,6,,,,,,,,3,16,,,,,,,,,,,3,4.145,1,,,,,,0.137037037,-0.251851852,1,0,0,4.145,Diorite_rect,5,0,5,0,1,
5639a8adbe9cac000daaa30f,SCN,2024-06-11_12h24.34.753,LearnStrategy,2023.2.3,Win32,60.24096386,3,2,7,,,,,,,,4,11,,,,,,,,,,,4,1.978,1,,,,,,0.397222222,-0.246296296,1,0,0,1.9781,Gabbro_rect,6,0,6,0,1,
5639a8adbe9cac000daaa30f,SCN,2024-06-11_12h24.34.753,LearnStrategy,2023.2.3,Win32,60.24096386,3,2,8,,,,,,,,7,15,,,,,,,,,,,7,1.078,1,,,,,,0.180555556,-0.403703704,1,0,0,1.0784,Peridotite_rect,7,0,7,0,1,
5639a8adbe9cac000daaa30f,SCN,2024-06-11_12h24.34.753,LearnStrategy,2023.2.3,Win32,60.24096386,3,2,9,,,,,,,,5,05,,,,,,,,,,,5,2.295,1,,,,,,-0.382407407,-0.4,1,0,0,2.2954,Obsidian_rect,8,0,8,0,1,
5639a8adbe9cac000daaa30f,SCN,2024-06-11_12h24.34.753,LearnStrategy,2023.2.3,Win32,60.24096386,3,2,10,,,,,,,,8,02,,,,,,,,,,,8,1.178,1,,,,,,0.419444444,-0.396296296,1,0,0,1.1781,Pumice_rect,9,0,9,0,1,
5639a8adbe9cac000daaa30f,SCN,2024-06-11_12h24.34.753,LearnStrategy,2023.2.3,Win32,60.24096386,3,2,11,,,,,,,,4,14,,,,,,,,,,,4,1.563,1,,,,,,0.418518519,-0.259259259,1,0,0,1.5625,Gabbro_rect,10,0,10,0,1,
5639a8adbe9cac000daaa30f,SCN,2024-06-11_12h24.34.753,LearnStrategy,2023.2.3,Win32,60.24096386,3,2,12,,,,,,,,3,14,,,,,,,,,,,3,4.895,1,,,,,,0.124074074,-0.246296296,1,0,0,4.8953,Diorite_rect,11,0,11,0,1,
5639a8adbe9cac000daaa30f,SCN,2024-06-11_12h24.34.753,LearnStrategy,2023.2.3,Win32,60.24096386,3,2,13,,,,,,,,2,06,,,,,,,,,,,2,3.462,1,,,,,,-0.089814815,-0.250925926,1,0,0,3.4619,Basalt_rect,12,0,12,0,1,
5639a8adbe9cac000daaa30f,SCN,2024-06-11_12h24.34.753,LearnStrategy,2023.2.3,Win32,60.24096386,3,2,14,,,,,,,,1,11,,,,,,,,,,,1,2.458,1,,,,,,-0.39537037,-0.257407407,1,0,0,2.4577,Andesite_rect,13,0,13,0,1,
5639a8adbe9cac000daaa30f,SCN,2024-06-11_12h24.34.753,LearnStrategy,2023.2.3,Win32,60.24096386,3,2,15,,,,,,,,6,13,,,,,,,,,,,6,2.111,1,,,,,,-0.186111111,-0.411111111,1,0,0,2.1115,Pegmatite_rect,14,0,14,0,1,
5639a8adbe9cac000daaa30f,SCN,2024-06-11_12h24.34.753,LearnStrategy,2023.2.3,Win32,60.24096386,3,2,16,,,,,,,,5,08,,,,,,,,,,,5,1.623,1,,,,,,-0.392592593,-0.389814815,1,0,0,1.6233,Obsidian_rect,15,0,15,0,1,
5639a8adbe9cac000daaa30f,SCN,2024-06-11_12h24.34.753,LearnStrategy,2023.2.3,Win32,60.24096386,4,1,1,-0.560185185,0.413888889,1,0,0,1.5503,Diorite_13,3,13,6,1,1.55,0.128703704,-0.399074074,1,0,0,7.6472,Peridotite_rect,7,7.647,0,0,0,0,0,1,,,,,,,,,,,,,
5639a8adbe9cac000daaa30f,SCN,2024-06-11_12h24.34.753,LearnStrategy,2023.2.3,Win32,60.24096386,4,1,2,-0.405555556,0.439814815,1,0,0,0.9336,Peridotite_02,7,02,6,2,0.934,0.136111111,-0.390740741,1,0,0,3.2642,Peridotite_rect,7,3.264,1,1,0,1,0,1,,,,,,,,,,,,,
5639a8adbe9cac000daaa30f,SCN,2024-06-11_12h24.34.753,LearnStrategy,2023.2.3,Win32,60.24096386,4,1,3,-0.215740741,0.432407407,1,0,0,0.917,Pumice_16,8,16,6,3,0.917,0.408333333,-0.387962963,1,0,0,1.2477,Pumice_rect,8,1.248,1,2,0,2,0,1,,,,,,,,,,,,,
5639a8adbe9cac000daaa30f,SCN,2024-06-11_12h24.34.753,LearnStrategy,2023.2.3,Win32,60.24096386,4,1,4,-0.051851852,0.418518519,1,0,0,0.9004,Pegmatite_10,6,10,6,4,0.9,-0.1,-0.384259259,1,0,0,4.5303,Pegmatite_rect,6,4.53,1,3,0,3,0,1,,,,,,,,,,,,,
5639a8adbe9cac000daaa30f,SCN,2024-06-11_12h24.34.753,LearnStrategy,2023.2.3,Win32,60.24096386,4,1,5,0.097222222,0.402777778,1,0,0,1.0006,Andesite_10,1,10,6,5,1.001,-0.477777778,-0.271296296,1,0,0,4.6288,Andesite_rect,1,4.629,1,4,0,4,0,1,,,,,,,,,,,,,
5639a8adbe9cac000daaa30f,SCN,2024-06-11_12h24.34.753,LearnStrategy,2023.2.3,Win32,60.24096386,4,1,6,0.225,0.367592593,1,0,0,4.7286,Diorite_10,3,10,6,6,4.729,0.126851852,-0.249074074,1,0,0,2.9583,Diorite_rect,3,2.958,1,5,0,5,0,1,,,,,,,,,,,,,
5639a8adbe9cac000daaa30f,SCN,2024-06-11_12h24.34.753,LearnStrategy,2023.2.3,Win32,60.24096386,4,1,7,0.427777778,0.407407407,1,0,0,1.1341,Obsidian_12,5,12,6,7,1.134,-0.359259259,-0.387037037,1,0,0,0.9962,Obsidian_rect,5,0.996,1,6,0,6,0,1,,,,,,,,,,,,,
5639a8adbe9cac000daaa30f,SCN,2024-06-11_12h24.34.753,LearnStrategy,2023.2.3,Win32,60.24096386,4,1,8,0.549074074,0.416666667,1,0,0,0.9172,Diorite_15,3,15,6,8,0.917,0.165740741,-0.25,1,0,0,9.2969,Diorite_rect,3,9.297,1,7,0,7,0,1,,,,,,,,,,,,,
5639a8adbe9cac000daaa30f,SCN,2024-06-11_12h24.34.753,LearnStrategy,2023.2.3,Win32,60.24096386,4,1,9,-0.542592593,0.236111111,1,0,0,1.517,Peridotite_05,7,05,5,1,1.517,0.188888889,-0.42037037,1,0,0,1.4811,Peridotite_rect,7,1.481,1,8,0,8,0,1,,,,,,,,,,,,,
5639a8adbe9cac000daaa30f,SCN,2024-06-11_12h24.34.753,LearnStrategy,2023.2.3,Win32,60.24096386,4,1,10,-0.365740741,0.239814815,1,0,0,1.1505,Andesite_05,1,05,5,2,1.15,0.397222222,-0.243518519,1,0,0,3.315,Gabbro_rect,4,3.315,0,9,0,9,0,1,,,,,,,,,,,,,
5639a8adbe9cac000daaa30f,SCN,2024-06-11_12h24.34.753,LearnStrategy,2023.2.3,Win32,60.24096386,4,1,11,-0.228703704,0.216666667,1,0,0,0.8606,Gabbro_12,4,12,5,3,0.861,0.389814815,-0.25,1,0,0,1.3967,Gabbro_rect,4,1.397,1,10,0,10,0,1,,,,,,,,,,,,,
5639a8adbe9cac000daaa30f,SCN,2024-06-11_12h24.34.753,LearnStrategy,2023.2.3,Win32,60.24096386,4,1,12,-0.113888889,0.242592593,1,0,0,3.479,Gabbro_08,4,08,5,4,3.479,0.17962963,-0.387962963,1,0,0,1.8304,Peridotite_rect,7,1.83,0,11,0,11,0,1,,,,,,,,,,,,,
5639a8adbe9cac000daaa30f,SCN,2024-06-11_12h24.34.753,LearnStrategy,2023.2.3,Win32,60.24096386,4,1,13,0.062037037,0.225,1,0,0,3.6282,Peridotite_06,7,06,5,5,3.628,0.135185185,-0.265740741,1,0,0,1.9254,Diorite_rect,3,1.925,0,12,0,12,0,1,,,,,,,,,,,,,
5639a8adbe9cac000daaa30f,SCN,2024-06-11_12h24.34.753,LearnStrategy,2023.2.3,Win32,60.24096386,4,1,14,0.232407407,0.260185185,1,0,0,1.2951,Gabbro_13,4,13,5,6,1.295,0.366666667,-0.234259259,1,0,0,0.7979,Gabbro_rect,4,0.798,1,13,0,13,0,1,,,,,,,,,,,,,
5639a8adbe9cac000daaa30f,SCN,2024-06-11_12h24.34.753,LearnStrategy,2023.2.3,Win32,60.24096386,4,1,15,0.425,0.22962963,1,0,0,1.3334,Diorite_08,3,08,5,7,1.333,0.112037037,-0.22962963,1,0,0,1.2128,Diorite_rect,3,1.213,1,14,0,14,0,1,,,,,,,,,,,,,
5639a8adbe9cac000daaa30f,SCN,2024-06-11_12h24.34.753,LearnStrategy,2023.2.3,Win32,60.24096386,4,1,16,0.572222222,0.225925926,1,0,0,0.8672,Basalt_01,2,01,5,8,0.867,-0.084259259,-0.248148148,1,0,0,1.1476,Basalt_rect,2,1.148,1,15,0,15,0,1,,,,,,,,,,,,,
5639a8adbe9cac000daaa30f,SCN,2024-06-11_12h24.34.753,LearnStrategy,2023.2.3,Win32,60.24096386,4,2,1,,,,,,,,5,08,,,,,,,,,,,5,2.047,1,,,,,,-0.322222222,-0.400925926,1,0,0,2.0467,Obsidian_rect,0,0,0,0,1,
5639a8adbe9cac000daaa30f,SCN,2024-06-11_12h24.34.753,LearnStrategy,2023.2.3,Win32,60.24096386,4,2,2,,,,,,,,7,07,,,,,,,,,,,7,4.23,1,,,,,,0.081481481,-0.410185185,1,0,0,4.2304,Peridotite_rect,1,0,1,0,1,
5639a8adbe9cac000daaa30f,SCN,2024-06-11_12h24.34.753,LearnStrategy,2023.2.3,Win32,60.24096386,4,2,3,,,,,,,,7,14,,,,,,,,,,,6,10.325,0,,,,,,-0.125,-0.409259259,1,0,0,10.3254,Pegmatite_rect,2,0,2,0,1,
5639a8adbe9cac000daaa30f,SCN,2024-06-11_12h24.34.753,LearnStrategy,2023.2.3,Win32,60.24096386,4,2,4,,,,,,,,2,16,,,,,,,,,,,4,2.563,0,,,,,,0.367592593,-0.268518519,1,0,0,2.5633,Gabbro_rect,3,0,3,0,1,
5639a8adbe9cac000daaa30f,SCN,2024-06-11_12h24.34.753,LearnStrategy,2023.2.3,Win32,60.24096386,4,2,5,,,,,,,,3,14,,,,,,,,,,,3,2.642,1,,,,,,0.150925926,-0.258333333,1,0,0,2.6416,Diorite_rect,4,0,4,0,1,
5639a8adbe9cac000daaa30f,SCN,2024-06-11_12h24.34.753,LearnStrategy,2023.2.3,Win32,60.24096386,4,2,6,,,,,,,,3,12,,,,,,,,,,,3,1.697,1,,,,,,0.150925926,-0.258333333,1,0,0,1.6969,Diorite_rect,5,0,5,0,1,
5639a8adbe9cac000daaa30f,SCN,2024-06-11_12h24.34.753,LearnStrategy,2023.2.3,Win32,60.24096386,4,2,7,,,,,,,,5,07,,,,,,,,,,,5,1.097,1,,,,,,-0.335185185,-0.390740741,1,0,0,1.0968,Obsidian_rect,6,0,6,0,1,
5639a8adbe9cac000daaa30f,SCN,2024-06-11_12h24.34.753,LearnStrategy,2023.2.3,Win32,60.24096386,4,2,8,,,,,,,,1,06,,,,,,,,,,,1,2.347,1,,,,,,-0.368518519,-0.244444444,1,0,0,2.3465,Andesite_rect,7,0,7,0,1,
5639a8adbe9cac000daaa30f,SCN,2024-06-11_12h24.34.753,LearnStrategy,2023.2.3,Win32,60.24096386,4,2,9,,,,,,,,1,16,,,,,,,,,,,1,5.242,1,,,,,,-0.375,-0.271296296,1,0,0,5.2423,Andesite_rect,8,0,8,0,1,
5639a8adbe9cac000daaa30f,SCN,2024-06-11_12h24.34.753,LearnStrategy,2023.2.3,Win32,60.24096386,4,2,10,,,,,,,,8,03,,,,,,,,,,,8,1.247,1,,,,,,0.399074074,-0.399074074,1,0,0,1.2469,Pumice_rect,9,0,9,0,1,
5639a8adbe9cac000daaa30f,SCN,2024-06-11_12h24.34.753,LearnStrategy,2023.2.3,Win32,60.24096386,4,2,11,,,,,,,,8,09,,,,,,,,,,,8,0.713,1,,,,,,0.399074074,-0.399074074,1,0,0,0.7128,Pumice_rect,10,0,10,0,1,
5639a8adbe9cac000daaa30f,SCN,2024-06-11_12h24.34.753,LearnStrategy,2023.2.3,Win32,60.24096386,4,2,12,,,,,,,,6,05,,,,,,,,,,,5,1.58,0,,,,,,-0.494444444,-0.383333333,1,0,0,1.5799,Obsidian_rect,11,0,11,0,1,
5639a8adbe9cac000daaa30f,SCN,2024-06-11_12h24.34.753,LearnStrategy,2023.2.3,Win32,60.24096386,4,2,13,,,,,,,,2,02,,,,,,,,,,,2,1.947,1,,,,,,-0.115740741,-0.24537037,1,0,0,1.947,Basalt_rect,12,0,12,0,1,
5639a8adbe9cac000daaa30f,SCN,2024-06-11_12h24.34.753,LearnStrategy,2023.2.3,Win32,60.24096386,4,2,14,,,,,,,,4,09,,,,,,,,,,,6,10.18,0,,,,,,-0.156481481,-0.394444444,1,0,0,10.18,Pegmatite_rect,13,0,13,0,1,
5639a8adbe9cac000daaa30f,SCN,2024-06-11_12h24.34.753,LearnStrategy,2023.2.3,Win32,60.24096386,4,2,15,,,,,,,,6,07,,,,,,,,,,,6,0.828,1,,,,,,-0.156481481,-0.394444444,1,0,0,0.8278,Pegmatite_rect,14,0,14,0,1,
5639a8adbe9cac000daaa30f,SCN,2024-06-11_12h24.34.753,LearnStrategy,2023.2.3,Win32,60.24096386,4,2,16,,,,,,,,4,14,,,,,,,,,,,4,1.08,1,,,,,,0.388888889,-0.230555556,1,0,0,1.0804,Gabbro_rect,15,0,15,0,1,
5639a8adbe9cac000daaa30f,SCN,2024-06-11_12h24.34.753,LearnStrategy,2023.2.3,Win32,60.24096386,5,1,1,-0.526851852,0.066666667,1,0,0,5.7661,Pumice_06,8,06,4,1,5.766,0.333333333,-0.383333333,1,0,0,1.1759,Pumice_rect,8,1.176,1,0,0,0,0,1,,,,,,,,,,,,,
5639a8adbe9cac000daaa30f,SCN,2024-06-11_12h24.34.753,LearnStrategy,2023.2.3,Win32,60.24096386,5,1,2,-0.411111111,0.116666667,1,0,0,0.7332,Basalt_11,2,11,4,2,0.733,-0.130555556,-0.243518519,1,0,0,1.9965,Basalt_rect,2,1.996,1,1,0,1,0,1,,,,,,,,,,,,,
5639a8adbe9cac000daaa30f,SCN,2024-06-11_12h24.34.753,LearnStrategy,2023.2.3,Win32,60.24096386,5,1,3,-0.222222222,0.080555556,1,0,0,0.7328,Pegmatite_12,6,12,4,3,0.733,0.148148148,-0.262037037,1,0,0,7.5804,Diorite_rect,3,7.58,0,2,0,2,0,1,,,,,,,,,,,,,
5639a8adbe9cac000daaa30f,SCN,2024-06-11_12h24.34.753,LearnStrategy,2023.2.3,Win32,60.24096386,5,1,4,-0.056481481,0.099074074,1,0,0,1.1442,Obsidian_16,5,16,4,4,1.144,-0.42037037,-0.416666667,1,0,0,1.0457,Obsidian_rect,5,1.046,1,3,0,3,0,1,,,,,,,,,,,,,
5639a8adbe9cac000daaa30f,SCN,2024-06-11_12h24.34.753,LearnStrategy,2023.2.3,Win32,60.24096386,5,1,5,0.060185185,0.080555556,1,0,0,0.6824,Pumice_05,8,05,4,5,0.682,0.409259259,-0.415740741,1,0,0,0.7138,Pumice_rect,8,0.714,1,4,0,4,0,1,,,,,,,,,,,,,
5639a8adbe9cac000daaa30f,SCN,2024-06-11_12h24.34.753,LearnStrategy,2023.2.3,Win32,60.24096386,5,1,6,0.266666667,0.069444444,1,0,0,0.8661,Peridotite_12,7,12,4,6,0.866,0.109259259,-0.390740741,1,0,0,1.3475,Peridotite_rect,7,1.348,1,5,0,5,0,1,,,,,,,,,,,,,
5639a8adbe9cac000daaa30f,SCN,2024-06-11_12h24.34.753,LearnStrategy,2023.2.3,Win32,60.24096386,5,1,7,0.515740741,0.077777778,1,0,0,13.9163,Obsidian_10,5,10,4,8,13.916,-0.37962963,-0.393518519,1,0,0,1.4414,Obsidian_rect,5,1.441,1,6,0,6,0,1,,,,,,,,,,,,,
5639a8adbe9cac000daaa30f,SCN,2024-06-11_12h24.34.753,LearnStrategy,2023.2.3,Win32,60.24096386,5,1,8,0.359259259,0.084259259,1,0,0,0.7498,Obsidian_06,5,06,4,7,0.75,-0.439814815,-0.40462963,1,0,0,0.7134,Obsidian_rect,5,0.713,1,7,0,7,0,1,,,,,,,,,,,,,
5639a8adbe9cac000daaa30f,SCN,2024-06-11_12h24.34.753,LearnStrategy,2023.2.3,Win32,60.24096386,5,1,9,0.265740741,0.082407407,1,0,0,3.1331,Peridotite_12,7,12,4,6,3.133,0.093518519,-0.412037037,1,0,0,0.8457,Peridotite_rect,7,0.846,1,8,0,8,0,1,,,,,,,,,,,,,
5639a8adbe9cac000daaa30f,SCN,2024-06-11_12h24.34.753,LearnStrategy,2023.2.3,Win32,60.24096386,5,1,10,-0.525,-0.10462963,1,0,0,0.8664,Andesite_01,1,01,3,1,0.866,0.121296296,-0.247222222,1,0,0,1.4798,Diorite_rect,3,1.48,0,9,0,9,0,1,,,,,,,,,,,,,
5639a8adbe9cac000daaa30f,SCN,2024-06-11_12h24.34.753,LearnStrategy,2023.2.3,Win32,60.24096386,5,1,11,-0.385185185,-0.098148148,1,0,0,1.311,Obsidian_14,5,14,3,2,1.311,-0.384259259,-0.387962963,1,0,0,0.9958,Obsidian_rect,5,0.996,1,10,0,10,0,1,,,,,,,,,,,,,
5639a8adbe9cac000daaa30f,SCN,2024-06-11_12h24.34.753,LearnStrategy,2023.2.3,Win32,60.24096386,5,1,12,-0.239814815,-0.102777778,1,0,0,0.6164,Diorite_02,3,02,3,3,0.616,0.09537037,-0.242592593,1,0,0,1.0137,Diorite_rect,3,1.014,1,11,0,11,0,1,,,,,,,,,,,,,
5639a8adbe9cac000daaa30f,SCN,2024-06-11_12h24.34.753,LearnStrategy,2023.2.3,Win32,60.24096386,5,1,13,-0.072222222,-0.112962963,1,0,0,0.8441,Basalt_08,2,08,3,4,0.844,-0.117592593,-0.236111111,1,0,0,0.8803,Basalt_rect,2,0.88,1,12,0,12,0,1,,,,,,,,,,,,,
5639a8adbe9cac000daaa30f,SCN,2024-06-11_12h24.34.753,LearnStrategy,2023.2.3,Win32,60.24096386,5,1,14,0.046296296,-0.091666667,1,0,0,0.5995,Gabbro_10,4,10,3,5,0.6,0.392592593,-0.240740741,1,0,0,1.164,Gabbro_rect,4,1.164,1,13,0,13,0,1,,,,,,,,,,,,,
5639a8adbe9cac000daaa30f,SCN,2024-06-11_12h24.34.753,LearnStrategy,2023.2.3,Win32,60.24096386,5,1,15,0.237037037,-0.136111111,1,0,0,0.7821,Gabbro_15,4,15,3,6,0.782,0.467592593,-0.240740741,1,0,0,1.7647,Gabbro_rect,4,1.765,1,14,0,14,0,1,,,,,,,,,,,,,
5639a8adbe9cac000daaa30f,SCN,2024-06-11_12h24.34.753,LearnStrategy,2023.2.3,Win32,60.24096386,5,1,16,0.422222222,-0.093518519,1,0,0,0.9663,Gabbro_01,4,01,3,7,0.966,0.172222222,-0.40462963,1,0,0,1.3301,Peridotite_rect,7,1.33,0,15,0,15,0,1,,,,,,,,,,,,,
5639a8adbe9cac000daaa30f,SCN,2024-06-11_12h24.34.753,LearnStrategy,2023.2.3,Win32,60.24096386,5,2,1,,,,,,,,2,12,,,,,,,,,,,8,6.18,0,,,,,,0.402777778,-0.37962963,1,0,0,6.1796,Pumice_rect,0,0,0,0,1,
5639a8adbe9cac000daaa30f,SCN,2024-06-11_12h24.34.753,LearnStrategy,2023.2.3,Win32,60.24096386,5,2,2,,,,,,,,4,16,,,,,,,,,,,4,1.095,1,,,,,,0.398148148,-0.25462963,1,0,0,1.0952,Gabbro_rect,1,0,1,0,1,
5639a8adbe9cac000daaa30f,SCN,2024-06-11_12h24.34.753,LearnStrategy,2023.2.3,Win32,60.24096386,5,2,3,,,,,,,,2,10,,,,,,,,,,,4,2.029,0,,,,,,0.398148148,-0.25462963,1,0,0,2.0291,Gabbro_rect,2,0,2,0,1,
5639a8adbe9cac000daaa30f,SCN,2024-06-11_12h24.34.753,LearnStrategy,2023.2.3,Win32,60.24096386,5,2,4,,,,,,,,3,07,,,,,,,,,,,3,2.842,1,,,,,,0.14537037,-0.250925926,1,0,0,2.8417,Diorite_rect,3,0,3,0,1,
5639a8adbe9cac000daaa30f,SCN,2024-06-11_12h24.34.753,LearnStrategy,2023.2.3,Win32,60.24096386,5,2,5,,,,,,,,7,13,,,,,,,,,,,7,0.996,1,,,,,,0.125925926,-0.390740741,1,0,0,0.9959,Peridotite_rect,4,0,4,0,1,
5639a8adbe9cac000daaa30f,SCN,2024-06-11_12h24.34.753,LearnStrategy,2023.2.3,Win32,60.24096386,5,2,6,,,,,,,,5,04,,,,,,,,,,,5,1.33,1,,,,,,-0.475925926,-0.406481481,1,0,0,1.3295,Obsidian_rect,5,0,5,0,1,
5639a8adbe9cac000daaa30f,SCN,2024-06-11_12h24.34.753,LearnStrategy,2023.2.3,Win32,60.24096386,5,2,7,,,,,,,,3,16,,,,,,,,,,,3,1.513,1,,,,,,0.031481481,-0.267592593,1,0,0,1.5132,Diorite_rect,6,0,6,0,1,
5639a8adbe9cac000daaa30f,SCN,2024-06-11_12h24.34.753,LearnStrategy,2023.2.3,Win32,60.24096386,5,2,8,,,,,,,,6,15,,,,,,,,,,,6,0.896,1,,,,,,-0.147222222,-0.403703704,1,0,0,0.8957,Pegmatite_rect,7,0,7,0,1,
5639a8adbe9cac000daaa30f,SCN,2024-06-11_12h24.34.753,LearnStrategy,2023.2.3,Win32,60.24096386,5,2,9,,,,,,,,8,08,,,,,,,,,,,8,1.148,1,,,,,,0.382407407,-0.405555556,1,0,0,1.1476,Pumice_rect,8,0,8,0,1,
5639a8adbe9cac000daaa30f,SCN,2024-06-11_12h24.34.753,LearnStrategy,2023.2.3,Win32,60.24096386,5,2,10,,,,,,,,5,09,,,,,,,,,,,5,1.113,1,,,,,,-0.349074074,-0.396296296,1,0,0,1.1129,Obsidian_rect,9,0,9,0,1,
5639a8adbe9cac000daaa30f,SCN,2024-06-11_12h24.34.753,LearnStrategy,2023.2.3,Win32,60.24096386,5,2,11,,,,,,,,6,09,,,,,,,,,,,6,1.23,1,,,,,,-0.161111111,-0.405555556,1,0,0,1.2303,Pegmatite_rect,10,0,10,0,1,
5639a8adbe9cac000daaa30f,SCN,2024-06-11_12h24.34.753,LearnStrategy,2023.2.3,Win32,60.24096386,5,2,12,,,,,,,,8,02,,,,,,,,,,,8,1,1,,,,,,0.368518519,-0.411111111,1,0,0,0.9999,Pumice_rect,11,0,11,0,1,
5639a8adbe9cac000daaa30f,SCN,2024-06-11_12h24.34.753,LearnStrategy,2023.2.3,Win32,60.24096386,5,2,13,,,,,,,,1,07,,,,,,,,,,,1,2.996,1,,,,,,-0.338888889,-0.244444444,1,0,0,2.9958,Andesite_rect,12,0,12,0,1,
5639a8adbe9cac000daaa30f,SCN,2024-06-11_12h24.34.753,LearnStrategy,2023.2.3,Win32,60.24096386,5,2,14,,,,,,,,7,16,,,,,,,,,,,7,1.724,1,,,,,,0.142592593,-0.412962963,1,0,0,1.7236,Peridotite_rect,13,0,13,0,1,
5639a8adbe9cac000daaa30f,SCN,2024-06-11_12h24.34.753,LearnStrategy,2023.2.3,Win32,60.24096386,5,2,15,,,,,,,,1,04,,,,,,,,,,,1,2.147,1,,,,,,-0.375,-0.25462963,1,0,0,2.1467,Andesite_rect,14,0,14,0,1,
5639a8adbe9cac000daaa30f,SCN,2024-06-11_12h24.34.753,LearnStrategy,2023.2.3,Win32,60.24096386,5,2,16,,,,,,,,4,11,,,,,,,,,,,2,2.398,0,,,,,,-0.175925926,-0.271296296,1,0,0,2.3982,Basalt_rect,15,0,15,0,1,
5639a8adbe9cac000daaa30f,SCN,2024-06-11_12h24.34.753,LearnStrategy,2023.2.3,Win32,60.24096386,6,1,1,0.526851852,-0.112962963,1,0,0,3.1993,Pumice_13,8,13,3,8,3.199,0.142592593,-0.399074074,1,0,0,1.0289,Peridotite_rect,7,1.029,0,0,0,0,0,1,,,,,,,,,,,,,
5639a8adbe9cac000daaa30f,SCN,2024-06-11_12h24.34.753,LearnStrategy,2023.2.3,Win32,60.24096386,6,1,2,-0.521296296,-0.275,1,0,0,5.6331,Diorite_11,3,11,2,1,5.633,-0.442592593,-0.265740741,1,0,0,1.0082,Andesite_rect,1,1.008,0,1,0,1,0,1,,,,,,,,,,,,,
5639a8adbe9cac000daaa30f,SCN,2024-06-11_12h24.34.753,LearnStrategy,2023.2.3,Win32,60.24096386,6,1,3,-0.537037037,-0.118518519,1,0,0,1.0267,Andesite_01,1,01,3,1,1.027,-0.337962963,-0.251851852,1,0,0,0.8308,Andesite_rect,1,0.831,1,2,0,2,0,1,,,,,,,,,,,,,
5639a8adbe9cac000daaa30f,SCN,2024-06-11_12h24.34.753,LearnStrategy,2023.2.3,Win32,60.24096386,6,1,4,-0.549074074,-0.27037037,1,0,0,1.1164,Diorite_11,3,11,2,1,1.116,-0.337037037,-0.264814815,1,0,0,0.8958,Andesite_rect,1,0.896,0,3,0,3,0,1,,,,,,,,,,,,,
5639a8adbe9cac000daaa30f,SCN,2024-06-11_12h24.34.753,LearnStrategy,2023.2.3,Win32,60.24096386,6,1,5,-0.414814815,-0.266666667,1,0,0,0.7444,Pumice_15,8,15,2,2,0.744,-0.162037037,-0.252777778,1,0,0,0.7799,Basalt_rect,2,0.78,0,4,0,4,0,1,,,,,,,,,,,,,
5639a8adbe9cac000daaa30f,SCN,2024-06-11_12h24.34.753,LearnStrategy,2023.2.3,Win32,60.24096386,6,1,6,-0.235185185,-0.255555556,1,0,0,0.6662,Pegmatite_06,6,06,2,3,0.666,-0.123148148,-0.396296296,1,0,0,0.9293,Pegmatite_rect,6,0.929,1,5,0,5,0,1,,,,,,,,,,,,,
5639a8adbe9cac000daaa30f,SCN,2024-06-11_12h24.34.753,LearnStrategy,2023.2.3,Win32,60.24096386,6,1,7,-0.188888889,-0.281481481,1,0,0,14.0162,Pegmatite_06,6,06,2,3,14.016,-0.134259259,-0.387037037,1,0,0,1.1248,Pegmatite_rect,6,1.125,1,6,0,6,0,1,,,,,,,,,,,,,
5639a8adbe9cac000daaa30f,SCN,2024-06-11_12h24.34.753,LearnStrategy,2023.2.3,Win32,60.24096386,6,1,8,-0.086111111,-0.257407407,1,0,0,0.7491,Peridotite_08,7,08,2,4,0.749,0.114814815,-0.391666667,1,0,0,1.1141,Peridotite_rect,7,1.114,1,7,0,7,0,1,,,,,,,,,,,,,
5639a8adbe9cac000daaa30f,SCN,2024-06-11_12h24.34.753,LearnStrategy,2023.2.3,Win32,60.24096386,6,1,9,0.053703704,-0.25462963,1,0,0,0.8824,Basalt_04,2,04,2,5,0.882,-0.098148148,-0.230555556,1,0,0,0.6457,Basalt_rect,2,0.646,1,8,0,8,0,1,,,,,,,,,,,,,
5639a8adbe9cac000daaa30f,SCN,2024-06-11_12h24.34.753,LearnStrategy,2023.2.3,Win32,60.24096386,6,1,10,0.267592593,-0.284259259,1,0,0,1.0492,Pegmatite_03,6,03,2,6,1.049,-0.093518519,-0.4,1,0,0,0.8299,Pegmatite_rect,6,0.83,1,9,0,9,0,1,,,,,,,,,,,,,
5639a8adbe9cac000daaa30f,SCN,2024-06-11_12h24.34.753,LearnStrategy,2023.2.3,Win32,60.24096386,6,1,11,0.402777778,-0.265740741,1,0,0,2.0828,Peridotite_04,7,04,2,7,2.083,0.139814815,-0.394444444,1,0,0,5.5628,Peridotite_rect,7,5.563,1,10,0,10,0,1,,,,,,,,,,,,,
5639a8adbe9cac000daaa30f,SCN,2024-06-11_12h24.34.753,LearnStrategy,2023.2.3,Win32,60.24096386,6,1,12,0.507407407,-0.291666667,1,0,0,13.9823,Basalt_05,2,05,2,8,13.982,0.42962963,-0.240740741,1,0,0,0.6244,Gabbro_rect,4,0.624,0,11,0,11,0,1,,,,,,,,,,,,,
5639a8adbe9cac000daaa30f,SCN,2024-06-11_12h24.34.753,LearnStrategy,2023.2.3,Win32,60.24096386,6,1,13,-0.578703704,-0.411111111,1,0,0,2.4103,Obsidian_02,5,02,1,1,2.41,-0.436111111,-0.391666667,1,0,0,0.9796,Obsidian_rect,5,0.98,1,12,0,12,0,1,,,,,,,,,,,,,
5639a8adbe9cac000daaa30f,SCN,2024-06-11_12h24.34.753,LearnStrategy,2023.2.3,Win32,60.24096386,6,1,14,-0.359259259,-0.407407407,1,0,0,2.049,Andesite_02,1,02,1,2,2.049,-0.351851852,-0.240740741,1,0,0,1.3288,Andesite_rect,1,1.329,1,13,0,13,0,1,,,,,,,,,,,,,
5639a8adbe9cac000daaa30f,SCN,2024-06-11_12h24.34.753,LearnStrategy,2023.2.3,Win32,60.24096386,6,1,15,-0.219444444,-0.42037037,1,0,0,1.1934,Pumice_10,8,10,1,3,1.193,0.402777778,-0.412962963,1,0,0,0.9635,Pumice_rect,8,0.964,1,14,0,14,0,1,,,,,,,,,,,,,
5639a8adbe9cac000daaa30f,SCN,2024-06-11_12h24.34.753,LearnStrategy,2023.2.3,Win32,60.24096386,6,1,16,-0.057407407,-0.396296296,1,0,0,0.749,Andesite_14,1,14,1,4,0.749,-0.344444444,-0.239814815,1,0,0,3.9133,Andesite_rect,1,3.913,1,15,0,15,0,1,,,,,,,,,,,,,
5639a8adbe9cac000daaa30f,SCN,2024-06-11_12h24.34.753,LearnStrategy,2023.2.3,Win32,60.24096386,6,2,1,,,,,,,,4,03,,,,,,,,,,,3,8.313,0,,,,,,0.20462963,-0.252777778,1,0,0,8.3126,Diorite_rect,0,0,0,0,1,
5639a8adbe9cac000daaa30f,SCN,2024-06-11_12h24.34.753,LearnStrategy,2023.2.3,Win32,60.24096386,6,2,2,,,,,,,,7,15,,,,,,,,,,,7,1.006,1,,,,,,0.171296296,-0.401851852,1,0,0,1.0065,Peridotite_rect,1,0,1,0,1,
5639a8adbe9cac000daaa30f,SCN,2024-06-11_12h24.34.753,LearnStrategy,2023.2.3,Win32,60.24096386,6,2,3,,,,,,,,5,05,,,,,,,,,,,5,1.112,1,,,,,,-0.414814815,-0.400925926,1,0,0,1.1119,Obsidian_rect,2,0,2,0,1,
5639a8adbe9cac000daaa30f,SCN,2024-06-11_12h24.34.753,LearnStrategy,2023.2.3,Win32,60.24096386,6,2,4,,,,,,,,6,13,,,,,,,,,,,6,5.951,1,,,,,,-0.190740741,-0.408333333,1,0,0,5.951,Pegmatite_rect,3,0,3,0,1,
5639a8adbe9cac000daaa30f,SCN,2024-06-11_12h24.34.753,LearnStrategy,2023.2.3,Win32,60.24096386,6,2,5,,,,,,,,4,05,,,,,,,,,,,7,1.257,0,,,,,,0.065740741,-0.39537037,1,0,0,1.2573,Peridotite_rect,4,0,4,0,1,
5639a8adbe9cac000daaa30f,SCN,2024-06-11_12h24.34.753,LearnStrategy,2023.2.3,Win32,60.24096386,6,2,6,,,,,,,,8,14,,,,,,,,,,,8,0.879,1,,,,,,0.327777778,-0.385185185,1,0,0,0.8787,Pumice_rect,5,0,5,0,1,
5639a8adbe9cac000daaa30f,SCN,2024-06-11_12h24.34.753,LearnStrategy,2023.2.3,Win32,60.24096386,6,2,7,,,,,,,,7,10,,,,,,,,,,,7,1.179,1,,,,,,0.152777778,-0.399074074,1,0,0,1.1789,Peridotite_rect,6,0,6,0,1,
5639a8adbe9cac000daaa30f,SCN,2024-06-11_12h24.34.753,LearnStrategy,2023.2.3,Win32,60.24096386,6,2,8,,,,,,,,1,11,,,,,,,,,,,1,1.412,1,,,,,,-0.347222222,-0.257407407,1,0,0,1.4117,Andesite_rect,7,0,7,0,1,
5639a8adbe9cac000daaa30f,SCN,2024-06-11_12h24.34.753,LearnStrategy,2023.2.3,Win32,60.24096386,6,2,9,,,,,,,,3,06,,,,,,,,,,,3,1.063,1,,,,,,0.207407407,-0.25462963,1,0,0,1.0625,Diorite_rect,8,0,8,0,1,
5639a8adbe9cac000daaa30f,SCN,2024-06-11_12h24.34.753,LearnStrategy,2023.2.3,Win32,60.24096386,6,2,10,,,,,,,,6,08,,,,,,,,,,,6,0.996,1,,,,,,-0.117592593,-0.393518519,1,0,0,0.9955,Pegmatite_rect,9,0,9,0,1,
5639a8adbe9cac000daaa30f,SCN,2024-06-11_12h24.34.753,LearnStrategy,2023.2.3,Win32,60.24096386,6,2,11,,,,,,,,2,09,,,,,,,,,,,2,1.312,1,,,,,,-0.087037037,-0.237037037,1,0,0,1.3119,Basalt_rect,10,0,10,0,1,
5639a8adbe9cac000daaa30f,SCN,2024-06-11_12h24.34.753,LearnStrategy,2023.2.3,Win32,60.24096386,6,2,12,,,,,,,,3,09,,,,,,,,,,,3,1.029,1,,,,,,0.075,-0.237962963,1,0,0,1.0287,Diorite_rect,11,0,11,0,1,
5639a8adbe9cac000daaa30f,SCN,2024-06-11_12h24.34.753,LearnStrategy,2023.2.3,Win32,60.24096386,6,2,13,,,,,,,,5,11,,,,,,,,,,,5,1.362,1,,,,,,-0.391666667,-0.387037037,1,0,0,1.362,Obsidian_rect,12,0,12,0,1,
5639a8adbe9cac000daaa30f,SCN,2024-06-11_12h24.34.753,LearnStrategy,2023.2.3,Win32,60.24096386,6,2,14,,,,,,,,1,03,,,,,,,,,,,1,1.245,1,,,,,,-0.410185185,-0.240740741,1,0,0,1.2454,Andesite_rect,13,0,13,0,1,
5639a8adbe9cac000daaa30f,SCN,2024-06-11_12h24.34.753,LearnStrategy,2023.2.3,Win32,60.24096386,6,2,15,,,,,,,,2,06,,,,,,,,,,,4,1.512,0,,,,,,0.39537037,-0.262962963,1,0,0,1.5122,Gabbro_rect,14,0,14,0,1,
5639a8adbe9cac000daaa30f,SCN,2024-06-11_12h24.34.753,LearnStrategy,2023.2.3,Win32,60.24096386,6,2,16,,,,,,,,8,04,,,,,,,,,,,8,0.847,1,,,,,,0.357407407,-0.39537037,1,0,0,0.8469,Pumice_rect,15,0,15,0,1,
5639a8adbe9cac000daaa30f,SCN,2024-06-11_12h24.34.753,LearnStrategy,2023.2.3,Win32,60.24096386,7,1,1,0.586111111,-0.443518519,1,0,0,1.5987,Pegmatite_16,6,16,1,8,1.599,-0.086111111,-0.417592593,1,0,0,0.9132,Pegmatite_rect,6,0.913,1,0,0,0,0,1,,,,,,,,,,,,,
5639a8adbe9cac000daaa30f,SCN,2024-06-11_12h24.34.753,LearnStrategy,2023.2.3,Win32,60.24096386,7,1,2,0.417592593,-0.412037037,1,0,0,1.0823,Andesite_09,1,09,1,7,1.082,-0.35462963,-0.244444444,1,0,0,1.7132,Andesite_rect,1,1.713,1,1,0,1,0,1,,,,,,,,,,,,,
5639a8adbe9cac000daaa30f,SCN,2024-06-11_12h24.34.753,LearnStrategy,2023.2.3,Win32,60.24096386,7,1,3,0.247222222,-0.401851852,1,0,0,0.7824,Basalt_14,2,14,1,6,0.782,0.373148148,-0.238888889,1,0,0,5.2629,Gabbro_rect,4,5.263,0,2,0,2,0,1,,,,,,,,,,,,,
5639a8adbe9cac000daaa30f,SCN,2024-06-11_12h24.34.753,LearnStrategy,2023.2.3,Win32,60.24096386,7,1,4,0.068518519,-0.375,1,0,0,1.3991,Pegmatite_11,6,11,1,5,1.399,-0.094444444,-0.401851852,1,0,0,8.3466,Pegmatite_rect,6,8.347,1,3,0,3,0,1,,,,,,,,,,,,,
5639a8adbe9cac000daaa30f,SCN,2024-06-11_12h24.34.753,LearnStrategy,2023.2.3,Win32,60.24096386,7,1,5,0.569444444,0.262962963,1,0,0,9.0154,Basalt_01,2,01,5,8,9.015,-0.157407407,-0.239814815,1,0,0,0.7425,Basalt_rect,2,0.743,1,4,0,4,0,1,,,,,,,,,,,,,
5639a8adbe9cac000daaa30f,SCN,2024-06-11_12h24.34.753,LearnStrategy,2023.2.3,Win32,60.24096386,7,1,6,0.233333333,-0.375925926,1,0,0,0.7327,Basalt_14,2,14,1,6,0.733,-0.169444444,-0.261111111,1,0,0,0.7137,Basalt_rect,2,0.714,1,5,0,5,0,1,,,,,,,,,,,,,
5639a8adbe9cac000daaa30f,SCN,2024-06-11_12h24.34.753,LearnStrategy,2023.2.3,Win32,60.24096386,7,1,7,-0.375925926,0.097222222,1,0,0,0.682,Basalt_11,2,11,4,2,0.682,-0.397222222,-0.242592593,1,0,0,1.8466,Andesite_rect,1,1.847,0,6,0,6,0,1,,,,,,,,,,,,,
5639a8adbe9cac000daaa30f,SCN,2024-06-11_12h24.34.753,LearnStrategy,2023.2.3,Win32,60.24096386,7,1,8,-0.396296296,0.089814815,1,0,0,0.9824,Basalt_11,2,11,4,2,0.982,-0.150925926,-0.243518519,1,0,0,0.9636,Basalt_rect,2,0.964,1,7,0,7,0,1,,,,,,,,,,,,,
5639a8adbe9cac000daaa30f,SCN,2024-06-11_12h24.34.753,LearnStrategy,2023.2.3,Win32,60.24096386,7,1,9,-0.077777778,0.115740741,1,0,0,0.4991,Obsidian_16,5,16,4,4,0.499,-0.417592593,-0.380555556,1,0,0,0.88,Obsidian_rect,5,0.88,1,8,0,8,0,1,,,,,,,,,,,,,
5639a8adbe9cac000daaa30f,SCN,2024-06-11_12h24.34.753,LearnStrategy,2023.2.3,Win32,60.24096386,7,1,10,0.028703704,0.097222222,1,0,0,0.3497,Pumice_05,8,05,4,5,0.35,0.441666667,-0.401851852,1,0,0,0.8795,Pumice_rect,8,0.88,1,9,0,9,0,1,,,,,,,,,,,,,
5639a8adbe9cac000daaa30f,SCN,2024-06-11_12h24.34.753,LearnStrategy,2023.2.3,Win32,60.24096386,7,1,11,-0.062962963,0.099074074,1,0,0,0.6996,Obsidian_16,5,16,4,4,0.7,-0.421296296,-0.237962963,1,0,0,0.8804,Andesite_rect,1,0.88,0,10,0,10,0,1,,,,,,,,,,,,,
5639a8adbe9cac000daaa30f,SCN,2024-06-11_12h24.34.753,LearnStrategy,2023.2.3,Win32,60.24096386,7,1,12,-0.062037037,-0.128703704,1,0,0,0.7488,Basalt_08,2,08,3,4,0.749,0.373148148,-0.257407407,1,0,0,0.9465,Gabbro_rect,4,0.946,0,11,0,11,0,1,,,,,,,,,,,,,
5639a8adbe9cac000daaa30f,SCN,2024-06-11_12h24.34.753,LearnStrategy,2023.2.3,Win32,60.24096386,7,1,13,-0.115740741,-0.444444444,1,0,0,0.7492,Andesite_14,1,14,1,4,0.749,-0.330555556,-0.22962963,1,0,0,0.6644,Andesite_rect,1,0.664,1,12,0,12,0,1,,,,,,,,,,,,,
5639a8adbe9cac000daaa30f,SCN,2024-06-11_12h24.34.753,LearnStrategy,2023.2.3,Win32,60.24096386,7,1,14,-0.037037037,0.247222222,1,0,0,0.4987,Gabbro_08,4,08,5,4,0.499,0.132407407,-0.251851852,1,0,0,1.2804,Diorite_rect,3,1.28,0,13,0,13,0,1,,,,,,,,,,,,,
5639a8adbe9cac000daaa30f,SCN,2024-06-11_12h24.34.753,LearnStrategy,2023.2.3,Win32,60.24096386,7,1,15,0.07037037,0.071296296,1,0,0,1.4093,Pumice_05,8,05,4,5,1.409,0.407407407,-0.399074074,1,0,0,0.7973,Pumice_rect,8,0.797,1,14,0,14,0,1,,,,,,,,,,,,,
5639a8adbe9cac000daaa30f,SCN,2024-06-11_12h24.34.753,LearnStrategy,2023.2.3,Win32,60.24096386,7,1,16,-0.060185185,0.071296296,1,0,0,0.6159,Obsidian_16,5,16,4,4,0.616,-0.4,-0.398148148,1,0,0,0.7135,Obsidian_rect,5,0.714,1,15,0,15,0,1,,,,,,,,,,,,,
5639a8adbe9cac000daaa30f,SCN,2024-06-11_12h24.34.753,LearnStrategy,2023.2.3,Win32,60.24096386,7,2,1,,,,,,,,1,07,,,,,,,,,,,1,5.495,1,,,,,,-0.398148148,-0.235185185,1,0,0,5.4951,Andesite_rect,0,0,0,0,1,
5639a8adbe9cac000daaa30f,SCN,2024-06-11_12h24.34.753,LearnStrategy,2023.2.3,Win32,60.24096386,7,2,2,,,,,,,,2,12,,,,,,,,,,,8,1.073,0,,,,,,0.438888889,-0.413888889,1,0,0,1.0735,Pumice_rect,1,0,1,0,1,
5639a8adbe9cac000daaa30f,SCN,2024-06-11_12h24.34.753,LearnStrategy,2023.2.3,Win32,60.24096386,7,2,3,,,,,,,,2,06,,,,,,,,,,,4,5.296,0,,,,,,0.386111111,-0.266666667,1,0,0,5.2958,Gabbro_rect,2,0,2,0,1,
5639a8adbe9cac000daaa30f,SCN,2024-06-11_12h24.34.753,LearnStrategy,2023.2.3,Win32,60.24096386,7,2,4,,,,,,,,4,05,,,,,,,,,,,7,9.989,0,,,,,,0.150925926,-0.396296296,1,0,0,9.9888,Peridotite_rect,3,0,3,0,1,
5639a8adbe9cac000daaa30f,SCN,2024-06-11_12h24.34.753,LearnStrategy,2023.2.3,Win32,60.24096386,7,2,5,,,,,,,,6,08,,,,,,,,,,,6,0.956,1,,,,,,-0.096296296,-0.39537037,1,0,0,0.9561,Pegmatite_rect,4,0,4,0,1,
5639a8adbe9cac000daaa30f,SCN,2024-06-11_12h24.34.753,LearnStrategy,2023.2.3,Win32,60.24096386,7,2,6,,,,,,,,3,16,,,,,,,,,,,3,4.529,1,,,,,,0.127777778,-0.258333333,1,0,0,4.529,Diorite_rect,5,0,5,0,1,
5639a8adbe9cac000daaa30f,SCN,2024-06-11_12h24.34.753,LearnStrategy,2023.2.3,Win32,60.24096386,7,2,7,,,,,,,,8,02,,,,,,,,,,,8,1.09,1,,,,,,0.340740741,-0.394444444,1,0,0,1.0902,Pumice_rect,6,0,6,0,1,
5639a8adbe9cac000daaa30f,SCN,2024-06-11_12h24.34.753,LearnStrategy,2023.2.3,Win32,60.24096386,7,2,8,,,,,,,,6,09,,,,,,,,,,,6,1.029,1,,,,,,-0.174074074,-0.387962963,1,0,0,1.0287,Pegmatite_rect,7,0,7,0,1,
5639a8adbe9cac000daaa30f,SCN,2024-06-11_12h24.34.753,LearnStrategy,2023.2.3,Win32,60.24096386,7,2,9,,,,,,,,8,08,,,,,,,,,,,8,1.078,1,,,,,,0.460185185,-0.393518519,1,0,0,1.0782,Pumice_rect,8,0,8,0,1,
5639a8adbe9cac000daaa30f,SCN,2024-06-11_12h24.34.753,LearnStrategy,2023.2.3,Win32,60.24096386,7,2,10,,,,,,,,1,11,,,,,,,,,,,1,1.195,1,,,,,,-0.386111111,-0.236111111,1,0,0,1.1949,Andesite_rect,9,0,9,0,1,
5639a8adbe9cac000daaa30f,SCN,2024-06-11_12h24.34.753,LearnStrategy,2023.2.3,Win32,60.24096386,7,2,11,,,,,,,,7,07,,,,,,,,,,,7,1.077,1,,,,,,0.068518519,-0.394444444,1,0,0,1.0775,Peridotite_rect,10,0,10,0,1,
5639a8adbe9cac000daaa30f,SCN,2024-06-11_12h24.34.753,LearnStrategy,2023.2.3,Win32,60.24096386,7,2,12,,,,,,,,5,08,,,,,,,,,,,5,1.046,1,,,,,,-0.494444444,-0.401851852,1,0,0,1.0456,Obsidian_rect,11,0,11,0,1,
5639a8adbe9cac000daaa30f,SCN,2024-06-11_12h24.34.753,LearnStrategy,2023.2.3,Win32,60.24096386,7,2,13,,,,,,,,7,15,,,,,,,,,,,7,1.012,1,,,,,,0.151851852,-0.412962963,1,0,0,1.0117,Peridotite_rect,12,0,12,0,1,
5639a8adbe9cac000daaa30f,SCN,2024-06-11_12h24.34.753,LearnStrategy,2023.2.3,Win32,60.24096386,7,2,14,,,,,,,,4,03,,,,,,,,,,,3,1.012,0,,,,,,0.07037037,-0.251851852,1,0,0,1.0119,Diorite_rect,13,0,13,0,1,
5639a8adbe9cac000daaa30f,SCN,2024-06-11_12h24.34.753,LearnStrategy,2023.2.3,Win32,60.24096386,7,2,15,,,,,,,,3,14,,,,,,,,,,,3,0.712,1,,,,,,0.07037037,-0.251851852,1,0,0,0.7119,Diorite_rect,14,0,14,0,1,
5639a8adbe9cac000daaa30f,SCN,2024-06-11_12h24.34.753,LearnStrategy,2023.2.3,Win32,60.24096386,7,2,16,,,,,,,,5,05,,,,,,,,,,,5,1.679,1,,,,,,-0.383333333,-0.387037037,1,0,0,1.6791,Obsidian_rect,15,0,15,0,1,
5639a8adbe9cac000daaa30f,SCN,2024-06-11_12h24.34.753,LearnStrategy,2023.2.3,Win32,60.24096386,8,1,1,-0.544444444,0.4,1,0,0,0.8829,Diorite_13,3,13,6,1,0.883,0.127777778,-0.250925926,1,0,0,2.5454,Diorite_rect,3,2.545,1,0,0,0,0,1,,,,,,,,,,,,,
5639a8adbe9cac000daaa30f,SCN,2024-06-11_12h24.34.753,LearnStrategy,2023.2.3,Win32,60.24096386,8,1,2,-0.37962963,0.384259259,1,0,0,0.9656,Peridotite_02,7,02,6,2,0.966,0.09537037,-0.248148148,1,0,0,1.3309,Diorite_rect,3,1.331,0,1,0,1,0,1,,,,,,,,,,,,,
5639a8adbe9cac000daaa30f,SCN,2024-06-11_12h24.34.753,LearnStrategy,2023.2.3,Win32,60.24096386,8,1,3,0.24537037,0.372222222,1,0,0,1.6657,Diorite_10,3,10,6,6,1.666,0.106481481,-0.252777778,1,0,0,0.7635,Diorite_rect,3,0.764,1,2,0,2,0,1,,,,,,,,,,,,,
5639a8adbe9cac000daaa30f,SCN,2024-06-11_12h24.34.753,LearnStrategy,2023.2.3,Win32,60.24096386,8,1,4,0.560185185,0.423148148,1,0,0,0.8489,Diorite_15,3,15,6,8,0.849,0.112037037,-0.240740741,1,0,0,0.7635,Diorite_rect,3,0.764,1,3,0,3,0,1,,,,,,,,,,,,,
5639a8adbe9cac000daaa30f,SCN,2024-06-11_12h24.34.753,LearnStrategy,2023.2.3,Win32,60.24096386,8,1,5,0.438888889,0.20462963,1,0,0,0.7988,Diorite_08,3,08,5,7,0.799,0.078703704,-0.256481481,1,0,0,0.8125,Diorite_rect,3,0.813,1,4,0,4,0,1,,,,,,,,,,,,,
5639a8adbe9cac000daaa30f,SCN,2024-06-11_12h24.34.753,LearnStrategy,2023.2.3,Win32,60.24096386,8,1,6,-0.260185185,-0.097222222,1,0,0,1.3661,Diorite_02,3,02,3,3,1.366,0.12037037,-0.264814815,1,0,0,0.6298,Diorite_rect,3,0.63,1,5,0,5,0,1,,,,,,,,,,,,,
5639a8adbe9cac000daaa30f,SCN,2024-06-11_12h24.34.753,LearnStrategy,2023.2.3,Win32,60.24096386,8,1,7,0.355555556,-0.111111111,1,0,0,1.5159,Gabbro_01,4,01,3,7,1.516,0.136111111,-0.251851852,1,0,0,0.8967,Diorite_rect,3,0.897,0,6,0,6,0,1,,,,,,,,,,,,,
5639a8adbe9cac000daaa30f,SCN,2024-06-11_12h24.34.753,LearnStrategy,2023.2.3,Win32,60.24096386,8,1,8,-0.546296296,-0.280555556,1,0,0,0.9327,Diorite_11,3,11,2,1,0.933,0.108333333,-0.251851852,1,0,0,0.6802,Diorite_rect,3,0.68,1,7,0,7,0,1,,,,,,,,,,,,,
5639a8adbe9cac000daaa30f,SCN,2024-06-11_12h24.34.753,LearnStrategy,2023.2.3,Win32,60.24096386,8,1,9,0.248148148,-0.259259259,1,0,0,2.7156,Pegmatite_03,6,03,2,6,2.716,-0.097222222,-0.385185185,1,0,0,0.6626,Pegmatite_rect,6,0.663,1,8,0,8,0,1,,,,,,,,,,,,,
5639a8adbe9cac000daaa30f,SCN,2024-06-11_12h24.34.753,LearnStrategy,2023.2.3,Win32,60.24096386,8,1,10,-0.242592593,-0.275,1,0,0,0.9322,Pegmatite_06,6,06,2,3,0.932,-0.140740741,-0.387962963,1,0,0,0.7639,Pegmatite_rect,6,0.764,1,9,0,9,0,1,,,,,,,,,,,,,
5639a8adbe9cac000daaa30f,SCN,2024-06-11_12h24.34.753,LearnStrategy,2023.2.3,Win32,60.24096386,8,1,11,-0.343518519,0.101851852,1,0,0,0.7156,Basalt_11,2,11,4,2,0.716,0.337962963,-0.24537037,1,0,0,1.6466,Gabbro_rect,4,1.647,0,10,0,10,0,1,,,,,,,,,,,,,
5639a8adbe9cac000daaa30f,SCN,2024-06-11_12h24.34.753,LearnStrategy,2023.2.3,Win32,60.24096386,8,1,12,-0.218518519,0.078703704,1,0,0,0.7325,Pegmatite_12,6,12,4,3,0.733,-0.149074074,-0.386111111,1,0,0,0.9632,Pegmatite_rect,6,0.963,1,11,0,11,0,1,,,,,,,,,,,,,
5639a8adbe9cac000daaa30f,SCN,2024-06-11_12h24.34.753,LearnStrategy,2023.2.3,Win32,60.24096386,8,1,13,-0.355555556,-0.09537037,1,0,0,0.8658,Obsidian_14,5,14,3,2,0.866,-0.408333333,-0.411111111,1,0,0,0.5631,Obsidian_rect,5,0.563,1,12,0,12,0,1,,,,,,,,,,,,,
5639a8adbe9cac000daaa30f,SCN,2024-06-11_12h24.34.753,LearnStrategy,2023.2.3,Win32,60.24096386,8,1,14,-0.537962963,-0.106481481,1,0,0,0.7158,Andesite_01,1,01,3,1,0.716,0.099074074,-0.238888889,1,0,0,1.0297,Diorite_rect,3,1.03,0,13,0,13,0,1,,,,,,,,,,,,,
5639a8adbe9cac000daaa30f,SCN,2024-06-11_12h24.34.753,LearnStrategy,2023.2.3,Win32,60.24096386,8,1,15,-0.106481481,0.387962963,1,0,0,10.499,Pegmatite_10,6,10,6,4,10.499,-0.128703704,-0.403703704,1,0,0,0.825,Pegmatite_rect,6,0.825,1,14,0,14,0,1,,,,,,,,,,,,,
5639a8adbe9cac000daaa30f,SCN,2024-06-11_12h24.34.753,LearnStrategy,2023.2.3,Win32,60.24096386,8,1,16,0.114814815,0.106481481,1,0,0,0.6655,Pumice_05,8,05,4,5,0.665,0.450925926,-0.417592593,1,0,0,0.5965,Pumice_rect,8,0.596,1,15,0,15,0,1,,,,,,,,,,,,,
5639a8adbe9cac000daaa30f,SCN,2024-06-11_12h24.34.753,LearnStrategy,2023.2.3,Win32,60.24096386,8,2,1,,,,,,,,1,06,,,,,,,,,,,1,1.695,1,,,,,,-0.368518519,-0.257407407,1,0,0,1.6954,Andesite_rect,0,0,0,0,1,
5639a8adbe9cac000daaa30f,SCN,2024-06-11_12h24.34.753,LearnStrategy,2023.2.3,Win32,60.24096386,8,2,2,,,,,,,,1,04,,,,,,,,,,,1,2.262,1,,,,,,-0.368518519,-0.257407407,1,0,0,2.2619,Andesite_rect,1,0,1,0,1,
5639a8adbe9cac000daaa30f,SCN,2024-06-11_12h24.34.753,LearnStrategy,2023.2.3,Win32,60.24096386,8,2,3,,,,,,,,3,07,,,,,,,,,,,3,3.595,1,,,,,,0.150925926,-0.256481481,1,0,0,3.595,Diorite_rect,2,0,2,0,1,
5639a8adbe9cac000daaa30f,SCN,2024-06-11_12h24.34.753,LearnStrategy,2023.2.3,Win32,60.24096386,8,2,4,,,,,,,,5,04,,,,,,,,,,,5,1.089,1,,,,,,-0.401851852,-0.402777778,1,0,0,1.0888,Obsidian_rect,3,0,3,0,1,
5639a8adbe9cac000daaa30f,SCN,2024-06-11_12h24.34.753,LearnStrategy,2023.2.3,Win32,60.24096386,8,2,5,,,,,,,,4,14,,,,,,,,,,,4,1.363,1,,,,,,0.403703704,-0.25462963,1,0,0,1.3635,Gabbro_rect,4,0,4,0,1,
5639a8adbe9cac000daaa30f,SCN,2024-06-11_12h24.34.753,LearnStrategy,2023.2.3,Win32,60.24096386,8,2,6,,,,,,,,3,06,,,,,,,,,,,3,0.979,1,,,,,,0.161111111,-0.268518519,1,0,0,0.9786,Diorite_rect,5,0,5,0,1,
5639a8adbe9cac000daaa30f,SCN,2024-06-11_12h24.34.753,LearnStrategy,2023.2.3,Win32,60.24096386,8,2,7,,,,,,,,6,15,,,,,,,,,,,6,0.928,1,,,,,,-0.096296296,-0.411111111,1,0,0,0.9284,Pegmatite_rect,6,0,6,0,1,
5639a8adbe9cac000daaa30f,SCN,2024-06-11_12h24.34.753,LearnStrategy,2023.2.3,Win32,60.24096386,8,2,8,,,,,,,,8,09,,,,,,,,,,,8,1.011,1,,,,,,0.344444444,-0.39537037,1,0,0,1.0114,Pumice_rect,7,0,7,0,1,
5639a8adbe9cac000daaa30f,SCN,2024-06-11_12h24.34.753,LearnStrategy,2023.2.3,Win32,60.24096386,8,2,9,,,,,,,,8,03,,,,,,,,,,,8,0.612,1,,,,,,0.346296296,-0.39537037,1,0,0,0.6121,Pumice_rect,8,0,8,0,1,
5639a8adbe9cac000daaa30f,SCN,2024-06-11_12h24.34.753,LearnStrategy,2023.2.3,Win32,60.24096386,8,2,10,,,,,,,,7,13,,,,,,,,,,,7,0.812,1,,,,,,0.150925926,-0.415740741,1,0,0,0.8117,Peridotite_rect,9,0,9,0,1,
5639a8adbe9cac000daaa30f,SCN,2024-06-11_12h24.34.753,LearnStrategy,2023.2.3,Win32,60.24096386,8,2,11,,,,,,,,4,09,,,,,,,,,,,4,1.495,1,,,,,,0.389814815,-0.249074074,1,0,0,1.4954,Gabbro_rect,10,0,10,0,1,
5639a8adbe9cac000daaa30f,SCN,2024-06-11_12h24.34.753,LearnStrategy,2023.2.3,Win32,60.24096386,8,2,12,,,,,,,,7,10,,,,,,,,,,,7,0.995,1,,,,,,0.148148148,-0.386111111,1,0,0,0.9947,Peridotite_rect,11,0,11,0,1,
5639a8adbe9cac000daaa30f,SCN,2024-06-11_12h24.34.753,LearnStrategy,2023.2.3,Win32,60.24096386,8,2,13,,,,,,,,6,07,,,,,,,,,,,6,0.878,1,,,,,,-0.062037037,-0.409259259,1,0,0,0.8782,Pegmatite_rect,12,0,12,0,1,
5639a8adbe9cac000daaa30f,SCN,2024-06-11_12h24.34.753,LearnStrategy,2023.2.3,Win32,60.24096386,8,2,14,,,,,,,,5,11,,,,,,,,,,,5,0.862,1,,,,,,-0.333333333,-0.415740741,1,0,0,0.8618,Obsidian_rect,13,0,13,0,1,
5639a8adbe9cac000daaa30f,SCN,2024-06-11_12h24.34.753,LearnStrategy,2023.2.3,Win32,60.24096386,8,2,15,,,,,,,,2,10,,,,,,,,,,,4,1.377,0,,,,,,0.425925926,-0.25,1,0,0,1.3772,Gabbro_rect,14,0,14,0,1,
5639a8adbe9cac000daaa30f,SCN,2024-06-11_12h24.34.753,LearnStrategy,2023.2.3,Win32,60.24096386,8,2,16,,,,,,,,2,16,,,,,,,,,,,4,2.178,0,,,,,,0.418518519,-0.252777778,1,0,0,2.1783,Gabbro_rect,15,0,15,0,1,
5639a8adbe9cac000daaa30f,SCN,2024-06-11_12h24.34.753,LearnStrategy,2023.2.3,Win32,60.24096386,9,1,1,0.20462963,-0.243518519,1,0,0,1.4328,Pegmatite_03,6,03,2,6,1.433,0.156481481,-0.244444444,1,0,0,0.7455,Diorite_rect,3,0.745,0,0,0,0,0,1,,,,,,,,,,,,,
5639a8adbe9cac000daaa30f,SCN,2024-06-11_12h24.34.753,LearnStrategy,2023.2.3,Win32,60.24096386,9,1,2,-0.056481481,-0.224074074,1,0,0,0.5154,Peridotite_08,7,08,2,4,0.515,-0.097222222,-0.246296296,1,0,0,0.6297,Basalt_rect,2,0.63,0,1,0,1,0,1,,,,,,,,,,,,,
5639a8adbe9cac000daaa30f,SCN,2024-06-11_12h24.34.753,LearnStrategy,2023.2.3,Win32,60.24096386,9,1,3,-0.2,-0.268518519,1,0,0,0.5657,Pegmatite_06,6,06,2,3,0.566,-0.141666667,-0.401851852,1,0,0,0.5633,Pegmatite_rect,6,0.563,1,2,0,2,0,1,,,,,,,,,,,,,
5639a8adbe9cac000daaa30f,SCN,2024-06-11_12h24.34.753,LearnStrategy,2023.2.3,Win32,60.24096386,9,1,4,-0.359259259,-0.227777778,1,0,0,0.5823,Pumice_15,8,15,2,2,0.582,0.233333333,-0.406481481,1,0,0,0.5632,Peridotite_rect,7,0.563,0,3,0,3,0,1,,,,,,,,,,,,,
5639a8adbe9cac000daaa30f,SCN,2024-06-11_12h24.34.753,LearnStrategy,2023.2.3,Win32,60.24096386,9,1,5,-0.034259259,-0.143518519,1,0,0,0.4491,Basalt_08,2,08,3,4,0.449,-0.041666667,-0.266666667,1,0,0,0.4295,Basalt_rect,2,0.43,1,4,0,4,0,1,,,,,,,,,,,,,
5639a8adbe9cac000daaa30f,SCN,2024-06-11_12h24.34.753,LearnStrategy,2023.2.3,Win32,60.24096386,9,1,6,0.222222222,0.090740741,1,0,0,0.7157,Peridotite_12,7,12,4,6,0.716,0.109259259,-0.262037037,1,0,0,0.6464,Diorite_rect,3,0.646,0,5,0,5,0,1,,,,,,,,,,,,,
5639a8adbe9cac000daaa30f,SCN,2024-06-11_12h24.34.753,LearnStrategy,2023.2.3,Win32,60.24096386,9,1,7,-0.048148148,0.092592593,1,0,0,0.4996,Obsidian_16,5,16,4,4,0.5,-0.357407407,-0.391666667,1,0,0,0.8468,Obsidian_rect,5,0.847,1,6,0,6,0,1,,,,,,,,,,,,,
5639a8adbe9cac000daaa30f,SCN,2024-06-11_12h24.34.753,LearnStrategy,2023.2.3,Win32,60.24096386,9,1,8,-0.198148148,0.112037037,1,0,0,0.5988,Pegmatite_12,6,12,4,3,0.599,-0.142592593,-0.398148148,1,0,0,0.8129,Pegmatite_rect,6,0.813,1,7,0,7,0,1,,,,,,,,,,,,,
5639a8adbe9cac000daaa30f,SCN,2024-06-11_12h24.34.753,LearnStrategy,2023.2.3,Win32,60.24096386,9,1,9,0.415740741,0.075925926,1,0,0,0.5661,Obsidian_06,5,06,4,7,0.566,-0.337962963,-0.405555556,1,0,0,0.6965,Obsidian_rect,5,0.697,1,8,0,8,0,1,,,,,,,,,,,,,
5639a8adbe9cac000daaa30f,SCN,2024-06-11_12h24.34.753,LearnStrategy,2023.2.3,Win32,60.24096386,9,1,10,-0.069444444,0.225925926,1,0,0,0.4989,Gabbro_08,4,08,5,4,0.499,-0.111111111,-0.259259259,1,0,0,1.2298,Basalt_rect,2,1.23,0,9,0,9,0,1,,,,,,,,,,,,,
5639a8adbe9cac000daaa30f,SCN,2024-06-11_12h24.34.753,LearnStrategy,2023.2.3,Win32,60.24096386,9,1,11,0.083333333,0.111111111,1,0,0,0.4325,Pumice_05,8,05,4,5,0.432,0.373148148,-0.387962963,1,0,0,0.6124,Pumice_rect,8,0.612,1,10,0,10,0,1,,,,,,,,,,,,,
5639a8adbe9cac000daaa30f,SCN,2024-06-11_12h24.34.753,LearnStrategy,2023.2.3,Win32,60.24096386,9,1,12,-0.361111111,0.07037037,1,0,0,0.7492,Basalt_11,2,11,4,2,0.749,-0.10462963,-0.249074074,1,0,0,1.613,Basalt_rect,2,1.613,1,11,0,11,0,1,,,,,,,,,,,,,
5639a8adbe9cac000daaa30f,SCN,2024-06-11_12h24.34.753,LearnStrategy,2023.2.3,Win32,60.24096386,9,1,13,-0.550925926,-0.137037037,1,0,0,0.5995,Andesite_01,1,01,3,1,0.6,-0.386111111,-0.258333333,1,0,0,1.6641,Andesite_rect,1,1.664,1,12,0,12,0,1,,,,,,,,,,,,,
5639a8adbe9cac000daaa30f,SCN,2024-06-11_12h24.34.753,LearnStrategy,2023.2.3,Win32,60.24096386,9,1,14,0.089814815,0.082407407,1,0,0,0.5993,Pumice_05,8,05,4,5,0.599,0.376851852,-0.400925926,1,0,0,0.8621,Pumice_rect,8,0.862,1,13,0,13,0,1,,,,,,,,,,,,,
5639a8adbe9cac000daaa30f,SCN,2024-06-11_12h24.34.753,LearnStrategy,2023.2.3,Win32,60.24096386,9,1,15,0.233333333,0.087962963,1,0,0,0.5489,Peridotite_12,7,12,4,6,0.549,0.130555556,-0.253703704,1,0,0,0.6128,Diorite_rect,3,0.613,0,14,0,14,0,1,,,,,,,,,,,,,
5639a8adbe9cac000daaa30f,SCN,2024-06-11_12h24.34.753,LearnStrategy,2023.2.3,Win32,60.24096386,9,1,16,0.349074074,0.105555556,1,0,0,0.6657,Obsidian_06,5,06,4,7,0.666,-0.343518519,-0.398148148,1,0,0,0.6298,Obsidian_rect,5,0.63,1,15,0,15,0,1,,,,,,,,,,,,,
5639a8adbe9cac000daaa30f,SCN,2024-06-11_12h24.34.753,LearnStrategy,2023.2.3,Win32,60.24096386,9,2,1,,,,,,,,4,16,,,,,,,,,,,4,4.662,1,,,,,,0.412962963,-0.263888889,1,0,0,4.6617,Gabbro_rect,0,0,0,0,1,
5639a8adbe9cac000daaa30f,SCN,2024-06-11_12h24.34.753,LearnStrategy,2023.2.3,Win32,60.24096386,9,2,2,,,,,,,,2,02,,,,,,,,,,,2,2.906,1,,,,,,-0.062037037,-0.265740741,1,0,0,2.9063,Basalt_rect,1,0,1,0,1,
5639a8adbe9cac000daaa30f,SCN,2024-06-11_12h24.34.753,LearnStrategy,2023.2.3,Win32,60.24096386,9,2,3,,,,,,,,7,16,,,,,,,,,,,7,1.344,1,,,,,,0.139814815,-0.412037037,1,0,0,1.3442,Peridotite_rect,2,0,2,0,1,
5639a8adbe9cac000daaa30f,SCN,2024-06-11_12h24.34.753,LearnStrategy,2023.2.3,Win32,60.24096386,9,2,4,,,,,,,,6,13,,,,,,,,,,,6,2.128,1,,,,,,-0.088888889,-0.407407407,1,0,0,2.1281,Pegmatite_rect,3,0,3,0,1,
5639a8adbe9cac000daaa30f,SCN,2024-06-11_12h24.34.753,LearnStrategy,2023.2.3,Win32,60.24096386,9,2,5,,,,,,,,3,12,,,,,,,,,,,3,0.945,1,,,,,,0.125925926,-0.267592593,1,0,0,0.9446,Diorite_rect,4,0,4,0,1,
5639a8adbe9cac000daaa30f,SCN,2024-06-11_12h24.34.753,LearnStrategy,2023.2.3,Win32,60.24096386,9,2,6,,,,,,,,5,07,,,,,,,,,,,5,0.945,1,,,,,,-0.468518519,-0.42037037,1,0,0,0.9453,Obsidian_rect,5,0,5,0,1,
5639a8adbe9cac000daaa30f,SCN,2024-06-11_12h24.34.753,LearnStrategy,2023.2.3,Win32,60.24096386,9,2,7,,,,,,,,8,14,,,,,,,,,,,8,1.045,1,,,,,,0.407407407,-0.411111111,1,0,0,1.0452,Pumice_rect,6,0,6,0,1,
5639a8adbe9cac000daaa30f,SCN,2024-06-11_12h24.34.753,LearnStrategy,2023.2.3,Win32,60.24096386,9,2,8,,,,,,,,4,11,,,,,,,,,,,2,1.095,0,,,,,,-0.17037037,-0.252777778,1,0,0,1.0946,Basalt_rect,7,0,7,0,1,
5639a8adbe9cac000daaa30f,SCN,2024-06-11_12h24.34.753,LearnStrategy,2023.2.3,Win32,60.24096386,9,2,9,,,,,,,,2,09,,,,,,,,,,,4,1.578,0,,,,,,0.362037037,-0.237962963,1,0,0,1.5782,Gabbro_rect,8,0,8,0,1,
5639a8adbe9cac000daaa30f,SCN,2024-06-11_12h24.34.753,LearnStrategy,2023.2.3,Win32,60.24096386,9,2,10,,,,,,,,1,03,,,,,,,,,,,1,1.078,1,,,,,,-0.384259259,-0.260185185,1,0,0,1.0781,Andesite_rect,9,0,9,0,1,
5639a8adbe9cac000daaa30f,SCN,2024-06-11_12h24.34.753,LearnStrategy,2023.2.3,Win32,60.24096386,9,2,11,,,,,,,,7,14,,,,,,,,,,,4,4.312,0,,,,,,0.37962963,-0.24537037,1,0,0,4.3117,Gabbro_rect,10,0,10,0,1,
5639a8adbe9cac000daaa30f,SCN,2024-06-11_12h24.34.753,LearnStrategy,2023.2.3,Win32,60.24096386,9,2,12,,,,,,,,3,09,,,,,,,,,,,3,0.889,1,,,,,,0.171296296,-0.251851852,1,0,0,0.889,Diorite_rect,11,0,11,0,1,
5639a8adbe9cac000daaa30f,SCN,2024-06-11_12h24.34.753,LearnStrategy,2023.2.3,Win32,60.24096386,9,2,13,,,,,,,,8,04,,,,,,,,,,,8,0.795,1,,,,,,0.361111111,-0.388888889,1,0,0,0.7946,Pumice_rect,12,0,12,0,1,
5639a8adbe9cac000daaa30f,SCN,2024-06-11_12h24.34.753,LearnStrategy,2023.2.3,Win32,60.24096386,9,2,14,,,,,,,,6,05,,,,,,,,,,,6,2.629,1,,,,,,-0.056481481,-0.408333333,1,0,0,2.6287,Pegmatite_rect,13,0,13,0,1,
5639a8adbe9cac000daaa30f,SCN,2024-06-11_12h24.34.753,LearnStrategy,2023.2.3,Win32,60.24096386,9,2,15,,,,,,,,5,09,,,,,,,,,,,5,0.874,1,,,,,,-0.408333333,-0.407407407,1,0,0,0.8741,Obsidian_rect,14,0,14,0,1,
5639a8adbe9cac000daaa30f,SCN,2024-06-11_12h24.34.753,LearnStrategy,2023.2.3,Win32,60.24096386,9,2,16,,,,,,,,1,16,,,,,,,,,,,1,1.313,1,,,,,,-0.407407407,-0.241666667,1,0,0,1.3125,Andesite_rect,15,0,15,0,1,
5639a8adbe9cac000daaa30f,SCN,2024-06-11_12h24.34.753,LearnStrategy,2023.2.3,Win32,60.24096386,,,,,,,,,,,,,,,,,,,,,,,,,,,,,,,,,,,,,,,,,,,1
5639a8adbe9cac000daaa30f,SCN,2024-06-11_12h24.34.753,LearnStrategy,2023.2.3,Win32,60.24096386,,,,,,,,,,,,,,,,,,,,,,,,,,,,,,,,,,,,,,,,,,,
5639a8adbe9cac000daaa30f,SCN,2024-06-11_12h24.34.753,LearnStrategy,2023.2.3,Win32,60.24096386,,,,,,,,,,,5,02,1,1,,,,,,,,,,,,,,,,,,,,,,,,,,,,,
5639a8adbe9cac000daaa30f,SCN,2024-06-11_12h24.34.753,LearnStrategy,2023.2.3,Win32,60.24096386,,,,,,,,,,,1,02,1,2,,,,,,,,,,,,,,,,,,,,,,,,,,,,,
5639a8adbe9cac000daaa30f,SCN,2024-06-11_12h24.34.753,LearnStrategy,2023.2.3,Win32,60.24096386,,,,,,,,,,,8,10,1,3,,,,,,,,,,,,,,,,,,,,,,,,,,,,,
5639a8adbe9cac000daaa30f,SCN,2024-06-11_12h24.34.753,LearnStrategy,2023.2.3,Win32,60.24096386,,,,,,,,,,,1,14,1,4,,,,,,,,,,,,,,,,,,,,,,,,,,,,,
5639a8adbe9cac000daaa30f,SCN,2024-06-11_12h24.34.753,LearnStrategy,2023.2.3,Win32,60.24096386,,,,,,,,,,,6,11,1,5,,,,,,,,,,,,,,,,,,,,,,,,,,,,,
5639a8adbe9cac000daaa30f,SCN,2024-06-11_12h24.34.753,LearnStrategy,2023.2.3,Win32,60.24096386,,,,,,,,,,,2,14,1,6,,,,,,,,,,,,,,,,,,,,,,,,,,,,,
5639a8adbe9cac000daaa30f,SCN,2024-06-11_12h24.34.753,LearnStrategy,2023.2.3,Win32,60.24096386,,,,,,,,,,,1,09,1,7,,,,,,,,,,,,,,,,,,,,,,,,,,,,,
5639a8adbe9cac000daaa30f,SCN,2024-06-11_12h24.34.753,LearnStrategy,2023.2.3,Win32,60.24096386,,,,,,,,,,,6,16,1,8,,,,,,,,,,,,,,,,,,,,,,,,,,,,,
5639a8adbe9cac000daaa30f,SCN,2024-06-11_12h24.34.753,LearnStrategy,2023.2.3,Win32,60.24096386,,,,,,,,,,,3,11,2,1,,,,,,,,,,,,,,,,,,,,,,,,,,,,,
5639a8adbe9cac000daaa30f,SCN,2024-06-11_12h24.34.753,LearnStrategy,2023.2.3,Win32,60.24096386,,,,,,,,,,,8,15,2,2,,,,,,,,,,,,,,,,,,,,,,,,,,,,,
5639a8adbe9cac000daaa30f,SCN,2024-06-11_12h24.34.753,LearnStrategy,2023.2.3,Win32,60.24096386,,,,,,,,,,,6,06,2,3,,,,,,,,,,,,,,,,,,,,,,,,,,,,,
5639a8adbe9cac000daaa30f,SCN,2024-06-11_12h24.34.753,LearnStrategy,2023.2.3,Win32,60.24096386,,,,,,,,,,,7,08,2,4,,,,,,,,,,,,,,,,,,,,,,,,,,,,,
5639a8adbe9cac000daaa30f,SCN,2024-06-11_12h24.34.753,LearnStrategy,2023.2.3,Win32,60.24096386,,,,,,,,,,,2,04,2,5,,,,,,,,,,,,,,,,,,,,,,,,,,,,,
5639a8adbe9cac000daaa30f,SCN,2024-06-11_12h24.34.753,LearnStrategy,2023.2.3,Win32,60.24096386,,,,,,,,,,,6,03,2,6,,,,,,,,,,,,,,,,,,,,,,,,,,,,,
5639a8adbe9cac000daaa30f,SCN,2024-06-11_12h24.34.753,LearnStrategy,2023.2.3,Win32,60.24096386,,,,,,,,,,,7,04,2,7,,,,,,,,,,,,,,,,,,,,,,,,,,,,,
5639a8adbe9cac000daaa30f,SCN,2024-06-11_12h24.34.753,LearnStrategy,2023.2.3,Win32,60.24096386,,,,,,,,,,,2,05,2,8,,,,,,,,,,,,,,,,,,,,,,,,,,,,,
5639a8adbe9cac000daaa30f,SCN,2024-06-11_12h24.34.753,LearnStrategy,2023.2.3,Win32,60.24096386,,,,,,,,,,,1,01,3,1,,,,,,,,,,,,,,,,,,,,,,,,,,,,,
5639a8adbe9cac000daaa30f,SCN,2024-06-11_12h24.34.753,LearnStrategy,2023.2.3,Win32,60.24096386,,,,,,,,,,,5,14,3,2,,,,,,,,,,,,,,,,,,,,,,,,,,,,,
5639a8adbe9cac000daaa30f,SCN,2024-06-11_12h24.34.753,LearnStrategy,2023.2.3,Win32,60.24096386,,,,,,,,,,,3,02,3,3,,,,,,,,,,,,,,,,,,,,,,,,,,,,,
5639a8adbe9cac000daaa30f,SCN,2024-06-11_12h24.34.753,LearnStrategy,2023.2.3,Win32,60.24096386,,,,,,,,,,,2,08,3,4,,,,,,,,,,,,,,,,,,,,,,,,,,,,,
5639a8adbe9cac000daaa30f,SCN,2024-06-11_12h24.34.753,LearnStrategy,2023.2.3,Win32,60.24096386,,,,,,,,,,,4,10,3,5,,,,,,,,,,,,,,,,,,,,,,,,,,,,,
5639a8adbe9cac000daaa30f,SCN,2024-06-11_12h24.34.753,LearnStrategy,2023.2.3,Win32,60.24096386,,,,,,,,,,,4,15,3,6,,,,,,,,,,,,,,,,,,,,,,,,,,,,,
5639a8adbe9cac000daaa30f,SCN,2024-06-11_12h24.34.753,LearnStrategy,2023.2.3,Win32,60.24096386,,,,,,,,,,,4,01,3,7,,,,,,,,,,,,,,,,,,,,,,,,,,,,,
5639a8adbe9cac000daaa30f,SCN,2024-06-11_12h24.34.753,LearnStrategy,2023.2.3,Win32,60.24096386,,,,,,,,,,,8,13,3,8,,,,,,,,,,,,,,,,,,,,,,,,,,,,,
5639a8adbe9cac000daaa30f,SCN,2024-06-11_12h24.34.753,LearnStrategy,2023.2.3,Win32,60.24096386,,,,,,,,,,,8,06,4,1,,,,,,,,,,,,,,,,,,,,,,,,,,,,,
5639a8adbe9cac000daaa30f,SCN,2024-06-11_12h24.34.753,LearnStrategy,2023.2.3,Win32,60.24096386,,,,,,,,,,,2,11,4,2,,,,,,,,,,,,,,,,,,,,,,,,,,,,,
5639a8adbe9cac000daaa30f,SCN,2024-06-11_12h24.34.753,LearnStrategy,2023.2.3,Win32,60.24096386,,,,,,,,,,,6,12,4,3,,,,,,,,,,,,,,,,,,,,,,,,,,,,,
5639a8adbe9cac000daaa30f,SCN,2024-06-11_12h24.34.753,LearnStrategy,2023.2.3,Win32,60.24096386,,,,,,,,,,,5,16,4,4,,,,,,,,,,,,,,,,,,,,,,,,,,,,,
5639a8adbe9cac000daaa30f,SCN,2024-06-11_12h24.34.753,LearnStrategy,2023.2.3,Win32,60.24096386,,,,,,,,,,,8,05,4,5,,,,,,,,,,,,,,,,,,,,,,,,,,,,,
5639a8adbe9cac000daaa30f,SCN,2024-06-11_12h24.34.753,LearnStrategy,2023.2.3,Win32,60.24096386,,,,,,,,,,,7,12,4,6,,,,,,,,,,,,,,,,,,,,,,,,,,,,,
5639a8adbe9cac000daaa30f,SCN,2024-06-11_12h24.34.753,LearnStrategy,2023.2.3,Win32,60.24096386,,,,,,,,,,,5,06,4,7,,,,,,,,,,,,,,,,,,,,,,,,,,,,,
5639a8adbe9cac000daaa30f,SCN,2024-06-11_12h24.34.753,LearnStrategy,2023.2.3,Win32,60.24096386,,,,,,,,,,,5,10,4,8,,,,,,,,,,,,,,,,,,,,,,,,,,,,,
5639a8adbe9cac000daaa30f,SCN,2024-06-11_12h24.34.753,LearnStrategy,2023.2.3,Win32,60.24096386,,,,,,,,,,,7,05,5,1,,,,,,,,,,,,,,,,,,,,,,,,,,,,,
5639a8adbe9cac000daaa30f,SCN,2024-06-11_12h24.34.753,LearnStrategy,2023.2.3,Win32,60.24096386,,,,,,,,,,,1,05,5,2,,,,,,,,,,,,,,,,,,,,,,,,,,,,,
5639a8adbe9cac000daaa30f,SCN,2024-06-11_12h24.34.753,LearnStrategy,2023.2.3,Win32,60.24096386,,,,,,,,,,,4,12,5,3,,,,,,,,,,,,,,,,,,,,,,,,,,,,,
5639a8adbe9cac000daaa30f,SCN,2024-06-11_12h24.34.753,LearnStrategy,2023.2.3,Win32,60.24096386,,,,,,,,,,,4,08,5,4,,,,,,,,,,,,,,,,,,,,,,,,,,,,,
5639a8adbe9cac000daaa30f,SCN,2024-06-11_12h24.34.753,LearnStrategy,2023.2.3,Win32,60.24096386,,,,,,,,,,,7,06,5,5,,,,,,,,,,,,,,,,,,,,,,,,,,,,,
5639a8adbe9cac000daaa30f,SCN,2024-06-11_12h24.34.753,LearnStrategy,2023.2.3,Win32,60.24096386,,,,,,,,,,,4,13,5,6,,,,,,,,,,,,,,,,,,,,,,,,,,,,,
5639a8adbe9cac000daaa30f,SCN,2024-06-11_12h24.34.753,LearnStrategy,2023.2.3,Win32,60.24096386,,,,,,,,,,,3,08,5,7,,,,,,,,,,,,,,,,,,,,,,,,,,,,,
5639a8adbe9cac000daaa30f,SCN,2024-06-11_12h24.34.753,LearnStrategy,2023.2.3,Win32,60.24096386,,,,,,,,,,,2,01,5,8,,,,,,,,,,,,,,,,,,,,,,,,,,,,,
5639a8adbe9cac000daaa30f,SCN,2024-06-11_12h24.34.753,LearnStrategy,2023.2.3,Win32,60.24096386,,,,,,,,,,,3,13,6,1,,,,,,,,,,,,,,,,,,,,,,,,,,,,,
5639a8adbe9cac000daaa30f,SCN,2024-06-11_12h24.34.753,LearnStrategy,2023.2.3,Win32,60.24096386,,,,,,,,,,,7,02,6,2,,,,,,,,,,,,,,,,,,,,,,,,,,,,,
5639a8adbe9cac000daaa30f,SCN,2024-06-11_12h24.34.753,LearnStrategy,2023.2.3,Win32,60.24096386,,,,,,,,,,,8,16,6,3,,,,,,,,,,,,,,,,,,,,,,,,,,,,,
5639a8adbe9cac000daaa30f,SCN,2024-06-11_12h24.34.753,LearnStrategy,2023.2.3,Win32,60.24096386,,,,,,,,,,,6,10,6,4,,,,,,,,,,,,,,,,,,,,,,,,,,,,,
5639a8adbe9cac000daaa30f,SCN,2024-06-11_12h24.34.753,LearnStrategy,2023.2.3,Win32,60.24096386,,,,,,,,,,,1,10,6,5,,,,,,,,,,,,,,,,,,,,,,,,,,,,,
5639a8adbe9cac000daaa30f,SCN,2024-06-11_12h24.34.753,LearnStrategy,2023.2.3,Win32,60.24096386,,,,,,,,,,,3,10,6,6,,,,,,,,,,,,,,,,,,,,,,,,,,,,,
5639a8adbe9cac000daaa30f,SCN,2024-06-11_12h24.34.753,LearnStrategy,2023.2.3,Win32,60.24096386,,,,,,,,,,,5,12,6,7,,,,,,,,,,,,,,,,,,,,,,,,,,,,,
5639a8adbe9cac000daaa30f,SCN,2024-06-11_12h24.34.753,LearnStrategy,2023.2.3,Win32,60.24096386,,,,,,,,,,,3,15,6,8,,,,,,,,,,,,,,,,,,,,,,,,,,,,,