participant,condition,date,expName,psychopyVersion,OS,frameRate,block,phase,trial,learn_mouse_2.x,learn_mouse_2.y,learn_mouse_2.leftButton,learn_mouse_2.midButton,learn_mouse_2.rightButton,learn_mouse_2.time,learn_mouse_2.clicked_name,cat,token,row,col,t_select,cat_mouse_l.x,cat_mouse_l.y,cat_mouse_l.leftButton,cat_mouse_l.midButton,cat_mouse_l.rightButton,cat_mouse_l.time,cat_mouse_l.clicked_name,resp,t_resp,corr,train_trials.thisRepN,train_trials.thisTrialN,train_trials.thisN,train_trials.thisIndex,train_trials.ran,cat_mouse_t.x,cat_mouse_t.y,cat_mouse_t.leftButton,cat_mouse_t.midButton,cat_mouse_t.rightButton,cat_mouse_t.time,cat_mouse_t.clicked_name,test_trials.thisRepN,test_trials.thisTrialN,test_trials.thisN,test_trials.thisIndex,test_trials.ran
5658f4787d69570012dfe2d1,TCR,2024-06-10_14h16.53.374,LearnStrategy,2023.2.3,Win32,60.60606061,,,,,,,,,,,,,,,,,,,,,,,,,,,,,,,,,,,,,,,,,,
5658f4787d69570012dfe2d1,TCR,2024-06-10_14h16.53.374,LearnStrategy,2023.2.3,Win32,60.60606061,1,1,1,-0.037962949,0.000925912,1,0,0,4.662,rock_grid_rect_2,6,05,-1,-1,4.662,0.406481566,-0.416666667,1,0,0,5.0652,Pumice_rect,8,5.065,0,0,0,0,0,1,,,,,,,,,,,,
5658f4787d69570012dfe2d1,TCR,2024-06-10_14h16.53.374,LearnStrategy,2023.2.3,Win32,60.60606061,1,1,2,-0.009259259,0.000925912,1,0,0,2.0276,rock_grid_rect_2,2,12,-1,-1,2.028,-0.139814801,-0.263888889,1,0,0,9.566,Basalt_rect,2,9.566,1,1,0,1,0,1,,,,,,,,,,,,
5658f4787d69570012dfe2d1,TCR,2024-06-10_14h16.53.374,LearnStrategy,2023.2.3,Win32,60.60606061,1,1,3,0.008333347,-0.000925947,1,0,0,2.4408,rock_grid_rect_2,1,16,-1,-1,2.441,0.147222236,-0.259259259,1,0,0,7.6146,Diorite_rect,3,7.615,0,2,0,2,0,1,,,,,,,,,,,,
5658f4787d69570012dfe2d1,TCR,2024-06-10_14h16.53.374,LearnStrategy,2023.2.3,Win32,60.60606061,1,1,4,-0.015740712,-0.00462963,1,0,0,1.3993,rock_grid_rect_2,8,15,-1,-1,1.399,0.382407436,-0.255555541,1,0,0,4.3248,Gabbro_rect,4,4.325,0,3,0,3,0,1,,,,,,,,,,,,
5658f4787d69570012dfe2d1,TCR,2024-06-10_14h16.53.374,LearnStrategy,2023.2.3,Win32,60.60606061,1,1,5,0.021296325,-0.015740748,1,0,0,1.6309,rock_grid_rect_2,5,14,-1,-1,1.631,-0.366666653,-0.413888931,1,0,0,2.1654,Obsidian_rect,5,2.165,1,4,0,4,0,1,,,,,,,,,,,,
5658f4787d69570012dfe2d1,TCR,2024-06-10_14h16.53.374,LearnStrategy,2023.2.3,Win32,60.60606061,1,1,6,0.009259259,-0.006481489,1,0,0,1.5137,rock_grid_rect_2,1,02,-1,-1,1.514,-0.347222222,-0.250925912,1,0,0,2.4461,Andesite_rect,1,2.446,1,5,0,5,0,1,,,,,,,,,,,,
5658f4787d69570012dfe2d1,TCR,2024-06-10_14h16.53.374,LearnStrategy,2023.2.3,Win32,60.60606061,1,1,7,0.00462963,-0.022222236,1,0,0,1.3824,rock_grid_rect_2,3,10,-1,-1,1.382,0.150925954,-0.253703718,1,0,0,2.6941,Diorite_rect,3,2.694,1,6,0,6,0,1,,,,,,,,,,,,
5658f4787d69570012dfe2d1,TCR,2024-06-10_14h16.53.374,LearnStrategy,2023.2.3,Win32,60.60606061,1,1,8,0.034259302,-0.003703718,1,0,0,1.2241,rock_grid_rect_2,6,09,-1,-1,1.224,0.178703732,-0.411111125,1,0,0,5.5955,Peridotite_rect,7,5.596,0,7,0,7,0,1,,,,,,,,,,,,
5658f4787d69570012dfe2d1,TCR,2024-06-10_14h16.53.374,LearnStrategy,2023.2.3,Win32,60.60606061,1,1,9,-0.039814772,-0.017592607,1,0,0,1.1308,rock_grid_rect_2,8,08,-1,-1,1.131,0.101851852,-0.256481524,1,0,0,4.4203,Diorite_rect,3,4.42,0,8,0,8,0,1,,,,,,,,,,,,
5658f4787d69570012dfe2d1,TCR,2024-06-10_14h16.53.374,LearnStrategy,2023.2.3,Win32,60.60606061,1,1,10,-0.011111083,-0.022222236,1,0,0,2.3479,rock_grid_rect_2,5,06,-1,-1,2.348,-0.355555534,-0.400925954,1,0,0,5.0449,Obsidian_rect,5,5.045,1,9,0,9,0,1,,,,,,,,,,,,
5658f4787d69570012dfe2d1,TCR,2024-06-10_14h16.53.374,LearnStrategy,2023.2.3,Win32,60.60606061,1,1,11,-0.012962977,-0.011111118,1,0,0,1.1895,rock_grid_rect_2,4,09,-1,-1,1.19,-0.090740698,-0.25,1,0,0,6.6446,Basalt_rect,2,6.645,0,10,0,10,0,1,,,,,,,,,,,,
5658f4787d69570012dfe2d1,TCR,2024-06-10_14h16.53.374,LearnStrategy,2023.2.3,Win32,60.60606061,1,1,12,0.012962977,0.003703683,1,0,0,1.0313,rock_grid_rect_2,4,03,-1,-1,1.031,-0.366666653,-0.256481524,1,0,0,5.5613,Andesite_rect,1,5.561,0,11,0,11,0,1,,,,,,,,,,,,
5658f4787d69570012dfe2d1,TCR,2024-06-10_14h16.53.374,LearnStrategy,2023.2.3,Win32,60.60606061,1,1,13,-0.046296296,-0.009259259,1,0,0,1.0144,rock_grid_rect_2,2,05,-1,-1,1.014,0.183333362,-0.242592635,1,0,0,4.4286,Diorite_rect,3,4.429,0,12,0,12,0,1,,,,,,,,,,,,
5658f4787d69570012dfe2d1,TCR,2024-06-10_14h16.53.374,LearnStrategy,2023.2.3,Win32,60.60606061,1,1,14,-0.018518519,0.002777771,1,0,0,0.9984,rock_grid_rect_2,7,08,-1,-1,0.998,0.416666667,-0.420370384,1,0,0,6.2834,Pumice_rect,8,6.283,0,13,0,13,0,1,,,,,,,,,,,,
5658f4787d69570012dfe2d1,TCR,2024-06-10_14h16.53.374,LearnStrategy,2023.2.3,Win32,60.60606061,1,1,15,-0.000925912,-0.001851859,1,0,0,1.5142,rock_grid_rect_2,7,06,-1,-1,1.514,-0.107407393,-0.382407436,1,0,0,5.3462,Pegmatite_rect,6,5.346,0,14,0,14,0,1,,,,,,,,,,,,
5658f4787d69570012dfe2d1,TCR,2024-06-10_14h16.53.374,LearnStrategy,2023.2.3,Win32,60.60606061,1,1,16,-0.02870369,0.00462963,1,0,0,1.0644,rock_grid_rect_2,3,06,-1,-1,1.064,0.394444501,-0.390740783,1,0,0,5.1861,Pumice_rect,8,5.186,0,15,0,15,0,1,,,,,,,,,,,,
5658f4787d69570012dfe2d1,TCR,2024-06-10_14h16.53.374,LearnStrategy,2023.2.3,Win32,60.60606061,1,2,1,,,,,,,,7,16,,,,,,,,,,,7,9.052,1,,,,,,0.139814801,-0.409259302,1,0,0,9.052,Peridotite_rect,0,0,0,0,1
5658f4787d69570012dfe2d1,TCR,2024-06-10_14h16.53.374,LearnStrategy,2023.2.3,Win32,60.60606061,1,2,2,,,,,,,,8,02,,,,,,,,,,,8,2.062,1,,,,,,0.395370342,-0.409259302,1,0,0,2.0615,Pumice_rect,1,0,1,0,1
5658f4787d69570012dfe2d1,TCR,2024-06-10_14h16.53.374,LearnStrategy,2023.2.3,Win32,60.60606061,1,2,3,,,,,,,,1,10,,,,,,,,,,,8,5.396,0,,,,,,0.381481453,-0.410185213,1,0,0,5.3963,Pumice_rect,2,0,2,0,1
5658f4787d69570012dfe2d1,TCR,2024-06-10_14h16.53.374,LearnStrategy,2023.2.3,Win32,60.60606061,1,2,4,,,,,,,,3,15,,,,,,,,,,,1,3.856,0,,,,,,-0.373148141,-0.234259288,1,0,0,3.8555,Andesite_rect,3,0,3,0,1
5658f4787d69570012dfe2d1,TCR,2024-06-10_14h16.53.374,LearnStrategy,2023.2.3,Win32,60.60606061,1,2,5,,,,,,,,4,12,,,,,,,,,,,3,3.075,0,,,,,,0.170370384,-0.258333347,1,0,0,3.0747,Diorite_rect,4,0,4,0,1
5658f4787d69570012dfe2d1,TCR,2024-06-10_14h16.53.374,LearnStrategy,2023.2.3,Win32,60.60606061,1,2,6,,,,,,,,7,14,,,,,,,,,,,7,4.222,1,,,,,,0.155555584,-0.390740783,1,0,0,4.2222,Peridotite_rect,5,0,5,0,1
5658f4787d69570012dfe2d1,TCR,2024-06-10_14h16.53.374,LearnStrategy,2023.2.3,Win32,60.60606061,1,2,7,,,,,,,,2,09,,,,,,,,,,,2,3.923,1,,,,,,-0.104629587,-0.262962977,1,0,0,3.9227,Basalt_rect,6,0,6,0,1
5658f4787d69570012dfe2d1,TCR,2024-06-10_14h16.53.374,LearnStrategy,2023.2.3,Win32,60.60606061,1,2,8,,,,,,,,3,16,,,,,,,,,,,4,3.514,0,,,,,,0.439814815,-0.260185171,1,0,0,3.5139,Gabbro_rect,7,0,7,0,1
5658f4787d69570012dfe2d1,TCR,2024-06-10_14h16.53.374,LearnStrategy,2023.2.3,Win32,60.60606061,1,2,9,,,,,,,,5,05,,,,,,,,,,,5,1.354,1,,,,,,-0.37962963,-0.397222236,1,0,0,1.3544,Obsidian_rect,8,0,8,0,1
5658f4787d69570012dfe2d1,TCR,2024-06-10_14h16.53.374,LearnStrategy,2023.2.3,Win32,60.60606061,1,2,10,,,,,,,,1,06,,,,,,,,,,,4,3.289,0,,,,,,0.381481453,-0.253703718,1,0,0,3.2889,Gabbro_rect,9,0,9,0,1
5658f4787d69570012dfe2d1,TCR,2024-06-10_14h16.53.374,LearnStrategy,2023.2.3,Win32,60.60606061,1,2,11,,,,,,,,2,02,,,,,,,,,,,6,5.306,0,,,,,,-0.127777735,-0.400925954,1,0,0,5.3058,Pegmatite_rect,10,0,10,0,1
5658f4787d69570012dfe2d1,TCR,2024-06-10_14h16.53.374,LearnStrategy,2023.2.3,Win32,60.60606061,1,2,12,,,,,,,,5,10,,,,,,,,,,,5,1.488,1,,,,,,-0.398148148,-0.39907406,1,0,0,1.4876,Obsidian_rect,11,0,11,0,1
5658f4787d69570012dfe2d1,TCR,2024-06-10_14h16.53.374,LearnStrategy,2023.2.3,Win32,60.60606061,1,2,13,,,,,,,,6,10,,,,,,,,,,,7,5.547,0,,,,,,0.121296282,-0.386111153,1,0,0,5.5473,Peridotite_rect,12,0,12,0,1
5658f4787d69570012dfe2d1,TCR,2024-06-10_14h16.53.374,LearnStrategy,2023.2.3,Win32,60.60606061,1,2,14,,,,,,,,4,01,,,,,,,,,,,1,2.875,0,,,,,,-0.383333312,-0.237037023,1,0,0,2.8746,Andesite_rect,13,0,13,0,1
5658f4787d69570012dfe2d1,TCR,2024-06-10_14h16.53.374,LearnStrategy,2023.2.3,Win32,60.60606061,1,2,15,,,,,,,,8,03,,,,,,,,,,,8,1.689,1,,,,,,0.388888889,-0.405555584,1,0,0,1.6892,Pumice_rect,14,0,14,0,1
5658f4787d69570012dfe2d1,TCR,2024-06-10_14h16.53.374,LearnStrategy,2023.2.3,Win32,60.60606061,1,2,16,,,,,,,,6,07,,,,,,,,,,,5,8.073,0,,,,,,-0.37962963,-0.400000042,1,0,0,8.0734,Obsidian_rect,15,0,15,0,1
5658f4787d69570012dfe2d1,TCR,2024-06-10_14h16.53.374,LearnStrategy,2023.2.3,Win32,60.60606061,2,1,1,-0.011111083,-0.021296289,1,0,0,1.9853,rock_grid_rect_2,6,05,-1,-1,1.985,-0.361111111,-0.387962977,1,0,0,5.8071,Obsidian_rect,5,5.807,0,0,0,0,0,1,,,,,,,,,,,,
5658f4787d69570012dfe2d1,TCR,2024-06-10_14h16.53.374,LearnStrategy,2023.2.3,Win32,60.60606061,2,1,2,-0.021296254,-0.022222236,1,0,0,1.1739,rock_grid_rect_2,3,10,-1,-1,1.174,-0.349074081,-0.267592607,1,0,0,2.9451,Andesite_rect,1,2.945,0,1,0,1,0,1,,,,,,,,,,,,
5658f4787d69570012dfe2d1,TCR,2024-06-10_14h16.53.374,LearnStrategy,2023.2.3,Win32,60.60606061,2,1,3,-0.007407365,-0.005555577,1,0,0,0.9983,rock_grid_rect_2,4,13,-1,-1,0.998,-0.107407393,-0.236111111,1,0,0,2.1967,Basalt_rect,2,2.197,0,2,0,2,0,1,,,,,,,,,,,,
5658f4787d69570012dfe2d1,TCR,2024-06-10_14h16.53.374,LearnStrategy,2023.2.3,Win32,60.60606061,2,1,4,-0.045370384,-0.020370377,1,0,0,1.0482,rock_grid_rect_2,2,12,-1,-1,1.048,0.375,-0.385185171,1,0,0,2.2773,Pumice_rect,8,2.277,0,3,0,3,0,1,,,,,,,,,,,,
5658f4787d69570012dfe2d1,TCR,2024-06-10_14h16.53.374,LearnStrategy,2023.2.3,Win32,60.60606061,2,1,5,-0.010185171,0,1,0,0,1.4483,rock_grid_rect_2,4,03,-1,-1,1.448,-0.41574072,-0.265740783,1,0,0,3.605,Andesite_rect,1,3.605,0,4,0,4,0,1,,,,,,,,,,,,
5658f4787d69570012dfe2d1,TCR,2024-06-10_14h16.53.374,LearnStrategy,2023.2.3,Win32,60.60606061,2,1,6,-0.009259259,0.001851859,1,0,0,0.9306,rock_grid_rect_2,5,16,-1,-1,0.931,-0.369444423,-0.388888889,1,0,0,1.0788,Obsidian_rect,5,1.079,1,5,0,5,0,1,,,,,,,,,,,,
5658f4787d69570012dfe2d1,TCR,2024-06-10_14h16.53.374,LearnStrategy,2023.2.3,Win32,60.60606061,2,1,7,0.016666695,0.012962942,1,0,0,1.2986,rock_grid_rect_2,8,13,-1,-1,1.299,0.398148148,-0.400000042,1,0,0,1.4527,Pumice_rect,8,1.453,1,6,0,6,0,1,,,,,,,,,,,,
5658f4787d69570012dfe2d1,TCR,2024-06-10_14h16.53.374,LearnStrategy,2023.2.3,Win32,60.60606061,2,1,8,0.022222236,-0.0074074,1,0,0,1.382,rock_grid_rect_2,3,09,-1,-1,1.382,-0.373148141,-0.248148176,1,0,0,2.4848,Andesite_rect,1,2.485,0,7,0,7,0,1,,,,,,,,,,,,
5658f4787d69570012dfe2d1,TCR,2024-06-10_14h16.53.374,LearnStrategy,2023.2.3,Win32,60.60606061,2,1,9,-0.006481453,0.0074074,1,0,0,1.4331,rock_grid_rect_2,6,03,-1,-1,1.433,0.145370413,-0.400925954,1,0,0,4.8865,Peridotite_rect,7,4.886,0,8,0,8,0,1,,,,,,,,,,,,
5658f4787d69570012dfe2d1,TCR,2024-06-10_14h16.53.374,LearnStrategy,2023.2.3,Win32,60.60606061,2,1,10,-0.003703718,0.018518519,1,0,0,0.8818,rock_grid_rect_2,2,08,-1,-1,0.882,-0.373148141,-0.23055557,1,0,0,1.6516,Andesite_rect,1,1.652,0,9,0,9,0,1,,,,,,,,,,,,
5658f4787d69570012dfe2d1,TCR,2024-06-10_14h16.53.374,LearnStrategy,2023.2.3,Win32,60.60606061,2,1,11,0.010185171,0.000925912,1,0,0,1.1045,rock_grid_rect_2,6,15,-1,-1,1.104,0.160185213,-0.249074088,1,0,0,2.1564,Diorite_rect,3,2.156,0,10,0,10,0,1,,,,,,,,,,,,
5658f4787d69570012dfe2d1,TCR,2024-06-10_14h16.53.374,LearnStrategy,2023.2.3,Win32,60.60606061,2,1,12,0.011111153,-0.01666666,1,0,0,0.8983,rock_grid_rect_2,1,03,-1,-1,0.898,-0.384259259,-0.249074088,1,0,0,1.5794,Andesite_rect,1,1.579,1,11,0,11,0,1,,,,,,,,,,,,
5658f4787d69570012dfe2d1,TCR,2024-06-10_14h16.53.374,LearnStrategy,2023.2.3,Win32,60.60606061,2,1,13,-0.008333347,-0.00462963,1,0,0,0.9145,rock_grid_rect_2,4,13,-1,-1,0.915,-0.085185157,-0.237037023,1,0,0,1.2786,Basalt_rect,2,1.279,0,12,0,12,0,1,,,,,,,,,,,,
5658f4787d69570012dfe2d1,TCR,2024-06-10_14h16.53.374,LearnStrategy,2023.2.3,Win32,60.60606061,2,1,14,0.015740783,0.005555541,1,0,0,0.7987,rock_grid_rect_2,7,12,-1,-1,0.799,0.127777806,-0.389814801,1,0,0,3.7798,Peridotite_rect,7,3.78,1,13,0,13,0,1,,,,,,,,,,,,
5658f4787d69570012dfe2d1,TCR,2024-06-10_14h16.53.374,LearnStrategy,2023.2.3,Win32,60.60606061,2,1,15,-0.009259259,0.012962942,1,0,0,0.9309,rock_grid_rect_2,3,10,-1,-1,0.931,-0.392592571,-0.239814829,1,0,0,1.6959,Andesite_rect,1,1.696,0,14,0,14,0,1,,,,,,,,,,,,
5658f4787d69570012dfe2d1,TCR,2024-06-10_14h16.53.374,LearnStrategy,2023.2.3,Win32,60.60606061,2,1,16,-0.002777735,0.0074074,1,0,0,1.3157,rock_grid_rect_2,1,03,-1,-1,1.316,-0.424074067,-0.26944443,1,0,0,1.6276,Andesite_rect,1,1.628,1,15,0,15,0,1,,,,,,,,,,,,
5658f4787d69570012dfe2d1,TCR,2024-06-10_14h16.53.374,LearnStrategy,2023.2.3,Win32,60.60606061,2,2,1,,,,,,,,4,10,,,,,,,,,,,3,4.125,0,,,,,,0.15370369,-0.234259288,1,0,0,4.1248,Diorite_rect,0,0,0,0,1
5658f4787d69570012dfe2d1,TCR,2024-06-10_14h16.53.374,LearnStrategy,2023.2.3,Win32,60.60606061,2,2,2,,,,,,,,1,04,,,,,,,,,,,1,8.381,1,,,,,,-0.368518511,-0.252777806,1,0,0,8.3805,Andesite_rect,1,0,1,0,1
5658f4787d69570012dfe2d1,TCR,2024-06-10_14h16.53.374,LearnStrategy,2023.2.3,Win32,60.60606061,2,2,3,,,,,,,,6,11,,,,,,,,,,,5,1.322,0,,,,,,-0.369444423,-0.412962949,1,0,0,1.3216,Obsidian_rect,2,0,2,0,1
5658f4787d69570012dfe2d1,TCR,2024-06-10_14h16.53.374,LearnStrategy,2023.2.3,Win32,60.60606061,2,2,4,,,,,,,,1,09,,,,,,,,,,,1,3.757,1,,,,,,-0.374074053,-0.25,1,0,0,3.7565,Andesite_rect,3,0,3,0,1
5658f4787d69570012dfe2d1,TCR,2024-06-10_14h16.53.374,LearnStrategy,2023.2.3,Win32,60.60606061,2,2,5,,,,,,,,4,14,,,,,,,,,,,4,4.123,1,,,,,,0.425000085,-0.236111111,1,0,0,4.1229,Gabbro_rect,4,0,4,0,1
5658f4787d69570012dfe2d1,TCR,2024-06-10_14h16.53.374,LearnStrategy,2023.2.3,Win32,60.60606061,2,2,6,,,,,,,,5,11,,,,,,,,,,,5,1.09,1,,,,,,-0.369444423,-0.402777778,1,0,0,1.0905,Obsidian_rect,5,0,5,0,1
5658f4787d69570012dfe2d1,TCR,2024-06-10_14h16.53.374,LearnStrategy,2023.2.3,Win32,60.60606061,2,2,7,,,,,,,,5,09,,,,,,,,,,,5,1.032,1,,,,,,-0.375925912,-0.412962949,1,0,0,1.0317,Obsidian_rect,6,0,6,0,1
5658f4787d69570012dfe2d1,TCR,2024-06-10_14h16.53.374,LearnStrategy,2023.2.3,Win32,60.60606061,2,2,8,,,,,,,,7,04,,,,,,,,,,,7,1.925,1,,,,,,0.145370413,-0.412962949,1,0,0,1.9248,Peridotite_rect,7,0,7,0,1
5658f4787d69570012dfe2d1,TCR,2024-06-10_14h16.53.374,LearnStrategy,2023.2.3,Win32,60.60606061,2,2,9,,,,,,,,3,14,,,,,,,,,,,4,5.083,0,,,,,,0.40370376,-0.251851894,1,0,0,5.0833,Gabbro_rect,8,0,8,0,1
5658f4787d69570012dfe2d1,TCR,2024-06-10_14h16.53.374,LearnStrategy,2023.2.3,Win32,60.60606061,2,2,10,,,,,,,,6,16,,,,,,,,,,,5,3.131,0,,,,,,-0.417592578,-0.404629672,1,0,0,3.1313,Obsidian_rect,9,0,9,0,1
5658f4787d69570012dfe2d1,TCR,2024-06-10_14h16.53.374,LearnStrategy,2023.2.3,Win32,60.60606061,2,2,11,,,,,,,,2,11,,,,,,,,,,,2,2.224,1,,,,,,-0.087962963,-0.246296282,1,0,0,2.2245,Basalt_rect,10,0,10,0,1
5658f4787d69570012dfe2d1,TCR,2024-06-10_14h16.53.374,LearnStrategy,2023.2.3,Win32,60.60606061,2,2,12,,,,,,,,7,10,,,,,,,,,,,3,4.326,0,,,,,,0.188888903,-0.253703718,1,0,0,4.3262,Diorite_rect,11,0,11,0,1
5658f4787d69570012dfe2d1,TCR,2024-06-10_14h16.53.374,LearnStrategy,2023.2.3,Win32,60.60606061,2,2,13,,,,,,,,8,14,,,,,,,,,,,8,1.306,1,,,,,,0.406481566,-0.400925954,1,0,0,1.3064,Pumice_rect,12,0,12,0,1
5658f4787d69570012dfe2d1,TCR,2024-06-10_14h16.53.374,LearnStrategy,2023.2.3,Win32,60.60606061,2,2,14,,,,,,,,8,05,,,,,,,,,,,8,1.756,1,,,,,,0.415740826,-0.39907406,1,0,0,1.7562,Pumice_rect,13,0,13,0,1
5658f4787d69570012dfe2d1,TCR,2024-06-10_14h16.53.374,LearnStrategy,2023.2.3,Win32,60.60606061,2,2,15,,,,,,,,2,16,,,,,,,,,,,4,1.806,0,,,,,,0.433333362,-0.231481481,1,0,0,1.8062,Gabbro_rect,14,0,14,0,1
5658f4787d69570012dfe2d1,TCR,2024-06-10_14h16.53.374,LearnStrategy,2023.2.3,Win32,60.60606061,2,2,16,,,,,,,,3,13,,,,,,,,,,,7,3.774,0,,,,,,0.14444443,-0.416666667,1,0,0,3.7735,Peridotite_rect,15,0,15,0,1
5658f4787d69570012dfe2d1,TCR,2024-06-10_14h16.53.374,LearnStrategy,2023.2.3,Win32,60.60606061,3,1,1,0.063888903,0.00462963,1,0,0,1.5476,rock_grid_rect_2,6,15,-1,-1,1.548,-0.352777764,-0.404629672,1,0,0,2.0376,Obsidian_rect,5,2.038,0,0,0,0,0,1,,,,,,,,,,,,
5658f4787d69570012dfe2d1,TCR,2024-06-10_14h16.53.374,LearnStrategy,2023.2.3,Win32,60.60606061,3,1,2,-0.003703718,-0.014814836,1,0,0,1.0861,rock_grid_rect_2,3,07,-1,-1,1.086,-0.397222201,-0.252777806,1,0,0,11.5249,Andesite_rect,1,11.525,0,1,0,1,0,1,,,,,,,,,,,,
5658f4787d69570012dfe2d1,TCR,2024-06-10_14h16.53.374,LearnStrategy,2023.2.3,Win32,60.60606061,3,1,3,-0.009259259,0.001851859,1,0,0,0.8646,rock_grid_rect_2,4,13,-1,-1,0.865,-0.097222222,-0.240740741,1,0,0,3.4192,Basalt_rect,2,3.419,0,2,0,2,0,1,,,,,,,,,,,,
5658f4787d69570012dfe2d1,TCR,2024-06-10_14h16.53.374,LearnStrategy,2023.2.3,Win32,60.60606061,3,1,4,-0.02407406,0.000925912,1,0,0,0.8816,rock_grid_rect_2,4,16,-1,-1,0.882,-0.388888889,-0.228703746,1,0,0,2.108,Andesite_rect,1,2.108,0,3,0,3,0,1,,,,,,,,,,,,
5658f4787d69570012dfe2d1,TCR,2024-06-10_14h16.53.374,LearnStrategy,2023.2.3,Win32,60.60606061,3,1,5,-0.002777735,-0.005555577,1,0,0,0.8485,rock_grid_rect_2,7,05,-1,-1,0.849,0.138888889,-0.402777778,1,0,0,1.9311,Peridotite_rect,7,1.931,1,4,0,4,0,1,,,,,,,,,,,,
5658f4787d69570012dfe2d1,TCR,2024-06-10_14h16.53.374,LearnStrategy,2023.2.3,Win32,60.60606061,3,1,6,0.007407436,-0.01203703,1,0,0,0.8982,rock_grid_rect_2,4,15,-1,-1,0.898,0.414814843,-0.247222265,1,0,0,3.7346,Gabbro_rect,4,3.735,1,5,0,5,0,1,,,,,,,,,,,,
5658f4787d69570012dfe2d1,TCR,2024-06-10_14h16.53.374,LearnStrategy,2023.2.3,Win32,60.60606061,3,1,7,-0.014814801,0.008333312,1,0,0,0.9474,rock_grid_rect_2,6,09,-1,-1,0.947,0.123148176,-0.411111125,1,0,0,1.8781,Peridotite_rect,7,1.878,0,6,0,6,0,1,,,,,,,,,,,,
5658f4787d69570012dfe2d1,TCR,2024-06-10_14h16.53.374,LearnStrategy,2023.2.3,Win32,60.60606061,3,1,8,-0.01944443,-0.010185206,1,0,0,0.9326,rock_grid_rect_2,2,05,-1,-1,0.933,-0.388888889,-0.244444459,1,0,0,1.2738,Andesite_rect,1,1.274,0,7,0,7,0,1,,,,,,,,,,,,
5658f4787d69570012dfe2d1,TCR,2024-06-10_14h16.53.374,LearnStrategy,2023.2.3,Win32,60.60606061,3,1,9,-0.007407365,0,1,0,0,0.7987,rock_grid_rect_2,1,05,-1,-1,0.799,-0.417592578,-0.240740741,1,0,0,1.1945,Andesite_rect,1,1.194,1,8,0,8,0,1,,,,,,,,,,,,
5658f4787d69570012dfe2d1,TCR,2024-06-10_14h16.53.374,LearnStrategy,2023.2.3,Win32,60.60606061,3,1,10,0.005555541,0.001851859,1,0,0,0.7656,rock_grid_rect_2,1,01,-1,-1,0.766,-0.366666653,-0.381481524,1,0,0,2.2951,Obsidian_rect,5,2.295,0,9,0,9,0,1,,,,,,,,,,,,
5658f4787d69570012dfe2d1,TCR,2024-06-10_14h16.53.374,LearnStrategy,2023.2.3,Win32,60.60606061,3,1,11,-0.009259259,-0.003703718,1,0,0,0.8322,rock_grid_rect_2,2,05,-1,-1,0.832,-0.125,-0.250925912,1,0,0,2.1951,Basalt_rect,2,2.195,1,10,0,10,0,1,,,,,,,,,,,,
5658f4787d69570012dfe2d1,TCR,2024-06-10_14h16.53.374,LearnStrategy,2023.2.3,Win32,60.60606061,3,1,12,0.047222208,0.012962942,1,0,0,0.8483,rock_grid_rect_2,3,09,-1,-1,0.848,0.187962991,-0.238888917,1,0,0,2.4961,Diorite_rect,3,2.496,1,11,0,11,0,1,,,,,,,,,,,,
5658f4787d69570012dfe2d1,TCR,2024-06-10_14h16.53.374,LearnStrategy,2023.2.3,Win32,60.60606061,3,1,13,0.041666667,-0.000925947,1,0,0,0.865,rock_grid_rect_2,6,03,-1,-1,0.865,-0.364814794,-0.406481496,1,0,0,2.9045,Obsidian_rect,5,2.904,0,12,0,12,0,1,,,,,,,,,,,,
5658f4787d69570012dfe2d1,TCR,2024-06-10_14h16.53.374,LearnStrategy,2023.2.3,Win32,60.60606061,3,1,14,0.00462963,-0.005555577,1,0,0,0.8653,rock_grid_rect_2,5,16,-1,-1,0.865,-0.333333333,-0.397222236,1,0,0,1.1127,Obsidian_rect,5,1.113,1,13,0,13,0,1,,,,,,,,,,,,
5658f4787d69570012dfe2d1,TCR,2024-06-10_14h16.53.374,LearnStrategy,2023.2.3,Win32,60.60606061,3,1,15,0.011111153,0.01666666,1,0,0,1.1167,rock_grid_rect_2,3,07,-1,-1,1.117,0.18240745,-0.241666653,1,0,0,4.1737,Diorite_rect,3,4.174,1,14,0,14,0,1,,,,,,,,,,,,
5658f4787d69570012dfe2d1,TCR,2024-06-10_14h16.53.374,LearnStrategy,2023.2.3,Win32,60.60606061,3,1,16,0.005555541,-0.01666666,1,0,0,0.8642,rock_grid_rect_2,3,02,-1,-1,0.864,0.377777806,-0.234259288,1,0,0,4.3278,Gabbro_rect,4,4.328,0,15,0,15,0,1,,,,,,,,,,,,
5658f4787d69570012dfe2d1,TCR,2024-06-10_14h16.53.374,LearnStrategy,2023.2.3,Win32,60.60606061,3,2,1,,,,,,,,5,04,,,,,,,,,,,5,1.195,1,,,,,,-0.355555534,-0.385185171,1,0,0,1.1955,Obsidian_rect,0,0,0,0,1
5658f4787d69570012dfe2d1,TCR,2024-06-10_14h16.53.374,LearnStrategy,2023.2.3,Win32,60.60606061,3,2,2,,,,,,,,1,14,,,,,,,,,,,2,3.234,0,,,,,,-0.068518533,-0.250925912,1,0,0,3.2338,Basalt_rect,1,0,1,0,1
5658f4787d69570012dfe2d1,TCR,2024-06-10_14h16.53.374,LearnStrategy,2023.2.3,Win32,60.60606061,3,2,3,,,,,,,,4,11,,,,,,,,,,,1,2.595,0,,,,,,-0.38703703,-0.25,1,0,0,2.5946,Andesite_rect,2,0,2,0,1
5658f4787d69570012dfe2d1,TCR,2024-06-10_14h16.53.374,LearnStrategy,2023.2.3,Win32,60.60606061,3,2,4,,,,,,,,4,05,,,,,,,,,,,7,2.075,0,,,,,,0.162962949,-0.410185213,1,0,0,2.0747,Peridotite_rect,3,0,3,0,1
5658f4787d69570012dfe2d1,TCR,2024-06-10_14h16.53.374,LearnStrategy,2023.2.3,Win32,60.60606061,3,2,5,,,,,,,,3,08,,,,,,,,,,,6,1.509,0,,,,,,-0.083333333,-0.409259302,1,0,0,1.5093,Pegmatite_rect,4,0,4,0,1
5658f4787d69570012dfe2d1,TCR,2024-06-10_14h16.53.374,LearnStrategy,2023.2.3,Win32,60.60606061,3,2,6,,,,,,,,8,16,,,,,,,,,,,8,1.073,1,,,,,,0.420370455,-0.391666695,1,0,0,1.0727,Pumice_rect,5,0,5,0,1
5658f4787d69570012dfe2d1,TCR,2024-06-10_14h16.53.374,LearnStrategy,2023.2.3,Win32,60.60606061,3,2,7,,,,,,,,7,07,,,,,,,,,,,4,3.106,0,,,,,,0.387037065,-0.257407436,1,0,0,3.1064,Gabbro_rect,6,0,6,0,1
5658f4787d69570012dfe2d1,TCR,2024-06-10_14h16.53.374,LearnStrategy,2023.2.3,Win32,60.60606061,3,2,8,,,,,,,,7,15,,,,,,,,,,,7,1.615,1,,,,,,0.12037037,-0.414814843,1,0,0,1.6147,Peridotite_rect,7,0,7,0,1
5658f4787d69570012dfe2d1,TCR,2024-06-10_14h16.53.374,LearnStrategy,2023.2.3,Win32,60.60606061,3,2,9,,,,,,,,3,12,,,,,,,,,,,3,2.987,1,,,,,,0.101851852,-0.240740741,1,0,0,2.9866,Diorite_rect,8,0,8,0,1
5658f4787d69570012dfe2d1,TCR,2024-06-10_14h16.53.374,LearnStrategy,2023.2.3,Win32,60.60606061,3,2,10,,,,,,,,2,10,,,,,,,,,,,1,2.672,0,,,,,,-0.384259259,-0.24537037,1,0,0,2.6721,Andesite_rect,9,0,9,0,1
5658f4787d69570012dfe2d1,TCR,2024-06-10_14h16.53.374,LearnStrategy,2023.2.3,Win32,60.60606061,3,2,11,,,,,,,,5,08,,,,,,,,,,,5,1.007,1,,,,,,-0.39907406,-0.400000042,1,0,0,1.0072,Obsidian_rect,10,0,10,0,1
5658f4787d69570012dfe2d1,TCR,2024-06-10_14h16.53.374,LearnStrategy,2023.2.3,Win32,60.60606061,3,2,12,,,,,,,,6,13,,,,,,,,,,,6,1.948,1,,,,,,-0.083333333,-0.404629672,1,0,0,1.9476,Pegmatite_rect,11,0,11,0,1
5658f4787d69570012dfe2d1,TCR,2024-06-10_14h16.53.374,LearnStrategy,2023.2.3,Win32,60.60606061,3,2,13,,,,,,,,6,08,,,,,,,,,,,5,1.806,0,,,,,,-0.381481489,-0.385185171,1,0,0,1.8063,Obsidian_rect,12,0,12,0,1
5658f4787d69570012dfe2d1,TCR,2024-06-10_14h16.53.374,LearnStrategy,2023.2.3,Win32,60.60606061,3,2,14,,,,,,,,8,04,,,,,,,,,,,8,2.266,1,,,,,,0.437037009,-0.400925954,1,0,0,2.266,Pumice_rect,13,0,13,0,1
5658f4787d69570012dfe2d1,TCR,2024-06-10_14h16.53.374,LearnStrategy,2023.2.3,Win32,60.60606061,3,2,15,,,,,,,,2,01,,,,,,,,,,,1,1.539,0,,,,,,-0.381481489,-0.255555541,1,0,0,1.5391,Andesite_rect,14,0,14,0,1
5658f4787d69570012dfe2d1,TCR,2024-06-10_14h16.53.374,LearnStrategy,2023.2.3,Win32,60.60606061,3,2,16,,,,,,,,1,11,,,,,,,,,,,3,1.525,0,,,,,,0.189814815,-0.232407393,1,0,0,1.5251,Diorite_rect,15,0,15,0,1
5658f4787d69570012dfe2d1,TCR,2024-06-10_14h16.53.374,LearnStrategy,2023.2.3,Win32,60.60606061,4,1,1,0.042592578,0.020370377,1,0,0,4.3126,rock_grid_rect_2,4,09,-1,-1,4.313,0.392592677,-0.26944443,1,0,0,5.6955,Gabbro_rect,4,5.696,1,0,0,0,0,1,,,,,,,,,,,,
5658f4787d69570012dfe2d1,TCR,2024-06-10_14h16.53.374,LearnStrategy,2023.2.3,Win32,60.60606061,4,1,2,0.012037065,-0.001851859,1,0,0,1.1812,rock_grid_rect_2,3,06,-1,-1,1.181,0.155555584,-0.258333347,1,0,0,3.4962,Diorite_rect,3,3.496,1,1,0,1,0,1,,,,,,,,,,,,
5658f4787d69570012dfe2d1,TCR,2024-06-10_14h16.53.374,LearnStrategy,2023.2.3,Win32,60.60606061,4,1,3,-0.013888889,-0.002777771,1,0,0,1.0972,rock_grid_rect_2,1,07,-1,-1,1.097,-0.3675926,-0.237037023,1,0,0,2.3297,Andesite_rect,1,2.33,1,2,0,2,0,1,,,,,,,,,,,,
5658f4787d69570012dfe2d1,TCR,2024-06-10_14h16.53.374,LearnStrategy,2023.2.3,Win32,60.60606061,4,1,4,0.003703718,0.001851859,1,0,0,1.1481,rock_grid_rect_2,3,02,-1,-1,1.148,0.20185188,-0.244444459,1,0,0,2.596,Diorite_rect,3,2.596,1,3,0,3,0,1,,,,,,,,,,,,
5658f4787d69570012dfe2d1,TCR,2024-06-10_14h16.53.374,LearnStrategy,2023.2.3,Win32,60.60606061,4,1,5,0.016666695,-0.003703718,1,0,0,1.0817,rock_grid_rect_2,7,06,-1,-1,1.082,-0.092592593,-0.246296282,1,0,0,4.0786,Basalt_rect,2,4.079,0,4,0,4,0,1,,,,,,,,,,,,
5658f4787d69570012dfe2d1,TCR,2024-06-10_14h16.53.374,LearnStrategy,2023.2.3,Win32,60.60606061,4,1,6,-0.013888889,-0.024074095,1,0,0,0.8647,rock_grid_rect_2,3,06,-1,-1,0.865,0.183333362,-0.241666653,1,0,0,2.6456,Diorite_rect,3,2.646,1,5,0,5,0,1,,,,,,,,,,,,
5658f4787d69570012dfe2d1,TCR,2024-06-10_14h16.53.374,LearnStrategy,2023.2.3,Win32,60.60606061,4,1,7,0.075925968,-0.015740748,1,0,0,0.8812,rock_grid_rect_2,7,13,-1,-1,0.881,-0.085185157,-0.408333319,1,0,0,2.1616,Pegmatite_rect,6,2.162,0,6,0,6,0,1,,,,,,,,,,,,
5658f4787d69570012dfe2d1,TCR,2024-06-10_14h16.53.374,LearnStrategy,2023.2.3,Win32,60.60606061,4,1,8,0.069444444,-0.0074074,1,0,0,0.8147,rock_grid_rect_2,2,06,-1,-1,0.815,-0.372222229,-0.247222265,1,0,0,1.0855,Andesite_rect,1,1.086,0,7,0,7,0,1,,,,,,,,,,,,
5658f4787d69570012dfe2d1,TCR,2024-06-10_14h16.53.374,LearnStrategy,2023.2.3,Win32,60.60606061,4,1,9,0.066666709,-0.002777771,1,0,0,0.8022,rock_grid_rect_2,6,09,-1,-1,0.802,0.135185171,-0.404629672,1,0,0,2.0583,Peridotite_rect,7,2.058,0,8,0,8,0,1,,,,,,,,,,,,
5658f4787d69570012dfe2d1,TCR,2024-06-10_14h16.53.374,LearnStrategy,2023.2.3,Win32,60.60606061,4,1,10,0.025925954,-0.000925947,1,0,0,0.7488,rock_grid_rect_2,5,16,-1,-1,0.749,-0.3824074,-0.400925954,1,0,0,1.0132,Obsidian_rect,5,1.013,1,9,0,9,0,1,,,,,,,,,,,,
5658f4787d69570012dfe2d1,TCR,2024-06-10_14h16.53.374,LearnStrategy,2023.2.3,Win32,60.60606061,4,1,11,-0.007407365,-0.023148148,1,0,0,0.9318,rock_grid_rect_2,6,03,-1,-1,0.932,0.117592635,-0.420370384,1,0,0,11.5146,Peridotite_rect,7,11.515,0,10,0,10,0,1,,,,,,,,,,,,
5658f4787d69570012dfe2d1,TCR,2024-06-10_14h16.53.374,LearnStrategy,2023.2.3,Win32,60.60606061,4,1,12,0.002777806,-0.009259259,1,0,0,0.7982,rock_grid_rect_2,4,16,-1,-1,0.798,-0.126851824,-0.256481524,1,0,0,5.4297,Basalt_rect,2,5.43,0,11,0,11,0,1,,,,,,,,,,,,
5658f4787d69570012dfe2d1,TCR,2024-06-10_14h16.53.374,LearnStrategy,2023.2.3,Win32,60.60606061,4,1,13,0.003703718,0.009259259,1,0,0,0.8477,rock_grid_rect_2,1,05,-1,-1,0.848,0.192592621,-0.243518547,1,0,0,3.4248,Diorite_rect,3,3.425,0,12,0,12,0,1,,,,,,,,,,,,
5658f4787d69570012dfe2d1,TCR,2024-06-10_14h16.53.374,LearnStrategy,2023.2.3,Win32,60.60606061,4,1,14,0.033333319,0.018518519,1,0,0,0.7972,rock_grid_rect_2,2,08,-1,-1,0.797,-0.343518504,-0.263888889,1,0,0,1.9959,Andesite_rect,1,1.996,0,13,0,13,0,1,,,,,,,,,,,,
5658f4787d69570012dfe2d1,TCR,2024-06-10_14h16.53.374,LearnStrategy,2023.2.3,Win32,60.60606061,4,1,15,-0.020370342,0.003703683,1,0,0,0.7652,rock_grid_rect_2,6,09,-1,-1,0.765,0.122222265,-0.421296296,1,0,0,2.0794,Peridotite_rect,7,2.079,0,14,0,14,0,1,,,,,,,,,,,,
5658f4787d69570012dfe2d1,TCR,2024-06-10_14h16.53.374,LearnStrategy,2023.2.3,Win32,60.60606061,4,1,16,-0.012036995,-0.000925947,1,0,0,0.7814,rock_grid_rect_2,4,15,-1,-1,0.781,0.382407436,-0.260185171,1,0,0,2.4795,Gabbro_rect,4,2.48,1,15,0,15,0,1,,,,,,,,,,,,
5658f4787d69570012dfe2d1,TCR,2024-06-10_14h16.53.374,LearnStrategy,2023.2.3,Win32,60.60606061,4,2,1,,,,,,,,6,07,,,,,,,,,,,5,3.425,0,,,,,,-0.400000007,-0.409259302,1,0,0,3.4248,Obsidian_rect,0,0,0,0,1
5658f4787d69570012dfe2d1,TCR,2024-06-10_14h16.53.374,LearnStrategy,2023.2.3,Win32,60.60606061,4,2,2,,,,,,,,3,12,,,,,,,,,,,4,2.356,0,,,,,,0.404629601,-0.256481524,1,0,0,2.3557,Gabbro_rect,1,0,1,0,1
5658f4787d69570012dfe2d1,TCR,2024-06-10_14h16.53.374,LearnStrategy,2023.2.3,Win32,60.60606061,4,2,3,,,,,,,,7,14,,,,,,,,,,,3,3.374,0,,,,,,0.140740783,-0.270370413,1,0,0,3.3737,Diorite_rect,2,0,2,0,1
5658f4787d69570012dfe2d1,TCR,2024-06-10_14h16.53.374,LearnStrategy,2023.2.3,Win32,60.60606061,4,2,4,,,,,,,,1,09,,,,,,,,,,,1,3.606,1,,,,,,-0.385185171,-0.266666695,1,0,0,3.6059,Andesite_rect,3,0,3,0,1
5658f4787d69570012dfe2d1,TCR,2024-06-10_14h16.53.374,LearnStrategy,2023.2.3,Win32,60.60606061,4,2,5,,,,,,,,2,10,,,,,,,,,,,5,1.938,0,,,,,,-0.397222201,-0.393518519,1,0,0,1.9382,Obsidian_rect,4,0,4,0,1
5658f4787d69570012dfe2d1,TCR,2024-06-10_14h16.53.374,LearnStrategy,2023.2.3,Win32,60.60606061,4,2,6,,,,,,,,8,05,,,,,,,,,,,8,1.18,1,,,,,,0.401851937,-0.401851866,1,0,0,1.1803,Pumice_rect,5,0,5,0,1
5658f4787d69570012dfe2d1,TCR,2024-06-10_14h16.53.374,LearnStrategy,2023.2.3,Win32,60.60606061,4,2,7,,,,,,,,2,11,,,,,,,,,,,8,1.225,0,,,,,,0.390740712,-0.412962949,1,0,0,1.225,Pumice_rect,6,0,6,0,1
5658f4787d69570012dfe2d1,TCR,2024-06-10_14h16.53.374,LearnStrategy,2023.2.3,Win32,60.60606061,4,2,8,,,,,,,,5,04,,,,,,,,,,,5,0.981,1,,,,,,-0.386111118,-0.391666695,1,0,0,0.981,Obsidian_rect,7,0,7,0,1
5658f4787d69570012dfe2d1,TCR,2024-06-10_14h16.53.374,LearnStrategy,2023.2.3,Win32,60.60606061,4,2,9,,,,,,,,7,15,,,,,,,,,,,7,2.806,1,,,,,,0.164814843,-0.409259302,1,0,0,2.8064,Peridotite_rect,8,0,8,0,1
5658f4787d69570012dfe2d1,TCR,2024-06-10_14h16.53.374,LearnStrategy,2023.2.3,Win32,60.60606061,4,2,10,,,,,,,,4,05,,,,,,,,,,,6,1.057,0,,,,,,-0.118518476,-0.417592578,1,0,0,1.0574,Pegmatite_rect,9,0,9,0,1
5658f4787d69570012dfe2d1,TCR,2024-06-10_14h16.53.374,LearnStrategy,2023.2.3,Win32,60.60606061,4,2,11,,,,,,,,8,03,,,,,,,,,,,8,1.592,1,,,,,,0.406481566,-0.409259302,1,0,0,1.592,Pumice_rect,10,0,10,0,1
5658f4787d69570012dfe2d1,TCR,2024-06-10_14h16.53.374,LearnStrategy,2023.2.3,Win32,60.60606061,4,2,12,,,,,,,,3,14,,,,,,,,,,,4,1.94,0,,,,,,0.417592649,-0.26944443,1,0,0,1.9396,Gabbro_rect,11,0,11,0,1
5658f4787d69570012dfe2d1,TCR,2024-06-10_14h16.53.374,LearnStrategy,2023.2.3,Win32,60.60606061,4,2,13,,,,,,,,4,12,,,,,,,,,,,3,3.358,0,,,,,,0.176851838,-0.252777806,1,0,0,3.3583,Diorite_rect,12,0,12,0,1
5658f4787d69570012dfe2d1,TCR,2024-06-10_14h16.53.374,LearnStrategy,2023.2.3,Win32,60.60606061,4,2,14,,,,,,,,1,11,,,,,,,,,,,1,2.274,1,,,,,,-0.36296297,-0.246296282,1,0,0,2.2739,Andesite_rect,13,0,13,0,1
5658f4787d69570012dfe2d1,TCR,2024-06-10_14h16.53.374,LearnStrategy,2023.2.3,Win32,60.60606061,4,2,15,,,,,,,,6,11,,,,,,,,,,,6,6.875,1,,,,,,-0.198148162,-0.380555541,1,0,0,6.8753,Pegmatite_rect,14,0,14,0,1
5658f4787d69570012dfe2d1,TCR,2024-06-10_14h16.53.374,LearnStrategy,2023.2.3,Win32,60.60606061,4,2,16,,,,,,,,5,11,,,,,,,,,,,5,0.892,1,,,,,,-0.378703683,-0.401851866,1,0,0,0.8917,Obsidian_rect,15,0,15,0,1
5658f4787d69570012dfe2d1,TCR,2024-06-10_14h16.53.374,LearnStrategy,2023.2.3,Win32,60.60606061,5,1,1,0.036111125,-0.002777771,1,0,0,1.2802,rock_grid_rect_2,1,16,-1,-1,1.28,0.41851849,-0.25,1,0,0,11.2799,Gabbro_rect,4,11.28,0,0,0,0,0,1,,,,,,,,,,,,
5658f4787d69570012dfe2d1,TCR,2024-06-10_14h16.53.374,LearnStrategy,2023.2.3,Win32,60.60606061,5,1,2,0,-0.006481489,1,0,0,0.9144,rock_grid_rect_2,6,06,-1,-1,0.914,0.416666667,-0.39907406,1,0,0,4.2973,Pumice_rect,8,4.297,0,1,0,1,0,1,,,,,,,,,,,,
5658f4787d69570012dfe2d1,TCR,2024-06-10_14h16.53.374,LearnStrategy,2023.2.3,Win32,60.60606061,5,1,3,-0.016666624,-0.008333347,1,0,0,0.8646,rock_grid_rect_2,3,06,-1,-1,0.865,0.178703732,-0.246296282,1,0,0,7.079,Diorite_rect,3,7.079,1,2,0,2,0,1,,,,,,,,,,,,
5658f4787d69570012dfe2d1,TCR,2024-06-10_14h16.53.374,LearnStrategy,2023.2.3,Win32,60.60606061,5,1,4,0.035185213,0.005555541,1,0,0,0.8641,rock_grid_rect_2,3,02,-1,-1,0.864,0.168518561,-0.243518547,1,0,0,3.1623,Diorite_rect,3,3.162,1,3,0,3,0,1,,,,,,,,,,,,
5658f4787d69570012dfe2d1,TCR,2024-06-10_14h16.53.374,LearnStrategy,2023.2.3,Win32,60.60606061,5,1,5,0.023148148,0.003703683,1,0,0,0.8977,rock_grid_rect_2,3,09,-1,-1,0.898,0.416666667,-0.264814801,1,0,0,2.4964,Gabbro_rect,4,2.496,0,4,0,4,0,1,,,,,,,,,,,,
5658f4787d69570012dfe2d1,TCR,2024-06-10_14h16.53.374,LearnStrategy,2023.2.3,Win32,60.60606061,5,1,6,0.014814801,-0.012962977,1,0,0,0.8142,rock_grid_rect_2,2,06,-1,-1,0.814,-0.099999958,-0.237037023,1,0,0,1.9613,Basalt_rect,2,1.961,1,5,0,5,0,1,,,,,,,,,,,,
5658f4787d69570012dfe2d1,TCR,2024-06-10_14h16.53.374,LearnStrategy,2023.2.3,Win32,60.60606061,5,1,7,-0.023148148,0.0074074,1,0,0,1.3318,rock_grid_rect_2,1,02,-1,-1,1.332,-0.39166666,-0.25462963,1,0,0,2.0448,Andesite_rect,1,2.045,1,6,0,6,0,1,,,,,,,,,,,,
5658f4787d69570012dfe2d1,TCR,2024-06-10_14h16.53.374,LearnStrategy,2023.2.3,Win32,60.60606061,5,1,8,-0.012962977,0.009259259,1,0,0,0.7983,rock_grid_rect_2,7,05,-1,-1,0.798,0.139814801,-0.401851866,1,0,0,5.3365,Peridotite_rect,7,5.337,1,7,0,7,0,1,,,,,,,,,,,,
5658f4787d69570012dfe2d1,TCR,2024-06-10_14h16.53.374,LearnStrategy,2023.2.3,Win32,60.60606061,5,1,9,-0.012036995,-0.005555577,1,0,0,0.7313,rock_grid_rect_2,4,09,-1,-1,0.731,-0.389814801,-0.393518519,1,0,0,2.7795,Obsidian_rect,5,2.779,0,8,0,8,0,1,,,,,,,,,,,,
5658f4787d69570012dfe2d1,TCR,2024-06-10_14h16.53.374,LearnStrategy,2023.2.3,Win32,60.60606061,5,1,10,0.032407407,-0.019444466,1,0,0,1.4975,rock_grid_rect_2,2,12,-1,-1,1.498,0.404629601,-0.415740755,1,0,0,1.6313,Pumice_rect,8,1.631,0,9,0,9,0,1,,,,,,,,,,,,
5658f4787d69570012dfe2d1,TCR,2024-06-10_14h16.53.374,LearnStrategy,2023.2.3,Win32,60.60606061,5,1,11,0.000925912,0.01944443,1,0,0,0.7829,rock_grid_rect_2,5,06,-1,-1,0.783,-0.428703697,-0.40370369,1,0,0,1.1286,Obsidian_rect,5,1.129,1,10,0,10,0,1,,,,,,,,,,,,
5658f4787d69570012dfe2d1,TCR,2024-06-10_14h16.53.374,LearnStrategy,2023.2.3,Win32,60.60606061,5,1,12,-0.005555541,0,1,0,0,1.8155,rock_grid_rect_2,6,15,-1,-1,1.815,-0.12037037,-0.410185213,1,0,0,2.3789,Pegmatite_rect,6,2.379,1,11,0,11,0,1,,,,,,,,,,,,
5658f4787d69570012dfe2d1,TCR,2024-06-10_14h16.53.374,LearnStrategy,2023.2.3,Win32,60.60606061,5,1,13,0.026851866,0.00462963,1,0,0,0.7483,rock_grid_rect_2,7,06,-1,-1,0.748,0.141666695,-0.409259302,1,0,0,1.9781,Peridotite_rect,7,1.978,1,12,0,12,0,1,,,,,,,,,,,,
5658f4787d69570012dfe2d1,TCR,2024-06-10_14h16.53.374,LearnStrategy,2023.2.3,Win32,60.60606061,5,1,14,-0.014814801,-0.002777771,1,0,0,0.7992,rock_grid_rect_2,4,08,-1,-1,0.799,-0.428703697,-0.234259288,1,0,0,2.2878,Andesite_rect,1,2.288,0,13,0,13,0,1,,,,,,,,,,,,
5658f4787d69570012dfe2d1,TCR,2024-06-10_14h16.53.374,LearnStrategy,2023.2.3,Win32,60.60606061,5,1,15,-0.049074032,0.001851859,1,0,0,0.7294,rock_grid_rect_2,4,03,-1,-1,0.729,-0.39444443,-0.251851894,1,0,0,1.5485,Andesite_rect,1,1.548,0,14,0,14,0,1,,,,,,,,,,,,
5658f4787d69570012dfe2d1,TCR,2024-06-10_14h16.53.374,LearnStrategy,2023.2.3,Win32,60.60606061,5,1,16,0.007407436,0.022222201,1,0,0,0.7156,rock_grid_rect_2,2,06,-1,-1,0.716,-0.152777778,-0.235185199,1,0,0,1.7281,Basalt_rect,2,1.728,1,15,0,15,0,1,,,,,,,,,,,,
5658f4787d69570012dfe2d1,TCR,2024-06-10_14h16.53.374,LearnStrategy,2023.2.3,Win32,60.60606061,5,2,1,,,,,,,,6,08,,,,,,,,,,,7,5.706,0,,,,,,0.133333347,-0.411111125,1,0,0,5.7064,Peridotite_rect,0,0,0,0,1
5658f4787d69570012dfe2d1,TCR,2024-06-10_14h16.53.374,LearnStrategy,2023.2.3,Win32,60.60606061,5,2,2,,,,,,,,1,06,,,,,,,,,,,4,4.223,0,,,,,,0.460185157,-0.249074088,1,0,0,4.2232,Gabbro_rect,1,0,1,0,1
5658f4787d69570012dfe2d1,TCR,2024-06-10_14h16.53.374,LearnStrategy,2023.2.3,Win32,60.60606061,5,2,3,,,,,,,,6,10,,,,,,,,,,,6,3.86,1,,,,,,-0.127777735,-0.416666667,1,0,0,3.8598,Pegmatite_rect,2,0,2,0,1
5658f4787d69570012dfe2d1,TCR,2024-06-10_14h16.53.374,LearnStrategy,2023.2.3,Win32,60.60606061,5,2,4,,,,,,,,3,15,,,,,,,,,,,1,2.089,0,,,,,,-0.359259252,-0.237037023,1,0,0,2.0895,Andesite_rect,3,0,3,0,1
5658f4787d69570012dfe2d1,TCR,2024-06-10_14h16.53.374,LearnStrategy,2023.2.3,Win32,60.60606061,5,2,5,,,,,,,,7,07,,,,,,,,,,,4,1.806,0,,,,,,0.399999972,-0.25,1,0,0,1.8064,Gabbro_rect,4,0,4,0,1
5658f4787d69570012dfe2d1,TCR,2024-06-10_14h16.53.374,LearnStrategy,2023.2.3,Win32,60.60606061,5,2,6,,,,,,,,1,10,,,,,,,,,,,3,3.281,0,,,,,,0.157407407,-0.247222265,1,0,0,3.281,Diorite_rect,5,0,5,0,1
5658f4787d69570012dfe2d1,TCR,2024-06-10_14h16.53.374,LearnStrategy,2023.2.3,Win32,60.60606061,5,2,7,,,,,,,,8,02,,,,,,,,,,,8,1.19,1,,,,,,0.381481453,-0.411111125,1,0,0,1.1896,Pumice_rect,6,0,6,0,1
5658f4787d69570012dfe2d1,TCR,2024-06-10_14h16.53.374,LearnStrategy,2023.2.3,Win32,60.60606061,5,2,8,,,,,,,,7,04,,,,,,,,,,,6,1.808,0,,,,,,-0.152777778,-0.416666667,1,0,0,1.8083,Pegmatite_rect,7,0,7,0,1
5658f4787d69570012dfe2d1,TCR,2024-06-10_14h16.53.374,LearnStrategy,2023.2.3,Win32,60.60606061,5,2,9,,,,,,,,3,08,,,,,,,,,,,4,4.232,0,,,,,,0.402777778,-0.236111111,1,0,0,4.2319,Gabbro_rect,8,0,8,0,1
5658f4787d69570012dfe2d1,TCR,2024-06-10_14h16.53.374,LearnStrategy,2023.2.3,Win32,60.60606061,5,2,10,,,,,,,,2,09,,,,,,,,,,,2,1.198,1,,,,,,-0.117592564,-0.23055557,1,0,0,1.1982,Basalt_rect,9,0,9,0,1
5658f4787d69570012dfe2d1,TCR,2024-06-10_14h16.53.374,LearnStrategy,2023.2.3,Win32,60.60606061,5,2,11,,,,,,,,4,01,,,,,,,,,,,1,1.348,0,,,,,,-0.335185192,-0.251851894,1,0,0,1.3479,Andesite_rect,10,0,10,0,1
5658f4787d69570012dfe2d1,TCR,2024-06-10_14h16.53.374,LearnStrategy,2023.2.3,Win32,60.60606061,5,2,12,,,,,,,,2,16,,,,,,,,,,,2,1.637,1,,,,,,-0.097222222,-0.243518547,1,0,0,1.6366,Basalt_rect,11,0,11,0,1
5658f4787d69570012dfe2d1,TCR,2024-06-10_14h16.53.374,LearnStrategy,2023.2.3,Win32,60.60606061,5,2,13,,,,,,,,4,10,,,,,,,,,,,4,3.99,1,,,,,,0.366666723,-0.251851894,1,0,0,3.9902,Gabbro_rect,12,0,12,0,1
5658f4787d69570012dfe2d1,TCR,2024-06-10_14h16.53.374,LearnStrategy,2023.2.3,Win32,60.60606061,5,2,14,,,,,,,,5,10,,,,,,,,,,,5,1.82,1,,,,,,-0.3824074,-0.407407407,1,0,0,1.82,Obsidian_rect,13,0,13,0,1
5658f4787d69570012dfe2d1,TCR,2024-06-10_14h16.53.374,LearnStrategy,2023.2.3,Win32,60.60606061,5,2,15,,,,,,,,8,14,,,,,,,,,,,8,1.083,1,,,,,,0.382407436,-0.389814801,1,0,0,1.083,Pumice_rect,14,0,14,0,1
5658f4787d69570012dfe2d1,TCR,2024-06-10_14h16.53.374,LearnStrategy,2023.2.3,Win32,60.60606061,5,2,16,,,,,,,,5,08,,,,,,,,,,,5,1.019,1,,,,,,-0.375,-0.405555584,1,0,0,1.0185,Obsidian_rect,15,0,15,0,1
5658f4787d69570012dfe2d1,TCR,2024-06-10_14h16.53.374,LearnStrategy,2023.2.3,Win32,60.60606061,6,1,1,0.050000014,0.003703683,1,0,0,1.8806,rock_grid_rect_2,1,05,-1,-1,1.881,-0.39166666,-0.256481524,1,0,0,3.6554,Andesite_rect,1,3.655,1,0,0,0,0,1,,,,,,,,,,,,
5658f4787d69570012dfe2d1,TCR,2024-06-10_14h16.53.374,LearnStrategy,2023.2.3,Win32,60.60606061,6,1,2,-0.012962977,0.001851859,1,0,0,1.0018,rock_grid_rect_2,6,12,-1,-1,1.002,0.173148191,-0.26944443,1,0,0,3.775,Diorite_rect,3,3.775,0,1,0,1,0,1,,,,,,,,,,,,
5658f4787d69570012dfe2d1,TCR,2024-06-10_14h16.53.374,LearnStrategy,2023.2.3,Win32,60.60606061,6,1,3,-0.038888861,-0.009259259,1,0,0,0.8979,rock_grid_rect_2,4,13,-1,-1,0.898,0.425925926,-0.231481481,1,0,0,3.3614,Gabbro_rect,4,3.361,1,2,0,2,0,1,,,,,,,,,,,,
5658f4787d69570012dfe2d1,TCR,2024-06-10_14h16.53.374,LearnStrategy,2023.2.3,Win32,60.60606061,6,1,4,0.007407436,-0.000925947,1,0,0,0.881,rock_grid_rect_2,1,07,-1,-1,0.881,0.180555556,-0.235185199,1,0,0,5.9791,Diorite_rect,3,5.979,0,3,0,3,0,1,,,,,,,,,,,,
5658f4787d69570012dfe2d1,TCR,2024-06-10_14h16.53.374,LearnStrategy,2023.2.3,Win32,60.60606061,6,1,5,0.048148191,0.017592571,1,0,0,0.899,rock_grid_rect_2,7,08,-1,-1,0.899,0.387963048,-0.258333347,1,0,0,3.6632,Gabbro_rect,4,3.663,0,4,0,4,0,1,,,,,,,,,,,,
5658f4787d69570012dfe2d1,TCR,2024-06-10_14h16.53.374,LearnStrategy,2023.2.3,Win32,60.60606061,6,1,6,0.034259302,0.006481489,1,0,0,0.8317,rock_grid_rect_2,4,09,-1,-1,0.832,-0.37037037,-0.396296325,1,0,0,1.5875,Obsidian_rect,5,1.587,0,5,0,5,0,1,,,,,,,,,,,,
5658f4787d69570012dfe2d1,TCR,2024-06-10_14h16.53.374,LearnStrategy,2023.2.3,Win32,60.60606061,6,1,7,0.033333319,0.021296289,1,0,0,0.6829,rock_grid_rect_2,6,03,-1,-1,0.683,-0.349074081,-0.385185171,1,0,0,1.9415,Obsidian_rect,5,1.942,0,6,0,6,0,1,,,,,,,,,,,,
5658f4787d69570012dfe2d1,TCR,2024-06-10_14h16.53.374,LearnStrategy,2023.2.3,Win32,60.60606061,6,1,8,0.013888889,-0.008333347,1,0,0,0.7477,rock_grid_rect_2,3,06,-1,-1,0.748,0.186111097,-0.241666653,1,0,0,1.5645,Diorite_rect,3,1.564,1,7,0,7,0,1,,,,,,,,,,,,
5658f4787d69570012dfe2d1,TCR,2024-06-10_14h16.53.374,LearnStrategy,2023.2.3,Win32,60.60606061,6,1,9,0.064814815,-0.002777771,1,0,0,0.7813,rock_grid_rect_2,2,14,-1,-1,0.781,-0.389814801,-0.241666653,1,0,0,3.412,Andesite_rect,1,3.412,0,8,0,8,0,1,,,,,,,,,,,,
5658f4787d69570012dfe2d1,TCR,2024-06-10_14h16.53.374,LearnStrategy,2023.2.3,Win32,60.60606061,6,1,10,0.061111097,0.021296289,1,0,0,0.7146,rock_grid_rect_2,7,13,-1,-1,0.715,-0.130555541,-0.402777778,1,0,0,2.2284,Pegmatite_rect,6,2.228,0,9,0,9,0,1,,,,,,,,,,,,
5658f4787d69570012dfe2d1,TCR,2024-06-10_14h16.53.374,LearnStrategy,2023.2.3,Win32,60.60606061,6,1,11,0.050925926,0.020370377,1,0,0,0.7309,rock_grid_rect_2,2,08,-1,-1,0.731,-0.152777778,-0.24537037,1,0,0,2.1791,Basalt_rect,2,2.179,1,10,0,10,0,1,,,,,,,,,,,,
5658f4787d69570012dfe2d1,TCR,2024-06-10_14h16.53.374,LearnStrategy,2023.2.3,Win32,60.60606061,6,1,12,0.022222236,0.015740748,1,0,0,0.765,rock_grid_rect_2,5,12,-1,-1,0.765,-0.375925912,-0.37962963,1,0,0,0.929,Obsidian_rect,5,0.929,1,11,0,11,0,1,,,,,,,,,,,,
5658f4787d69570012dfe2d1,TCR,2024-06-10_14h16.53.374,LearnStrategy,2023.2.3,Win32,60.60606061,6,1,13,0.007407436,0.00462963,1,0,0,0.9151,rock_grid_rect_2,3,02,-1,-1,0.915,0.169444473,-0.244444459,1,0,0,4.1123,Diorite_rect,3,4.112,1,12,0,12,0,1,,,,,,,,,,,,
5658f4787d69570012dfe2d1,TCR,2024-06-10_14h16.53.374,LearnStrategy,2023.2.3,Win32,60.60606061,6,1,14,0.017592607,0.01666666,1,0,0,0.8492,rock_grid_rect_2,1,16,-1,-1,0.849,-0.378703683,-0.253703718,1,0,0,2.3624,Andesite_rect,1,2.362,1,13,0,13,0,1,,,,,,,,,,,,
5658f4787d69570012dfe2d1,TCR,2024-06-10_14h16.53.374,LearnStrategy,2023.2.3,Win32,60.60606061,6,1,15,-0.016666624,-0.002777771,1,0,0,0.914,rock_grid_rect_2,3,11,-1,-1,0.914,0.416666667,-0.252777806,1,0,0,2.8289,Gabbro_rect,4,2.829,0,14,0,14,0,1,,,,,,,,,,,,
5658f4787d69570012dfe2d1,TCR,2024-06-10_14h16.53.374,LearnStrategy,2023.2.3,Win32,60.60606061,6,1,16,-0.020370342,-0.002777771,1,0,0,0.8481,rock_grid_rect_2,4,16,-1,-1,0.848,-0.110185199,-0.260185171,1,0,0,3.2958,Basalt_rect,2,3.296,0,15,0,15,0,1,,,,,,,,,,,,
5658f4787d69570012dfe2d1,TCR,2024-06-10_14h16.53.374,LearnStrategy,2023.2.3,Win32,60.60606061,6,2,1,,,,,,,,1,14,,,,,,,,,,,1,5.597,1,,,,,,-0.41111109,-0.260185171,1,0,0,5.5973,Andesite_rect,0,0,0,0,1
5658f4787d69570012dfe2d1,TCR,2024-06-10_14h16.53.374,LearnStrategy,2023.2.3,Win32,60.60606061,6,2,2,,,,,,,,8,04,,,,,,,,,,,8,1.357,1,,,,,,0.400925954,-0.420370384,1,0,0,1.3569,Pumice_rect,1,0,1,0,1
5658f4787d69570012dfe2d1,TCR,2024-06-10_14h16.53.374,LearnStrategy,2023.2.3,Win32,60.60606061,6,2,3,,,,,,,,6,16,,,,,,,,,,,5,4.907,0,,,,,,-0.393518519,-0.390740783,1,0,0,4.9069,Obsidian_rect,2,0,2,0,1
5658f4787d69570012dfe2d1,TCR,2024-06-10_14h16.53.374,LearnStrategy,2023.2.3,Win32,60.60606061,6,2,4,,,,,,,,4,11,,,,,,,,,,,2,2.223,0,,,,,,-0.117592564,-0.23055557,1,0,0,2.2235,Basalt_rect,3,0,3,0,1
5658f4787d69570012dfe2d1,TCR,2024-06-10_14h16.53.374,LearnStrategy,2023.2.3,Win32,60.60606061,6,2,5,,,,,,,,6,13,,,,,,,,,,,7,3.707,0,,,,,,0.174074102,-0.414814843,1,0,0,3.7069,Peridotite_rect,4,0,4,0,1
5658f4787d69570012dfe2d1,TCR,2024-06-10_14h16.53.374,LearnStrategy,2023.2.3,Win32,60.60606061,6,2,6,,,,,,,,3,13,,,,,,,,,,,3,2.307,1,,,,,,0.147222236,-0.233333376,1,0,0,2.3068,Diorite_rect,5,0,5,0,1
5658f4787d69570012dfe2d1,TCR,2024-06-10_14h16.53.374,LearnStrategy,2023.2.3,Win32,60.60606061,6,2,7,,,,,,,,5,05,,,,,,,,,,,5,1.424,1,,,,,,-0.392592571,-0.388888889,1,0,0,1.4238,Obsidian_rect,6,0,6,0,1
5658f4787d69570012dfe2d1,TCR,2024-06-10_14h16.53.374,LearnStrategy,2023.2.3,Win32,60.60606061,6,2,8,,,,,,,,2,02,,,,,,,,,,,2,1.257,1,,,,,,-0.152777778,-0.248148176,1,0,0,1.2566,Basalt_rect,7,0,7,0,1
5658f4787d69570012dfe2d1,TCR,2024-06-10_14h16.53.374,LearnStrategy,2023.2.3,Win32,60.60606061,6,2,9,,,,,,,,5,09,,,,,,,,,,,5,1.015,1,,,,,,-0.408333319,-0.389814801,1,0,0,1.0155,Obsidian_rect,8,0,8,0,1
5658f4787d69570012dfe2d1,TCR,2024-06-10_14h16.53.374,LearnStrategy,2023.2.3,Win32,60.60606061,6,2,10,,,,,,,,7,10,,,,,,,,,,,3,2.356,0,,,,,,0.195370356,-0.249074088,1,0,0,2.3564,Diorite_rect,9,0,9,0,1
5658f4787d69570012dfe2d1,TCR,2024-06-10_14h16.53.374,LearnStrategy,2023.2.3,Win32,60.60606061,6,2,11,,,,,,,,7,16,,,,,,,,,,,4,3.633,0,,,,,,0.444444444,-0.248148176,1,0,0,3.6329,Gabbro_rect,10,0,10,0,1
5658f4787d69570012dfe2d1,TCR,2024-06-10_14h16.53.374,LearnStrategy,2023.2.3,Win32,60.60606061,6,2,12,,,,,,,,4,14,,,,,,,,,,,1,4.99,0,,,,,,-0.404629637,-0.25,1,0,0,4.9905,Andesite_rect,11,0,11,0,1
5658f4787d69570012dfe2d1,TCR,2024-06-10_14h16.53.374,LearnStrategy,2023.2.3,Win32,60.60606061,6,2,13,,,,,,,,3,16,,,,,,,,,,,2,1.944,0,,,,,,-0.099999958,-0.249074088,1,0,0,1.9436,Basalt_rect,12,0,12,0,1
5658f4787d69570012dfe2d1,TCR,2024-06-10_14h16.53.374,LearnStrategy,2023.2.3,Win32,60.60606061,6,2,14,,,,,,,,2,01,,,,,,,,,,,2,1.157,1,,,,,,-0.112037023,-0.239814829,1,0,0,1.157,Basalt_rect,13,0,13,0,1
5658f4787d69570012dfe2d1,TCR,2024-06-10_14h16.53.374,LearnStrategy,2023.2.3,Win32,60.60606061,6,2,15,,,,,,,,8,16,,,,,,,,,,,8,1.159,1,,,,,,0.396296325,-0.411111125,1,0,0,1.1586,Pumice_rect,14,0,14,0,1
5658f4787d69570012dfe2d1,TCR,2024-06-10_14h16.53.374,LearnStrategy,2023.2.3,Win32,60.60606061,6,2,16,,,,,,,,1,04,,,,,,,,,,,1,5.041,1,,,,,,-0.381481489,-0.260185171,1,0,0,5.041,Andesite_rect,15,0,15,0,1
5658f4787d69570012dfe2d1,TCR,2024-06-10_14h16.53.374,LearnStrategy,2023.2.3,Win32,60.60606061,7,1,1,0.025000042,0.000925912,1,0,0,1.33,rock_grid_rect_2,3,10,-1,-1,1.33,-0.380555541,-0.243518547,1,0,0,3.4286,Andesite_rect,1,3.429,0,0,0,0,0,1,,,,,,,,,,,,
5658f4787d69570012dfe2d1,TCR,2024-06-10_14h16.53.374,LearnStrategy,2023.2.3,Win32,60.60606061,7,1,2,0.010185171,0.01203703,1,0,0,0.8145,rock_grid_rect_2,4,03,-1,-1,0.814,-0.412037037,-0.232407393,1,0,0,2.9777,Andesite_rect,1,2.978,0,1,0,1,0,1,,,,,,,,,,,,
5658f4787d69570012dfe2d1,TCR,2024-06-10_14h16.53.374,LearnStrategy,2023.2.3,Win32,60.60606061,7,1,3,0.012962977,-0.000925947,1,0,0,0.7644,rock_grid_rect_2,5,06,-1,-1,0.764,-0.387962942,-0.400000042,1,0,0,1.1451,Obsidian_rect,5,1.145,1,2,0,2,0,1,,,,,,,,,,,,
5658f4787d69570012dfe2d1,TCR,2024-06-10_14h16.53.374,LearnStrategy,2023.2.3,Win32,60.60606061,7,1,4,0,-0.00462963,1,0,0,0.8151,rock_grid_rect_2,6,09,-1,-1,0.815,0.14907406,-0.412962949,1,0,0,2.0782,Peridotite_rect,7,2.078,0,3,0,3,0,1,,,,,,,,,,,,
5658f4787d69570012dfe2d1,TCR,2024-06-10_14h16.53.374,LearnStrategy,2023.2.3,Win32,60.60606061,7,1,5,0.01944443,-0.01203703,1,0,0,1.448,rock_grid_rect_2,2,12,-1,-1,1.448,0.40833339,-0.412962949,1,0,0,1.447,Pumice_rect,8,1.447,0,4,0,4,0,1,,,,,,,,,,,,
5658f4787d69570012dfe2d1,TCR,2024-06-10_14h16.53.374,LearnStrategy,2023.2.3,Win32,60.60606061,7,1,6,0.011111153,-0.0074074,1,0,0,0.8655,rock_grid_rect_2,6,15,-1,-1,0.866,0.150925954,-0.413888931,1,0,0,3.2118,Peridotite_rect,7,3.212,0,5,0,5,0,1,,,,,,,,,,,,
5658f4787d69570012dfe2d1,TCR,2024-06-10_14h16.53.374,LearnStrategy,2023.2.3,Win32,60.60606061,7,1,7,0.045370384,-0.012962977,1,0,0,0.6978,rock_grid_rect_2,7,12,-1,-1,0.698,0.165740755,-0.255555541,1,0,0,3.0622,Diorite_rect,3,3.062,0,6,0,6,0,1,,,,,,,,,,,,
5658f4787d69570012dfe2d1,TCR,2024-06-10_14h16.53.374,LearnStrategy,2023.2.3,Win32,60.60606061,7,1,8,0.039814843,0.006481489,1,0,0,0.7321,rock_grid_rect_2,4,15,-1,-1,0.732,0.396296325,-0.258333347,1,0,0,1.2451,Gabbro_rect,4,1.245,1,7,0,7,0,1,,,,,,,,,,,,
5658f4787d69570012dfe2d1,TCR,2024-06-10_14h16.53.374,LearnStrategy,2023.2.3,Win32,60.60606061,7,1,9,0.012962977,0.005555541,1,0,0,0.6814,rock_grid_rect_2,6,12,-1,-1,0.681,0.158333319,-0.247222265,1,0,0,1.3124,Diorite_rect,3,1.312,0,8,0,8,0,1,,,,,,,,,,,,
5658f4787d69570012dfe2d1,TCR,2024-06-10_14h16.53.374,LearnStrategy,2023.2.3,Win32,60.60606061,7,1,10,-0.003703718,-0.003703718,1,0,0,0.6656,rock_grid_rect_2,4,15,-1,-1,0.666,-0.36296297,-0.237963005,1,0,0,2.2285,Andesite_rect,1,2.228,0,9,0,9,0,1,,,,,,,,,,,,
5658f4787d69570012dfe2d1,TCR,2024-06-10_14h16.53.374,LearnStrategy,2023.2.3,Win32,60.60606061,7,1,11,0.014814801,0.017592571,1,0,0,0.664,rock_grid_rect_2,1,02,-1,-1,0.664,-0.123148106,-0.247222265,1,0,0,1.3958,Basalt_rect,2,1.396,0,10,0,10,0,1,,,,,,,,,,,,
5658f4787d69570012dfe2d1,TCR,2024-06-10_14h16.53.374,LearnStrategy,2023.2.3,Win32,60.60606061,7,1,12,-0.014814801,0.000925912,1,0,0,0.649,rock_grid_rect_2,7,05,-1,-1,0.649,-0.387962942,-0.251851894,1,0,0,3.0035,Andesite_rect,1,3.004,0,11,0,11,0,1,,,,,,,,,,,,
5658f4787d69570012dfe2d1,TCR,2024-06-10_14h16.53.374,LearnStrategy,2023.2.3,Win32,60.60606061,7,1,13,0.049074102,0,1,0,0,0.6474,rock_grid_rect_2,3,02,-1,-1,0.647,0.388888889,-0.241666653,1,0,0,1.7623,Gabbro_rect,4,1.762,0,12,0,12,0,1,,,,,,,,,,,,
5658f4787d69570012dfe2d1,TCR,2024-06-10_14h16.53.374,LearnStrategy,2023.2.3,Win32,60.60606061,7,1,14,0.02407406,-0.000925947,1,0,0,0.6478,rock_grid_rect_2,3,11,-1,-1,0.648,0.142592607,-0.251851894,1,0,0,0.9473,Diorite_rect,3,0.947,1,13,0,13,0,1,,,,,,,,,,,,
5658f4787d69570012dfe2d1,TCR,2024-06-10_14h16.53.374,LearnStrategy,2023.2.3,Win32,60.60606061,7,1,15,0.02870369,0.020370377,1,0,0,0.7813,rock_grid_rect_2,7,13,-1,-1,0.781,-0.097222222,-0.412037037,1,0,0,1.495,Pegmatite_rect,6,1.495,0,14,0,14,0,1,,,,,,,,,,,,
5658f4787d69570012dfe2d1,TCR,2024-06-10_14h16.53.374,LearnStrategy,2023.2.3,Win32,60.60606061,7,1,16,0.040740755,0.017592571,1,0,0,0.7154,rock_grid_rect_2,1,01,-1,-1,0.715,-0.162037037,-0.262962977,1,0,0,2.3636,Basalt_rect,2,2.364,0,15,0,15,0,1,,,,,,,,,,,,
5658f4787d69570012dfe2d1,TCR,2024-06-10_14h16.53.374,LearnStrategy,2023.2.3,Win32,60.60606061,7,2,1,,,,,,,,1,10,,,,,,,,,,,3,5.474,0,,,,,,0.184259273,-0.261111153,1,0,0,5.474,Diorite_rect,0,0,0,0,1
5658f4787d69570012dfe2d1,TCR,2024-06-10_14h16.53.374,LearnStrategy,2023.2.3,Win32,60.60606061,7,2,2,,,,,,,,2,16,,,,,,,,,,,2,1.941,1,,,,,,-0.135185171,-0.251851894,1,0,0,1.9407,Basalt_rect,1,0,1,0,1
5658f4787d69570012dfe2d1,TCR,2024-06-10_14h16.53.374,LearnStrategy,2023.2.3,Win32,60.60606061,7,2,3,,,,,,,,7,14,,,,,,,,,,,7,2.941,1,,,,,,0.109259288,-0.396296325,1,0,0,2.9406,Peridotite_rect,2,0,2,0,1
5658f4787d69570012dfe2d1,TCR,2024-06-10_14h16.53.374,LearnStrategy,2023.2.3,Win32,60.60606061,7,2,4,,,,,,,,3,14,,,,,,,,,,,3,1.742,1,,,,,,0.202777792,-0.256481524,1,0,0,1.7418,Diorite_rect,3,0,3,0,1
5658f4787d69570012dfe2d1,TCR,2024-06-10_14h16.53.374,LearnStrategy,2023.2.3,Win32,60.60606061,7,2,5,,,,,,,,1,06,,,,,,,,,,,4,1.292,0,,,,,,0.437037009,-0.250925912,1,0,0,1.2915,Gabbro_rect,4,0,4,0,1
5658f4787d69570012dfe2d1,TCR,2024-06-10_14h16.53.374,LearnStrategy,2023.2.3,Win32,60.60606061,7,2,6,,,,,,,,4,10,,,,,,,,,,,3,4.074,0,,,,,,0.191666709,-0.253703718,1,0,0,4.0741,Diorite_rect,5,0,5,0,1
5658f4787d69570012dfe2d1,TCR,2024-06-10_14h16.53.374,LearnStrategy,2023.2.3,Win32,60.60606061,7,2,7,,,,,,,,3,13,,,,,,,,,,,4,3.974,0,,,,,,0.410185213,-0.229629658,1,0,0,3.9743,Gabbro_rect,6,0,6,0,1
5658f4787d69570012dfe2d1,TCR,2024-06-10_14h16.53.374,LearnStrategy,2023.2.3,Win32,60.60606061,7,2,8,,,,,,,,6,11,,,,,,,,,,,6,3.009,1,,,,,,-0.075925898,-0.406481496,1,0,0,3.0089,Pegmatite_rect,7,0,7,0,1
5658f4787d69570012dfe2d1,TCR,2024-06-10_14h16.53.374,LearnStrategy,2023.2.3,Win32,60.60606061,7,2,9,,,,,,,,2,09,,,,,,,,,,,2,1.422,1,,,,,,-0.121296282,-0.237963005,1,0,0,1.4224,Basalt_rect,8,0,8,0,1
5658f4787d69570012dfe2d1,TCR,2024-06-10_14h16.53.374,LearnStrategy,2023.2.3,Win32,60.60606061,7,2,10,,,,,,,,5,05,,,,,,,,,,,5,1.208,1,,,,,,-0.336111104,-0.404629672,1,0,0,1.2084,Obsidian_rect,9,0,9,0,1
5658f4787d69570012dfe2d1,TCR,2024-06-10_14h16.53.374,LearnStrategy,2023.2.3,Win32,60.60606061,7,2,11,,,,,,,,5,08,,,,,,,,,,,5,0.857,1,,,,,,-0.372222229,-0.388888889,1,0,0,0.8572,Obsidian_rect,10,0,10,0,1
5658f4787d69570012dfe2d1,TCR,2024-06-10_14h16.53.374,LearnStrategy,2023.2.3,Win32,60.60606061,7,2,12,,,,,,,,7,16,,,,,,,,,,,4,2.689,0,,,,,,0.402777778,-0.252777806,1,0,0,2.6887,Gabbro_rect,11,0,11,0,1
5658f4787d69570012dfe2d1,TCR,2024-06-10_14h16.53.374,LearnStrategy,2023.2.3,Win32,60.60606061,7,2,13,,,,,,,,4,12,,,,,,,,,,,2,1.491,0,,,,,,-0.133333347,-0.25,1,0,0,1.4912,Basalt_rect,12,0,12,0,1
5658f4787d69570012dfe2d1,TCR,2024-06-10_14h16.53.374,LearnStrategy,2023.2.3,Win32,60.60606061,7,2,14,,,,,,,,6,08,,,,,,,,,,,6,2.023,1,,,,,,-0.074074074,-0.413888931,1,0,0,2.0227,Pegmatite_rect,13,0,13,0,1
5658f4787d69570012dfe2d1,TCR,2024-06-10_14h16.53.374,LearnStrategy,2023.2.3,Win32,60.60606061,7,2,15,,,,,,,,8,04,,,,,,,,,,,8,1.156,1,,,,,,0.400925954,-0.401851866,1,0,0,1.1563,Pumice_rect,14,0,14,0,1
5658f4787d69570012dfe2d1,TCR,2024-06-10_14h16.53.374,LearnStrategy,2023.2.3,Win32,60.60606061,7,2,16,,,,,,,,8,16,,,,,,,,,,,8,1.023,1,,,,,,0.399999972,-0.413888931,1,0,0,1.023,Pumice_rect,15,0,15,0,1
5658f4787d69570012dfe2d1,TCR,2024-06-10_14h16.53.374,LearnStrategy,2023.2.3,Win32,60.60606061,8,1,1,0.002777806,-0.01203703,1,0,0,1.0295,rock_grid_rect_2,6,05,-1,-1,1.029,0.402777778,-0.243518547,1,0,0,3.2452,Gabbro_rect,4,3.245,0,0,0,0,0,1,,,,,,,,,,,,
5658f4787d69570012dfe2d1,TCR,2024-06-10_14h16.53.374,LearnStrategy,2023.2.3,Win32,60.60606061,8,1,2,0.012962977,0.014814801,1,0,0,0.9808,rock_grid_rect_2,1,03,-1,-1,0.981,-0.088888875,-0.243518547,1,0,0,2.4117,Basalt_rect,2,2.412,0,1,0,1,0,1,,,,,,,,,,,,
5658f4787d69570012dfe2d1,TCR,2024-06-10_14h16.53.374,LearnStrategy,2023.2.3,Win32,60.60606061,8,1,3,-0.011111083,-0.006481489,1,0,0,0.815,rock_grid_rect_2,4,03,-1,-1,0.815,-0.366666653,-0.239814829,1,0,0,1.3948,Andesite_rect,1,1.395,0,2,0,2,0,1,,,,,,,,,,,,
5658f4787d69570012dfe2d1,TCR,2024-06-10_14h16.53.374,LearnStrategy,2023.2.3,Win32,60.60606061,8,1,4,0.021296325,0.012962942,1,0,0,0.715,rock_grid_rect_2,4,15,-1,-1,0.715,0.175000014,-0.253703718,1,0,0,2.0049,Diorite_rect,3,2.005,0,3,0,3,0,1,,,,,,,,,,,,
5658f4787d69570012dfe2d1,TCR,2024-06-10_14h16.53.374,LearnStrategy,2023.2.3,Win32,60.60606061,8,1,5,0.012037065,-0.021296289,1,0,0,0.7655,rock_grid_rect_2,6,09,-1,-1,0.765,-0.115740741,-0.389814801,1,0,0,1.5794,Pegmatite_rect,6,1.579,1,4,0,4,0,1,,,,,,,,,,,,
5658f4787d69570012dfe2d1,TCR,2024-06-10_14h16.53.374,LearnStrategy,2023.2.3,Win32,60.60606061,8,1,6,0,0.002777771,1,0,0,0.7815,rock_grid_rect_2,5,12,-1,-1,0.782,-0.384259259,-0.392592607,1,0,0,0.8474,Obsidian_rect,5,0.847,1,5,0,5,0,1,,,,,,,,,,,,
5658f4787d69570012dfe2d1,TCR,2024-06-10_14h16.53.374,LearnStrategy,2023.2.3,Win32,60.60606061,8,1,7,0.005555541,-0.00462963,1,0,0,0.8151,rock_grid_rect_2,7,12,-1,-1,0.815,0.180555556,-0.249074088,1,0,0,5.7292,Diorite_rect,3,5.729,0,6,0,6,0,1,,,,,,,,,,,,
5658f4787d69570012dfe2d1,TCR,2024-06-10_14h16.53.374,LearnStrategy,2023.2.3,Win32,60.60606061,8,1,8,0.008333347,0.011111118,1,0,0,0.7132,rock_grid_rect_2,1,02,-1,-1,0.713,-0.3675926,-0.266666695,1,0,0,2.3968,Andesite_rect,1,2.397,1,7,0,7,0,1,,,,,,,,,,,,
5658f4787d69570012dfe2d1,TCR,2024-06-10_14h16.53.374,LearnStrategy,2023.2.3,Win32,60.60606061,8,1,9,0.023148148,-0.020370377,1,0,0,0.7818,rock_grid_rect_2,3,09,-1,-1,0.782,0.189814815,-0.262037065,1,0,0,2.5437,Diorite_rect,3,2.544,1,8,0,8,0,1,,,,,,,,,,,,
5658f4787d69570012dfe2d1,TCR,2024-06-10_14h16.53.374,LearnStrategy,2023.2.3,Win32,60.60606061,8,1,10,0.000925912,0.02407406,1,0,0,0.7645,rock_grid_rect_2,4,16,-1,-1,0.764,-0.090740698,-0.239814829,1,0,0,1.9121,Basalt_rect,2,1.912,0,9,0,9,0,1,,,,,,,,,,,,
5658f4787d69570012dfe2d1,TCR,2024-06-10_14h16.53.374,LearnStrategy,2023.2.3,Win32,60.60606061,8,1,11,0.027777778,0.010185171,1,0,0,0.6847,rock_grid_rect_2,7,13,-1,-1,0.685,-0.102777764,-0.401851866,1,0,0,2.11,Pegmatite_rect,6,2.11,0,10,0,10,0,1,,,,,,,,,,,,
5658f4787d69570012dfe2d1,TCR,2024-06-10_14h16.53.374,LearnStrategy,2023.2.3,Win32,60.60606061,8,1,12,0.062962991,0.0074074,1,0,0,0.6657,rock_grid_rect_2,3,07,-1,-1,0.666,0.18240745,-0.248148176,1,0,0,1.8284,Diorite_rect,3,1.828,1,11,0,11,0,1,,,,,,,,,,,,
5658f4787d69570012dfe2d1,TCR,2024-06-10_14h16.53.374,LearnStrategy,2023.2.3,Win32,60.60606061,8,1,13,0.013888889,0.022222201,1,0,0,1.1649,rock_grid_rect_2,4,03,-1,-1,1.165,-0.127777735,-0.241666653,1,0,0,1.5122,Basalt_rect,2,1.512,0,12,0,12,0,1,,,,,,,,,,,,
5658f4787d69570012dfe2d1,TCR,2024-06-10_14h16.53.374,LearnStrategy,2023.2.3,Win32,60.60606061,8,1,14,0.025000042,0.000925912,1,0,0,0.6481,rock_grid_rect_2,2,04,-1,-1,0.648,-0.375925912,-0.244444459,1,0,0,2.0138,Andesite_rect,1,2.014,0,13,0,13,0,1,,,,,,,,,,,,
5658f4787d69570012dfe2d1,TCR,2024-06-10_14h16.53.374,LearnStrategy,2023.2.3,Win32,60.60606061,8,1,15,0.035185213,0.009259259,1,0,0,0.5978,rock_grid_rect_2,3,06,-1,-1,0.598,0.386111083,-0.250925912,1,0,0,1.1962,Gabbro_rect,4,1.196,0,14,0,14,0,1,,,,,,,,,,,,
5658f4787d69570012dfe2d1,TCR,2024-06-10_14h16.53.374,LearnStrategy,2023.2.3,Win32,60.60606061,8,1,16,0.016666695,0.002777771,1,0,0,1.2144,rock_grid_rect_2,7,13,-1,-1,1.214,0.124074088,-0.418518561,1,0,0,1.7301,Peridotite_rect,7,1.73,1,15,0,15,0,1,,,,,,,,,,,,
5658f4787d69570012dfe2d1,TCR,2024-06-10_14h16.53.374,LearnStrategy,2023.2.3,Win32,60.60606061,8,2,1,,,,,,,,1,09,,,,,,,,,,,4,3.592,0,,,,,,0.395370342,-0.248148176,1,0,0,3.592,Gabbro_rect,0,0,0,0,1
5658f4787d69570012dfe2d1,TCR,2024-06-10_14h16.53.374,LearnStrategy,2023.2.3,Win32,60.60606061,8,2,2,,,,,,,,6,13,,,,,,,,,,,6,2.391,1,,,,,,-0.123148106,-0.387962977,1,0,0,2.3909,Pegmatite_rect,1,0,1,0,1
5658f4787d69570012dfe2d1,TCR,2024-06-10_14h16.53.374,LearnStrategy,2023.2.3,Win32,60.60606061,8,2,3,,,,,,,,1,14,,,,,,,,,,,3,1.774,0,,,,,,0.189814815,-0.229629658,1,0,0,1.7743,Diorite_rect,2,0,2,0,1
5658f4787d69570012dfe2d1,TCR,2024-06-10_14h16.53.374,LearnStrategy,2023.2.3,Win32,60.60606061,8,2,4,,,,,,,,8,02,,,,,,,,,,,8,1.259,1,,,,,,0.40370376,-0.39907406,1,0,0,1.259,Pumice_rect,3,0,3,0,1
5658f4787d69570012dfe2d1,TCR,2024-06-10_14h16.53.374,LearnStrategy,2023.2.3,Win32,60.60606061,8,2,5,,,,,,,,8,14,,,,,,,,,,,8,0.94,1,,,,,,0.369444529,-0.400925954,1,0,0,0.9404,Pumice_rect,4,0,4,0,1
5658f4787d69570012dfe2d1,TCR,2024-06-10_14h16.53.374,LearnStrategy,2023.2.3,Win32,60.60606061,8,2,6,,,,,,,,6,07,,,,,,,,,,,7,2.457,0,,,,,,0.156481496,-0.418518561,1,0,0,2.4574,Peridotite_rect,5,0,5,0,1
5658f4787d69570012dfe2d1,TCR,2024-06-10_14h16.53.374,LearnStrategy,2023.2.3,Win32,60.60606061,8,2,7,,,,,,,,2,10,,,,,,,,,,,5,1.224,0,,,,,,-0.365740741,-0.37962963,1,0,0,1.2238,Obsidian_rect,6,0,6,0,1
5658f4787d69570012dfe2d1,TCR,2024-06-10_14h16.53.374,LearnStrategy,2023.2.3,Win32,60.60606061,8,2,8,,,,,,,,2,02,,,,,,,,,,,1,3.418,0,,,,,,-0.360185164,-0.248148176,1,0,0,3.4179,Andesite_rect,7,0,7,0,1
5658f4787d69570012dfe2d1,TCR,2024-06-10_14h16.53.374,LearnStrategy,2023.2.3,Win32,60.60606061,8,2,9,,,,,,,,3,15,,,,,,,,,,,3,1.192,1,,,,,,0.20185188,-0.238888917,1,0,0,1.1919,Diorite_rect,8,0,8,0,1
5658f4787d69570012dfe2d1,TCR,2024-06-10_14h16.53.374,LearnStrategy,2023.2.3,Win32,60.60606061,8,2,10,,,,,,,,4,05,,,,,,,,,,,4,2.207,1,,,,,,0.389814871,-0.251851894,1,0,0,2.2072,Gabbro_rect,9,0,9,0,1
5658f4787d69570012dfe2d1,TCR,2024-06-10_14h16.53.374,LearnStrategy,2023.2.3,Win32,60.60606061,8,2,11,,,,,,,,7,04,,,,,,,,,,,6,1.789,0,,,,,,-0.095370328,-0.398148148,1,0,0,1.7895,Pegmatite_rect,10,0,10,0,1
5658f4787d69570012dfe2d1,TCR,2024-06-10_14h16.53.374,LearnStrategy,2023.2.3,Win32,60.60606061,8,2,12,,,,,,,,7,15,,,,,,,,,,,7,1.823,1,,,,,,0.084259245,-0.413888931,1,0,0,1.8228,Peridotite_rect,11,0,11,0,1
5658f4787d69570012dfe2d1,TCR,2024-06-10_14h16.53.374,LearnStrategy,2023.2.3,Win32,60.60606061,8,2,13,,,,,,,,5,10,,,,,,,,,,,5,1.023,1,,,,,,-0.361111111,-0.413888931,1,0,0,1.0228,Obsidian_rect,12,0,12,0,1
5658f4787d69570012dfe2d1,TCR,2024-06-10_14h16.53.374,LearnStrategy,2023.2.3,Win32,60.60606061,8,2,14,,,,,,,,3,08,,,,,,,,,,,4,2.498,0,,,,,,0.410185213,-0.255555541,1,0,0,2.4979,Gabbro_rect,13,0,13,0,1
5658f4787d69570012dfe2d1,TCR,2024-06-10_14h16.53.374,LearnStrategy,2023.2.3,Win32,60.60606061,8,2,15,,,,,,,,4,14,,,,,,,,,,,3,1.223,0,,,,,,0.14907406,-0.248148176,1,0,0,1.2226,Diorite_rect,14,0,14,0,1
5658f4787d69570012dfe2d1,TCR,2024-06-10_14h16.53.374,LearnStrategy,2023.2.3,Win32,60.60606061,8,2,16,,,,,,,,5,04,,,,,,,,,,,5,1.042,1,,,,,,-0.337037016,-0.411111125,1,0,0,1.0423,Obsidian_rect,15,0,15,0,1
5658f4787d69570012dfe2d1,TCR,2024-06-10_14h16.53.374,LearnStrategy,2023.2.3,Win32,60.60606061,9,1,1,0.009259259,0.018518519,1,0,0,1.0469,rock_grid_rect_2,2,08,-1,-1,1.047,-0.143518519,-0.248148176,1,0,0,3.6953,Basalt_rect,2,3.695,1,0,0,0,0,1,,,,,,,,,,,,
5658f4787d69570012dfe2d1,TCR,2024-06-10_14h16.53.374,LearnStrategy,2023.2.3,Win32,60.60606061,9,1,2,-0.038888861,-0.010185206,1,0,0,0.9312,rock_grid_rect_2,6,05,-1,-1,0.931,0.194444444,-0.242592635,1,0,0,4.8306,Diorite_rect,3,4.831,0,1,0,1,0,1,,,,,,,,,,,,
5658f4787d69570012dfe2d1,TCR,2024-06-10_14h16.53.374,LearnStrategy,2023.2.3,Win32,60.60606061,9,1,3,0.012962977,-0.00462963,1,0,0,0.8315,rock_grid_rect_2,5,14,-1,-1,0.832,-0.402777778,-0.387962977,1,0,0,1.0724,Obsidian_rect,5,1.072,1,2,0,2,0,1,,,,,,,,,,,,
5658f4787d69570012dfe2d1,TCR,2024-06-10_14h16.53.374,LearnStrategy,2023.2.3,Win32,60.60606061,9,1,4,0.034259302,0.017592571,1,0,0,1.1813,rock_grid_rect_2,1,16,-1,-1,1.181,0.398148148,-0.255555541,1,0,0,3.3875,Gabbro_rect,4,3.387,0,3,0,3,0,1,,,,,,,,,,,,
5658f4787d69570012dfe2d1,TCR,2024-06-10_14h16.53.374,LearnStrategy,2023.2.3,Win32,60.60606061,9,1,5,0.026851866,0.001851859,1,0,0,0.7313,rock_grid_rect_2,6,15,-1,-1,0.731,-0.094444416,-0.388888889,1,0,0,2.7453,Pegmatite_rect,6,2.745,1,4,0,4,0,1,,,,,,,,,,,,
5658f4787d69570012dfe2d1,TCR,2024-06-10_14h16.53.374,LearnStrategy,2023.2.3,Win32,60.60606061,9,1,6,0.030555584,-0.001851859,1,0,0,0.7477,rock_grid_rect_2,4,16,-1,-1,0.748,-0.125,-0.23055557,1,0,0,1.9549,Basalt_rect,2,1.955,0,5,0,5,0,1,,,,,,,,,,,,
5658f4787d69570012dfe2d1,TCR,2024-06-10_14h16.53.374,LearnStrategy,2023.2.3,Win32,60.60606061,9,1,7,0.010185171,-0.000925947,1,0,0,0.6651,rock_grid_rect_2,4,09,-1,-1,0.665,-0.380555541,-0.246296282,1,0,0,2.2964,Andesite_rect,1,2.296,0,6,0,6,0,1,,,,,,,,,,,,
5658f4787d69570012dfe2d1,TCR,2024-06-10_14h16.53.374,LearnStrategy,2023.2.3,Win32,60.60606061,9,1,8,0.006481524,0.006481489,1,0,0,0.6485,rock_grid_rect_2,7,02,-1,-1,0.649,0.145370413,-0.408333319,1,0,0,1.6956,Peridotite_rect,7,1.696,1,7,0,7,0,1,,,,,,,,,,,,
5658f4787d69570012dfe2d1,TCR,2024-06-10_14h16.53.374,LearnStrategy,2023.2.3,Win32,60.60606061,9,1,9,-0.017592607,-0.013888889,1,0,0,0.6982,rock_grid_rect_2,4,03,-1,-1,0.698,-0.125925912,-0.258333347,1,0,0,2.1454,Basalt_rect,2,2.145,0,8,0,8,0,1,,,,,,,,,,,,
5658f4787d69570012dfe2d1,TCR,2024-06-10_14h16.53.374,LearnStrategy,2023.2.3,Win32,60.60606061,9,1,10,-0.000925912,0.00462963,1,0,0,0.6485,rock_grid_rect_2,1,05,-1,-1,0.649,-0.365740741,-0.266666695,1,0,0,3.0787,Andesite_rect,1,3.079,1,9,0,9,0,1,,,,,,,,,,,,
5658f4787d69570012dfe2d1,TCR,2024-06-10_14h16.53.374,LearnStrategy,2023.2.3,Win32,60.60606061,9,1,11,0.039814843,0.0074074,1,0,0,0.6648,rock_grid_rect_2,3,02,-1,-1,0.665,0.391666695,-0.256481524,1,0,0,1.345,Gabbro_rect,4,1.345,0,10,0,10,0,1,,,,,,,,,,,,
5658f4787d69570012dfe2d1,TCR,2024-06-10_14h16.53.374,LearnStrategy,2023.2.3,Win32,60.60606061,9,1,12,0.01944443,0.015740748,1,0,0,0.6815,rock_grid_rect_2,7,02,-1,-1,0.681,0.125925912,-0.421296296,1,0,0,1.5288,Peridotite_rect,7,1.529,1,11,0,11,0,1,,,,,,,,,,,,
5658f4787d69570012dfe2d1,TCR,2024-06-10_14h16.53.374,LearnStrategy,2023.2.3,Win32,60.60606061,9,1,13,0.002777806,0.01203703,1,0,0,0.6984,rock_grid_rect_2,3,06,-1,-1,0.698,-0.376851859,-0.255555541,1,0,0,3.6705,Andesite_rect,1,3.67,0,12,0,12,0,1,,,,,,,,,,,,
5658f4787d69570012dfe2d1,TCR,2024-06-10_14h16.53.374,LearnStrategy,2023.2.3,Win32,60.60606061,9,1,14,0.034259302,0.018518519,1,0,0,0.5982,rock_grid_rect_2,2,08,-1,-1,0.598,-0.119444459,-0.260185171,1,0,0,1.7451,Basalt_rect,2,1.745,1,13,0,13,0,1,,,,,,,,,,,,
5658f4787d69570012dfe2d1,TCR,2024-06-10_14h16.53.374,LearnStrategy,2023.2.3,Win32,60.60606061,9,1,15,0.027777778,-0.005555577,1,0,0,0.731,rock_grid_rect_2,3,07,-1,-1,0.731,0.376851824,-0.252777806,1,0,0,1.3601,Gabbro_rect,4,1.36,0,14,0,14,0,1,,,,,,,,,,,,
5658f4787d69570012dfe2d1,TCR,2024-06-10_14h16.53.374,LearnStrategy,2023.2.3,Win32,60.60606061,9,1,16,0.029629672,0.013888889,1,0,0,0.6152,rock_grid_rect_2,1,07,-1,-1,0.615,0.361111111,-0.264814801,1,0,0,1.5436,Gabbro_rect,4,1.544,0,15,0,15,0,1,,,,,,,,,,,,
5658f4787d69570012dfe2d1,TCR,2024-06-10_14h16.53.374,LearnStrategy,2023.2.3,Win32,60.60606061,9,2,1,,,,,,,,5,11,,,,,,,,,,,5,0.99,1,,,,,,-0.369444423,-0.390740783,1,0,0,0.9901,Obsidian_rect,0,0,0,0,1
5658f4787d69570012dfe2d1,TCR,2024-06-10_14h16.53.374,LearnStrategy,2023.2.3,Win32,60.60606061,9,2,2,,,,,,,,7,07,,,,,,,,,,,6,5.029,0,,,,,,-0.10555557,-0.418518561,1,0,0,5.0291,Pegmatite_rect,1,0,1,0,1
5658f4787d69570012dfe2d1,TCR,2024-06-10_14h16.53.374,LearnStrategy,2023.2.3,Win32,60.60606061,9,2,3,,,,,,,,4,11,,,,,,,,,,,3,1.989,0,,,,,,0.172222208,-0.249074088,1,0,0,1.9889,Diorite_rect,2,0,2,0,1
5658f4787d69570012dfe2d1,TCR,2024-06-10_14h16.53.374,LearnStrategy,2023.2.3,Win32,60.60606061,9,2,4,,,,,,,,8,03,,,,,,,,,,,8,1.391,1,,,,,,0.40370376,-0.418518561,1,0,0,1.3909,Pumice_rect,3,0,3,0,1
5658f4787d69570012dfe2d1,TCR,2024-06-10_14h16.53.374,LearnStrategy,2023.2.3,Win32,60.60606061,9,2,5,,,,,,,,2,01,,,,,,,,,,,2,1.69,1,,,,,,-0.172222208,-0.243518547,1,0,0,1.6897,Basalt_rect,4,0,4,0,1
5658f4787d69570012dfe2d1,TCR,2024-06-10_14h16.53.374,LearnStrategy,2023.2.3,Win32,60.60606061,9,2,6,,,,,,,,1,11,,,,,,,,,,,1,1.176,1,,,,,,-0.372222229,-0.25462963,1,0,0,1.1756,Andesite_rect,5,0,5,0,1
5658f4787d69570012dfe2d1,TCR,2024-06-10_14h16.53.374,LearnStrategy,2023.2.3,Win32,60.60606061,9,2,7,,,,,,,,7,10,,,,,,,,,,,7,2.155,1,,,,,,0.111111111,-0.418518561,1,0,0,2.1545,Peridotite_rect,6,0,6,0,1
5658f4787d69570012dfe2d1,TCR,2024-06-10_14h16.53.374,LearnStrategy,2023.2.3,Win32,60.60606061,9,2,8,,,,,,,,6,16,,,,,,,,,,,6,1.705,1,,,,,,-0.091666681,-0.389814801,1,0,0,1.7051,Pegmatite_rect,7,0,7,0,1
5658f4787d69570012dfe2d1,TCR,2024-06-10_14h16.53.374,LearnStrategy,2023.2.3,Win32,60.60606061,9,2,9,,,,,,,,5,09,,,,,,,,,,,5,0.985,1,,,,,,-0.390740748,-0.406481496,1,0,0,0.985,Obsidian_rect,8,0,8,0,1
5658f4787d69570012dfe2d1,TCR,2024-06-10_14h16.53.374,LearnStrategy,2023.2.3,Win32,60.60606061,9,2,10,,,,,,,,2,11,,,,,,,,,,,8,1.381,0,,,,,,0.424074102,-0.397222236,1,0,0,1.3811,Pumice_rect,9,0,9,0,1
5658f4787d69570012dfe2d1,TCR,2024-06-10_14h16.53.374,LearnStrategy,2023.2.3,Win32,60.60606061,9,2,11,,,,,,,,3,16,,,,,,,,,,,3,2.523,1,,,,,,0.191666709,-0.252777806,1,0,0,2.5228,Diorite_rect,10,0,10,0,1
5658f4787d69570012dfe2d1,TCR,2024-06-10_14h16.53.374,LearnStrategy,2023.2.3,Win32,60.60606061,9,2,12,,,,,,,,1,04,,,,,,,,,,,4,4.841,0,,,,,,0.432407379,-0.242592635,1,0,0,4.8405,Gabbro_rect,11,0,11,0,1
5658f4787d69570012dfe2d1,TCR,2024-06-10_14h16.53.374,LearnStrategy,2023.2.3,Win32,60.60606061,9,2,13,,,,,,,,4,01,,,,,,,,,,,3,2.042,0,,,,,,0.156481496,-0.259259259,1,0,0,2.0423,Diorite_rect,12,0,12,0,1
5658f4787d69570012dfe2d1,TCR,2024-06-10_14h16.53.374,LearnStrategy,2023.2.3,Win32,60.60606061,9,2,14,,,,,,,,3,12,,,,,,,,,,,4,2.034,0,,,,,,0.413888861,-0.255555541,1,0,0,2.0335,Gabbro_rect,13,0,13,0,1
5658f4787d69570012dfe2d1,TCR,2024-06-10_14h16.53.374,LearnStrategy,2023.2.3,Win32,60.60606061,9,2,15,,,,,,,,6,10,,,,,,,,,,,6,1.973,1,,,,,,-0.068518533,-0.413888931,1,0,0,1.9726,Pegmatite_rect,14,0,14,0,1
5658f4787d69570012dfe2d1,TCR,2024-06-10_14h16.53.374,LearnStrategy,2023.2.3,Win32,60.60606061,9,2,16,,,,,,,,8,05,,,,,,,,,,,8,1.091,1,,,,,,0.430555556,-0.39444443,1,0,0,1.0913,Pumice_rect,15,0,15,0,1
5658f4787d69570012dfe2d1,TCR,2024-06-10_14h16.53.374,LearnStrategy,2023.2.3,Win32,60.60606061,,,,,,,,,,,,,,,,,,,,,,,,,,,,,,,,,,,,,,,,,,
5658f4787d69570012dfe2d1,TCR,2024-06-10_14h16.53.374,LearnStrategy,2023.2.3,Win32,60.60606061,,,,,,,,,,,,,,,,,,,,,,,,,,,,,,,,,,,,,,,,,,
5658f4787d69570012dfe2d1,TCR,2024-06-10_14h16.53.374,LearnStrategy,2023.2.3,Win32,60.60606061,,,,,,,,,,,4,08,1,1,,,,,,,,,,,,,,,,,,,,,,,,,,,,
5658f4787d69570012dfe2d1,TCR,2024-06-10_14h16.53.374,LearnStrategy,2023.2.3,Win32,60.60606061,,,,,,,,,,,7,13,1,2,,,,,,,,,,,,,,,,,,,,,,,,,,,,
5658f4787d69570012dfe2d1,TCR,2024-06-10_14h16.53.374,LearnStrategy,2023.2.3,Win32,60.60606061,,,,,,,,,,,7,05,1,3,,,,,,,,,,,,,,,,,,,,,,,,,,,,
5658f4787d69570012dfe2d1,TCR,2024-06-10_14h16.53.374,LearnStrategy,2023.2.3,Win32,60.60606061,,,,,,,,,,,4,03,1,4,,,,,,,,,,,,,,,,,,,,,,,,,,,,
5658f4787d69570012dfe2d1,TCR,2024-06-10_14h16.53.374,LearnStrategy,2023.2.3,Win32,60.60606061,,,,,,,,,,,4,13,1,5,,,,,,,,,,,,,,,,,,,,,,,,,,,,
5658f4787d69570012dfe2d1,TCR,2024-06-10_14h16.53.374,LearnStrategy,2023.2.3,Win32,60.60606061,,,,,,,,,,,7,02,1,6,,,,,,,,,,,,,,,,,,,,,,,,,,,,
5658f4787d69570012dfe2d1,TCR,2024-06-10_14h16.53.374,LearnStrategy,2023.2.3,Win32,60.60606061,,,,,,,,,,,8,10,1,7,,,,,,,,,,,,,,,,,,,,,,,,,,,,
5658f4787d69570012dfe2d1,TCR,2024-06-10_14h16.53.374,LearnStrategy,2023.2.3,Win32,60.60606061,,,,,,,,,,,8,09,1,8,,,,,,,,,,,,,,,,,,,,,,,,,,,,
5658f4787d69570012dfe2d1,TCR,2024-06-10_14h16.53.374,LearnStrategy,2023.2.3,Win32,60.60606061,,,,,,,,,,,6,03,2,1,,,,,,,,,,,,,,,,,,,,,,,,,,,,
5658f4787d69570012dfe2d1,TCR,2024-06-10_14h16.53.374,LearnStrategy,2023.2.3,Win32,60.60606061,,,,,,,,,,,3,10,2,2,,,,,,,,,,,,,,,,,,,,,,,,,,,,
5658f4787d69570012dfe2d1,TCR,2024-06-10_14h16.53.374,LearnStrategy,2023.2.3,Win32,60.60606061,,,,,,,,,,,1,01,2,3,,,,,,,,,,,,,,,,,,,,,,,,,,,,
5658f4787d69570012dfe2d1,TCR,2024-06-10_14h16.53.374,LearnStrategy,2023.2.3,Win32,60.60606061,,,,,,,,,,,7,12,2,4,,,,,,,,,,,,,,,,,,,,,,,,,,,,
5658f4787d69570012dfe2d1,TCR,2024-06-10_14h16.53.374,LearnStrategy,2023.2.3,Win32,60.60606061,,,,,,,,,,,5,07,2,5,,,,,,,,,,,,,,,,,,,,,,,,,,,,
5658f4787d69570012dfe2d1,TCR,2024-06-10_14h16.53.374,LearnStrategy,2023.2.3,Win32,60.60606061,,,,,,,,,,,1,02,2,6,,,,,,,,,,,,,,,,,,,,,,,,,,,,
5658f4787d69570012dfe2d1,TCR,2024-06-10_14h16.53.374,LearnStrategy,2023.2.3,Win32,60.60606061,,,,,,,,,,,8,06,2,7,,,,,,,,,,,,,,,,,,,,,,,,,,,,
5658f4787d69570012dfe2d1,TCR,2024-06-10_14h16.53.374,LearnStrategy,2023.2.3,Win32,60.60606061,,,,,,,,,,,3,06,2,8,,,,,,,,,,,,,,,,,,,,,,,,,,,,
5658f4787d69570012dfe2d1,TCR,2024-06-10_14h16.53.374,LearnStrategy,2023.2.3,Win32,60.60606061,,,,,,,,,,,6,12,3,1,,,,,,,,,,,,,,,,,,,,,,,,,,,,
5658f4787d69570012dfe2d1,TCR,2024-06-10_14h16.53.374,LearnStrategy,2023.2.3,Win32,60.60606061,,,,,,,,,,,6,09,3,2,,,,,,,,,,,,,,,,,,,,,,,,,,,,
5658f4787d69570012dfe2d1,TCR,2024-06-10_14h16.53.374,LearnStrategy,2023.2.3,Win32,60.60606061,,,,,,,,,,,5,14,3,3,,,,,,,,,,,,,,,,,,,,,,,,,,,,
5658f4787d69570012dfe2d1,TCR,2024-06-10_14h16.53.374,LearnStrategy,2023.2.3,Win32,60.60606061,,,,,,,,,,,8,15,3,4,,,,,,,,,,,,,,,,,,,,,,,,,,,,
5658f4787d69570012dfe2d1,TCR,2024-06-10_14h16.53.374,LearnStrategy,2023.2.3,Win32,60.60606061,,,,,,,,,,,2,06,3,5,,,,,,,,,,,,,,,,,,,,,,,,,,,,
5658f4787d69570012dfe2d1,TCR,2024-06-10_14h16.53.374,LearnStrategy,2023.2.3,Win32,60.60606061,,,,,,,,,,,4,15,3,6,,,,,,,,,,,,,,,,,,,,,,,,,,,,
5658f4787d69570012dfe2d1,TCR,2024-06-10_14h16.53.374,LearnStrategy,2023.2.3,Win32,60.60606061,,,,,,,,,,,4,09,3,7,,,,,,,,,,,,,,,,,,,,,,,,,,,,
5658f4787d69570012dfe2d1,TCR,2024-06-10_14h16.53.374,LearnStrategy,2023.2.3,Win32,60.60606061,,,,,,,,,,,6,15,3,8,,,,,,,,,,,,,,,,,,,,,,,,,,,,
5658f4787d69570012dfe2d1,TCR,2024-06-10_14h16.53.374,LearnStrategy,2023.2.3,Win32,60.60606061,,,,,,,,,,,5,16,4,1,,,,,,,,,,,,,,,,,,,,,,,,,,,,
5658f4787d69570012dfe2d1,TCR,2024-06-10_14h16.53.374,LearnStrategy,2023.2.3,Win32,60.60606061,,,,,,,,,,,1,03,4,2,,,,,,,,,,,,,,,,,,,,,,,,,,,,
5658f4787d69570012dfe2d1,TCR,2024-06-10_14h16.53.374,LearnStrategy,2023.2.3,Win32,60.60606061,,,,,,,,,,,2,05,4,3,,,,,,,,,,,,,,,,,,,,,,,,,,,,
5658f4787d69570012dfe2d1,TCR,2024-06-10_14h16.53.374,LearnStrategy,2023.2.3,Win32,60.60606061,,,,,,,,,,,2,08,4,4,,,,,,,,,,,,,,,,,,,,,,,,,,,,
5658f4787d69570012dfe2d1,TCR,2024-06-10_14h16.53.374,LearnStrategy,2023.2.3,Win32,60.60606061,,,,,,,,,,,7,06,4,5,,,,,,,,,,,,,,,,,,,,,,,,,,,,
5658f4787d69570012dfe2d1,TCR,2024-06-10_14h16.53.374,LearnStrategy,2023.2.3,Win32,60.60606061,,,,,,,,,,,1,16,4,6,,,,,,,,,,,,,,,,,,,,,,,,,,,,
5658f4787d69570012dfe2d1,TCR,2024-06-10_14h16.53.374,LearnStrategy,2023.2.3,Win32,60.60606061,,,,,,,,,,,3,07,4,7,,,,,,,,,,,,,,,,,,,,,,,,,,,,
5658f4787d69570012dfe2d1,TCR,2024-06-10_14h16.53.374,LearnStrategy,2023.2.3,Win32,60.60606061,,,,,,,,,,,1,05,4,8,,,,,,,,,,,,,,,,,,,,,,,,,,,,
5658f4787d69570012dfe2d1,TCR,2024-06-10_14h16.53.374,LearnStrategy,2023.2.3,Win32,60.60606061,,,,,,,,,,,7,08,5,1,,,,,,,,,,,,,,,,,,,,,,,,,,,,
5658f4787d69570012dfe2d1,TCR,2024-06-10_14h16.53.374,LearnStrategy,2023.2.3,Win32,60.60606061,,,,,,,,,,,3,11,5,2,,,,,,,,,,,,,,,,,,,,,,,,,,,,
5658f4787d69570012dfe2d1,TCR,2024-06-10_14h16.53.374,LearnStrategy,2023.2.3,Win32,60.60606061,,,,,,,,,,,2,14,5,3,,,,,,,,,,,,,,,,,,,,,,,,,,,,
5658f4787d69570012dfe2d1,TCR,2024-06-10_14h16.53.374,LearnStrategy,2023.2.3,Win32,60.60606061,,,,,,,,,,,8,13,5,4,,,,,,,,,,,,,,,,,,,,,,,,,,,,
5658f4787d69570012dfe2d1,TCR,2024-06-10_14h16.53.374,LearnStrategy,2023.2.3,Win32,60.60606061,,,,,,,,,,,3,09,5,5,,,,,,,,,,,,,,,,,,,,,,,,,,,,
5658f4787d69570012dfe2d1,TCR,2024-06-10_14h16.53.374,LearnStrategy,2023.2.3,Win32,60.60606061,,,,,,,,,,,4,16,5,6,,,,,,,,,,,,,,,,,,,,,,,,,,,,
5658f4787d69570012dfe2d1,TCR,2024-06-10_14h16.53.374,LearnStrategy,2023.2.3,Win32,60.60606061,,,,,,,,,,,8,08,5,7,,,,,,,,,,,,,,,,,,,,,,,,,,,,
5658f4787d69570012dfe2d1,TCR,2024-06-10_14h16.53.374,LearnStrategy,2023.2.3,Win32,60.60606061,,,,,,,,,,,5,02,5,8,,,,,,,,,,,,,,,,,,,,,,,,,,,,
5658f4787d69570012dfe2d1,TCR,2024-06-10_14h16.53.374,LearnStrategy,2023.2.3,Win32,60.60606061,,,,,,,,,,,2,04,6,1,,,,,,,,,,,,,,,,,,,,,,,,,,,,
5658f4787d69570012dfe2d1,TCR,2024-06-10_14h16.53.374,LearnStrategy,2023.2.3,Win32,60.60606061,,,,,,,,,,,3,02,6,2,,,,,,,,,,,,,,,,,,,,,,,,,,,,
5658f4787d69570012dfe2d1,TCR,2024-06-10_14h16.53.374,LearnStrategy,2023.2.3,Win32,60.60606061,,,,,,,,,,,5,06,6,3,,,,,,,,,,,,,,,,,,,,,,,,,,,,
5658f4787d69570012dfe2d1,TCR,2024-06-10_14h16.53.374,LearnStrategy,2023.2.3,Win32,60.60606061,,,,,,,,,,,5,12,6,4,,,,,,,,,,,,,,,,,,,,,,,,,,,,
5658f4787d69570012dfe2d1,TCR,2024-06-10_14h16.53.374,LearnStrategy,2023.2.3,Win32,60.60606061,,,,,,,,,,,6,06,6,5,,,,,,,,,,,,,,,,,,,,,,,,,,,,
5658f4787d69570012dfe2d1,TCR,2024-06-10_14h16.53.374,LearnStrategy,2023.2.3,Win32,60.60606061,,,,,,,,,,,2,12,6,6,,,,,,,,,,,,,,,,,,,,,,,,,,,,
5658f4787d69570012dfe2d1,TCR,2024-06-10_14h16.53.374,LearnStrategy,2023.2.3,Win32,60.60606061,,,,,,,,,,,6,05,6,7,,,,,,,,,,,,,,,,,,,,,,,,,,,,
5658f4787d69570012dfe2d1,TCR,2024-06-10_14h16.53.374,LearnStrategy,2023.2.3,Win32,60.60606061,,,,,,,,,,,1,07,6,8,,,,,,,,,,,,,,,,,,,,,,,,,,,,