participant,condition,date,expName,psychopyVersion,OS,frameRate,block,phase,trial,learn_mouse.x,learn_mouse.y,learn_mouse.leftButton,learn_mouse.midButton,learn_mouse.rightButton,learn_mouse.time,learn_mouse.clicked_name,cat,token,row,col,t_select,cat_rec,token_rec,cat_mouse_l.x,cat_mouse_l.y,cat_mouse_l.leftButton,cat_mouse_l.midButton,cat_mouse_l.rightButton,cat_mouse_l.time,cat_mouse_l.clicked_name,resp,t_resp,corr,train_trials.thisRepN,train_trials.thisTrialN,train_trials.thisN,train_trials.thisIndex,train_trials.ran,cat_mouse_t.x,cat_mouse_t.y,cat_mouse_t.leftButton,cat_mouse_t.midButton,cat_mouse_t.rightButton,cat_mouse_t.time,cat_mouse_t.clicked_name,test_trials.thisRepN,test_trials.thisTrialN,test_trials.thisN,test_trials.thisIndex,test_trials.ran,Bonus
56780a5a89319e0011644cb4,SCR,2024-06-20_16h27.54.640,LearnStrategy,2023.2.3,Win32,60.60606061,,,,,,,,,,,,,,,,,,,,,,,,,,,,,,,,,,,,,,,,,,,,,
56780a5a89319e0011644cb4,SCR,2024-06-20_16h27.54.640,LearnStrategy,2023.2.3,Win32,60.60606061,1,1,1,0.235185199,-0.121296282,1,0,0,8.0008,Pegmatite_16,6,16,3,6,8.001,8,16,0.147222236,-0.247222265,1,0,0,6.1625,Diorite_rect,3,6.162,0,0,0,0,0,1,,,,,,,,,,,,,
56780a5a89319e0011644cb4,SCR,2024-06-20_16h27.54.640,LearnStrategy,2023.2.3,Win32,60.60606061,1,1,2,0.216666681,-0.09629631,1,0,0,1.2797,Pegmatite_16,6,16,3,6,1.28,7,06,-0.050000014,-0.385185171,1,0,0,2.5418,Pegmatite_rect,6,2.542,1,1,0,1,0,1,,,,,,,,,,,,,
56780a5a89319e0011644cb4,SCR,2024-06-20_16h27.54.640,LearnStrategy,2023.2.3,Win32,60.60606061,1,1,3,-0.22592594,0.092592593,1,0,0,3.2634,Pegmatite_10,6,10,4,3,3.263,6,10,0.37962963,-0.393518519,1,0,0,3.2569,Pumice_rect,8,3.257,0,2,0,2,0,1,,,,,,,,,,,,,
56780a5a89319e0011644cb4,SCR,2024-06-20_16h27.54.640,LearnStrategy,2023.2.3,Win32,60.60606061,1,1,4,0.559259344,0.37962963,1,0,0,3.4294,Obsidian_08,5,08,6,8,3.429,5,08,-0.325925933,-0.400000042,1,0,0,3.9858,Obsidian_rect,5,3.986,1,3,0,3,0,1,,,,,,,,,,,,,
56780a5a89319e0011644cb4,SCR,2024-06-20_16h27.54.640,LearnStrategy,2023.2.3,Win32,60.60606061,1,1,5,0.383333418,0.406481478,1,0,0,2.1632,Obsidian_02,5,02,6,7,2.163,5,05,-0.35833334,-0.398148148,1,0,0,1.7905,Obsidian_rect,5,1.791,1,4,0,4,0,1,,,,,,,,,,,,,
56780a5a89319e0011644cb4,SCR,2024-06-20_16h27.54.640,LearnStrategy,2023.2.3,Win32,60.60606061,1,1,6,-0.054629644,-0.412037037,1,0,0,6.1627,Obsidian_06,5,06,1,4,6.163,8,05,0.382407436,-0.240740741,1,0,0,5.2925,Gabbro_rect,4,5.292,0,5,0,5,0,1,,,,,,,,,,,,,
56780a5a89319e0011644cb4,SCR,2024-06-20_16h27.54.640,LearnStrategy,2023.2.3,Win32,60.60606061,1,1,7,-0.525000007,-0.112963005,1,0,0,2.4369,Obsidian_12,5,12,3,1,2.437,2,04,-0.361111111,-0.380555541,1,0,0,1.9484,Obsidian_rect,5,1.948,1,6,0,6,0,1,,,,,,,,,,,,,
56780a5a89319e0011644cb4,SCR,2024-06-20_16h27.54.640,LearnStrategy,2023.2.3,Win32,60.60606061,1,1,8,0.252777806,-0.420370384,1,0,0,5.7458,Obsidian_05,5,05,1,6,5.746,3,12,-0.09629631,-0.407407407,1,0,0,1.9454,Pegmatite_rect,6,1.945,0,7,0,7,0,1,,,,,,,,,,,,,
56780a5a89319e0011644cb4,SCR,2024-06-20_16h27.54.640,LearnStrategy,2023.2.3,Win32,60.60606061,1,1,9,0.394444501,0.104629623,1,0,0,2.5059,Diorite_02,3,02,4,7,2.506,6,16,0.106481481,-0.25462963,1,0,0,3.1096,Diorite_rect,3,3.11,1,8,0,8,0,1,,,,,,,,,,,,,
56780a5a89319e0011644cb4,SCR,2024-06-20_16h27.54.640,LearnStrategy,2023.2.3,Win32,60.60606061,1,1,10,0.561111168,0.047222208,1,0,0,4.1196,Gabbro_14,4,14,4,8,4.12,4,14,0.125925912,-0.248148176,1,0,0,2.2984,Diorite_rect,3,2.298,0,9,0,9,0,1,,,,,,,,,,,,,
56780a5a89319e0011644cb4,SCR,2024-06-20_16h27.54.640,LearnStrategy,2023.2.3,Win32,60.60606061,1,1,11,0.247222265,-0.242592635,1,0,0,1.746,Andesite_05,1,05,2,6,1.746,1,05,0.148148148,-0.246296282,1,0,0,1.3414,Diorite_rect,3,1.341,0,10,0,10,0,1,,,,,,,,,,,,,
56780a5a89319e0011644cb4,SCR,2024-06-20_16h27.54.640,LearnStrategy,2023.2.3,Win32,60.60606061,1,1,12,-0.065740727,-0.258333347,1,0,0,1.9295,Pegmatite_15,6,15,2,4,1.93,2,16,-0.12037037,-0.259259259,1,0,0,1.8924,Basalt_rect,2,1.892,0,11,0,11,0,1,,,,,,,,,,,,,
56780a5a89319e0011644cb4,SCR,2024-06-20_16h27.54.640,LearnStrategy,2023.2.3,Win32,60.60606061,1,1,13,-0.224999958,-0.270370413,1,0,0,2.6467,Pegmatite_08,6,08,2,3,2.647,7,12,0.381481453,-0.384259259,1,0,0,4.1254,Pumice_rect,8,4.125,0,12,0,12,0,1,,,,,,,,,,,,,
56780a5a89319e0011644cb4,SCR,2024-06-20_16h27.54.640,LearnStrategy,2023.2.3,Win32,60.60606061,1,1,14,-0.240740741,0.075925933,1,0,0,10.195,Pegmatite_10,6,10,4,3,10.195,1,14,-0.330555563,-0.256481524,1,0,0,4.1026,Andesite_rect,1,4.103,0,13,0,13,0,1,,,,,,,,,,,,,
56780a5a89319e0011644cb4,SCR,2024-06-20_16h27.54.640,LearnStrategy,2023.2.3,Win32,60.60606061,1,1,15,0.224074116,0.069444444,1,0,0,2.0797,Diorite_06,3,06,4,6,2.08,3,06,-0.131481453,-0.391666695,1,0,0,2.256,Pegmatite_rect,6,2.256,0,14,0,14,0,1,,,,,,,,,,,,,
56780a5a89319e0011644cb4,SCR,2024-06-20_16h27.54.640,LearnStrategy,2023.2.3,Win32,60.60606061,1,1,16,-0.056481467,0.219444434,1,0,0,2.4465,Gabbro_11,4,11,5,4,2.447,4,11,0.332407492,-0.237037023,1,0,0,1.6576,Gabbro_rect,4,1.658,1,15,0,15,0,1,,,,,,,,,,,,,
56780a5a89319e0011644cb4,SCR,2024-06-20_16h27.54.640,LearnStrategy,2023.2.3,Win32,60.60606061,1,2,1,,,,,,,,5,04,,,,,,,,,,,,,5,2.543,1,,,,,,-0.357407393,-0.402777778,1,0,0,2.5426,Obsidian_rect,0,0,0,0,1,
56780a5a89319e0011644cb4,SCR,2024-06-20_16h27.54.640,LearnStrategy,2023.2.3,Win32,60.60606061,1,2,2,,,,,,,,7,10,,,,,,,,,,,,,7,3.455,1,,,,,,0.138888889,-0.37962963,1,0,0,3.4547,Peridotite_rect,1,0,1,0,1,
56780a5a89319e0011644cb4,SCR,2024-06-20_16h27.54.640,LearnStrategy,2023.2.3,Win32,60.60606061,1,2,3,,,,,,,,4,05,,,,,,,,,,,,,4,2.038,1,,,,,,0.349074046,-0.255555541,1,0,0,2.0382,Gabbro_rect,2,0,2,0,1,
56780a5a89319e0011644cb4,SCR,2024-06-20_16h27.54.640,LearnStrategy,2023.2.3,Win32,60.60606061,1,2,4,,,,,,,,8,14,,,,,,,,,,,,,8,1.577,1,,,,,,0.343518575,-0.395370413,1,0,0,1.5765,Pumice_rect,3,0,3,0,1,
56780a5a89319e0011644cb4,SCR,2024-06-20_16h27.54.640,LearnStrategy,2023.2.3,Win32,60.60606061,1,2,5,,,,,,,,1,06,,,,,,,,,,,,,7,1.643,0,,,,,,0.091666681,-0.39444443,1,0,0,1.643,Peridotite_rect,4,0,4,0,1,
56780a5a89319e0011644cb4,SCR,2024-06-20_16h27.54.640,LearnStrategy,2023.2.3,Win32,60.60606061,1,2,6,,,,,,,,6,09,,,,,,,,,,,,,4,2.343,0,,,,,,0.345370399,-0.264814801,1,0,0,2.3431,Gabbro_rect,5,0,5,0,1,
56780a5a89319e0011644cb4,SCR,2024-06-20_16h27.54.640,LearnStrategy,2023.2.3,Win32,60.60606061,1,2,7,,,,,,,,3,07,,,,,,,,,,,,,7,2.439,0,,,,,,0.12962963,-0.408333319,1,0,0,2.4385,Peridotite_rect,6,0,6,0,1,
56780a5a89319e0011644cb4,SCR,2024-06-20_16h27.54.640,LearnStrategy,2023.2.3,Win32,60.60606061,1,2,8,,,,,,,,8,08,,,,,,,,,,,,,6,2.346,0,,,,,,-0.088888875,-0.393518519,1,0,0,2.3464,Pegmatite_rect,7,0,7,0,1,
56780a5a89319e0011644cb4,SCR,2024-06-20_16h27.54.640,LearnStrategy,2023.2.3,Win32,60.60606061,1,2,9,,,,,,,,2,12,,,,,,,,,,,,,7,3.072,0,,,,,,0.063888903,-0.413888931,1,0,0,3.0717,Peridotite_rect,8,0,8,0,1,
56780a5a89319e0011644cb4,SCR,2024-06-20_16h27.54.640,LearnStrategy,2023.2.3,Win32,60.60606061,1,2,10,,,,,,,,2,11,,,,,,,,,,,,,2,1.793,1,,,,,,-0.106481481,-0.263888889,1,0,0,1.7932,Basalt_rect,9,0,9,0,1,
56780a5a89319e0011644cb4,SCR,2024-06-20_16h27.54.640,LearnStrategy,2023.2.3,Win32,60.60606061,1,2,11,,,,,,,,1,10,,,,,,,,,,,,,2,0.988,0,,,,,,-0.106481481,-0.263888889,1,0,0,0.9884,Basalt_rect,10,0,10,0,1,
56780a5a89319e0011644cb4,SCR,2024-06-20_16h27.54.640,LearnStrategy,2023.2.3,Win32,60.60606061,1,2,12,,,,,,,,7,04,,,,,,,,,,,,,6,2.943,0,,,,,,-0.106481481,-0.410185213,1,0,0,2.9428,Pegmatite_rect,11,0,11,0,1,
56780a5a89319e0011644cb4,SCR,2024-06-20_16h27.54.640,LearnStrategy,2023.2.3,Win32,60.60606061,1,2,13,,,,,,,,4,08,,,,,,,,,,,,,8,2.819,0,,,,,,0.400925954,-0.383333347,1,0,0,2.8194,Pumice_rect,12,0,12,0,1,
56780a5a89319e0011644cb4,SCR,2024-06-20_16h27.54.640,LearnStrategy,2023.2.3,Win32,60.60606061,1,2,14,,,,,,,,6,03,,,,,,,,,,,,,7,2.022,0,,,,,,0.157407407,-0.404629672,1,0,0,2.0219,Peridotite_rect,13,0,13,0,1,
56780a5a89319e0011644cb4,SCR,2024-06-20_16h27.54.640,LearnStrategy,2023.2.3,Win32,60.60606061,1,2,15,,,,,,,,5,09,,,,,,,,,,,,,5,1.477,1,,,,,,-0.404629637,-0.384259259,1,0,0,1.4766,Obsidian_rect,14,0,14,0,1,
56780a5a89319e0011644cb4,SCR,2024-06-20_16h27.54.640,LearnStrategy,2023.2.3,Win32,60.60606061,1,2,16,,,,,,,,3,13,,,,,,,,,,,,,6,1.443,0,,,,,,-0.227777764,-0.411111125,1,0,0,1.4433,Pegmatite_rect,15,0,15,0,1,
56780a5a89319e0011644cb4,SCR,2024-06-20_16h27.54.640,LearnStrategy,2023.2.3,Win32,60.60606061,2,1,1,-0.383333312,0.055555556,1,0,0,2.2301,Peridotite_06,7,06,4,2,2.23,1,09,-0.12962963,-0.247222265,1,0,0,1.2409,Basalt_rect,2,1.241,0,0,0,0,0,1,,,,,,,,,,,,,
56780a5a89319e0011644cb4,SCR,2024-06-20_16h27.54.640,LearnStrategy,2023.2.3,Win32,60.60606061,2,1,2,0.088888875,-0.151851866,1,0,0,1.2576,Andesite_16,1,16,3,5,1.258,1,16,0.377777806,-0.387037065,1,0,0,1.1422,Pumice_rect,8,1.142,0,1,0,1,0,1,,,,,,,,,,,,,
56780a5a89319e0011644cb4,SCR,2024-06-20_16h27.54.640,LearnStrategy,2023.2.3,Win32,60.60606061,2,1,3,-0.546296296,0.230555552,1,0,0,1.3963,Basalt_10,2,10,5,1,1.396,2,10,-0.138888889,-0.259259259,1,0,0,2.1922,Basalt_rect,2,2.192,1,2,0,2,0,1,,,,,,,,,,,,,
56780a5a89319e0011644cb4,SCR,2024-06-20_16h27.54.640,LearnStrategy,2023.2.3,Win32,60.60606061,2,1,4,-0.556481467,0.413888887,1,0,0,1.5132,Pegmatite_13,6,13,6,1,1.513,6,13,-0.148148148,-0.411111125,1,0,0,2.3422,Pegmatite_rect,6,2.342,1,3,0,3,0,1,,,,,,,,,,,,,
56780a5a89319e0011644cb4,SCR,2024-06-20_16h27.54.640,LearnStrategy,2023.2.3,Win32,60.60606061,2,1,5,0.235185199,0.432407406,1,0,0,1.163,Diorite_15,3,15,6,6,1.163,3,15,0.421296296,-0.407407407,1,0,0,1.4714,Pumice_rect,8,1.471,0,4,0,4,0,1,,,,,,,,,,,,,
56780a5a89319e0011644cb4,SCR,2024-06-20_16h27.54.640,LearnStrategy,2023.2.3,Win32,60.60606061,2,1,6,-0.050000014,0.125,1,0,0,1.2296,Pumice_03,8,03,4,4,1.23,8,03,0.416666667,-0.397222236,1,0,0,1.2836,Pumice_rect,8,1.284,1,5,0,5,0,1,,,,,,,,,,,,,
56780a5a89319e0011644cb4,SCR,2024-06-20_16h27.54.640,LearnStrategy,2023.2.3,Win32,60.60606061,2,1,7,0.388888889,-0.10092594,1,0,0,1.3039,Peridotite_14,7,14,3,7,1.304,7,14,0.134259259,-0.384259259,1,0,0,2.3111,Peridotite_rect,7,2.311,1,6,0,6,0,1,,,,,,,,,,,,,
56780a5a89319e0011644cb4,SCR,2024-06-20_16h27.54.640,LearnStrategy,2023.2.3,Win32,60.60606061,2,1,8,0.237037023,0.387037039,1,0,0,1.5049,Diorite_15,3,15,6,6,1.505,3,15,0.397222307,-0.392592607,1,0,0,1.2673,Pumice_rect,8,1.267,0,7,0,7,0,1,,,,,,,,,,,,,
56780a5a89319e0011644cb4,SCR,2024-06-20_16h27.54.640,LearnStrategy,2023.2.3,Win32,60.60606061,2,1,9,-0.385185171,0.072222215,1,0,0,1.3468,Peridotite_06,7,06,4,2,1.347,7,06,-0.154629601,-0.388888889,1,0,0,1.626,Pegmatite_rect,6,1.626,0,8,0,8,0,1,,,,,,,,,,,,,
56780a5a89319e0011644cb4,SCR,2024-06-20_16h27.54.640,LearnStrategy,2023.2.3,Win32,60.60606061,2,1,10,-0.39166666,-0.39907406,1,0,0,1.5964,Pumice_16,8,16,1,2,1.596,8,16,0.36018527,-0.412037037,1,0,0,1.4429,Pumice_rect,8,1.443,1,9,0,9,0,1,,,,,,,,,,,,,
56780a5a89319e0011644cb4,SCR,2024-06-20_16h27.54.640,LearnStrategy,2023.2.3,Win32,60.60606061,2,1,11,0.284259302,-0.288888931,1,0,0,1.1974,Andesite_05,1,05,2,6,1.197,1,05,0.376851824,-0.249074088,1,0,0,1.6421,Gabbro_rect,4,1.642,0,10,0,10,0,1,,,,,,,,,,,,,
56780a5a89319e0011644cb4,SCR,2024-06-20_16h27.54.640,LearnStrategy,2023.2.3,Win32,60.60606061,2,1,12,-0.234259217,-0.275925954,1,0,0,1.1468,Pegmatite_08,6,08,2,3,1.147,6,08,-0.183333291,-0.418518561,1,0,0,1.6964,Pegmatite_rect,6,1.696,1,11,0,11,0,1,,,,,,,,,,,,,
56780a5a89319e0011644cb4,SCR,2024-06-20_16h27.54.640,LearnStrategy,2023.2.3,Win32,60.60606061,2,1,13,-0.06759255,-0.241666653,1,0,0,1.2634,Pegmatite_15,6,15,2,4,1.263,6,15,-0.111111111,-0.416666667,1,0,0,1.5089,Pegmatite_rect,6,1.509,1,12,0,12,0,1,,,,,,,,,,,,,
56780a5a89319e0011644cb4,SCR,2024-06-20_16h27.54.640,LearnStrategy,2023.2.3,Win32,60.60606061,2,1,14,0.394444501,-0.25462963,1,0,0,1.264,Basalt_08,2,08,2,7,1.264,2,08,-0.327777757,-0.250925912,1,0,0,2.6256,Andesite_rect,1,2.626,0,13,0,13,0,1,,,,,,,,,,,,,
56780a5a89319e0011644cb4,SCR,2024-06-20_16h27.54.640,LearnStrategy,2023.2.3,Win32,60.60606061,2,1,15,-0.590740734,-0.237963005,1,0,0,1.3462,Gabbro_13,4,13,2,1,1.346,4,13,0.151851866,-0.25462963,1,0,0,3.8422,Diorite_rect,3,3.842,0,14,0,14,0,1,,,,,,,,,,,,,
56780a5a89319e0011644cb4,SCR,2024-06-20_16h27.54.640,LearnStrategy,2023.2.3,Win32,60.60606061,2,1,16,0.220370399,0.395370369,1,0,0,1.5642,Diorite_15,3,15,6,6,1.564,3,15,-0.123148106,-0.396296325,1,0,0,3.358,Pegmatite_rect,6,3.358,0,15,0,15,0,1,,,,,,,,,,,,,
56780a5a89319e0011644cb4,SCR,2024-06-20_16h27.54.640,LearnStrategy,2023.2.3,Win32,60.60606061,2,2,1,,,,,,,,4,15,,,,,,,,,,,,,6,4.625,0,,,,,,-0.139814801,-0.39444443,1,0,0,4.6255,Pegmatite_rect,0,0,0,0,1,
56780a5a89319e0011644cb4,SCR,2024-06-20_16h27.54.640,LearnStrategy,2023.2.3,Win32,60.60606061,2,2,2,,,,,,,,1,11,,,,,,,,,,,,,6,1.539,0,,,,,,-0.139814801,-0.39444443,1,0,0,1.5387,Pegmatite_rect,1,0,1,0,1,
56780a5a89319e0011644cb4,SCR,2024-06-20_16h27.54.640,LearnStrategy,2023.2.3,Win32,60.60606061,2,2,3,,,,,,,,8,06,,,,,,,,,,,,,8,1.71,1,,,,,,0.357407464,-0.410185213,1,0,0,1.7101,Pumice_rect,2,0,2,0,1,
56780a5a89319e0011644cb4,SCR,2024-06-20_16h27.54.640,LearnStrategy,2023.2.3,Win32,60.60606061,2,2,4,,,,,,,,2,14,,,,,,,,,,,,,8,1.477,0,,,,,,0.357407464,-0.410185213,1,0,0,1.4766,Pumice_rect,3,0,3,0,1,
56780a5a89319e0011644cb4,SCR,2024-06-20_16h27.54.640,LearnStrategy,2023.2.3,Win32,60.60606061,2,2,5,,,,,,,,6,05,,,,,,,,,,,,,6,1.544,1,,,,,,-0.095370328,-0.393518519,1,0,0,1.5436,Pegmatite_rect,4,0,4,0,1,
56780a5a89319e0011644cb4,SCR,2024-06-20_16h27.54.640,LearnStrategy,2023.2.3,Win32,60.60606061,2,2,6,,,,,,,,6,06,,,,,,,,,,,,,6,3.51,1,,,,,,-0.138888889,-0.404629672,1,0,0,3.5099,Pegmatite_rect,5,0,5,0,1,
56780a5a89319e0011644cb4,SCR,2024-06-20_16h27.54.640,LearnStrategy,2023.2.3,Win32,60.60606061,2,2,7,,,,,,,,8,10,,,,,,,,,,,,,8,2.105,1,,,,,,0.433333362,-0.407407407,1,0,0,2.1053,Pumice_rect,6,0,6,0,1,
56780a5a89319e0011644cb4,SCR,2024-06-20_16h27.54.640,LearnStrategy,2023.2.3,Win32,60.60606061,2,2,8,,,,,,,,3,14,,,,,,,,,,,,,1,1.772,0,,,,,,-0.333333333,-0.244444459,1,0,0,1.7717,Andesite_rect,7,0,7,0,1,
56780a5a89319e0011644cb4,SCR,2024-06-20_16h27.54.640,LearnStrategy,2023.2.3,Win32,60.60606061,2,2,9,,,,,,,,4,01,,,,,,,,,,,,,2,3.627,0,,,,,,-0.180555556,-0.236111111,1,0,0,3.6268,Basalt_rect,8,0,8,0,1,
56780a5a89319e0011644cb4,SCR,2024-06-20_16h27.54.640,LearnStrategy,2023.2.3,Win32,60.60606061,2,2,10,,,,,,,,1,01,,,,,,,,,,,,,2,1.445,0,,,,,,-0.113888847,-0.256481524,1,0,0,1.4452,Basalt_rect,9,0,9,0,1,
56780a5a89319e0011644cb4,SCR,2024-06-20_16h27.54.640,LearnStrategy,2023.2.3,Win32,60.60606061,2,2,11,,,,,,,,5,16,,,,,,,,,,,,,5,1.627,1,,,,,,-0.375,-0.400000042,1,0,0,1.6268,Obsidian_rect,10,0,10,0,1,
56780a5a89319e0011644cb4,SCR,2024-06-20_16h27.54.640,LearnStrategy,2023.2.3,Win32,60.60606061,2,2,12,,,,,,,,2,01,,,,,,,,,,,,,3,2.26,0,,,,,,0.155555584,-0.263888889,1,0,0,2.2598,Diorite_rect,11,0,11,0,1,
56780a5a89319e0011644cb4,SCR,2024-06-20_16h27.54.640,LearnStrategy,2023.2.3,Win32,60.60606061,2,2,13,,,,,,,,3,16,,,,,,,,,,,,,6,2.477,0,,,,,,-0.101851852,-0.397222236,1,0,0,2.4767,Pegmatite_rect,12,0,12,0,1,
56780a5a89319e0011644cb4,SCR,2024-06-20_16h27.54.640,LearnStrategy,2023.2.3,Win32,60.60606061,2,2,14,,,,,,,,5,14,,,,,,,,,,,,,5,1.455,1,,,,,,-0.337037016,-0.39444443,1,0,0,1.4552,Obsidian_rect,13,0,13,0,1,
56780a5a89319e0011644cb4,SCR,2024-06-20_16h27.54.640,LearnStrategy,2023.2.3,Win32,60.60606061,2,2,15,,,,,,,,7,05,,,,,,,,,,,,,7,1.51,1,,,,,,0.128703718,-0.414814843,1,0,0,1.51,Peridotite_rect,14,0,14,0,1,
56780a5a89319e0011644cb4,SCR,2024-06-20_16h27.54.640,LearnStrategy,2023.2.3,Win32,60.60606061,2,2,16,,,,,,,,7,13,,,,,,,,,,,,,7,0.776,1,,,,,,0.128703718,-0.414814843,1,0,0,0.7763,Peridotite_rect,15,0,15,0,1,
56780a5a89319e0011644cb4,SCR,2024-06-20_16h27.54.640,LearnStrategy,2023.2.3,Win32,60.60606061,3,1,1,-0.511111118,0.233333323,1,0,0,1.6138,Basalt_10,2,10,5,1,1.614,2,10,0.119444459,-0.237037023,1,0,0,1.6925,Diorite_rect,3,1.693,0,0,0,0,0,1,,,,,,,,,,,,,
56780a5a89319e0011644cb4,SCR,2024-06-20_16h27.54.640,LearnStrategy,2023.2.3,Win32,60.60606061,3,1,2,0.066666709,-0.075000021,1,0,0,1.2134,Andesite_16,1,16,3,5,1.213,1,16,-0.131481453,-0.388888889,1,0,0,1.6255,Pegmatite_rect,6,1.625,0,1,0,1,0,1,,,,,,,,,,,,,
56780a5a89319e0011644cb4,SCR,2024-06-20_16h27.54.640,LearnStrategy,2023.2.3,Win32,60.60606061,3,1,3,0.235185199,0.233333323,1,0,0,1.4139,Basalt_04,2,04,5,6,1.414,2,04,-0.361111111,-0.236111111,1,0,0,1.3749,Andesite_rect,1,1.375,0,2,0,2,0,1,,,,,,,,,,,,,
56780a5a89319e0011644cb4,SCR,2024-06-20_16h27.54.640,LearnStrategy,2023.2.3,Win32,60.60606061,3,1,4,0.098148134,0.361111111,1,0,0,1.4312,Peridotite_02,7,02,6,5,1.431,7,02,0.121296282,-0.398148148,1,0,0,1.7544,Peridotite_rect,7,1.754,1,3,0,3,0,1,,,,,,,,,,,,,
56780a5a89319e0011644cb4,SCR,2024-06-20_16h27.54.640,LearnStrategy,2023.2.3,Win32,60.60606061,3,1,5,-0.383333312,-0.262962977,1,0,0,1.4632,Gabbro_10,4,10,2,2,1.463,4,10,0.404629601,-0.231481481,1,0,0,2.8901,Gabbro_rect,4,2.89,1,4,0,4,0,1,,,,,,,,,,,,,
56780a5a89319e0011644cb4,SCR,2024-06-20_16h27.54.640,LearnStrategy,2023.2.3,Win32,60.60606061,3,1,6,0.441666638,0.256481471,1,0,0,1.3124,Andesite_04,1,04,5,7,1.312,1,04,0.155555584,-0.268518519,1,0,0,4.2276,Diorite_rect,3,4.228,0,5,0,5,0,1,,,,,,,,,,,,,
56780a5a89319e0011644cb4,SCR,2024-06-20_16h27.54.640,LearnStrategy,2023.2.3,Win32,60.60606061,3,1,7,-0.513888889,0.393518519,1,0,0,1.4975,Pegmatite_13,6,13,6,1,1.497,6,13,-0.163888861,-0.385185171,1,0,0,2.0088,Pegmatite_rect,6,2.009,1,6,0,6,0,1,,,,,,,,,,,,,
56780a5a89319e0011644cb4,SCR,2024-06-20_16h27.54.640,LearnStrategy,2023.2.3,Win32,60.60606061,3,1,8,0.596296381,-0.423148191,1,0,0,1.3965,Pumice_15,8,15,1,8,1.396,8,15,0.459259316,-0.400000042,1,0,0,0.8258,Pumice_rect,8,0.826,1,7,0,7,0,1,,,,,,,,,,,,,
56780a5a89319e0011644cb4,SCR,2024-06-20_16h27.54.640,LearnStrategy,2023.2.3,Win32,60.60606061,3,1,9,-0.410185178,-0.264814801,1,0,0,1.3136,Gabbro_10,4,10,2,2,1.314,4,10,-0.146296254,-0.255555541,1,0,0,1.1917,Basalt_rect,2,1.192,0,8,0,8,0,1,,,,,,,,,,,,,
56780a5a89319e0011644cb4,SCR,2024-06-20_16h27.54.640,LearnStrategy,2023.2.3,Win32,60.60606061,3,1,10,-0.22592594,0.244444441,1,0,0,1.296,Andesite_14,1,14,5,3,1.296,1,14,0.110185199,-0.25,1,0,0,1.9239,Diorite_rect,3,1.924,0,9,0,9,0,1,,,,,,,,,,,,,
56780a5a89319e0011644cb4,SCR,2024-06-20_16h27.54.640,LearnStrategy,2023.2.3,Win32,60.60606061,3,1,11,0.389814871,-0.389814801,1,0,0,1.5649,Diorite_12,3,12,1,7,1.565,3,12,-0.145370342,-0.398148148,1,0,0,6.3794,Pegmatite_rect,6,6.379,0,10,0,10,0,1,,,,,,,,,,,,,
56780a5a89319e0011644cb4,SCR,2024-06-20_16h27.54.640,LearnStrategy,2023.2.3,Win32,60.60606061,3,1,12,0.37962963,0.097222222,1,0,0,1.1626,Diorite_02,3,02,4,7,1.163,3,02,-0.157407407,-0.391666695,1,0,0,1.7759,Pegmatite_rect,6,1.776,0,11,0,11,0,1,,,,,,,,,,,,,
56780a5a89319e0011644cb4,SCR,2024-06-20_16h27.54.640,LearnStrategy,2023.2.3,Win32,60.60606061,3,1,13,-0.538888896,0.226851852,1,0,0,1.4653,Basalt_10,2,10,5,1,1.465,2,10,-0.38703703,-0.237037023,1,0,0,2.0732,Andesite_rect,1,2.073,0,12,0,12,0,1,,,,,,,,,,,,,
56780a5a89319e0011644cb4,SCR,2024-06-20_16h27.54.640,LearnStrategy,2023.2.3,Win32,60.60606061,3,1,14,-0.090740698,-0.27407406,1,0,0,1.1149,Pegmatite_15,6,15,2,4,1.115,6,15,-0.138888889,-0.392592607,1,0,0,0.892,Pegmatite_rect,6,0.892,1,13,0,13,0,1,,,,,,,,,,,,,
56780a5a89319e0011644cb4,SCR,2024-06-20_16h27.54.640,LearnStrategy,2023.2.3,Win32,60.60606061,3,1,15,-0.396296289,0.386111109,1,0,0,1.9967,Diorite_08,3,08,6,2,1.997,3,08,-0.125,-0.389814801,1,0,0,3.1756,Pegmatite_rect,6,3.176,0,14,0,14,0,1,,,,,,,,,,,,,
56780a5a89319e0011644cb4,SCR,2024-06-20_16h27.54.640,LearnStrategy,2023.2.3,Win32,60.60606061,3,1,16,-0.22592594,-0.085185192,1,0,0,1.0965,Gabbro_03,4,03,3,3,1.096,4,03,-0.392592571,-0.25462963,1,0,0,2.5088,Andesite_rect,1,2.509,0,15,0,15,0,1,,,,,,,,,,,,,
56780a5a89319e0011644cb4,SCR,2024-06-20_16h27.54.640,LearnStrategy,2023.2.3,Win32,60.60606061,3,2,1,,,,,,,,1,02,,,,,,,,,,,,,3,2.842,0,,,,,,0.179629644,-0.244444459,1,0,0,2.8425,Diorite_rect,0,0,0,0,1,
56780a5a89319e0011644cb4,SCR,2024-06-20_16h27.54.640,LearnStrategy,2023.2.3,Win32,60.60606061,3,2,2,,,,,,,,8,04,,,,,,,,,,,,,8,1.538,1,,,,,,0.37037037,-0.385185171,1,0,0,1.5382,Pumice_rect,1,0,1,0,1,
56780a5a89319e0011644cb4,SCR,2024-06-20_16h27.54.640,LearnStrategy,2023.2.3,Win32,60.60606061,3,2,3,,,,,,,,1,03,,,,,,,,,,,,,4,1.61,0,,,,,,0.348148205,-0.262037065,1,0,0,1.6101,Gabbro_rect,2,0,2,0,1,
56780a5a89319e0011644cb4,SCR,2024-06-20_16h27.54.640,LearnStrategy,2023.2.3,Win32,60.60606061,3,2,4,,,,,,,,5,10,,,,,,,,,,,,,5,2.61,1,,,,,,-0.384259259,-0.421296296,1,0,0,2.6101,Obsidian_rect,3,0,3,0,1,
56780a5a89319e0011644cb4,SCR,2024-06-20_16h27.54.640,LearnStrategy,2023.2.3,Win32,60.60606061,3,2,5,,,,,,,,7,16,,,,,,,,,,,,,7,2.155,1,,,,,,0.124074088,-0.413888931,1,0,0,2.1553,Peridotite_rect,4,0,4,0,1,
56780a5a89319e0011644cb4,SCR,2024-06-20_16h27.54.640,LearnStrategy,2023.2.3,Win32,60.60606061,3,2,6,,,,,,,,7,07,,,,,,,,,,,,,2,2.094,0,,,,,,-0.134259259,-0.25,1,0,0,2.0936,Basalt_rect,5,0,5,0,1,
56780a5a89319e0011644cb4,SCR,2024-06-20_16h27.54.640,LearnStrategy,2023.2.3,Win32,60.60606061,3,2,7,,,,,,,,4,16,,,,,,,,,,,,,2,0.894,0,,,,,,-0.134259259,-0.25,1,0,0,0.8936,Basalt_rect,6,0,6,0,1,
56780a5a89319e0011644cb4,SCR,2024-06-20_16h27.54.640,LearnStrategy,2023.2.3,Win32,60.60606061,3,2,8,,,,,,,,2,09,,,,,,,,,,,,,2,1.143,1,,,,,,-0.134259259,-0.25,1,0,0,1.1432,Basalt_rect,7,0,7,0,1,
56780a5a89319e0011644cb4,SCR,2024-06-20_16h27.54.640,LearnStrategy,2023.2.3,Win32,60.60606061,3,2,9,,,,,,,,8,02,,,,,,,,,,,,,8,1.61,1,,,,,,0.381481453,-0.390740783,1,0,0,1.6102,Pumice_rect,8,0,8,0,1,
56780a5a89319e0011644cb4,SCR,2024-06-20_16h27.54.640,LearnStrategy,2023.2.3,Win32,60.60606061,3,2,10,,,,,,,,6,07,,,,,,,,,,,,,1,3.493,0,,,,,,-0.434259238,-0.253703718,1,0,0,3.4929,Andesite_rect,9,0,9,0,1,
56780a5a89319e0011644cb4,SCR,2024-06-20_16h27.54.640,LearnStrategy,2023.2.3,Win32,60.60606061,3,2,11,,,,,,,,3,11,,,,,,,,,,,,,3,1.939,1,,,,,,0.09629631,-0.260185171,1,0,0,1.9389,Diorite_rect,10,0,10,0,1,
56780a5a89319e0011644cb4,SCR,2024-06-20_16h27.54.640,LearnStrategy,2023.2.3,Win32,60.60606061,3,2,12,,,,,,,,2,06,,,,,,,,,,,,,2,1.843,1,,,,,,-0.112962935,-0.244444459,1,0,0,1.8433,Basalt_rect,11,0,11,0,1,
56780a5a89319e0011644cb4,SCR,2024-06-20_16h27.54.640,LearnStrategy,2023.2.3,Win32,60.60606061,3,2,13,,,,,,,,4,12,,,,,,,,,,,,,2,1.093,0,,,,,,-0.112962935,-0.244444459,1,0,0,1.0933,Basalt_rect,12,0,12,0,1,
56780a5a89319e0011644cb4,SCR,2024-06-20_16h27.54.640,LearnStrategy,2023.2.3,Win32,60.60606061,3,2,14,,,,,,,,5,07,,,,,,,,,,,,,5,1.51,1,,,,,,-0.372222229,-0.391666695,1,0,0,1.51,Obsidian_rect,13,0,13,0,1,
56780a5a89319e0011644cb4,SCR,2024-06-20_16h27.54.640,LearnStrategy,2023.2.3,Win32,60.60606061,3,2,15,,,,,,,,6,11,,,,,,,,,,,,,6,1.427,1,,,,,,-0.162037037,-0.397222236,1,0,0,1.4267,Pegmatite_rect,14,0,14,0,1,
56780a5a89319e0011644cb4,SCR,2024-06-20_16h27.54.640,LearnStrategy,2023.2.3,Win32,60.60606061,3,2,16,,,,,,,,3,09,,,,,,,,,,,,,1,1.293,0,,,,,,-0.351851852,-0.249074088,1,0,0,1.2931,Andesite_rect,15,0,15,0,1,
56780a5a89319e0011644cb4,SCR,2024-06-20_16h27.54.640,LearnStrategy,2023.2.3,Win32,60.60606061,4,1,1,-0.250925912,-0.104629658,1,0,0,1.3482,Gabbro_03,4,03,3,3,1.348,4,03,-0.381481489,-0.257407436,1,0,0,2.0588,Andesite_rect,1,2.059,0,0,0,0,0,1,,,,,,,,,,,,,
56780a5a89319e0011644cb4,SCR,2024-06-20_16h27.54.640,LearnStrategy,2023.2.3,Win32,60.60606061,4,1,2,-0.551851838,0.24166667,1,0,0,1.4145,Basalt_10,2,10,5,1,1.414,2,10,-0.145370342,-0.248148176,1,0,0,1.5421,Basalt_rect,2,1.542,1,1,0,1,0,1,,,,,,,,,,,,,
56780a5a89319e0011644cb4,SCR,2024-06-20_16h27.54.640,LearnStrategy,2023.2.3,Win32,60.60606061,4,1,3,0.398148148,-0.258333347,1,0,0,1.2641,Basalt_08,2,08,2,7,1.264,2,08,0.37037037,-0.252777806,1,0,0,1.3746,Gabbro_rect,4,1.375,0,2,0,2,0,1,,,,,,,,,,,,,
56780a5a89319e0011644cb4,SCR,2024-06-20_16h27.54.640,LearnStrategy,2023.2.3,Win32,60.60606061,4,1,4,-0.543518526,0.398148148,1,0,0,1.2973,Pegmatite_13,6,13,6,1,1.297,6,13,-0.117592564,-0.405555584,1,0,0,1.459,Pegmatite_rect,6,1.459,1,3,0,3,0,1,,,,,,,,,,,,,
56780a5a89319e0011644cb4,SCR,2024-06-20_16h27.54.640,LearnStrategy,2023.2.3,Win32,60.60606061,4,1,5,0.232407393,0.412037037,1,0,0,1.2308,Diorite_15,3,15,6,6,1.231,3,15,0.384259259,-0.240740741,1,0,0,3.2088,Gabbro_rect,4,3.209,0,4,0,4,0,1,,,,,,,,,,,,,
56780a5a89319e0011644cb4,SCR,2024-06-20_16h27.54.640,LearnStrategy,2023.2.3,Win32,60.60606061,4,1,6,0.239814829,0.38518518,1,0,0,1.9474,Diorite_15,3,15,6,6,1.947,3,15,0.130555541,-0.247222265,1,0,0,1.1756,Diorite_rect,3,1.176,1,5,0,5,0,1,,,,,,,,,,,,,
56780a5a89319e0011644cb4,SCR,2024-06-20_16h27.54.640,LearnStrategy,2023.2.3,Win32,60.60606061,4,1,7,-0.231481481,0.089814822,1,0,0,1.0973,Pegmatite_10,6,10,4,3,1.097,6,10,0.10555557,-0.395370413,1,0,0,1.3092,Peridotite_rect,7,1.309,0,6,0,6,0,1,,,,,,,,,,,,,
56780a5a89319e0011644cb4,SCR,2024-06-20_16h27.54.640,LearnStrategy,2023.2.3,Win32,60.60606061,4,1,8,-0.223148134,0.219444434,1,0,0,1.4301,Andesite_14,1,14,5,3,1.43,1,14,-0.386111118,-0.246296282,1,0,0,1.638,Andesite_rect,1,1.638,1,7,0,7,0,1,,,,,,,,,,,,,
56780a5a89319e0011644cb4,SCR,2024-06-20_16h27.54.640,LearnStrategy,2023.2.3,Win32,60.60606061,4,1,9,0.283333319,0.463888888,1,0,0,1.2476,Diorite_15,3,15,6,6,1.248,3,15,-0.376851859,-0.251851894,1,0,0,4.8915,Andesite_rect,1,4.891,0,8,0,8,0,1,,,,,,,,,,,,,
56780a5a89319e0011644cb4,SCR,2024-06-20_16h27.54.640,LearnStrategy,2023.2.3,Win32,60.60606061,4,1,10,-0.082407422,-0.110185199,1,0,0,1.0137,Pumice_05,8,05,3,4,1.014,8,05,0.405555584,-0.39444443,1,0,0,1.0922,Pumice_rect,8,1.092,1,9,0,9,0,1,,,,,,,,,,,,,
56780a5a89319e0011644cb4,SCR,2024-06-20_16h27.54.640,LearnStrategy,2023.2.3,Win32,60.60606061,4,1,11,0.243518547,-0.276851866,1,0,0,1.2978,Andesite_05,1,05,2,6,1.298,1,05,0.162037037,-0.244444459,1,0,0,1.3088,Diorite_rect,3,1.309,0,10,0,10,0,1,,,,,,,,,,,,,
56780a5a89319e0011644cb4,SCR,2024-06-20_16h27.54.640,LearnStrategy,2023.2.3,Win32,60.60606061,4,1,12,0.059259273,0.38148148,1,0,0,1.4648,Peridotite_02,7,02,6,5,1.465,7,02,0.123148176,-0.391666695,1,0,0,1.4595,Peridotite_rect,7,1.46,1,11,0,11,0,1,,,,,,,,,,,,,
56780a5a89319e0011644cb4,SCR,2024-06-20_16h27.54.640,LearnStrategy,2023.2.3,Win32,60.60606061,4,1,13,-0.52407406,-0.244444459,1,0,0,1.4147,Gabbro_13,4,13,2,1,1.415,4,13,-0.41111109,-0.253703718,1,0,0,1.7419,Andesite_rect,1,1.742,0,12,0,12,0,1,,,,,,,,,,,,,
56780a5a89319e0011644cb4,SCR,2024-06-20_16h27.54.640,LearnStrategy,2023.2.3,Win32,60.60606061,4,1,14,0.080555598,-0.10092594,1,0,0,0.9975,Andesite_16,1,16,3,5,0.997,1,16,0.187962991,-0.251851894,1,0,0,2.6254,Diorite_rect,3,2.625,0,13,0,13,0,1,,,,,,,,,,,,,
56780a5a89319e0011644cb4,SCR,2024-06-20_16h27.54.640,LearnStrategy,2023.2.3,Win32,60.60606061,4,1,15,-0.081481439,0.237962952,1,0,0,1.897,Gabbro_11,4,11,5,4,1.897,4,11,0.3648149,-0.264814801,1,0,0,1.6595,Gabbro_rect,4,1.659,1,14,0,14,0,1,,,,,,,,,,,,,
56780a5a89319e0011644cb4,SCR,2024-06-20_16h27.54.640,LearnStrategy,2023.2.3,Win32,60.60606061,4,1,16,-0.243518476,0.237037041,1,0,0,1.213,Andesite_14,1,14,5,3,1.213,1,14,-0.398148148,-0.25462963,1,0,0,1.6925,Andesite_rect,1,1.692,1,15,0,15,0,1,,,,,,,,,,,,,
56780a5a89319e0011644cb4,SCR,2024-06-20_16h27.54.640,LearnStrategy,2023.2.3,Win32,60.60606061,4,2,1,,,,,,,,4,01,,,,,,,,,,,,,1,2.075,0,,,,,,-0.393518519,-0.25,1,0,0,2.0751,Andesite_rect,0,0,0,0,1,
56780a5a89319e0011644cb4,SCR,2024-06-20_16h27.54.640,LearnStrategy,2023.2.3,Win32,60.60606061,4,2,2,,,,,,,,6,06,,,,,,,,,,,,,6,1.727,1,,,,,,-0.166666667,-0.389814801,1,0,0,1.7267,Pegmatite_rect,1,0,1,0,1,
56780a5a89319e0011644cb4,SCR,2024-06-20_16h27.54.640,LearnStrategy,2023.2.3,Win32,60.60606061,4,2,3,,,,,,,,5,16,,,,,,,,,,,,,5,1.477,1,,,,,,-0.395370377,-0.390740783,1,0,0,1.4773,Obsidian_rect,2,0,2,0,1,
56780a5a89319e0011644cb4,SCR,2024-06-20_16h27.54.640,LearnStrategy,2023.2.3,Win32,60.60606061,4,2,4,,,,,,,,3,09,,,,,,,,,,,,,1,1.759,0,,,,,,-0.3824074,-0.243518547,1,0,0,1.7594,Andesite_rect,3,0,3,0,1,
56780a5a89319e0011644cb4,SCR,2024-06-20_16h27.54.640,LearnStrategy,2023.2.3,Win32,60.60606061,4,2,5,,,,,,,,5,14,,,,,,,,,,,,,5,1.276,1,,,,,,-0.366666653,-0.389814801,1,0,0,1.2763,Obsidian_rect,4,0,4,0,1,
56780a5a89319e0011644cb4,SCR,2024-06-20_16h27.54.640,LearnStrategy,2023.2.3,Win32,60.60606061,4,2,6,,,,,,,,7,07,,,,,,,,,,,,,4,1.976,0,,,,,,0.425000085,-0.256481524,1,0,0,1.9765,Gabbro_rect,5,0,5,0,1,
56780a5a89319e0011644cb4,SCR,2024-06-20_16h27.54.640,LearnStrategy,2023.2.3,Win32,60.60606061,4,2,7,,,,,,,,7,10,,,,,,,,,,,,,4,0.794,0,,,,,,0.425000085,-0.256481524,1,0,0,0.7938,Gabbro_rect,6,0,6,0,1,
56780a5a89319e0011644cb4,SCR,2024-06-20_16h27.54.640,LearnStrategy,2023.2.3,Win32,60.60606061,4,2,8,,,,,,,,2,01,,,,,,,,,,,,,2,2.177,1,,,,,,-0.10555557,-0.264814801,1,0,0,2.177,Basalt_rect,7,0,7,0,1,
56780a5a89319e0011644cb4,SCR,2024-06-20_16h27.54.640,LearnStrategy,2023.2.3,Win32,60.60606061,4,2,9,,,,,,,,1,10,,,,,,,,,,,,,2,1.093,0,,,,,,-0.10555557,-0.264814801,1,0,0,1.0934,Basalt_rect,8,0,8,0,1,
56780a5a89319e0011644cb4,SCR,2024-06-20_16h27.54.640,LearnStrategy,2023.2.3,Win32,60.60606061,4,2,10,,,,,,,,6,03,,,,,,,,,,,,,7,1.26,0,,,,,,0.090740769,-0.408333319,1,0,0,1.2601,Peridotite_rect,9,0,9,0,1,
56780a5a89319e0011644cb4,SCR,2024-06-20_16h27.54.640,LearnStrategy,2023.2.3,Win32,60.60606061,4,2,11,,,,,,,,1,02,,,,,,,,,,,,,1,1.76,1,,,,,,-0.421296296,-0.234259288,1,0,0,1.7604,Andesite_rect,10,0,10,0,1,
56780a5a89319e0011644cb4,SCR,2024-06-20_16h27.54.640,LearnStrategy,2023.2.3,Win32,60.60606061,4,2,12,,,,,,,,4,15,,,,,,,,,,,,,3,1.443,0,,,,,,0.141666695,-0.246296282,1,0,0,1.4434,Diorite_rect,11,0,11,0,1,
56780a5a89319e0011644cb4,SCR,2024-06-20_16h27.54.640,LearnStrategy,2023.2.3,Win32,60.60606061,4,2,13,,,,,,,,2,06,,,,,,,,,,,,,2,1.393,1,,,,,,-0.106481481,-0.25,1,0,0,1.3934,Basalt_rect,12,0,12,0,1,
56780a5a89319e0011644cb4,SCR,2024-06-20_16h27.54.640,LearnStrategy,2023.2.3,Win32,60.60606061,4,2,14,,,,,,,,8,06,,,,,,,,,,,,,8,1.443,1,,,,,,0.337037122,-0.417592578,1,0,0,1.4434,Pumice_rect,13,0,13,0,1,
56780a5a89319e0011644cb4,SCR,2024-06-20_16h27.54.640,LearnStrategy,2023.2.3,Win32,60.60606061,4,2,15,,,,,,,,3,07,,,,,,,,,,,,,1,1.56,0,,,,,,-0.37037037,-0.243518547,1,0,0,1.5599,Andesite_rect,14,0,14,0,1,
56780a5a89319e0011644cb4,SCR,2024-06-20_16h27.54.640,LearnStrategy,2023.2.3,Win32,60.60606061,4,2,16,,,,,,,,8,02,,,,,,,,,,,,,8,1.41,1,,,,,,0.384259259,-0.383333347,1,0,0,1.41,Pumice_rect,15,0,15,0,1,
56780a5a89319e0011644cb4,SCR,2024-06-20_16h27.54.640,LearnStrategy,2023.2.3,Win32,60.60606061,5,1,1,0.396296325,0.080555563,1,0,0,1.2644,Diorite_02,3,02,4,7,1.264,3,02,-0.397222201,-0.243518547,1,0,0,2.3259,Andesite_rect,1,2.326,0,0,0,0,0,1,,,,,,,,,,,,,
56780a5a89319e0011644cb4,SCR,2024-06-20_16h27.54.640,LearnStrategy,2023.2.3,Win32,60.60606061,5,1,2,0.237037023,0.38981481,1,0,0,1.3801,Diorite_15,3,15,6,6,1.38,3,15,-0.418518526,-0.267592607,1,0,0,1.5089,Andesite_rect,1,1.509,0,1,0,1,0,1,,,,,,,,,,,,,
56780a5a89319e0011644cb4,SCR,2024-06-20_16h27.54.640,LearnStrategy,2023.2.3,Win32,60.60606061,5,1,3,-0.526851831,-0.248148176,1,0,0,1.5156,Gabbro_13,4,13,2,1,1.516,4,13,0.084259245,-0.239814829,1,0,0,1.6723,Diorite_rect,3,1.672,0,2,0,2,0,1,,,,,,,,,,,,,
56780a5a89319e0011644cb4,SCR,2024-06-20_16h27.54.640,LearnStrategy,2023.2.3,Win32,60.60606061,5,1,4,0.404629601,0.255555559,1,0,0,1.2806,Andesite_04,1,04,5,7,1.281,1,04,-0.352777764,-0.262962977,1,0,0,1.5926,Andesite_rect,1,1.593,1,3,0,3,0,1,,,,,,,,,,,,,
56780a5a89319e0011644cb4,SCR,2024-06-20_16h27.54.640,LearnStrategy,2023.2.3,Win32,60.60606061,5,1,5,0.239814829,-0.248148176,1,0,0,1.2314,Andesite_05,1,05,2,6,1.231,1,05,0.375,-0.232407393,1,0,0,1.6589,Gabbro_rect,4,1.659,0,4,0,4,0,1,,,,,,,,,,,,,
56780a5a89319e0011644cb4,SCR,2024-06-20_16h27.54.640,LearnStrategy,2023.2.3,Win32,60.60606061,5,1,6,-0.404629637,0.217592593,1,0,0,1.3139,Peridotite_12,7,12,5,2,1.314,7,12,-0.400925919,-0.244444459,1,0,0,1.5093,Andesite_rect,1,1.509,0,5,0,5,0,1,,,,,,,,,,,,,
56780a5a89319e0011644cb4,SCR,2024-06-20_16h27.54.640,LearnStrategy,2023.2.3,Win32,60.60606061,5,1,7,0.079629616,0.2574074,1,0,0,1.1628,Peridotite_08,7,08,5,5,1.163,7,08,0.126851894,-0.397222236,1,0,0,1.1924,Peridotite_rect,7,1.192,1,6,0,6,0,1,,,,,,,,,,,,,
56780a5a89319e0011644cb4,SCR,2024-06-20_16h27.54.640,LearnStrategy,2023.2.3,Win32,60.60606061,5,1,8,0.555555556,0.100925905,1,0,0,1.0975,Gabbro_14,4,14,4,8,1.098,4,14,-0.136111083,-0.262037065,1,0,0,2.5924,Basalt_rect,2,2.592,0,7,0,7,0,1,,,,,,,,,,,,,
56780a5a89319e0011644cb4,SCR,2024-06-20_16h27.54.640,LearnStrategy,2023.2.3,Win32,60.60606061,5,1,9,-0.22129631,-0.102777764,1,0,0,1.0642,Gabbro_03,4,03,3,3,1.064,4,03,0.088888875,-0.240740741,1,0,0,1.1925,Diorite_rect,3,1.192,0,8,0,8,0,1,,,,,,,,,,,,,
56780a5a89319e0011644cb4,SCR,2024-06-20_16h27.54.640,LearnStrategy,2023.2.3,Win32,60.60606061,5,1,10,-0.426851838,-0.412037037,1,0,0,1.948,Pumice_16,8,16,1,2,1.948,8,16,0.439814815,-0.387962977,1,0,0,1.2424,Pumice_rect,8,1.242,1,9,0,9,0,1,,,,,,,,,,,,,
56780a5a89319e0011644cb4,SCR,2024-06-20_16h27.54.640,LearnStrategy,2023.2.3,Win32,60.60606061,5,1,11,0.406481566,-0.40370369,1,0,0,1.3316,Diorite_12,3,12,1,7,1.332,3,12,-0.084259245,-0.411111125,1,0,0,1.3418,Pegmatite_rect,6,1.342,0,10,0,10,0,1,,,,,,,,,,,,,
56780a5a89319e0011644cb4,SCR,2024-06-20_16h27.54.640,LearnStrategy,2023.2.3,Win32,60.60606061,5,1,12,0.216666681,-0.083333333,1,0,0,0.9983,Pegmatite_16,6,16,3,6,0.998,6,16,-0.142592607,-0.386111153,1,0,0,1.0083,Pegmatite_rect,6,1.008,1,11,0,11,0,1,,,,,,,,,,,,,
56780a5a89319e0011644cb4,SCR,2024-06-20_16h27.54.640,LearnStrategy,2023.2.3,Win32,60.60606061,5,1,13,-0.544444437,0.224074063,1,0,0,1.3147,Basalt_10,2,10,5,1,1.315,2,10,-0.17777775,-0.236111111,1,0,0,1.2751,Basalt_rect,2,1.275,1,12,0,12,0,1,,,,,,,,,,,,,
56780a5a89319e0011644cb4,SCR,2024-06-20_16h27.54.640,LearnStrategy,2023.2.3,Win32,60.60606061,5,1,14,-0.208333333,0.215740734,1,0,0,1.281,Andesite_14,1,14,5,3,1.281,1,14,0.136111153,-0.259259259,1,0,0,1.4085,Diorite_rect,3,1.409,0,13,0,13,0,1,,,,,,,,,,,,,
56780a5a89319e0011644cb4,SCR,2024-06-20_16h27.54.640,LearnStrategy,2023.2.3,Win32,60.60606061,5,1,15,-0.513888889,0.369444441,1,0,0,1.5316,Pegmatite_13,6,13,6,1,1.532,6,13,-0.14444443,-0.398148148,1,0,0,1.4425,Pegmatite_rect,6,1.442,1,14,0,14,0,1,,,,,,,,,,,,,
56780a5a89319e0011644cb4,SCR,2024-06-20_16h27.54.640,LearnStrategy,2023.2.3,Win32,60.60606061,5,1,16,0.446296268,-0.098148134,1,0,0,1.0807,Peridotite_14,7,14,3,7,1.081,7,14,0.162962949,-0.406481496,1,0,0,1.1922,Peridotite_rect,7,1.192,1,15,0,15,0,1,,,,,,,,,,,,,
56780a5a89319e0011644cb4,SCR,2024-06-20_16h27.54.640,LearnStrategy,2023.2.3,Win32,60.60606061,5,2,1,,,,,,,,1,06,,,,,,,,,,,,,1,2.593,1,,,,,,-0.375925912,-0.242592635,1,0,0,2.5932,Andesite_rect,0,0,0,0,1,
56780a5a89319e0011644cb4,SCR,2024-06-20_16h27.54.640,LearnStrategy,2023.2.3,Win32,60.60606061,5,2,2,,,,,,,,5,09,,,,,,,,,,,,,5,2.627,1,,,,,,-0.410185178,-0.405555584,1,0,0,2.6265,Obsidian_rect,1,0,1,0,1,
56780a5a89319e0011644cb4,SCR,2024-06-20_16h27.54.640,LearnStrategy,2023.2.3,Win32,60.60606061,5,2,3,,,,,,,,2,09,,,,,,,,,,,,,4,2.56,0,,,,,,0.396296325,-0.242592635,1,0,0,2.5601,Gabbro_rect,2,0,2,0,1,
56780a5a89319e0011644cb4,SCR,2024-06-20_16h27.54.640,LearnStrategy,2023.2.3,Win32,60.60606061,5,2,4,,,,,,,,1,03,,,,,,,,,,,,,3,2.888,0,,,,,,0.155555584,-0.264814801,1,0,0,2.8884,Diorite_rect,3,0,3,0,1,
56780a5a89319e0011644cb4,SCR,2024-06-20_16h27.54.640,LearnStrategy,2023.2.3,Win32,60.60606061,5,2,5,,,,,,,,8,14,,,,,,,,,,,,,8,1.36,1,,,,,,0.376851824,-0.384259259,1,0,0,1.36,Pumice_rect,4,0,4,0,1,
56780a5a89319e0011644cb4,SCR,2024-06-20_16h27.54.640,LearnStrategy,2023.2.3,Win32,60.60606061,5,2,6,,,,,,,,6,09,,,,,,,,,,,,,7,1.61,0,,,,,,0.122222265,-0.391666695,1,0,0,1.6102,Peridotite_rect,5,0,5,0,1,
56780a5a89319e0011644cb4,SCR,2024-06-20_16h27.54.640,LearnStrategy,2023.2.3,Win32,60.60606061,5,2,7,,,,,,,,6,07,,,,,,,,,,,,,6,1.893,1,,,,,,-0.082407422,-0.401851866,1,0,0,1.8934,Pegmatite_rect,6,0,6,0,1,
56780a5a89319e0011644cb4,SCR,2024-06-20_16h27.54.640,LearnStrategy,2023.2.3,Win32,60.60606061,5,2,8,,,,,,,,3,11,,,,,,,,,,,,,3,1.889,1,,,,,,0.157407407,-0.267592607,1,0,0,1.8888,Diorite_rect,7,0,7,0,1,
56780a5a89319e0011644cb4,SCR,2024-06-20_16h27.54.640,LearnStrategy,2023.2.3,Win32,60.60606061,5,2,9,,,,,,,,3,13,,,,,,,,,,,,,3,0.711,1,,,,,,0.157407407,-0.267592607,1,0,0,0.7107,Diorite_rect,8,0,8,0,1,
56780a5a89319e0011644cb4,SCR,2024-06-20_16h27.54.640,LearnStrategy,2023.2.3,Win32,60.60606061,5,2,10,,,,,,,,7,04,,,,,,,,,,,,,1,3.777,0,,,,,,-0.39166666,-0.261111153,1,0,0,3.7766,Andesite_rect,9,0,9,0,1,
56780a5a89319e0011644cb4,SCR,2024-06-20_16h27.54.640,LearnStrategy,2023.2.3,Win32,60.60606061,5,2,11,,,,,,,,7,05,,,,,,,,,,,,,4,2.288,0,,,,,,0.409259231,-0.244444459,1,0,0,2.2884,Gabbro_rect,10,0,10,0,1,
56780a5a89319e0011644cb4,SCR,2024-06-20_16h27.54.640,LearnStrategy,2023.2.3,Win32,60.60606061,5,2,12,,,,,,,,8,10,,,,,,,,,,,,,8,1.477,1,,,,,,0.415740826,-0.390740783,1,0,0,1.4768,Pumice_rect,11,0,11,0,1,
56780a5a89319e0011644cb4,SCR,2024-06-20_16h27.54.640,LearnStrategy,2023.2.3,Win32,60.60606061,5,2,13,,,,,,,,4,08,,,,,,,,,,,,,2,1.594,0,,,,,,-0.099074046,-0.239814829,1,0,0,1.5939,Basalt_rect,12,0,12,0,1,
56780a5a89319e0011644cb4,SCR,2024-06-20_16h27.54.640,LearnStrategy,2023.2.3,Win32,60.60606061,5,2,14,,,,,,,,2,11,,,,,,,,,,,,,4,2.91,0,,,,,,0.404629601,-0.23055557,1,0,0,2.9102,Gabbro_rect,13,0,13,0,1,
56780a5a89319e0011644cb4,SCR,2024-06-20_16h27.54.640,LearnStrategy,2023.2.3,Win32,60.60606061,5,2,15,,,,,,,,5,10,,,,,,,,,,,,,5,1.49,1,,,,,,-0.37962963,-0.397222236,1,0,0,1.4904,Obsidian_rect,14,0,14,0,1,
56780a5a89319e0011644cb4,SCR,2024-06-20_16h27.54.640,LearnStrategy,2023.2.3,Win32,60.60606061,5,2,16,,,,,,,,4,05,,,,,,,,,,,,,3,1.494,0,,,,,,0.157407407,-0.246296282,1,0,0,1.4936,Diorite_rect,15,0,15,0,1,
56780a5a89319e0011644cb4,SCR,2024-06-20_16h27.54.640,LearnStrategy,2023.2.3,Win32,60.60606061,6,1,1,0.404629601,-0.378703718,1,0,0,1.5647,Diorite_12,3,12,1,7,1.565,3,12,0.18240745,-0.249074088,1,0,0,1.0426,Diorite_rect,3,1.043,1,0,0,0,0,1,,,,,,,,,,,,,
56780a5a89319e0011644cb4,SCR,2024-06-20_16h27.54.640,LearnStrategy,2023.2.3,Win32,60.60606061,6,1,2,-0.545370349,-0.242592635,1,0,0,1.3651,Gabbro_13,4,13,2,1,1.365,4,13,0.362037094,-0.260185171,1,0,0,1.6424,Gabbro_rect,4,1.642,1,1,0,1,0,1,,,,,,,,,,,,,
56780a5a89319e0011644cb4,SCR,2024-06-20_16h27.54.640,LearnStrategy,2023.2.3,Win32,60.60606061,6,1,3,-0.25,0.248148141,1,0,0,1.3472,Andesite_14,1,14,5,3,1.347,1,14,-0.396296289,-0.248148176,1,0,0,2.1592,Andesite_rect,1,2.159,1,2,0,2,0,1,,,,,,,,,,,,,
56780a5a89319e0011644cb4,SCR,2024-06-20_16h27.54.640,LearnStrategy,2023.2.3,Win32,60.60606061,6,1,4,-0.207407422,-0.255555541,1,0,0,1.2633,Pegmatite_08,6,08,2,3,1.263,6,08,-0.145370342,-0.39444443,1,0,0,1.1759,Pegmatite_rect,6,1.176,1,3,0,3,0,1,,,,,,,,,,,,,
56780a5a89319e0011644cb4,SCR,2024-06-20_16h27.54.640,LearnStrategy,2023.2.3,Win32,60.60606061,6,1,5,0.23055557,0.432407406,1,0,0,1.2979,Diorite_15,3,15,6,6,1.298,3,15,-0.385185171,-0.262962977,1,0,0,1.9093,Andesite_rect,1,1.909,0,4,0,4,0,1,,,,,,,,,,,,,
56780a5a89319e0011644cb4,SCR,2024-06-20_16h27.54.640,LearnStrategy,2023.2.3,Win32,60.60606061,6,1,6,0.396296325,-0.239814829,1,0,0,1.281,Basalt_08,2,08,2,7,1.281,2,08,-0.137036995,-0.261111153,1,0,0,0.9925,Basalt_rect,2,0.993,1,5,0,5,0,1,,,,,,,,,,,,,
56780a5a89319e0011644cb4,SCR,2024-06-20_16h27.54.640,LearnStrategy,2023.2.3,Win32,60.60606061,6,1,7,0.087962963,-0.09629631,1,0,0,1.0142,Andesite_16,1,16,3,5,1.014,1,16,-0.359259252,-0.248148176,1,0,0,3.2922,Andesite_rect,1,3.292,1,6,0,6,0,1,,,,,,,,,,,,,
56780a5a89319e0011644cb4,SCR,2024-06-20_16h27.54.640,LearnStrategy,2023.2.3,Win32,60.60606061,6,1,8,-0.405555548,0.238888882,1,0,0,1.2139,Peridotite_12,7,12,5,2,1.214,7,12,0.122222265,-0.410185213,1,0,0,1.5261,Peridotite_rect,7,1.526,1,7,0,7,0,1,,,,,,,,,,,,,
56780a5a89319e0011644cb4,SCR,2024-06-20_16h27.54.640,LearnStrategy,2023.2.3,Win32,60.60606061,6,1,9,0.549074102,0.075925933,1,0,0,1.3313,Gabbro_14,4,14,4,8,1.331,4,14,0.382407436,-0.240740741,1,0,0,2.1426,Gabbro_rect,4,2.143,1,8,0,8,0,1,,,,,,,,,,,,,
56780a5a89319e0011644cb4,SCR,2024-06-20_16h27.54.640,LearnStrategy,2023.2.3,Win32,60.60606061,6,1,10,-0.376851859,-0.242592635,1,0,0,1.3305,Gabbro_10,4,10,2,2,1.33,4,10,-0.199074074,-0.271296325,1,0,0,1.5925,Basalt_rect,2,1.593,0,9,0,9,0,1,,,,,,,,,,,,,
56780a5a89319e0011644cb4,SCR,2024-06-20_16h27.54.640,LearnStrategy,2023.2.3,Win32,60.60606061,6,1,11,0.251851894,0.231481481,1,0,0,1.1478,Basalt_04,2,04,5,6,1.148,2,04,-0.131481453,-0.228703746,1,0,0,1.2259,Basalt_rect,2,1.226,1,10,0,10,0,1,,,,,,,,,,,,,
56780a5a89319e0011644cb4,SCR,2024-06-20_16h27.54.640,LearnStrategy,2023.2.3,Win32,60.60606061,6,1,12,-0.255555541,-0.121296282,1,0,0,1.0814,Gabbro_03,4,03,3,3,1.081,4,03,0.103703746,-0.247222265,1,0,0,1.7759,Diorite_rect,3,1.776,0,11,0,11,0,1,,,,,,,,,,,,,
56780a5a89319e0011644cb4,SCR,2024-06-20_16h27.54.640,LearnStrategy,2023.2.3,Win32,60.60606061,6,1,13,-0.059259273,-0.257407436,1,0,0,1.1144,Pegmatite_15,6,15,2,4,1.114,6,15,-0.151851866,-0.388888889,1,0,0,0.7594,Pegmatite_rect,6,0.759,1,12,0,12,0,1,,,,,,,,,,,,,
56780a5a89319e0011644cb4,SCR,2024-06-20_16h27.54.640,LearnStrategy,2023.2.3,Win32,60.60606061,6,1,14,-0.400000007,0.094444452,1,0,0,1.2309,Peridotite_06,7,06,4,2,1.231,7,06,0.161111125,-0.415740755,1,0,0,1.4593,Peridotite_rect,7,1.459,1,13,0,13,0,1,,,,,,,,,,,,,
56780a5a89319e0011644cb4,SCR,2024-06-20_16h27.54.640,LearnStrategy,2023.2.3,Win32,60.60606061,6,1,15,-0.238888847,0.259259259,1,0,0,1.0977,Andesite_14,1,14,5,3,1.098,1,14,-0.40370369,-0.26944443,1,0,0,1.3926,Andesite_rect,1,1.393,1,14,0,14,0,1,,,,,,,,,,,,,
56780a5a89319e0011644cb4,SCR,2024-06-20_16h27.54.640,LearnStrategy,2023.2.3,Win32,60.60606061,6,1,16,-0.386111118,0.104629623,1,0,0,1.0972,Peridotite_06,7,06,4,2,1.097,7,06,0.14444443,-0.395370413,1,0,0,2.5259,Peridotite_rect,7,2.526,1,15,0,15,0,1,,,,,,,,,,,,,
56780a5a89319e0011644cb4,SCR,2024-06-20_16h27.54.640,LearnStrategy,2023.2.3,Win32,60.60606061,6,2,1,,,,,,,,3,16,,,,,,,,,,,,,3,3.393,1,,,,,,0.132407436,-0.236111111,1,0,0,3.3933,Diorite_rect,0,0,0,0,1,
56780a5a89319e0011644cb4,SCR,2024-06-20_16h27.54.640,LearnStrategy,2023.2.3,Win32,60.60606061,6,2,2,,,,,,,,7,13,,,,,,,,,,,,,7,1.397,1,,,,,,0.125,-0.397222236,1,0,0,1.3968,Peridotite_rect,1,0,1,0,1,
56780a5a89319e0011644cb4,SCR,2024-06-20_16h27.54.640,LearnStrategy,2023.2.3,Win32,60.60606061,6,2,3,,,,,,,,2,12,,,,,,,,,,,,,4,1.702,0,,,,,,0.412037037,-0.238888917,1,0,0,1.7022,Gabbro_rect,2,0,2,0,1,
56780a5a89319e0011644cb4,SCR,2024-06-20_16h27.54.640,LearnStrategy,2023.2.3,Win32,60.60606061,6,2,4,,,,,,,,8,08,,,,,,,,,,,,,8,1.885,1,,,,,,0.409259231,-0.402777778,1,0,0,1.885,Pumice_rect,3,0,3,0,1,
56780a5a89319e0011644cb4,SCR,2024-06-20_16h27.54.640,LearnStrategy,2023.2.3,Win32,60.60606061,6,2,5,,,,,,,,8,04,,,,,,,,,,,,,8,1.03,1,,,,,,0.41851849,-0.410185213,1,0,0,1.0303,Pumice_rect,4,0,4,0,1,
56780a5a89319e0011644cb4,SCR,2024-06-20_16h27.54.640,LearnStrategy,2023.2.3,Win32,60.60606061,6,2,6,,,,,,,,6,11,,,,,,,,,,,,,6,1.417,1,,,,,,-0.126851824,-0.412962949,1,0,0,1.4169,Pegmatite_rect,5,0,5,0,1,
56780a5a89319e0011644cb4,SCR,2024-06-20_16h27.54.640,LearnStrategy,2023.2.3,Win32,60.60606061,6,2,7,,,,,,,,7,16,,,,,,,,,,,,,7,1.285,1,,,,,,0.121296282,-0.382407436,1,0,0,1.2852,Peridotite_rect,6,0,6,0,1,
56780a5a89319e0011644cb4,SCR,2024-06-20_16h27.54.640,LearnStrategy,2023.2.3,Win32,60.60606061,6,2,8,,,,,,,,2,14,,,,,,,,,,,,,4,2.952,0,,,,,,0.388888889,-0.250925912,1,0,0,2.9516,Gabbro_rect,7,0,7,0,1,
56780a5a89319e0011644cb4,SCR,2024-06-20_16h27.54.640,LearnStrategy,2023.2.3,Win32,60.60606061,6,2,9,,,,,,,,5,04,,,,,,,,,,,,,5,1.447,1,,,,,,-0.400925919,-0.395370413,1,0,0,1.447,Obsidian_rect,8,0,8,0,1,
56780a5a89319e0011644cb4,SCR,2024-06-20_16h27.54.640,LearnStrategy,2023.2.3,Win32,60.60606061,6,2,10,,,,,,,,1,11,,,,,,,,,,,,,1,2.056,1,,,,,,-0.420370349,-0.259259259,1,0,0,2.0558,Andesite_rect,9,0,9,0,1,
56780a5a89319e0011644cb4,SCR,2024-06-20_16h27.54.640,LearnStrategy,2023.2.3,Win32,60.60606061,6,2,11,,,,,,,,1,01,,,,,,,,,,,,,3,2.618,0,,,,,,0.165740755,-0.249074088,1,0,0,2.6184,Diorite_rect,10,0,10,0,1,
56780a5a89319e0011644cb4,SCR,2024-06-20_16h27.54.640,LearnStrategy,2023.2.3,Win32,60.60606061,6,2,12,,,,,,,,6,05,,,,,,,,,,,,,4,3.269,0,,,,,,0.42314812,-0.242592635,1,0,0,3.2692,Gabbro_rect,11,0,11,0,1,
56780a5a89319e0011644cb4,SCR,2024-06-20_16h27.54.640,LearnStrategy,2023.2.3,Win32,60.60606061,6,2,13,,,,,,,,4,16,,,,,,,,,,,,,4,1.318,1,,,,,,0.42314812,-0.242592635,1,0,0,1.3184,Gabbro_rect,12,0,12,0,1,
56780a5a89319e0011644cb4,SCR,2024-06-20_16h27.54.640,LearnStrategy,2023.2.3,Win32,60.60606061,6,2,14,,,,,,,,3,14,,,,,,,,,,,,,3,1.602,1,,,,,,0.137962977,-0.268518519,1,0,0,1.6018,Diorite_rect,13,0,13,0,1,
56780a5a89319e0011644cb4,SCR,2024-06-20_16h27.54.640,LearnStrategy,2023.2.3,Win32,60.60606061,6,2,15,,,,,,,,4,12,,,,,,,,,,,,,4,1.669,1,,,,,,0.359259288,-0.240740741,1,0,0,1.6687,Gabbro_rect,14,0,14,0,1,
56780a5a89319e0011644cb4,SCR,2024-06-20_16h27.54.640,LearnStrategy,2023.2.3,Win32,60.60606061,6,2,16,,,,,,,,5,07,,,,,,,,,,,,,5,1.468,1,,,,,,-0.353703711,-0.39444443,1,0,0,1.4683,Obsidian_rect,15,0,15,0,1,
56780a5a89319e0011644cb4,SCR,2024-06-20_16h27.54.640,LearnStrategy,2023.2.3,Win32,60.60606061,7,1,1,-0.375,0.068518497,1,0,0,1.2057,Peridotite_06,7,06,4,2,1.206,7,06,0.151851866,-0.39907406,1,0,0,0.9608,Peridotite_rect,7,0.961,1,0,0,0,0,1,,,,,,,,,,,,,
56780a5a89319e0011644cb4,SCR,2024-06-20_16h27.54.640,LearnStrategy,2023.2.3,Win32,60.60606061,7,1,2,-0.390740748,-0.092592593,1,0,0,1.0697,Basalt_02,2,02,3,2,1.07,2,02,0.412037037,-0.246296282,1,0,0,1.2948,Gabbro_rect,4,1.295,0,1,0,1,0,1,,,,,,,,,,,,,
56780a5a89319e0011644cb4,SCR,2024-06-20_16h27.54.640,LearnStrategy,2023.2.3,Win32,60.60606061,7,1,3,0.560185185,0.121296282,1,0,0,1.1221,Gabbro_14,4,14,4,8,1.122,4,14,0.139814801,-0.24537037,1,0,0,1.1022,Diorite_rect,3,1.102,0,2,0,2,0,1,,,,,,,,,,,,,
56780a5a89319e0011644cb4,SCR,2024-06-20_16h27.54.640,LearnStrategy,2023.2.3,Win32,60.60606061,7,1,4,0.394444501,-0.438888903,1,0,0,1.2974,Diorite_12,3,12,1,7,1.297,3,12,0.125,-0.263888889,1,0,0,0.9927,Diorite_rect,3,0.993,1,3,0,3,0,1,,,,,,,,,,,,,
56780a5a89319e0011644cb4,SCR,2024-06-20_16h27.54.640,LearnStrategy,2023.2.3,Win32,60.60606061,7,1,5,0.579629686,-0.256481524,1,0,0,1.2129,Basalt_05,2,05,2,8,1.213,2,05,-0.133333347,-0.257407436,1,0,0,1.0133,Basalt_rect,2,1.013,1,4,0,4,0,1,,,,,,,,,,,,,
56780a5a89319e0011644cb4,SCR,2024-06-20_16h27.54.640,LearnStrategy,2023.2.3,Win32,60.60606061,7,1,6,-0.078703704,0.361111111,1,0,0,1.6302,Pumice_13,8,13,6,4,1.63,8,13,0.36018527,-0.251851894,1,0,0,2.4591,Gabbro_rect,4,2.459,0,5,0,5,0,1,,,,,,,,,,,,,
56780a5a89319e0011644cb4,SCR,2024-06-20_16h27.54.640,LearnStrategy,2023.2.3,Win32,60.60606061,7,1,7,-0.522222201,-0.387037065,1,0,0,1.4963,Andesite_07,1,07,1,1,1.496,1,07,-0.40648146,-0.244444459,1,0,0,1.6426,Andesite_rect,1,1.643,1,6,0,6,0,1,,,,,,,,,,,,,
56780a5a89319e0011644cb4,SCR,2024-06-20_16h27.54.640,LearnStrategy,2023.2.3,Win32,60.60606061,7,1,8,-0.573148127,0.449074074,1,0,0,1.564,Pegmatite_13,6,13,6,1,1.564,6,13,-0.151851866,-0.401851866,1,0,0,1.1592,Pegmatite_rect,6,1.159,1,7,0,7,0,1,,,,,,,,,,,,,
56780a5a89319e0011644cb4,SCR,2024-06-20_16h27.54.640,LearnStrategy,2023.2.3,Win32,60.60606061,7,1,9,-0.530555548,0.404629628,1,0,0,1.3146,Pegmatite_13,6,13,6,1,1.315,6,13,-0.128703718,-0.389814801,1,0,0,1.1258,Pegmatite_rect,6,1.126,1,8,0,8,0,1,,,,,,,,,,,,,
56780a5a89319e0011644cb4,SCR,2024-06-20_16h27.54.640,LearnStrategy,2023.2.3,Win32,60.60606061,7,1,10,0.402777778,0.229629623,1,0,0,1.2815,Andesite_04,1,04,5,7,1.282,1,04,0.435185185,-0.26944443,1,0,0,0.9761,Gabbro_rect,4,0.976,0,9,0,9,0,1,,,,,,,,,,,,,
56780a5a89319e0011644cb4,SCR,2024-06-20_16h27.54.640,LearnStrategy,2023.2.3,Win32,60.60606061,7,1,11,0.216666681,-0.255555541,1,0,0,1.2806,Andesite_05,1,05,2,6,1.281,1,05,0.130555541,-0.25462963,1,0,0,2.4922,Diorite_rect,3,2.492,0,10,0,10,0,1,,,,,,,,,,,,,
56780a5a89319e0011644cb4,SCR,2024-06-20_16h27.54.640,LearnStrategy,2023.2.3,Win32,60.60606061,7,1,12,0.35555564,-0.10555557,1,0,0,1.0972,Peridotite_14,7,14,3,7,1.097,7,14,0.130555541,-0.398148148,1,0,0,1.6647,Peridotite_rect,7,1.665,1,11,0,11,0,1,,,,,,,,,,,,,
56780a5a89319e0011644cb4,SCR,2024-06-20_16h27.54.640,LearnStrategy,2023.2.3,Win32,60.60606061,7,1,13,0.049074102,-0.25,1,0,0,1.2312,Basalt_16,2,16,2,5,1.231,2,16,-0.113888847,-0.262962977,1,0,0,2.0422,Basalt_rect,2,2.042,1,12,0,12,0,1,,,,,,,,,,,,,
56780a5a89319e0011644cb4,SCR,2024-06-20_16h27.54.640,LearnStrategy,2023.2.3,Win32,60.60606061,7,1,14,0.514814871,0.087037016,1,0,0,1.2478,Gabbro_14,4,14,4,8,1.248,4,14,0.110185199,-0.237037023,1,0,0,1.1303,Diorite_rect,3,1.13,0,13,0,13,0,1,,,,,,,,,,,,,
56780a5a89319e0011644cb4,SCR,2024-06-20_16h27.54.640,LearnStrategy,2023.2.3,Win32,60.60606061,7,1,15,-0.53611109,-0.270370413,1,0,0,1.3141,Gabbro_13,4,13,2,1,1.314,4,13,0.125,-0.259259259,1,0,0,1.1259,Diorite_rect,3,1.126,0,14,0,14,0,1,,,,,,,,,,,,,
56780a5a89319e0011644cb4,SCR,2024-06-20_16h27.54.640,LearnStrategy,2023.2.3,Win32,60.60606061,7,1,16,0.397222307,-0.431481467,1,0,0,1.5977,Diorite_12,3,12,1,7,1.598,3,12,-0.348148134,-0.234259288,1,0,0,2.376,Andesite_rect,1,2.376,0,15,0,15,0,1,,,,,,,,,,,,,
56780a5a89319e0011644cb4,SCR,2024-06-20_16h27.54.640,LearnStrategy,2023.2.3,Win32,60.60606061,7,2,1,,,,,,,,1,01,,,,,,,,,,,,,3,3.759,0,,,,,,0.139814801,-0.239814829,1,0,0,3.7594,Diorite_rect,0,0,0,0,1,
56780a5a89319e0011644cb4,SCR,2024-06-20_16h27.54.640,LearnStrategy,2023.2.3,Win32,60.60606061,7,2,2,,,,,,,,1,02,,,,,,,,,,,,,1,3.304,1,,,,,,-0.359259252,-0.247222265,1,0,0,3.3042,Andesite_rect,1,0,1,0,1,
56780a5a89319e0011644cb4,SCR,2024-06-20_16h27.54.640,LearnStrategy,2023.2.3,Win32,60.60606061,7,2,3,,,,,,,,6,11,,,,,,,,,,,,,6,1.106,1,,,,,,-0.107407393,-0.400925954,1,0,0,1.1056,Pegmatite_rect,2,0,2,0,1,
56780a5a89319e0011644cb4,SCR,2024-06-20_16h27.54.640,LearnStrategy,2023.2.3,Win32,60.60606061,7,2,4,,,,,,,,5,04,,,,,,,,,,,,,5,1.464,1,,,,,,-0.390740748,-0.406481496,1,0,0,1.4639,Obsidian_rect,3,0,3,0,1,
56780a5a89319e0011644cb4,SCR,2024-06-20_16h27.54.640,LearnStrategy,2023.2.3,Win32,60.60606061,7,2,5,,,,,,,,4,15,,,,,,,,,,,,,4,1.143,1,,,,,,0.375925982,-0.231481481,1,0,0,1.1433,Gabbro_rect,4,0,4,0,1,
56780a5a89319e0011644cb4,SCR,2024-06-20_16h27.54.640,LearnStrategy,2023.2.3,Win32,60.60606061,7,2,6,,,,,,,,2,06,,,,,,,,,,,,,2,2.026,1,,,,,,-0.145370342,-0.259259259,1,0,0,2.0265,Basalt_rect,5,0,5,0,1,
56780a5a89319e0011644cb4,SCR,2024-06-20_16h27.54.640,LearnStrategy,2023.2.3,Win32,60.60606061,7,2,7,,,,,,,,8,02,,,,,,,,,,,,,8,1.389,1,,,,,,0.371296353,-0.396296325,1,0,0,1.3887,Pumice_rect,6,0,6,0,1,
56780a5a89319e0011644cb4,SCR,2024-06-20_16h27.54.640,LearnStrategy,2023.2.3,Win32,60.60606061,7,2,8,,,,,,,,7,13,,,,,,,,,,,,,7,1.11,1,,,,,,0.140740783,-0.404629672,1,0,0,1.1102,Peridotite_rect,7,0,7,0,1,
56780a5a89319e0011644cb4,SCR,2024-06-20_16h27.54.640,LearnStrategy,2023.2.3,Win32,60.60606061,7,2,9,,,,,,,,8,14,,,,,,,,,,,,,8,1.726,1,,,,,,0.386111083,-0.401851866,1,0,0,1.7262,Pumice_rect,8,0,8,0,1,
56780a5a89319e0011644cb4,SCR,2024-06-20_16h27.54.640,LearnStrategy,2023.2.3,Win32,60.60606061,7,2,10,,,,,,,,7,10,,,,,,,,,,,,,3,1.86,0,,,,,,0.115740741,-0.258333347,1,0,0,1.8604,Diorite_rect,9,0,9,0,1,
56780a5a89319e0011644cb4,SCR,2024-06-20_16h27.54.640,LearnStrategy,2023.2.3,Win32,60.60606061,7,2,11,,,,,,,,5,10,,,,,,,,,,,,,5,2.455,1,,,,,,-0.400925919,-0.408333319,1,0,0,2.4549,Obsidian_rect,10,0,10,0,1,
56780a5a89319e0011644cb4,SCR,2024-06-20_16h27.54.640,LearnStrategy,2023.2.3,Win32,60.60606061,7,2,12,,,,,,,,6,06,,,,,,,,,,,,,6,2.977,1,,,,,,-0.156481496,-0.400925954,1,0,0,2.977,Pegmatite_rect,11,0,11,0,1,
56780a5a89319e0011644cb4,SCR,2024-06-20_16h27.54.640,LearnStrategy,2023.2.3,Win32,60.60606061,7,2,13,,,,,,,,2,12,,,,,,,,,,,,,2,4.188,1,,,,,,-0.112037023,-0.253703718,1,0,0,4.1882,Basalt_rect,12,0,12,0,1,
56780a5a89319e0011644cb4,SCR,2024-06-20_16h27.54.640,LearnStrategy,2023.2.3,Win32,60.60606061,7,2,14,,,,,,,,4,01,,,,,,,,,,,,,3,1.839,0,,,,,,0.143518519,-0.255555541,1,0,0,1.839,Diorite_rect,13,0,13,0,1,
56780a5a89319e0011644cb4,SCR,2024-06-20_16h27.54.640,LearnStrategy,2023.2.3,Win32,60.60606061,7,2,15,,,,,,,,3,07,,,,,,,,,,,,,1,1.543,0,,,,,,-0.377777771,-0.244444459,1,0,0,1.5429,Andesite_rect,14,0,14,0,1,
56780a5a89319e0011644cb4,SCR,2024-06-20_16h27.54.640,LearnStrategy,2023.2.3,Win32,60.60606061,7,2,16,,,,,,,,3,11,,,,,,,,,,,,,4,3.793,0,,,,,,0.397222307,-0.253703718,1,0,0,3.7929,Gabbro_rect,15,0,15,0,1,
56780a5a89319e0011644cb4,SCR,2024-06-20_16h27.54.640,LearnStrategy,2023.2.3,Win32,60.60606061,8,1,1,-0.580555563,0.432407406,1,0,0,1.2647,Pegmatite_13,6,13,6,1,1.265,6,13,-0.103703675,-0.405555584,1,0,0,1.6254,Pegmatite_rect,6,1.625,1,0,0,0,0,1,,,,,,,,,,,,,
56780a5a89319e0011644cb4,SCR,2024-06-20_16h27.54.640,LearnStrategy,2023.2.3,Win32,60.60606061,8,1,2,-0.392592571,0.103703711,1,0,0,1.2977,Peridotite_06,7,06,4,2,1.298,7,06,0.136111153,-0.39907406,1,0,0,1.2093,Peridotite_rect,7,1.209,1,1,0,1,0,1,,,,,,,,,,,,,
56780a5a89319e0011644cb4,SCR,2024-06-20_16h27.54.640,LearnStrategy,2023.2.3,Win32,60.60606061,8,1,3,-0.238888847,0.384259259,1,0,0,1.2645,Andesite_09,1,09,6,3,1.264,1,09,0.12962963,-0.244444459,1,0,0,2.4422,Diorite_rect,3,2.442,0,2,0,2,0,1,,,,,,,,,,,,,
56780a5a89319e0011644cb4,SCR,2024-06-20_16h27.54.640,LearnStrategy,2023.2.3,Win32,60.60606061,8,1,4,0.051851838,-0.086111104,1,0,0,1.0304,Andesite_16,1,16,3,5,1.03,1,16,0.125,-0.252777806,1,0,0,1.4724,Diorite_rect,3,1.472,0,3,0,3,0,1,,,,,,,,,,,,,
56780a5a89319e0011644cb4,SCR,2024-06-20_16h27.54.640,LearnStrategy,2023.2.3,Win32,60.60606061,8,1,5,-0.395370377,-0.408333319,1,0,0,2.6475,Pumice_16,8,16,1,2,2.647,8,16,0.491666723,-0.396296325,1,0,0,1.2425,Pumice_rect,8,1.242,1,4,0,4,0,1,,,,,,,,,,,,,
56780a5a89319e0011644cb4,SCR,2024-06-20_16h27.54.640,LearnStrategy,2023.2.3,Win32,60.60606061,8,1,6,0.42777775,0.236111111,1,0,0,1.2969,Andesite_04,1,04,5,7,1.297,1,04,-0.393518519,-0.261111153,1,0,0,1.9255,Andesite_rect,1,1.926,1,5,0,5,0,1,,,,,,,,,,,,,
56780a5a89319e0011644cb4,SCR,2024-06-20_16h27.54.640,LearnStrategy,2023.2.3,Win32,60.60606061,8,1,7,0.410185213,0.086111104,1,0,0,1.0147,Diorite_02,3,02,4,7,1.015,3,02,0.15370369,-0.238888917,1,0,0,1.2594,Diorite_rect,3,1.259,1,6,0,6,0,1,,,,,,,,,,,,,
56780a5a89319e0011644cb4,SCR,2024-06-20_16h27.54.640,LearnStrategy,2023.2.3,Win32,60.60606061,8,1,8,0.519444501,0.081481474,1,0,0,1.3803,Gabbro_14,4,14,4,8,1.38,4,14,0.416666667,-0.231481481,1,0,0,1.059,Gabbro_rect,4,1.059,1,7,0,7,0,1,,,,,,,,,,,,,
56780a5a89319e0011644cb4,SCR,2024-06-20_16h27.54.640,LearnStrategy,2023.2.3,Win32,60.60606061,8,1,9,-0.586111104,-0.250925912,1,0,0,1.2475,Gabbro_13,4,13,2,1,1.247,4,13,0.375925982,-0.247222265,1,0,0,1.6412,Gabbro_rect,4,1.641,1,8,0,8,0,1,,,,,,,,,,,,,
56780a5a89319e0011644cb4,SCR,2024-06-20_16h27.54.640,LearnStrategy,2023.2.3,Win32,60.60606061,8,1,10,0.073148162,-0.40370369,1,0,0,1.2633,Pegmatite_12,6,12,1,5,1.263,6,12,0.114814829,-0.258333347,1,0,0,1.2978,Diorite_rect,3,1.298,0,9,0,9,0,1,,,,,,,,,,,,,
56780a5a89319e0011644cb4,SCR,2024-06-20_16h27.54.640,LearnStrategy,2023.2.3,Win32,60.60606061,8,1,11,0.575925898,0.232407411,1,0,0,1.2298,Peridotite_15,7,15,5,8,1.23,7,15,0.157407407,-0.386111153,1,0,0,1.1078,Peridotite_rect,7,1.108,1,10,0,10,0,1,,,,,,,,,,,,,
56780a5a89319e0011644cb4,SCR,2024-06-20_16h27.54.640,LearnStrategy,2023.2.3,Win32,60.60606061,8,1,12,-0.539814808,0.219444434,1,0,0,1.2639,Basalt_10,2,10,5,1,1.264,2,10,0.405555584,-0.241666653,1,0,0,1.4424,Gabbro_rect,4,1.442,0,11,0,11,0,1,,,,,,,,,,,,,
56780a5a89319e0011644cb4,SCR,2024-06-20_16h27.54.640,LearnStrategy,2023.2.3,Win32,60.60606061,8,1,13,0.537037037,-0.112037023,1,0,0,1.2469,Diorite_10,3,10,3,8,1.247,3,10,-0.39444443,-0.246296282,1,0,0,1.1256,Andesite_rect,1,1.126,0,12,0,12,0,1,,,,,,,,,,,,,
56780a5a89319e0011644cb4,SCR,2024-06-20_16h27.54.640,LearnStrategy,2023.2.3,Win32,60.60606061,8,1,14,0.567592621,-0.268518519,1,0,0,1.1981,Basalt_05,2,05,2,8,1.198,2,05,-0.12037037,-0.246296282,1,0,0,0.9928,Basalt_rect,2,0.993,1,13,0,13,0,1,,,,,,,,,,,,,
56780a5a89319e0011644cb4,SCR,2024-06-20_16h27.54.640,LearnStrategy,2023.2.3,Win32,60.60606061,8,1,15,0.111111111,0.128703683,1,0,0,0.9463,Gabbro_09,4,09,4,5,0.946,4,09,-0.159259231,-0.251851894,1,0,0,2.9418,Basalt_rect,2,2.942,0,14,0,14,0,1,,,,,,,,,,,,,
56780a5a89319e0011644cb4,SCR,2024-06-20_16h27.54.640,LearnStrategy,2023.2.3,Win32,60.60606061,8,1,16,0.387037065,0.094444452,1,0,0,1.3149,Diorite_02,3,02,4,7,1.315,3,02,0.124074088,-0.251851894,1,0,0,1.209,Diorite_rect,3,1.209,1,15,0,15,0,1,,,,,,,,,,,,,
56780a5a89319e0011644cb4,SCR,2024-06-20_16h27.54.640,LearnStrategy,2023.2.3,Win32,60.60606061,8,2,1,,,,,,,,2,09,,,,,,,,,,,,,2,4.693,1,,,,,,-0.10092594,-0.248148176,1,0,0,4.693,Basalt_rect,0,0,0,0,1,
56780a5a89319e0011644cb4,SCR,2024-06-20_16h27.54.640,LearnStrategy,2023.2.3,Win32,60.60606061,8,2,2,,,,,,,,8,08,,,,,,,,,,,,,8,1.419,1,,,,,,0.384259259,-0.400000042,1,0,0,1.419,Pumice_rect,1,0,1,0,1,
56780a5a89319e0011644cb4,SCR,2024-06-20_16h27.54.640,LearnStrategy,2023.2.3,Win32,60.60606061,8,2,3,,,,,,,,2,01,,,,,,,,,,,,,4,2.243,0,,,,,,0.374074159,-0.260185171,1,0,0,2.2434,Gabbro_rect,2,0,2,0,1,
56780a5a89319e0011644cb4,SCR,2024-06-20_16h27.54.640,LearnStrategy,2023.2.3,Win32,60.60606061,8,2,4,,,,,,,,5,14,,,,,,,,,,,,,5,2.206,1,,,,,,-0.38703703,-0.419444473,1,0,0,2.2055,Obsidian_rect,3,0,3,0,1,
56780a5a89319e0011644cb4,SCR,2024-06-20_16h27.54.640,LearnStrategy,2023.2.3,Win32,60.60606061,8,2,5,,,,,,,,6,05,,,,,,,,,,,,,6,2.193,1,,,,,,-0.154629601,-0.40370369,1,0,0,2.1933,Pegmatite_rect,4,0,4,0,1,
56780a5a89319e0011644cb4,SCR,2024-06-20_16h27.54.640,LearnStrategy,2023.2.3,Win32,60.60606061,8,2,6,,,,,,,,4,08,,,,,,,,,,,,,2,3.256,0,,,,,,-0.093518504,-0.263888889,1,0,0,3.2565,Basalt_rect,5,0,5,0,1,
56780a5a89319e0011644cb4,SCR,2024-06-20_16h27.54.640,LearnStrategy,2023.2.3,Win32,60.60606061,8,2,7,,,,,,,,1,06,,,,,,,,,,,,,3,2.772,0,,,,,,0.14444443,-0.261111153,1,0,0,2.7716,Diorite_rect,6,0,6,0,1,
56780a5a89319e0011644cb4,SCR,2024-06-20_16h27.54.640,LearnStrategy,2023.2.3,Win32,60.60606061,8,2,8,,,,,,,,8,10,,,,,,,,,,,,,8,1.497,1,,,,,,0.389814871,-0.393518519,1,0,0,1.4973,Pumice_rect,7,0,7,0,1,
56780a5a89319e0011644cb4,SCR,2024-06-20_16h27.54.640,LearnStrategy,2023.2.3,Win32,60.60606061,8,2,9,,,,,,,,7,04,,,,,,,,,,,,,3,4.153,0,,,,,,0.133333347,-0.250925912,1,0,0,4.1531,Diorite_rect,8,0,8,0,1,
56780a5a89319e0011644cb4,SCR,2024-06-20_16h27.54.640,LearnStrategy,2023.2.3,Win32,60.60606061,8,2,10,,,,,,,,1,10,,,,,,,,,,,,,4,2.014,0,,,,,,0.411111196,-0.242592635,1,0,0,2.0141,Gabbro_rect,9,0,9,0,1,
56780a5a89319e0011644cb4,SCR,2024-06-20_16h27.54.640,LearnStrategy,2023.2.3,Win32,60.60606061,8,2,11,,,,,,,,3,09,,,,,,,,,,,,,3,2.435,1,,,,,,0.125925912,-0.252777806,1,0,0,2.4349,Diorite_rect,10,0,10,0,1,
56780a5a89319e0011644cb4,SCR,2024-06-20_16h27.54.640,LearnStrategy,2023.2.3,Win32,60.60606061,8,2,12,,,,,,,,6,07,,,,,,,,,,,,,6,3.897,1,,,,,,-0.138888889,-0.411111125,1,0,0,3.8971,Pegmatite_rect,11,0,11,0,1,
56780a5a89319e0011644cb4,SCR,2024-06-20_16h27.54.640,LearnStrategy,2023.2.3,Win32,60.60606061,8,2,13,,,,,,,,4,16,,,,,,,,,,,,,4,1.65,1,,,,,,0.437962991,-0.252777806,1,0,0,1.65,Gabbro_rect,12,0,12,0,1,
56780a5a89319e0011644cb4,SCR,2024-06-20_16h27.54.640,LearnStrategy,2023.2.3,Win32,60.60606061,8,2,14,,,,,,,,7,07,,,,,,,,,,,,,3,1.552,0,,,,,,0.136111153,-0.263888889,1,0,0,1.5521,Diorite_rect,13,0,13,0,1,
56780a5a89319e0011644cb4,SCR,2024-06-20_16h27.54.640,LearnStrategy,2023.2.3,Win32,60.60606061,8,2,15,,,,,,,,5,16,,,,,,,,,,,,,5,1.486,1,,,,,,-0.378703683,-0.396296325,1,0,0,1.4855,Obsidian_rect,14,0,14,0,1,
56780a5a89319e0011644cb4,SCR,2024-06-20_16h27.54.640,LearnStrategy,2023.2.3,Win32,60.60606061,8,2,16,,,,,,,,3,14,,,,,,,,,,,,,1,2.838,0,,,,,,-0.39907406,-0.243518547,1,0,0,2.8379,Andesite_rect,15,0,15,0,1,
56780a5a89319e0011644cb4,SCR,2024-06-20_16h27.54.640,LearnStrategy,2023.2.3,Win32,60.60606061,9,1,1,0.24537037,0.391666668,1,0,0,1.373,Diorite_15,3,15,6,6,1.373,3,15,0.140740783,-0.248148176,1,0,0,1.9097,Diorite_rect,3,1.91,1,0,0,0,0,1,,,,,,,,,,,,,
56780a5a89319e0011644cb4,SCR,2024-06-20_16h27.54.640,LearnStrategy,2023.2.3,Win32,60.60606061,9,1,2,-0.390740748,-0.075000021,1,0,0,1.3037,Basalt_02,2,02,3,2,1.304,2,02,-0.109259217,-0.240740741,1,0,0,2.3688,Basalt_rect,2,2.369,1,1,0,1,0,1,,,,,,,,,,,,,
56780a5a89319e0011644cb4,SCR,2024-06-20_16h27.54.640,LearnStrategy,2023.2.3,Win32,60.60606061,9,1,3,-0.050000014,0.226851852,1,0,0,1.2812,Gabbro_11,4,11,5,4,1.281,4,11,0.143518519,-0.262037065,1,0,0,3.7086,Diorite_rect,3,3.709,0,2,0,2,0,1,,,,,,,,,,,,,
56780a5a89319e0011644cb4,SCR,2024-06-20_16h27.54.640,LearnStrategy,2023.2.3,Win32,60.60606061,9,1,4,-0.062962921,0.424999996,1,0,0,1.2639,Pumice_13,8,13,6,4,1.264,8,13,0.412037037,-0.397222236,1,0,0,1.6424,Pumice_rect,8,1.642,1,3,0,3,0,1,,,,,,,,,,,,,
56780a5a89319e0011644cb4,SCR,2024-06-20_16h27.54.640,LearnStrategy,2023.2.3,Win32,60.60606061,9,1,5,0.075925968,-0.056481503,1,0,0,1.1146,Andesite_16,1,16,3,5,1.115,1,16,0.117592635,-0.258333347,1,0,0,0.9089,Diorite_rect,3,0.909,0,4,0,4,0,1,,,,,,,,,,,,,
56780a5a89319e0011644cb4,SCR,2024-06-20_16h27.54.640,LearnStrategy,2023.2.3,Win32,60.60606061,9,1,6,-0.25,0.395370369,1,0,0,1.2473,Andesite_09,1,09,6,3,1.247,1,09,-0.395370377,-0.236111111,1,0,0,1.6757,Andesite_rect,1,1.676,1,5,0,5,0,1,,,,,,,,,,,,,
56780a5a89319e0011644cb4,SCR,2024-06-20_16h27.54.640,LearnStrategy,2023.2.3,Win32,60.60606061,9,1,7,0.229629658,0.070370356,1,0,0,1.0811,Diorite_06,3,06,4,6,1.081,3,06,0.116666653,-0.259259259,1,0,0,0.9799,Diorite_rect,3,0.98,1,6,0,6,0,1,,,,,,,,,,,,,
56780a5a89319e0011644cb4,SCR,2024-06-20_16h27.54.640,LearnStrategy,2023.2.3,Win32,60.60606061,9,1,8,0.077777792,0.225925922,1,0,0,1.3982,Peridotite_08,7,08,5,5,1.398,7,08,0.123148176,-0.39907406,1,0,0,2.7085,Peridotite_rect,7,2.708,1,7,0,7,0,1,,,,,,,,,,,,,
56780a5a89319e0011644cb4,SCR,2024-06-20_16h27.54.640,LearnStrategy,2023.2.3,Win32,60.60606061,9,1,9,0.540740826,0.224074063,1,0,0,1.3313,Peridotite_15,7,15,5,8,1.331,7,15,0.126851894,-0.401851866,1,0,0,1.292,Peridotite_rect,7,1.292,1,8,0,8,0,1,,,,,,,,,,,,,
56780a5a89319e0011644cb4,SCR,2024-06-20_16h27.54.640,LearnStrategy,2023.2.3,Win32,60.60606061,9,1,10,0.593518575,0.119444423,1,0,0,1.0303,Gabbro_14,4,14,4,8,1.03,4,14,0.399999972,-0.247222265,1,0,0,0.9926,Gabbro_rect,4,0.993,1,9,0,9,0,1,,,,,,,,,,,,,
56780a5a89319e0011644cb4,SCR,2024-06-20_16h27.54.640,LearnStrategy,2023.2.3,Win32,60.60606061,9,1,11,0.362037094,-0.110185199,1,0,0,1.2576,Peridotite_14,7,14,3,7,1.258,7,14,0.126851894,-0.401851866,1,0,0,1.133,Peridotite_rect,7,1.133,1,10,0,10,0,1,,,,,,,,,,,,,
56780a5a89319e0011644cb4,SCR,2024-06-20_16h27.54.640,LearnStrategy,2023.2.3,Win32,60.60606061,9,1,12,0.202777792,-0.253703718,1,0,0,1.2978,Andesite_05,1,05,2,6,1.298,1,05,0.151851866,-0.262037065,1,0,0,1.5255,Diorite_rect,3,1.525,0,11,0,11,0,1,,,,,,,,,,,,,
56780a5a89319e0011644cb4,SCR,2024-06-20_16h27.54.640,LearnStrategy,2023.2.3,Win32,60.60606061,9,1,13,0.383333418,-0.250925912,1,0,0,1.0812,Basalt_08,2,08,2,7,1.081,2,08,-0.137036995,-0.251851894,1,0,0,1.1258,Basalt_rect,2,1.126,1,12,0,12,0,1,,,,,,,,,,,,,
56780a5a89319e0011644cb4,SCR,2024-06-20_16h27.54.640,LearnStrategy,2023.2.3,Win32,60.60606061,9,1,14,0.378703788,-0.37037037,1,0,0,1.3803,Diorite_12,3,12,1,7,1.38,3,12,-0.385185171,-0.243518547,1,0,0,1.3089,Andesite_rect,1,1.309,0,13,0,13,0,1,,,,,,,,,,,,,
56780a5a89319e0011644cb4,SCR,2024-06-20_16h27.54.640,LearnStrategy,2023.2.3,Win32,60.60606061,9,1,15,-0.113888847,0.251851841,1,0,0,62.073,Gabbro_11,4,11,5,4,62.073,4,11,0.109259288,-0.25462963,1,0,0,2.8045,Diorite_rect,3,2.804,0,14,0,14,0,1,,,,,,,,,,,,,
56780a5a89319e0011644cb4,SCR,2024-06-20_16h27.54.640,LearnStrategy,2023.2.3,Win32,60.60606061,9,1,16,-0.287962949,-0.308333362,1,0,0,1.1647,Pegmatite_08,6,08,2,3,1.165,6,08,-0.134259259,-0.417592578,1,0,0,1.8063,Pegmatite_rect,6,1.806,1,15,0,15,0,1,,,,,,,,,,,,,
56780a5a89319e0011644cb4,SCR,2024-06-20_16h27.54.640,LearnStrategy,2023.2.3,Win32,60.60606061,9,2,1,,,,,,,,6,09,,,,,,,,,,,,,6,2.526,1,,,,,,-0.124074088,-0.39907406,1,0,0,2.5264,Pegmatite_rect,0,0,0,0,1,
56780a5a89319e0011644cb4,SCR,2024-06-20_16h27.54.640,LearnStrategy,2023.2.3,Win32,60.60606061,9,2,2,,,,,,,,3,16,,,,,,,,,,,,,3,2.005,1,,,,,,0.131481524,-0.249074088,1,0,0,2.0051,Diorite_rect,1,0,1,0,1,
56780a5a89319e0011644cb4,SCR,2024-06-20_16h27.54.640,LearnStrategy,2023.2.3,Win32,60.60606061,9,2,3,,,,,,,,1,03,,,,,,,,,,,,,3,2.56,0,,,,,,0.12962963,-0.252777806,1,0,0,2.5601,Diorite_rect,2,0,2,0,1,
56780a5a89319e0011644cb4,SCR,2024-06-20_16h27.54.640,LearnStrategy,2023.2.3,Win32,60.60606061,9,2,4,,,,,,,,8,06,,,,,,,,,,,,,8,1.377,1,,,,,,0.406481566,-0.397222236,1,0,0,1.3766,Pumice_rect,3,0,3,0,1,
56780a5a89319e0011644cb4,SCR,2024-06-20_16h27.54.640,LearnStrategy,2023.2.3,Win32,60.60606061,9,2,5,,,,,,,,4,05,,,,,,,,,,,,,4,1.977,1,,,,,,0.377777806,-0.244444459,1,0,0,1.9771,Gabbro_rect,4,0,4,0,1,
56780a5a89319e0011644cb4,SCR,2024-06-20_16h27.54.640,LearnStrategy,2023.2.3,Win32,60.60606061,9,2,6,,,,,,,,1,11,,,,,,,,,,,,,1,2.122,1,,,,,,-0.421296296,-0.248148176,1,0,0,2.1216,Andesite_rect,5,0,5,0,1,
56780a5a89319e0011644cb4,SCR,2024-06-20_16h27.54.640,LearnStrategy,2023.2.3,Win32,60.60606061,9,2,7,,,,,,,,7,16,,,,,,,,,,,,,7,1.726,1,,,,,,0.136111153,-0.400925954,1,0,0,1.7263,Peridotite_rect,6,0,6,0,1,
56780a5a89319e0011644cb4,SCR,2024-06-20_16h27.54.640,LearnStrategy,2023.2.3,Win32,60.60606061,9,2,8,,,,,,,,8,04,,,,,,,,,,,,,8,1.394,1,,,,,,0.390740712,-0.390740783,1,0,0,1.3935,Pumice_rect,7,0,7,0,1,
56780a5a89319e0011644cb4,SCR,2024-06-20_16h27.54.640,LearnStrategy,2023.2.3,Win32,60.60606061,9,2,9,,,,,,,,4,12,,,,,,,,,,,,,4,3.61,1,,,,,,0.398148148,-0.259259259,1,0,0,3.61,Gabbro_rect,8,0,8,0,1,
56780a5a89319e0011644cb4,SCR,2024-06-20_16h27.54.640,LearnStrategy,2023.2.3,Win32,60.60606061,9,2,10,,,,,,,,6,03,,,,,,,,,,,,,7,1.277,0,,,,,,0.106481481,-0.395370413,1,0,0,1.2767,Peridotite_rect,9,0,9,0,1,
56780a5a89319e0011644cb4,SCR,2024-06-20_16h27.54.640,LearnStrategy,2023.2.3,Win32,60.60606061,9,2,11,,,,,,,,3,13,,,,,,,,,,,,,3,1.61,1,,,,,,0.147222236,-0.256481524,1,0,0,1.6102,Diorite_rect,10,0,10,0,1,
56780a5a89319e0011644cb4,SCR,2024-06-20_16h27.54.640,LearnStrategy,2023.2.3,Win32,60.60606061,9,2,12,,,,,,,,7,05,,,,,,,,,,,,,7,1.69,1,,,,,,0.132407436,-0.398148148,1,0,0,1.6898,Peridotite_rect,11,0,11,0,1,
56780a5a89319e0011644cb4,SCR,2024-06-20_16h27.54.640,LearnStrategy,2023.2.3,Win32,60.60606061,9,2,13,,,,,,,,5,09,,,,,,,,,,,,,5,1.543,1,,,,,,-0.386111118,-0.407407407,1,0,0,1.543,Obsidian_rect,12,0,12,0,1,
56780a5a89319e0011644cb4,SCR,2024-06-20_16h27.54.640,LearnStrategy,2023.2.3,Win32,60.60606061,9,2,14,,,,,,,,2,14,,,,,,,,,,,,,4,1.927,0,,,,,,0.397222307,-0.246296282,1,0,0,1.9267,Gabbro_rect,13,0,13,0,1,
56780a5a89319e0011644cb4,SCR,2024-06-20_16h27.54.640,LearnStrategy,2023.2.3,Win32,60.60606061,9,2,15,,,,,,,,2,11,,,,,,,,,,,,,2,2.927,1,,,,,,-0.115740741,-0.252777806,1,0,0,2.9268,Basalt_rect,14,0,14,0,1,
56780a5a89319e0011644cb4,SCR,2024-06-20_16h27.54.640,LearnStrategy,2023.2.3,Win32,60.60606061,9,2,16,,,,,,,,5,07,,,,,,,,,,,,,5,1.822,1,,,,,,-0.365740741,-0.409259302,1,0,0,1.8216,Obsidian_rect,15,0,15,0,1,
56780a5a89319e0011644cb4,SCR,2024-06-20_16h27.54.640,LearnStrategy,2023.2.3,Win32,60.60606061,,,,,,,,,,,,,,,,,,,,,,,,,,,,,,,,,,,,,,,,,,,,,1
56780a5a89319e0011644cb4,SCR,2024-06-20_16h27.54.640,LearnStrategy,2023.2.3,Win32,60.60606061,,,,,,,,,,,,,,,,,,,,,,,,,,,,,,,,,,,,,,,,,,,,,
56780a5a89319e0011644cb4,SCR,2024-06-20_16h27.54.640,LearnStrategy,2023.2.3,Win32,60.60606061,,,,,,,,,,,1,07,1,1,,,,,,,,,,,,,,,,,,,,,,,,,,,,,,,
56780a5a89319e0011644cb4,SCR,2024-06-20_16h27.54.640,LearnStrategy,2023.2.3,Win32,60.60606061,,,,,,,,,,,8,16,1,2,,,,,,,,,,,,,,,,,,,,,,,,,,,,,,,
56780a5a89319e0011644cb4,SCR,2024-06-20_16h27.54.640,LearnStrategy,2023.2.3,Win32,60.60606061,,,,,,,,,,,5,11,1,3,,,,,,,,,,,,,,,,,,,,,,,,,,,,,,,
56780a5a89319e0011644cb4,SCR,2024-06-20_16h27.54.640,LearnStrategy,2023.2.3,Win32,60.60606061,,,,,,,,,,,5,06,1,4,,,,,,,,,,,,,,,,,,,,,,,,,,,,,,,
56780a5a89319e0011644cb4,SCR,2024-06-20_16h27.54.640,LearnStrategy,2023.2.3,Win32,60.60606061,,,,,,,,,,,6,12,1,5,,,,,,,,,,,,,,,,,,,,,,,,,,,,,,,
56780a5a89319e0011644cb4,SCR,2024-06-20_16h27.54.640,LearnStrategy,2023.2.3,Win32,60.60606061,,,,,,,,,,,5,05,1,6,,,,,,,,,,,,,,,,,,,,,,,,,,,,,,,
56780a5a89319e0011644cb4,SCR,2024-06-20_16h27.54.640,LearnStrategy,2023.2.3,Win32,60.60606061,,,,,,,,,,,3,12,1,7,,,,,,,,,,,,,,,,,,,,,,,,,,,,,,,
56780a5a89319e0011644cb4,SCR,2024-06-20_16h27.54.640,LearnStrategy,2023.2.3,Win32,60.60606061,,,,,,,,,,,8,15,1,8,,,,,,,,,,,,,,,,,,,,,,,,,,,,,,,
56780a5a89319e0011644cb4,SCR,2024-06-20_16h27.54.640,LearnStrategy,2023.2.3,Win32,60.60606061,,,,,,,,,,,4,13,2,1,,,,,,,,,,,,,,,,,,,,,,,,,,,,,,,
56780a5a89319e0011644cb4,SCR,2024-06-20_16h27.54.640,LearnStrategy,2023.2.3,Win32,60.60606061,,,,,,,,,,,4,10,2,2,,,,,,,,,,,,,,,,,,,,,,,,,,,,,,,
56780a5a89319e0011644cb4,SCR,2024-06-20_16h27.54.640,LearnStrategy,2023.2.3,Win32,60.60606061,,,,,,,,,,,6,08,2,3,,,,,,,,,,,,,,,,,,,,,,,,,,,,,,,
56780a5a89319e0011644cb4,SCR,2024-06-20_16h27.54.640,LearnStrategy,2023.2.3,Win32,60.60606061,,,,,,,,,,,6,15,2,4,,,,,,,,,,,,,,,,,,,,,,,,,,,,,,,
56780a5a89319e0011644cb4,SCR,2024-06-20_16h27.54.640,LearnStrategy,2023.2.3,Win32,60.60606061,,,,,,,,,,,2,16,2,5,,,,,,,,,,,,,,,,,,,,,,,,,,,,,,,
56780a5a89319e0011644cb4,SCR,2024-06-20_16h27.54.640,LearnStrategy,2023.2.3,Win32,60.60606061,,,,,,,,,,,1,05,2,6,,,,,,,,,,,,,,,,,,,,,,,,,,,,,,,
56780a5a89319e0011644cb4,SCR,2024-06-20_16h27.54.640,LearnStrategy,2023.2.3,Win32,60.60606061,,,,,,,,,,,2,08,2,7,,,,,,,,,,,,,,,,,,,,,,,,,,,,,,,
56780a5a89319e0011644cb4,SCR,2024-06-20_16h27.54.640,LearnStrategy,2023.2.3,Win32,60.60606061,,,,,,,,,,,2,05,2,8,,,,,,,,,,,,,,,,,,,,,,,,,,,,,,,
56780a5a89319e0011644cb4,SCR,2024-06-20_16h27.54.640,LearnStrategy,2023.2.3,Win32,60.60606061,,,,,,,,,,,5,12,3,1,,,,,,,,,,,,,,,,,,,,,,,,,,,,,,,
56780a5a89319e0011644cb4,SCR,2024-06-20_16h27.54.640,LearnStrategy,2023.2.3,Win32,60.60606061,,,,,,,,,,,2,02,3,2,,,,,,,,,,,,,,,,,,,,,,,,,,,,,,,
56780a5a89319e0011644cb4,SCR,2024-06-20_16h27.54.640,LearnStrategy,2023.2.3,Win32,60.60606061,,,,,,,,,,,4,03,3,3,,,,,,,,,,,,,,,,,,,,,,,,,,,,,,,
56780a5a89319e0011644cb4,SCR,2024-06-20_16h27.54.640,LearnStrategy,2023.2.3,Win32,60.60606061,,,,,,,,,,,8,05,3,4,,,,,,,,,,,,,,,,,,,,,,,,,,,,,,,
56780a5a89319e0011644cb4,SCR,2024-06-20_16h27.54.640,LearnStrategy,2023.2.3,Win32,60.60606061,,,,,,,,,,,1,16,3,5,,,,,,,,,,,,,,,,,,,,,,,,,,,,,,,
56780a5a89319e0011644cb4,SCR,2024-06-20_16h27.54.640,LearnStrategy,2023.2.3,Win32,60.60606061,,,,,,,,,,,6,16,3,6,,,,,,,,,,,,,,,,,,,,,,,,,,,,,,,
56780a5a89319e0011644cb4,SCR,2024-06-20_16h27.54.640,LearnStrategy,2023.2.3,Win32,60.60606061,,,,,,,,,,,7,14,3,7,,,,,,,,,,,,,,,,,,,,,,,,,,,,,,,
56780a5a89319e0011644cb4,SCR,2024-06-20_16h27.54.640,LearnStrategy,2023.2.3,Win32,60.60606061,,,,,,,,,,,3,10,3,8,,,,,,,,,,,,,,,,,,,,,,,,,,,,,,,
56780a5a89319e0011644cb4,SCR,2024-06-20_16h27.54.640,LearnStrategy,2023.2.3,Win32,60.60606061,,,,,,,,,,,8,09,4,1,,,,,,,,,,,,,,,,,,,,,,,,,,,,,,,
56780a5a89319e0011644cb4,SCR,2024-06-20_16h27.54.640,LearnStrategy,2023.2.3,Win32,60.60606061,,,,,,,,,,,7,06,4,2,,,,,,,,,,,,,,,,,,,,,,,,,,,,,,,
56780a5a89319e0011644cb4,SCR,2024-06-20_16h27.54.640,LearnStrategy,2023.2.3,Win32,60.60606061,,,,,,,,,,,6,10,4,3,,,,,,,,,,,,,,,,,,,,,,,,,,,,,,,
56780a5a89319e0011644cb4,SCR,2024-06-20_16h27.54.640,LearnStrategy,2023.2.3,Win32,60.60606061,,,,,,,,,,,8,03,4,4,,,,,,,,,,,,,,,,,,,,,,,,,,,,,,,
56780a5a89319e0011644cb4,SCR,2024-06-20_16h27.54.640,LearnStrategy,2023.2.3,Win32,60.60606061,,,,,,,,,,,4,09,4,5,,,,,,,,,,,,,,,,,,,,,,,,,,,,,,,
56780a5a89319e0011644cb4,SCR,2024-06-20_16h27.54.640,LearnStrategy,2023.2.3,Win32,60.60606061,,,,,,,,,,,3,06,4,6,,,,,,,,,,,,,,,,,,,,,,,,,,,,,,,
56780a5a89319e0011644cb4,SCR,2024-06-20_16h27.54.640,LearnStrategy,2023.2.3,Win32,60.60606061,,,,,,,,,,,3,02,4,7,,,,,,,,,,,,,,,,,,,,,,,,,,,,,,,
56780a5a89319e0011644cb4,SCR,2024-06-20_16h27.54.640,LearnStrategy,2023.2.3,Win32,60.60606061,,,,,,,,,,,4,14,4,8,,,,,,,,,,,,,,,,,,,,,,,,,,,,,,,
56780a5a89319e0011644cb4,SCR,2024-06-20_16h27.54.640,LearnStrategy,2023.2.3,Win32,60.60606061,,,,,,,,,,,2,10,5,1,,,,,,,,,,,,,,,,,,,,,,,,,,,,,,,
56780a5a89319e0011644cb4,SCR,2024-06-20_16h27.54.640,LearnStrategy,2023.2.3,Win32,60.60606061,,,,,,,,,,,7,12,5,2,,,,,,,,,,,,,,,,,,,,,,,,,,,,,,,
56780a5a89319e0011644cb4,SCR,2024-06-20_16h27.54.640,LearnStrategy,2023.2.3,Win32,60.60606061,,,,,,,,,,,1,14,5,3,,,,,,,,,,,,,,,,,,,,,,,,,,,,,,,
56780a5a89319e0011644cb4,SCR,2024-06-20_16h27.54.640,LearnStrategy,2023.2.3,Win32,60.60606061,,,,,,,,,,,4,11,5,4,,,,,,,,,,,,,,,,,,,,,,,,,,,,,,,
56780a5a89319e0011644cb4,SCR,2024-06-20_16h27.54.640,LearnStrategy,2023.2.3,Win32,60.60606061,,,,,,,,,,,7,08,5,5,,,,,,,,,,,,,,,,,,,,,,,,,,,,,,,
56780a5a89319e0011644cb4,SCR,2024-06-20_16h27.54.640,LearnStrategy,2023.2.3,Win32,60.60606061,,,,,,,,,,,2,04,5,6,,,,,,,,,,,,,,,,,,,,,,,,,,,,,,,
56780a5a89319e0011644cb4,SCR,2024-06-20_16h27.54.640,LearnStrategy,2023.2.3,Win32,60.60606061,,,,,,,,,,,1,04,5,7,,,,,,,,,,,,,,,,,,,,,,,,,,,,,,,
56780a5a89319e0011644cb4,SCR,2024-06-20_16h27.54.640,LearnStrategy,2023.2.3,Win32,60.60606061,,,,,,,,,,,7,15,5,8,,,,,,,,,,,,,,,,,,,,,,,,,,,,,,,
56780a5a89319e0011644cb4,SCR,2024-06-20_16h27.54.640,LearnStrategy,2023.2.3,Win32,60.60606061,,,,,,,,,,,6,13,6,1,,,,,,,,,,,,,,,,,,,,,,,,,,,,,,,
56780a5a89319e0011644cb4,SCR,2024-06-20_16h27.54.640,LearnStrategy,2023.2.3,Win32,60.60606061,,,,,,,,,,,3,08,6,2,,,,,,,,,,,,,,,,,,,,,,,,,,,,,,,
56780a5a89319e0011644cb4,SCR,2024-06-20_16h27.54.640,LearnStrategy,2023.2.3,Win32,60.60606061,,,,,,,,,,,1,09,6,3,,,,,,,,,,,,,,,,,,,,,,,,,,,,,,,
56780a5a89319e0011644cb4,SCR,2024-06-20_16h27.54.640,LearnStrategy,2023.2.3,Win32,60.60606061,,,,,,,,,,,8,13,6,4,,,,,,,,,,,,,,,,,,,,,,,,,,,,,,,
56780a5a89319e0011644cb4,SCR,2024-06-20_16h27.54.640,LearnStrategy,2023.2.3,Win32,60.60606061,,,,,,,,,,,7,02,6,5,,,,,,,,,,,,,,,,,,,,,,,,,,,,,,,
56780a5a89319e0011644cb4,SCR,2024-06-20_16h27.54.640,LearnStrategy,2023.2.3,Win32,60.60606061,,,,,,,,,,,3,15,6,6,,,,,,,,,,,,,,,,,,,,,,,,,,,,,,,
56780a5a89319e0011644cb4,SCR,2024-06-20_16h27.54.640,LearnStrategy,2023.2.3,Win32,60.60606061,,,,,,,,,,,5,02,6,7,,,,,,,,,,,,,,,,,,,,,,,,,,,,,,,
56780a5a89319e0011644cb4,SCR,2024-06-20_16h27.54.640,LearnStrategy,2023.2.3,Win32,60.60606061,,,,,,,,,,,5,08,6,8,,,,,,,,,,,,,,,,,,,,,,,,,,,,,,,