participant,condition,date,expName,psychopyVersion,OS,frameRate,block,phase,trial,learn_mouse_2.x,learn_mouse_2.y,learn_mouse_2.leftButton,learn_mouse_2.midButton,learn_mouse_2.rightButton,learn_mouse_2.time,learn_mouse_2.clicked_name,cat,token,row,col,t_select,cat_mouse_l.x,cat_mouse_l.y,cat_mouse_l.leftButton,cat_mouse_l.midButton,cat_mouse_l.rightButton,cat_mouse_l.time,cat_mouse_l.clicked_name,resp,t_resp,corr,train_trials.thisRepN,train_trials.thisTrialN,train_trials.thisN,train_trials.thisIndex,train_trials.ran,cat_mouse_t.x,cat_mouse_t.y,cat_mouse_t.leftButton,cat_mouse_t.midButton,cat_mouse_t.rightButton,cat_mouse_t.time,cat_mouse_t.clicked_name,test_trials.thisRepN,test_trials.thisTrialN,test_trials.thisN,test_trials.thisIndex,test_trials.ran,Bonus
56baafe430d6b3000cf857ea,TCN,2024-06-24_13h43.58.264,LearnStrategy,2023.2.3,Win32,59.52380952,,,,,,,,,,,,,,,,,,,,,,,,,,,,,,,,,,,,,,,,,,,
56baafe430d6b3000cf857ea,TCN,2024-06-24_13h43.58.264,LearnStrategy,2023.2.3,Win32,59.52380952,1,1,1,0.097721385,0.014307136,1,0,0,5.0045,rock_grid_rect_2,5,09,-1,-1,5.004,-0.388896599,-0.406626732,1,0,0,4.6871,Obsidian_rect,5,4.687,1,0,0,0,0,1,,,,,,,,,,,,,
56baafe430d6b3000cf857ea,TCN,2024-06-24_13h43.58.264,LearnStrategy,2023.2.3,Win32,59.52380952,1,1,2,0.019085438,-0.011596486,1,0,0,1.8296,rock_grid_rect_2,7,14,-1,-1,1.83,0.36415864,-0.244729084,1,0,0,16.1056,Gabbro_rect,4,16.106,0,1,0,1,0,1,,,,,,,,,,,,,
56baafe430d6b3000cf857ea,TCN,2024-06-24_13h43.58.264,LearnStrategy,2023.2.3,Win32,59.52380952,1,1,3,-0.024395651,-0.011596486,1,0,0,2.5189,rock_grid_rect_2,6,11,-1,-1,2.519,-0.382420684,-0.247504443,1,0,0,14.241,Andesite_rect,1,14.241,0,2,0,2,0,1,,,,,,,,,,,,,
56baafe430d6b3000cf857ea,TCN,2024-06-24_13h43.58.264,LearnStrategy,2023.2.3,Win32,59.52380952,1,1,4,0.029261832,0.014307136,1,0,0,1.4356,rock_grid_rect_2,4,11,-1,-1,1.436,0.116224011,-0.263231633,1,0,0,6.6236,Diorite_rect,3,6.624,0,3,0,3,0,1,,,,,,,,,,,,,
56baafe430d6b3000cf857ea,TCN,2024-06-24_13h43.58.264,LearnStrategy,2023.2.3,Win32,59.52380952,1,1,5,-0.014219257,-0.006970849,1,0,0,1.5858,rock_grid_rect_2,4,14,-1,-1,1.586,0.094020906,-0.247504443,1,0,0,7.5906,Diorite_rect,3,7.591,0,4,0,4,0,1,,,,,,,,,,,,,
56baafe430d6b3000cf857ea,TCN,2024-06-24_13h43.58.264,LearnStrategy,2023.2.3,Win32,59.52380952,1,1,6,0.058865971,-0.019922641,1,0,0,1.0694,rock_grid_rect_2,3,16,-1,-1,1.069,-0.457356152,-0.240103409,1,0,0,3.009,Andesite_rect,1,3.009,0,5,0,5,0,1,,,,,,,,,,,,,
56baafe430d6b3000cf857ea,TCN,2024-06-24_13h43.58.264,LearnStrategy,2023.2.3,Win32,59.52380952,1,1,7,-0.005893103,0.006906101,1,0,0,1.2183,rock_grid_rect_2,6,05,-1,-1,1.218,0.114373694,-0.246579324,1,0,0,5.5197,Diorite_rect,3,5.52,0,6,0,6,0,1,,,,,,,,,,,,,
56baafe430d6b3000cf857ea,TCN,2024-06-24_13h43.58.264,LearnStrategy,2023.2.3,Win32,59.52380952,1,1,8,-0.004967983,-0.009746247,1,0,0,1.4031,rock_grid_rect_2,8,13,-1,-1,1.403,0.331779142,-0.402001056,1,0,0,2.9473,Pumice_rect,8,2.947,1,7,0,7,0,1,,,,,,,,,,,,,
56baafe430d6b3000cf857ea,TCN,2024-06-24_13h43.58.264,LearnStrategy,2023.2.3,Win32,59.52380952,1,1,9,0.010759284,-0.015297004,1,0,0,1.5367,rock_grid_rect_2,3,09,-1,-1,1.537,0.095871146,-0.262306513,1,0,0,4.741,Diorite_rect,3,4.741,1,8,0,8,0,1,,,,,,,,,,,,,
56baafe430d6b3000cf857ea,TCN,2024-06-24_13h43.58.264,LearnStrategy,2023.2.3,Win32,59.52380952,1,1,10,-0.008668462,-0.012521606,1,0,0,1.1308,rock_grid_rect_2,1,03,-1,-1,1.131,-0.375944807,-0.23640293,1,0,0,14.9741,Andesite_rect,1,14.974,1,9,0,9,0,1,,,,,,,,,,,,,
56baafe430d6b3000cf857ea,TCN,2024-06-24_13h43.58.264,LearnStrategy,2023.2.3,Win32,59.52380952,1,1,11,-0.024395651,-0.017147282,1,0,0,0.9638,rock_grid_rect_2,1,11,-1,-1,0.964,-0.124309661,-0.246579324,1,0,0,15.0037,Basalt_rect,2,15.004,0,10,0,10,0,1,,,,,,,,,,,,,
56baafe430d6b3000cf857ea,TCN,2024-06-24_13h43.58.264,LearnStrategy,2023.2.3,Win32,59.52380952,1,1,12,0.015384882,0.014307136,1,0,0,1.5472,rock_grid_rect_2,2,04,-1,-1,1.547,-0.130785498,-0.245654204,1,0,0,4.2103,Basalt_rect,2,4.21,1,11,0,11,0,1,,,,,,,,,,,,,
56baafe430d6b3000cf857ea,TCN,2024-06-24_13h43.58.264,LearnStrategy,2023.2.3,Win32,59.52380952,1,1,13,-0.004967983,-0.006970849,1,0,0,0.9807,rock_grid_rect_2,5,12,-1,-1,0.981,-0.373169409,-0.41125233,1,0,0,1.9107,Obsidian_rect,5,1.911,1,12,0,12,0,1,,,,,,,,,,,,,
56baafe430d6b3000cf857ea,TCN,2024-06-24_13h43.58.264,LearnStrategy,2023.2.3,Win32,59.52380952,1,1,14,-0.024395651,0.001355305,1,0,0,0.7967,rock_grid_rect_2,8,06,-1,-1,0.797,0.35120681,-0.402926175,1,0,0,3.9409,Pumice_rect,8,3.941,1,13,0,13,0,1,,,,,,,,,,,,,
56baafe430d6b3000cf857ea,TCN,2024-06-24_13h43.58.264,LearnStrategy,2023.2.3,Win32,59.52380952,1,1,15,0.015384882,-0.012521606,1,0,0,0.7809,rock_grid_rect_2,2,14,-1,-1,0.781,0.358607845,-0.228076775,1,0,0,10.5709,Gabbro_rect,4,10.571,0,14,0,14,0,1,,,,,,,,,,,,,
56baafe430d6b3000cf857ea,TCN,2024-06-24_13h43.58.264,LearnStrategy,2023.2.3,Win32,59.52380952,1,1,16,0.027411593,-0.000494934,1,0,0,1.066,rock_grid_rect_2,7,16,-1,-1,1.066,0.07736852,-0.417728245,1,0,0,10.7377,Peridotite_rect,7,10.738,1,15,0,15,0,1,,,,,,,,,,,,,
56baafe430d6b3000cf857ea,TCN,2024-06-24_13h43.58.264,LearnStrategy,2023.2.3,Win32,59.52380952,1,2,1,,,,,,,,8,03,,,,,,,,,,,8,2.816,1,,,,,,0.33640474,-0.389049225,1,0,0,2.8159,Pumice_rect,0,0,0,0,1,
56baafe430d6b3000cf857ea,TCN,2024-06-24_13h43.58.264,LearnStrategy,2023.2.3,Win32,59.52380952,1,2,2,,,,,,,,3,14,,,,,,,,,,,1,6.421,0,,,,,,-0.379645325,-0.241953648,1,0,0,6.4209,Andesite_rect,1,0,1,0,1,
56baafe430d6b3000cf857ea,TCN,2024-06-24_13h43.58.264,LearnStrategy,2023.2.3,Win32,59.52380952,1,2,3,,,,,,,,5,08,,,,,,,,,,,5,1.691,1,,,,,,-0.359292459,-0.380723071,1,0,0,1.6912,Obsidian_rect,2,0,2,0,1,
56baafe430d6b3000cf857ea,TCN,2024-06-24_13h43.58.264,LearnStrategy,2023.2.3,Win32,59.52380952,1,2,4,,,,,,,,5,10,,,,,,,,,,,5,2.579,1,,,,,,-0.383345842,-0.393674901,1,0,0,2.579,Obsidian_rect,3,0,3,0,1,
56baafe430d6b3000cf857ea,TCN,2024-06-24_13h43.58.264,LearnStrategy,2023.2.3,Win32,59.52380952,1,2,5,,,,,,,,2,10,,,,,,,,,,,2,4.49,1,,,,,,-0.130785498,-0.254905478,1,0,0,4.4897,Basalt_rect,4,0,4,0,1,
56baafe430d6b3000cf857ea,TCN,2024-06-24_13h43.58.264,LearnStrategy,2023.2.3,Win32,59.52380952,1,2,6,,,,,,,,1,05,,,,,,,,,,,3,8.006,0,,,,,,0.128250644,-0.248429563,1,0,0,8.0063,Diorite_rect,5,0,5,0,1,
56baafe430d6b3000cf857ea,TCN,2024-06-24_13h43.58.264,LearnStrategy,2023.2.3,Win32,59.52380952,1,2,7,,,,,,,,7,02,,,,,,,,,,,7,3.272,1,,,,,,0.113448575,-0.407551851,1,0,0,3.2719,Peridotite_rect,6,0,6,0,1,
56baafe430d6b3000cf857ea,TCN,2024-06-24_13h43.58.264,LearnStrategy,2023.2.3,Win32,59.52380952,1,2,8,,,,,,,,1,07,,,,,,,,,,,1,3.077,1,,,,,,-0.362067857,-0.23640293,1,0,0,3.077,Andesite_rect,7,0,7,0,1,
56baafe430d6b3000cf857ea,TCN,2024-06-24_13h43.58.264,LearnStrategy,2023.2.3,Win32,59.52380952,1,2,9,,,,,,,,4,16,,,,,,,,,,,2,2.455,0,,,,,,-0.128010139,-0.253980359,1,0,0,2.455,Basalt_rect,8,0,8,0,1,
56baafe430d6b3000cf857ea,TCN,2024-06-24_13h43.58.264,LearnStrategy,2023.2.3,Win32,59.52380952,1,2,10,,,,,,,,6,08,,,,,,,,,,,6,6.159,1,,,,,,-0.123384464,-0.406626732,1,0,0,6.1592,Pegmatite_rect,9,0,9,0,1,
56baafe430d6b3000cf857ea,TCN,2024-06-24_13h43.58.264,LearnStrategy,2023.2.3,Win32,59.52380952,1,2,11,,,,,,,,3,08,,,,,,,,,,,1,3.958,0,,,,,,-0.369468892,-0.232702374,1,0,0,3.9577,Andesite_rect,10,0,10,0,1,
56baafe430d6b3000cf857ea,TCN,2024-06-24_13h43.58.264,LearnStrategy,2023.2.3,Win32,59.52380952,1,2,12,,,,,,,,2,11,,,,,,,,,,,4,4.039,0,,,,,,0.415040764,-0.233627493,1,0,0,4.0386,Gabbro_rect,11,0,11,0,1,
56baafe430d6b3000cf857ea,TCN,2024-06-24_13h43.58.264,LearnStrategy,2023.2.3,Win32,59.52380952,1,2,13,,,,,,,,4,03,,,,,,,,,,,1,4.716,0,,,,,,-0.406474066,-0.233627493,1,0,0,4.7157,Andesite_rect,12,0,12,0,1,
56baafe430d6b3000cf857ea,TCN,2024-06-24_13h43.58.264,LearnStrategy,2023.2.3,Win32,59.52380952,1,2,14,,,,,,,,6,12,,,,,,,,,,,6,8.538,1,,,,,,-0.133560935,-0.403851295,1,0,0,8.5376,Pegmatite_rect,13,0,13,0,1,
56baafe430d6b3000cf857ea,TCN,2024-06-24_13h43.58.264,LearnStrategy,2023.2.3,Win32,59.52380952,1,2,15,,,,,,,,8,02,,,,,,,,,,,8,2.089,1,,,,,,0.390062223,-0.393674901,1,0,0,2.0888,Pumice_rect,14,0,14,0,1,
56baafe430d6b3000cf857ea,TCN,2024-06-24_13h43.58.264,LearnStrategy,2023.2.3,Win32,59.52380952,1,2,16,,,,,,,,7,10,,,,,,,,,,,7,2.675,1,,,,,,0.135651679,-0.400150816,1,0,0,2.6755,Peridotite_rect,15,0,15,0,1,
56baafe430d6b3000cf857ea,TCN,2024-06-24_13h43.58.264,LearnStrategy,2023.2.3,Win32,59.52380952,2,1,1,0.008908967,-0.000494934,1,0,0,6.2984,rock_grid_rect_2,4,01,-1,-1,6.298,0.102347061,-0.414027766,1,0,0,14.0237,Peridotite_rect,7,14.024,0,0,0,0,0,1,,,,,,,,,,,,,
56baafe430d6b3000cf857ea,TCN,2024-06-24_13h43.58.264,LearnStrategy,2023.2.3,Win32,59.52380952,2,1,2,-0.004042786,-0.004195451,1,0,0,1.1138,rock_grid_rect_2,6,13,-1,-1,1.114,-0.138186533,-0.402926175,1,0,0,5.6908,Pegmatite_rect,6,5.691,1,1,0,1,0,1,,,,,,,,,,,,,
56baafe430d6b3000cf857ea,TCN,2024-06-24_13h43.58.264,LearnStrategy,2023.2.3,Win32,59.52380952,2,1,3,-0.010518701,-0.004195451,1,0,0,0.8647,rock_grid_rect_2,7,13,-1,-1,0.865,0.112523455,-0.420503604,1,0,0,1.7208,Peridotite_rect,7,1.721,1,2,0,2,0,1,,,,,,,,,,,,,
56baafe430d6b3000cf857ea,TCN,2024-06-24_13h43.58.264,LearnStrategy,2023.2.3,Win32,59.52380952,2,1,4,0.006133608,0.003205583,1,0,0,0.9313,rock_grid_rect_2,3,06,-1,-1,0.931,-0.389821719,-0.258606034,1,0,0,2.1611,Andesite_rect,1,2.161,0,3,0,3,0,1,,,,,,,,,,,,,
56baafe430d6b3000cf857ea,TCN,2024-06-24_13h43.58.264,LearnStrategy,2023.2.3,Win32,59.52380952,2,1,5,0.057940852,-0.017147282,1,0,0,1.2206,rock_grid_rect_2,1,02,-1,-1,1.221,-0.120609105,-0.393674901,1,0,0,3.5085,Pegmatite_rect,6,3.509,0,4,0,4,0,1,,,,,,,,,,,,,
56baafe430d6b3000cf857ea,TCN,2024-06-24_13h43.58.264,LearnStrategy,2023.2.3,Win32,59.52380952,2,1,6,0.017235121,0.021708171,1,0,0,1.3807,rock_grid_rect_2,7,15,-1,-1,1.381,0.130100961,-0.41217745,1,0,0,1.6619,Peridotite_rect,7,1.662,1,5,0,5,0,1,,,,,,,,,,,,,
56baafe430d6b3000cf857ea,TCN,2024-06-24_13h43.58.264,LearnStrategy,2023.2.3,Win32,59.52380952,2,1,7,-0.018844856,0.019857893,1,0,0,0.8145,rock_grid_rect_2,6,06,-1,-1,0.814,-0.346340668,-0.231777254,1,0,0,16.6663,Andesite_rect,1,16.666,0,6,0,6,0,1,,,,,,,,,,,,,
56baafe430d6b3000cf857ea,TCN,2024-06-24_13h43.58.264,LearnStrategy,2023.2.3,Win32,59.52380952,2,1,8,0.006133608,-0.007895969,1,0,0,1.1639,rock_grid_rect_2,8,09,-1,-1,1.164,0.375260154,-0.41032721,1,0,0,2.7406,Pumice_rect,8,2.741,1,7,0,7,0,1,,,,,,,,,,,,,
56baafe430d6b3000cf857ea,TCN,2024-06-24_13h43.58.264,LearnStrategy,2023.2.3,Win32,59.52380952,2,1,9,-0.025320771,-0.016222123,1,0,0,0.9475,rock_grid_rect_2,2,09,-1,-1,0.947,0.098646505,-0.246579324,1,0,0,5.8918,Diorite_rect,3,5.892,0,8,0,8,0,1,,,,,,,,,,,,,
56baafe430d6b3000cf857ea,TCN,2024-06-24_13h43.58.264,LearnStrategy,2023.2.3,Win32,59.52380952,2,1,10,0.054240296,-0.008821089,1,0,0,1.0636,rock_grid_rect_2,5,14,-1,-1,1.064,-0.386121201,-0.400150816,1,0,0,3.9426,Obsidian_rect,5,3.943,1,9,0,9,0,1,,,,,,,,,,,,,
56baafe430d6b3000cf857ea,TCN,2024-06-24_13h43.58.264,LearnStrategy,2023.2.3,Win32,59.52380952,2,1,11,0.004283368,0.003205583,1,0,0,0.7964,rock_grid_rect_2,8,14,-1,-1,0.796,0.373409914,-0.388124106,1,0,0,1.4078,Pumice_rect,8,1.408,1,10,0,10,0,1,,,,,,,,,,,,,
56baafe430d6b3000cf857ea,TCN,2024-06-24_13h43.58.264,LearnStrategy,2023.2.3,Win32,59.52380952,2,1,12,-0.028096207,-0.018997521,1,0,0,1.3818,rock_grid_rect_2,3,12,-1,-1,1.382,-0.376869927,-0.261381393,1,0,0,3.8923,Andesite_rect,1,3.892,0,11,0,11,0,1,,,,,,,,,,,,,
56baafe430d6b3000cf857ea,TCN,2024-06-24_13h43.58.264,LearnStrategy,2023.2.3,Win32,59.52380952,2,1,13,0.011684403,-0.016222123,1,0,0,1.0813,rock_grid_rect_2,1,04,-1,-1,1.081,-0.376869927,-0.233627493,1,0,0,2.9432,Andesite_rect,1,2.943,1,12,0,12,0,1,,,,,,,,,,,,,
56baafe430d6b3000cf857ea,TCN,2024-06-24_13h43.58.264,LearnStrategy,2023.2.3,Win32,59.52380952,2,1,14,0.000582812,-0.002345212,1,0,0,1.7315,rock_grid_rect_2,2,08,-1,-1,1.731,-0.133560935,-0.241028528,1,0,0,2.8743,Basalt_rect,2,2.874,1,13,0,13,0,1,,,,,,,,,,,,,
56baafe430d6b3000cf857ea,TCN,2024-06-24_13h43.58.264,LearnStrategy,2023.2.3,Win32,59.52380952,2,1,15,-0.027171088,0.005980981,1,0,0,0.7145,rock_grid_rect_2,5,07,-1,-1,0.714,-0.394447394,-0.399225697,1,0,0,2.6102,Obsidian_rect,5,2.61,1,14,0,14,0,1,,,,,,,,,,,,,
56baafe430d6b3000cf857ea,TCN,2024-06-24_13h43.58.264,LearnStrategy,2023.2.3,Win32,59.52380952,2,1,16,0.036662867,0.021708171,1,0,0,0.7144,rock_grid_rect_2,4,05,-1,-1,0.714,0.09124547,-0.402926175,1,0,0,4.04,Peridotite_rect,7,4.04,0,15,0,15,0,1,,,,,,,,,,,,,
56baafe430d6b3000cf857ea,TCN,2024-06-24_13h43.58.264,LearnStrategy,2023.2.3,Win32,59.52380952,2,2,1,,,,,,,,6,07,,,,,,,,,,,6,7.024,1,,,,,,-0.160389638,-0.385348747,1,0,0,7.0237,Pegmatite_rect,0,0,0,0,1,
56baafe430d6b3000cf857ea,TCN,2024-06-24_13h43.58.264,LearnStrategy,2023.2.3,Win32,59.52380952,2,2,2,,,,,,,,5,11,,,,,,,,,,,5,1.407,1,,,,,,-0.378720166,-0.389974345,1,0,0,1.407,Obsidian_rect,1,0,1,0,1,
56baafe430d6b3000cf857ea,TCN,2024-06-24_13h43.58.264,LearnStrategy,2023.2.3,Win32,59.52380952,2,2,3,,,,,,,,2,02,,,,,,,,,,,2,4.572,1,,,,,,-0.121534224,-0.240103409,1,0,0,4.5717,Basalt_rect,2,0,2,0,1,
56baafe430d6b3000cf857ea,TCN,2024-06-24_13h43.58.264,LearnStrategy,2023.2.3,Win32,59.52380952,2,2,4,,,,,,,,6,03,,,,,,,,,,,6,4.659,1,,,,,,-0.108582394,-0.399225697,1,0,0,4.6591,Pegmatite_rect,3,0,3,0,1,
56baafe430d6b3000cf857ea,TCN,2024-06-24_13h43.58.264,LearnStrategy,2023.2.3,Win32,59.52380952,2,2,5,,,,,,,,8,10,,,,,,,,,,,8,2.189,1,,,,,,0.375260154,-0.385348747,1,0,0,2.1893,Pumice_rect,4,0,4,0,1,
56baafe430d6b3000cf857ea,TCN,2024-06-24_13h43.58.264,LearnStrategy,2023.2.3,Win32,59.52380952,2,2,6,,,,,,,,3,11,,,,,,,,,,,3,3.791,1,,,,,,0.13380144,-0.255830598,1,0,0,3.791,Diorite_rect,5,0,5,0,1,
56baafe430d6b3000cf857ea,TCN,2024-06-24_13h43.58.264,LearnStrategy,2023.2.3,Win32,59.52380952,2,2,7,,,,,,,,7,06,,,,,,,,,,,7,2.91,1,,,,,,0.153229185,-0.393674901,1,0,0,2.9095,Peridotite_rect,6,0,6,0,1,
56baafe430d6b3000cf857ea,TCN,2024-06-24_13h43.58.264,LearnStrategy,2023.2.3,Win32,59.52380952,2,2,8,,,,,,,,5,16,,,,,,,,,,,5,1.492,1,,,,,,-0.433302808,-0.404776415,1,0,0,1.4924,Obsidian_rect,7,0,7,0,1,
56baafe430d6b3000cf857ea,TCN,2024-06-24_13h43.58.264,LearnStrategy,2023.2.3,Win32,59.52380952,2,2,9,,,,,,,,4,08,,,,,,,,,,,1,6.172,0,,,,,,-0.396297634,-0.237328049,1,0,0,6.1716,Andesite_rect,8,0,8,0,1,
56baafe430d6b3000cf857ea,TCN,2024-06-24_13h43.58.264,LearnStrategy,2023.2.3,Win32,59.52380952,2,2,10,,,,,,,,8,08,,,,,,,,,,,8,1.418,1,,,,,,0.420591482,-0.417728245,1,0,0,1.4175,Pumice_rect,9,0,9,0,1,
56baafe430d6b3000cf857ea,TCN,2024-06-24_13h43.58.264,LearnStrategy,2023.2.3,Win32,59.52380952,2,2,11,,,,,,,,1,16,,,,,,,,,,,1,4.148,1,,,,,,-0.393522236,-0.238253169,1,0,0,4.1483,Andesite_rect,10,0,10,0,1,
56baafe430d6b3000cf857ea,TCN,2024-06-24_13h43.58.264,LearnStrategy,2023.2.3,Win32,59.52380952,2,2,12,,,,,,,,1,10,,,,,,,,,,,4,4.941,0,,,,,,0.426142355,-0.253055239,1,0,0,4.9407,Gabbro_rect,11,0,11,0,1,
56baafe430d6b3000cf857ea,TCN,2024-06-24_13h43.58.264,LearnStrategy,2023.2.3,Win32,59.52380952,2,2,13,,,,,,,,4,10,,,,,,,,,,,4,3.673,1,,,,,,0.403939173,-0.244729084,1,0,0,3.6728,Gabbro_rect,12,0,12,0,1,
56baafe430d6b3000cf857ea,TCN,2024-06-24_13h43.58.264,LearnStrategy,2023.2.3,Win32,59.52380952,2,2,14,,,,,,,,2,06,,,,,,,,,,,2,1.695,1,,,,,,-0.128010139,-0.23547781,1,0,0,1.6951,Basalt_rect,13,0,13,0,1,
56baafe430d6b3000cf857ea,TCN,2024-06-24_13h43.58.264,LearnStrategy,2023.2.3,Win32,59.52380952,2,2,15,,,,,,,,7,12,,,,,,,,,,,7,2.172,1,,,,,,0.134726559,-0.386273866,1,0,0,2.1724,Peridotite_rect,14,0,14,0,1,
56baafe430d6b3000cf857ea,TCN,2024-06-24_13h43.58.264,LearnStrategy,2023.2.3,Win32,59.52380952,2,2,16,,,,,,,,3,10,,,,,,,,,,,3,3.289,1,,,,,,0.114373694,-0.252130119,1,0,0,3.2888,Diorite_rect,15,0,15,0,1,
56baafe430d6b3000cf857ea,TCN,2024-06-24_13h43.58.264,LearnStrategy,2023.2.3,Win32,59.52380952,3,1,1,0.012609523,-0.012521606,1,0,0,1.4646,rock_grid_rect_2,8,16,-1,-1,1.465,0.367859119,-0.402926175,1,0,0,3.0443,Pumice_rect,8,3.044,1,0,0,0,0,1,,,,,,,,,,,,,
56baafe430d6b3000cf857ea,TCN,2024-06-24_13h43.58.264,LearnStrategy,2023.2.3,Win32,59.52380952,3,1,2,-0.001267427,-0.020847799,1,0,0,1.9806,rock_grid_rect_2,5,06,-1,-1,1.981,-0.385196081,-0.390899465,1,0,0,1.5904,Obsidian_rect,5,1.59,1,1,0,1,0,1,,,,,,,,,,,,,
56baafe430d6b3000cf857ea,TCN,2024-06-24_13h43.58.264,LearnStrategy,2023.2.3,Win32,59.52380952,3,1,3,0.004283368,-0.021772919,1,0,0,0.9817,rock_grid_rect_2,2,12,-1,-1,0.982,-0.382420684,-0.241028528,1,0,0,10.2579,Andesite_rect,1,10.258,0,2,0,2,0,1,,,,,,,,,,,,,
56baafe430d6b3000cf857ea,TCN,2024-06-24_13h43.58.264,LearnStrategy,2023.2.3,Win32,59.52380952,3,1,4,-0.019770053,0.006906101,1,0,0,0.8641,rock_grid_rect_2,2,05,-1,-1,0.864,-0.12523478,-0.240103409,1,0,0,2.2645,Basalt_rect,2,2.264,1,3,0,3,0,1,,,,,,,,,,,,,
56baafe430d6b3000cf857ea,TCN,2024-06-24_13h43.58.264,LearnStrategy,2023.2.3,Win32,59.52380952,3,1,5,0.020935677,-0.005120571,1,0,0,0.7812,rock_grid_rect_2,4,12,-1,-1,0.781,-0.411099703,-0.244729084,1,0,0,4.682,Andesite_rect,1,4.682,0,4,0,4,0,1,,,,,,,,,,,,,
56baafe430d6b3000cf857ea,TCN,2024-06-24_13h43.58.264,LearnStrategy,2023.2.3,Win32,59.52380952,3,1,6,0.019085438,0.002280464,1,0,0,1.3306,rock_grid_rect_2,6,10,-1,-1,1.331,0.113448575,-0.388124106,1,0,0,2.0064,Peridotite_rect,7,2.006,0,5,0,5,0,1,,,,,,,,,,,,,
56baafe430d6b3000cf857ea,TCN,2024-06-24_13h43.58.264,LearnStrategy,2023.2.3,Win32,59.52380952,3,1,7,0.003358249,0.003205583,1,0,0,1.0317,rock_grid_rect_2,5,05,-1,-1,1.032,-0.378720166,-0.400150816,1,0,0,3.0054,Obsidian_rect,5,3.005,1,6,0,6,0,1,,,,,,,,,,,,,
56baafe430d6b3000cf857ea,TCN,2024-06-24_13h43.58.264,LearnStrategy,2023.2.3,Win32,59.52380952,3,1,8,-0.034572123,0.010606618,1,0,0,0.7154,rock_grid_rect_2,3,15,-1,-1,0.715,0.185608684,-0.249354683,1,0,0,4.9576,Diorite_rect,3,4.958,1,7,0,7,0,1,,,,,,,,,,,,,
56baafe430d6b3000cf857ea,TCN,2024-06-24_13h43.58.264,LearnStrategy,2023.2.3,Win32,59.52380952,3,1,9,0.032962388,-0.020847799,1,0,0,1.7634,rock_grid_rect_2,6,16,-1,-1,1.763,-0.11228295,-0.392749782,1,0,0,3.9123,Pegmatite_rect,6,3.912,1,8,0,8,0,1,,,,,,,,,,,,,
56baafe430d6b3000cf857ea,TCN,2024-06-24_13h43.58.264,LearnStrategy,2023.2.3,Win32,59.52380952,3,1,10,0.005208488,-0.018997521,1,0,0,0.6975,rock_grid_rect_2,1,06,-1,-1,0.697,-0.420350978,-0.248429563,1,0,0,2.1748,Andesite_rect,1,2.175,1,9,0,9,0,1,,,,,,,,,,,,,
56baafe430d6b3000cf857ea,TCN,2024-06-24_13h43.58.264,LearnStrategy,2023.2.3,Win32,59.52380952,3,1,11,-0.004967983,-0.004195451,1,0,0,0.8313,rock_grid_rect_2,7,04,-1,-1,0.831,0.345656014,-0.243803965,1,0,0,5.491,Gabbro_rect,4,5.491,0,10,0,10,0,1,,,,,,,,,,,,,
56baafe430d6b3000cf857ea,TCN,2024-06-24_13h43.58.264,LearnStrategy,2023.2.3,Win32,59.52380952,3,1,12,0.051464937,0.015232255,1,0,0,0.8806,rock_grid_rect_2,7,07,-1,-1,0.881,0.127325525,-0.393674901,1,0,0,2.5956,Peridotite_rect,7,2.596,1,11,0,11,0,1,,,,,,,,,,,,,
56baafe430d6b3000cf857ea,TCN,2024-06-24_13h43.58.264,LearnStrategy,2023.2.3,Win32,59.52380952,3,1,13,0.036662867,0.002280464,1,0,0,0.864,rock_grid_rect_2,3,02,-1,-1,0.864,0.070892682,-0.249354683,1,0,0,6.4098,Diorite_rect,3,6.41,1,12,0,12,0,1,,,,,,,,,,,,,
56baafe430d6b3000cf857ea,TCN,2024-06-24_13h43.58.264,LearnStrategy,2023.2.3,Win32,59.52380952,3,1,14,0.021860797,-0.002345212,1,0,0,0.8136,rock_grid_rect_2,4,09,-1,-1,0.814,-0.14096197,-0.241953648,1,0,0,4.6912,Basalt_rect,2,4.691,0,13,0,13,0,1,,,,,,,,,,,,,
56baafe430d6b3000cf857ea,TCN,2024-06-24_13h43.58.264,LearnStrategy,2023.2.3,Win32,59.52380952,3,1,15,0.026486473,-0.000494934,1,0,0,0.6638,rock_grid_rect_2,1,09,-1,-1,0.664,-0.413875101,-0.263231633,1,0,0,2.8078,Andesite_rect,1,2.808,1,14,0,14,0,1,,,,,,,,,,,,,
56baafe430d6b3000cf857ea,TCN,2024-06-24_13h43.58.264,LearnStrategy,2023.2.3,Win32,59.52380952,3,1,16,0.005208488,-0.001420054,1,0,0,0.6978,rock_grid_rect_2,8,15,-1,-1,0.698,0.341955535,-0.391824662,1,0,0,1.1114,Pumice_rect,8,1.111,1,15,0,15,0,1,,,,,,,,,,,,,
56baafe430d6b3000cf857ea,TCN,2024-06-24_13h43.58.264,LearnStrategy,2023.2.3,Win32,59.52380952,3,2,1,,,,,,,,6,09,,,,,,,,,,,6,3.007,1,,,,,,-0.136336294,-0.401075936,1,0,0,3.0073,Pegmatite_rect,0,0,0,0,1,
56baafe430d6b3000cf857ea,TCN,2024-06-24_13h43.58.264,LearnStrategy,2023.2.3,Win32,59.52380952,3,2,2,,,,,,,,3,13,,,,,,,,,,,3,2.64,1,,,,,,0.058865971,-0.234552613,1,0,0,2.6399,Diorite_rect,1,0,1,0,1,
56baafe430d6b3000cf857ea,TCN,2024-06-24_13h43.58.264,LearnStrategy,2023.2.3,Win32,59.52380952,3,2,3,,,,,,,,4,15,,,,,,,,,,,4,8.807,1,,,,,,0.404864293,-0.259531154,1,0,0,8.8067,Gabbro_rect,2,0,2,0,1,
56baafe430d6b3000cf857ea,TCN,2024-06-24_13h43.58.264,LearnStrategy,2023.2.3,Win32,59.52380952,3,2,4,,,,,,,,2,16,,,,,,,,,,,2,1.97,1,,,,,,-0.141887089,-0.247504443,1,0,0,1.9696,Basalt_rect,3,0,3,0,1,
56baafe430d6b3000cf857ea,TCN,2024-06-24_13h43.58.264,LearnStrategy,2023.2.3,Win32,59.52380952,3,2,5,,,,,,,,1,14,,,,,,,,,,,6,14.706,0,,,,,,-0.091930085,-0.403851295,1,0,0,14.7057,Pegmatite_rect,4,0,4,0,1,
56baafe430d6b3000cf857ea,TCN,2024-06-24_13h43.58.264,LearnStrategy,2023.2.3,Win32,59.52380952,3,2,6,,,,,,,,6,15,,,,,,,,,,,6,2.689,1,,,,,,-0.11228295,-0.391824662,1,0,0,2.6892,Pegmatite_rect,5,0,5,0,1,
56baafe430d6b3000cf857ea,TCN,2024-06-24_13h43.58.264,LearnStrategy,2023.2.3,Win32,59.52380952,3,2,7,,,,,,,,5,02,,,,,,,,,,,5,1.289,1,,,,,,-0.375944807,-0.384423627,1,0,0,1.2893,Obsidian_rect,6,0,6,0,1,
56baafe430d6b3000cf857ea,TCN,2024-06-24_13h43.58.264,LearnStrategy,2023.2.3,Win32,59.52380952,3,2,8,,,,,,,,7,05,,,,,,,,,,,7,3.974,1,,,,,,0.10604754,-0.39645026,1,0,0,3.9739,Peridotite_rect,7,0,7,0,1,
56baafe430d6b3000cf857ea,TCN,2024-06-24_13h43.58.264,LearnStrategy,2023.2.3,Win32,59.52380952,3,2,9,,,,,,,,4,13,,,,,,,,,,,4,2.739,1,,,,,,0.372484795,-0.259531154,1,0,0,2.7389,Gabbro_rect,8,0,8,0,1,
56baafe430d6b3000cf857ea,TCN,2024-06-24_13h43.58.264,LearnStrategy,2023.2.3,Win32,59.52380952,3,2,10,,,,,,,,1,01,,,,,,,,,,,1,4.206,1,,,,,,-0.385196081,-0.247504443,1,0,0,4.2064,Andesite_rect,9,0,9,0,1,
56baafe430d6b3000cf857ea,TCN,2024-06-24_13h43.58.264,LearnStrategy,2023.2.3,Win32,59.52380952,3,2,11,,,,,,,,3,07,,,,,,,,,,,3,3.124,1,,,,,,0.116224011,-0.254905478,1,0,0,3.1236,Diorite_rect,10,0,10,0,1,
56baafe430d6b3000cf857ea,TCN,2024-06-24_13h43.58.264,LearnStrategy,2023.2.3,Win32,59.52380952,3,2,12,,,,,,,,8,04,,,,,,,,,,,8,1.408,1,,,,,,0.36323352,-0.404776415,1,0,0,1.4077,Pumice_rect,11,0,11,0,1,
56baafe430d6b3000cf857ea,TCN,2024-06-24_13h43.58.264,LearnStrategy,2023.2.3,Win32,59.52380952,3,2,13,,,,,,,,8,05,,,,,,,,,,,8,1.489,1,,,,,,0.354907366,-0.389974345,1,0,0,1.4888,Pumice_rect,12,0,12,0,1,
56baafe430d6b3000cf857ea,TCN,2024-06-24_13h43.58.264,LearnStrategy,2023.2.3,Win32,59.52380952,3,2,14,,,,,,,,7,08,,,,,,,,,,,7,2.739,1,,,,,,0.108822976,-0.387198986,1,0,0,2.7394,Peridotite_rect,13,0,13,0,1,
56baafe430d6b3000cf857ea,TCN,2024-06-24_13h43.58.264,LearnStrategy,2023.2.3,Win32,59.52380952,3,2,15,,,,,,,,2,01,,,,,,,,,,,2,2.936,1,,,,,,-0.114133189,-0.234552613,1,0,0,2.9357,Basalt_rect,14,0,14,0,1,
56baafe430d6b3000cf857ea,TCN,2024-06-24_13h43.58.264,LearnStrategy,2023.2.3,Win32,59.52380952,3,2,16,,,,,,,,5,04,,,,,,,,,,,5,1.272,1,,,,,,-0.369468892,-0.413102569,1,0,0,1.2716,Obsidian_rect,15,0,15,0,1,
56baafe430d6b3000cf857ea,TCN,2024-06-24_13h43.58.264,LearnStrategy,2023.2.3,Win32,59.52380952,4,1,1,0.010759284,0.003205583,1,0,0,6.149,rock_grid_rect_2,6,16,-1,-1,6.149,-0.142812209,-0.391824662,1,0,0,7.6574,Pegmatite_rect,6,7.657,1,0,0,0,0,1,,,,,,,,,,,,,
56baafe430d6b3000cf857ea,TCN,2024-06-24_13h43.58.264,LearnStrategy,2023.2.3,Win32,59.52380952,4,1,2,0.022785917,0.001355305,1,0,0,0.8643,rock_grid_rect_2,7,14,-1,-1,0.864,0.144903031,-0.420503604,1,0,0,4.7582,Peridotite_rect,7,4.758,1,1,0,1,0,1,,,,,,,,,,,,,
56baafe430d6b3000cf857ea,TCN,2024-06-24_13h43.58.264,LearnStrategy,2023.2.3,Win32,59.52380952,4,1,3,-0.022545412,-0.004195451,1,0,0,0.8145,rock_grid_rect_2,5,14,-1,-1,0.814,-0.397222753,-0.389974345,1,0,0,1.3905,Obsidian_rect,5,1.39,1,2,0,2,0,1,,,,,,,,,,,,,
56baafe430d6b3000cf857ea,TCN,2024-06-24_13h43.58.264,LearnStrategy,2023.2.3,Win32,59.52380952,4,1,4,-0.016069497,-0.013446764,1,0,0,0.9816,rock_grid_rect_2,7,07,-1,-1,0.982,0.115298891,-0.41032721,1,0,0,2.2151,Peridotite_rect,7,2.215,1,3,0,3,0,1,,,,,,,,,,,,,
56baafe430d6b3000cf857ea,TCN,2024-06-24_13h43.58.264,LearnStrategy,2023.2.3,Win32,59.52380952,4,1,5,0.025561353,-0.000494934,1,0,0,0.9311,rock_grid_rect_2,4,12,-1,-1,0.931,-0.399073031,-0.253055239,1,0,0,4.3737,Andesite_rect,1,4.374,0,4,0,4,0,1,,,,,,,,,,,,,
56baafe430d6b3000cf857ea,TCN,2024-06-24_13h43.58.264,LearnStrategy,2023.2.3,Win32,59.52380952,4,1,6,0.016310002,0.004130703,1,0,0,0.7303,rock_grid_rect_2,2,12,-1,-1,0.73,-0.387971479,-0.231777254,1,0,0,5.7634,Andesite_rect,1,5.763,0,5,0,5,0,1,,,,,,,,,,,,,
56baafe430d6b3000cf857ea,TCN,2024-06-24_13h43.58.264,LearnStrategy,2023.2.3,Win32,59.52380952,4,1,7,-0.031796686,0.000430186,1,0,0,0.6641,rock_grid_rect_2,3,16,-1,-1,0.664,0.136576799,-0.253055239,1,0,0,1.7067,Diorite_rect,3,1.707,1,6,0,6,0,1,,,,,,,,,,,,,
56baafe430d6b3000cf857ea,TCN,2024-06-24_13h43.58.264,LearnStrategy,2023.2.3,Win32,59.52380952,4,1,8,-0.023470532,0.013382016,1,0,0,0.7472,rock_grid_rect_2,1,04,-1,-1,0.747,-0.382420684,-0.260456274,1,0,0,4.9571,Andesite_rect,1,4.957,1,7,0,7,0,1,,,,,,,,,,,,,
56baafe430d6b3000cf857ea,TCN,2024-06-24_13h43.58.264,LearnStrategy,2023.2.3,Win32,59.52380952,4,1,9,0.033887508,-0.013446764,1,0,0,0.781,rock_grid_rect_2,4,01,-1,-1,0.781,-0.12523478,-0.252130119,1,0,0,9.0742,Basalt_rect,2,9.074,0,8,0,8,0,1,,,,,,,,,,,,,
56baafe430d6b3000cf857ea,TCN,2024-06-24_13h43.58.264,LearnStrategy,2023.2.3,Win32,59.52380952,4,1,10,0.000582812,-0.008821089,1,0,0,0.9638,rock_grid_rect_2,8,16,-1,-1,0.964,0.332704261,-0.414027766,1,0,0,1.5406,Pumice_rect,8,1.541,1,9,0,9,0,1,,,,,,,,,,,,,
56baafe430d6b3000cf857ea,TCN,2024-06-24_13h43.58.264,LearnStrategy,2023.2.3,Win32,59.52380952,4,1,11,-0.004967983,0.006906101,1,0,0,0.7147,rock_grid_rect_2,3,09,-1,-1,0.715,0.122699926,-0.246579324,1,0,0,2.035,Diorite_rect,3,2.035,1,10,0,10,0,1,,,,,,,,,,,,,
56baafe430d6b3000cf857ea,TCN,2024-06-24_13h43.58.264,LearnStrategy,2023.2.3,Win32,59.52380952,4,1,12,0.012609523,-0.006970849,1,0,0,1.0476,rock_grid_rect_2,6,05,-1,-1,1.048,-0.149288124,-0.391824662,1,0,0,3.4415,Pegmatite_rect,6,3.441,1,11,0,11,0,1,,,,,,,,,,,,,
56baafe430d6b3000cf857ea,TCN,2024-06-24_13h43.58.264,LearnStrategy,2023.2.3,Win32,59.52380952,4,1,13,0.006133608,0.00875634,1,0,0,1.0143,rock_grid_rect_2,2,08,-1,-1,1.014,-0.096555761,-0.254905478,1,0,0,1.2044,Basalt_rect,2,1.204,1,12,0,12,0,1,,,,,,,,,,,,,
56baafe430d6b3000cf857ea,TCN,2024-06-24_13h43.58.264,LearnStrategy,2023.2.3,Win32,59.52380952,4,1,14,0.002433052,-0.008821089,1,0,0,0.5987,rock_grid_rect_2,8,06,-1,-1,0.599,0.354907366,-0.414952886,1,0,0,1.0738,Pumice_rect,8,1.074,1,13,0,13,0,1,,,,,,,,,,,,,
56baafe430d6b3000cf857ea,TCN,2024-06-24_13h43.58.264,LearnStrategy,2023.2.3,Win32,59.52380952,4,1,15,-0.045673636,0.004130703,1,0,0,0.614,rock_grid_rect_2,5,09,-1,-1,0.614,-0.35836734,-0.389974345,1,0,0,1.1782,Obsidian_rect,5,1.178,1,14,0,14,0,1,,,,,,,,,,,,,
56baafe430d6b3000cf857ea,TCN,2024-06-24_13h43.58.264,LearnStrategy,2023.2.3,Win32,59.52380952,4,1,16,-0.050299312,-0.018997521,1,0,0,0.7312,rock_grid_rect_2,1,03,-1,-1,0.731,-0.437003325,-0.255830598,1,0,0,1.8131,Andesite_rect,1,1.813,1,15,0,15,0,1,,,,,,,,,,,,,
56baafe430d6b3000cf857ea,TCN,2024-06-24_13h43.58.264,LearnStrategy,2023.2.3,Win32,59.52380952,4,2,1,,,,,,,,1,16,,,,,,,,,,,1,15.131,1,,,,,,-0.375944807,-0.23547781,1,0,0,15.1312,Andesite_rect,0,0,0,0,1,
56baafe430d6b3000cf857ea,TCN,2024-06-24_13h43.58.264,LearnStrategy,2023.2.3,Win32,59.52380952,4,2,2,,,,,,,,1,14,,,,,,,,,,,6,2.314,0,,,,,,-0.144662449,-0.386273866,1,0,0,2.3137,Pegmatite_rect,1,0,1,0,1,
56baafe430d6b3000cf857ea,TCN,2024-06-24_13h43.58.264,LearnStrategy,2023.2.3,Win32,59.52380952,4,2,3,,,,,,,,4,08,,,,,,,,,,,4,3.39,1,,,,,,0.381736069,-0.253055239,1,0,0,3.3899,Gabbro_rect,2,0,2,0,1,
56baafe430d6b3000cf857ea,TCN,2024-06-24_13h43.58.264,LearnStrategy,2023.2.3,Win32,59.52380952,4,2,4,,,,,,,,5,16,,,,,,,,,,,5,1.639,1,,,,,,-0.391671997,-0.393674901,1,0,0,1.6387,Obsidian_rect,3,0,3,0,1,
56baafe430d6b3000cf857ea,TCN,2024-06-24_13h43.58.264,LearnStrategy,2023.2.3,Win32,59.52380952,4,2,5,,,,,,,,7,10,,,,,,,,,,,7,1.473,1,,,,,,0.09217059,-0.395525141,1,0,0,1.4731,Peridotite_rect,4,0,4,0,1,
56baafe430d6b3000cf857ea,TCN,2024-06-24_13h43.58.264,LearnStrategy,2023.2.3,Win32,59.52380952,4,2,6,,,,,,,,2,01,,,,,,,,,,,2,1.373,1,,,,,,-0.141887089,-0.234552613,1,0,0,1.3732,Basalt_rect,5,0,5,0,1,
56baafe430d6b3000cf857ea,TCN,2024-06-24_13h43.58.264,LearnStrategy,2023.2.3,Win32,59.52380952,4,2,7,,,,,,,,3,10,,,,,,,,,,,3,3.606,1,,,,,,0.116224011,-0.248429563,1,0,0,3.6062,Diorite_rect,6,0,6,0,1,
56baafe430d6b3000cf857ea,TCN,2024-06-24_13h43.58.264,LearnStrategy,2023.2.3,Win32,59.52380952,4,2,8,,,,,,,,4,10,,,,,,,,,,,4,3.607,1,,,,,,0.366933999,-0.241953648,1,0,0,3.6065,Gabbro_rect,7,0,7,0,1,
56baafe430d6b3000cf857ea,TCN,2024-06-24_13h43.58.264,LearnStrategy,2023.2.3,Win32,59.52380952,4,2,9,,,,,,,,2,16,,,,,,,,,,,2,1.422,1,,,,,,-0.117833745,-0.245654204,1,0,0,1.4223,Basalt_rect,8,0,8,0,1,
56baafe430d6b3000cf857ea,TCN,2024-06-24_13h43.58.264,LearnStrategy,2023.2.3,Win32,59.52380952,4,2,10,,,,,,,,7,08,,,,,,,,,,,7,1.663,1,,,,,,0.13380144,-0.38257331,1,0,0,1.6634,Peridotite_rect,9,0,9,0,1,
56baafe430d6b3000cf857ea,TCN,2024-06-24_13h43.58.264,LearnStrategy,2023.2.3,Win32,59.52380952,4,2,11,,,,,,,,3,11,,,,,,,,,,,3,2.379,1,,,,,,0.09217059,-0.241028528,1,0,0,2.3789,Diorite_rect,10,0,10,0,1,
56baafe430d6b3000cf857ea,TCN,2024-06-24_13h43.58.264,LearnStrategy,2023.2.3,Win32,59.52380952,4,2,12,,,,,,,,5,02,,,,,,,,,,,5,1.152,1,,,,,,-0.360217579,-0.389974345,1,0,0,1.1521,Obsidian_rect,11,0,11,0,1,
56baafe430d6b3000cf857ea,TCN,2024-06-24_13h43.58.264,LearnStrategy,2023.2.3,Win32,59.52380952,4,2,13,,,,,,,,8,02,,,,,,,,,,,8,1.536,1,,,,,,0.382661189,-0.409402091,1,0,0,1.5361,Pumice_rect,12,0,12,0,1,
56baafe430d6b3000cf857ea,TCN,2024-06-24_13h43.58.264,LearnStrategy,2023.2.3,Win32,59.52380952,4,2,14,,,,,,,,6,03,,,,,,,,,,,6,2.973,1,,,,,,-0.130785498,-0.39737538,1,0,0,2.9729,Pegmatite_rect,13,0,13,0,1,
56baafe430d6b3000cf857ea,TCN,2024-06-24_13h43.58.264,LearnStrategy,2023.2.3,Win32,59.52380952,4,2,15,,,,,,,,8,08,,,,,,,,,,,8,1.32,1,,,,,,0.353057049,-0.402001056,1,0,0,1.3196,Pumice_rect,14,0,14,0,1,
56baafe430d6b3000cf857ea,TCN,2024-06-24_13h43.58.264,LearnStrategy,2023.2.3,Win32,59.52380952,4,2,16,,,,,,,,6,15,,,,,,,,,,,6,2.109,1,,,,,,-0.116908626,-0.391824662,1,0,0,2.1089,Pegmatite_rect,15,0,15,0,1,
56baafe430d6b3000cf857ea,TCN,2024-06-24_13h43.58.264,LearnStrategy,2023.2.3,Win32,59.52380952,5,1,1,0.005208488,-0.001420054,1,0,0,1.5145,rock_grid_rect_2,5,07,-1,-1,1.514,-0.364843255,-0.388124106,1,0,0,1.4907,Obsidian_rect,5,1.491,1,0,0,0,0,1,,,,,,,,,,,,,
56baafe430d6b3000cf857ea,TCN,2024-06-24_13h43.58.264,LearnStrategy,2023.2.3,Win32,59.52380952,5,1,2,-0.017919736,-0.004195451,1,0,0,0.7143,rock_grid_rect_2,4,11,-1,-1,0.714,0.398388455,-0.238253169,1,0,0,14.8075,Gabbro_rect,4,14.807,1,1,0,1,0,1,,,,,,,,,,,,,
56baafe430d6b3000cf857ea,TCN,2024-06-24_13h43.58.264,LearnStrategy,2023.2.3,Win32,59.52380952,5,1,3,0.009834086,-0.007895969,1,0,0,0.8804,rock_grid_rect_2,1,02,-1,-1,0.88,-0.142812209,-0.401075936,1,0,0,10.1962,Pegmatite_rect,6,10.196,0,2,0,2,0,1,,,,,,,,,,,,,
56baafe430d6b3000cf857ea,TCN,2024-06-24_13h43.58.264,LearnStrategy,2023.2.3,Win32,59.52380952,5,1,4,-0.038272601,-0.014371884,1,0,0,0.9973,rock_grid_rect_2,1,06,-1,-1,0.997,-0.383345842,-0.246579324,1,0,0,5.4575,Andesite_rect,1,5.457,1,3,0,3,0,1,,,,,,,,,,,,,
56baafe430d6b3000cf857ea,TCN,2024-06-24_13h43.58.264,LearnStrategy,2023.2.3,Win32,59.52380952,5,1,5,-0.015144377,-0.006045729,1,0,0,0.914,rock_grid_rect_2,6,10,-1,-1,0.914,0.103272181,-0.386273866,1,0,0,1.791,Peridotite_rect,7,1.791,0,4,0,4,0,1,,,,,,,,,,,,,
56baafe430d6b3000cf857ea,TCN,2024-06-24_13h43.58.264,LearnStrategy,2023.2.3,Win32,59.52380952,5,1,6,-0.016994617,-0.003270332,1,0,0,0.7649,rock_grid_rect_2,8,15,-1,-1,0.765,0.357682725,-0.394600021,1,0,0,1.9458,Pumice_rect,8,1.946,1,5,0,5,0,1,,,,,,,,,,,,,
56baafe430d6b3000cf857ea,TCN,2024-06-24_13h43.58.264,LearnStrategy,2023.2.3,Win32,59.52380952,5,1,7,-0.004042786,0.000430186,1,0,0,0.6644,rock_grid_rect_2,2,05,-1,-1,0.664,-0.121534224,-0.260456274,1,0,0,1.3235,Basalt_rect,2,1.323,1,6,0,6,0,1,,,,,,,,,,,,,
56baafe430d6b3000cf857ea,TCN,2024-06-24_13h43.58.264,LearnStrategy,2023.2.3,Win32,59.52380952,5,1,8,-0.012369018,-0.005120571,1,0,0,1.1654,rock_grid_rect_2,7,15,-1,-1,1.165,0.095871146,-0.389974345,1,0,0,1.7734,Peridotite_rect,7,1.773,1,7,0,7,0,1,,,,,,,,,,,,,
56baafe430d6b3000cf857ea,TCN,2024-06-24_13h43.58.264,LearnStrategy,2023.2.3,Win32,59.52380952,5,1,9,0.008908967,0.018007653,1,0,0,0.9979,rock_grid_rect_2,7,13,-1,-1,0.998,0.107897856,-0.400150816,1,0,0,1.9473,Peridotite_rect,7,1.947,1,8,0,8,0,1,,,,,,,,,,,,,
56baafe430d6b3000cf857ea,TCN,2024-06-24_13h43.58.264,LearnStrategy,2023.2.3,Win32,59.52380952,5,1,10,0.005208488,0.012456858,1,0,0,0.764,rock_grid_rect_2,8,14,-1,-1,0.764,0.357682725,-0.387198986,1,0,0,1.2907,Pumice_rect,8,1.291,1,9,0,9,0,1,,,,,,,,,,,,,
56baafe430d6b3000cf857ea,TCN,2024-06-24_13h43.58.264,LearnStrategy,2023.2.3,Win32,59.52380952,5,1,11,0.038513106,-0.009746247,1,0,0,0.815,rock_grid_rect_2,4,09,-1,-1,0.815,0.369709436,-0.238253169,1,0,0,3.9047,Gabbro_rect,4,3.905,1,10,0,10,0,1,,,,,,,,,,,,,
56baafe430d6b3000cf857ea,TCN,2024-06-24_13h43.58.264,LearnStrategy,2023.2.3,Win32,59.52380952,5,1,12,0.001507932,0.005055823,1,0,0,0.8638,rock_grid_rect_2,3,12,-1,-1,0.864,0.083844435,-0.252130119,1,0,0,2.5907,Diorite_rect,3,2.591,1,11,0,11,0,1,,,,,,,,,,,,,
56baafe430d6b3000cf857ea,TCN,2024-06-24_13h43.58.264,LearnStrategy,2023.2.3,Win32,59.52380952,5,1,13,0.003358249,-0.009746247,1,0,0,0.7464,rock_grid_rect_2,6,06,-1,-1,0.746,0.168956375,-0.246579324,1,0,0,13.3621,Diorite_rect,3,13.362,0,12,0,12,0,1,,,,,,,,,,,,,
56baafe430d6b3000cf857ea,TCN,2024-06-24_13h43.58.264,LearnStrategy,2023.2.3,Win32,59.52380952,5,1,14,0.018160318,-0.013446764,1,0,0,1.0964,rock_grid_rect_2,5,05,-1,-1,1.096,-0.380570444,-0.41032721,1,0,0,2.1286,Obsidian_rect,5,2.129,1,13,0,13,0,1,,,,,,,,,,,,,
56baafe430d6b3000cf857ea,TCN,2024-06-24_13h43.58.264,LearnStrategy,2023.2.3,Win32,59.52380952,5,1,15,-0.030871567,-0.018997521,1,0,0,1.1481,rock_grid_rect_2,2,14,-1,-1,1.148,-0.128935259,-0.247504443,1,0,0,3.9236,Basalt_rect,2,3.924,1,14,0,14,0,1,,,,,,,,,,,,,
56baafe430d6b3000cf857ea,TCN,2024-06-24_13h43.58.264,LearnStrategy,2023.2.3,Win32,59.52380952,5,1,16,-0.016994617,0.017082533,1,0,0,0.6634,rock_grid_rect_2,3,02,-1,-1,0.663,0.108822976,-0.232702374,1,0,0,1.808,Diorite_rect,3,1.808,1,15,0,15,0,1,,,,,,,,,,,,,
56baafe430d6b3000cf857ea,TCN,2024-06-24_13h43.58.264,LearnStrategy,2023.2.3,Win32,59.52380952,5,2,1,,,,,,,,7,12,,,,,,,,,,,7,2.774,1,,,,,,0.108822976,-0.392749782,1,0,0,2.7742,Peridotite_rect,0,0,0,0,1,
56baafe430d6b3000cf857ea,TCN,2024-06-24_13h43.58.264,LearnStrategy,2023.2.3,Win32,59.52380952,5,2,2,,,,,,,,4,03,,,,,,,,,,,3,13.477,0,,,,,,0.109748096,-0.229927015,1,0,0,13.4773,Diorite_rect,1,0,1,0,1,
56baafe430d6b3000cf857ea,TCN,2024-06-24_13h43.58.264,LearnStrategy,2023.2.3,Win32,59.52380952,5,2,3,,,,,,,,6,07,,,,,,,,,,,6,2.69,1,,,,,,-0.143737329,-0.414952886,1,0,0,2.6896,Pegmatite_rect,2,0,2,0,1,
56baafe430d6b3000cf857ea,TCN,2024-06-24_13h43.58.264,LearnStrategy,2023.2.3,Win32,59.52380952,5,2,4,,,,,,,,3,07,,,,,,,,,,,3,1.808,1,,,,,,0.10604754,-0.23640293,1,0,0,1.8078,Diorite_rect,3,0,3,0,1,
56baafe430d6b3000cf857ea,TCN,2024-06-24_13h43.58.264,LearnStrategy,2023.2.3,Win32,59.52380952,5,2,5,,,,,,,,8,10,,,,,,,,,,,8,1.349,1,,,,,,0.33732986,-0.381648191,1,0,0,1.3493,Pumice_rect,4,0,4,0,1,
56baafe430d6b3000cf857ea,TCN,2024-06-24_13h43.58.264,LearnStrategy,2023.2.3,Win32,59.52380952,5,2,6,,,,,,,,1,07,,,,,,,,,,,3,9.155,0,,,,,,0.115298891,-0.230852134,1,0,0,9.1552,Diorite_rect,5,0,5,0,1,
56baafe430d6b3000cf857ea,TCN,2024-06-24_13h43.58.264,LearnStrategy,2023.2.3,Win32,59.52380952,5,2,7,,,,,,,,5,08,,,,,,,,,,,5,1.172,1,,,,,,-0.388896599,-0.403851295,1,0,0,1.1721,Obsidian_rect,6,0,6,0,1,
56baafe430d6b3000cf857ea,TCN,2024-06-24_13h43.58.264,LearnStrategy,2023.2.3,Win32,59.52380952,5,2,8,,,,,,,,3,13,,,,,,,,,,,3,1.414,1,,,,,,0.071817802,-0.232702374,1,0,0,1.4135,Diorite_rect,7,0,7,0,1,
56baafe430d6b3000cf857ea,TCN,2024-06-24_13h43.58.264,LearnStrategy,2023.2.3,Win32,59.52380952,5,2,9,,,,,,,,1,10,,,,,,,,,,,4,3.606,0,,,,,,0.370634555,-0.229927015,1,0,0,3.6061,Gabbro_rect,8,0,8,0,1,
56baafe430d6b3000cf857ea,TCN,2024-06-24_13h43.58.264,LearnStrategy,2023.2.3,Win32,59.52380952,5,2,10,,,,,,,,8,05,,,,,,,,,,,8,1.206,1,,,,,,0.374335034,-0.379797951,1,0,0,1.2061,Pumice_rect,9,0,9,0,1,
56baafe430d6b3000cf857ea,TCN,2024-06-24_13h43.58.264,LearnStrategy,2023.2.3,Win32,59.52380952,5,2,11,,,,,,,,7,06,,,,,,,,,,,7,1.672,1,,,,,,0.149528629,-0.38257331,1,0,0,1.6722,Peridotite_rect,10,0,10,0,1,
56baafe430d6b3000cf857ea,TCN,2024-06-24_13h43.58.264,LearnStrategy,2023.2.3,Win32,59.52380952,5,2,12,,,,,,,,6,12,,,,,,,,,,,6,1.623,1,,,,,,-0.107657274,-0.3983005,1,0,0,1.623,Pegmatite_rect,11,0,11,0,1,
56baafe430d6b3000cf857ea,TCN,2024-06-24_13h43.58.264,LearnStrategy,2023.2.3,Win32,59.52380952,5,2,13,,,,,,,,5,04,,,,,,,,,,,5,1.224,1,,,,,,-0.375019649,-0.391824662,1,0,0,1.2236,Obsidian_rect,12,0,12,0,1,
56baafe430d6b3000cf857ea,TCN,2024-06-24_13h43.58.264,LearnStrategy,2023.2.3,Win32,59.52380952,5,2,14,,,,,,,,2,02,,,,,,,,,,,4,15.09,0,,,,,,0.396538139,-0.26508195,1,0,0,15.0902,Gabbro_rect,13,0,13,0,1,
56baafe430d6b3000cf857ea,TCN,2024-06-24_13h43.58.264,LearnStrategy,2023.2.3,Win32,59.52380952,5,2,15,,,,,,,,2,11,,,,,,,,,,,1,5.593,0,,,,,,-0.43052741,-0.234552613,1,0,0,5.593,Andesite_rect,14,0,14,0,1,
56baafe430d6b3000cf857ea,TCN,2024-06-24_13h43.58.264,LearnStrategy,2023.2.3,Win32,59.52380952,5,2,16,,,,,,,,4,15,,,,,,,,,,,4,6.557,1,,,,,,0.398388455,-0.243803965,1,0,0,6.557,Gabbro_rect,15,0,15,0,1,
56baafe430d6b3000cf857ea,TCN,2024-06-24_13h43.58.264,LearnStrategy,2023.2.3,Win32,59.52380952,6,1,1,0.025561353,0.006906101,1,0,0,1.4651,rock_grid_rect_2,8,09,-1,-1,1.465,0.346581211,-0.402001056,1,0,0,1.6567,Pumice_rect,8,1.657,1,0,0,0,0,1,,,,,,,,,,,,,
56baafe430d6b3000cf857ea,TCN,2024-06-24_13h43.58.264,LearnStrategy,2023.2.3,Win32,59.52380952,6,1,2,0.029261832,-0.018072401,1,0,0,0.6472,rock_grid_rect_2,5,12,-1,-1,0.647,-0.393522236,-0.405701535,1,0,0,1.1421,Obsidian_rect,5,1.142,1,1,0,1,0,1,,,,,,,,,,,,,
56baafe430d6b3000cf857ea,TCN,2024-06-24_13h43.58.264,LearnStrategy,2023.2.3,Win32,59.52380952,6,1,3,0.044989021,-0.016222123,1,0,0,0.6813,rock_grid_rect_2,5,06,-1,-1,0.681,-0.325062683,-0.38257331,1,0,0,1.1484,Obsidian_rect,5,1.148,1,2,0,2,0,1,,,,,,,,,,,,,
56baafe430d6b3000cf857ea,TCN,2024-06-24_13h43.58.264,LearnStrategy,2023.2.3,Win32,59.52380952,6,1,4,0.007058727,0.004130703,1,0,0,0.9487,rock_grid_rect_2,3,06,-1,-1,0.949,0.107897856,-0.25027988,1,0,0,2.0913,Diorite_rect,3,2.091,1,3,0,3,0,1,,,,,,,,,,,,,
56baafe430d6b3000cf857ea,TCN,2024-06-24_13h43.58.264,LearnStrategy,2023.2.3,Win32,59.52380952,6,1,5,-0.004042786,-0.008821089,1,0,0,0.9305,rock_grid_rect_2,6,13,-1,-1,0.93,-0.14096197,-0.38349843,1,0,0,4.0594,Pegmatite_rect,6,4.059,1,4,0,4,0,1,,,,,,,,,,,,,
56baafe430d6b3000cf857ea,TCN,2024-06-24_13h43.58.264,LearnStrategy,2023.2.3,Win32,59.52380952,6,1,6,-0.004042786,-0.008821089,1,0,0,0.7644,rock_grid_rect_2,6,11,-1,-1,0.764,-0.104881915,-0.41125233,1,0,0,1.6741,Pegmatite_rect,6,1.674,1,5,0,5,0,1,,,,,,,,,,,,,
56baafe430d6b3000cf857ea,TCN,2024-06-24_13h43.58.264,LearnStrategy,2023.2.3,Win32,59.52380952,6,1,7,0.038513106,0.018007653,1,0,0,0.6486,rock_grid_rect_2,7,04,-1,-1,0.649,0.139352235,-0.41217745,1,0,0,4.88,Peridotite_rect,7,4.88,1,6,0,6,0,1,,,,,,,,,,,,,
56baafe430d6b3000cf857ea,TCN,2024-06-24_13h43.58.264,LearnStrategy,2023.2.3,Win32,59.52380952,6,1,8,0.059791091,0.009681499,1,0,0,0.6807,rock_grid_rect_2,2,09,-1,-1,0.681,-0.380570444,-0.240103409,1,0,0,4.3783,Andesite_rect,1,4.378,0,7,0,7,0,1,,,,,,,,,,,,,
56baafe430d6b3000cf857ea,TCN,2024-06-24_13h43.58.264,LearnStrategy,2023.2.3,Win32,59.52380952,6,1,9,0.004283368,0.005980981,1,0,0,0.7137,rock_grid_rect_2,1,09,-1,-1,0.714,0.370634555,-0.234552613,1,0,0,2.7307,Gabbro_rect,4,2.731,0,8,0,8,0,1,,,,,,,,,,,,,
56baafe430d6b3000cf857ea,TCN,2024-06-24_13h43.58.264,LearnStrategy,2023.2.3,Win32,59.52380952,6,1,10,0.044063902,-0.015297004,1,0,0,0.6312,rock_grid_rect_2,4,05,-1,-1,0.631,0.09124547,-0.248429563,1,0,0,8.3246,Diorite_rect,3,8.325,0,9,0,9,0,1,,,,,,,,,,,,,
56baafe430d6b3000cf857ea,TCN,2024-06-24_13h43.58.264,LearnStrategy,2023.2.3,Win32,59.52380952,6,1,11,0.049614697,-0.006045729,1,0,0,0.5976,rock_grid_rect_2,7,16,-1,-1,0.598,0.115298891,-0.406626732,1,0,0,1.3739,Peridotite_rect,7,1.374,1,10,0,10,0,1,,,,,,,,,,,,,
56baafe430d6b3000cf857ea,TCN,2024-06-24_13h43.58.264,LearnStrategy,2023.2.3,Win32,59.52380952,6,1,12,0.023711037,-0.001420054,1,0,0,0.5648,rock_grid_rect_2,2,04,-1,-1,0.565,-0.132635815,-0.253055239,1,0,0,1.1975,Basalt_rect,2,1.197,1,11,0,11,0,1,,,,,,,,,,,,,
56baafe430d6b3000cf857ea,TCN,2024-06-24_13h43.58.264,LearnStrategy,2023.2.3,Win32,59.52380952,6,1,13,-0.018844856,0.00875634,1,0,0,0.5988,rock_grid_rect_2,1,11,-1,-1,0.599,-0.100256239,-0.409402091,1,0,0,3.2611,Pegmatite_rect,6,3.261,0,12,0,12,0,1,,,,,,,,,,,,,
56baafe430d6b3000cf857ea,TCN,2024-06-24_13h43.58.264,LearnStrategy,2023.2.3,Win32,59.52380952,6,1,14,-0.006818223,0.006906101,1,0,0,0.514,rock_grid_rect_2,4,14,-1,-1,0.514,0.313276516,-0.239178289,1,0,0,4.7412,Gabbro_rect,4,4.741,1,13,0,13,0,1,,,,,,,,,,,,,
56baafe430d6b3000cf857ea,TCN,2024-06-24_13h43.58.264,LearnStrategy,2023.2.3,Win32,59.52380952,6,1,15,0.012609523,-0.008821089,1,0,0,0.998,rock_grid_rect_2,3,15,-1,-1,0.998,0.088470111,-0.232702374,1,0,0,2.0918,Diorite_rect,3,2.092,1,14,0,14,0,1,,,,,,,,,,,,,
56baafe430d6b3000cf857ea,TCN,2024-06-24_13h43.58.264,LearnStrategy,2023.2.3,Win32,59.52380952,6,1,16,0.008908967,-0.008821089,1,0,0,0.5808,rock_grid_rect_2,8,13,-1,-1,0.581,0.356757605,-0.38349843,1,0,0,1.2746,Pumice_rect,8,1.275,1,15,0,15,0,1,,,,,,,,,,,,,
56baafe430d6b3000cf857ea,TCN,2024-06-24_13h43.58.264,LearnStrategy,2023.2.3,Win32,59.52380952,6,2,1,,,,,,,,5,10,,,,,,,,,,,5,1.357,1,,,,,,-0.363918097,-0.38257331,1,0,0,1.3572,Obsidian_rect,0,0,0,0,1,
56baafe430d6b3000cf857ea,TCN,2024-06-24_13h43.58.264,LearnStrategy,2023.2.3,Win32,59.52380952,6,2,2,,,,,,,,3,08,,,,,,,,,,,3,1.523,1,,,,,,0.130100961,-0.244729084,1,0,0,1.5233,Diorite_rect,1,0,1,0,1,
56baafe430d6b3000cf857ea,TCN,2024-06-24_13h43.58.264,LearnStrategy,2023.2.3,Win32,59.52380952,6,2,3,,,,,,,,2,06,,,,,,,,,,,2,1.457,1,,,,,,-0.11320807,-0.247504443,1,0,0,1.4566,Basalt_rect,2,0,2,0,1,
56baafe430d6b3000cf857ea,TCN,2024-06-24_13h43.58.264,LearnStrategy,2023.2.3,Win32,59.52380952,6,2,4,,,,,,,,8,04,,,,,,,,,,,8,1.091,1,,,,,,0.339180176,-0.386273866,1,0,0,1.0915,Pumice_rect,3,0,3,0,1,
56baafe430d6b3000cf857ea,TCN,2024-06-24_13h43.58.264,LearnStrategy,2023.2.3,Win32,59.52380952,6,2,5,,,,,,,,1,01,,,,,,,,,,,4,7.837,0,,,,,,0.386361745,-0.241028528,1,0,0,7.8374,Gabbro_rect,4,0,4,0,1,
56baafe430d6b3000cf857ea,TCN,2024-06-24_13h43.58.264,LearnStrategy,2023.2.3,Win32,59.52380952,6,2,6,,,,,,,,7,02,,,,,,,,,,,7,1.307,1,,,,,,0.129175764,-0.389974345,1,0,0,1.3074,Peridotite_rect,5,0,5,0,1,
56baafe430d6b3000cf857ea,TCN,2024-06-24_13h43.58.264,LearnStrategy,2023.2.3,Win32,59.52380952,6,2,7,,,,,,,,6,08,,,,,,,,,,,6,1.406,1,,,,,,-0.128010139,-0.394600021,1,0,0,1.406,Pegmatite_rect,6,0,6,0,1,
56baafe430d6b3000cf857ea,TCN,2024-06-24_13h43.58.264,LearnStrategy,2023.2.3,Win32,59.52380952,6,2,8,,,,,,,,3,14,,,,,,,,,,,3,1.588,1,,,,,,0.113448575,-0.241953648,1,0,0,1.5882,Diorite_rect,7,0,7,0,1,
56baafe430d6b3000cf857ea,TCN,2024-06-24_13h43.58.264,LearnStrategy,2023.2.3,Win32,59.52380952,6,2,9,,,,,,,,5,11,,,,,,,,,,,5,1.257,1,,,,,,-0.368543772,-0.395525141,1,0,0,1.257,Obsidian_rect,8,0,8,0,1,
56baafe430d6b3000cf857ea,TCN,2024-06-24_13h43.58.264,LearnStrategy,2023.2.3,Win32,59.52380952,6,2,10,,,,,,,,8,03,,,,,,,,,,,8,1.218,1,,,,,,0.362308401,-0.386273866,1,0,0,1.2179,Pumice_rect,9,0,9,0,1,
56baafe430d6b3000cf857ea,TCN,2024-06-24_13h43.58.264,LearnStrategy,2023.2.3,Win32,59.52380952,6,2,11,,,,,,,,4,16,,,,,,,,,,,2,4.879,0,,,,,,-0.119683985,-0.239178289,1,0,0,4.8788,Basalt_rect,10,0,10,0,1,
56baafe430d6b3000cf857ea,TCN,2024-06-24_13h43.58.264,LearnStrategy,2023.2.3,Win32,59.52380952,6,2,12,,,,,,,,1,05,,,,,,,,,,,4,8.291,0,,,,,,0.387286864,-0.251205,1,0,0,8.2909,Gabbro_rect,11,0,11,0,1,
56baafe430d6b3000cf857ea,TCN,2024-06-24_13h43.58.264,LearnStrategy,2023.2.3,Win32,59.52380952,6,2,13,,,,,,,,2,10,,,,,,,,,,,2,2.508,1,,,,,,-0.150213244,-0.251205,1,0,0,2.5075,Basalt_rect,12,0,12,0,1,
56baafe430d6b3000cf857ea,TCN,2024-06-24_13h43.58.264,LearnStrategy,2023.2.3,Win32,59.52380952,6,2,14,,,,,,,,7,05,,,,,,,,,,,7,3.975,1,,,,,,0.13287632,-0.39645026,1,0,0,3.9754,Peridotite_rect,13,0,13,0,1,
56baafe430d6b3000cf857ea,TCN,2024-06-24_13h43.58.264,LearnStrategy,2023.2.3,Win32,59.52380952,6,2,15,,,,,,,,4,13,,,,,,,,,,,4,3.907,1,,,,,,0.433543313,-0.257680915,1,0,0,3.9071,Gabbro_rect,14,0,14,0,1,
56baafe430d6b3000cf857ea,TCN,2024-06-24_13h43.58.264,LearnStrategy,2023.2.3,Win32,59.52380952,6,2,16,,,,,,,,6,09,,,,,,,,,,,6,1.776,1,,,,,,-0.137261414,-0.418653365,1,0,0,1.776,Pegmatite_rect,15,0,15,0,1,
56baafe430d6b3000cf857ea,TCN,2024-06-24_13h43.58.264,LearnStrategy,2023.2.3,Win32,59.52380952,7,1,1,0.002433052,0.010606618,1,0,0,0.8141,rock_grid_rect_2,4,01,-1,-1,0.814,0.357682725,-0.243803965,1,0,0,3.968,Gabbro_rect,4,3.968,1,0,0,0,0,1,,,,,,,,,,,,,
56baafe430d6b3000cf857ea,TCN,2024-06-24_13h43.58.264,LearnStrategy,2023.2.3,Win32,59.52380952,7,1,2,-0.007743342,-0.005120571,1,0,0,0.9477,rock_grid_rect_2,1,02,-1,-1,0.948,-0.362067857,-0.239178289,1,0,0,6.1196,Andesite_rect,1,6.12,1,1,0,1,0,1,,,,,,,,,,,,,
56baafe430d6b3000cf857ea,TCN,2024-06-24_13h43.58.264,LearnStrategy,2023.2.3,Win32,59.52380952,7,1,3,0.005208488,0.016157375,1,0,0,0.7802,rock_grid_rect_2,6,10,-1,-1,0.78,-0.11320807,-0.407551851,1,0,0,2.4441,Pegmatite_rect,6,2.444,1,2,0,2,0,1,,,,,,,,,,,,,
56baafe430d6b3000cf857ea,TCN,2024-06-24_13h43.58.264,LearnStrategy,2023.2.3,Win32,59.52380952,7,1,4,0.001507932,-0.010671367,1,0,0,0.7143,rock_grid_rect_2,3,02,-1,-1,0.714,0.102347061,-0.26508195,1,0,0,1.374,Diorite_rect,3,1.374,1,3,0,3,0,1,,,,,,,,,,,,,
56baafe430d6b3000cf857ea,TCN,2024-06-24_13h43.58.264,LearnStrategy,2023.2.3,Win32,59.52380952,7,1,5,0.011684403,0.017082533,1,0,0,0.6821,rock_grid_rect_2,7,16,-1,-1,0.682,0.098646505,-0.387198986,1,0,0,2.5407,Peridotite_rect,7,2.541,1,4,0,4,0,1,,,,,,,,,,,,,
56baafe430d6b3000cf857ea,TCN,2024-06-24_13h43.58.264,LearnStrategy,2023.2.3,Win32,59.52380952,7,1,6,0.030186952,-0.016222123,1,0,0,0.7146,rock_grid_rect_2,1,03,-1,-1,0.715,-0.35836734,-0.262306513,1,0,0,3.2574,Andesite_rect,1,3.257,1,5,0,5,0,1,,,,,,,,,,,,,
56baafe430d6b3000cf857ea,TCN,2024-06-24_13h43.58.264,LearnStrategy,2023.2.3,Win32,59.52380952,7,1,7,0.007058727,-0.011596486,1,0,0,0.7803,rock_grid_rect_2,3,15,-1,-1,0.78,0.106972659,-0.237328049,1,0,0,1.241,Diorite_rect,3,1.241,1,6,0,6,0,1,,,,,,,,,,,,,
56baafe430d6b3000cf857ea,TCN,2024-06-24_13h43.58.264,LearnStrategy,2023.2.3,Win32,59.52380952,7,1,8,0.018160318,0.009681499,1,0,0,0.9308,rock_grid_rect_2,5,09,-1,-1,0.931,-0.34449039,-0.402926175,1,0,0,1.2214,Obsidian_rect,5,1.221,1,7,0,7,0,1,,,,,,,,,,,,,
56baafe430d6b3000cf857ea,TCN,2024-06-24_13h43.58.264,LearnStrategy,2023.2.3,Win32,59.52380952,7,1,9,0.007058727,-0.006970849,1,0,0,0.7484,rock_grid_rect_2,2,05,-1,-1,0.748,-0.1539138,-0.240103409,1,0,0,2.8742,Basalt_rect,2,2.874,1,8,0,8,0,1,,,,,,,,,,,,,
56baafe430d6b3000cf857ea,TCN,2024-06-24_13h43.58.264,LearnStrategy,2023.2.3,Win32,59.52380952,7,1,10,0.003358249,0.005055823,1,0,0,1.0138,rock_grid_rect_2,8,06,-1,-1,1.014,0.354907366,-0.401075936,1,0,0,1.073,Pumice_rect,8,1.073,1,9,0,9,0,1,,,,,,,,,,,,,
56baafe430d6b3000cf857ea,TCN,2024-06-24_13h43.58.264,LearnStrategy,2023.2.3,Win32,59.52380952,7,1,11,0.018160318,0.005980981,1,0,0,0.6659,rock_grid_rect_2,7,13,-1,-1,0.666,0.13287632,-0.386273866,1,0,0,1.1569,Peridotite_rect,7,1.157,1,10,0,10,0,1,,,,,,,,,,,,,
56baafe430d6b3000cf857ea,TCN,2024-06-24_13h43.58.264,LearnStrategy,2023.2.3,Win32,59.52380952,7,1,12,-0.002192547,0.00875634,1,0,0,0.5983,rock_grid_rect_2,4,09,-1,-1,0.598,0.375260154,-0.232702374,1,0,0,3.7154,Gabbro_rect,4,3.715,1,11,0,11,0,1,,,,,,,,,,,,,
56baafe430d6b3000cf857ea,TCN,2024-06-24_13h43.58.264,LearnStrategy,2023.2.3,Win32,59.52380952,7,1,13,0.013534643,0.012456858,1,0,0,1.1136,rock_grid_rect_2,5,12,-1,-1,1.114,-0.365768375,-0.41217745,1,0,0,1.1573,Obsidian_rect,5,1.157,1,12,0,12,0,1,,,,,,,,,,,,,
56baafe430d6b3000cf857ea,TCN,2024-06-24_13h43.58.264,LearnStrategy,2023.2.3,Win32,59.52380952,7,1,14,0.012609523,-0.003270332,1,0,0,0.9481,rock_grid_rect_2,8,13,-1,-1,0.948,0.314201635,-0.388124106,1,0,0,1.1067,Pumice_rect,8,1.107,1,13,0,13,0,1,,,,,,,,,,,,,
56baafe430d6b3000cf857ea,TCN,2024-06-24_13h43.58.264,LearnStrategy,2023.2.3,Win32,59.52380952,7,1,15,-0.015144377,-0.017147282,1,0,0,0.6314,rock_grid_rect_2,2,12,-1,-1,0.631,-0.383345842,-0.243803965,1,0,0,2.4808,Andesite_rect,1,2.481,0,14,0,14,0,1,,,,,,,,,,,,,
56baafe430d6b3000cf857ea,TCN,2024-06-24_13h43.58.264,LearnStrategy,2023.2.3,Win32,59.52380952,7,1,16,0.001507932,-0.011596486,1,0,0,0.8309,rock_grid_rect_2,6,05,-1,-1,0.831,-0.128935259,-0.390899465,1,0,0,1.6192,Pegmatite_rect,6,1.619,1,15,0,15,0,1,,,,,,,,,,,,,
56baafe430d6b3000cf857ea,TCN,2024-06-24_13h43.58.264,LearnStrategy,2023.2.3,Win32,59.52380952,7,2,1,,,,,,,,2,06,,,,,,,,,,,2,1.77,1,,,,,,-0.138186533,-0.238253169,1,0,0,1.7697,Basalt_rect,0,0,0,0,1,
56baafe430d6b3000cf857ea,TCN,2024-06-24_13h43.58.264,LearnStrategy,2023.2.3,Win32,59.52380952,7,2,2,,,,,,,,3,14,,,,,,,,,,,3,1.386,1,,,,,,0.11807425,-0.244729084,1,0,0,1.3859,Diorite_rect,1,0,1,0,1,
56baafe430d6b3000cf857ea,TCN,2024-06-24_13h43.58.264,LearnStrategy,2023.2.3,Win32,59.52380952,7,2,3,,,,,,,,4,16,,,,,,,,,,,4,8.274,1,,,,,,0.328078585,-0.242878845,1,0,0,8.2735,Gabbro_rect,2,0,2,0,1,
56baafe430d6b3000cf857ea,TCN,2024-06-24_13h43.58.264,LearnStrategy,2023.2.3,Win32,59.52380952,7,2,4,,,,,,,,7,08,,,,,,,,,,,7,1.34,1,,,,,,0.130100961,-0.41125233,1,0,0,1.3402,Peridotite_rect,3,0,3,0,1,
56baafe430d6b3000cf857ea,TCN,2024-06-24_13h43.58.264,LearnStrategy,2023.2.3,Win32,59.52380952,7,2,5,,,,,,,,2,11,,,,,,,,,,,2,13.043,1,,,,,,-0.11320807,-0.263231633,1,0,0,13.0425,Basalt_rect,4,0,4,0,1,
56baafe430d6b3000cf857ea,TCN,2024-06-24_13h43.58.264,LearnStrategy,2023.2.3,Win32,59.52380952,7,2,6,,,,,,,,8,08,,,,,,,,,,,8,1.174,1,,,,,,0.386361745,-0.407551851,1,0,0,1.1739,Pumice_rect,5,0,5,0,1,
56baafe430d6b3000cf857ea,TCN,2024-06-24_13h43.58.264,LearnStrategy,2023.2.3,Win32,59.52380952,7,2,7,,,,,,,,1,05,,,,,,,,,,,4,1.387,0,,,,,,0.387286864,-0.238253169,1,0,0,1.3869,Gabbro_rect,6,0,6,0,1,
56baafe430d6b3000cf857ea,TCN,2024-06-24_13h43.58.264,LearnStrategy,2023.2.3,Win32,59.52380952,7,2,8,,,,,,,,4,03,,,,,,,,,,,3,1.723,0,,,,,,0.111598335,-0.258606034,1,0,0,1.7227,Diorite_rect,7,0,7,0,1,
56baafe430d6b3000cf857ea,TCN,2024-06-24_13h43.58.264,LearnStrategy,2023.2.3,Win32,59.52380952,7,2,9,,,,,,,,8,02,,,,,,,,,,,8,1.213,1,,,,,,0.375260154,-0.420503604,1,0,0,1.2128,Pumice_rect,8,0,8,0,1,
56baafe430d6b3000cf857ea,TCN,2024-06-24_13h43.58.264,LearnStrategy,2023.2.3,Win32,59.52380952,7,2,10,,,,,,,,3,11,,,,,,,,,,,3,1.872,1,,,,,,0.124550165,-0.241028528,1,0,0,1.8722,Diorite_rect,9,0,9,0,1,
56baafe430d6b3000cf857ea,TCN,2024-06-24_13h43.58.264,LearnStrategy,2023.2.3,Win32,59.52380952,7,2,11,,,,,,,,5,16,,,,,,,,,,,5,1.891,1,,,,,,-0.381495564,-0.394600021,1,0,0,1.891,Obsidian_rect,10,0,10,0,1,
56baafe430d6b3000cf857ea,TCN,2024-06-24_13h43.58.264,LearnStrategy,2023.2.3,Win32,59.52380952,7,2,12,,,,,,,,1,07,,,,,,,,,,,3,7.121,0,,,,,,0.13380144,-0.264156753,1,0,0,7.1214,Diorite_rect,11,0,11,0,1,
56baafe430d6b3000cf857ea,TCN,2024-06-24_13h43.58.264,LearnStrategy,2023.2.3,Win32,59.52380952,7,2,13,,,,,,,,5,02,,,,,,,,,,,5,1.066,1,,,,,,-0.422201256,-0.390899465,1,0,0,1.0664,Obsidian_rect,12,0,12,0,1,
56baafe430d6b3000cf857ea,TCN,2024-06-24_13h43.58.264,LearnStrategy,2023.2.3,Win32,59.52380952,7,2,14,,,,,,,,7,06,,,,,,,,,,,7,1.222,1,,,,,,0.130100961,-0.402001056,1,0,0,1.2218,Peridotite_rect,13,0,13,0,1,
56baafe430d6b3000cf857ea,TCN,2024-06-24_13h43.58.264,LearnStrategy,2023.2.3,Win32,59.52380952,7,2,15,,,,,,,,6,15,,,,,,,,,,,6,1.273,1,,,,,,-0.143737329,-0.391824662,1,0,0,1.2729,Pegmatite_rect,14,0,14,0,1,
56baafe430d6b3000cf857ea,TCN,2024-06-24_13h43.58.264,LearnStrategy,2023.2.3,Win32,59.52380952,7,2,16,,,,,,,,6,12,,,,,,,,,,,6,1.288,1,,,,,,-0.166865553,-0.39645026,1,0,0,1.2884,Pegmatite_rect,15,0,15,0,1,
56baafe430d6b3000cf857ea,TCN,2024-06-24_13h43.58.264,LearnStrategy,2023.2.3,Win32,59.52380952,8,1,1,-0.007743342,-0.003270332,1,0,0,1.0981,rock_grid_rect_2,3,16,-1,-1,1.098,0.089395231,-0.241028528,1,0,0,1.9862,Diorite_rect,3,1.986,1,0,0,0,0,1,,,,,,,,,,,,,
56baafe430d6b3000cf857ea,TCN,2024-06-24_13h43.58.264,LearnStrategy,2023.2.3,Win32,59.52380952,8,1,2,0.049614697,-0.005120571,1,0,0,0.6974,rock_grid_rect_2,8,09,-1,-1,0.697,0.347506331,-0.391824662,1,0,0,1.1076,Pumice_rect,8,1.108,1,1,0,1,0,1,,,,,,,,,,,,,
56baafe430d6b3000cf857ea,TCN,2024-06-24_13h43.58.264,LearnStrategy,2023.2.3,Win32,59.52380952,8,1,3,0.006133608,-0.004195451,1,0,0,0.8977,rock_grid_rect_2,2,09,-1,-1,0.898,-0.387046359,-0.237328049,1,0,0,1.8748,Andesite_rect,1,1.875,0,2,0,2,0,1,,,,,,,,,,,,,
56baafe430d6b3000cf857ea,TCN,2024-06-24_13h43.58.264,LearnStrategy,2023.2.3,Win32,59.52380952,8,1,4,0.052390056,-0.006970849,1,0,0,0.7314,rock_grid_rect_2,1,04,-1,-1,0.731,0.361383281,-0.245654204,1,0,0,5.6907,Gabbro_rect,4,5.691,0,3,0,3,0,1,,,,,,,,,,,,,
56baafe430d6b3000cf857ea,TCN,2024-06-24_13h43.58.264,LearnStrategy,2023.2.3,Win32,59.52380952,8,1,5,0.015384882,-0.024548317,1,0,0,0.8305,rock_grid_rect_2,2,14,-1,-1,0.831,-0.089154726,-0.239178289,1,0,0,2.3563,Basalt_rect,2,2.356,1,4,0,4,0,1,,,,,,,,,,,,,
56baafe430d6b3000cf857ea,TCN,2024-06-24_13h43.58.264,LearnStrategy,2023.2.3,Win32,59.52380952,8,1,6,0.021860797,-0.003270332,1,0,0,0.8802,rock_grid_rect_2,7,07,-1,-1,0.88,0.128250644,-0.39737538,1,0,0,2.2241,Peridotite_rect,7,2.224,1,5,0,5,0,1,,,,,,,,,,,,,
56baafe430d6b3000cf857ea,TCN,2024-06-24_13h43.58.264,LearnStrategy,2023.2.3,Win32,59.52380952,8,1,7,0.040363423,-0.012521606,1,0,0,0.7972,rock_grid_rect_2,8,15,-1,-1,0.797,0.353982246,-0.390899465,1,0,0,1.4743,Pumice_rect,8,1.474,1,6,0,6,0,1,,,,,,,,,,,,,
56baafe430d6b3000cf857ea,TCN,2024-06-24_13h43.58.264,LearnStrategy,2023.2.3,Win32,59.52380952,8,1,8,0.064416767,0.018007653,1,0,0,0.7316,rock_grid_rect_2,5,05,-1,-1,0.732,-0.380570444,-0.388124106,1,0,0,1.304,Obsidian_rect,5,1.304,1,7,0,7,0,1,,,,,,,,,,,,,
56baafe430d6b3000cf857ea,TCN,2024-06-24_13h43.58.264,LearnStrategy,2023.2.3,Win32,59.52380952,8,1,9,0.068117246,0.006906101,1,0,0,0.7813,rock_grid_rect_2,1,11,-1,-1,0.781,-0.376869927,-0.257680915,1,0,0,2.9411,Andesite_rect,1,2.941,1,8,0,8,0,1,,,,,,,,,,,,,
56baafe430d6b3000cf857ea,TCN,2024-06-24_13h43.58.264,LearnStrategy,2023.2.3,Win32,59.52380952,8,1,10,0.032962388,0.011531738,1,0,0,0.6295,rock_grid_rect_2,6,13,-1,-1,0.63,-0.141887089,-0.399225697,1,0,0,1.8072,Pegmatite_rect,6,1.807,1,9,0,9,0,1,,,,,,,,,,,,,
56baafe430d6b3000cf857ea,TCN,2024-06-24_13h43.58.264,LearnStrategy,2023.2.3,Win32,59.52380952,8,1,11,0.014459762,0.02355841,1,0,0,0.5984,rock_grid_rect_2,5,06,-1,-1,0.598,-0.41665046,-0.378872832,1,0,0,1.0572,Obsidian_rect,5,1.057,1,10,0,10,0,1,,,,,,,,,,,,,
56baafe430d6b3000cf857ea,TCN,2024-06-24_13h43.58.264,LearnStrategy,2023.2.3,Win32,59.52380952,8,1,12,0.017235121,-0.008821089,1,0,0,0.7314,rock_grid_rect_2,6,16,-1,-1,0.731,-0.148363005,-0.38349843,1,0,0,1.4149,Pegmatite_rect,6,1.415,1,11,0,11,0,1,,,,,,,,,,,,,
56baafe430d6b3000cf857ea,TCN,2024-06-24_13h43.58.264,LearnStrategy,2023.2.3,Win32,59.52380952,8,1,13,0.050539817,0.024483568,1,0,0,0.831,rock_grid_rect_2,7,14,-1,-1,0.831,0.13287632,-0.389049225,1,0,0,1.1075,Peridotite_rect,7,1.108,1,12,0,12,0,1,,,,,,,,,,,,,
56baafe430d6b3000cf857ea,TCN,2024-06-24_13h43.58.264,LearnStrategy,2023.2.3,Win32,59.52380952,8,1,14,0.015384882,-0.007895969,1,0,0,1.1479,rock_grid_rect_2,4,11,-1,-1,1.148,-0.35744222,-0.239178289,1,0,0,2.6675,Andesite_rect,1,2.668,0,13,0,13,0,1,,,,,,,,,,,,,
56baafe430d6b3000cf857ea,TCN,2024-06-24_13h43.58.264,LearnStrategy,2023.2.3,Win32,59.52380952,8,1,15,0.008908967,-0.014371884,1,0,0,0.7301,rock_grid_rect_2,4,14,-1,-1,0.73,0.395613019,-0.269707548,1,0,0,4.858,Gabbro_rect,4,4.858,1,14,0,14,0,1,,,,,,,,,,,,,
56baafe430d6b3000cf857ea,TCN,2024-06-24_13h43.58.264,LearnStrategy,2023.2.3,Win32,59.52380952,8,1,16,0.046839261,0.015232255,1,0,0,0.7642,rock_grid_rect_2,3,09,-1,-1,0.764,0.117149131,-0.249354683,1,0,0,1.2419,Diorite_rect,3,1.242,1,15,0,15,0,1,,,,,,,,,,,,,
56baafe430d6b3000cf857ea,TCN,2024-06-24_13h43.58.264,LearnStrategy,2023.2.3,Win32,59.52380952,8,2,1,,,,,,,,4,15,,,,,,,,,,,4,6.077,1,,,,,,0.361383281,-0.249354683,1,0,0,6.0766,Gabbro_rect,0,0,0,0,1,
56baafe430d6b3000cf857ea,TCN,2024-06-24_13h43.58.264,LearnStrategy,2023.2.3,Win32,59.52380952,8,2,2,,,,,,,,3,13,,,,,,,,,,,3,1.729,1,,,,,,0.127325525,-0.242878845,1,0,0,1.7287,Diorite_rect,1,0,1,0,1,
56baafe430d6b3000cf857ea,TCN,2024-06-24_13h43.58.264,LearnStrategy,2023.2.3,Win32,59.52380952,8,2,3,,,,,,,,2,01,,,,,,,,,,,2,3.5,1,,,,,,-0.1261599,-0.23640293,1,0,0,3.4998,Basalt_rect,2,0,2,0,1,
56baafe430d6b3000cf857ea,TCN,2024-06-24_13h43.58.264,LearnStrategy,2023.2.3,Win32,59.52380952,8,2,4,,,,,,,,7,05,,,,,,,,,,,7,1.598,1,,,,,,0.128250644,-0.402001056,1,0,0,1.5978,Peridotite_rect,3,0,3,0,1,
56baafe430d6b3000cf857ea,TCN,2024-06-24_13h43.58.264,LearnStrategy,2023.2.3,Win32,59.52380952,8,2,5,,,,,,,,6,08,,,,,,,,,,,6,1.46,1,,,,,,-0.121534224,-0.389049225,1,0,0,1.4596,Pegmatite_rect,4,0,4,0,1,
56baafe430d6b3000cf857ea,TCN,2024-06-24_13h43.58.264,LearnStrategy,2023.2.3,Win32,59.52380952,8,2,6,,,,,,,,5,10,,,,,,,,,,,5,1.072,1,,,,,,-0.379645325,-0.402926175,1,0,0,1.0725,Obsidian_rect,5,0,5,0,1,
56baafe430d6b3000cf857ea,TCN,2024-06-24_13h43.58.264,LearnStrategy,2023.2.3,Win32,59.52380952,8,2,7,,,,,,,,3,10,,,,,,,,,,,3,2.752,1,,,,,,0.112523455,-0.256755718,1,0,0,2.7522,Diorite_rect,6,0,6,0,1,
56baafe430d6b3000cf857ea,TCN,2024-06-24_13h43.58.264,LearnStrategy,2023.2.3,Win32,59.52380952,8,2,8,,,,,,,,1,14,,,,,,,,,,,6,5.876,0,,,,,,-0.137261414,-0.392749782,1,0,0,5.876,Pegmatite_rect,7,0,7,0,1,
56baafe430d6b3000cf857ea,TCN,2024-06-24_13h43.58.264,LearnStrategy,2023.2.3,Win32,59.52380952,8,2,9,,,,,,,,5,11,,,,,,,,,,,5,1.175,1,,,,,,-0.377795047,-0.419578485,1,0,0,1.1751,Obsidian_rect,8,0,8,0,1,
56baafe430d6b3000cf857ea,TCN,2024-06-24_13h43.58.264,LearnStrategy,2023.2.3,Win32,59.52380952,8,2,10,,,,,,,,2,10,,,,,,,,,,,2,1.559,1,,,,,,-0.114133189,-0.232702374,1,0,0,1.5593,Basalt_rect,9,0,9,0,1,
56baafe430d6b3000cf857ea,TCN,2024-06-24_13h43.58.264,LearnStrategy,2023.2.3,Win32,59.52380952,8,2,11,,,,,,,,8,05,,,,,,,,,,,8,1.273,1,,,,,,0.341955535,-0.39645026,1,0,0,1.2732,Pumice_rect,10,0,10,0,1,
56baafe430d6b3000cf857ea,TCN,2024-06-24_13h43.58.264,LearnStrategy,2023.2.3,Win32,59.52380952,8,2,12,,,,,,,,8,04,,,,,,,,,,,8,1.134,1,,,,,,0.37711047,-0.401075936,1,0,0,1.1337,Pumice_rect,11,0,11,0,1,
56baafe430d6b3000cf857ea,TCN,2024-06-24_13h43.58.264,LearnStrategy,2023.2.3,Win32,59.52380952,8,2,13,,,,,,,,6,03,,,,,,,,,,,6,1.454,1,,,,,,-0.138186533,-0.406626732,1,0,0,1.4535,Pegmatite_rect,12,0,12,0,1,
56baafe430d6b3000cf857ea,TCN,2024-06-24_13h43.58.264,LearnStrategy,2023.2.3,Win32,59.52380952,8,2,14,,,,,,,,1,16,,,,,,,,,,,4,5.338,0,,,,,,0.40671461,-0.243803965,1,0,0,5.3381,Gabbro_rect,13,0,13,0,1,
56baafe430d6b3000cf857ea,TCN,2024-06-24_13h43.58.264,LearnStrategy,2023.2.3,Win32,59.52380952,8,2,15,,,,,,,,4,08,,,,,,,,,,,4,4.64,1,,,,,,0.366933999,-0.243803965,1,0,0,4.6396,Gabbro_rect,14,0,14,0,1,
56baafe430d6b3000cf857ea,TCN,2024-06-24_13h43.58.264,LearnStrategy,2023.2.3,Win32,59.52380952,8,2,16,,,,,,,,7,02,,,,,,,,,,,7,1.145,1,,,,,,0.14767839,-0.389974345,1,0,0,1.1448,Peridotite_rect,15,0,15,0,1,
56baafe430d6b3000cf857ea,TCN,2024-06-24_13h43.58.264,LearnStrategy,2023.2.3,Win32,59.52380952,9,1,1,0.021860797,-0.005120571,1,0,0,0.8314,rock_grid_rect_2,7,04,-1,-1,0.831,0.138427116,-0.399225697,1,0,0,2.1239,Peridotite_rect,7,2.124,1,0,0,0,0,1,,,,,,,,,,,,,
56baafe430d6b3000cf857ea,TCN,2024-06-24_13h43.58.264,LearnStrategy,2023.2.3,Win32,59.52380952,9,1,2,0.033887508,0.005980981,1,0,0,1.0142,rock_grid_rect_2,6,11,-1,-1,1.014,-0.103956795,-0.38349843,1,0,0,1.1112,Pegmatite_rect,6,1.111,1,1,0,1,0,1,,,,,,,,,,,,,
56baafe430d6b3000cf857ea,TCN,2024-06-24_13h43.58.264,LearnStrategy,2023.2.3,Win32,59.52380952,9,1,3,-0.008668462,-0.006970849,1,0,0,0.7981,rock_grid_rect_2,1,06,-1,-1,0.798,-0.347265787,-0.246579324,1,0,0,2.6904,Andesite_rect,1,2.69,1,2,0,2,0,1,,,,,,,,,,,,,
56baafe430d6b3000cf857ea,TCN,2024-06-24_13h43.58.264,LearnStrategy,2023.2.3,Win32,59.52380952,9,1,4,-0.013294138,-0.014371884,1,0,0,1.0473,rock_grid_rect_2,7,15,-1,-1,1.047,0.123625046,-0.403851295,1,0,0,1.5498,Peridotite_rect,7,1.55,1,3,0,3,0,1,,,,,,,,,,,,,
56baafe430d6b3000cf857ea,TCN,2024-06-24_13h43.58.264,LearnStrategy,2023.2.3,Win32,59.52380952,9,1,5,0.067192126,0.009681499,1,0,0,0.6149,rock_grid_rect_2,3,12,-1,-1,0.615,0.111598335,-0.246579324,1,0,0,1.5408,Diorite_rect,3,1.541,1,4,0,4,0,1,,,,,,,,,,,,,
56baafe430d6b3000cf857ea,TCN,2024-06-24_13h43.58.264,LearnStrategy,2023.2.3,Win32,59.52380952,9,1,6,0.029261832,0.018932773,1,0,0,0.548,rock_grid_rect_2,4,05,-1,-1,0.548,0.332704261,-0.232702374,1,0,0,1.8736,Gabbro_rect,4,1.874,1,5,0,5,0,1,,,,,,,,,,,,,
56baafe430d6b3000cf857ea,TCN,2024-06-24_13h43.58.264,LearnStrategy,2023.2.3,Win32,59.52380952,9,1,7,0.025561353,0.013382016,1,0,0,0.5483,rock_grid_rect_2,5,07,-1,-1,0.548,-0.374094529,-0.388124106,1,0,0,1.0392,Obsidian_rect,5,1.039,1,6,0,6,0,1,,,,,,,,,,,,,
56baafe430d6b3000cf857ea,TCN,2024-06-24_13h43.58.264,LearnStrategy,2023.2.3,Win32,59.52380952,9,1,8,-0.021620292,-0.006970849,1,0,0,0.5486,rock_grid_rect_2,4,12,-1,-1,0.549,0.39098742,-0.234552613,1,0,0,3.2395,Gabbro_rect,4,3.24,1,7,0,7,0,1,,,,,,,,,,,,,
56baafe430d6b3000cf857ea,TCN,2024-06-24_13h43.58.264,LearnStrategy,2023.2.3,Win32,59.52380952,9,1,9,0.006133608,0.009681499,1,0,0,0.864,rock_grid_rect_2,1,09,-1,-1,0.864,-0.397222753,-0.26508195,1,0,0,2.258,Andesite_rect,1,2.258,1,8,0,8,0,1,,,,,,,,,,,,,
56baafe430d6b3000cf857ea,TCN,2024-06-24_13h43.58.264,LearnStrategy,2023.2.3,Win32,59.52380952,9,1,10,0.044063902,-0.013446764,1,0,0,0.9144,rock_grid_rect_2,2,08,-1,-1,0.914,-0.108582394,-0.260456274,1,0,0,1.8723,Basalt_rect,2,1.872,1,9,0,9,0,1,,,,,,,,,,,,,
56baafe430d6b3000cf857ea,TCN,2024-06-24_13h43.58.264,LearnStrategy,2023.2.3,Win32,59.52380952,9,1,11,-0.013294138,-0.010671367,1,0,0,0.8814,rock_grid_rect_2,5,14,-1,-1,0.881,-0.319511887,-0.408476971,1,0,0,1.6251,Obsidian_rect,5,1.625,1,10,0,10,0,1,,,,,,,,,,,,,
56baafe430d6b3000cf857ea,TCN,2024-06-24_13h43.58.264,LearnStrategy,2023.2.3,Win32,59.52380952,9,1,12,0.020010558,-0.002345212,1,0,0,0.8974,rock_grid_rect_2,8,14,-1,-1,0.897,0.409490046,-0.414952886,1,0,0,1.0798,Pumice_rect,8,1.08,1,11,0,11,0,1,,,,,,,,,,,,,
56baafe430d6b3000cf857ea,TCN,2024-06-24_13h43.58.264,LearnStrategy,2023.2.3,Win32,59.52380952,9,1,13,0.007058727,-0.024548317,1,0,0,0.9317,rock_grid_rect_2,6,06,-1,-1,0.932,-0.102106556,-0.392749782,1,0,0,6.4329,Pegmatite_rect,6,6.433,1,12,0,12,0,1,,,,,,,,,,,,,
56baafe430d6b3000cf857ea,TCN,2024-06-24_13h43.58.264,LearnStrategy,2023.2.3,Win32,59.52380952,9,1,14,-0.004042786,-0.019922641,1,0,0,0.6146,rock_grid_rect_2,3,06,-1,-1,0.615,0.114373694,-0.247504443,1,0,0,2.3121,Diorite_rect,3,2.312,1,13,0,13,0,1,,,,,,,,,,,,,
56baafe430d6b3000cf857ea,TCN,2024-06-24_13h43.58.264,LearnStrategy,2023.2.3,Win32,59.52380952,9,1,15,-0.012369018,-0.011596486,1,0,0,0.5979,rock_grid_rect_2,8,16,-1,-1,0.598,0.403939173,-0.419578485,1,0,0,1.8074,Pumice_rect,8,1.807,1,14,0,14,0,1,,,,,,,,,,,,,
56baafe430d6b3000cf857ea,TCN,2024-06-24_13h43.58.264,LearnStrategy,2023.2.3,Win32,59.52380952,9,1,16,-0.030871567,0.020783051,1,0,0,0.5642,rock_grid_rect_2,2,04,-1,-1,0.564,-0.137261414,-0.253980359,1,0,0,1.1591,Basalt_rect,2,1.159,1,15,0,15,0,1,,,,,,,,,,,,,
56baafe430d6b3000cf857ea,TCN,2024-06-24_13h43.58.264,LearnStrategy,2023.2.3,Win32,59.52380952,9,2,1,,,,,,,,7,12,,,,,,,,,,,7,1.603,1,,,,,,0.110673215,-0.3983005,1,0,0,1.6027,Peridotite_rect,0,0,0,0,1,
56baafe430d6b3000cf857ea,TCN,2024-06-24_13h43.58.264,LearnStrategy,2023.2.3,Win32,59.52380952,9,2,2,,,,,,,,6,07,,,,,,,,,,,6,1.334,1,,,,,,-0.131710696,-0.390899465,1,0,0,1.3344,Pegmatite_rect,1,0,1,0,1,
56baafe430d6b3000cf857ea,TCN,2024-06-24_13h43.58.264,LearnStrategy,2023.2.3,Win32,59.52380952,9,2,3,,,,,,,,7,10,,,,,,,,,,,7,1.94,1,,,,,,0.10512242,-0.388124106,1,0,0,1.94,Peridotite_rect,2,0,2,0,1,
56baafe430d6b3000cf857ea,TCN,2024-06-24_13h43.58.264,LearnStrategy,2023.2.3,Win32,59.52380952,9,2,4,,,,,,,,3,08,,,,,,,,,,,3,1.189,1,,,,,,0.112523455,-0.239178289,1,0,0,1.1888,Diorite_rect,3,0,3,0,1,
56baafe430d6b3000cf857ea,TCN,2024-06-24_13h43.58.264,LearnStrategy,2023.2.3,Win32,59.52380952,9,2,5,,,,,,,,6,09,,,,,,,,,,,6,1.408,1,,,,,,-0.128935259,-0.39737538,1,0,0,1.4078,Pegmatite_rect,4,0,4,0,1,
56baafe430d6b3000cf857ea,TCN,2024-06-24_13h43.58.264,LearnStrategy,2023.2.3,Win32,59.52380952,9,2,6,,,,,,,,2,16,,,,,,,,,,,2,1.691,1,,,,,,-0.145587568,-0.253980359,1,0,0,1.6907,Basalt_rect,5,0,5,0,1,
56baafe430d6b3000cf857ea,TCN,2024-06-24_13h43.58.264,LearnStrategy,2023.2.3,Win32,59.52380952,9,2,7,,,,,,,,8,03,,,,,,,,,,,8,1.279,1,,,,,,0.320677551,-0.406626732,1,0,0,1.2785,Pumice_rect,6,0,6,0,1,
56baafe430d6b3000cf857ea,TCN,2024-06-24_13h43.58.264,LearnStrategy,2023.2.3,Win32,59.52380952,9,2,8,,,,,,,,4,13,,,,,,,,,,,4,1.579,1,,,,,,0.36323352,-0.23640293,1,0,0,1.579,Gabbro_rect,7,0,7,0,1,
56baafe430d6b3000cf857ea,TCN,2024-06-24_13h43.58.264,LearnStrategy,2023.2.3,Win32,59.52380952,9,2,9,,,,,,,,8,10,,,,,,,,,,,8,1.357,1,,,,,,0.330853944,-0.39645026,1,0,0,1.3571,Pumice_rect,8,0,8,0,1,
56baafe430d6b3000cf857ea,TCN,2024-06-24_13h43.58.264,LearnStrategy,2023.2.3,Win32,59.52380952,9,2,10,,,,,,,,5,08,,,,,,,,,,,5,1.184,1,,,,,,-0.355591942,-0.417728245,1,0,0,1.1835,Obsidian_rect,9,0,9,0,1,
56baafe430d6b3000cf857ea,TCN,2024-06-24_13h43.58.264,LearnStrategy,2023.2.3,Win32,59.52380952,9,2,11,,,,,,,,5,04,,,,,,,,,,,5,1.142,1,,,,,,-0.384270962,-0.38257331,1,0,0,1.1419,Obsidian_rect,10,0,10,0,1,
56baafe430d6b3000cf857ea,TCN,2024-06-24_13h43.58.264,LearnStrategy,2023.2.3,Win32,59.52380952,9,2,12,,,,,,,,1,10,,,,,,,,,,,1,2.543,1,,,,,,-0.34356527,-0.231777254,1,0,0,2.5433,Andesite_rect,11,0,11,0,1,
56baafe430d6b3000cf857ea,TCN,2024-06-24_13h43.58.264,LearnStrategy,2023.2.3,Win32,59.52380952,9,2,13,,,,,,,,2,02,,,,,,,,,,,1,4.209,0,,,,,,-0.374094529,-0.240103409,1,0,0,4.2089,Andesite_rect,12,0,12,0,1,
56baafe430d6b3000cf857ea,TCN,2024-06-24_13h43.58.264,LearnStrategy,2023.2.3,Win32,59.52380952,9,2,14,,,,,,,,1,01,,,,,,,,,,,4,4.657,0,,,,,,0.36508376,-0.248429563,1,0,0,4.6568,Gabbro_rect,13,0,13,0,1,
56baafe430d6b3000cf857ea,TCN,2024-06-24_13h43.58.264,LearnStrategy,2023.2.3,Win32,59.52380952,9,2,15,,,,,,,,4,10,,,,,,,,,,,4,4.494,1,,,,,,0.46222241,-0.25027988,1,0,0,4.494,Gabbro_rect,14,0,14,0,1,
56baafe430d6b3000cf857ea,TCN,2024-06-24_13h43.58.264,LearnStrategy,2023.2.3,Win32,59.52380952,9,2,16,,,,,,,,3,07,,,,,,,,,,,3,1.364,1,,,,,,0.130100961,-0.245654204,1,0,0,1.3641,Diorite_rect,15,0,15,0,1,
56baafe430d6b3000cf857ea,TCN,2024-06-24_13h43.58.264,LearnStrategy,2023.2.3,Win32,59.52380952,,,,,,,,,,,,,,,,,,,,,,,,,,,,,,,,,,,,,,,,,,,1
56baafe430d6b3000cf857ea,TCN,2024-06-24_13h43.58.264,LearnStrategy,2023.2.3,Win32,59.52380952,,,,,,,,,,,,,,,,,,,,,,,,,,,,,,,,,,,,,,,,,,,
56baafe430d6b3000cf857ea,TCN,2024-06-24_13h43.58.264,LearnStrategy,2023.2.3,Win32,59.52380952,,,,,,,,,,,2,08,1,1,,,,,,,,,,,,,,,,,,,,,,,,,,,,,
56baafe430d6b3000cf857ea,TCN,2024-06-24_13h43.58.264,LearnStrategy,2023.2.3,Win32,59.52380952,,,,,,,,,,,6,16,1,2,,,,,,,,,,,,,,,,,,,,,,,,,,,,,
56baafe430d6b3000cf857ea,TCN,2024-06-24_13h43.58.264,LearnStrategy,2023.2.3,Win32,59.52380952,,,,,,,,,,,4,01,1,3,,,,,,,,,,,,,,,,,,,,,,,,,,,,,
56baafe430d6b3000cf857ea,TCN,2024-06-24_13h43.58.264,LearnStrategy,2023.2.3,Win32,59.52380952,,,,,,,,,,,3,15,1,4,,,,,,,,,,,,,,,,,,,,,,,,,,,,,
56baafe430d6b3000cf857ea,TCN,2024-06-24_13h43.58.264,LearnStrategy,2023.2.3,Win32,59.52380952,,,,,,,,,,,8,14,1,5,,,,,,,,,,,,,,,,,,,,,,,,,,,,,
56baafe430d6b3000cf857ea,TCN,2024-06-24_13h43.58.264,LearnStrategy,2023.2.3,Win32,59.52380952,,,,,,,,,,,7,15,1,6,,,,,,,,,,,,,,,,,,,,,,,,,,,,,
56baafe430d6b3000cf857ea,TCN,2024-06-24_13h43.58.264,LearnStrategy,2023.2.3,Win32,59.52380952,,,,,,,,,,,5,14,1,7,,,,,,,,,,,,,,,,,,,,,,,,,,,,,
56baafe430d6b3000cf857ea,TCN,2024-06-24_13h43.58.264,LearnStrategy,2023.2.3,Win32,59.52380952,,,,,,,,,,,1,06,1,8,,,,,,,,,,,,,,,,,,,,,,,,,,,,,
56baafe430d6b3000cf857ea,TCN,2024-06-24_13h43.58.264,LearnStrategy,2023.2.3,Win32,59.52380952,,,,,,,,,,,2,04,2,1,,,,,,,,,,,,,,,,,,,,,,,,,,,,,
56baafe430d6b3000cf857ea,TCN,2024-06-24_13h43.58.264,LearnStrategy,2023.2.3,Win32,59.52380952,,,,,,,,,,,2,09,2,2,,,,,,,,,,,,,,,,,,,,,,,,,,,,,
56baafe430d6b3000cf857ea,TCN,2024-06-24_13h43.58.264,LearnStrategy,2023.2.3,Win32,59.52380952,,,,,,,,,,,3,09,2,3,,,,,,,,,,,,,,,,,,,,,,,,,,,,,
56baafe430d6b3000cf857ea,TCN,2024-06-24_13h43.58.264,LearnStrategy,2023.2.3,Win32,59.52380952,,,,,,,,,,,6,06,2,4,,,,,,,,,,,,,,,,,,,,,,,,,,,,,
56baafe430d6b3000cf857ea,TCN,2024-06-24_13h43.58.264,LearnStrategy,2023.2.3,Win32,59.52380952,,,,,,,,,,,1,02,2,5,,,,,,,,,,,,,,,,,,,,,,,,,,,,,
56baafe430d6b3000cf857ea,TCN,2024-06-24_13h43.58.264,LearnStrategy,2023.2.3,Win32,59.52380952,,,,,,,,,,,5,05,2,6,,,,,,,,,,,,,,,,,,,,,,,,,,,,,
56baafe430d6b3000cf857ea,TCN,2024-06-24_13h43.58.264,LearnStrategy,2023.2.3,Win32,59.52380952,,,,,,,,,,,6,10,2,7,,,,,,,,,,,,,,,,,,,,,,,,,,,,,
56baafe430d6b3000cf857ea,TCN,2024-06-24_13h43.58.264,LearnStrategy,2023.2.3,Win32,59.52380952,,,,,,,,,,,4,12,2,8,,,,,,,,,,,,,,,,,,,,,,,,,,,,,
56baafe430d6b3000cf857ea,TCN,2024-06-24_13h43.58.264,LearnStrategy,2023.2.3,Win32,59.52380952,,,,,,,,,,,7,04,3,1,,,,,,,,,,,,,,,,,,,,,,,,,,,,,
56baafe430d6b3000cf857ea,TCN,2024-06-24_13h43.58.264,LearnStrategy,2023.2.3,Win32,59.52380952,,,,,,,,,,,2,14,3,2,,,,,,,,,,,,,,,,,,,,,,,,,,,,,
56baafe430d6b3000cf857ea,TCN,2024-06-24_13h43.58.264,LearnStrategy,2023.2.3,Win32,59.52380952,,,,,,,,,,,2,12,3,3,,,,,,,,,,,,,,,,,,,,,,,,,,,,,
56baafe430d6b3000cf857ea,TCN,2024-06-24_13h43.58.264,LearnStrategy,2023.2.3,Win32,59.52380952,,,,,,,,,,,4,14,3,4,,,,,,,,,,,,,,,,,,,,,,,,,,,,,
56baafe430d6b3000cf857ea,TCN,2024-06-24_13h43.58.264,LearnStrategy,2023.2.3,Win32,59.52380952,,,,,,,,,,,3,16,3,5,,,,,,,,,,,,,,,,,,,,,,,,,,,,,
56baafe430d6b3000cf857ea,TCN,2024-06-24_13h43.58.264,LearnStrategy,2023.2.3,Win32,59.52380952,,,,,,,,,,,4,11,3,6,,,,,,,,,,,,,,,,,,,,,,,,,,,,,
56baafe430d6b3000cf857ea,TCN,2024-06-24_13h43.58.264,LearnStrategy,2023.2.3,Win32,59.52380952,,,,,,,,,,,7,16,3,7,,,,,,,,,,,,,,,,,,,,,,,,,,,,,
56baafe430d6b3000cf857ea,TCN,2024-06-24_13h43.58.264,LearnStrategy,2023.2.3,Win32,59.52380952,,,,,,,,,,,6,05,3,8,,,,,,,,,,,,,,,,,,,,,,,,,,,,,
56baafe430d6b3000cf857ea,TCN,2024-06-24_13h43.58.264,LearnStrategy,2023.2.3,Win32,59.52380952,,,,,,,,,,,6,13,4,1,,,,,,,,,,,,,,,,,,,,,,,,,,,,,
56baafe430d6b3000cf857ea,TCN,2024-06-24_13h43.58.264,LearnStrategy,2023.2.3,Win32,59.52380952,,,,,,,,,,,8,16,4,2,,,,,,,,,,,,,,,,,,,,,,,,,,,,,
56baafe430d6b3000cf857ea,TCN,2024-06-24_13h43.58.264,LearnStrategy,2023.2.3,Win32,59.52380952,,,,,,,,,,,8,06,4,3,,,,,,,,,,,,,,,,,,,,,,,,,,,,,
56baafe430d6b3000cf857ea,TCN,2024-06-24_13h43.58.264,LearnStrategy,2023.2.3,Win32,59.52380952,,,,,,,,,,,4,09,4,4,,,,,,,,,,,,,,,,,,,,,,,,,,,,,
56baafe430d6b3000cf857ea,TCN,2024-06-24_13h43.58.264,LearnStrategy,2023.2.3,Win32,59.52380952,,,,,,,,,,,5,12,4,5,,,,,,,,,,,,,,,,,,,,,,,,,,,,,
56baafe430d6b3000cf857ea,TCN,2024-06-24_13h43.58.264,LearnStrategy,2023.2.3,Win32,59.52380952,,,,,,,,,,,3,02,4,6,,,,,,,,,,,,,,,,,,,,,,,,,,,,,
56baafe430d6b3000cf857ea,TCN,2024-06-24_13h43.58.264,LearnStrategy,2023.2.3,Win32,59.52380952,,,,,,,,,,,7,07,4,7,,,,,,,,,,,,,,,,,,,,,,,,,,,,,
56baafe430d6b3000cf857ea,TCN,2024-06-24_13h43.58.264,LearnStrategy,2023.2.3,Win32,59.52380952,,,,,,,,,,,8,13,4,8,,,,,,,,,,,,,,,,,,,,,,,,,,,,,
56baafe430d6b3000cf857ea,TCN,2024-06-24_13h43.58.264,LearnStrategy,2023.2.3,Win32,59.52380952,,,,,,,,,,,5,06,5,1,,,,,,,,,,,,,,,,,,,,,,,,,,,,,
56baafe430d6b3000cf857ea,TCN,2024-06-24_13h43.58.264,LearnStrategy,2023.2.3,Win32,59.52380952,,,,,,,,,,,5,09,5,2,,,,,,,,,,,,,,,,,,,,,,,,,,,,,
56baafe430d6b3000cf857ea,TCN,2024-06-24_13h43.58.264,LearnStrategy,2023.2.3,Win32,59.52380952,,,,,,,,,,,6,11,5,3,,,,,,,,,,,,,,,,,,,,,,,,,,,,,
56baafe430d6b3000cf857ea,TCN,2024-06-24_13h43.58.264,LearnStrategy,2023.2.3,Win32,59.52380952,,,,,,,,,,,1,11,5,4,,,,,,,,,,,,,,,,,,,,,,,,,,,,,
56baafe430d6b3000cf857ea,TCN,2024-06-24_13h43.58.264,LearnStrategy,2023.2.3,Win32,59.52380952,,,,,,,,,,,7,13,5,5,,,,,,,,,,,,,,,,,,,,,,,,,,,,,
56baafe430d6b3000cf857ea,TCN,2024-06-24_13h43.58.264,LearnStrategy,2023.2.3,Win32,59.52380952,,,,,,,,,,,4,05,5,6,,,,,,,,,,,,,,,,,,,,,,,,,,,,,
56baafe430d6b3000cf857ea,TCN,2024-06-24_13h43.58.264,LearnStrategy,2023.2.3,Win32,59.52380952,,,,,,,,,,,3,06,5,7,,,,,,,,,,,,,,,,,,,,,,,,,,,,,
56baafe430d6b3000cf857ea,TCN,2024-06-24_13h43.58.264,LearnStrategy,2023.2.3,Win32,59.52380952,,,,,,,,,,,1,09,5,8,,,,,,,,,,,,,,,,,,,,,,,,,,,,,
56baafe430d6b3000cf857ea,TCN,2024-06-24_13h43.58.264,LearnStrategy,2023.2.3,Win32,59.52380952,,,,,,,,,,,7,14,6,1,,,,,,,,,,,,,,,,,,,,,,,,,,,,,
56baafe430d6b3000cf857ea,TCN,2024-06-24_13h43.58.264,LearnStrategy,2023.2.3,Win32,59.52380952,,,,,,,,,,,8,15,6,2,,,,,,,,,,,,,,,,,,,,,,,,,,,,,
56baafe430d6b3000cf857ea,TCN,2024-06-24_13h43.58.264,LearnStrategy,2023.2.3,Win32,59.52380952,,,,,,,,,,,2,05,6,3,,,,,,,,,,,,,,,,,,,,,,,,,,,,,
56baafe430d6b3000cf857ea,TCN,2024-06-24_13h43.58.264,LearnStrategy,2023.2.3,Win32,59.52380952,,,,,,,,,,,3,12,6,4,,,,,,,,,,,,,,,,,,,,,,,,,,,,,
56baafe430d6b3000cf857ea,TCN,2024-06-24_13h43.58.264,LearnStrategy,2023.2.3,Win32,59.52380952,,,,,,,,,,,1,04,6,5,,,,,,,,,,,,,,,,,,,,,,,,,,,,,
56baafe430d6b3000cf857ea,TCN,2024-06-24_13h43.58.264,LearnStrategy,2023.2.3,Win32,59.52380952,,,,,,,,,,,5,07,6,6,,,,,,,,,,,,,,,,,,,,,,,,,,,,,
56baafe430d6b3000cf857ea,TCN,2024-06-24_13h43.58.264,LearnStrategy,2023.2.3,Win32,59.52380952,,,,,,,,,,,8,09,6,7,,,,,,,,,,,,,,,,,,,,,,,,,,,,,
56baafe430d6b3000cf857ea,TCN,2024-06-24_13h43.58.264,LearnStrategy,2023.2.3,Win32,59.52380952,,,,,,,,,,,1,03,6,8,,,,,,,,,,,,,,,,,,,,,,,,,,,,,