participant,condition,date,expName,psychopyVersion,OS,frameRate,block,phase,trial,learn_mouse_2.x,learn_mouse_2.y,learn_mouse_2.leftButton,learn_mouse_2.midButton,learn_mouse_2.rightButton,learn_mouse_2.time,learn_mouse_2.clicked_name,cat,token,row,col,t_select,cat_mouse_l.x,cat_mouse_l.y,cat_mouse_l.leftButton,cat_mouse_l.midButton,cat_mouse_l.rightButton,cat_mouse_l.time,cat_mouse_l.clicked_name,resp,t_resp,corr,train_trials.thisRepN,train_trials.thisTrialN,train_trials.thisN,train_trials.thisIndex,train_trials.ran,cat_mouse_t.x,cat_mouse_t.y,cat_mouse_t.leftButton,cat_mouse_t.midButton,cat_mouse_t.rightButton,cat_mouse_t.time,cat_mouse_t.clicked_name,test_trials.thisRepN,test_trials.thisTrialN,test_trials.thisN,test_trials.thisIndex,test_trials.ran,Bonus
56bd7bf3d4e2180005a86846,TCR,2024-06-24_14h43.33.343,LearnStrategy,2023.2.3,Win32,60.24096386,,,,,,,,,,,,,,,,,,,,,,,,,,,,,,,,,,,,,,,,,,,
56bd7bf3d4e2180005a86846,TCR,2024-06-24_14h43.33.343,LearnStrategy,2023.2.3,Win32,60.24096386,1,1,1,0.022658149,-0.008610797,1,0,0,1.8768,rock_grid_rect_2,6,16,-1,-1,1.877,-0.104032119,-0.416424155,1,0,0,4.4076,Pegmatite_rect,6,4.408,1,0,0,0,0,1,,,,,,,,,,,,,
56bd7bf3d4e2180005a86846,TCR,2024-06-24_14h43.33.343,LearnStrategy,2023.2.3,Win32,60.24096386,1,1,2,-0.079988785,-0.018783016,1,0,0,2.2154,rock_grid_rect_2,6,15,-1,-1,2.215,-0.379606725,-0.25736769,1,0,0,3.2317,Andesite_rect,1,3.232,0,1,0,1,0,1,,,,,,,,,,,,,
56bd7bf3d4e2180005a86846,TCR,2024-06-24_14h43.33.343,LearnStrategy,2023.2.3,Win32,60.24096386,1,1,3,0.043002587,-0.016008775,1,0,0,8.724,rock_grid_rect_2,1,14,-1,-1,8.724,0.134552555,-0.391455982,1,0,0,4.225,Peridotite_rect,7,4.225,0,2,0,2,0,1,,,,,,,,,,,,,
56bd7bf3d4e2180005a86846,TCR,2024-06-24_14h43.33.343,LearnStrategy,2023.2.3,Win32,60.24096386,1,1,4,0.089239945,-0.022482005,1,0,0,2.4957,rock_grid_rect_2,2,12,-1,-1,2.496,0.365739252,-0.269389403,1,0,0,1.8651,Gabbro_rect,4,1.865,0,3,0,3,0,1,,,,,,,,,,,,,
56bd7bf3d4e2180005a86846,TCR,2024-06-24_14h43.33.343,LearnStrategy,2023.2.3,Win32,60.24096386,1,1,5,-0.086462015,0.006185157,1,0,0,1.9248,rock_grid_rect_2,7,06,-1,-1,1.925,0.391632172,-0.409950925,1,0,0,3.7894,Pumice_rect,8,3.789,0,4,0,4,0,1,,,,,,,,,,,,,
56bd7bf3d4e2180005a86846,TCR,2024-06-24_14h43.33.343,LearnStrategy,2023.2.3,Win32,60.24096386,1,1,6,-0.030977094,0.002486168,1,0,0,11.5867,rock_grid_rect_2,5,06,-1,-1,11.587,-0.104956866,-0.25736769,1,0,0,1.2114,Basalt_rect,2,1.211,0,5,0,5,0,1,,,,,,,,,,,,,
56bd7bf3d4e2180005a86846,TCR,2024-06-24_14h43.33.343,LearnStrategy,2023.2.3,Win32,60.24096386,1,1,7,-0.087386762,-0.022482005,1,0,0,1.1865,rock_grid_rect_2,8,10,-1,-1,1.186,-0.155818006,-0.24442123,1,0,0,1.1658,Basalt_rect,2,1.166,0,6,0,6,0,1,,,,,,,,,,,,,
56bd7bf3d4e2180005a86846,TCR,2024-06-24_14h43.33.343,LearnStrategy,2023.2.3,Win32,60.24096386,1,1,8,0.063347024,-0.008610797,1,0,0,1.5958,rock_grid_rect_2,4,10,-1,-1,1.596,0.456364473,-0.25736769,1,0,0,1.0837,Gabbro_rect,4,1.084,1,7,0,7,0,1,,,,,,,,,,,,,
56bd7bf3d4e2180005a86846,TCR,2024-06-24_14h43.33.343,LearnStrategy,2023.2.3,Win32,60.24096386,1,1,9,-0.038375071,0.009884146,1,0,0,1.7191,rock_grid_rect_2,1,02,-1,-1,1.719,0.056873794,-0.389606487,1,0,0,2.7941,Peridotite_rect,7,2.794,0,8,0,8,0,1,,,,,,,,,,,,,
56bd7bf3d4e2180005a86846,TCR,2024-06-24_14h43.33.343,LearnStrategy,2023.2.3,Win32,60.24096386,1,1,10,0.057798541,-0.003987062,1,0,0,5.6569,rock_grid_rect_2,3,02,-1,-1,5.657,-0.342616793,-0.248120219,1,0,0,1.7614,Andesite_rect,1,1.761,0,9,0,9,0,1,,,,,,,,,,,,,
56bd7bf3d4e2180005a86846,TCR,2024-06-24_14h43.33.343,LearnStrategy,2023.2.3,Win32,60.24096386,1,1,11,0.151198004,-0.015084028,1,0,0,1.5449,rock_grid_rect_2,2,06,-1,-1,1.545,0.370362988,-0.416424155,1,0,0,1.7742,Pumice_rect,8,1.774,0,10,0,10,0,1,,,,,,,,,,,,,
56bd7bf3d4e2180005a86846,TCR,2024-06-24_14h43.33.343,LearnStrategy,2023.2.3,Win32,60.24096386,1,1,12,-0.023579209,-0.010460292,1,0,0,1.5288,rock_grid_rect_2,5,11,-1,-1,1.529,0.116057612,-0.40810143,1,0,0,3.5532,Peridotite_rect,7,3.553,0,11,0,11,0,1,,,,,,,,,,,,,
56bd7bf3d4e2180005a86846,TCR,2024-06-24_14h43.33.343,LearnStrategy,2023.2.3,Win32,60.24096386,1,1,13,0.063347024,-0.00121282,1,0,0,0.7544,rock_grid_rect_2,8,06,-1,-1,0.754,0.379610459,-0.261991426,1,0,0,0.808,Gabbro_rect,4,0.808,0,12,0,12,0,1,,,,,,,,,,,,,
56bd7bf3d4e2180005a86846,TCR,2024-06-24_14h43.33.343,LearnStrategy,2023.2.3,Win32,60.24096386,1,1,14,-0.028202944,-0.000288073,1,0,0,0.8786,rock_grid_rect_2,3,08,-1,-1,0.879,-0.178011845,-0.378509521,1,0,0,1.0664,Pegmatite_rect,6,1.066,0,13,0,13,0,1,,,,,,,,,,,,,
56bd7bf3d4e2180005a86846,TCR,2024-06-24_14h43.33.343,LearnStrategy,2023.2.3,Win32,60.24096386,1,1,15,-0.063343336,0.000636674,1,0,0,0.7918,rock_grid_rect_2,7,14,-1,-1,0.792,-0.434166807,-0.407176683,1,0,0,0.9055,Obsidian_rect,5,0.905,0,14,0,14,0,1,,,,,,,,,,,,,
56bd7bf3d4e2180005a86846,TCR,2024-06-24_14h43.33.343,LearnStrategy,2023.2.3,Win32,60.24096386,1,1,16,0.043927334,-0.012309786,1,0,0,1.0974,rock_grid_rect_2,4,15,-1,-1,1.097,0.071669749,-0.237948,1,0,0,0.6151,Diorite_rect,3,0.615,0,15,0,15,0,1,,,,,,,,,,,,,
56bd7bf3d4e2180005a86846,TCR,2024-06-24_14h43.33.343,LearnStrategy,2023.2.3,Win32,60.24096386,1,2,1,,,,,,,,6,09,,,,,,,,,,,2,7.07,0,,,,,,-0.149344776,-0.241646989,1,0,0,7.0698,Basalt_rect,0,0,0,0,1,
56bd7bf3d4e2180005a86846,TCR,2024-06-24_14h43.33.343,LearnStrategy,2023.2.3,Win32,60.24096386,1,2,2,,,,,,,,2,04,,,,,,,,,,,8,1.298,0,,,,,,0.327824619,-0.39515497,1,0,0,1.2976,Pumice_rect,1,0,1,0,1,
56bd7bf3d4e2180005a86846,TCR,2024-06-24_14h43.33.343,LearnStrategy,2023.2.3,Win32,60.24096386,1,2,3,,,,,,,,3,11,,,,,,,,,,,5,2.129,0,,,,,,-0.417521359,-0.417348902,1,0,0,2.1286,Obsidian_rect,2,0,2,0,1,
56bd7bf3d4e2180005a86846,TCR,2024-06-24_14h43.33.343,LearnStrategy,2023.2.3,Win32,60.24096386,1,2,4,,,,,,,,8,03,,,,,,,,,,,4,2.01,0,,,,,,0.434170541,-0.237023253,1,0,0,2.0097,Gabbro_rect,3,0,3,0,1,
56bd7bf3d4e2180005a86846,TCR,2024-06-24_14h43.33.343,LearnStrategy,2023.2.3,Win32,60.24096386,1,2,5,,,,,,,,5,14,,,,,,,,,,,6,2.079,0,,,,,,-0.195582041,-0.392380729,1,0,0,2.0791,Pegmatite_rect,4,0,4,0,1,
56bd7bf3d4e2180005a86846,TCR,2024-06-24_14h43.33.343,LearnStrategy,2023.2.3,Win32,60.24096386,1,2,6,,,,,,,,1,10,,,,,,,,,,,2,3.607,0,,,,,,-0.118828119,-0.271238898,1,0,0,3.6073,Basalt_rect,5,0,5,0,1,
56bd7bf3d4e2180005a86846,TCR,2024-06-24_14h43.33.343,LearnStrategy,2023.2.3,Win32,60.24096386,1,2,7,,,,,,,,5,12,,,,,,,,,,,7,2.246,0,,,,,,0.104035899,-0.420123143,1,0,0,2.2458,Peridotite_rect,6,0,6,0,1,
56bd7bf3d4e2180005a86846,TCR,2024-06-24_14h43.33.343,LearnStrategy,2023.2.3,Win32,60.24096386,1,2,8,,,,,,,,4,05,,,,,,,,,,,4,0.896,1,,,,,,0.387933184,-0.241646989,1,0,0,0.8957,Gabbro_rect,7,0,7,0,1,
56bd7bf3d4e2180005a86846,TCR,2024-06-24_14h43.33.343,LearnStrategy,2023.2.3,Win32,60.24096386,1,2,9,,,,,,,,6,07,,,,,,,,,,,1,1.273,0,,,,,,-0.361111782,-0.238872747,1,0,0,1.2727,Andesite_rect,8,0,8,0,1,
56bd7bf3d4e2180005a86846,TCR,2024-06-24_14h43.33.343,LearnStrategy,2023.2.3,Win32,60.24096386,1,2,10,,,,,,,,7,07,,,,,,,,,,,7,0.704,1,,,,,,0.139176291,-0.392380729,1,0,0,0.7039,Peridotite_rect,9,0,9,0,1,
56bd7bf3d4e2180005a86846,TCR,2024-06-24_14h43.33.343,LearnStrategy,2023.2.3,Win32,60.24096386,1,2,11,,,,,,,,3,09,,,,,,,,,,,8,0.707,0,,,,,,0.495203854,-0.379434269,1,0,0,0.7069,Pumice_rect,10,0,10,0,1,
56bd7bf3d4e2180005a86846,TCR,2024-06-24_14h43.33.343,LearnStrategy,2023.2.3,Win32,60.24096386,1,2,12,,,,,,,,4,12,,,,,,,,,,,2,0.426,0,,,,,,-0.067042325,-0.27031415,1,0,0,0.4261,Basalt_rect,11,0,11,0,1,
56bd7bf3d4e2180005a86846,TCR,2024-06-24_14h43.33.343,LearnStrategy,2023.2.3,Win32,60.24096386,1,2,13,,,,,,,,8,09,,,,,,,,,,,2,1.975,0,,,,,,-0.067042325,-0.27031415,1,0,0,1.9747,Basalt_rect,12,0,12,0,1,
56bd7bf3d4e2180005a86846,TCR,2024-06-24_14h43.33.343,LearnStrategy,2023.2.3,Win32,60.24096386,1,2,14,,,,,,,,2,02,,,,,,,,,,,3,1.641,0,,,,,,0.059648036,-0.242571736,1,0,0,1.6407,Diorite_rect,13,0,13,0,1,
56bd7bf3d4e2180005a86846,TCR,2024-06-24_14h43.33.343,LearnStrategy,2023.2.3,Win32,60.24096386,1,2,15,,,,,,,,1,11,,,,,,,,,,,4,1.025,0,,,,,,0.387008436,-0.24442123,1,0,0,1.0252,Gabbro_rect,14,0,14,0,1,
56bd7bf3d4e2180005a86846,TCR,2024-06-24_14h43.33.343,LearnStrategy,2023.2.3,Win32,60.24096386,1,2,16,,,,,,,,7,02,,,,,,,,,,,7,3.066,1,,,,,,0.163219717,-0.379434269,1,0,0,3.0657,Peridotite_rect,15,0,15,0,1,
56bd7bf3d4e2180005a86846,TCR,2024-06-24_14h43.33.343,LearnStrategy,2023.2.3,Win32,60.24096386,2,1,1,-0.001385277,-0.003062314,1,0,0,0.8963,rock_grid_rect_2,1,14,-1,-1,0.896,-0.101257877,-0.268464656,1,0,0,1.1484,Basalt_rect,2,1.148,0,0,0,0,0,1,,,,,,,,,,,,,
56bd7bf3d4e2180005a86846,TCR,2024-06-24_14h43.33.343,LearnStrategy,2023.2.3,Win32,60.24096386,2,1,2,0.003238459,-0.015084028,1,0,0,1.5288,rock_grid_rect_2,5,16,-1,-1,1.529,0.395331161,-0.385907499,1,0,0,1.8559,Pumice_rect,8,1.856,0,1,0,1,0,1,,,,,,,,,,,,,
56bd7bf3d4e2180005a86846,TCR,2024-06-24_14h43.33.343,LearnStrategy,2023.2.3,Win32,60.24096386,2,1,3,-0.072590808,0.012658387,1,0,0,0.881,rock_grid_rect_2,8,14,-1,-1,0.881,-0.392553185,-0.253668702,1,0,0,0.7901,Andesite_rect,1,0.79,0,2,0,2,0,1,,,,,,,,,,,,,
56bd7bf3d4e2180005a86846,TCR,2024-06-24_14h43.33.343,LearnStrategy,2023.2.3,Win32,60.24096386,2,1,4,-0.070741313,0.006185157,1,0,0,1.0689,rock_grid_rect_2,8,10,-1,-1,1.069,-0.059644348,-0.403477695,1,0,0,0.8972,Pegmatite_rect,6,0.897,0,3,0,3,0,1,,,,,,,,,,,,,
56bd7bf3d4e2180005a86846,TCR,2024-06-24_14h43.33.343,LearnStrategy,2023.2.3,Win32,60.24096386,2,1,5,0.116057612,-0.002137567,1,0,0,0.998,rock_grid_rect_2,6,08,-1,-1,0.998,0.43786953,-0.261066679,1,0,0,1.2151,Gabbro_rect,4,1.215,0,4,0,4,0,1,,,,,,,,,,,,,
56bd7bf3d4e2180005a86846,TCR,2024-06-24_14h43.33.343,LearnStrategy,2023.2.3,Win32,60.24096386,2,1,6,0.066121266,-0.022482005,1,0,0,0.7111,rock_grid_rect_2,8,05,-1,-1,0.711,0.085540956,-0.237948,1,0,0,0.6817,Diorite_rect,3,0.682,0,5,0,5,0,1,,,,,,,,,,,,,
56bd7bf3d4e2180005a86846,TCR,2024-06-24_14h43.33.343,LearnStrategy,2023.2.3,Win32,60.24096386,2,1,7,-0.020804967,0.013583134,1,0,0,0.7712,rock_grid_rect_2,6,12,-1,-1,0.771,0.391632172,-0.393305476,1,0,0,0.8095,Pumice_rect,8,0.81,0,6,0,6,0,1,,,,,,,,,,,,,
56bd7bf3d4e2180005a86846,TCR,2024-06-24_14h43.33.343,LearnStrategy,2023.2.3,Win32,60.24096386,2,1,8,0.094788427,-0.000288073,1,0,0,0.9475,rock_grid_rect_2,2,05,-1,-1,0.947,0.313953411,-0.413649913,1,0,0,0.9428,Pumice_rect,8,0.943,0,7,0,7,0,1,,,,,,,,,,,,,
56bd7bf3d4e2180005a86846,TCR,2024-06-24_14h43.33.343,LearnStrategy,2023.2.3,Win32,60.24096386,2,1,9,0.069820254,0.007109904,1,0,0,1.0143,rock_grid_rect_2,2,01,-1,-1,1.014,0.090164692,-0.260141932,1,0,0,0.7567,Diorite_rect,3,0.757,0,8,0,8,0,1,,,,,,,,,,,,,
56bd7bf3d4e2180005a86846,TCR,2024-06-24_14h43.33.343,LearnStrategy,2023.2.3,Win32,60.24096386,2,1,10,0.084616209,0.001561421,1,0,0,0.9196,rock_grid_rect_2,3,06,-1,-1,0.92,-0.374058242,-0.262916173,1,0,0,1.1534,Andesite_rect,1,1.153,0,9,0,9,0,1,,,,,,,,,,,,,
56bd7bf3d4e2180005a86846,TCR,2024-06-24_14h43.33.343,LearnStrategy,2023.2.3,Win32,60.24096386,2,1,11,-0.067967072,0.013583134,1,0,0,0.8308,rock_grid_rect_2,1,06,-1,-1,0.831,0.136402049,-0.268464656,1,0,0,1.0978,Diorite_rect,3,1.098,0,10,0,10,0,1,,,,,,,,,,,,,
56bd7bf3d4e2180005a86846,TCR,2024-06-24_14h43.33.343,LearnStrategy,2023.2.3,Win32,60.24096386,2,1,12,-0.05224637,0.007109904,1,0,0,0.7809,rock_grid_rect_2,3,16,-1,-1,0.781,-0.10680636,-0.26384092,1,0,0,1.0534,Basalt_rect,2,1.053,0,11,0,11,0,1,,,,,,,,,,,,,
56bd7bf3d4e2180005a86846,TCR,2024-06-24_14h43.33.343,LearnStrategy,2023.2.3,Win32,60.24096386,2,1,13,0.027281885,0.023755353,1,0,0,0.7619,rock_grid_rect_2,4,09,-1,-1,0.762,0.384234195,-0.415499408,1,0,0,1.3806,Pumice_rect,8,1.381,0,12,0,12,0,1,,,,,,,,,,,,,
56bd7bf3d4e2180005a86846,TCR,2024-06-24_14h43.33.343,LearnStrategy,2023.2.3,Win32,60.24096386,2,1,14,0.018034414,0.007109904,1,0,0,0.7058,rock_grid_rect_2,5,09,-1,-1,0.706,-0.095709487,-0.414574661,1,0,0,1.3534,Pegmatite_rect,6,1.353,0,13,0,13,0,1,,,,,,,,,,,,,
56bd7bf3d4e2180005a86846,TCR,2024-06-24_14h43.33.343,LearnStrategy,2023.2.3,Win32,60.24096386,2,1,15,0.053174805,-0.016008775,1,0,0,1.1455,rock_grid_rect_2,4,08,-1,-1,1.145,0.075368737,-0.255518196,1,0,0,1.5964,Diorite_rect,3,1.596,0,14,0,14,0,1,,,,,,,,,,,,,
56bd7bf3d4e2180005a86846,TCR,2024-06-24_14h43.33.343,LearnStrategy,2023.2.3,Win32,60.24096386,2,1,16,-0.049472129,-0.016008775,1,0,0,0.8955,rock_grid_rect_2,2,14,-1,-1,0.895,-0.350014816,-0.420123143,1,0,0,2.2584,Obsidian_rect,5,2.258,0,15,0,15,0,1,,,,,,,,,,,,,
56bd7bf3d4e2180005a86846,TCR,2024-06-24_14h43.33.343,LearnStrategy,2023.2.3,Win32,60.24096386,2,2,1,,,,,,,,1,16,,,,,,,,,,,3,1.436,0,,,,,,0.113283371,-0.271238898,1,0,0,1.4359,Diorite_rect,0,0,0,0,1,
56bd7bf3d4e2180005a86846,TCR,2024-06-24_14h43.33.343,LearnStrategy,2023.2.3,Win32,60.24096386,2,2,2,,,,,,,,4,16,,,,,,,,,,,4,1.084,1,,,,,,0.360190769,-0.238872747,1,0,0,1.0836,Gabbro_rect,1,0,1,0,1,
56bd7bf3d4e2180005a86846,TCR,2024-06-24_14h43.33.343,LearnStrategy,2023.2.3,Win32,60.24096386,2,2,3,,,,,,,,2,10,,,,,,,,,,,6,1.183,0,,,,,,-0.1576675,-0.417348902,1,0,0,1.1835,Pegmatite_rect,2,0,2,0,1,
56bd7bf3d4e2180005a86846,TCR,2024-06-24_14h43.33.343,LearnStrategy,2023.2.3,Win32,60.24096386,2,2,4,,,,,,,,8,13,,,,,,,,,,,8,1.3,1,,,,,,0.34354532,-0.398853959,1,0,0,1.3005,Pumice_rect,3,0,3,0,1,
56bd7bf3d4e2180005a86846,TCR,2024-06-24_14h43.33.343,LearnStrategy,2023.2.3,Win32,60.24096386,2,2,5,,,,,,,,4,11,,,,,,,,,,,3,0.982,0,,,,,,0.133627808,-0.255518196,1,0,0,0.9823,Diorite_rect,4,0,4,0,1,
56bd7bf3d4e2180005a86846,TCR,2024-06-24_14h43.33.343,LearnStrategy,2023.2.3,Win32,60.24096386,2,2,6,,,,,,,,2,11,,,,,,,,,,,2,0.87,1,,,,,,-0.132699327,-0.266615162,1,0,0,0.8698,Basalt_rect,5,0,5,0,1,
56bd7bf3d4e2180005a86846,TCR,2024-06-24_14h43.33.343,LearnStrategy,2023.2.3,Win32,60.24096386,2,2,7,,,,,,,,3,12,,,,,,,,,,,1,0.917,0,,,,,,-0.354638552,-0.234249011,1,0,0,0.9173,Andesite_rect,6,0,6,0,1,
56bd7bf3d4e2180005a86846,TCR,2024-06-24_14h43.33.343,LearnStrategy,2023.2.3,Win32,60.24096386,2,2,8,,,,,,,,5,07,,,,,,,,,,,8,1.231,0,,,,,,0.386083689,-0.415499408,1,0,0,1.2313,Pumice_rect,7,0,7,0,1,
56bd7bf3d4e2180005a86846,TCR,2024-06-24_14h43.33.343,LearnStrategy,2023.2.3,Win32,60.24096386,2,2,9,,,,,,,,5,08,,,,,,,,,,,5,0.643,1,,,,,,-0.377757231,-0.38868174,1,0,0,0.6427,Obsidian_rect,8,0,8,0,1,
56bd7bf3d4e2180005a86846,TCR,2024-06-24_14h43.33.343,LearnStrategy,2023.2.3,Win32,60.24096386,2,2,10,,,,,,,,6,13,,,,,,,,,,,6,0.767,1,,,,,,-0.089236257,-0.409950925,1,0,0,0.7666,Pegmatite_rect,9,0,9,0,1,
56bd7bf3d4e2180005a86846,TCR,2024-06-24_14h43.33.343,LearnStrategy,2023.2.3,Win32,60.24096386,2,2,11,,,,,,,,1,04,,,,,,,,,,,4,0.729,0,,,,,,0.375911471,-0.235173758,1,0,0,0.7285,Gabbro_rect,10,0,10,0,1,
56bd7bf3d4e2180005a86846,TCR,2024-06-24_14h43.33.343,LearnStrategy,2023.2.3,Win32,60.24096386,2,2,12,,,,,,,,7,04,,,,,,,,,,,3,1.031,0,,,,,,0.113283371,-0.258292437,1,0,0,1.0314,Diorite_rect,11,0,11,0,1,
56bd7bf3d4e2180005a86846,TCR,2024-06-24_14h43.33.343,LearnStrategy,2023.2.3,Win32,60.24096386,2,2,13,,,,,,,,7,10,,,,,,,,,,,2,0.884,0,,,,,,-0.057794853,-0.256442943,1,0,0,0.8838,Basalt_rect,12,0,12,0,1,
56bd7bf3d4e2180005a86846,TCR,2024-06-24_14h43.33.343,LearnStrategy,2023.2.3,Win32,60.24096386,2,2,14,,,,,,,,8,08,,,,,,,,,,,2,1.261,0,,,,,,-0.057794853,-0.258292437,1,0,0,1.2611,Basalt_rect,13,0,13,0,1,
56bd7bf3d4e2180005a86846,TCR,2024-06-24_14h43.33.343,LearnStrategy,2023.2.3,Win32,60.24096386,2,2,15,,,,,,,,3,10,,,,,,,,,,,7,0.734,0,,,,,,0.141025785,-0.403477695,1,0,0,0.7341,Peridotite_rect,14,0,14,0,1,
56bd7bf3d4e2180005a86846,TCR,2024-06-24_14h43.33.343,LearnStrategy,2023.2.3,Win32,60.24096386,2,2,16,,,,,,,,6,11,,,,,,,,,,,8,0.784,0,,,,,,0.341695826,-0.421047891,1,0,0,0.7836,Pumice_rect,15,0,15,0,1,
56bd7bf3d4e2180005a86846,TCR,2024-06-24_14h43.33.343,LearnStrategy,2023.2.3,Win32,60.24096386,3,1,1,-0.034676082,0.003410916,1,0,0,1.0981,rock_grid_rect_2,1,06,-1,-1,1.098,-0.116978625,-0.239797494,1,0,0,1.5577,Basalt_rect,2,1.558,0,0,0,0,0,1,,,,,,,,,,,,,
56bd7bf3d4e2180005a86846,TCR,2024-06-24_14h43.33.343,LearnStrategy,2023.2.3,Win32,60.24096386,3,1,2,0.069820254,-0.02063251,1,0,0,1.0617,rock_grid_rect_2,2,12,-1,-1,1.062,-0.159516994,-0.268464656,1,0,0,1.5206,Basalt_rect,2,1.521,1,1,0,1,0,1,,,,,,,,,,,,,
56bd7bf3d4e2180005a86846,TCR,2024-06-24_14h43.33.343,LearnStrategy,2023.2.3,Win32,60.24096386,3,1,3,-0.030977094,0.013583134,1,0,0,1.0973,rock_grid_rect_2,6,16,-1,-1,1.097,0.42492307,-0.412725166,1,0,0,1.0848,Pumice_rect,8,1.085,0,2,0,2,0,1,,,,,,,,,,,,,
56bd7bf3d4e2180005a86846,TCR,2024-06-24_14h43.33.343,LearnStrategy,2023.2.3,Win32,60.24096386,3,1,4,-0.001385277,0.020981112,1,0,0,0.7807,rock_grid_rect_2,3,16,-1,-1,0.781,0.125305084,-0.242571736,1,0,0,0.8704,Diorite_rect,3,0.87,1,3,0,3,0,1,,,,,,,,,,,,,
56bd7bf3d4e2180005a86846,TCR,2024-06-24_14h43.33.343,LearnStrategy,2023.2.3,Win32,60.24096386,3,1,5,-0.064268083,-0.005836556,1,0,0,0.9981,rock_grid_rect_2,8,10,-1,-1,0.998,-0.346315782,-0.251819207,1,0,0,1.0159,Andesite_rect,1,1.016,0,4,0,4,0,1,,,,,,,,,,,,,
56bd7bf3d4e2180005a86846,TCR,2024-06-24_14h43.33.343,LearnStrategy,2023.2.3,Win32,60.24096386,3,1,6,0.026357138,-0.015084028,1,0,0,0.8124,rock_grid_rect_2,8,05,-1,-1,0.812,0.095713175,-0.418273649,1,0,0,0.7171,Peridotite_rect,7,0.717,0,5,0,5,0,1,,,,,,,,,,,,,
56bd7bf3d4e2180005a86846,TCR,2024-06-24_14h43.33.343,LearnStrategy,2023.2.3,Win32,60.24096386,3,1,7,-0.078139291,-0.021557258,1,0,0,0.8975,rock_grid_rect_2,5,06,-1,-1,0.897,0.402729138,-0.26384092,1,0,0,2.797,Gabbro_rect,4,2.797,0,6,0,6,0,1,,,,,,,,,,,,,
56bd7bf3d4e2180005a86846,TCR,2024-06-24_14h43.33.343,LearnStrategy,2023.2.3,Win32,60.24096386,3,1,8,-0.032826588,-0.003062314,1,0,0,0.78,rock_grid_rect_2,4,10,-1,-1,0.78,0.107734888,-0.252743954,1,0,0,1.095,Diorite_rect,3,1.095,0,7,0,7,0,1,,,,,,,,,,,,,
56bd7bf3d4e2180005a86846,TCR,2024-06-24_14h43.33.343,LearnStrategy,2023.2.3,Win32,60.24096386,3,1,9,-0.079064038,-0.015084028,1,0,0,0.7784,rock_grid_rect_2,7,08,-1,-1,0.778,-0.082763026,-0.255518196,1,0,0,0.9749,Basalt_rect,2,0.975,0,8,0,8,0,1,,,,,,,,,,,,,
56bd7bf3d4e2180005a86846,TCR,2024-06-24_14h43.33.343,LearnStrategy,2023.2.3,Win32,60.24096386,3,1,10,-0.030977094,-0.017858269,1,0,0,0.9754,rock_grid_rect_2,6,15,-1,-1,0.975,-0.080913532,-0.393305476,1,0,0,1.4296,Pegmatite_rect,6,1.43,1,9,0,9,0,1,,,,,,,,,,,,,
56bd7bf3d4e2180005a86846,TCR,2024-06-24_14h43.33.343,LearnStrategy,2023.2.3,Win32,60.24096386,3,1,11,0.105885393,0.001561421,1,0,0,0.816,rock_grid_rect_2,2,14,-1,-1,0.816,-0.155818006,-0.265690415,1,0,0,2.8121,Basalt_rect,2,2.812,1,10,0,10,0,1,,,,,,,,,,,,,
56bd7bf3d4e2180005a86846,TCR,2024-06-24_14h43.33.343,LearnStrategy,2023.2.3,Win32,60.24096386,3,1,12,0.06149753,-0.010460292,1,0,0,0.8641,rock_grid_rect_2,3,16,-1,-1,0.864,0.117907106,-0.25089446,1,0,0,0.7114,Diorite_rect,3,0.711,1,11,0,11,0,1,,,,,,,,,,,,,
56bd7bf3d4e2180005a86846,TCR,2024-06-24_14h43.33.343,LearnStrategy,2023.2.3,Win32,60.24096386,3,1,13,-0.009708001,0.020056364,1,0,0,0.9317,rock_grid_rect_2,7,06,-1,-1,0.932,0.133627808,-0.261066679,1,0,0,1.1129,Diorite_rect,3,1.113,0,12,0,12,0,1,,,,,,,,,,,,,
56bd7bf3d4e2180005a86846,TCR,2024-06-24_14h43.33.343,LearnStrategy,2023.2.3,Win32,60.24096386,3,1,14,0.084616209,-0.006761303,1,0,0,0.8474,rock_grid_rect_2,1,01,-1,-1,0.847,0.365739252,-0.406251936,1,0,0,0.7687,Pumice_rect,8,0.769,0,13,0,13,0,1,,,,,,,,,,,,,
56bd7bf3d4e2180005a86846,TCR,2024-06-24_14h43.33.343,LearnStrategy,2023.2.3,Win32,60.24096386,3,1,15,-0.008783254,-0.008610797,1,0,0,0.8799,rock_grid_rect_2,5,16,-1,-1,0.88,0.215930397,-0.384058004,1,0,0,1.2948,Peridotite_rect,7,1.295,0,14,0,14,0,1,,,,,,,,,,,,,
56bd7bf3d4e2180005a86846,TCR,2024-06-24_14h43.33.343,LearnStrategy,2023.2.3,Win32,60.24096386,3,1,16,-0.092010498,-0.01415928,1,0,0,0.7986,rock_grid_rect_2,3,15,-1,-1,0.799,-0.17986134,-0.38868174,1,0,0,1.7819,Pegmatite_rect,6,1.782,0,15,0,15,0,1,,,,,,,,,,,,,
56bd7bf3d4e2180005a86846,TCR,2024-06-24_14h43.33.343,LearnStrategy,2023.2.3,Win32,60.24096386,3,2,1,,,,,,,,4,14,,,,,,,,,,,3,1.207,0,,,,,,0.092938933,-0.268464656,1,0,0,1.2071,Diorite_rect,0,0,0,0,1,
56bd7bf3d4e2180005a86846,TCR,2024-06-24_14h43.33.343,LearnStrategy,2023.2.3,Win32,60.24096386,3,2,2,,,,,,,,7,05,,,,,,,,,,,8,1.274,0,,,,,,0.314878158,-0.403477695,1,0,0,1.2741,Pumice_rect,1,0,1,0,1,
56bd7bf3d4e2180005a86846,TCR,2024-06-24_14h43.33.343,LearnStrategy,2023.2.3,Win32,60.24096386,3,2,3,,,,,,,,5,04,,,,,,,,,,,5,1.455,1,,,,,,-0.364810771,-0.392380729,1,0,0,1.4545,Obsidian_rect,2,0,2,0,1,
56bd7bf3d4e2180005a86846,TCR,2024-06-24_14h43.33.343,LearnStrategy,2023.2.3,Win32,60.24096386,3,2,4,,,,,,,,6,03,,,,,,,,,,,1,1.247,0,,,,,,-0.362036529,-0.238872747,1,0,0,1.2471,Andesite_rect,3,0,3,0,1,
56bd7bf3d4e2180005a86846,TCR,2024-06-24_14h43.33.343,LearnStrategy,2023.2.3,Win32,60.24096386,3,2,5,,,,,,,,1,07,,,,,,,,,,,3,1.869,0,,,,,,0.160445476,-0.258292437,1,0,0,1.8692,Diorite_rect,4,0,4,0,1,
56bd7bf3d4e2180005a86846,TCR,2024-06-24_14h43.33.343,LearnStrategy,2023.2.3,Win32,60.24096386,3,2,6,,,,,,,,3,14,,,,,,,,,,,3,0.926,1,,,,,,0.092014186,-0.256442943,1,0,0,0.9262,Diorite_rect,5,0,5,0,1,
56bd7bf3d4e2180005a86846,TCR,2024-06-24_14h43.33.343,LearnStrategy,2023.2.3,Win32,60.24096386,3,2,7,,,,,,,,7,16,,,,,,,,,,,2,1.88,0,,,,,,-0.108655855,-0.25736769,1,0,0,1.8798,Basalt_rect,6,0,6,0,1,
56bd7bf3d4e2180005a86846,TCR,2024-06-24_14h43.33.343,LearnStrategy,2023.2.3,Win32,60.24096386,3,2,8,,,,,,,,1,03,,,,,,,,,,,4,1.014,0,,,,,,0.326899871,-0.265690415,1,0,0,1.0139,Gabbro_rect,7,0,7,0,1,
56bd7bf3d4e2180005a86846,TCR,2024-06-24_14h43.33.343,LearnStrategy,2023.2.3,Win32,60.24096386,3,2,9,,,,,,,,2,16,,,,,,,,,,,6,1.203,0,,,,,,-0.132699327,-0.38220851,1,0,0,1.2028,Pegmatite_rect,8,0,8,0,1,
56bd7bf3d4e2180005a86846,TCR,2024-06-24_14h43.33.343,LearnStrategy,2023.2.3,Win32,60.24096386,3,2,10,,,,,,,,5,05,,,,,,,,,,,7,0.527,0,,,,,,0.135477302,-0.417348902,1,0,0,0.5272,Peridotite_rect,9,0,9,0,1,
56bd7bf3d4e2180005a86846,TCR,2024-06-24_14h43.33.343,LearnStrategy,2023.2.3,Win32,60.24096386,3,2,11,,,,,,,,4,01,,,,,,,,,,,8,1.633,0,,,,,,0.314878158,-0.410875672,1,0,0,1.6326,Pumice_rect,10,0,10,0,1,
56bd7bf3d4e2180005a86846,TCR,2024-06-24_14h43.33.343,LearnStrategy,2023.2.3,Win32,60.24096386,3,2,12,,,,,,,,8,04,,,,,,,,,,,2,1.524,0,,,,,,-0.143796293,-0.245345977,1,0,0,1.5242,Basalt_rect,11,0,11,0,1,
56bd7bf3d4e2180005a86846,TCR,2024-06-24_14h43.33.343,LearnStrategy,2023.2.3,Win32,60.24096386,3,2,13,,,,,,,,3,13,,,,,,,,,,,4,1.397,0,,,,,,0.387933184,-0.258292437,1,0,0,1.3974,Gabbro_rect,12,0,12,0,1,
56bd7bf3d4e2180005a86846,TCR,2024-06-24_14h43.33.343,LearnStrategy,2023.2.3,Win32,60.24096386,3,2,14,,,,,,,,6,06,,,,,,,,,,,5,0.835,0,,,,,,-0.319498206,-0.38868174,1,0,0,0.8352,Obsidian_rect,13,0,13,0,1,
56bd7bf3d4e2180005a86846,TCR,2024-06-24_14h43.33.343,LearnStrategy,2023.2.3,Win32,60.24096386,3,2,15,,,,,,,,8,02,,,,,,,,,,,3,1.654,0,,,,,,0.096637922,-0.239797494,1,0,0,1.6542,Diorite_rect,14,0,14,0,1,
56bd7bf3d4e2180005a86846,TCR,2024-06-24_14h43.33.343,LearnStrategy,2023.2.3,Win32,60.24096386,3,2,16,,,,,,,,2,08,,,,,,,,,,,8,1.17,0,,,,,,0.349093803,-0.398853959,1,0,0,1.1698,Pumice_rect,15,0,15,0,1,
56bd7bf3d4e2180005a86846,TCR,2024-06-24_14h43.33.343,LearnStrategy,2023.2.3,Win32,60.24096386,4,1,1,0.018959161,0.008034651,1,0,0,1.078,rock_grid_rect_2,4,15,-1,-1,1.078,-0.088311509,-0.26384092,1,0,0,1.7611,Basalt_rect,2,1.761,0,0,0,0,0,1,,,,,,,,,,,,,
56bd7bf3d4e2180005a86846,TCR,2024-06-24_14h43.33.343,LearnStrategy,2023.2.3,Win32,60.24096386,4,1,2,0.032830368,-0.010460292,1,0,0,0.9957,rock_grid_rect_2,2,06,-1,-1,0.996,0.419374587,-0.247195471,1,0,0,0.8862,Gabbro_rect,4,0.886,0,1,0,1,0,1,,,,,,,,,,,,,
56bd7bf3d4e2180005a86846,TCR,2024-06-24_14h43.33.343,LearnStrategy,2023.2.3,Win32,60.24096386,4,1,3,-0.062418589,0.015432629,1,0,0,1.0084,rock_grid_rect_2,4,09,-1,-1,1.008,-0.063343336,-0.266615162,1,0,0,0.8754,Basalt_rect,2,0.875,0,2,0,2,0,1,,,,,,,,,,,,,
56bd7bf3d4e2180005a86846,TCR,2024-06-24_14h43.33.343,LearnStrategy,2023.2.3,Win32,60.24096386,4,1,4,0.007862195,-0.02063251,1,0,0,1.1139,rock_grid_rect_2,1,14,-1,-1,1.114,0.138251544,-0.255518196,1,0,0,1.8732,Diorite_rect,3,1.873,0,3,0,3,0,1,,,,,,,,,,,,,
56bd7bf3d4e2180005a86846,TCR,2024-06-24_14h43.33.343,LearnStrategy,2023.2.3,Win32,60.24096386,4,1,5,-0.130849832,0.003410916,1,0,0,1.181,rock_grid_rect_2,8,15,-1,-1,1.181,-0.377757231,-0.399778706,1,0,0,0.6866,Obsidian_rect,5,0.687,0,4,0,4,0,1,,,,,,,,,,,,,
56bd7bf3d4e2180005a86846,TCR,2024-06-24_14h43.33.343,LearnStrategy,2023.2.3,Win32,60.24096386,4,1,6,-0.13177458,0.006185157,1,0,0,0.9286,rock_grid_rect_2,5,11,-1,-1,0.929,-0.41382237,-0.264765667,1,0,0,0.823,Andesite_rect,1,0.823,0,5,0,5,0,1,,,,,,,,,,,,,
56bd7bf3d4e2180005a86846,TCR,2024-06-24_14h43.33.343,LearnStrategy,2023.2.3,Win32,60.24096386,4,1,7,-0.030052346,0.016357376,1,0,0,1.1972,rock_grid_rect_2,2,01,-1,-1,1.197,0.349093803,-0.409950925,1,0,0,0.9396,Pumice_rect,8,0.94,0,6,0,6,0,1,,,,,,,,,,,,,
56bd7bf3d4e2180005a86846,TCR,2024-06-24_14h43.33.343,LearnStrategy,2023.2.3,Win32,60.24096386,4,1,8,0.011561183,-0.013234533,1,0,0,0.8809,rock_grid_rect_2,6,05,-1,-1,0.881,0.079992473,-0.256442943,1,0,0,0.4935,Diorite_rect,3,0.493,0,7,0,7,0,1,,,,,,,,,,,,,
56bd7bf3d4e2180005a86846,TCR,2024-06-24_14h43.33.343,LearnStrategy,2023.2.3,Win32,60.24096386,4,1,9,-0.088311509,-0.006761303,1,0,0,0.7145,rock_grid_rect_2,7,12,-1,-1,0.714,-0.067042325,-0.243496483,1,0,0,1.5005,Basalt_rect,2,1.5,0,8,0,8,0,1,,,,,,,,,,,,,
56bd7bf3d4e2180005a86846,TCR,2024-06-24_14h43.33.343,LearnStrategy,2023.2.3,Win32,60.24096386,4,1,10,0.101261658,0.000636674,1,0,0,0.8144,rock_grid_rect_2,3,08,-1,-1,0.814,0.197435454,-0.233324264,1,0,0,0.5704,Diorite_rect,3,0.57,1,9,0,9,0,1,,,,,,,,,,,,,
56bd7bf3d4e2180005a86846,TCR,2024-06-24_14h43.33.343,LearnStrategy,2023.2.3,Win32,60.24096386,4,1,11,0.17524143,-0.00121282,1,0,0,0.9626,rock_grid_rect_2,3,02,-1,-1,0.963,0.415675598,-0.252743954,1,0,0,0.76,Gabbro_rect,4,0.76,0,10,0,10,0,1,,,,,,,,,,,,,
56bd7bf3d4e2180005a86846,TCR,2024-06-24_14h43.33.343,LearnStrategy,2023.2.3,Win32,60.24096386,4,1,12,0.021733402,-0.010460292,1,0,0,0.8325,rock_grid_rect_2,7,13,-1,-1,0.832,0.131778314,-0.407176683,1,0,0,0.8237,Peridotite_rect,7,0.824,1,11,0,11,0,1,,,,,,,,,,,,,
56bd7bf3d4e2180005a86846,TCR,2024-06-24_14h43.33.343,LearnStrategy,2023.2.3,Win32,60.24096386,4,1,13,-0.046697887,-0.00768605,1,0,0,0.8882,rock_grid_rect_2,6,08,-1,-1,0.888,-0.057794853,-0.40810143,1,0,0,0.887,Pegmatite_rect,6,0.887,1,12,0,12,0,1,,,,,,,,,,,,,
56bd7bf3d4e2180005a86846,TCR,2024-06-24_14h43.33.343,LearnStrategy,2023.2.3,Win32,60.24096386,4,1,14,-0.149344776,-0.006761303,1,0,0,0.8236,rock_grid_rect_2,5,02,-1,-1,0.824,0.407352874,-0.384982752,1,0,0,2.296,Pumice_rect,8,2.296,0,13,0,13,0,1,,,,,,,,,,,,,
56bd7bf3d4e2180005a86846,TCR,2024-06-24_14h43.33.343,LearnStrategy,2023.2.3,Win32,60.24096386,4,1,15,-0.141022051,-0.016008775,1,0,0,1.1047,rock_grid_rect_2,8,06,-1,-1,1.105,-0.134548821,-0.229625275,1,0,0,2.239,Basalt_rect,2,2.239,0,14,0,14,0,1,,,,,,,,,,,,,
56bd7bf3d4e2180005a86846,TCR,2024-06-24_14h43.33.343,LearnStrategy,2023.2.3,Win32,60.24096386,4,1,16,0.078142979,-0.012309786,1,0,0,0.8915,rock_grid_rect_2,1,02,-1,-1,0.892,0.33707209,-0.246270724,1,0,0,0.8569,Gabbro_rect,4,0.857,0,15,0,15,0,1,,,,,,,,,,,,,
56bd7bf3d4e2180005a86846,TCR,2024-06-24_14h43.33.343,LearnStrategy,2023.2.3,Win32,60.24096386,4,2,1,,,,,,,,6,13,,,,,,,,,,,7,1.846,0,,,,,,0.123455589,-0.380359016,1,0,0,1.8455,Peridotite_rect,0,0,0,0,1,
56bd7bf3d4e2180005a86846,TCR,2024-06-24_14h43.33.343,LearnStrategy,2023.2.3,Win32,60.24096386,4,2,2,,,,,,,,8,09,,,,,,,,,,,3,1.754,0,,,,,,0.097562669,-0.258292437,1,0,0,1.754,Diorite_rect,1,0,1,0,1,
56bd7bf3d4e2180005a86846,TCR,2024-06-24_14h43.33.343,LearnStrategy,2023.2.3,Win32,60.24096386,4,2,3,,,,,,,,4,01,,,,,,,,,,,1,1.121,0,,,,,,-0.374982989,-0.25089446,1,0,0,1.1214,Andesite_rect,2,0,2,0,1,
56bd7bf3d4e2180005a86846,TCR,2024-06-24_14h43.33.343,LearnStrategy,2023.2.3,Win32,60.24096386,4,2,4,,,,,,,,3,12,,,,,,,,,,,2,2.099,0,,,,,,-0.12530135,-0.264765667,1,0,0,2.0992,Basalt_rect,3,0,3,0,1,
56bd7bf3d4e2180005a86846,TCR,2024-06-24_14h43.33.343,LearnStrategy,2023.2.3,Win32,60.24096386,4,2,5,,,,,,,,1,04,,,,,,,,,,,2,0.84,0,,,,,,-0.12530135,-0.264765667,1,0,0,0.8401,Basalt_rect,4,0,4,0,1,
56bd7bf3d4e2180005a86846,TCR,2024-06-24_14h43.33.343,LearnStrategy,2023.2.3,Win32,60.24096386,4,2,6,,,,,,,,5,05,,,,,,,,,,,8,1.253,0,,,,,,0.367588746,-0.380359016,1,0,0,1.2532,Pumice_rect,5,0,5,0,1,
56bd7bf3d4e2180005a86846,TCR,2024-06-24_14h43.33.343,LearnStrategy,2023.2.3,Win32,60.24096386,4,2,7,,,,,,,,1,03,,,,,,,,,,,6,1.081,0,,,,,,-0.141022051,-0.397929212,1,0,0,1.081,Pegmatite_rect,6,0,6,0,1,
56bd7bf3d4e2180005a86846,TCR,2024-06-24_14h43.33.343,LearnStrategy,2023.2.3,Win32,60.24096386,4,2,8,,,,,,,,2,11,,,,,,,,,,,3,1.007,0,,,,,,0.09386368,-0.249044966,1,0,0,1.0074,Diorite_rect,7,0,7,0,1,
56bd7bf3d4e2180005a86846,TCR,2024-06-24_14h43.33.343,LearnStrategy,2023.2.3,Win32,60.24096386,4,2,9,,,,,,,,2,02,,,,,,,,,,,4,1.906,0,,,,,,0.393481667,-0.261066679,1,0,0,1.906,Gabbro_rect,8,0,8,0,1,
56bd7bf3d4e2180005a86846,TCR,2024-06-24_14h43.33.343,LearnStrategy,2023.2.3,Win32,60.24096386,4,2,10,,,,,,,,5,14,,,,,,,,,,,5,1.778,1,,,,,,-0.464683417,-0.416424155,1,0,0,1.7776,Obsidian_rect,9,0,9,0,1,
56bd7bf3d4e2180005a86846,TCR,2024-06-24_14h43.33.343,LearnStrategy,2023.2.3,Win32,60.24096386,4,2,11,,,,,,,,8,04,,,,,,,,,,,3,1.297,0,,,,,,0.120681348,-0.24442123,1,0,0,1.2969,Diorite_rect,10,0,10,0,1,
56bd7bf3d4e2180005a86846,TCR,2024-06-24_14h43.33.343,LearnStrategy,2023.2.3,Win32,60.24096386,4,2,12,,,,,,,,7,16,,,,,,,,,,,2,0.891,0,,,,,,-0.137323063,-0.267539909,1,0,0,0.891,Basalt_rect,11,0,11,0,1,
56bd7bf3d4e2180005a86846,TCR,2024-06-24_14h43.33.343,LearnStrategy,2023.2.3,Win32,60.24096386,4,2,13,,,,,,,,3,09,,,,,,,,,,,7,1.263,0,,,,,,0.035604609,-0.38220851,1,0,0,1.2633,Peridotite_rect,12,0,12,0,1,
56bd7bf3d4e2180005a86846,TCR,2024-06-24_14h43.33.343,LearnStrategy,2023.2.3,Win32,60.24096386,4,2,14,,,,,,,,6,06,,,,,,,,,,,2,0.738,0,,,,,,-0.101257877,-0.249969713,1,0,0,0.738,Basalt_rect,13,0,13,0,1,
56bd7bf3d4e2180005a86846,TCR,2024-06-24_14h43.33.343,LearnStrategy,2023.2.3,Win32,60.24096386,4,2,15,,,,,,,,7,02,,,,,,,,,,,6,1.153,0,,,,,,-0.096634234,-0.419198396,1,0,0,1.1528,Pegmatite_rect,14,0,14,0,1,
56bd7bf3d4e2180005a86846,TCR,2024-06-24_14h43.33.343,LearnStrategy,2023.2.3,Win32,60.24096386,4,2,16,,,,,,,,4,12,,,,,,,,,,,1,0.83,0,,,,,,-0.350939563,-0.238872747,1,0,0,0.83,Andesite_rect,15,0,15,0,1,
56bd7bf3d4e2180005a86846,TCR,2024-06-24_14h43.33.343,LearnStrategy,2023.2.3,Win32,60.24096386,5,1,1,0.059648036,-0.023406752,1,0,0,1.5125,rock_grid_rect_2,3,02,-1,-1,1.512,0.067046013,-0.260141932,1,0,0,0.7333,Diorite_rect,3,0.733,1,0,0,0,0,1,,,,,,,,,,,,,
56bd7bf3d4e2180005a86846,TCR,2024-06-24_14h43.33.343,LearnStrategy,2023.2.3,Win32,60.24096386,5,1,2,-0.042074059,-0.002137567,1,0,0,0.9623,rock_grid_rect_2,5,10,-1,-1,0.962,-0.370359254,-0.413649913,1,0,0,1.5545,Obsidian_rect,5,1.554,1,1,0,1,0,1,,,,,,,,,,,,,
56bd7bf3d4e2180005a86846,TCR,2024-06-24_14h43.33.343,LearnStrategy,2023.2.3,Win32,60.24096386,5,1,3,0.005087953,-0.000288073,1,0,0,0.8859,rock_grid_rect_2,4,13,-1,-1,0.886,-0.087386762,-0.25089446,1,0,0,0.7408,Basalt_rect,2,0.741,0,2,0,2,0,1,,,,,,,,,,,,,
56bd7bf3d4e2180005a86846,TCR,2024-06-24_14h43.33.343,LearnStrategy,2023.2.3,Win32,60.24096386,5,1,4,0.101261658,0.014507881,1,0,0,0.8752,rock_grid_rect_2,1,01,-1,-1,0.875,0.114208118,-0.413649913,1,0,0,1.4997,Peridotite_rect,7,1.5,0,3,0,3,0,1,,,,,,,,,,,,,
56bd7bf3d4e2180005a86846,TCR,2024-06-24_14h43.33.343,LearnStrategy,2023.2.3,Win32,60.24096386,5,1,5,-0.056870106,0.017282123,1,0,0,0.8774,rock_grid_rect_2,2,06,-1,-1,0.877,-0.352789058,-0.252743954,1,0,0,1.1049,Andesite_rect,1,1.105,0,4,0,4,0,1,,,,,,,,,,,,,
56bd7bf3d4e2180005a86846,TCR,2024-06-24_14h43.33.343,LearnStrategy,2023.2.3,Win32,60.24096386,5,1,6,0.044852081,-0.021557258,1,0,0,0.8204,rock_grid_rect_2,1,14,-1,-1,0.82,0.105885393,-0.267539909,1,0,0,2.1433,Diorite_rect,3,2.143,0,5,0,5,0,1,,,,,,,,,,,,,
56bd7bf3d4e2180005a86846,TCR,2024-06-24_14h43.33.343,LearnStrategy,2023.2.3,Win32,60.24096386,5,1,7,0.068895507,0.008959399,1,0,0,0.7473,rock_grid_rect_2,4,13,-1,-1,0.747,0.389782678,-0.249044966,1,0,0,2.6467,Gabbro_rect,4,2.647,1,6,0,6,0,1,,,,,,,,,,,,,
56bd7bf3d4e2180005a86846,TCR,2024-06-24_14h43.33.343,LearnStrategy,2023.2.3,Win32,60.24096386,5,1,8,0.010636436,-0.002137567,1,0,0,0.7776,rock_grid_rect_2,2,14,-1,-1,0.778,-0.095709487,-0.259217184,1,0,0,1.8445,Basalt_rect,2,1.845,1,7,0,7,0,1,,,,,,,,,,,,,
56bd7bf3d4e2180005a86846,TCR,2024-06-24_14h43.33.343,LearnStrategy,2023.2.3,Win32,60.24096386,5,1,9,-0.00693376,0.007109904,1,0,0,0.7623,rock_grid_rect_2,8,10,-1,-1,0.762,0.08739045,-0.259217184,1,0,0,0.7119,Diorite_rect,3,0.712,0,8,0,8,0,1,,,,,,,,,,,,,
56bd7bf3d4e2180005a86846,TCR,2024-06-24_14h43.33.343,LearnStrategy,2023.2.3,Win32,60.24096386,5,1,10,0.030980874,-0.003987062,1,0,0,0.8261,rock_grid_rect_2,8,05,-1,-1,0.826,0.136402049,-0.242571736,1,0,0,0.8742,Diorite_rect,3,0.874,0,9,0,9,0,1,,,,,,,,,,,,,
56bd7bf3d4e2180005a86846,TCR,2024-06-24_14h43.33.343,LearnStrategy,2023.2.3,Win32,60.24096386,5,1,11,0.068895507,0.001561421,1,0,0,0.9315,rock_grid_rect_2,6,05,-1,-1,0.932,-0.146570534,-0.387756993,1,0,0,1.0379,Pegmatite_rect,6,1.038,1,10,0,10,0,1,,,,,,,,,,,,,
56bd7bf3d4e2180005a86846,TCR,2024-06-24_14h43.33.343,LearnStrategy,2023.2.3,Win32,60.24096386,5,1,12,0.025432391,0.019131617,1,0,0,0.7589,rock_grid_rect_2,3,16,-1,-1,0.759,0.157671234,-0.406251936,1,0,0,0.9539,Peridotite_rect,7,0.954,0,11,0,11,0,1,,,,,,,,,,,,,
56bd7bf3d4e2180005a86846,TCR,2024-06-24_14h43.33.343,LearnStrategy,2023.2.3,Win32,60.24096386,5,1,13,0.000464218,0.003410916,1,0,0,0.6306,rock_grid_rect_2,2,05,-1,-1,0.631,0.335222596,-0.271238898,1,0,0,1.8338,Gabbro_rect,4,1.834,0,12,0,12,0,1,,,,,,,,,,,,,
56bd7bf3d4e2180005a86846,TCR,2024-06-24_14h43.33.343,LearnStrategy,2023.2.3,Win32,60.24096386,5,1,14,-0.101257877,-0.019707763,1,0,0,0.7952,rock_grid_rect_2,6,12,-1,-1,0.795,0.348169056,-0.25089446,1,0,0,1.2464,Gabbro_rect,4,1.246,0,13,0,13,0,1,,,,,,,,,,,,,
56bd7bf3d4e2180005a86846,TCR,2024-06-24_14h43.33.343,LearnStrategy,2023.2.3,Win32,60.24096386,5,1,15,0.014335425,0.007109904,1,0,0,0.8154,rock_grid_rect_2,7,15,-1,-1,0.815,0.073519243,-0.246270724,1,0,0,0.505,Diorite_rect,3,0.505,0,14,0,14,0,1,,,,,,,,,,,,,
56bd7bf3d4e2180005a86846,TCR,2024-06-24_14h43.33.343,LearnStrategy,2023.2.3,Win32,60.24096386,5,1,16,-0.070741313,-0.008610797,1,0,0,1.7137,rock_grid_rect_2,7,08,-1,-1,1.714,-0.105881613,-0.24442123,1,0,0,0.5223,Basalt_rect,2,0.522,0,15,0,15,0,1,,,,,,,,,,,,,
56bd7bf3d4e2180005a86846,TCR,2024-06-24_14h43.33.343,LearnStrategy,2023.2.3,Win32,60.24096386,5,2,1,,,,,,,,5,07,,,,,,,,,,,8,0.658,0,,,,,,0.368513493,-0.389606487,1,0,0,0.6583,Pumice_rect,0,0,0,0,1,
56bd7bf3d4e2180005a86846,TCR,2024-06-24_14h43.33.343,LearnStrategy,2023.2.3,Win32,60.24096386,5,2,2,,,,,,,,4,11,,,,,,,,,,,3,0.735,0,,,,,,0.079067726,-0.237023253,1,0,0,0.7352,Diorite_rect,1,0,1,0,1,
56bd7bf3d4e2180005a86846,TCR,2024-06-24_14h43.33.343,LearnStrategy,2023.2.3,Win32,60.24096386,5,2,3,,,,,,,,1,11,,,,,,,,,,,1,2.055,1,,,,,,-0.387004702,-0.261066679,1,0,0,2.0552,Andesite_rect,2,0,2,0,1,
56bd7bf3d4e2180005a86846,TCR,2024-06-24_14h43.33.343,LearnStrategy,2023.2.3,Win32,60.24096386,5,2,4,,,,,,,,8,13,,,,,,,,,,,6,1.032,0,,,,,,-0.193732547,-0.416424155,1,0,0,1.0323,Pegmatite_rect,3,0,3,0,1,
56bd7bf3d4e2180005a86846,TCR,2024-06-24_14h43.33.343,LearnStrategy,2023.2.3,Win32,60.24096386,5,2,5,,,,,,,,1,10,,,,,,,,,,,2,1.029,0,,,,,,-0.056870106,-0.248120219,1,0,0,1.029,Basalt_rect,4,0,4,0,1,
56bd7bf3d4e2180005a86846,TCR,2024-06-24_14h43.33.343,LearnStrategy,2023.2.3,Win32,60.24096386,5,2,6,,,,,,,,2,10,,,,,,,,,,,4,1.735,0,,,,,,0.399954897,-0.261066679,1,0,0,1.7348,Gabbro_rect,5,0,5,0,1,
56bd7bf3d4e2180005a86846,TCR,2024-06-24_14h43.33.343,LearnStrategy,2023.2.3,Win32,60.24096386,5,2,7,,,,,,,,2,04,,,,,,,,,,,4,1.117,0,,,,,,0.490580118,-0.261991426,1,0,0,1.1167,Gabbro_rect,6,0,6,0,1,
56bd7bf3d4e2180005a86846,TCR,2024-06-24_14h43.33.343,LearnStrategy,2023.2.3,Win32,60.24096386,5,2,8,,,,,,,,4,05,,,,,,,,,,,8,0.312,0,,,,,,0.447117002,-0.407176683,1,0,0,0.3121,Pumice_rect,7,0,7,0,1,
56bd7bf3d4e2180005a86846,TCR,2024-06-24_14h43.33.343,LearnStrategy,2023.2.3,Win32,60.24096386,5,2,9,,,,,,,,3,13,,,,,,,,,,,5,2.003,0,,,,,,-0.506297063,-0.421972638,1,0,0,2.0028,Obsidian_rect,8,0,8,0,1,
56bd7bf3d4e2180005a86846,TCR,2024-06-24_14h43.33.343,LearnStrategy,2023.2.3,Win32,60.24096386,5,2,10,,,,,,,,6,03,,,,,,,,,,,1,1.338,0,,,,,,-0.448038015,-0.242571736,1,0,0,1.3381,Andesite_rect,9,0,9,0,1,
56bd7bf3d4e2180005a86846,TCR,2024-06-24_14h43.33.343,LearnStrategy,2023.2.3,Win32,60.24096386,5,2,11,,,,,,,,5,12,,,,,,,,,,,5,1.119,1,,,,,,-0.380531472,-0.410875672,1,0,0,1.1185,Obsidian_rect,10,0,10,0,1,
56bd7bf3d4e2180005a86846,TCR,2024-06-24_14h43.33.343,LearnStrategy,2023.2.3,Win32,60.24096386,5,2,12,,,,,,,,6,11,,,,,,,,,,,6,0.95,1,,,,,,-0.175237696,-0.403477695,1,0,0,0.9501,Pegmatite_rect,11,0,11,0,1,
56bd7bf3d4e2180005a86846,TCR,2024-06-24_14h43.33.343,LearnStrategy,2023.2.3,Win32,60.24096386,5,2,13,,,,,,,,7,10,,,,,,,,,,,1,1.042,0,,,,,,-0.374982989,-0.249969713,1,0,0,1.0422,Andesite_rect,12,0,12,0,1,
56bd7bf3d4e2180005a86846,TCR,2024-06-24_14h43.33.343,LearnStrategy,2023.2.3,Win32,60.24096386,5,2,14,,,,,,,,3,10,,,,,,,,,,,3,0.941,1,,,,,,0.201134443,-0.23147477,1,0,0,0.9409,Diorite_rect,13,0,13,0,1,
56bd7bf3d4e2180005a86846,TCR,2024-06-24_14h43.33.343,LearnStrategy,2023.2.3,Win32,60.24096386,5,2,15,,,,,,,,8,08,,,,,,,,,,,3,0.504,0,,,,,,0.19558596,-0.232399517,1,0,0,0.5036,Diorite_rect,14,0,14,0,1,
56bd7bf3d4e2180005a86846,TCR,2024-06-24_14h43.33.343,LearnStrategy,2023.2.3,Win32,60.24096386,5,2,16,,,,,,,,7,04,,,,,,,,,,,2,0.958,0,,,,,,-0.178936592,-0.26384092,1,0,0,0.9575,Basalt_rect,15,0,15,0,1,
56bd7bf3d4e2180005a86846,TCR,2024-06-24_14h43.33.343,LearnStrategy,2023.2.3,Win32,60.24096386,6,1,1,0.010636436,0.022830606,1,0,0,1.6703,rock_grid_rect_2,2,14,-1,-1,1.67,-0.134548821,-0.25736769,1,0,0,1.5991,Basalt_rect,2,1.599,1,0,0,0,0,1,,,,,,,,,,,,,
56bd7bf3d4e2180005a86846,TCR,2024-06-24_14h43.33.343,LearnStrategy,2023.2.3,Win32,60.24096386,6,1,2,0.129004072,0.002486168,1,0,0,1.0148,rock_grid_rect_2,3,06,-1,-1,1.015,0.417525093,-0.249969713,1,0,0,1.0214,Gabbro_rect,4,1.021,0,1,0,1,0,1,,,,,,,,,,,,,
56bd7bf3d4e2180005a86846,TCR,2024-06-24_14h43.33.343,LearnStrategy,2023.2.3,Win32,60.24096386,6,1,3,0.075368737,-0.000288073,1,0,0,0.7646,rock_grid_rect_2,2,09,-1,-1,0.765,0.091089439,-0.237948,1,0,0,0.4358,Diorite_rect,3,0.436,0,2,0,2,0,1,,,,,,,,,,,,,
56bd7bf3d4e2180005a86846,TCR,2024-06-24_14h43.33.343,LearnStrategy,2023.2.3,Win32,60.24096386,6,1,4,-0.035600829,0.00526041,1,0,0,0.8647,rock_grid_rect_2,5,02,-1,-1,0.865,-0.41382237,-0.253668702,1,0,0,0.786,Andesite_rect,1,0.786,0,3,0,3,0,1,,,,,,,,,,,,,
56bd7bf3d4e2180005a86846,TCR,2024-06-24_14h43.33.343,LearnStrategy,2023.2.3,Win32,60.24096386,6,1,5,-0.018955473,0.000636674,1,0,0,4.6938,rock_grid_rect_2,2,06,-1,-1,4.694,0.1687682,-0.412725166,1,0,0,1.6976,Peridotite_rect,7,1.698,0,4,0,4,0,1,,,,,,,,,,,,,
56bd7bf3d4e2180005a86846,TCR,2024-06-24_14h43.33.343,LearnStrategy,2023.2.3,Win32,60.24096386,6,1,6,-0.010632748,0.009884146,1,0,0,0.8,rock_grid_rect_2,7,15,-1,-1,0.8,-0.380531472,-0.255518196,1,0,0,1.3339,Andesite_rect,1,1.334,0,5,0,5,0,1,,,,,,,,,,,,,
56bd7bf3d4e2180005a86846,TCR,2024-06-24_14h43.33.343,LearnStrategy,2023.2.3,Win32,60.24096386,6,1,7,0.024507644,0.007109904,1,0,0,48.0889,rock_grid_rect_2,3,07,-1,-1,48.089,0.174316683,-0.238872747,1,0,0,0.8956,Diorite_rect,3,0.896,1,6,0,6,0,1,,,,,,,,,,,,,
56bd7bf3d4e2180005a86846,TCR,2024-06-24_14h43.33.343,LearnStrategy,2023.2.3,Win32,60.24096386,6,1,8,-0.069816566,-0.022482005,1,0,0,1.5134,rock_grid_rect_2,6,16,-1,-1,1.513,-0.145645787,-0.396079717,1,0,0,1.284,Pegmatite_rect,6,1.284,1,7,0,7,0,1,,,,,,,,,,,,,
56bd7bf3d4e2180005a86846,TCR,2024-06-24_14h43.33.343,LearnStrategy,2023.2.3,Win32,60.24096386,6,1,9,-0.135473568,0.002486168,1,0,0,1.114,rock_grid_rect_2,7,13,-1,-1,1.114,-0.340767299,-0.255518196,1,0,0,0.8742,Andesite_rect,1,0.874,0,8,0,8,0,1,,,,,,,,,,,,,
56bd7bf3d4e2180005a86846,TCR,2024-06-24_14h43.33.343,LearnStrategy,2023.2.3,Win32,60.24096386,6,1,10,0.179865166,-0.002137567,1,0,0,1.6969,rock_grid_rect_2,8,14,-1,-1,1.697,0.361115516,-0.253668702,1,0,0,0.8665,Gabbro_rect,4,0.866,0,9,0,9,0,1,,,,,,,,,,,,,
56bd7bf3d4e2180005a86846,TCR,2024-06-24_14h43.33.343,LearnStrategy,2023.2.3,Win32,60.24096386,6,1,11,0.027281885,-0.019707763,1,0,0,12.6549,rock_grid_rect_2,1,14,-1,-1,12.655,0.122530842,-0.256442943,1,0,0,6.252,Diorite_rect,3,6.252,0,10,0,10,0,1,,,,,,,,,,,,,
56bd7bf3d4e2180005a86846,TCR,2024-06-24_14h43.33.343,LearnStrategy,2023.2.3,Win32,60.24096386,6,1,12,-0.029127599,-0.006761303,1,0,0,0.9206,rock_grid_rect_2,4,10,-1,-1,0.921,-0.145645787,-0.25736769,1,0,0,1.0905,Basalt_rect,2,1.091,0,11,0,11,0,1,,,,,,,,,,,,,
56bd7bf3d4e2180005a86846,TCR,2024-06-24_14h43.33.343,LearnStrategy,2023.2.3,Win32,60.24096386,6,1,13,-0.084612521,0.014507881,1,0,0,0.7313,rock_grid_rect_2,6,15,-1,-1,0.731,-0.385155208,-0.258292437,1,0,0,0.6643,Andesite_rect,1,0.664,0,12,0,12,0,1,,,,,,,,,,,,,
56bd7bf3d4e2180005a86846,TCR,2024-06-24_14h43.33.343,LearnStrategy,2023.2.3,Win32,60.24096386,6,1,14,0.062422277,-0.017858269,1,0,0,0.8142,rock_grid_rect_2,8,15,-1,-1,0.814,0.336147343,-0.390531235,1,0,0,0.7331,Pumice_rect,8,0.733,1,13,0,13,0,1,,,,,,,,,,,,,
56bd7bf3d4e2180005a86846,TCR,2024-06-24_14h43.33.343,LearnStrategy,2023.2.3,Win32,60.24096386,6,1,15,-0.007858507,0.013583134,1,0,0,1.0123,rock_grid_rect_2,4,10,-1,-1,1.012,0.090164692,-0.241646989,1,0,0,0.6809,Diorite_rect,3,0.681,0,14,0,14,0,1,,,,,,,,,,,,,
56bd7bf3d4e2180005a86846,TCR,2024-06-24_14h43.33.343,LearnStrategy,2023.2.3,Win32,60.24096386,6,1,16,-0.064268083,0.019131617,1,0,0,0.8648,rock_grid_rect_2,1,01,-1,-1,0.865,-0.129925085,-0.38868174,1,0,0,1.0758,Pegmatite_rect,6,1.076,0,15,0,15,0,1,,,,,,,,,,,,,
56bd7bf3d4e2180005a86846,TCR,2024-06-24_14h43.33.343,LearnStrategy,2023.2.3,Win32,60.24096386,6,2,1,,,,,,,,2,08,,,,,,,,,,,3,1.808,0,,,,,,0.165069211,-0.234249011,1,0,0,1.8075,Diorite_rect,0,0,0,0,1,
56bd7bf3d4e2180005a86846,TCR,2024-06-24_14h43.33.343,LearnStrategy,2023.2.3,Win32,60.24096386,6,2,2,,,,,,,,8,03,,,,,,,,,,,3,1.269,0,,,,,,0.094788427,-0.243496483,1,0,0,1.2691,Diorite_rect,1,0,1,0,1,
56bd7bf3d4e2180005a86846,TCR,2024-06-24_14h43.33.343,LearnStrategy,2023.2.3,Win32,60.24096386,6,2,3,,,,,,,,1,16,,,,,,,,,,,8,1.396,0,,,,,,0.382384701,-0.38868174,1,0,0,1.396,Pumice_rect,2,0,2,0,1,
56bd7bf3d4e2180005a86846,TCR,2024-06-24_14h43.33.343,LearnStrategy,2023.2.3,Win32,60.24096386,6,2,4,,,,,,,,3,11,,,,,,,,,,,6,0.78,0,,,,,,-0.095709487,-0.398853959,1,0,0,0.78,Pegmatite_rect,3,0,3,0,1,
56bd7bf3d4e2180005a86846,TCR,2024-06-24_14h43.33.343,LearnStrategy,2023.2.3,Win32,60.24096386,6,2,5,,,,,,,,7,05,,,,,,,,,,,1,0.966,0,,,,,,-0.374982989,-0.260141932,1,0,0,0.9663,Andesite_rect,4,0,4,0,1,
56bd7bf3d4e2180005a86846,TCR,2024-06-24_14h43.33.343,LearnStrategy,2023.2.3,Win32,60.24096386,6,2,6,,,,,,,,4,16,,,,,,,,,,,4,0.79,1,,,,,,0.35001855,-0.241646989,1,0,0,0.7896,Gabbro_rect,5,0,5,0,1,
56bd7bf3d4e2180005a86846,TCR,2024-06-24_14h43.33.343,LearnStrategy,2023.2.3,Win32,60.24096386,6,2,7,,,,,,,,5,04,,,,,,,,,,,5,1.129,1,,,,,,-0.429543072,-0.384058004,1,0,0,1.1294,Obsidian_rect,6,0,6,0,1,
56bd7bf3d4e2180005a86846,TCR,2024-06-24_14h43.33.343,LearnStrategy,2023.2.3,Win32,60.24096386,6,2,8,,,,,,,,8,02,,,,,,,,,,,3,1.152,0,,,,,,0.073519243,-0.251819207,1,0,0,1.1522,Diorite_rect,7,0,7,0,1,
56bd7bf3d4e2180005a86846,TCR,2024-06-24_14h43.33.343,LearnStrategy,2023.2.3,Win32,60.24096386,6,2,9,,,,,,,,4,14,,,,,,,,,,,2,1.021,0,,,,,,-0.202980065,-0.260141932,1,0,0,1.0207,Basalt_rect,8,0,8,0,1,
56bd7bf3d4e2180005a86846,TCR,2024-06-24_14h43.33.343,LearnStrategy,2023.2.3,Win32,60.24096386,6,2,10,,,,,,,,5,08,,,,,,,,,,,1,1.349,0,,,,,,-0.438790543,-0.246270724,1,0,0,1.3488,Andesite_rect,9,0,9,0,1,
56bd7bf3d4e2180005a86846,TCR,2024-06-24_14h43.33.343,LearnStrategy,2023.2.3,Win32,60.24096386,6,2,11,,,,,,,,6,07,,,,,,,,,,,7,0.91,0,,,,,,0.070745001,-0.413649913,1,0,0,0.9101,Peridotite_rect,10,0,10,0,1,
56bd7bf3d4e2180005a86846,TCR,2024-06-24_14h43.33.343,LearnStrategy,2023.2.3,Win32,60.24096386,6,2,12,,,,,,,,2,16,,,,,,,,,,,8,0.946,0,,,,,,0.393481667,-0.379434269,1,0,0,0.9455,Pumice_rect,11,0,11,0,1,
56bd7bf3d4e2180005a86846,TCR,2024-06-24_14h43.33.343,LearnStrategy,2023.2.3,Win32,60.24096386,6,2,13,,,,,,,,6,09,,,,,,,,,,,2,1.207,0,,,,,,-0.086462015,-0.258292437,1,0,0,1.2075,Basalt_rect,12,0,12,0,1,
56bd7bf3d4e2180005a86846,TCR,2024-06-24_14h43.33.343,LearnStrategy,2023.2.3,Win32,60.24096386,6,2,14,,,,,,,,1,07,,,,,,,,,,,3,0.534,0,,,,,,0.06149753,-0.261991426,1,0,0,0.5337,Diorite_rect,13,0,13,0,1,
56bd7bf3d4e2180005a86846,TCR,2024-06-24_14h43.33.343,LearnStrategy,2023.2.3,Win32,60.24096386,6,2,15,,,,,,,,3,14,,,,,,,,,,,3,0.388,1,,,,,,0.06149753,-0.262916173,1,0,0,0.3884,Diorite_rect,14,0,14,0,1,
56bd7bf3d4e2180005a86846,TCR,2024-06-24_14h43.33.343,LearnStrategy,2023.2.3,Win32,60.24096386,6,2,16,,,,,,,,7,07,,,,,,,,,,,4,1.506,0,,,,,,0.348169056,-0.261991426,1,0,0,1.5061,Gabbro_rect,15,0,15,0,1,
56bd7bf3d4e2180005a86846,TCR,2024-06-24_14h43.33.343,LearnStrategy,2023.2.3,Win32,60.24096386,7,1,1,0.016184919,-0.008610797,1,0,0,13.3222,rock_grid_rect_2,3,16,-1,-1,13.322,0.085540956,-0.242571736,1,0,0,1.4787,Diorite_rect,3,1.479,1,0,0,0,0,1,,,,,,,,,,,,,
56bd7bf3d4e2180005a86846,TCR,2024-06-24_14h43.33.343,LearnStrategy,2023.2.3,Win32,60.24096386,7,1,2,-0.05224637,-0.004911809,1,0,0,1.2305,rock_grid_rect_2,5,10,-1,-1,1.231,-0.43324206,-0.232399517,1,0,0,1.5997,Andesite_rect,1,1.6,0,1,0,1,0,1,,,,,,,,,,,,,
56bd7bf3d4e2180005a86846,TCR,2024-06-24_14h43.33.343,LearnStrategy,2023.2.3,Win32,60.24096386,7,1,3,-0.149344776,-0.011385039,1,0,0,1.3623,rock_grid_rect_2,8,10,-1,-1,1.362,-0.345391034,-0.394230223,1,0,0,1.1498,Obsidian_rect,5,1.15,0,2,0,2,0,1,,,,,,,,,,,,,
56bd7bf3d4e2180005a86846,TCR,2024-06-24_14h43.33.343,LearnStrategy,2023.2.3,Win32,60.24096386,7,1,4,0.015260172,-0.024331499,1,0,0,1.5293,rock_grid_rect_2,1,01,-1,-1,1.529,0.092938933,-0.262916173,1,0,0,1.7369,Diorite_rect,3,1.737,0,3,0,3,0,1,,,,,,,,,,,,,
56bd7bf3d4e2180005a86846,TCR,2024-06-24_14h43.33.343,LearnStrategy,2023.2.3,Win32,60.24096386,7,1,5,0.153972245,-0.015084028,1,0,0,0.8679,rock_grid_rect_2,1,06,-1,-1,0.868,0.411051863,-0.243496483,1,0,0,0.8621,Gabbro_rect,4,0.862,0,4,0,4,0,1,,,,,,,,,,,,,
56bd7bf3d4e2180005a86846,TCR,2024-06-24_14h43.33.343,LearnStrategy,2023.2.3,Win32,60.24096386,7,1,6,-0.147495281,-0.002137567,1,0,0,2.9452,rock_grid_rect_2,3,02,-1,-1,2.945,-0.11327959,-0.412725166,1,0,0,1.4326,Pegmatite_rect,6,1.433,0,5,0,5,0,1,,,,,,,,,,,,,
56bd7bf3d4e2180005a86846,TCR,2024-06-24_14h43.33.343,LearnStrategy,2023.2.3,Win32,60.24096386,7,1,7,0.044852081,0.007109904,1,0,0,1.2478,rock_grid_rect_2,7,14,-1,-1,1.248,0.085540956,-0.393305476,1,0,0,1.3033,Peridotite_rect,7,1.303,1,6,0,6,0,1,,,,,,,,,,,,,
56bd7bf3d4e2180005a86846,TCR,2024-06-24_14h43.33.343,LearnStrategy,2023.2.3,Win32,60.24096386,7,1,8,-0.135473568,-0.012309786,1,0,0,1.1308,rock_grid_rect_2,7,08,-1,-1,1.131,-0.388854197,-0.253668702,1,0,0,0.7681,Andesite_rect,1,0.768,0,7,0,7,0,1,,,,,,,,,,,,,
56bd7bf3d4e2180005a86846,TCR,2024-06-24_14h43.33.343,LearnStrategy,2023.2.3,Win32,60.24096386,7,1,9,-0.017105978,-0.003062314,1,0,0,0.9949,rock_grid_rect_2,6,05,-1,-1,0.995,0.360190769,-0.249044966,1,0,0,0.7446,Gabbro_rect,4,0.745,0,8,0,8,0,1,,,,,,,,,,,,,
56bd7bf3d4e2180005a86846,TCR,2024-06-24_14h43.33.343,LearnStrategy,2023.2.3,Win32,60.24096386,7,1,10,0.003238459,0.007109904,1,0,0,0.7808,rock_grid_rect_2,6,12,-1,-1,0.781,0.070745001,-0.253668702,1,0,0,1.2474,Diorite_rect,3,1.247,0,9,0,9,0,1,,,,,,,,,,,,,
56bd7bf3d4e2180005a86846,TCR,2024-06-24_14h43.33.343,LearnStrategy,2023.2.3,Win32,60.24096386,7,1,11,-0.022654461,-0.010460292,1,0,0,0.8601,rock_grid_rect_2,2,01,-1,-1,0.86,-0.135473568,-0.40810143,1,0,0,1.0262,Pegmatite_rect,6,1.026,0,10,0,10,0,1,,,,,,,,,,,,,
56bd7bf3d4e2180005a86846,TCR,2024-06-24_14h43.33.343,LearnStrategy,2023.2.3,Win32,60.24096386,7,1,12,-0.115129131,-0.021557258,1,0,0,0.8646,rock_grid_rect_2,2,12,-1,-1,0.865,-0.042998807,-0.236098506,1,0,0,0.6477,Basalt_rect,2,0.648,1,11,0,11,0,1,,,,,,,,,,,,,
56bd7bf3d4e2180005a86846,TCR,2024-06-24_14h43.33.343,LearnStrategy,2023.2.3,Win32,60.24096386,7,1,13,-0.012482243,-0.021557258,1,0,0,0.8329,rock_grid_rect_2,4,10,-1,-1,0.833,0.104035899,-0.253668702,1,0,0,1.2299,Diorite_rect,3,1.23,0,12,0,12,0,1,,,,,,,,,,,,,
56bd7bf3d4e2180005a86846,TCR,2024-06-24_14h43.33.343,LearnStrategy,2023.2.3,Win32,60.24096386,7,1,14,0.060572783,-0.006761303,1,0,0,1.0977,rock_grid_rect_2,8,10,-1,-1,1.098,0.112358623,-0.397929212,1,0,0,1.042,Peridotite_rect,7,1.042,0,13,0,13,0,1,,,,,,,,,,,,,
56bd7bf3d4e2180005a86846,TCR,2024-06-24_14h43.33.343,LearnStrategy,2023.2.3,Win32,60.24096386,7,1,15,-0.018955473,-0.015084028,1,0,0,0.7147,rock_grid_rect_2,2,05,-1,-1,0.715,0.403653885,-0.241646989,1,0,0,0.7226,Gabbro_rect,4,0.723,0,14,0,14,0,1,,,,,,,,,,,,,
56bd7bf3d4e2180005a86846,TCR,2024-06-24_14h43.33.343,LearnStrategy,2023.2.3,Win32,60.24096386,7,1,16,-0.098483728,-0.011385039,1,0,0,1.0309,rock_grid_rect_2,4,15,-1,-1,1.031,-0.371284001,-0.228700528,1,0,0,0.8704,Andesite_rect,1,0.87,0,15,0,15,0,1,,,,,,,,,,,,,
56bd7bf3d4e2180005a86846,TCR,2024-06-24_14h43.33.343,LearnStrategy,2023.2.3,Win32,60.24096386,7,2,1,,,,,,,,5,12,,,,,,,,,,,1,4.504,0,,,,,,-0.352789058,-0.261066679,1,0,0,4.5036,Andesite_rect,0,0,0,0,1,
56bd7bf3d4e2180005a86846,TCR,2024-06-24_14h43.33.343,LearnStrategy,2023.2.3,Win32,60.24096386,7,2,2,,,,,,,,4,01,,,,,,,,,,,3,1.836,0,,,,,,0.131778314,-0.229625275,1,0,0,1.8364,Diorite_rect,1,0,1,0,1,
56bd7bf3d4e2180005a86846,TCR,2024-06-24_14h43.33.343,LearnStrategy,2023.2.3,Win32,60.24096386,7,2,3,,,,,,,,4,16,,,,,,,,,,,4,12.361,1,,,,,,0.392556919,-0.25736769,1,0,0,12.3609,Gabbro_rect,2,0,2,0,1,
56bd7bf3d4e2180005a86846,TCR,2024-06-24_14h43.33.343,LearnStrategy,2023.2.3,Win32,60.24096386,7,2,4,,,,,,,,5,04,,,,,,,,,,,2,1.167,0,,,,,,-0.092010498,-0.230550023,1,0,0,1.1666,Basalt_rect,3,0,3,0,1,
56bd7bf3d4e2180005a86846,TCR,2024-06-24_14h43.33.343,LearnStrategy,2023.2.3,Win32,60.24096386,7,2,5,,,,,,,,3,14,,,,,,,,,,,1,5.433,0,,,,,,-0.332444666,-0.26384092,1,0,0,5.4332,Andesite_rect,4,0,4,0,1,
56bd7bf3d4e2180005a86846,TCR,2024-06-24_14h43.33.343,LearnStrategy,2023.2.3,Win32,60.24096386,7,2,6,,,,,,,,1,10,,,,,,,,,,,6,0.866,0,,,,,,-0.17061396,-0.413649913,1,0,0,0.8662,Pegmatite_rect,5,0,5,0,1,
56bd7bf3d4e2180005a86846,TCR,2024-06-24_14h43.33.343,LearnStrategy,2023.2.3,Win32,60.24096386,7,2,7,,,,,,,,3,10,,,,,,,,,,,3,0.714,1,,,,,,0.0550243,-0.251819207,1,0,0,0.7143,Diorite_rect,6,0,6,0,1,
56bd7bf3d4e2180005a86846,TCR,2024-06-24_14h43.33.343,LearnStrategy,2023.2.3,Win32,60.24096386,7,2,8,,,,,,,,7,04,,,,,,,,,,,2,1.1,0,,,,,,-0.152119017,-0.247195471,1,0,0,1.1003,Basalt_rect,7,0,7,0,1,
56bd7bf3d4e2180005a86846,TCR,2024-06-24_14h43.33.343,LearnStrategy,2023.2.3,Win32,60.24096386,7,2,9,,,,,,,,2,04,,,,,,,,,,,4,1.123,0,,,,,,0.348169056,-0.27031415,1,0,0,1.1228,Gabbro_rect,8,0,8,0,1,
56bd7bf3d4e2180005a86846,TCR,2024-06-24_14h43.33.343,LearnStrategy,2023.2.3,Win32,60.24096386,7,2,10,,,,,,,,6,11,,,,,,,,,,,7,1.12,0,,,,,,0.225177684,-0.39515497,1,0,0,1.1196,Peridotite_rect,9,0,9,0,1,
56bd7bf3d4e2180005a86846,TCR,2024-06-24_14h43.33.343,LearnStrategy,2023.2.3,Win32,60.24096386,7,2,11,,,,,,,,8,02,,,,,,,,,,,5,1.126,0,,,,,,-0.325971436,-0.407176683,1,0,0,1.126,Obsidian_rect,10,0,10,0,1,
56bd7bf3d4e2180005a86846,TCR,2024-06-24_14h43.33.343,LearnStrategy,2023.2.3,Win32,60.24096386,7,2,12,,,,,,,,2,16,,,,,,,,,,,2,0.658,1,,,,,,-0.15119427,-0.264765667,1,0,0,0.6584,Basalt_rect,11,0,11,0,1,
56bd7bf3d4e2180005a86846,TCR,2024-06-24_14h43.33.343,LearnStrategy,2023.2.3,Win32,60.24096386,7,2,13,,,,,,,,8,08,,,,,,,,,,,7,6.859,0,,,,,,0.06797076,-0.390531235,1,0,0,6.8593,Peridotite_rect,12,0,12,0,1,
56bd7bf3d4e2180005a86846,TCR,2024-06-24_14h43.33.343,LearnStrategy,2023.2.3,Win32,60.24096386,7,2,14,,,,,,,,7,02,,,,,,,,,,,2,0.775,0,,,,,,-0.092010498,-0.23147477,1,0,0,0.775,Basalt_rect,13,0,13,0,1,
56bd7bf3d4e2180005a86846,TCR,2024-06-24_14h43.33.343,LearnStrategy,2023.2.3,Win32,60.24096386,7,2,15,,,,,,,,6,07,,,,,,,,,,,3,0.886,0,,,,,,0.105885393,-0.251819207,1,0,0,0.8865,Diorite_rect,14,0,14,0,1,
56bd7bf3d4e2180005a86846,TCR,2024-06-24_14h43.33.343,LearnStrategy,2023.2.3,Win32,60.24096386,7,2,16,,,,,,,,1,04,,,,,,,,,,,1,1.705,1,,,,,,-0.336143563,-0.228700528,1,0,0,1.7049,Andesite_rect,15,0,15,0,1,
56bd7bf3d4e2180005a86846,TCR,2024-06-24_14h43.33.343,LearnStrategy,2023.2.3,Win32,60.24096386,8,1,1,-0.115129131,-0.00768605,1,0,0,17.4506,rock_grid_rect_2,7,14,-1,-1,17.451,-0.10680636,-0.23147477,1,0,0,0.7087,Basalt_rect,2,0.709,0,0,0,0,0,1,,,,,,,,,,,,,
56bd7bf3d4e2180005a86846,TCR,2024-06-24_14h43.33.343,LearnStrategy,2023.2.3,Win32,60.24096386,8,1,2,0.091089439,-0.00768605,1,0,0,0.8613,rock_grid_rect_2,4,08,-1,-1,0.861,0.203908684,-0.254593449,1,0,0,0.6057,Diorite_rect,3,0.606,0,1,0,1,0,1,,,,,,,,,,,,,
56bd7bf3d4e2180005a86846,TCR,2024-06-24_14h43.33.343,LearnStrategy,2023.2.3,Win32,60.24096386,8,1,3,-0.034676082,0.008034651,1,0,0,1.3832,rock_grid_rect_2,7,14,-1,-1,1.383,0.097562669,-0.252743954,1,0,0,0.9394,Diorite_rect,3,0.939,0,2,0,2,0,1,,,,,,,,,,,,,
56bd7bf3d4e2180005a86846,TCR,2024-06-24_14h43.33.343,LearnStrategy,2023.2.3,Win32,60.24096386,8,1,4,-0.059644348,0.004335663,1,0,0,0.8619,rock_grid_rect_2,3,15,-1,-1,0.862,-0.396252174,-0.245345977,1,0,0,0.8266,Andesite_rect,1,0.827,0,3,0,3,0,1,,,,,,,,,,,,,
56bd7bf3d4e2180005a86846,TCR,2024-06-24_14h43.33.343,LearnStrategy,2023.2.3,Win32,60.24096386,8,1,5,-0.10033313,0.012658387,1,0,0,0.9765,rock_grid_rect_2,5,09,-1,-1,0.976,-0.141022051,-0.398853959,1,0,0,0.7841,Pegmatite_rect,6,0.784,0,4,0,4,0,1,,,,,,,,,,,,,
56bd7bf3d4e2180005a86846,TCR,2024-06-24_14h43.33.343,LearnStrategy,2023.2.3,Win32,60.24096386,8,1,6,0.016184919,0.008959399,1,0,0,0.8102,rock_grid_rect_2,1,01,-1,-1,0.81,0.327824619,-0.399778706,1,0,0,1.1374,Pumice_rect,8,1.137,0,5,0,5,0,1,,,,,,,,,,,,,
56bd7bf3d4e2180005a86846,TCR,2024-06-24_14h43.33.343,LearnStrategy,2023.2.3,Win32,60.24096386,8,1,7,-0.005084265,-0.017858269,1,0,0,0.9608,rock_grid_rect_2,8,16,-1,-1,0.961,0.33707209,-0.249969713,1,0,0,0.8969,Gabbro_rect,4,0.897,0,6,0,6,0,1,,,,,,,,,,,,,
56bd7bf3d4e2180005a86846,TCR,2024-06-24_14h43.33.343,LearnStrategy,2023.2.3,Win32,60.24096386,8,1,8,-0.056870106,0.020056364,1,0,0,1.0458,rock_grid_rect_2,5,10,-1,-1,1.046,-0.362036529,-0.416424155,1,0,0,0.6825,Obsidian_rect,5,0.683,1,7,0,7,0,1,,,,,,,,,,,,,
56bd7bf3d4e2180005a86846,TCR,2024-06-24_14h43.33.343,LearnStrategy,2023.2.3,Win32,60.24096386,8,1,9,-0.116053878,-0.005836556,1,0,0,0.7779,rock_grid_rect_2,4,10,-1,-1,0.778,-0.104956866,-0.26384092,1,0,0,0.8886,Basalt_rect,2,0.889,0,8,0,8,0,1,,,,,,,,,,,,,
56bd7bf3d4e2180005a86846,TCR,2024-06-24_14h43.33.343,LearnStrategy,2023.2.3,Win32,60.24096386,8,1,10,-0.04577314,-0.005836556,1,0,0,0.6642,rock_grid_rect_2,6,10,-1,-1,0.664,0.10033691,-0.38220851,1,0,0,1.1801,Peridotite_rect,7,1.18,0,9,0,9,0,1,,,,,,,,,,,,,
56bd7bf3d4e2180005a86846,TCR,2024-06-24_14h43.33.343,LearnStrategy,2023.2.3,Win32,60.24096386,8,1,11,0.018959161,-0.005836556,1,0,0,1.0815,rock_grid_rect_2,2,09,-1,-1,1.082,0.111433876,-0.256442943,1,0,0,0.7567,Diorite_rect,3,0.757,0,10,0,10,0,1,,,,,,,,,,,,,
56bd7bf3d4e2180005a86846,TCR,2024-06-24_14h43.33.343,LearnStrategy,2023.2.3,Win32,60.24096386,8,1,12,-0.096634234,0.008034651,1,0,0,0.9118,rock_grid_rect_2,6,12,-1,-1,0.912,-0.109580602,-0.389606487,1,0,0,0.7993,Pegmatite_rect,6,0.799,1,11,0,11,0,1,,,,,,,,,,,,,
56bd7bf3d4e2180005a86846,TCR,2024-06-24_14h43.33.343,LearnStrategy,2023.2.3,Win32,60.24096386,8,1,13,0.0060127,0.014507881,1,0,0,0.8149,rock_grid_rect_2,8,15,-1,-1,0.815,0.377760965,-0.265690415,1,0,0,1.0036,Gabbro_rect,4,1.004,0,12,0,12,0,1,,,,,,,,,,,,,
56bd7bf3d4e2180005a86846,TCR,2024-06-24_14h43.33.343,LearnStrategy,2023.2.3,Win32,60.24096386,8,1,14,-0.070741313,-0.004911809,1,0,0,1.1782,rock_grid_rect_2,3,06,-1,-1,1.178,-0.081838279,-0.230550023,1,0,0,0.5022,Basalt_rect,2,0.502,0,13,0,13,0,1,,,,,,,,,,,,,
56bd7bf3d4e2180005a86846,TCR,2024-06-24_14h43.33.343,LearnStrategy,2023.2.3,Win32,60.24096386,8,1,15,-0.023579209,0.012658387,1,0,0,1.2337,rock_grid_rect_2,1,09,-1,-1,1.234,0.123455589,-0.243496483,1,0,0,0.5103,Diorite_rect,3,0.51,0,14,0,14,0,1,,,,,,,,,,,,,
56bd7bf3d4e2180005a86846,TCR,2024-06-24_14h43.33.343,LearnStrategy,2023.2.3,Win32,60.24096386,8,1,16,-0.043923646,-0.003987062,1,0,0,1.0625,rock_grid_rect_2,2,01,-1,-1,1.063,-0.068891819,-0.235173758,1,0,0,1.1538,Basalt_rect,2,1.154,1,15,0,15,0,1,,,,,,,,,,,,,
56bd7bf3d4e2180005a86846,TCR,2024-06-24_14h43.33.343,LearnStrategy,2023.2.3,Win32,60.24096386,8,2,1,,,,,,,,3,11,,,,,,,,,,,3,7.207,1,,,,,,0.069820254,-0.251819207,1,0,0,7.2067,Diorite_rect,0,0,0,0,1,
56bd7bf3d4e2180005a86846,TCR,2024-06-24_14h43.33.343,LearnStrategy,2023.2.3,Win32,60.24096386,8,2,2,,,,,,,,3,09,,,,,,,,,,,8,1.759,0,,,,,,0.333373101,-0.394230223,1,0,0,1.7589,Pumice_rect,1,0,1,0,1,
56bd7bf3d4e2180005a86846,TCR,2024-06-24_14h43.33.343,LearnStrategy,2023.2.3,Win32,60.24096386,8,2,3,,,,,,,,6,06,,,,,,,,,,,7,0.832,0,,,,,,0.031905621,-0.390531235,1,0,0,0.832,Peridotite_rect,2,0,2,0,1,
56bd7bf3d4e2180005a86846,TCR,2024-06-24_14h43.33.343,LearnStrategy,2023.2.3,Win32,60.24096386,8,2,4,,,,,,,,2,08,,,,,,,,,,,2,1.482,1,,,,,,-0.134548821,-0.229625275,1,0,0,1.4817,Basalt_rect,3,0,3,0,1,
56bd7bf3d4e2180005a86846,TCR,2024-06-24_14h43.33.343,LearnStrategy,2023.2.3,Win32,60.24096386,8,2,5,,,,,,,,7,16,,,,,,,,,,,5,1.17,0,,,,,,-0.340767299,-0.381283763,1,0,0,1.1697,Obsidian_rect,4,0,4,0,1,
56bd7bf3d4e2180005a86846,TCR,2024-06-24_14h43.33.343,LearnStrategy,2023.2.3,Win32,60.24096386,8,2,6,,,,,,,,7,10,,,,,,,,,,,1,1.81,0,,,,,,-0.42676883,-0.228700528,1,0,0,1.8101,Andesite_rect,5,0,5,0,1,
56bd7bf3d4e2180005a86846,TCR,2024-06-24_14h43.33.343,LearnStrategy,2023.2.3,Win32,60.24096386,8,2,7,,,,,,,,1,07,,,,,,,,,,,4,1.876,0,,,,,,0.387008436,-0.240722241,1,0,0,1.8761,Gabbro_rect,6,0,6,0,1,
56bd7bf3d4e2180005a86846,TCR,2024-06-24_14h43.33.343,LearnStrategy,2023.2.3,Win32,60.24096386,8,2,8,,,,,,,,4,05,,,,,,,,,,,2,1.155,0,,,,,,-0.166914972,-0.259217184,1,0,0,1.1552,Basalt_rect,7,0,7,0,1,
56bd7bf3d4e2180005a86846,TCR,2024-06-24_14h43.33.343,LearnStrategy,2023.2.3,Win32,60.24096386,8,2,9,,,,,,,,8,09,,,,,,,,,,,3,0.986,0,,,,,,0.127154578,-0.258292437,1,0,0,0.9861,Diorite_rect,8,0,8,0,1,
56bd7bf3d4e2180005a86846,TCR,2024-06-24_14h43.33.343,LearnStrategy,2023.2.3,Win32,60.24096386,8,2,10,,,,,,,,8,13,,,,,,,,,,,8,0.879,1,,,,,,0.394406414,-0.406251936,1,0,0,0.8795,Pumice_rect,9,0,9,0,1,
56bd7bf3d4e2180005a86846,TCR,2024-06-24_14h43.33.343,LearnStrategy,2023.2.3,Win32,60.24096386,8,2,11,,,,,,,,5,07,,,,,,,,,,,5,0.966,1,,,,,,-0.334294161,-0.387756993,1,0,0,0.9663,Obsidian_rect,10,0,10,0,1,
56bd7bf3d4e2180005a86846,TCR,2024-06-24_14h43.33.343,LearnStrategy,2023.2.3,Win32,60.24096386,8,2,12,,,,,,,,2,11,,,,,,,,,,,1,0.752,0,,,,,,-0.371284001,-0.259217184,1,0,0,0.7521,Andesite_rect,11,0,11,0,1,
56bd7bf3d4e2180005a86846,TCR,2024-06-24_14h43.33.343,LearnStrategy,2023.2.3,Win32,60.24096386,8,2,13,,,,,,,,4,14,,,,,,,,,,,6,1.701,0,,,,,,-0.134548821,-0.421972638,1,0,0,1.7008,Pegmatite_rect,12,0,12,0,1,
56bd7bf3d4e2180005a86846,TCR,2024-06-24_14h43.33.343,LearnStrategy,2023.2.3,Win32,60.24096386,8,2,14,,,,,,,,1,03,,,,,,,,,,,4,1.882,0,,,,,,0.384234195,-0.27031415,1,0,0,1.8819,Gabbro_rect,13,0,13,0,1,
56bd7bf3d4e2180005a86846,TCR,2024-06-24_14h43.33.343,LearnStrategy,2023.2.3,Win32,60.24096386,8,2,15,,,,,,,,5,08,,,,,,,,,,,1,1.977,0,,,,,,-0.492425878,-0.247195471,1,0,0,1.9772,Andesite_rect,14,0,14,0,1,
56bd7bf3d4e2180005a86846,TCR,2024-06-24_14h43.33.343,LearnStrategy,2023.2.3,Win32,60.24096386,8,2,16,,,,,,,,6,03,,,,,,,,,,,6,1.322,1,,,,,,-0.185409822,-0.421972638,1,0,0,1.3225,Pegmatite_rect,15,0,15,0,1,
56bd7bf3d4e2180005a86846,TCR,2024-06-24_14h43.33.343,LearnStrategy,2023.2.3,Win32,60.24096386,9,1,1,0.169692947,-0.023406752,1,0,0,3.2601,rock_grid_rect_2,4,09,-1,-1,3.26,0.107734888,-0.261066679,1,0,0,2.1177,Diorite_rect,3,2.118,0,0,0,0,0,1,,,,,,,,,,,,,
56bd7bf3d4e2180005a86846,TCR,2024-06-24_14h43.33.343,LearnStrategy,2023.2.3,Win32,60.24096386,9,1,2,0.06149753,-0.019707763,1,0,0,0.7965,rock_grid_rect_2,1,06,-1,-1,0.797,0.192811718,-0.267539909,1,0,0,0.8104,Diorite_rect,3,0.81,0,1,0,1,0,1,,,,,,,,,,,,,
56bd7bf3d4e2180005a86846,TCR,2024-06-24_14h43.33.343,LearnStrategy,2023.2.3,Win32,60.24096386,9,1,3,0.071669749,0.016357376,1,0,0,0.8646,rock_grid_rect_2,2,06,-1,-1,0.865,-0.200205823,-0.264765667,1,0,0,1.1956,Basalt_rect,2,1.196,1,2,0,2,0,1,,,,,,,,,,,,,
56bd7bf3d4e2180005a86846,TCR,2024-06-24_14h43.33.343,LearnStrategy,2023.2.3,Win32,60.24096386,9,1,4,-0.006009013,-0.017858269,1,0,0,0.8139,rock_grid_rect_2,7,12,-1,-1,0.814,0.400879644,-0.397004465,1,0,0,1.0974,Pumice_rect,8,1.097,0,3,0,3,0,1,,,,,,,,,,,,,
56bd7bf3d4e2180005a86846,TCR,2024-06-24_14h43.33.343,LearnStrategy,2023.2.3,Win32,60.24096386,9,1,5,-0.0587196,-0.017858269,1,0,0,0.6679,rock_grid_rect_2,4,15,-1,-1,0.668,-0.130849832,-0.400703453,1,0,0,0.7772,Pegmatite_rect,6,0.777,0,4,0,4,0,1,,,,,,,,,,,,,
56bd7bf3d4e2180005a86846,TCR,2024-06-24_14h43.33.343,LearnStrategy,2023.2.3,Win32,60.24096386,9,1,6,-0.078139291,0.002486168,1,0,0,0.8312,rock_grid_rect_2,5,06,-1,-1,0.831,-0.398101668,-0.261991426,1,0,0,1.0545,Andesite_rect,1,1.054,0,5,0,5,0,1,,,,,,,,,,,,,
56bd7bf3d4e2180005a86846,TCR,2024-06-24_14h43.33.343,LearnStrategy,2023.2.3,Win32,60.24096386,9,1,7,-0.046697887,0.009884146,1,0,0,1.081,rock_grid_rect_2,5,11,-1,-1,1.081,-0.328745678,-0.243496483,1,0,0,1.0678,Andesite_rect,1,1.068,0,6,0,6,0,1,,,,,,,,,,,,,
56bd7bf3d4e2180005a86846,TCR,2024-06-24_14h43.33.343,LearnStrategy,2023.2.3,Win32,60.24096386,9,1,8,-0.117903372,0.004335663,1,0,0,0.6475,rock_grid_rect_2,6,15,-1,-1,0.648,-0.049472129,-0.248120219,1,0,0,0.6577,Basalt_rect,2,0.658,0,7,0,7,0,1,,,,,,,,,,,,,
56bd7bf3d4e2180005a86846,TCR,2024-06-24_14h43.33.343,LearnStrategy,2023.2.3,Win32,60.24096386,9,1,9,0.135477302,-0.021557258,1,0,0,0.818,rock_grid_rect_2,3,02,-1,-1,0.818,0.398105402,-0.266615162,1,0,0,0.5801,Gabbro_rect,4,0.58,0,8,0,8,0,1,,,,,,,,,,,,,
56bd7bf3d4e2180005a86846,TCR,2024-06-24_14h43.33.343,LearnStrategy,2023.2.3,Win32,60.24096386,9,1,10,-0.038375071,0.009884146,1,0,0,7.6756,rock_grid_rect_2,6,16,-1,-1,7.676,0.079067726,-0.249044966,1,0,0,0.6855,Diorite_rect,3,0.685,0,9,0,9,0,1,,,,,,,,,,,,,
56bd7bf3d4e2180005a86846,TCR,2024-06-24_14h43.33.343,LearnStrategy,2023.2.3,Win32,60.24096386,9,1,11,-0.0587196,0.023755353,1,0,0,0.8141,rock_grid_rect_2,1,01,-1,-1,0.814,-0.087386762,-0.393305476,1,0,0,1.3625,Pegmatite_rect,6,1.362,0,10,0,10,0,1,,,,,,,,,,,,,
56bd7bf3d4e2180005a86846,TCR,2024-06-24_14h43.33.343,LearnStrategy,2023.2.3,Win32,60.24096386,9,1,12,-0.116053878,-0.012309786,1,0,0,0.7808,rock_grid_rect_2,8,16,-1,-1,0.781,-0.072590808,-0.268464656,1,0,0,1.2474,Basalt_rect,2,1.247,0,11,0,11,0,1,,,,,,,,,,,,,
56bd7bf3d4e2180005a86846,TCR,2024-06-24_14h43.33.343,LearnStrategy,2023.2.3,Win32,60.24096386,9,1,13,-0.008783254,0.008034651,1,0,0,0.8147,rock_grid_rect_2,3,06,-1,-1,0.815,0.158595981,-0.39515497,1,0,0,0.6515,Peridotite_rect,7,0.651,0,12,0,12,0,1,,,,,,,,,,,,,
56bd7bf3d4e2180005a86846,TCR,2024-06-24_14h43.33.343,LearnStrategy,2023.2.3,Win32,60.24096386,9,1,14,0.014335425,0.004335663,1,0,0,0.8983,rock_grid_rect_2,2,12,-1,-1,0.898,0.399954897,-0.384982752,1,0,0,0.813,Pumice_rect,8,0.813,0,13,0,13,0,1,,,,,,,,,,,,,
56bd7bf3d4e2180005a86846,TCR,2024-06-24_14h43.33.343,LearnStrategy,2023.2.3,Win32,60.24096386,9,1,15,-0.005084265,0.000636674,1,0,0,1.1216,rock_grid_rect_2,7,15,-1,-1,1.122,0.118831853,-0.260141932,1,0,0,0.9869,Diorite_rect,3,0.987,0,14,0,14,0,1,,,,,,,,,,,,,
56bd7bf3d4e2180005a86846,TCR,2024-06-24_14h43.33.343,LearnStrategy,2023.2.3,Win32,60.24096386,9,1,16,-0.01988022,0.015432629,1,0,0,1.1663,rock_grid_rect_2,8,10,-1,-1,1.166,-0.081838279,-0.242571736,1,0,0,0.6917,Basalt_rect,2,0.692,0,15,0,15,0,1,,,,,,,,,,,,,
56bd7bf3d4e2180005a86846,TCR,2024-06-24_14h43.33.343,LearnStrategy,2023.2.3,Win32,60.24096386,9,2,1,,,,,,,,2,02,,,,,,,,,,,4,0.883,0,,,,,,0.364814505,-0.261991426,1,0,0,0.8826,Gabbro_rect,0,0,0,0,1,
56bd7bf3d4e2180005a86846,TCR,2024-06-24_14h43.33.343,LearnStrategy,2023.2.3,Win32,60.24096386,9,2,2,,,,,,,,1,16,,,,,,,,,,,6,1.269,0,,,,,,-0.136398315,-0.419198396,1,0,0,1.2693,Pegmatite_rect,1,0,1,0,1,
56bd7bf3d4e2180005a86846,TCR,2024-06-24_14h43.33.343,LearnStrategy,2023.2.3,Win32,60.24096386,9,2,3,,,,,,,,4,12,,,,,,,,,,,3,1.029,0,,,,,,0.086465703,-0.267539909,1,0,0,1.0294,Diorite_rect,2,0,2,0,1,
56bd7bf3d4e2180005a86846,TCR,2024-06-24_14h43.33.343,LearnStrategy,2023.2.3,Win32,60.24096386,9,2,4,,,,,,,,7,05,,,,,,,,,,,2,0.775,0,,,,,,-0.042074059,-0.249969713,1,0,0,0.775,Basalt_rect,3,0,3,0,1,
56bd7bf3d4e2180005a86846,TCR,2024-06-24_14h43.33.343,LearnStrategy,2023.2.3,Win32,60.24096386,9,2,5,,,,,,,,1,11,,,,,,,,,,,1,0.983,1,,,,,,-0.299153769,-0.238872747,1,0,0,0.9835,Andesite_rect,4,0,4,0,1,
56bd7bf3d4e2180005a86846,TCR,2024-06-24_14h43.33.343,LearnStrategy,2023.2.3,Win32,60.24096386,9,2,6,,,,,,,,6,13,,,,,,,,,,,5,0.708,0,,,,,,-0.320422953,-0.396079717,1,0,0,0.7078,Obsidian_rect,5,0,5,0,1,
56bd7bf3d4e2180005a86846,TCR,2024-06-24_14h43.33.343,LearnStrategy,2023.2.3,Win32,60.24096386,9,2,7,,,,,,,,5,05,,,,,,,,,,,8,0.758,0,,,,,,0.36296501,-0.398853959,1,0,0,0.7581,Pumice_rect,6,0,6,0,1,
56bd7bf3d4e2180005a86846,TCR,2024-06-24_14h43.33.343,LearnStrategy,2023.2.3,Win32,60.24096386,9,2,8,,,,,,,,6,09,,,,,,,,,,,3,0.519,0,,,,,,0.098487416,-0.252743954,1,0,0,0.5192,Diorite_rect,7,0,7,0,1,
56bd7bf3d4e2180005a86846,TCR,2024-06-24_14h43.33.343,LearnStrategy,2023.2.3,Win32,60.24096386,9,2,9,,,,,,,,3,13,,,,,,,,,,,2,0.924,0,,,,,,-0.065192831,-0.261066679,1,0,0,0.9243,Basalt_rect,8,0,8,0,1,
56bd7bf3d4e2180005a86846,TCR,2024-06-24_14h43.33.343,LearnStrategy,2023.2.3,Win32,60.24096386,9,2,10,,,,,,,,8,04,,,,,,,,,,,3,0.878,0,,,,,,0.141950532,-0.249969713,1,0,0,0.8775,Diorite_rect,9,0,9,0,1,
56bd7bf3d4e2180005a86846,TCR,2024-06-24_14h43.33.343,LearnStrategy,2023.2.3,Win32,60.24096386,9,2,11,,,,,,,,4,11,,,,,,,,,,,2,0.572,0,,,,,,-0.09478474,-0.249969713,1,0,0,0.5722,Basalt_rect,10,0,10,0,1,
56bd7bf3d4e2180005a86846,TCR,2024-06-24_14h43.33.343,LearnStrategy,2023.2.3,Win32,60.24096386,9,2,12,,,,,,,,8,03,,,,,,,,,,,1,1.383,0,,,,,,-0.362036529,-0.266615162,1,0,0,1.3828,Andesite_rect,11,0,11,0,1,
56bd7bf3d4e2180005a86846,TCR,2024-06-24_14h43.33.343,LearnStrategy,2023.2.3,Win32,60.24096386,9,2,13,,,,,,,,2,10,,,,,,,,,,,5,0.348,0,,,,,,-0.322272448,-0.403477695,1,0,0,0.3481,Obsidian_rect,12,0,12,0,1,
56bd7bf3d4e2180005a86846,TCR,2024-06-24_14h43.33.343,LearnStrategy,2023.2.3,Win32,60.24096386,9,2,14,,,,,,,,5,14,,,,,,,,,,,6,0.497,0,,,,,,-0.154893259,-0.409950925,1,0,0,0.4975,Pegmatite_rect,13,0,13,0,1,
56bd7bf3d4e2180005a86846,TCR,2024-06-24_14h43.33.343,LearnStrategy,2023.2.3,Win32,60.24096386,9,2,15,,,,,,,,3,12,,,,,,,,,,,4,1.033,0,,,,,,0.349093803,-0.254593449,1,0,0,1.0331,Gabbro_rect,14,0,14,0,1,
56bd7bf3d4e2180005a86846,TCR,2024-06-24_14h43.33.343,LearnStrategy,2023.2.3,Win32,60.24096386,9,2,16,,,,,,,,7,07,,,,,,,,,,,8,0.765,0,,,,,,0.414750851,-0.389606487,1,0,0,0.7651,Pumice_rect,15,0,15,0,1,
56bd7bf3d4e2180005a86846,TCR,2024-06-24_14h43.33.343,LearnStrategy,2023.2.3,Win32,60.24096386,,,,,,,,,,,,,,,,,,,,,,,,,,,,,,,,,,,,,,,,,,,0
56bd7bf3d4e2180005a86846,TCR,2024-06-24_14h43.33.343,LearnStrategy,2023.2.3,Win32,60.24096386,,,,,,,,,,,,,,,,,,,,,,,,,,,,,,,,,,,,,,,,,,,
56bd7bf3d4e2180005a86846,TCR,2024-06-24_14h43.33.343,LearnStrategy,2023.2.3,Win32,60.24096386,,,,,,,,,,,8,05,1,1,,,,,,,,,,,,,,,,,,,,,,,,,,,,,
56bd7bf3d4e2180005a86846,TCR,2024-06-24_14h43.33.343,LearnStrategy,2023.2.3,Win32,60.24096386,,,,,,,,,,,8,14,1,2,,,,,,,,,,,,,,,,,,,,,,,,,,,,,
56bd7bf3d4e2180005a86846,TCR,2024-06-24_14h43.33.343,LearnStrategy,2023.2.3,Win32,60.24096386,,,,,,,,,,,1,09,1,3,,,,,,,,,,,,,,,,,,,,,,,,,,,,,
56bd7bf3d4e2180005a86846,TCR,2024-06-24_14h43.33.343,LearnStrategy,2023.2.3,Win32,60.24096386,,,,,,,,,,,2,06,1,4,,,,,,,,,,,,,,,,,,,,,,,,,,,,,
56bd7bf3d4e2180005a86846,TCR,2024-06-24_14h43.33.343,LearnStrategy,2023.2.3,Win32,60.24096386,,,,,,,,,,,3,16,1,5,,,,,,,,,,,,,,,,,,,,,,,,,,,,,
56bd7bf3d4e2180005a86846,TCR,2024-06-24_14h43.33.343,LearnStrategy,2023.2.3,Win32,60.24096386,,,,,,,,,,,3,06,1,6,,,,,,,,,,,,,,,,,,,,,,,,,,,,,
56bd7bf3d4e2180005a86846,TCR,2024-06-24_14h43.33.343,LearnStrategy,2023.2.3,Win32,60.24096386,,,,,,,,,,,4,13,1,7,,,,,,,,,,,,,,,,,,,,,,,,,,,,,
56bd7bf3d4e2180005a86846,TCR,2024-06-24_14h43.33.343,LearnStrategy,2023.2.3,Win32,60.24096386,,,,,,,,,,,2,12,1,8,,,,,,,,,,,,,,,,,,,,,,,,,,,,,
56bd7bf3d4e2180005a86846,TCR,2024-06-24_14h43.33.343,LearnStrategy,2023.2.3,Win32,60.24096386,,,,,,,,,,,6,15,2,1,,,,,,,,,,,,,,,,,,,,,,,,,,,,,
56bd7bf3d4e2180005a86846,TCR,2024-06-24_14h43.33.343,LearnStrategy,2023.2.3,Win32,60.24096386,,,,,,,,,,,5,09,2,2,,,,,,,,,,,,,,,,,,,,,,,,,,,,,
56bd7bf3d4e2180005a86846,TCR,2024-06-24_14h43.33.343,LearnStrategy,2023.2.3,Win32,60.24096386,,,,,,,,,,,4,15,2,3,,,,,,,,,,,,,,,,,,,,,,,,,,,,,
56bd7bf3d4e2180005a86846,TCR,2024-06-24_14h43.33.343,LearnStrategy,2023.2.3,Win32,60.24096386,,,,,,,,,,,7,08,2,4,,,,,,,,,,,,,,,,,,,,,,,,,,,,,
56bd7bf3d4e2180005a86846,TCR,2024-06-24_14h43.33.343,LearnStrategy,2023.2.3,Win32,60.24096386,,,,,,,,,,,1,01,2,5,,,,,,,,,,,,,,,,,,,,,,,,,,,,,
56bd7bf3d4e2180005a86846,TCR,2024-06-24_14h43.33.343,LearnStrategy,2023.2.3,Win32,60.24096386,,,,,,,,,,,7,13,2,6,,,,,,,,,,,,,,,,,,,,,,,,,,,,,
56bd7bf3d4e2180005a86846,TCR,2024-06-24_14h43.33.343,LearnStrategy,2023.2.3,Win32,60.24096386,,,,,,,,,,,7,06,2,7,,,,,,,,,,,,,,,,,,,,,,,,,,,,,
56bd7bf3d4e2180005a86846,TCR,2024-06-24_14h43.33.343,LearnStrategy,2023.2.3,Win32,60.24096386,,,,,,,,,,,8,06,2,8,,,,,,,,,,,,,,,,,,,,,,,,,,,,,
56bd7bf3d4e2180005a86846,TCR,2024-06-24_14h43.33.343,LearnStrategy,2023.2.3,Win32,60.24096386,,,,,,,,,,,2,01,3,1,,,,,,,,,,,,,,,,,,,,,,,,,,,,,
56bd7bf3d4e2180005a86846,TCR,2024-06-24_14h43.33.343,LearnStrategy,2023.2.3,Win32,60.24096386,,,,,,,,,,,6,16,3,2,,,,,,,,,,,,,,,,,,,,,,,,,,,,,
56bd7bf3d4e2180005a86846,TCR,2024-06-24_14h43.33.343,LearnStrategy,2023.2.3,Win32,60.24096386,,,,,,,,,,,3,15,3,3,,,,,,,,,,,,,,,,,,,,,,,,,,,,,
56bd7bf3d4e2180005a86846,TCR,2024-06-24_14h43.33.343,LearnStrategy,2023.2.3,Win32,60.24096386,,,,,,,,,,,7,14,3,4,,,,,,,,,,,,,,,,,,,,,,,,,,,,,
56bd7bf3d4e2180005a86846,TCR,2024-06-24_14h43.33.343,LearnStrategy,2023.2.3,Win32,60.24096386,,,,,,,,,,,5,10,3,5,,,,,,,,,,,,,,,,,,,,,,,,,,,,,
56bd7bf3d4e2180005a86846,TCR,2024-06-24_14h43.33.343,LearnStrategy,2023.2.3,Win32,60.24096386,,,,,,,,,,,6,12,3,6,,,,,,,,,,,,,,,,,,,,,,,,,,,,,
56bd7bf3d4e2180005a86846,TCR,2024-06-24_14h43.33.343,LearnStrategy,2023.2.3,Win32,60.24096386,,,,,,,,,,,1,14,3,7,,,,,,,,,,,,,,,,,,,,,,,,,,,,,
56bd7bf3d4e2180005a86846,TCR,2024-06-24_14h43.33.343,LearnStrategy,2023.2.3,Win32,60.24096386,,,,,,,,,,,5,06,3,8,,,,,,,,,,,,,,,,,,,,,,,,,,,,,
56bd7bf3d4e2180005a86846,TCR,2024-06-24_14h43.33.343,LearnStrategy,2023.2.3,Win32,60.24096386,,,,,,,,,,,1,06,4,1,,,,,,,,,,,,,,,,,,,,,,,,,,,,,
56bd7bf3d4e2180005a86846,TCR,2024-06-24_14h43.33.343,LearnStrategy,2023.2.3,Win32,60.24096386,,,,,,,,,,,4,08,4,2,,,,,,,,,,,,,,,,,,,,,,,,,,,,,
56bd7bf3d4e2180005a86846,TCR,2024-06-24_14h43.33.343,LearnStrategy,2023.2.3,Win32,60.24096386,,,,,,,,,,,5,16,4,3,,,,,,,,,,,,,,,,,,,,,,,,,,,,,
56bd7bf3d4e2180005a86846,TCR,2024-06-24_14h43.33.343,LearnStrategy,2023.2.3,Win32,60.24096386,,,,,,,,,,,6,05,4,4,,,,,,,,,,,,,,,,,,,,,,,,,,,,,
56bd7bf3d4e2180005a86846,TCR,2024-06-24_14h43.33.343,LearnStrategy,2023.2.3,Win32,60.24096386,,,,,,,,,,,8,16,4,5,,,,,,,,,,,,,,,,,,,,,,,,,,,,,
56bd7bf3d4e2180005a86846,TCR,2024-06-24_14h43.33.343,LearnStrategy,2023.2.3,Win32,60.24096386,,,,,,,,,,,4,03,4,6,,,,,,,,,,,,,,,,,,,,,,,,,,,,,
56bd7bf3d4e2180005a86846,TCR,2024-06-24_14h43.33.343,LearnStrategy,2023.2.3,Win32,60.24096386,,,,,,,,,,,3,07,4,7,,,,,,,,,,,,,,,,,,,,,,,,,,,,,
56bd7bf3d4e2180005a86846,TCR,2024-06-24_14h43.33.343,LearnStrategy,2023.2.3,Win32,60.24096386,,,,,,,,,,,2,09,4,8,,,,,,,,,,,,,,,,,,,,,,,,,,,,,
56bd7bf3d4e2180005a86846,TCR,2024-06-24_14h43.33.343,LearnStrategy,2023.2.3,Win32,60.24096386,,,,,,,,,,,5,11,5,1,,,,,,,,,,,,,,,,,,,,,,,,,,,,,
56bd7bf3d4e2180005a86846,TCR,2024-06-24_14h43.33.343,LearnStrategy,2023.2.3,Win32,60.24096386,,,,,,,,,,,2,05,5,2,,,,,,,,,,,,,,,,,,,,,,,,,,,,,
56bd7bf3d4e2180005a86846,TCR,2024-06-24_14h43.33.343,LearnStrategy,2023.2.3,Win32,60.24096386,,,,,,,,,,,1,02,5,3,,,,,,,,,,,,,,,,,,,,,,,,,,,,,
56bd7bf3d4e2180005a86846,TCR,2024-06-24_14h43.33.343,LearnStrategy,2023.2.3,Win32,60.24096386,,,,,,,,,,,8,10,5,4,,,,,,,,,,,,,,,,,,,,,,,,,,,,,
56bd7bf3d4e2180005a86846,TCR,2024-06-24_14h43.33.343,LearnStrategy,2023.2.3,Win32,60.24096386,,,,,,,,,,,6,10,5,5,,,,,,,,,,,,,,,,,,,,,,,,,,,,,
56bd7bf3d4e2180005a86846,TCR,2024-06-24_14h43.33.343,LearnStrategy,2023.2.3,Win32,60.24096386,,,,,,,,,,,3,02,5,6,,,,,,,,,,,,,,,,,,,,,,,,,,,,,
56bd7bf3d4e2180005a86846,TCR,2024-06-24_14h43.33.343,LearnStrategy,2023.2.3,Win32,60.24096386,,,,,,,,,,,4,09,5,7,,,,,,,,,,,,,,,,,,,,,,,,,,,,,
56bd7bf3d4e2180005a86846,TCR,2024-06-24_14h43.33.343,LearnStrategy,2023.2.3,Win32,60.24096386,,,,,,,,,,,8,15,5,8,,,,,,,,,,,,,,,,,,,,,,,,,,,,,
56bd7bf3d4e2180005a86846,TCR,2024-06-24_14h43.33.343,LearnStrategy,2023.2.3,Win32,60.24096386,,,,,,,,,,,6,08,6,1,,,,,,,,,,,,,,,,,,,,,,,,,,,,,
56bd7bf3d4e2180005a86846,TCR,2024-06-24_14h43.33.343,LearnStrategy,2023.2.3,Win32,60.24096386,,,,,,,,,,,2,14,6,2,,,,,,,,,,,,,,,,,,,,,,,,,,,,,
56bd7bf3d4e2180005a86846,TCR,2024-06-24_14h43.33.343,LearnStrategy,2023.2.3,Win32,60.24096386,,,,,,,,,,,5,02,6,3,,,,,,,,,,,,,,,,,,,,,,,,,,,,,
56bd7bf3d4e2180005a86846,TCR,2024-06-24_14h43.33.343,LearnStrategy,2023.2.3,Win32,60.24096386,,,,,,,,,,,7,12,6,4,,,,,,,,,,,,,,,,,,,,,,,,,,,,,
56bd7bf3d4e2180005a86846,TCR,2024-06-24_14h43.33.343,LearnStrategy,2023.2.3,Win32,60.24096386,,,,,,,,,,,7,15,6,5,,,,,,,,,,,,,,,,,,,,,,,,,,,,,
56bd7bf3d4e2180005a86846,TCR,2024-06-24_14h43.33.343,LearnStrategy,2023.2.3,Win32,60.24096386,,,,,,,,,,,3,08,6,6,,,,,,,,,,,,,,,,,,,,,,,,,,,,,
56bd7bf3d4e2180005a86846,TCR,2024-06-24_14h43.33.343,LearnStrategy,2023.2.3,Win32,60.24096386,,,,,,,,,,,1,05,6,7,,,,,,,,,,,,,,,,,,,,,,,,,,,,,
56bd7bf3d4e2180005a86846,TCR,2024-06-24_14h43.33.343,LearnStrategy,2023.2.3,Win32,60.24096386,,,,,,,,,,,4,10,6,8,,,,,,,,,,,,,,,,,,,,,,,,,,,,,