participant,condition,date,expName,psychopyVersion,OS,frameRate,block,phase,trial,learn_mouse_2.x,learn_mouse_2.y,learn_mouse_2.leftButton,learn_mouse_2.midButton,learn_mouse_2.rightButton,learn_mouse_2.time,learn_mouse_2.clicked_name,cat,token,row,col,t_select,cat_mouse_l.x,cat_mouse_l.y,cat_mouse_l.leftButton,cat_mouse_l.midButton,cat_mouse_l.rightButton,cat_mouse_l.time,cat_mouse_l.clicked_name,resp,t_resp,corr,train_trials.thisRepN,train_trials.thisTrialN,train_trials.thisN,train_trials.thisIndex,train_trials.ran,cat_mouse_t.x,cat_mouse_t.y,cat_mouse_t.leftButton,cat_mouse_t.midButton,cat_mouse_t.rightButton,cat_mouse_t.time,cat_mouse_t.clicked_name,test_trials.thisRepN,test_trials.thisTrialN,test_trials.thisN,test_trials.thisIndex,test_trials.ran,Bonus
56cc78e3ccc0e20006b82a7d,TCR,2024-06-11_13h21.43.617,LearnStrategy,2023.2.3,Win32,59.88023952,,,,,,,,,,,,,,,,,,,,,,,,,,,,,,,,,,,,,,,,,,,
56cc78e3ccc0e20006b82a7d,TCR,2024-06-11_13h21.43.617,LearnStrategy,2023.2.3,Win32,59.88023952,1,1,1,-0.085185185,0.012962963,1,0,0,1.7902,rock_grid_rect_2,6,06,-1,-1,1.79,-0.069444444,-0.259259259,1,0,0,4.5164,Basalt_rect,2,4.516,0,0,0,0,0,1,,,,,,,,,,,,,
56cc78e3ccc0e20006b82a7d,TCR,2024-06-11_13h21.43.617,LearnStrategy,2023.2.3,Win32,59.88023952,1,1,2,0.037037037,0.00462963,1,0,0,1.1809,rock_grid_rect_2,8,15,-1,-1,1.181,-0.089814815,-0.247222222,1,0,0,1.9603,Basalt_rect,2,1.96,0,1,0,1,0,1,,,,,,,,,,,,,
56cc78e3ccc0e20006b82a7d,TCR,2024-06-11_13h21.43.617,LearnStrategy,2023.2.3,Win32,59.88023952,1,1,3,-0.057407407,-0.014814815,1,0,0,0.6144,rock_grid_rect_2,3,09,-1,-1,0.614,0.111111111,-0.241666667,1,0,0,2.0114,Diorite_rect,3,2.011,1,2,0,2,0,1,,,,,,,,,,,,,
56cc78e3ccc0e20006b82a7d,TCR,2024-06-11_13h21.43.617,LearnStrategy,2023.2.3,Win32,59.88023952,1,1,4,0.052777778,0.017592593,1,0,0,0.7267,rock_grid_rect_2,4,10,-1,-1,0.727,-0.191666667,-0.251851852,1,0,0,1.6279,Basalt_rect,2,1.628,0,3,0,3,0,1,,,,,,,,,,,,,
56cc78e3ccc0e20006b82a7d,TCR,2024-06-11_13h21.43.617,LearnStrategy,2023.2.3,Win32,59.88023952,1,1,5,0,0.006481481,1,0,0,0.8139,rock_grid_rect_2,4,15,-1,-1,0.814,-0.431481481,-0.241666667,1,0,0,2.4294,Andesite_rect,1,2.429,0,4,0,4,0,1,,,,,,,,,,,,,
56cc78e3ccc0e20006b82a7d,TCR,2024-06-11_13h21.43.617,LearnStrategy,2023.2.3,Win32,59.88023952,1,1,6,0.031481481,0.000925926,1,0,0,1.0636,rock_grid_rect_2,3,11,-1,-1,1.064,-0.078703704,-0.390740741,1,0,0,2.0615,Pegmatite_rect,6,2.061,0,5,0,5,0,1,,,,,,,,,,,,,
56cc78e3ccc0e20006b82a7d,TCR,2024-06-11_13h21.43.617,LearnStrategy,2023.2.3,Win32,59.88023952,1,1,7,0.048148148,-0.006481481,1,0,0,0.8307,rock_grid_rect_2,5,07,-1,-1,0.831,-0.348148148,-0.398148148,1,0,0,1.4604,Obsidian_rect,5,1.46,1,6,0,6,0,1,,,,,,,,,,,,,
56cc78e3ccc0e20006b82a7d,TCR,2024-06-11_13h21.43.617,LearnStrategy,2023.2.3,Win32,59.88023952,1,1,8,0.007407407,-0.009259259,1,0,0,0.615,rock_grid_rect_2,8,06,-1,-1,0.615,0.383333333,-0.40462963,1,0,0,1.7425,Pumice_rect,8,1.742,1,7,0,7,0,1,,,,,,,,,,,,,
56cc78e3ccc0e20006b82a7d,TCR,2024-06-11_13h21.43.617,LearnStrategy,2023.2.3,Win32,59.88023952,1,1,9,0.040740741,0.024074074,1,0,0,0.8144,rock_grid_rect_2,7,05,-1,-1,0.814,0.058333333,-0.402777778,1,0,0,2.5354,Peridotite_rect,7,2.535,1,8,0,8,0,1,,,,,,,,,,,,,
56cc78e3ccc0e20006b82a7d,TCR,2024-06-11_13h21.43.617,LearnStrategy,2023.2.3,Win32,59.88023952,1,1,10,0.019444444,-0.02037037,1,0,0,0.5135,rock_grid_rect_2,1,11,-1,-1,0.514,-0.137962963,-0.240740741,1,0,0,1.9949,Basalt_rect,2,1.995,0,9,0,9,0,1,,,,,,,,,,,,,
56cc78e3ccc0e20006b82a7d,TCR,2024-06-11_13h21.43.617,LearnStrategy,2023.2.3,Win32,59.88023952,1,1,11,0.001851852,-0.015740741,1,0,0,0.4981,rock_grid_rect_2,1,07,-1,-1,0.498,-0.327777778,-0.241666667,1,0,0,0.8621,Andesite_rect,1,0.862,1,10,0,10,0,1,,,,,,,,,,,,,
56cc78e3ccc0e20006b82a7d,TCR,2024-06-11_13h21.43.617,LearnStrategy,2023.2.3,Win32,59.88023952,1,1,12,-0.050925926,-0.025,1,0,0,0.5152,rock_grid_rect_2,7,04,-1,-1,0.515,-0.105555556,-0.412037037,1,0,0,2.1101,Pegmatite_rect,6,2.11,0,11,0,11,0,1,,,,,,,,,,,,,
56cc78e3ccc0e20006b82a7d,TCR,2024-06-11_13h21.43.617,LearnStrategy,2023.2.3,Win32,59.88023952,1,1,13,0.092592593,-0.008333333,1,0,0,0.7481,rock_grid_rect_2,6,12,-1,-1,0.748,0.131481481,-0.251851852,1,0,0,2.1344,Diorite_rect,3,2.134,0,12,0,12,0,1,,,,,,,,,,,,,
56cc78e3ccc0e20006b82a7d,TCR,2024-06-11_13h21.43.617,LearnStrategy,2023.2.3,Win32,59.88023952,1,1,14,0.039814815,0,1,0,0,0.8973,rock_grid_rect_2,2,01,-1,-1,0.897,-0.114814815,-0.234259259,1,0,0,1.8108,Basalt_rect,2,1.811,1,13,0,13,0,1,,,,,,,,,,,,,
56cc78e3ccc0e20006b82a7d,TCR,2024-06-11_13h21.43.617,LearnStrategy,2023.2.3,Win32,59.88023952,1,1,15,-0.024074074,0.008333333,1,0,0,0.5648,rock_grid_rect_2,2,05,-1,-1,0.565,-0.110185185,-0.268518519,1,0,0,0.7601,Basalt_rect,2,0.76,1,14,0,14,0,1,,,,,,,,,,,,,
56cc78e3ccc0e20006b82a7d,TCR,2024-06-11_13h21.43.617,LearnStrategy,2023.2.3,Win32,59.88023952,1,1,16,0.012962963,-0.003703704,1,0,0,0.5151,rock_grid_rect_2,5,16,-1,-1,0.515,-0.344444444,-0.396296296,1,0,0,1.0276,Obsidian_rect,5,1.028,1,15,0,15,0,1,,,,,,,,,,,,,
56cc78e3ccc0e20006b82a7d,TCR,2024-06-11_13h21.43.617,LearnStrategy,2023.2.3,Win32,59.88023952,1,2,1,,,,,,,,6,11,,,,,,,,,,,5,2.943,0,,,,,,-0.346296296,-0.393518519,1,0,0,2.9429,Obsidian_rect,0,0,0,0,1,
56cc78e3ccc0e20006b82a7d,TCR,2024-06-11_13h21.43.617,LearnStrategy,2023.2.3,Win32,59.88023952,1,2,2,,,,,,,,5,09,,,,,,,,,,,5,0.743,1,,,,,,-0.346296296,-0.393518519,1,0,0,0.7435,Obsidian_rect,1,0,1,0,1,
56cc78e3ccc0e20006b82a7d,TCR,2024-06-11_13h21.43.617,LearnStrategy,2023.2.3,Win32,59.88023952,1,2,3,,,,,,,,8,04,,,,,,,,,,,4,2.31,0,,,,,,0.375925926,-0.253703704,1,0,0,2.3099,Gabbro_rect,2,0,2,0,1,
56cc78e3ccc0e20006b82a7d,TCR,2024-06-11_13h21.43.617,LearnStrategy,2023.2.3,Win32,59.88023952,1,2,4,,,,,,,,3,02,,,,,,,,,,,7,2.11,0,,,,,,0.103703704,-0.402777778,1,0,0,2.1104,Peridotite_rect,3,0,3,0,1,
56cc78e3ccc0e20006b82a7d,TCR,2024-06-11_13h21.43.617,LearnStrategy,2023.2.3,Win32,59.88023952,1,2,5,,,,,,,,1,06,,,,,,,,,,,1,4.293,1,,,,,,-0.306481481,-0.256481481,1,0,0,4.2926,Andesite_rect,4,0,4,0,1,
56cc78e3ccc0e20006b82a7d,TCR,2024-06-11_13h21.43.617,LearnStrategy,2023.2.3,Win32,59.88023952,1,2,6,,,,,,,,6,05,,,,,,,,,,,6,2.195,1,,,,,,-0.107407407,-0.400925926,1,0,0,2.1952,Pegmatite_rect,5,0,5,0,1,
56cc78e3ccc0e20006b82a7d,TCR,2024-06-11_13h21.43.617,LearnStrategy,2023.2.3,Win32,59.88023952,1,2,7,,,,,,,,5,02,,,,,,,,,,,5,0.843,1,,,,,,-0.35462963,-0.408333333,1,0,0,0.8431,Obsidian_rect,6,0,6,0,1,
56cc78e3ccc0e20006b82a7d,TCR,2024-06-11_13h21.43.617,LearnStrategy,2023.2.3,Win32,59.88023952,1,2,8,,,,,,,,7,14,,,,,,,,,,,3,2.244,0,,,,,,0.055555556,-0.235185185,1,0,0,2.2439,Diorite_rect,7,0,7,0,1,
56cc78e3ccc0e20006b82a7d,TCR,2024-06-11_13h21.43.617,LearnStrategy,2023.2.3,Win32,59.88023952,1,2,9,,,,,,,,2,12,,,,,,,,,,,8,1.06,0,,,,,,0.360185185,-0.396296296,1,0,0,1.0595,Pumice_rect,8,0,8,0,1,
56cc78e3ccc0e20006b82a7d,TCR,2024-06-11_13h21.43.617,LearnStrategy,2023.2.3,Win32,59.88023952,1,2,10,,,,,,,,4,01,,,,,,,,,,,4,3.177,1,,,,,,0.367592593,-0.247222222,1,0,0,3.177,Gabbro_rect,9,0,9,0,1,
56cc78e3ccc0e20006b82a7d,TCR,2024-06-11_13h21.43.617,LearnStrategy,2023.2.3,Win32,59.88023952,1,2,11,,,,,,,,4,11,,,,,,,,,,,2,3.26,0,,,,,,-0.127777778,-0.24537037,1,0,0,3.2603,Basalt_rect,10,0,10,0,1,
56cc78e3ccc0e20006b82a7d,TCR,2024-06-11_13h21.43.617,LearnStrategy,2023.2.3,Win32,59.88023952,1,2,12,,,,,,,,2,10,,,,,,,,,,,2,1.541,1,,,,,,-0.127777778,-0.24537037,1,0,0,1.5413,Basalt_rect,11,0,11,0,1,
56cc78e3ccc0e20006b82a7d,TCR,2024-06-11_13h21.43.617,LearnStrategy,2023.2.3,Win32,59.88023952,1,2,13,,,,,,,,1,14,,,,,,,,,,,1,3.227,1,,,,,,-0.353703704,-0.269444444,1,0,0,3.2272,Andesite_rect,12,0,12,0,1,
56cc78e3ccc0e20006b82a7d,TCR,2024-06-11_13h21.43.617,LearnStrategy,2023.2.3,Win32,59.88023952,1,2,14,,,,,,,,3,13,,,,,,,,,,,1,0.977,0,,,,,,-0.35,-0.264814815,1,0,0,0.9772,Andesite_rect,13,0,13,0,1,
56cc78e3ccc0e20006b82a7d,TCR,2024-06-11_13h21.43.617,LearnStrategy,2023.2.3,Win32,59.88023952,1,2,15,,,,,,,,7,12,,,,,,,,,,,1,2.542,0,,,,,,-0.344444444,-0.264814815,1,0,0,2.5422,Andesite_rect,14,0,14,0,1,
56cc78e3ccc0e20006b82a7d,TCR,2024-06-11_13h21.43.617,LearnStrategy,2023.2.3,Win32,59.88023952,1,2,16,,,,,,,,8,09,,,,,,,,,,,8,1.743,1,,,,,,0.388888889,-0.385185185,1,0,0,1.7434,Pumice_rect,15,0,15,0,1,
56cc78e3ccc0e20006b82a7d,TCR,2024-06-11_13h21.43.617,LearnStrategy,2023.2.3,Win32,59.88023952,2,1,1,0.060185185,0.024074074,1,0,0,1.0443,rock_grid_rect_2,6,09,-1,-1,1.044,-0.092592593,-0.40462963,1,0,0,1.576,Pegmatite_rect,6,1.576,1,0,0,0,0,1,,,,,,,,,,,,,
56cc78e3ccc0e20006b82a7d,TCR,2024-06-11_13h21.43.617,LearnStrategy,2023.2.3,Win32,59.88023952,2,1,2,-0.049074074,0,1,0,0,0.7986,rock_grid_rect_2,8,15,-1,-1,0.799,0.360185185,-0.40462963,1,0,0,1.9287,Pumice_rect,8,1.929,1,1,0,1,0,1,,,,,,,,,,,,,
56cc78e3ccc0e20006b82a7d,TCR,2024-06-11_13h21.43.617,LearnStrategy,2023.2.3,Win32,59.88023952,2,1,3,0.037037037,-0.000925926,1,0,0,0.6312,rock_grid_rect_2,1,09,-1,-1,0.631,-0.384259259,-0.266666667,1,0,0,1.5781,Andesite_rect,1,1.578,1,2,0,2,0,1,,,,,,,,,,,,,
56cc78e3ccc0e20006b82a7d,TCR,2024-06-11_13h21.43.617,LearnStrategy,2023.2.3,Win32,59.88023952,2,1,4,-0.023148148,0.022222222,1,0,0,0.715,rock_grid_rect_2,5,08,-1,-1,0.715,-0.412962963,-0.409259259,1,0,0,0.8618,Obsidian_rect,5,0.862,1,3,0,3,0,1,,,,,,,,,,,,,
56cc78e3ccc0e20006b82a7d,TCR,2024-06-11_13h21.43.617,LearnStrategy,2023.2.3,Win32,59.88023952,2,1,5,-0.014814815,-0.000925926,1,0,0,0.8485,rock_grid_rect_2,6,07,-1,-1,0.849,0.150925926,-0.407407407,1,0,0,2.3104,Peridotite_rect,7,2.31,0,4,0,4,0,1,,,,,,,,,,,,,
56cc78e3ccc0e20006b82a7d,TCR,2024-06-11_13h21.43.617,LearnStrategy,2023.2.3,Win32,59.88023952,2,1,6,0.064814815,0.003703704,1,0,0,0.4644,rock_grid_rect_2,3,11,-1,-1,0.464,0.074074074,-0.246296296,1,0,0,1.4438,Diorite_rect,3,1.444,1,5,0,5,0,1,,,,,,,,,,,,,
56cc78e3ccc0e20006b82a7d,TCR,2024-06-11_13h21.43.617,LearnStrategy,2023.2.3,Win32,59.88023952,2,1,7,0.027777778,0.02037037,1,0,0,0.4654,rock_grid_rect_2,7,10,-1,-1,0.465,0.355555556,-0.239814815,1,0,0,3.6802,Gabbro_rect,4,3.68,0,6,0,6,0,1,,,,,,,,,,,,,
56cc78e3ccc0e20006b82a7d,TCR,2024-06-11_13h21.43.617,LearnStrategy,2023.2.3,Win32,59.88023952,2,1,8,0.064814815,-0.00462963,1,0,0,0.4822,rock_grid_rect_2,3,15,-1,-1,0.482,0.10462963,-0.237962963,1,0,0,1.5151,Diorite_rect,3,1.515,1,7,0,7,0,1,,,,,,,,,,,,,
56cc78e3ccc0e20006b82a7d,TCR,2024-06-11_13h21.43.617,LearnStrategy,2023.2.3,Win32,59.88023952,2,1,9,0.021296296,-0.001851852,1,0,0,0.5156,rock_grid_rect_2,4,05,-1,-1,0.516,0.410185185,-0.22962963,1,0,0,3.1943,Gabbro_rect,4,3.194,1,8,0,8,0,1,,,,,,,,,,,,,
56cc78e3ccc0e20006b82a7d,TCR,2024-06-11_13h21.43.617,LearnStrategy,2023.2.3,Win32,59.88023952,2,1,10,0.123148148,0.012962963,1,0,0,0.4971,rock_grid_rect_2,8,15,-1,-1,0.497,0.362962963,-0.409259259,1,0,0,1.1438,Pumice_rect,8,1.144,1,9,0,9,0,1,,,,,,,,,,,,,
56cc78e3ccc0e20006b82a7d,TCR,2024-06-11_13h21.43.617,LearnStrategy,2023.2.3,Win32,59.88023952,2,1,11,0.072222222,0.016666667,1,0,0,1.0987,rock_grid_rect_2,3,08,-1,-1,1.099,-0.348148148,-0.27037037,1,0,0,1.1593,Andesite_rect,1,1.159,0,10,0,10,0,1,,,,,,,,,,,,,
56cc78e3ccc0e20006b82a7d,TCR,2024-06-11_13h21.43.617,LearnStrategy,2023.2.3,Win32,59.88023952,2,1,12,0.072222222,-0.002777778,1,0,0,0.4482,rock_grid_rect_2,2,01,-1,-1,0.448,-0.158333333,-0.261111111,1,0,0,0.877,Basalt_rect,2,0.877,1,11,0,11,0,1,,,,,,,,,,,,,
56cc78e3ccc0e20006b82a7d,TCR,2024-06-11_13h21.43.617,LearnStrategy,2023.2.3,Win32,59.88023952,2,1,13,0.021296296,0,1,0,0,0.5983,rock_grid_rect_2,4,12,-1,-1,0.598,-0.077777778,-0.263888889,1,0,0,2.2102,Basalt_rect,2,2.21,0,12,0,12,0,1,,,,,,,,,,,,,
56cc78e3ccc0e20006b82a7d,TCR,2024-06-11_13h21.43.617,LearnStrategy,2023.2.3,Win32,59.88023952,2,1,14,0.05462963,0.008333333,1,0,0,0.4804,rock_grid_rect_2,7,02,-1,-1,0.48,-0.075925926,-0.409259259,1,0,0,2.2105,Pegmatite_rect,6,2.211,0,13,0,13,0,1,,,,,,,,,,,,,
56cc78e3ccc0e20006b82a7d,TCR,2024-06-11_13h21.43.617,LearnStrategy,2023.2.3,Win32,59.88023952,2,1,15,0.042592593,0.018518519,1,0,0,0.7146,rock_grid_rect_2,7,16,-1,-1,0.715,0.375,-0.248148148,1,0,0,2.5068,Gabbro_rect,4,2.507,0,14,0,14,0,1,,,,,,,,,,,,,
56cc78e3ccc0e20006b82a7d,TCR,2024-06-11_13h21.43.617,LearnStrategy,2023.2.3,Win32,59.88023952,2,1,16,0.097222222,-0.017592593,1,0,0,0.4821,rock_grid_rect_2,2,05,-1,-1,0.482,-0.114814815,-0.271296296,1,0,0,0.8448,Basalt_rect,2,0.845,1,15,0,15,0,1,,,,,,,,,,,,,
56cc78e3ccc0e20006b82a7d,TCR,2024-06-11_13h21.43.617,LearnStrategy,2023.2.3,Win32,59.88023952,2,2,1,,,,,,,,6,15,,,,,,,,,,,6,3.044,1,,,,,,-0.110185185,-0.399074074,1,0,0,3.0437,Pegmatite_rect,0,0,0,0,1,
56cc78e3ccc0e20006b82a7d,TCR,2024-06-11_13h21.43.617,LearnStrategy,2023.2.3,Win32,59.88023952,2,2,2,,,,,,,,2,11,,,,,,,,,,,8,3.228,0,,,,,,0.407407407,-0.400925926,1,0,0,3.2285,Pumice_rect,1,0,1,0,1,
56cc78e3ccc0e20006b82a7d,TCR,2024-06-11_13h21.43.617,LearnStrategy,2023.2.3,Win32,59.88023952,2,2,3,,,,,,,,5,12,,,,,,,,,,,5,0.845,1,,,,,,-0.423148148,-0.389814815,1,0,0,0.8455,Obsidian_rect,2,0,2,0,1,
56cc78e3ccc0e20006b82a7d,TCR,2024-06-11_13h21.43.617,LearnStrategy,2023.2.3,Win32,59.88023952,2,2,4,,,,,,,,4,13,,,,,,,,,,,6,3.294,0,,,,,,-0.064814815,-0.392592593,1,0,0,3.2937,Pegmatite_rect,3,0,3,0,1,
56cc78e3ccc0e20006b82a7d,TCR,2024-06-11_13h21.43.617,LearnStrategy,2023.2.3,Win32,59.88023952,2,2,5,,,,,,,,2,02,,,,,,,,,,,2,1.893,1,,,,,,-0.065740741,-0.262037037,1,0,0,1.8935,Basalt_rect,4,0,4,0,1,
56cc78e3ccc0e20006b82a7d,TCR,2024-06-11_13h21.43.617,LearnStrategy,2023.2.3,Win32,59.88023952,2,2,6,,,,,,,,6,08,,,,,,,,,,,5,0.992,0,,,,,,-0.368518519,-0.406481481,1,0,0,0.992,Obsidian_rect,5,0,5,0,1,
56cc78e3ccc0e20006b82a7d,TCR,2024-06-11_13h21.43.617,LearnStrategy,2023.2.3,Win32,59.88023952,2,2,7,,,,,,,,8,10,,,,,,,,,,,8,1.768,1,,,,,,0.362037037,-0.396296296,1,0,0,1.7685,Pumice_rect,6,0,6,0,1,
56cc78e3ccc0e20006b82a7d,TCR,2024-06-11_13h21.43.617,LearnStrategy,2023.2.3,Win32,59.88023952,2,2,8,,,,,,,,1,16,,,,,,,,,,,1,1.333,1,,,,,,-0.401851852,-0.242592593,1,0,0,1.3328,Andesite_rect,7,0,7,0,1,
56cc78e3ccc0e20006b82a7d,TCR,2024-06-11_13h21.43.617,LearnStrategy,2023.2.3,Win32,59.88023952,2,2,9,,,,,,,,4,14,,,,,,,,,,,4,1.433,1,,,,,,0.437962963,-0.271296296,1,0,0,1.4332,Gabbro_rect,8,0,8,0,1,
56cc78e3ccc0e20006b82a7d,TCR,2024-06-11_13h21.43.617,LearnStrategy,2023.2.3,Win32,59.88023952,2,2,10,,,,,,,,7,08,,,,,,,,,,,7,4.2,1,,,,,,0.063888889,-0.397222222,1,0,0,4.2004,Peridotite_rect,9,0,9,0,1,
56cc78e3ccc0e20006b82a7d,TCR,2024-06-11_13h21.43.617,LearnStrategy,2023.2.3,Win32,59.88023952,2,2,11,,,,,,,,3,07,,,,,,,,,,,1,1.312,0,,,,,,-0.406481481,-0.234259259,1,0,0,1.3116,Andesite_rect,10,0,10,0,1,
56cc78e3ccc0e20006b82a7d,TCR,2024-06-11_13h21.43.617,LearnStrategy,2023.2.3,Win32,59.88023952,2,2,12,,,,,,,,7,15,,,,,,,,,,,7,1.176,1,,,,,,0.084259259,-0.37962963,1,0,0,1.176,Peridotite_rect,11,0,11,0,1,
56cc78e3ccc0e20006b82a7d,TCR,2024-06-11_13h21.43.617,LearnStrategy,2023.2.3,Win32,59.88023952,2,2,13,,,,,,,,8,08,,,,,,,,,,,8,1.978,1,,,,,,0.362037037,-0.387037037,1,0,0,1.9784,Pumice_rect,12,0,12,0,1,
56cc78e3ccc0e20006b82a7d,TCR,2024-06-11_13h21.43.617,LearnStrategy,2023.2.3,Win32,59.88023952,2,2,14,,,,,,,,5,04,,,,,,,,,,,5,1.36,1,,,,,,-0.356481481,-0.408333333,1,0,0,1.3603,Obsidian_rect,13,0,13,0,1,
56cc78e3ccc0e20006b82a7d,TCR,2024-06-11_13h21.43.617,LearnStrategy,2023.2.3,Win32,59.88023952,2,2,15,,,,,,,,3,16,,,,,,,,,,,1,1.824,0,,,,,,-0.357407407,-0.267592593,1,0,0,1.8241,Andesite_rect,14,0,14,0,1,
56cc78e3ccc0e20006b82a7d,TCR,2024-06-11_13h21.43.617,LearnStrategy,2023.2.3,Win32,59.88023952,2,2,16,,,,,,,,1,04,,,,,,,,,,,3,1.626,0,,,,,,0.107407407,-0.237962963,1,0,0,1.6256,Diorite_rect,15,0,15,0,1,
56cc78e3ccc0e20006b82a7d,TCR,2024-06-11_13h21.43.617,LearnStrategy,2023.2.3,Win32,59.88023952,3,1,1,0.023148148,-0.021296296,1,0,0,0.4821,rock_grid_rect_2,3,06,-1,-1,0.482,-0.47962963,-0.235185185,1,0,0,1.2444,Andesite_rect,1,1.244,0,0,0,0,0,1,,,,,,,,,,,,,
56cc78e3ccc0e20006b82a7d,TCR,2024-06-11_13h21.43.617,LearnStrategy,2023.2.3,Win32,59.88023952,3,1,2,-0.013888889,0,1,0,0,0.8291,rock_grid_rect_2,7,16,-1,-1,0.829,0.356481481,-0.271296296,1,0,0,2.8472,Gabbro_rect,4,2.847,0,1,0,1,0,1,,,,,,,,,,,,,
56cc78e3ccc0e20006b82a7d,TCR,2024-06-11_13h21.43.617,LearnStrategy,2023.2.3,Win32,59.88023952,3,1,3,0.037962963,0,1,0,0,0.5661,rock_grid_rect_2,1,01,-1,-1,0.566,-0.375925926,-0.266666667,1,0,0,1.233,Andesite_rect,1,1.233,1,2,0,2,0,1,,,,,,,,,,,,,
56cc78e3ccc0e20006b82a7d,TCR,2024-06-11_13h21.43.617,LearnStrategy,2023.2.3,Win32,59.88023952,3,1,4,0.010185185,-0.015740741,1,0,0,0.8183,rock_grid_rect_2,4,15,-1,-1,0.818,0.159259259,-0.412962963,1,0,0,3.3926,Peridotite_rect,7,3.393,0,3,0,3,0,1,,,,,,,,,,,,,
56cc78e3ccc0e20006b82a7d,TCR,2024-06-11_13h21.43.617,LearnStrategy,2023.2.3,Win32,59.88023952,3,1,5,0.016666667,-0.009259259,1,0,0,0.7138,rock_grid_rect_2,6,16,-1,-1,0.714,-0.210185185,-0.413888889,1,0,0,1.3432,Pegmatite_rect,6,1.343,1,4,0,4,0,1,,,,,,,,,,,,,
56cc78e3ccc0e20006b82a7d,TCR,2024-06-11_13h21.43.617,LearnStrategy,2023.2.3,Win32,59.88023952,3,1,6,-0.034259259,-0.018518519,1,0,0,0.4817,rock_grid_rect_2,5,06,-1,-1,0.482,-0.393518519,-0.418518519,1,0,0,1.2273,Obsidian_rect,5,1.227,1,5,0,5,0,1,,,,,,,,,,,,,
56cc78e3ccc0e20006b82a7d,TCR,2024-06-11_13h21.43.617,LearnStrategy,2023.2.3,Win32,59.88023952,3,1,7,-0.012037037,-0.005555556,1,0,0,0.5813,rock_grid_rect_2,1,07,-1,-1,0.581,-0.37962963,-0.238888889,1,0,0,0.9105,Andesite_rect,1,0.911,1,6,0,6,0,1,,,,,,,,,,,,,
56cc78e3ccc0e20006b82a7d,TCR,2024-06-11_13h21.43.617,LearnStrategy,2023.2.3,Win32,59.88023952,3,1,8,-0.008333333,-0.016666667,1,0,0,0.7153,rock_grid_rect_2,3,15,-1,-1,0.715,-0.373148148,-0.260185185,1,0,0,1.0116,Andesite_rect,1,1.012,0,7,0,7,0,1,,,,,,,,,,,,,
56cc78e3ccc0e20006b82a7d,TCR,2024-06-11_13h21.43.617,LearnStrategy,2023.2.3,Win32,59.88023952,3,1,9,0.023148148,-0.008333333,1,0,0,0.7153,rock_grid_rect_2,2,08,-1,-1,0.715,-0.099074074,-0.255555556,1,0,0,1.111,Basalt_rect,2,1.111,1,8,0,8,0,1,,,,,,,,,,,,,
56cc78e3ccc0e20006b82a7d,TCR,2024-06-11_13h21.43.617,LearnStrategy,2023.2.3,Win32,59.88023952,3,1,10,0.044444444,0.009259259,1,0,0,0.4987,rock_grid_rect_2,8,02,-1,-1,0.499,0.446296296,-0.387962963,1,0,0,1.7437,Pumice_rect,8,1.744,1,9,0,9,0,1,,,,,,,,,,,,,
56cc78e3ccc0e20006b82a7d,TCR,2024-06-11_13h21.43.617,LearnStrategy,2023.2.3,Win32,59.88023952,3,1,11,0.038888889,0.005555556,1,0,0,0.5477,rock_grid_rect_2,6,03,-1,-1,0.548,0.09537037,-0.402777778,1,0,0,2.012,Peridotite_rect,7,2.012,0,10,0,10,0,1,,,,,,,,,,,,,
56cc78e3ccc0e20006b82a7d,TCR,2024-06-11_13h21.43.617,LearnStrategy,2023.2.3,Win32,59.88023952,3,1,12,0.071296296,-0.014814815,1,0,0,0.5454,rock_grid_rect_2,3,11,-1,-1,0.545,-0.380555556,-0.244444444,1,0,0,0.8269,Andesite_rect,1,0.827,0,11,0,11,0,1,,,,,,,,,,,,,
56cc78e3ccc0e20006b82a7d,TCR,2024-06-11_13h21.43.617,LearnStrategy,2023.2.3,Win32,59.88023952,3,1,13,0.110185185,-0.000925926,1,0,0,1.6309,rock_grid_rect_2,2,04,-1,-1,1.631,-0.1,-0.246296296,1,0,0,3.5946,Basalt_rect,2,3.595,1,12,0,12,0,1,,,,,,,,,,,,,
56cc78e3ccc0e20006b82a7d,TCR,2024-06-11_13h21.43.617,LearnStrategy,2023.2.3,Win32,59.88023952,3,1,14,0.047222222,-0.018518519,1,0,0,0.7812,rock_grid_rect_2,3,12,-1,-1,0.781,-0.368518519,-0.265740741,1,0,0,0.9932,Andesite_rect,1,0.993,0,13,0,13,0,1,,,,,,,,,,,,,
56cc78e3ccc0e20006b82a7d,TCR,2024-06-11_13h21.43.617,LearnStrategy,2023.2.3,Win32,59.88023952,3,1,15,0.013888889,0.003703704,1,0,0,0.7472,rock_grid_rect_2,7,04,-1,-1,0.747,-0.110185185,-0.40462963,1,0,0,1.3269,Pegmatite_rect,6,1.327,0,14,0,14,0,1,,,,,,,,,,,,,
56cc78e3ccc0e20006b82a7d,TCR,2024-06-11_13h21.43.617,LearnStrategy,2023.2.3,Win32,59.88023952,3,1,16,0.048148148,-0.008333333,1,0,0,0.5149,rock_grid_rect_2,4,05,-1,-1,0.515,0.400925926,-0.251851852,1,0,0,1.8435,Gabbro_rect,4,1.844,1,15,0,15,0,1,,,,,,,,,,,,,
56cc78e3ccc0e20006b82a7d,TCR,2024-06-11_13h21.43.617,LearnStrategy,2023.2.3,Win32,59.88023952,3,2,1,,,,,,,,7,13,,,,,,,,,,,7,2.075,1,,,,,,0.137037037,-0.387962963,1,0,0,2.0755,Peridotite_rect,0,0,0,0,1,
56cc78e3ccc0e20006b82a7d,TCR,2024-06-11_13h21.43.617,LearnStrategy,2023.2.3,Win32,59.88023952,3,2,2,,,,,,,,5,11,,,,,,,,,,,5,0.862,1,,,,,,-0.378703704,-0.396296296,1,0,0,0.862,Obsidian_rect,1,0,1,0,1,
56cc78e3ccc0e20006b82a7d,TCR,2024-06-11_13h21.43.617,LearnStrategy,2023.2.3,Win32,59.88023952,3,2,3,,,,,,,,5,05,,,,,,,,,,,5,1.282,1,,,,,,-0.337037037,-0.387037037,1,0,0,1.2821,Obsidian_rect,2,0,2,0,1,
56cc78e3ccc0e20006b82a7d,TCR,2024-06-11_13h21.43.617,LearnStrategy,2023.2.3,Win32,59.88023952,3,2,4,,,,,,,,8,05,,,,,,,,,,,8,1.082,1,,,,,,0.408333333,-0.392592593,1,0,0,1.0825,Pumice_rect,3,0,3,0,1,
56cc78e3ccc0e20006b82a7d,TCR,2024-06-11_13h21.43.617,LearnStrategy,2023.2.3,Win32,59.88023952,3,2,5,,,,,,,,4,16,,,,,,,,,,,4,2.066,1,,,,,,0.437037037,-0.236111111,1,0,0,2.0656,Gabbro_rect,4,0,4,0,1,
56cc78e3ccc0e20006b82a7d,TCR,2024-06-11_13h21.43.617,LearnStrategy,2023.2.3,Win32,59.88023952,3,2,6,,,,,,,,8,13,,,,,,,,,,,8,1.201,1,,,,,,0.400925926,-0.414814815,1,0,0,1.2008,Pumice_rect,5,0,5,0,1,
56cc78e3ccc0e20006b82a7d,TCR,2024-06-11_13h21.43.617,LearnStrategy,2023.2.3,Win32,59.88023952,3,2,7,,,,,,,,4,03,,,,,,,,,,,3,2.247,0,,,,,,0.143518519,-0.243518519,1,0,0,2.2471,Diorite_rect,6,0,6,0,1,
56cc78e3ccc0e20006b82a7d,TCR,2024-06-11_13h21.43.617,LearnStrategy,2023.2.3,Win32,59.88023952,3,2,8,,,,,,,,1,05,,,,,,,,,,,1,1.712,1,,,,,,-0.348148148,-0.240740741,1,0,0,1.7118,Andesite_rect,7,0,7,0,1,
56cc78e3ccc0e20006b82a7d,TCR,2024-06-11_13h21.43.617,LearnStrategy,2023.2.3,Win32,59.88023952,3,2,9,,,,,,,,7,06,,,,,,,,,,,7,2.461,1,,,,,,0.168518519,-0.387037037,1,0,0,2.4611,Peridotite_rect,8,0,8,0,1,
56cc78e3ccc0e20006b82a7d,TCR,2024-06-11_13h21.43.617,LearnStrategy,2023.2.3,Win32,59.88023952,3,2,10,,,,,,,,3,14,,,,,,,,,,,3,3.643,1,,,,,,0.087037037,-0.246296296,1,0,0,3.6434,Diorite_rect,9,0,9,0,1,
56cc78e3ccc0e20006b82a7d,TCR,2024-06-11_13h21.43.617,LearnStrategy,2023.2.3,Win32,59.88023952,3,2,11,,,,,,,,3,10,,,,,,,,,,,3,2.327,1,,,,,,0.10462963,-0.22962963,1,0,0,2.327,Diorite_rect,10,0,10,0,1,
56cc78e3ccc0e20006b82a7d,TCR,2024-06-11_13h21.43.617,LearnStrategy,2023.2.3,Win32,59.88023952,3,2,12,,,,,,,,1,03,,,,,,,,,,,4,2.837,0,,,,,,0.427777778,-0.269444444,1,0,0,2.8365,Gabbro_rect,11,0,11,0,1,
56cc78e3ccc0e20006b82a7d,TCR,2024-06-11_13h21.43.617,LearnStrategy,2023.2.3,Win32,59.88023952,3,2,13,,,,,,,,2,06,,,,,,,,,,,2,0.704,1,,,,,,-0.099074074,-0.253703704,1,0,0,0.7036,Basalt_rect,12,0,12,0,1,
56cc78e3ccc0e20006b82a7d,TCR,2024-06-11_13h21.43.617,LearnStrategy,2023.2.3,Win32,59.88023952,3,2,14,,,,,,,,6,10,,,,,,,,,,,6,1.477,1,,,,,,-0.096296296,-0.414814815,1,0,0,1.4766,Pegmatite_rect,13,0,13,0,1,
56cc78e3ccc0e20006b82a7d,TCR,2024-06-11_13h21.43.617,LearnStrategy,2023.2.3,Win32,59.88023952,3,2,15,,,,,,,,6,13,,,,,,,,,,,7,2.277,0,,,,,,0.092592593,-0.411111111,1,0,0,2.2767,Peridotite_rect,14,0,14,0,1,
56cc78e3ccc0e20006b82a7d,TCR,2024-06-11_13h21.43.617,LearnStrategy,2023.2.3,Win32,59.88023952,3,2,16,,,,,,,,2,16,,,,,,,,,,,2,1.792,1,,,,,,-0.087962963,-0.239814815,1,0,0,1.7923,Basalt_rect,15,0,15,0,1,
56cc78e3ccc0e20006b82a7d,TCR,2024-06-11_13h21.43.617,LearnStrategy,2023.2.3,Win32,59.88023952,4,1,1,0.065740741,-0.013888889,1,0,0,0.7653,rock_grid_rect_2,4,12,-1,-1,0.765,0.343518519,-0.242592593,1,0,0,1.5606,Gabbro_rect,4,1.561,1,0,0,0,0,1,,,,,,,,,,,,,
56cc78e3ccc0e20006b82a7d,TCR,2024-06-11_13h21.43.617,LearnStrategy,2023.2.3,Win32,59.88023952,4,1,2,0.051851852,-0.00462963,1,0,0,0.7649,rock_grid_rect_2,1,09,-1,-1,0.765,0.391666667,-0.249074074,1,0,0,2.1933,Gabbro_rect,4,2.193,0,1,0,1,0,1,,,,,,,,,,,,,
56cc78e3ccc0e20006b82a7d,TCR,2024-06-11_13h21.43.617,LearnStrategy,2023.2.3,Win32,59.88023952,4,1,3,0.077777778,-0.017592593,1,0,0,0.4486,rock_grid_rect_2,2,04,-1,-1,0.449,-0.150925926,-0.228703704,1,0,0,0.8274,Basalt_rect,2,0.827,1,2,0,2,0,1,,,,,,,,,,,,,
56cc78e3ccc0e20006b82a7d,TCR,2024-06-11_13h21.43.617,LearnStrategy,2023.2.3,Win32,59.88023952,4,1,4,0.018518519,0.005555556,1,0,0,0.4652,rock_grid_rect_2,6,12,-1,-1,0.465,0.121296296,-0.397222222,1,0,0,1.3286,Peridotite_rect,7,1.329,0,3,0,3,0,1,,,,,,,,,,,,,
56cc78e3ccc0e20006b82a7d,TCR,2024-06-11_13h21.43.617,LearnStrategy,2023.2.3,Win32,59.88023952,4,1,5,0.035185185,-0.022222222,1,0,0,0.7166,rock_grid_rect_2,7,05,-1,-1,0.717,0.072222222,-0.391666667,1,0,0,0.9797,Peridotite_rect,7,0.98,1,4,0,4,0,1,,,,,,,,,,,,,
56cc78e3ccc0e20006b82a7d,TCR,2024-06-11_13h21.43.617,LearnStrategy,2023.2.3,Win32,59.88023952,4,1,6,0.037037037,0.010185185,1,0,0,0.6001,rock_grid_rect_2,5,08,-1,-1,0.6,-0.4,-0.411111111,1,0,0,1.4254,Obsidian_rect,5,1.425,1,5,0,5,0,1,,,,,,,,,,,,,
56cc78e3ccc0e20006b82a7d,TCR,2024-06-11_13h21.43.617,LearnStrategy,2023.2.3,Win32,59.88023952,4,1,7,0.025,0.017592593,1,0,0,0.7491,rock_grid_rect_2,3,12,-1,-1,0.749,0.038888889,-0.22962963,1,0,0,0.8432,Diorite_rect,3,0.843,1,6,0,6,0,1,,,,,,,,,,,,,
56cc78e3ccc0e20006b82a7d,TCR,2024-06-11_13h21.43.617,LearnStrategy,2023.2.3,Win32,59.88023952,4,1,8,0.031481481,-0.024074074,1,0,0,0.4484,rock_grid_rect_2,6,03,-1,-1,0.448,-0.140740741,-0.397222222,1,0,0,1.2284,Pegmatite_rect,6,1.228,1,7,0,7,0,1,,,,,,,,,,,,,
56cc78e3ccc0e20006b82a7d,TCR,2024-06-11_13h21.43.617,LearnStrategy,2023.2.3,Win32,59.88023952,4,1,9,0.015740741,-0.000925926,1,0,0,0.9654,rock_grid_rect_2,3,08,-1,-1,0.965,-0.435185185,-0.261111111,1,0,0,1.3285,Andesite_rect,1,1.329,0,8,0,8,0,1,,,,,,,,,,,,,
56cc78e3ccc0e20006b82a7d,TCR,2024-06-11_13h21.43.617,LearnStrategy,2023.2.3,Win32,59.88023952,4,1,10,0.002777778,0.000925926,1,0,0,0.5152,rock_grid_rect_2,6,09,-1,-1,0.515,0.122222222,-0.386111111,1,0,0,1.2934,Peridotite_rect,7,1.293,0,9,0,9,0,1,,,,,,,,,,,,,
56cc78e3ccc0e20006b82a7d,TCR,2024-06-11_13h21.43.617,LearnStrategy,2023.2.3,Win32,59.88023952,4,1,11,0.060185185,-0.012962963,1,0,0,0.6987,rock_grid_rect_2,8,06,-1,-1,0.699,0.44537037,-0.396296296,1,0,0,1.1769,Pumice_rect,8,1.177,1,10,0,10,0,1,,,,,,,,,,,,,
56cc78e3ccc0e20006b82a7d,TCR,2024-06-11_13h21.43.617,LearnStrategy,2023.2.3,Win32,59.88023952,4,1,12,-0.005555556,-0.001851852,1,0,0,0.5154,rock_grid_rect_2,4,12,-1,-1,0.515,0.45,-0.248148148,1,0,0,1.1761,Gabbro_rect,4,1.176,1,11,0,11,0,1,,,,,,,,,,,,,
56cc78e3ccc0e20006b82a7d,TCR,2024-06-11_13h21.43.617,LearnStrategy,2023.2.3,Win32,59.88023952,4,1,13,0.00462963,-0.001851852,1,0,0,0.532,rock_grid_rect_2,3,11,-1,-1,0.532,-0.348148148,-0.237037037,1,0,0,1.0627,Andesite_rect,1,1.063,0,12,0,12,0,1,,,,,,,,,,,,,
56cc78e3ccc0e20006b82a7d,TCR,2024-06-11_13h21.43.617,LearnStrategy,2023.2.3,Win32,59.88023952,4,1,14,0.013888889,-0.024074074,1,0,0,0.5651,rock_grid_rect_2,7,07,-1,-1,0.565,0.233333333,-0.405555556,1,0,0,1.2778,Peridotite_rect,7,1.278,1,13,0,13,0,1,,,,,,,,,,,,,
56cc78e3ccc0e20006b82a7d,TCR,2024-06-11_13h21.43.617,LearnStrategy,2023.2.3,Win32,59.88023952,4,1,15,0.048148148,-0.016666667,1,0,0,0.4322,rock_grid_rect_2,1,11,-1,-1,0.432,-0.131481481,-0.398148148,1,0,0,1.361,Pegmatite_rect,6,1.361,0,14,0,14,0,1,,,,,,,,,,,,,
56cc78e3ccc0e20006b82a7d,TCR,2024-06-11_13h21.43.617,LearnStrategy,2023.2.3,Win32,59.88023952,4,1,16,0.003703704,0.019444444,1,0,0,0.4485,rock_grid_rect_2,4,10,-1,-1,0.449,-0.097222222,-0.244444444,1,0,0,1.9437,Basalt_rect,2,1.944,0,15,0,15,0,1,,,,,,,,,,,,,
56cc78e3ccc0e20006b82a7d,TCR,2024-06-11_13h21.43.617,LearnStrategy,2023.2.3,Win32,59.88023952,4,2,1,,,,,,,,5,04,,,,,,,,,,,5,1.178,1,,,,,,-0.419444444,-0.401851852,1,0,0,1.178,Obsidian_rect,0,0,0,0,1,
56cc78e3ccc0e20006b82a7d,TCR,2024-06-11_13h21.43.617,LearnStrategy,2023.2.3,Win32,59.88023952,4,2,2,,,,,,,,5,11,,,,,,,,,,,5,1.26,1,,,,,,-0.393518519,-0.416666667,1,0,0,1.2604,Obsidian_rect,1,0,1,0,1,
56cc78e3ccc0e20006b82a7d,TCR,2024-06-11_13h21.43.617,LearnStrategy,2023.2.3,Win32,59.88023952,4,2,3,,,,,,,,1,16,,,,,,,,,,,1,2.027,1,,,,,,-0.433333333,-0.243518519,1,0,0,2.0272,Andesite_rect,2,0,2,0,1,
56cc78e3ccc0e20006b82a7d,TCR,2024-06-11_13h21.43.617,LearnStrategy,2023.2.3,Win32,59.88023952,4,2,4,,,,,,,,2,06,,,,,,,,,,,2,1.106,1,,,,,,-0.142592593,-0.228703704,1,0,0,1.1063,Basalt_rect,3,0,3,0,1,
56cc78e3ccc0e20006b82a7d,TCR,2024-06-11_13h21.43.617,LearnStrategy,2023.2.3,Win32,59.88023952,4,2,5,,,,,,,,6,05,,,,,,,,,,,6,3.174,1,,,,,,-0.112962963,-0.407407407,1,0,0,3.1739,Pegmatite_rect,4,0,4,0,1,
56cc78e3ccc0e20006b82a7d,TCR,2024-06-11_13h21.43.617,LearnStrategy,2023.2.3,Win32,59.88023952,4,2,6,,,,,,,,8,05,,,,,,,,,,,8,1.103,1,,,,,,0.365740741,-0.382407407,1,0,0,1.1032,Pumice_rect,5,0,5,0,1,
56cc78e3ccc0e20006b82a7d,TCR,2024-06-11_13h21.43.617,LearnStrategy,2023.2.3,Win32,59.88023952,4,2,7,,,,,,,,4,16,,,,,,,,,,,4,1.026,1,,,,,,0.416666667,-0.260185185,1,0,0,1.0258,Gabbro_rect,6,0,6,0,1,
56cc78e3ccc0e20006b82a7d,TCR,2024-06-11_13h21.43.617,LearnStrategy,2023.2.3,Win32,59.88023952,4,2,8,,,,,,,,7,15,,,,,,,,,,,7,1.186,1,,,,,,0.05462963,-0.393518519,1,0,0,1.1864,Peridotite_rect,7,0,7,0,1,
56cc78e3ccc0e20006b82a7d,TCR,2024-06-11_13h21.43.617,LearnStrategy,2023.2.3,Win32,59.88023952,4,2,9,,,,,,,,1,14,,,,,,,,,,,1,2.642,1,,,,,,-0.419444444,-0.263888889,1,0,0,2.6425,Andesite_rect,8,0,8,0,1,
56cc78e3ccc0e20006b82a7d,TCR,2024-06-11_13h21.43.617,LearnStrategy,2023.2.3,Win32,59.88023952,4,2,10,,,,,,,,7,13,,,,,,,,,,,6,1.25,0,,,,,,-0.118518519,-0.382407407,1,0,0,1.25,Pegmatite_rect,9,0,9,0,1,
56cc78e3ccc0e20006b82a7d,TCR,2024-06-11_13h21.43.617,LearnStrategy,2023.2.3,Win32,59.88023952,4,2,11,,,,,,,,8,04,,,,,,,,,,,8,1.427,1,,,,,,0.35462963,-0.419444444,1,0,0,1.4272,Pumice_rect,10,0,10,0,1,
56cc78e3ccc0e20006b82a7d,TCR,2024-06-11_13h21.43.617,LearnStrategy,2023.2.3,Win32,59.88023952,4,2,12,,,,,,,,3,16,,,,,,,,,,,3,1.161,1,,,,,,0.128703704,-0.25462963,1,0,0,1.1607,Diorite_rect,11,0,11,0,1,
56cc78e3ccc0e20006b82a7d,TCR,2024-06-11_13h21.43.617,LearnStrategy,2023.2.3,Win32,59.88023952,4,2,13,,,,,,,,3,13,,,,,,,,,,,1,4.443,0,,,,,,-0.340740741,-0.256481481,1,0,0,4.4434,Andesite_rect,12,0,12,0,1,
56cc78e3ccc0e20006b82a7d,TCR,2024-06-11_13h21.43.617,LearnStrategy,2023.2.3,Win32,59.88023952,4,2,14,,,,,,,,4,13,,,,,,,,,,,4,1.356,1,,,,,,0.426851852,-0.260185185,1,0,0,1.3556,Gabbro_rect,13,0,13,0,1,
56cc78e3ccc0e20006b82a7d,TCR,2024-06-11_13h21.43.617,LearnStrategy,2023.2.3,Win32,59.88023952,4,2,15,,,,,,,,2,16,,,,,,,,,,,4,2.677,0,,,,,,0.372222222,-0.253703704,1,0,0,2.6766,Gabbro_rect,14,0,14,0,1,
56cc78e3ccc0e20006b82a7d,TCR,2024-06-11_13h21.43.617,LearnStrategy,2023.2.3,Win32,59.88023952,4,2,16,,,,,,,,6,13,,,,,,,,,,,7,2.521,0,,,,,,0.160185185,-0.414814815,1,0,0,2.5211,Peridotite_rect,15,0,15,0,1,
56cc78e3ccc0e20006b82a7d,TCR,2024-06-11_13h21.43.617,LearnStrategy,2023.2.3,Win32,59.88023952,5,1,1,0.017592593,0.019444444,1,0,0,0.5153,rock_grid_rect_2,2,08,-1,-1,0.515,-0.122222222,-0.261111111,1,0,0,2.2942,Basalt_rect,2,2.294,1,0,0,0,0,1,,,,,,,,,,,,,
56cc78e3ccc0e20006b82a7d,TCR,2024-06-11_13h21.43.617,LearnStrategy,2023.2.3,Win32,59.88023952,5,1,2,-0.001851852,-0.007407407,1,0,0,0.7982,rock_grid_rect_2,6,12,-1,-1,0.798,0.162037037,-0.22962963,1,0,0,1.5771,Diorite_rect,3,1.577,0,1,0,1,0,1,,,,,,,,,,,,,
56cc78e3ccc0e20006b82a7d,TCR,2024-06-11_13h21.43.617,LearnStrategy,2023.2.3,Win32,59.88023952,5,1,3,0.062962963,-0.011111111,1,0,0,0.448,rock_grid_rect_2,1,11,-1,-1,0.448,0.127777778,-0.244444444,1,0,0,1.293,Diorite_rect,3,1.293,0,2,0,2,0,1,,,,,,,,,,,,,
56cc78e3ccc0e20006b82a7d,TCR,2024-06-11_13h21.43.617,LearnStrategy,2023.2.3,Win32,59.88023952,5,1,4,0.016666667,0.010185185,1,0,0,0.3546,rock_grid_rect_2,7,07,-1,-1,0.355,-0.168518519,-0.39537037,1,0,0,1.7254,Pegmatite_rect,6,1.725,0,3,0,3,0,1,,,,,,,,,,,,,
56cc78e3ccc0e20006b82a7d,TCR,2024-06-11_13h21.43.617,LearnStrategy,2023.2.3,Win32,59.88023952,5,1,5,0.073148148,-0.022222222,1,0,0,0.5651,rock_grid_rect_2,1,07,-1,-1,0.565,-0.365740741,-0.242592593,1,0,0,1.0253,Andesite_rect,1,1.025,1,4,0,4,0,1,,,,,,,,,,,,,
56cc78e3ccc0e20006b82a7d,TCR,2024-06-11_13h21.43.617,LearnStrategy,2023.2.3,Win32,59.88023952,5,1,6,0.050925926,0.012962963,1,0,0,0.5159,rock_grid_rect_2,3,11,-1,-1,0.516,0.127777778,-0.252777778,1,0,0,2.478,Diorite_rect,3,2.478,1,5,0,5,0,1,,,,,,,,,,,,,
56cc78e3ccc0e20006b82a7d,TCR,2024-06-11_13h21.43.617,LearnStrategy,2023.2.3,Win32,59.88023952,5,1,7,0.099074074,0.002777778,1,0,0,0.432,rock_grid_rect_2,6,03,-1,-1,0.432,-0.062962963,-0.4,1,0,0,1.1267,Pegmatite_rect,6,1.127,1,6,0,6,0,1,,,,,,,,,,,,,
56cc78e3ccc0e20006b82a7d,TCR,2024-06-11_13h21.43.617,LearnStrategy,2023.2.3,Win32,59.88023952,5,1,8,0.023148148,0.001851852,1,0,0,0.4472,rock_grid_rect_2,3,08,-1,-1,0.447,0.097222222,-0.246296296,1,0,0,2.3099,Diorite_rect,3,2.31,1,7,0,7,0,1,,,,,,,,,,,,,
56cc78e3ccc0e20006b82a7d,TCR,2024-06-11_13h21.43.617,LearnStrategy,2023.2.3,Win32,59.88023952,5,1,9,0.084259259,0.016666667,1,0,0,0.415,rock_grid_rect_2,4,08,-1,-1,0.415,0.380555556,-0.27037037,1,0,0,1.4946,Gabbro_rect,4,1.495,1,8,0,8,0,1,,,,,,,,,,,,,
56cc78e3ccc0e20006b82a7d,TCR,2024-06-11_13h21.43.617,LearnStrategy,2023.2.3,Win32,59.88023952,5,1,10,0.131481481,0.018518519,1,0,0,0.7155,rock_grid_rect_2,7,02,-1,-1,0.715,-0.131481481,-0.401851852,1,0,0,1.0104,Pegmatite_rect,6,1.01,0,9,0,9,0,1,,,,,,,,,,,,,
56cc78e3ccc0e20006b82a7d,TCR,2024-06-11_13h21.43.617,LearnStrategy,2023.2.3,Win32,59.88023952,5,1,11,0.050925926,-0.015740741,1,0,0,0.6984,rock_grid_rect_2,6,03,-1,-1,0.698,0.074074074,-0.418518519,1,0,0,1.878,Peridotite_rect,7,1.878,0,10,0,10,0,1,,,,,,,,,,,,,
56cc78e3ccc0e20006b82a7d,TCR,2024-06-11_13h21.43.617,LearnStrategy,2023.2.3,Win32,59.88023952,5,1,12,0.087962963,-0.007407407,1,0,0,0.3816,rock_grid_rect_2,2,08,-1,-1,0.382,-0.087037037,-0.256481481,1,0,0,0.9111,Basalt_rect,2,0.911,1,11,0,11,0,1,,,,,,,,,,,,,
56cc78e3ccc0e20006b82a7d,TCR,2024-06-11_13h21.43.617,LearnStrategy,2023.2.3,Win32,59.88023952,5,1,13,0.086111111,0.001851852,1,0,0,1.1985,rock_grid_rect_2,5,06,-1,-1,1.199,-0.375925926,-0.396296296,1,0,0,1.6934,Obsidian_rect,5,1.693,1,12,0,12,0,1,,,,,,,,,,,,,
56cc78e3ccc0e20006b82a7d,TCR,2024-06-11_13h21.43.617,LearnStrategy,2023.2.3,Win32,59.88023952,5,1,14,0.048148148,-0.008333333,1,0,0,0.5654,rock_grid_rect_2,4,12,-1,-1,0.565,0.349074074,-0.239814815,1,0,0,1.1286,Gabbro_rect,4,1.129,1,13,0,13,0,1,,,,,,,,,,,,,
56cc78e3ccc0e20006b82a7d,TCR,2024-06-11_13h21.43.617,LearnStrategy,2023.2.3,Win32,59.88023952,5,1,15,0.059259259,0.019444444,1,0,0,0.7995,rock_grid_rect_2,3,12,-1,-1,0.799,0.058333333,-0.256481481,1,0,0,3.0926,Diorite_rect,3,3.093,1,14,0,14,0,1,,,,,,,,,,,,,
56cc78e3ccc0e20006b82a7d,TCR,2024-06-11_13h21.43.617,LearnStrategy,2023.2.3,Win32,59.88023952,5,1,16,0.037037037,-0.006481481,1,0,0,0.782,rock_grid_rect_2,8,02,-1,-1,0.782,0.410185185,-0.397222222,1,0,0,1.0098,Pumice_rect,8,1.01,1,15,0,15,0,1,,,,,,,,,,,,,
56cc78e3ccc0e20006b82a7d,TCR,2024-06-11_13h21.43.617,LearnStrategy,2023.2.3,Win32,59.88023952,5,2,1,,,,,,,,8,09,,,,,,,,,,,8,1.859,1,,,,,,0.373148148,-0.406481481,1,0,0,1.8593,Pumice_rect,0,0,0,0,1,
56cc78e3ccc0e20006b82a7d,TCR,2024-06-11_13h21.43.617,LearnStrategy,2023.2.3,Win32,59.88023952,5,2,2,,,,,,,,5,12,,,,,,,,,,,5,0.91,1,,,,,,-0.405555556,-0.397222222,1,0,0,0.9099,Obsidian_rect,1,0,1,0,1,
56cc78e3ccc0e20006b82a7d,TCR,2024-06-11_13h21.43.617,LearnStrategy,2023.2.3,Win32,59.88023952,5,2,3,,,,,,,,7,14,,,,,,,,,,,6,3.961,0,,,,,,-0.15462963,-0.399074074,1,0,0,3.9605,Pegmatite_rect,2,0,2,0,1,
56cc78e3ccc0e20006b82a7d,TCR,2024-06-11_13h21.43.617,LearnStrategy,2023.2.3,Win32,59.88023952,5,2,4,,,,,,,,3,02,,,,,,,,,,,3,1.054,1,,,,,,0.110185185,-0.235185185,1,0,0,1.0537,Diorite_rect,3,0,3,0,1,
56cc78e3ccc0e20006b82a7d,TCR,2024-06-11_13h21.43.617,LearnStrategy,2023.2.3,Win32,59.88023952,5,2,5,,,,,,,,6,08,,,,,,,,,,,5,1.394,0,,,,,,-0.344444444,-0.414814815,1,0,0,1.3937,Obsidian_rect,4,0,4,0,1,
56cc78e3ccc0e20006b82a7d,TCR,2024-06-11_13h21.43.617,LearnStrategy,2023.2.3,Win32,59.88023952,5,2,6,,,,,,,,3,10,,,,,,,,,,,1,4.191,0,,,,,,-0.385185185,-0.240740741,1,0,0,4.1912,Andesite_rect,5,0,5,0,1,
56cc78e3ccc0e20006b82a7d,TCR,2024-06-11_13h21.43.617,LearnStrategy,2023.2.3,Win32,59.88023952,5,2,7,,,,,,,,5,09,,,,,,,,,,,5,0.772,1,,,,,,-0.375925926,-0.398148148,1,0,0,0.7717,Obsidian_rect,6,0,6,0,1,
56cc78e3ccc0e20006b82a7d,TCR,2024-06-11_13h21.43.617,LearnStrategy,2023.2.3,Win32,59.88023952,5,2,8,,,,,,,,4,01,,,,,,,,,,,6,2.591,0,,,,,,-0.116666667,-0.413888889,1,0,0,2.5912,Pegmatite_rect,7,0,7,0,1,
56cc78e3ccc0e20006b82a7d,TCR,2024-06-11_13h21.43.617,LearnStrategy,2023.2.3,Win32,59.88023952,5,2,9,,,,,,,,1,04,,,,,,,,,,,1,1.191,1,,,,,,-0.440740741,-0.25,1,0,0,1.1905,Andesite_rect,8,0,8,0,1,
56cc78e3ccc0e20006b82a7d,TCR,2024-06-11_13h21.43.617,LearnStrategy,2023.2.3,Win32,59.88023952,5,2,10,,,,,,,,2,02,,,,,,,,,,,4,1.077,0,,,,,,0.360185185,-0.262037037,1,0,0,1.0766,Gabbro_rect,9,0,9,0,1,
56cc78e3ccc0e20006b82a7d,TCR,2024-06-11_13h21.43.617,LearnStrategy,2023.2.3,Win32,59.88023952,5,2,11,,,,,,,,6,11,,,,,,,,,,,5,1.394,0,,,,,,-0.422222222,-0.394444444,1,0,0,1.3938,Obsidian_rect,10,0,10,0,1,
56cc78e3ccc0e20006b82a7d,TCR,2024-06-11_13h21.43.617,LearnStrategy,2023.2.3,Win32,59.88023952,5,2,12,,,,,,,,4,03,,,,,,,,,,,4,1.96,1,,,,,,0.298148148,-0.240740741,1,0,0,1.9604,Gabbro_rect,11,0,11,0,1,
56cc78e3ccc0e20006b82a7d,TCR,2024-06-11_13h21.43.617,LearnStrategy,2023.2.3,Win32,59.88023952,5,2,13,,,,,,,,7,08,,,,,,,,,,,6,1.292,0,,,,,,-0.07962963,-0.403703704,1,0,0,1.2919,Pegmatite_rect,12,0,12,0,1,
56cc78e3ccc0e20006b82a7d,TCR,2024-06-11_13h21.43.617,LearnStrategy,2023.2.3,Win32,59.88023952,5,2,14,,,,,,,,2,10,,,,,,,,,,,4,1.759,0,,,,,,0.441666667,-0.265740741,1,0,0,1.7593,Gabbro_rect,13,0,13,0,1,
56cc78e3ccc0e20006b82a7d,TCR,2024-06-11_13h21.43.617,LearnStrategy,2023.2.3,Win32,59.88023952,5,2,15,,,,,,,,8,10,,,,,,,,,,,8,1.157,1,,,,,,0.45,-0.388888889,1,0,0,1.1571,Pumice_rect,14,0,14,0,1,
56cc78e3ccc0e20006b82a7d,TCR,2024-06-11_13h21.43.617,LearnStrategy,2023.2.3,Win32,59.88023952,5,2,16,,,,,,,,1,03,,,,,,,,,,,1,1.243,1,,,,,,-0.325925926,-0.259259259,1,0,0,1.2433,Andesite_rect,15,0,15,0,1,
56cc78e3ccc0e20006b82a7d,TCR,2024-06-11_13h21.43.617,LearnStrategy,2023.2.3,Win32,59.88023952,6,1,1,0.105555556,0.002777778,1,0,0,1.0152,rock_grid_rect_2,2,04,-1,-1,1.015,0.412037037,-0.246296296,1,0,0,1.2855,Gabbro_rect,4,1.285,0,0,0,0,0,1,,,,,,,,,,,,,
56cc78e3ccc0e20006b82a7d,TCR,2024-06-11_13h21.43.617,LearnStrategy,2023.2.3,Win32,59.88023952,6,1,2,0.003703704,-0.012037037,1,0,0,0.7203,rock_grid_rect_2,3,09,-1,-1,0.72,-0.377777778,-0.253703704,1,0,0,1.4704,Andesite_rect,1,1.47,0,1,0,1,0,1,,,,,,,,,,,,,
56cc78e3ccc0e20006b82a7d,TCR,2024-06-11_13h21.43.617,LearnStrategy,2023.2.3,Win32,59.88023952,6,1,3,0.017592593,0.001851852,1,0,0,0.9483,rock_grid_rect_2,7,07,-1,-1,0.948,-0.111111111,-0.397222222,1,0,0,1.0762,Pegmatite_rect,6,1.076,0,2,0,2,0,1,,,,,,,,,,,,,
56cc78e3ccc0e20006b82a7d,TCR,2024-06-11_13h21.43.617,LearnStrategy,2023.2.3,Win32,59.88023952,6,1,4,0.05462963,0.00462963,1,0,0,0.6319,rock_grid_rect_2,4,15,-1,-1,0.632,-0.15462963,-0.389814815,1,0,0,2.6286,Pegmatite_rect,6,2.629,0,3,0,3,0,1,,,,,,,,,,,,,
56cc78e3ccc0e20006b82a7d,TCR,2024-06-11_13h21.43.617,LearnStrategy,2023.2.3,Win32,59.88023952,6,1,5,0.073148148,0.003703704,1,0,0,0.7654,rock_grid_rect_2,7,02,-1,-1,0.765,-0.114814815,-0.412962963,1,0,0,1.4922,Pegmatite_rect,6,1.492,0,4,0,4,0,1,,,,,,,,,,,,,
56cc78e3ccc0e20006b82a7d,TCR,2024-06-11_13h21.43.617,LearnStrategy,2023.2.3,Win32,59.88023952,6,1,6,0.011111111,0.002777778,1,0,0,0.6979,rock_grid_rect_2,2,04,-1,-1,0.698,-0.175,-0.249074074,1,0,0,0.777,Basalt_rect,2,0.777,1,5,0,5,0,1,,,,,,,,,,,,,
56cc78e3ccc0e20006b82a7d,TCR,2024-06-11_13h21.43.617,LearnStrategy,2023.2.3,Win32,59.88023952,6,1,7,0.007407407,-0.016666667,1,0,0,0.4322,rock_grid_rect_2,4,10,-1,-1,0.432,0.453703704,-0.243518519,1,0,0,1.2619,Gabbro_rect,4,1.262,1,6,0,6,0,1,,,,,,,,,,,,,
56cc78e3ccc0e20006b82a7d,TCR,2024-06-11_13h21.43.617,LearnStrategy,2023.2.3,Win32,59.88023952,6,1,8,0.059259259,-0.003703704,1,0,0,0.5485,rock_grid_rect_2,2,09,-1,-1,0.548,-0.146296296,-0.244444444,1,0,0,0.8626,Basalt_rect,2,0.863,1,7,0,7,0,1,,,,,,,,,,,,,
56cc78e3ccc0e20006b82a7d,TCR,2024-06-11_13h21.43.617,LearnStrategy,2023.2.3,Win32,59.88023952,6,1,9,0.118518519,0.014814815,1,0,0,0.4817,rock_grid_rect_2,5,07,-1,-1,0.482,-0.382407407,-0.403703704,1,0,0,1.9763,Obsidian_rect,5,1.976,1,8,0,8,0,1,,,,,,,,,,,,,
56cc78e3ccc0e20006b82a7d,TCR,2024-06-11_13h21.43.617,LearnStrategy,2023.2.3,Win32,59.88023952,6,1,10,0.075,0.008333333,1,0,0,0.665,rock_grid_rect_2,6,07,-1,-1,0.665,-0.097222222,-0.396296296,1,0,0,1.1768,Pegmatite_rect,6,1.177,1,9,0,9,0,1,,,,,,,,,,,,,
56cc78e3ccc0e20006b82a7d,TCR,2024-06-11_13h21.43.617,LearnStrategy,2023.2.3,Win32,59.88023952,6,1,11,0.052777778,-0.007407407,1,0,0,0.6323,rock_grid_rect_2,6,06,-1,-1,0.632,0.086111111,-0.417592593,1,0,0,1.9933,Peridotite_rect,7,1.993,0,10,0,10,0,1,,,,,,,,,,,,,
56cc78e3ccc0e20006b82a7d,TCR,2024-06-11_13h21.43.617,LearnStrategy,2023.2.3,Win32,59.88023952,6,1,12,0.032407407,-0.006481481,1,0,0,0.5315,rock_grid_rect_2,3,06,-1,-1,0.532,0.102777778,-0.244444444,1,0,0,1.2439,Diorite_rect,3,1.244,1,11,0,11,0,1,,,,,,,,,,,,,
56cc78e3ccc0e20006b82a7d,TCR,2024-06-11_13h21.43.617,LearnStrategy,2023.2.3,Win32,59.88023952,6,1,13,0.044444444,0.024074074,1,0,0,0.4654,rock_grid_rect_2,6,03,-1,-1,0.465,-0.17962963,-0.400925926,1,0,0,0.8934,Pegmatite_rect,6,0.893,1,12,0,12,0,1,,,,,,,,,,,,,
56cc78e3ccc0e20006b82a7d,TCR,2024-06-11_13h21.43.617,LearnStrategy,2023.2.3,Win32,59.88023952,6,1,14,0.096296296,0.006481481,1,0,0,0.4574,rock_grid_rect_2,8,03,-1,-1,0.457,0.352777778,-0.400925926,1,0,0,1.1081,Pumice_rect,8,1.108,1,13,0,13,0,1,,,,,,,,,,,,,
56cc78e3ccc0e20006b82a7d,TCR,2024-06-11_13h21.43.617,LearnStrategy,2023.2.3,Win32,59.88023952,6,1,15,0.025,0.023148148,1,0,0,0.4485,rock_grid_rect_2,7,10,-1,-1,0.449,0.072222222,-0.388888889,1,0,0,1.6113,Peridotite_rect,7,1.611,1,14,0,14,0,1,,,,,,,,,,,,,
56cc78e3ccc0e20006b82a7d,TCR,2024-06-11_13h21.43.617,LearnStrategy,2023.2.3,Win32,59.88023952,6,1,16,0.02037037,-0.003703704,1,0,0,0.6319,rock_grid_rect_2,1,09,-1,-1,0.632,0.478703704,-0.25,1,0,0,1.3438,Gabbro_rect,4,1.344,0,15,0,15,0,1,,,,,,,,,,,,,
56cc78e3ccc0e20006b82a7d,TCR,2024-06-11_13h21.43.617,LearnStrategy,2023.2.3,Win32,59.88023952,6,2,1,,,,,,,,7,12,,,,,,,,,,,7,1.618,1,,,,,,0.12962963,-0.401851852,1,0,0,1.6184,Peridotite_rect,0,0,0,0,1,
56cc78e3ccc0e20006b82a7d,TCR,2024-06-11_13h21.43.617,LearnStrategy,2023.2.3,Win32,59.88023952,6,2,2,,,,,,,,5,05,,,,,,,,,,,5,1.215,1,,,,,,-0.39537037,-0.415740741,1,0,0,1.2153,Obsidian_rect,1,0,1,0,1,
56cc78e3ccc0e20006b82a7d,TCR,2024-06-11_13h21.43.617,LearnStrategy,2023.2.3,Win32,59.88023952,6,2,3,,,,,,,,4,11,,,,,,,,,,,4,1.351,1,,,,,,0.457407407,-0.256481481,1,0,0,1.3514,Gabbro_rect,2,0,2,0,1,
56cc78e3ccc0e20006b82a7d,TCR,2024-06-11_13h21.43.617,LearnStrategy,2023.2.3,Win32,59.88023952,6,2,4,,,,,,,,3,14,,,,,,,,,,,3,3.233,1,,,,,,0.142592593,-0.255555556,1,0,0,3.2329,Diorite_rect,3,0,3,0,1,
56cc78e3ccc0e20006b82a7d,TCR,2024-06-11_13h21.43.617,LearnStrategy,2023.2.3,Win32,59.88023952,6,2,5,,,,,,,,6,15,,,,,,,,,,,6,2.541,1,,,,,,-0.060185185,-0.399074074,1,0,0,2.5406,Pegmatite_rect,4,0,4,0,1,
56cc78e3ccc0e20006b82a7d,TCR,2024-06-11_13h21.43.617,LearnStrategy,2023.2.3,Win32,59.88023952,6,2,6,,,,,,,,1,06,,,,,,,,,,,1,1.2,1,,,,,,-0.342592593,-0.269444444,1,0,0,1.2003,Andesite_rect,5,0,5,0,1,
56cc78e3ccc0e20006b82a7d,TCR,2024-06-11_13h21.43.617,LearnStrategy,2023.2.3,Win32,59.88023952,6,2,7,,,,,,,,6,10,,,,,,,,,,,6,1.649,1,,,,,,-0.125925926,-0.411111111,1,0,0,1.6489,Pegmatite_rect,6,0,6,0,1,
56cc78e3ccc0e20006b82a7d,TCR,2024-06-11_13h21.43.617,LearnStrategy,2023.2.3,Win32,59.88023952,6,2,8,,,,,,,,2,12,,,,,,,,,,,4,4.027,0,,,,,,0.384259259,-0.251851852,1,0,0,4.0268,Gabbro_rect,7,0,7,0,1,
56cc78e3ccc0e20006b82a7d,TCR,2024-06-11_13h21.43.617,LearnStrategy,2023.2.3,Win32,59.88023952,6,2,9,,,,,,,,1,05,,,,,,,,,,,1,0.92,1,,,,,,-0.412962963,-0.249074074,1,0,0,0.92,Andesite_rect,8,0,8,0,1,
56cc78e3ccc0e20006b82a7d,TCR,2024-06-11_13h21.43.617,LearnStrategy,2023.2.3,Win32,59.88023952,6,2,10,,,,,,,,2,11,,,,,,,,,,,8,2.767,0,,,,,,0.417592593,-0.40462963,1,0,0,2.767,Pumice_rect,9,0,9,0,1,
56cc78e3ccc0e20006b82a7d,TCR,2024-06-11_13h21.43.617,LearnStrategy,2023.2.3,Win32,59.88023952,6,2,11,,,,,,,,7,06,,,,,,,,,,,7,1.619,1,,,,,,0.125,-0.412037037,1,0,0,1.6193,Peridotite_rect,10,0,10,0,1,
56cc78e3ccc0e20006b82a7d,TCR,2024-06-11_13h21.43.617,LearnStrategy,2023.2.3,Win32,59.88023952,6,2,12,,,,,,,,5,02,,,,,,,,,,,5,0.844,1,,,,,,-0.4,-0.400925926,1,0,0,0.8443,Obsidian_rect,11,0,11,0,1,
56cc78e3ccc0e20006b82a7d,TCR,2024-06-11_13h21.43.617,LearnStrategy,2023.2.3,Win32,59.88023952,6,2,13,,,,,,,,4,14,,,,,,,,,,,4,2.761,1,,,,,,0.388888889,-0.255555556,1,0,0,2.7609,Gabbro_rect,12,0,12,0,1,
56cc78e3ccc0e20006b82a7d,TCR,2024-06-11_13h21.43.617,LearnStrategy,2023.2.3,Win32,59.88023952,6,2,14,,,,,,,,8,13,,,,,,,,,,,8,1.172,1,,,,,,0.432407407,-0.414814815,1,0,0,1.172,Pumice_rect,13,0,13,0,1,
56cc78e3ccc0e20006b82a7d,TCR,2024-06-11_13h21.43.617,LearnStrategy,2023.2.3,Win32,59.88023952,6,2,15,,,,,,,,3,07,,,,,,,,,,,3,1.294,1,,,,,,0.139814815,-0.267592593,1,0,0,1.2943,Diorite_rect,14,0,14,0,1,
56cc78e3ccc0e20006b82a7d,TCR,2024-06-11_13h21.43.617,LearnStrategy,2023.2.3,Win32,59.88023952,6,2,16,,,,,,,,8,08,,,,,,,,,,,8,1.259,1,,,,,,0.353703704,-0.398148148,1,0,0,1.2588,Pumice_rect,15,0,15,0,1,
56cc78e3ccc0e20006b82a7d,TCR,2024-06-11_13h21.43.617,LearnStrategy,2023.2.3,Win32,59.88023952,7,1,1,-0.019444444,-0.012037037,1,0,0,1.0155,rock_grid_rect_2,4,09,-1,-1,1.015,0.417592593,-0.253703704,1,0,0,1.227,Gabbro_rect,4,1.227,1,0,0,0,0,1,,,,,,,,,,,,,
56cc78e3ccc0e20006b82a7d,TCR,2024-06-11_13h21.43.617,LearnStrategy,2023.2.3,Win32,59.88023952,7,1,2,0.063888889,-0.023148148,1,0,0,0.7647,rock_grid_rect_2,2,09,-1,-1,0.765,-0.20462963,-0.24537037,1,0,0,0.8102,Basalt_rect,2,0.81,1,1,0,1,0,1,,,,,,,,,,,,,
56cc78e3ccc0e20006b82a7d,TCR,2024-06-11_13h21.43.617,LearnStrategy,2023.2.3,Win32,59.88023952,7,1,3,0.037962963,-0.00462963,1,0,0,0.4319,rock_grid_rect_2,6,09,-1,-1,0.432,-0.123148148,-0.399074074,1,0,0,1.4602,Pegmatite_rect,6,1.46,1,2,0,2,0,1,,,,,,,,,,,,,
56cc78e3ccc0e20006b82a7d,TCR,2024-06-11_13h21.43.617,LearnStrategy,2023.2.3,Win32,59.88023952,7,1,4,0.021296296,0.019444444,1,0,0,0.5158,rock_grid_rect_2,6,12,-1,-1,0.516,0.084259259,-0.237037037,1,0,0,0.8451,Diorite_rect,3,0.845,0,3,0,3,0,1,,,,,,,,,,,,,
56cc78e3ccc0e20006b82a7d,TCR,2024-06-11_13h21.43.617,LearnStrategy,2023.2.3,Win32,59.88023952,7,1,5,0.030555556,-0.017592593,1,0,0,0.4485,rock_grid_rect_2,7,04,-1,-1,0.448,0.132407407,-0.402777778,1,0,0,1.1726,Peridotite_rect,7,1.173,1,4,0,4,0,1,,,,,,,,,,,,,
56cc78e3ccc0e20006b82a7d,TCR,2024-06-11_13h21.43.617,LearnStrategy,2023.2.3,Win32,59.88023952,7,1,6,0.058333333,0.001851852,1,0,0,0.4646,rock_grid_rect_2,2,05,-1,-1,0.465,-0.148148148,-0.237037037,1,0,0,0.895,Basalt_rect,2,0.895,1,5,0,5,0,1,,,,,,,,,,,,,
56cc78e3ccc0e20006b82a7d,TCR,2024-06-11_13h21.43.617,LearnStrategy,2023.2.3,Win32,59.88023952,7,1,7,0,-0.014814815,1,0,0,0.5985,rock_grid_rect_2,2,08,-1,-1,0.599,-0.10462963,-0.265740741,1,0,0,1.3616,Basalt_rect,2,1.362,1,6,0,6,0,1,,,,,,,,,,,,,
56cc78e3ccc0e20006b82a7d,TCR,2024-06-11_13h21.43.617,LearnStrategy,2023.2.3,Win32,59.88023952,7,1,8,0.028703704,-0.002777778,1,0,0,0.6649,rock_grid_rect_2,3,11,-1,-1,0.665,0.093518519,-0.271296296,1,0,0,1.7456,Diorite_rect,3,1.746,1,7,0,7,0,1,,,,,,,,,,,,,
56cc78e3ccc0e20006b82a7d,TCR,2024-06-11_13h21.43.617,LearnStrategy,2023.2.3,Win32,59.88023952,7,1,9,0.038888889,0.000925926,1,0,0,0.3819,rock_grid_rect_2,4,05,-1,-1,0.382,0.339814815,-0.241666667,1,0,0,1.3542,Gabbro_rect,4,1.354,1,8,0,8,0,1,,,,,,,,,,,,,
56cc78e3ccc0e20006b82a7d,TCR,2024-06-11_13h21.43.617,LearnStrategy,2023.2.3,Win32,59.88023952,7,1,10,0.067592593,0.023148148,1,0,0,0.4989,rock_grid_rect_2,3,11,-1,-1,0.499,0.162962963,-0.239814815,1,0,0,0.9656,Diorite_rect,3,0.966,1,9,0,9,0,1,,,,,,,,,,,,,
56cc78e3ccc0e20006b82a7d,TCR,2024-06-11_13h21.43.617,LearnStrategy,2023.2.3,Win32,59.88023952,7,1,11,0.099074074,-0.021296296,1,0,0,0.7029,rock_grid_rect_2,1,01,-1,-1,0.703,0.453703704,-0.261111111,1,0,0,3.6545,Gabbro_rect,4,3.655,0,10,0,10,0,1,,,,,,,,,,,,,
56cc78e3ccc0e20006b82a7d,TCR,2024-06-11_13h21.43.617,LearnStrategy,2023.2.3,Win32,59.88023952,7,1,12,0.090740741,0.007407407,1,0,0,0.8154,rock_grid_rect_2,6,07,-1,-1,0.815,-0.108333333,-0.405555556,1,0,0,1.7785,Pegmatite_rect,6,1.778,1,11,0,11,0,1,,,,,,,,,,,,,
56cc78e3ccc0e20006b82a7d,TCR,2024-06-11_13h21.43.617,LearnStrategy,2023.2.3,Win32,59.88023952,7,1,13,0.069444444,-0.018518519,1,0,0,0.8177,rock_grid_rect_2,7,16,-1,-1,0.818,0.47962963,-0.267592593,1,0,0,2.064,Gabbro_rect,4,2.064,0,12,0,12,0,1,,,,,,,,,,,,,
56cc78e3ccc0e20006b82a7d,TCR,2024-06-11_13h21.43.617,LearnStrategy,2023.2.3,Win32,59.88023952,7,1,14,0.089814815,-0.012037037,1,0,0,0.6924,rock_grid_rect_2,8,06,-1,-1,0.692,0.455555556,-0.410185185,1,0,0,0.8621,Pumice_rect,8,0.862,1,13,0,13,0,1,,,,,,,,,,,,,
56cc78e3ccc0e20006b82a7d,TCR,2024-06-11_13h21.43.617,LearnStrategy,2023.2.3,Win32,59.88023952,7,1,15,0.078703704,-0.016666667,1,0,0,0.5257,rock_grid_rect_2,2,14,-1,-1,0.526,0.477777778,-0.400925926,1,0,0,1.3445,Pumice_rect,8,1.345,0,14,0,14,0,1,,,,,,,,,,,,,
56cc78e3ccc0e20006b82a7d,TCR,2024-06-11_13h21.43.617,LearnStrategy,2023.2.3,Win32,59.88023952,7,1,16,0.07962963,-0.011111111,1,0,0,0.6987,rock_grid_rect_2,5,07,-1,-1,0.699,-0.372222222,-0.403703704,1,0,0,0.8442,Obsidian_rect,5,0.844,1,15,0,15,0,1,,,,,,,,,,,,,
56cc78e3ccc0e20006b82a7d,TCR,2024-06-11_13h21.43.617,LearnStrategy,2023.2.3,Win32,59.88023952,7,2,1,,,,,,,,1,05,,,,,,,,,,,1,1.476,1,,,,,,-0.372222222,-0.260185185,1,0,0,1.4758,Andesite_rect,0,0,0,0,1,
56cc78e3ccc0e20006b82a7d,TCR,2024-06-11_13h21.43.617,LearnStrategy,2023.2.3,Win32,59.88023952,7,2,2,,,,,,,,8,13,,,,,,,,,,,8,1.961,1,,,,,,0.385185185,-0.389814815,1,0,0,1.9607,Pumice_rect,1,0,1,0,1,
56cc78e3ccc0e20006b82a7d,TCR,2024-06-11_13h21.43.617,LearnStrategy,2023.2.3,Win32,59.88023952,7,2,3,,,,,,,,2,11,,,,,,,,,,,2,2.01,1,,,,,,-0.102777778,-0.253703704,1,0,0,2.0097,Basalt_rect,2,0,2,0,1,
56cc78e3ccc0e20006b82a7d,TCR,2024-06-11_13h21.43.617,LearnStrategy,2023.2.3,Win32,59.88023952,7,2,4,,,,,,,,7,15,,,,,,,,,,,7,1.17,1,,,,,,0.187962963,-0.414814815,1,0,0,1.1701,Peridotite_rect,3,0,3,0,1,
56cc78e3ccc0e20006b82a7d,TCR,2024-06-11_13h21.43.617,LearnStrategy,2023.2.3,Win32,59.88023952,7,2,5,,,,,,,,3,13,,,,,,,,,,,3,1.645,1,,,,,,0.1,-0.239814815,1,0,0,1.6452,Diorite_rect,4,0,4,0,1,
56cc78e3ccc0e20006b82a7d,TCR,2024-06-11_13h21.43.617,LearnStrategy,2023.2.3,Win32,59.88023952,7,2,6,,,,,,,,5,11,,,,,,,,,,,5,0.826,1,,,,,,-0.353703704,-0.394444444,1,0,0,0.8262,Obsidian_rect,5,0,5,0,1,
56cc78e3ccc0e20006b82a7d,TCR,2024-06-11_13h21.43.617,LearnStrategy,2023.2.3,Win32,59.88023952,7,2,7,,,,,,,,7,13,,,,,,,,,,,7,3.01,1,,,,,,0.123148148,-0.396296296,1,0,0,3.0101,Peridotite_rect,6,0,6,0,1,
56cc78e3ccc0e20006b82a7d,TCR,2024-06-11_13h21.43.617,LearnStrategy,2023.2.3,Win32,59.88023952,7,2,8,,,,,,,,2,16,,,,,,,,,,,4,1.236,0,,,,,,0.372222222,-0.260185185,1,0,0,1.2362,Gabbro_rect,7,0,7,0,1,
56cc78e3ccc0e20006b82a7d,TCR,2024-06-11_13h21.43.617,LearnStrategy,2023.2.3,Win32,59.88023952,7,2,9,,,,,,,,5,12,,,,,,,,,,,5,1.677,1,,,,,,-0.423148148,-0.418518519,1,0,0,1.6769,Obsidian_rect,8,0,8,0,1,
56cc78e3ccc0e20006b82a7d,TCR,2024-06-11_13h21.43.617,LearnStrategy,2023.2.3,Win32,59.88023952,7,2,10,,,,,,,,3,16,,,,,,,,,,,3,2.161,1,,,,,,0.046296296,-0.251851852,1,0,0,2.1609,Diorite_rect,9,0,9,0,1,
56cc78e3ccc0e20006b82a7d,TCR,2024-06-11_13h21.43.617,LearnStrategy,2023.2.3,Win32,59.88023952,7,2,11,,,,,,,,8,08,,,,,,,,,,,8,1.041,1,,,,,,0.328703704,-0.391666667,1,0,0,1.0412,Pumice_rect,10,0,10,0,1,
56cc78e3ccc0e20006b82a7d,TCR,2024-06-11_13h21.43.617,LearnStrategy,2023.2.3,Win32,59.88023952,7,2,12,,,,,,,,6,15,,,,,,,,,,,6,1.461,1,,,,,,-0.063888889,-0.388888889,1,0,0,1.4613,Pegmatite_rect,11,0,11,0,1,
56cc78e3ccc0e20006b82a7d,TCR,2024-06-11_13h21.43.617,LearnStrategy,2023.2.3,Win32,59.88023952,7,2,13,,,,,,,,4,01,,,,,,,,,,,4,2.734,1,,,,,,0.362962963,-0.25,1,0,0,2.734,Gabbro_rect,12,0,12,0,1,
56cc78e3ccc0e20006b82a7d,TCR,2024-06-11_13h21.43.617,LearnStrategy,2023.2.3,Win32,59.88023952,7,2,14,,,,,,,,4,11,,,,,,,,,,,2,1.173,0,,,,,,-0.115740741,-0.259259259,1,0,0,1.1725,Basalt_rect,13,0,13,0,1,
56cc78e3ccc0e20006b82a7d,TCR,2024-06-11_13h21.43.617,LearnStrategy,2023.2.3,Win32,59.88023952,7,2,15,,,,,,,,1,16,,,,,,,,,,,1,0.845,1,,,,,,-0.414814815,-0.251851852,1,0,0,0.8446,Andesite_rect,14,0,14,0,1,
56cc78e3ccc0e20006b82a7d,TCR,2024-06-11_13h21.43.617,LearnStrategy,2023.2.3,Win32,59.88023952,7,2,16,,,,,,,,6,11,,,,,,,,,,,6,3.678,1,,,,,,-0.133333333,-0.396296296,1,0,0,3.6775,Pegmatite_rect,15,0,15,0,1,
56cc78e3ccc0e20006b82a7d,TCR,2024-06-11_13h21.43.617,LearnStrategy,2023.2.3,Win32,59.88023952,8,1,1,-0.040740741,-0.014814815,1,0,0,0.7651,rock_grid_rect_2,4,08,-1,-1,0.765,0.424074074,-0.233333333,1,0,0,2.1604,Gabbro_rect,4,2.16,1,0,0,0,0,1,,,,,,,,,,,,,
56cc78e3ccc0e20006b82a7d,TCR,2024-06-11_13h21.43.617,LearnStrategy,2023.2.3,Win32,59.88023952,8,1,2,0.008333333,-0.00462963,1,0,0,0.6659,rock_grid_rect_2,8,06,-1,-1,0.666,0.358333333,-0.396296296,1,0,0,0.9611,Pumice_rect,8,0.961,1,1,0,1,0,1,,,,,,,,,,,,,
56cc78e3ccc0e20006b82a7d,TCR,2024-06-11_13h21.43.617,LearnStrategy,2023.2.3,Win32,59.88023952,8,1,3,0.024074074,-0.022222222,1,0,0,0.4723,rock_grid_rect_2,4,12,-1,-1,0.472,0.405555556,-0.236111111,1,0,0,1.2675,Gabbro_rect,4,1.268,1,2,0,2,0,1,,,,,,,,,,,,,
56cc78e3ccc0e20006b82a7d,TCR,2024-06-11_13h21.43.617,LearnStrategy,2023.2.3,Win32,59.88023952,8,1,4,0.073148148,-0.014814815,1,0,0,0.7982,rock_grid_rect_2,2,14,-1,-1,0.798,-0.056481481,-0.25,1,0,0,1.5767,Basalt_rect,2,1.577,1,3,0,3,0,1,,,,,,,,,,,,,
56cc78e3ccc0e20006b82a7d,TCR,2024-06-11_13h21.43.617,LearnStrategy,2023.2.3,Win32,59.88023952,8,1,5,0.037037037,-0.016666667,1,0,0,0.4655,rock_grid_rect_2,2,04,-1,-1,0.466,-0.134259259,-0.250925926,1,0,0,1.1777,Basalt_rect,2,1.178,1,4,0,4,0,1,,,,,,,,,,,,,
56cc78e3ccc0e20006b82a7d,TCR,2024-06-11_13h21.43.617,LearnStrategy,2023.2.3,Win32,59.88023952,8,1,6,-0.013888889,-0.012962963,1,0,0,0.4818,rock_grid_rect_2,6,09,-1,-1,0.482,-0.155555556,-0.397222222,1,0,0,0.9278,Pegmatite_rect,6,0.928,1,5,0,5,0,1,,,,,,,,,,,,,
56cc78e3ccc0e20006b82a7d,TCR,2024-06-11_13h21.43.617,LearnStrategy,2023.2.3,Win32,59.88023952,8,1,7,-0.019444444,0.024074074,1,0,0,0.4656,rock_grid_rect_2,3,09,-1,-1,0.466,0.109259259,-0.267592593,1,0,0,1.5766,Diorite_rect,3,1.577,1,6,0,6,0,1,,,,,,,,,,,,,
56cc78e3ccc0e20006b82a7d,TCR,2024-06-11_13h21.43.617,LearnStrategy,2023.2.3,Win32,59.88023952,8,1,8,0.044444444,0.013888889,1,0,0,0.4822,rock_grid_rect_2,4,08,-1,-1,0.482,0.474074074,-0.259259259,1,0,0,1.0615,Gabbro_rect,4,1.062,1,7,0,7,0,1,,,,,,,,,,,,,
56cc78e3ccc0e20006b82a7d,TCR,2024-06-11_13h21.43.617,LearnStrategy,2023.2.3,Win32,59.88023952,8,1,9,0.075925926,0.000925926,1,0,0,0.6823,rock_grid_rect_2,6,03,-1,-1,0.682,0.127777778,-0.401851852,1,0,0,1.2108,Peridotite_rect,7,1.211,0,8,0,8,0,1,,,,,,,,,,,,,
56cc78e3ccc0e20006b82a7d,TCR,2024-06-11_13h21.43.617,LearnStrategy,2023.2.3,Win32,59.88023952,8,1,10,0.021296296,0.021296296,1,0,0,0.6152,rock_grid_rect_2,7,07,-1,-1,0.615,0.092592593,-0.411111111,1,0,0,2.1114,Peridotite_rect,7,2.111,1,9,0,9,0,1,,,,,,,,,,,,,
56cc78e3ccc0e20006b82a7d,TCR,2024-06-11_13h21.43.617,LearnStrategy,2023.2.3,Win32,59.88023952,8,1,11,0.039814815,0.005555556,1,0,0,0.5819,rock_grid_rect_2,2,08,-1,-1,0.582,-0.127777778,-0.237037037,1,0,0,0.9598,Basalt_rect,2,0.96,1,10,0,10,0,1,,,,,,,,,,,,,
56cc78e3ccc0e20006b82a7d,TCR,2024-06-11_13h21.43.617,LearnStrategy,2023.2.3,Win32,59.88023952,8,1,12,0.026851852,0.017592593,1,0,0,0.401,rock_grid_rect_2,2,09,-1,-1,0.401,-0.147222222,-0.248148148,1,0,0,0.8475,Basalt_rect,2,0.847,1,11,0,11,0,1,,,,,,,,,,,,,
56cc78e3ccc0e20006b82a7d,TCR,2024-06-11_13h21.43.617,LearnStrategy,2023.2.3,Win32,59.88023952,8,1,13,0.075,0.006481481,1,0,0,0.6841,rock_grid_rect_2,3,08,-1,-1,0.684,0.125925926,-0.241666667,1,0,0,1.5164,Diorite_rect,3,1.516,1,12,0,12,0,1,,,,,,,,,,,,,
56cc78e3ccc0e20006b82a7d,TCR,2024-06-11_13h21.43.617,LearnStrategy,2023.2.3,Win32,59.88023952,8,1,14,0.088888889,0.024074074,1,0,0,0.5019,rock_grid_rect_2,5,07,-1,-1,0.502,-0.367592593,-0.4,1,0,0,0.881,Obsidian_rect,5,0.881,1,13,0,13,0,1,,,,,,,,,,,,,
56cc78e3ccc0e20006b82a7d,TCR,2024-06-11_13h21.43.617,LearnStrategy,2023.2.3,Win32,59.88023952,8,1,15,0.012037037,-0.021296296,1,0,0,0.4854,rock_grid_rect_2,2,09,-1,-1,0.485,-0.099074074,-0.260185185,1,0,0,1.2587,Basalt_rect,2,1.259,1,14,0,14,0,1,,,,,,,,,,,,,
56cc78e3ccc0e20006b82a7d,TCR,2024-06-11_13h21.43.617,LearnStrategy,2023.2.3,Win32,59.88023952,8,1,16,0.068518519,0.002777778,1,0,0,0.3988,rock_grid_rect_2,7,02,-1,-1,0.399,0.103703704,-0.412037037,1,0,0,1.8606,Peridotite_rect,7,1.861,1,15,0,15,0,1,,,,,,,,,,,,,
56cc78e3ccc0e20006b82a7d,TCR,2024-06-11_13h21.43.617,LearnStrategy,2023.2.3,Win32,59.88023952,8,2,1,,,,,,,,6,08,,,,,,,,,,,5,2.277,0,,,,,,-0.334259259,-0.396296296,1,0,0,2.2773,Obsidian_rect,0,0,0,0,1,
56cc78e3ccc0e20006b82a7d,TCR,2024-06-11_13h21.43.617,LearnStrategy,2023.2.3,Win32,59.88023952,8,2,2,,,,,,,,7,08,,,,,,,,,,,7,2.393,1,,,,,,0.123148148,-0.411111111,1,0,0,2.393,Peridotite_rect,1,0,1,0,1,
56cc78e3ccc0e20006b82a7d,TCR,2024-06-11_13h21.43.617,LearnStrategy,2023.2.3,Win32,59.88023952,8,2,3,,,,,,,,2,06,,,,,,,,,,,2,1.937,1,,,,,,-0.086111111,-0.262037037,1,0,0,1.9369,Basalt_rect,2,0,2,0,1,
56cc78e3ccc0e20006b82a7d,TCR,2024-06-11_13h21.43.617,LearnStrategy,2023.2.3,Win32,59.88023952,8,2,4,,,,,,,,4,14,,,,,,,,,,,4,1.509,1,,,,,,0.428703704,-0.244444444,1,0,0,1.5085,Gabbro_rect,3,0,3,0,1,
56cc78e3ccc0e20006b82a7d,TCR,2024-06-11_13h21.43.617,LearnStrategy,2023.2.3,Win32,59.88023952,8,2,5,,,,,,,,8,05,,,,,,,,,,,8,0.883,1,,,,,,0.35462963,-0.417592593,1,0,0,0.8826,Pumice_rect,4,0,4,0,1,
56cc78e3ccc0e20006b82a7d,TCR,2024-06-11_13h21.43.617,LearnStrategy,2023.2.3,Win32,59.88023952,8,2,6,,,,,,,,3,07,,,,,,,,,,,3,1.5,1,,,,,,0.177777778,-0.249074074,1,0,0,1.4999,Diorite_rect,5,0,5,0,1,
56cc78e3ccc0e20006b82a7d,TCR,2024-06-11_13h21.43.617,LearnStrategy,2023.2.3,Win32,59.88023952,8,2,7,,,,,,,,7,12,,,,,,,,,,,7,1.2,1,,,,,,0.150925926,-0.413888889,1,0,0,1.2002,Peridotite_rect,6,0,6,0,1,
56cc78e3ccc0e20006b82a7d,TCR,2024-06-11_13h21.43.617,LearnStrategy,2023.2.3,Win32,59.88023952,8,2,8,,,,,,,,5,09,,,,,,,,,,,5,0.932,1,,,,,,-0.401851852,-0.411111111,1,0,0,0.932,Obsidian_rect,7,0,7,0,1,
56cc78e3ccc0e20006b82a7d,TCR,2024-06-11_13h21.43.617,LearnStrategy,2023.2.3,Win32,59.88023952,8,2,9,,,,,,,,5,02,,,,,,,,,,,5,0.643,1,,,,,,-0.315740741,-0.407407407,1,0,0,0.6428,Obsidian_rect,8,0,8,0,1,
56cc78e3ccc0e20006b82a7d,TCR,2024-06-11_13h21.43.617,LearnStrategy,2023.2.3,Win32,59.88023952,8,2,10,,,,,,,,1,03,,,,,,,,,,,1,1.045,1,,,,,,-0.299074074,-0.231481481,1,0,0,1.0446,Andesite_rect,9,0,9,0,1,
56cc78e3ccc0e20006b82a7d,TCR,2024-06-11_13h21.43.617,LearnStrategy,2023.2.3,Win32,59.88023952,8,2,11,,,,,,,,6,05,,,,,,,,,,,3,1.978,0,,,,,,0.092592593,-0.25462963,1,0,0,1.9778,Diorite_rect,10,0,10,0,1,
56cc78e3ccc0e20006b82a7d,TCR,2024-06-11_13h21.43.617,LearnStrategy,2023.2.3,Win32,59.88023952,8,2,12,,,,,,,,2,10,,,,,,,,,,,4,2.177,0,,,,,,0.37037037,-0.261111111,1,0,0,2.1768,Gabbro_rect,11,0,11,0,1,
56cc78e3ccc0e20006b82a7d,TCR,2024-06-11_13h21.43.617,LearnStrategy,2023.2.3,Win32,59.88023952,8,2,13,,,,,,,,3,14,,,,,,,,,,,3,0.877,1,,,,,,0.171296296,-0.231481481,1,0,0,0.877,Diorite_rect,12,0,12,0,1,
56cc78e3ccc0e20006b82a7d,TCR,2024-06-11_13h21.43.617,LearnStrategy,2023.2.3,Win32,59.88023952,8,2,14,,,,,,,,4,16,,,,,,,,,,,4,1.093,1,,,,,,0.411111111,-0.242592593,1,0,0,1.0931,Gabbro_rect,13,0,13,0,1,
56cc78e3ccc0e20006b82a7d,TCR,2024-06-11_13h21.43.617,LearnStrategy,2023.2.3,Win32,59.88023952,8,2,15,,,,,,,,1,14,,,,,,,,,,,1,1.771,1,,,,,,-0.413888889,-0.269444444,1,0,0,1.7708,Andesite_rect,14,0,14,0,1,
56cc78e3ccc0e20006b82a7d,TCR,2024-06-11_13h21.43.617,LearnStrategy,2023.2.3,Win32,59.88023952,8,2,16,,,,,,,,8,09,,,,,,,,,,,8,1.343,1,,,,,,0.392592593,-0.403703704,1,0,0,1.3432,Pumice_rect,15,0,15,0,1,
56cc78e3ccc0e20006b82a7d,TCR,2024-06-11_13h21.43.617,LearnStrategy,2023.2.3,Win32,59.88023952,9,1,1,-0.073148148,-0.003703704,1,0,0,0.7152,rock_grid_rect_2,4,12,-1,-1,0.715,0.352777778,-0.234259259,1,0,0,1.3275,Gabbro_rect,4,1.327,1,0,0,0,0,1,,,,,,,,,,,,,
56cc78e3ccc0e20006b82a7d,TCR,2024-06-11_13h21.43.617,LearnStrategy,2023.2.3,Win32,59.88023952,9,1,2,0.091666667,-0.023148148,1,0,0,0.5614,rock_grid_rect_2,1,02,-1,-1,0.561,0.359259259,-0.234259259,1,0,0,1.0931,Gabbro_rect,4,1.093,0,1,0,1,0,1,,,,,,,,,,,,,
56cc78e3ccc0e20006b82a7d,TCR,2024-06-11_13h21.43.617,LearnStrategy,2023.2.3,Win32,59.88023952,9,1,3,0.085185185,0.012962963,1,0,0,0.4816,rock_grid_rect_2,6,12,-1,-1,0.482,0.102777778,-0.261111111,1,0,0,1.0111,Diorite_rect,3,1.011,0,2,0,2,0,1,,,,,,,,,,,,,
56cc78e3ccc0e20006b82a7d,TCR,2024-06-11_13h21.43.617,LearnStrategy,2023.2.3,Win32,59.88023952,9,1,4,0.057407407,-0.016666667,1,0,0,0.4656,rock_grid_rect_2,8,03,-1,-1,0.466,0.34537037,-0.403703704,1,0,0,0.8779,Pumice_rect,8,0.878,1,3,0,3,0,1,,,,,,,,,,,,,
56cc78e3ccc0e20006b82a7d,TCR,2024-06-11_13h21.43.617,LearnStrategy,2023.2.3,Win32,59.88023952,9,1,5,0.084259259,-0.008333333,1,0,0,0.7656,rock_grid_rect_2,6,09,-1,-1,0.766,-0.083333333,-0.413888889,1,0,0,1.0951,Pegmatite_rect,6,1.095,1,4,0,4,0,1,,,,,,,,,,,,,
56cc78e3ccc0e20006b82a7d,TCR,2024-06-11_13h21.43.617,LearnStrategy,2023.2.3,Win32,59.88023952,9,1,6,0.04537037,0.009259259,1,0,0,0.515,rock_grid_rect_2,2,05,-1,-1,0.515,-0.082407407,-0.238888889,1,0,0,0.8158,Basalt_rect,2,0.816,1,5,0,5,0,1,,,,,,,,,,,,,
56cc78e3ccc0e20006b82a7d,TCR,2024-06-11_13h21.43.617,LearnStrategy,2023.2.3,Win32,59.88023952,9,1,7,0.038888889,0.015740741,1,0,0,0.3804,rock_grid_rect_2,2,04,-1,-1,0.38,-0.100925926,-0.252777778,1,0,0,0.9935,Basalt_rect,2,0.993,1,6,0,6,0,1,,,,,,,,,,,,,
56cc78e3ccc0e20006b82a7d,TCR,2024-06-11_13h21.43.617,LearnStrategy,2023.2.3,Win32,59.88023952,9,1,8,0.034259259,-0.013888889,1,0,0,0.8652,rock_grid_rect_2,3,12,-1,-1,0.865,0.161111111,-0.22962963,1,0,0,1.0361,Diorite_rect,3,1.036,1,7,0,7,0,1,,,,,,,,,,,,,
56cc78e3ccc0e20006b82a7d,TCR,2024-06-11_13h21.43.617,LearnStrategy,2023.2.3,Win32,59.88023952,9,1,9,0.052777778,0.001851852,1,0,0,0.4819,rock_grid_rect_2,4,08,-1,-1,0.482,0.348148148,-0.241666667,1,0,0,2.0766,Gabbro_rect,4,2.077,1,8,0,8,0,1,,,,,,,,,,,,,
56cc78e3ccc0e20006b82a7d,TCR,2024-06-11_13h21.43.617,LearnStrategy,2023.2.3,Win32,59.88023952,9,1,10,0.083333333,-0.001851852,1,0,0,0.4819,rock_grid_rect_2,7,02,-1,-1,0.482,0.078703704,-0.414814815,1,0,0,1.1618,Peridotite_rect,7,1.162,1,9,0,9,0,1,,,,,,,,,,,,,
56cc78e3ccc0e20006b82a7d,TCR,2024-06-11_13h21.43.617,LearnStrategy,2023.2.3,Win32,59.88023952,9,1,11,0.075925926,-0.018518519,1,0,0,0.432,rock_grid_rect_2,2,01,-1,-1,0.432,-0.133333333,-0.255555556,1,0,0,0.7621,Basalt_rect,2,0.762,1,10,0,10,0,1,,,,,,,,,,,,,
56cc78e3ccc0e20006b82a7d,TCR,2024-06-11_13h21.43.617,LearnStrategy,2023.2.3,Win32,59.88023952,9,1,12,0.134259259,-0.001851852,1,0,0,0.4314,rock_grid_rect_2,6,12,-1,-1,0.431,-0.327777778,-0.257407407,1,0,0,2.0779,Andesite_rect,1,2.078,0,11,0,11,0,1,,,,,,,,,,,,,
56cc78e3ccc0e20006b82a7d,TCR,2024-06-11_13h21.43.617,LearnStrategy,2023.2.3,Win32,59.88023952,9,1,13,0.02037037,-0.013888889,1,0,0,0.6984,rock_grid_rect_2,6,06,-1,-1,0.698,-0.169444444,-0.393518519,1,0,0,1.144,Pegmatite_rect,6,1.144,1,12,0,12,0,1,,,,,,,,,,,,,
56cc78e3ccc0e20006b82a7d,TCR,2024-06-11_13h21.43.617,LearnStrategy,2023.2.3,Win32,59.88023952,9,1,14,0.074074074,0.007407407,1,0,0,0.4654,rock_grid_rect_2,5,06,-1,-1,0.465,-0.371296296,-0.391666667,1,0,0,0.7526,Obsidian_rect,5,0.753,1,13,0,13,0,1,,,,,,,,,,,,,
56cc78e3ccc0e20006b82a7d,TCR,2024-06-11_13h21.43.617,LearnStrategy,2023.2.3,Win32,59.88023952,9,1,15,0.112962963,-0.013888889,1,0,0,0.5985,rock_grid_rect_2,2,08,-1,-1,0.598,-0.138888889,-0.256481481,1,0,0,0.7123,Basalt_rect,2,0.712,1,14,0,14,0,1,,,,,,,,,,,,,
56cc78e3ccc0e20006b82a7d,TCR,2024-06-11_13h21.43.617,LearnStrategy,2023.2.3,Win32,59.88023952,9,1,16,0.058333333,-0.012037037,1,0,0,0.3821,rock_grid_rect_2,2,09,-1,-1,0.382,-0.065740741,-0.249074074,1,0,0,1.1451,Basalt_rect,2,1.145,1,15,0,15,0,1,,,,,,,,,,,,,
56cc78e3ccc0e20006b82a7d,TCR,2024-06-11_13h21.43.617,LearnStrategy,2023.2.3,Win32,59.88023952,9,2,1,,,,,,,,8,10,,,,,,,,,,,8,2.01,1,,,,,,0.371296296,-0.421296296,1,0,0,2.0102,Pumice_rect,0,0,0,0,1,
56cc78e3ccc0e20006b82a7d,TCR,2024-06-11_13h21.43.617,LearnStrategy,2023.2.3,Win32,59.88023952,9,2,2,,,,,,,,3,02,,,,,,,,,,,3,2.818,1,,,,,,0.158333333,-0.264814815,1,0,0,2.8177,Diorite_rect,1,0,1,0,1,
56cc78e3ccc0e20006b82a7d,TCR,2024-06-11_13h21.43.617,LearnStrategy,2023.2.3,Win32,59.88023952,9,2,3,,,,,,,,4,03,,,,,,,,,,,4,1.377,1,,,,,,0.415740741,-0.255555556,1,0,0,1.3766,Gabbro_rect,2,0,2,0,1,
56cc78e3ccc0e20006b82a7d,TCR,2024-06-11_13h21.43.617,LearnStrategy,2023.2.3,Win32,59.88023952,9,2,4,,,,,,,,5,04,,,,,,,,,,,5,0.883,1,,,,,,-0.317592593,-0.399074074,1,0,0,0.8826,Obsidian_rect,3,0,3,0,1,
56cc78e3ccc0e20006b82a7d,TCR,2024-06-11_13h21.43.617,LearnStrategy,2023.2.3,Win32,59.88023952,9,2,5,,,,,,,,6,13,,,,,,,,,,,6,1.426,1,,,,,,-0.125,-0.400925926,1,0,0,1.4264,Pegmatite_rect,4,0,4,0,1,
56cc78e3ccc0e20006b82a7d,TCR,2024-06-11_13h21.43.617,LearnStrategy,2023.2.3,Win32,59.88023952,9,2,6,,,,,,,,4,13,,,,,,,,,,,4,1.726,1,,,,,,0.424074074,-0.253703704,1,0,0,1.7264,Gabbro_rect,5,0,5,0,1,
56cc78e3ccc0e20006b82a7d,TCR,2024-06-11_13h21.43.617,LearnStrategy,2023.2.3,Win32,59.88023952,9,2,7,,,,,,,,6,10,,,,,,,,,,,6,1.043,1,,,,,,-0.033333333,-0.393518519,1,0,0,1.0431,Pegmatite_rect,6,0,6,0,1,
56cc78e3ccc0e20006b82a7d,TCR,2024-06-11_13h21.43.617,LearnStrategy,2023.2.3,Win32,59.88023952,9,2,8,,,,,,,,1,06,,,,,,,,,,,1,1.593,1,,,,,,-0.356481481,-0.258333333,1,0,0,1.5934,Andesite_rect,7,0,7,0,1,
56cc78e3ccc0e20006b82a7d,TCR,2024-06-11_13h21.43.617,LearnStrategy,2023.2.3,Win32,59.88023952,9,2,9,,,,,,,,1,04,,,,,,,,,,,1,0.794,1,,,,,,-0.350925926,-0.258333333,1,0,0,0.7936,Andesite_rect,8,0,8,0,1,
56cc78e3ccc0e20006b82a7d,TCR,2024-06-11_13h21.43.617,LearnStrategy,2023.2.3,Win32,59.88023952,9,2,10,,,,,,,,5,05,,,,,,,,,,,5,0.824,1,,,,,,-0.378703704,-0.380555556,1,0,0,0.8241,Obsidian_rect,9,0,9,0,1,
56cc78e3ccc0e20006b82a7d,TCR,2024-06-11_13h21.43.617,LearnStrategy,2023.2.3,Win32,59.88023952,9,2,11,,,,,,,,7,06,,,,,,,,,,,7,1.343,1,,,,,,0.162037037,-0.405555556,1,0,0,1.343,Peridotite_rect,10,0,10,0,1,
56cc78e3ccc0e20006b82a7d,TCR,2024-06-11_13h21.43.617,LearnStrategy,2023.2.3,Win32,59.88023952,9,2,12,,,,,,,,2,12,,,,,,,,,,,2,1.411,1,,,,,,-0.135185185,-0.259259259,1,0,0,1.4111,Basalt_rect,11,0,11,0,1,
56cc78e3ccc0e20006b82a7d,TCR,2024-06-11_13h21.43.617,LearnStrategy,2023.2.3,Win32,59.88023952,9,2,13,,,,,,,,3,10,,,,,,,,,,,3,2.626,1,,,,,,0.132407407,-0.256481481,1,0,0,2.6265,Diorite_rect,12,0,12,0,1,
56cc78e3ccc0e20006b82a7d,TCR,2024-06-11_13h21.43.617,LearnStrategy,2023.2.3,Win32,59.88023952,9,2,14,,,,,,,,8,04,,,,,,,,,,,8,0.869,1,,,,,,0.388888889,-0.399074074,1,0,0,0.8694,Pumice_rect,13,0,13,0,1,
56cc78e3ccc0e20006b82a7d,TCR,2024-06-11_13h21.43.617,LearnStrategy,2023.2.3,Win32,59.88023952,9,2,15,,,,,,,,2,02,,,,,,,,,,,2,1.058,1,,,,,,-0.12037037,-0.249074074,1,0,0,1.0578,Basalt_rect,14,0,14,0,1,
56cc78e3ccc0e20006b82a7d,TCR,2024-06-11_13h21.43.617,LearnStrategy,2023.2.3,Win32,59.88023952,9,2,16,,,,,,,,7,14,,,,,,,,,,,7,2.359,1,,,,,,0.108333333,-0.387037037,1,0,0,2.3593,Peridotite_rect,15,0,15,0,1,
56cc78e3ccc0e20006b82a7d,TCR,2024-06-11_13h21.43.617,LearnStrategy,2023.2.3,Win32,59.88023952,,,,,,,,,,,,,,,,,,,,,,,,,,,,,,,,,,,,,,,,,,,1
56cc78e3ccc0e20006b82a7d,TCR,2024-06-11_13h21.43.617,LearnStrategy,2023.2.3,Win32,59.88023952,,,,,,,,,,,,,,,,,,,,,,,,,,,,,,,,,,,,,,,,,,,
56cc78e3ccc0e20006b82a7d,TCR,2024-06-11_13h21.43.617,LearnStrategy,2023.2.3,Win32,59.88023952,,,,,,,,,,,4,08,1,1,,,,,,,,,,,,,,,,,,,,,,,,,,,,,
56cc78e3ccc0e20006b82a7d,TCR,2024-06-11_13h21.43.617,LearnStrategy,2023.2.3,Win32,59.88023952,,,,,,,,,,,6,03,1,2,,,,,,,,,,,,,,,,,,,,,,,,,,,,,
56cc78e3ccc0e20006b82a7d,TCR,2024-06-11_13h21.43.617,LearnStrategy,2023.2.3,Win32,59.88023952,,,,,,,,,,,7,05,1,3,,,,,,,,,,,,,,,,,,,,,,,,,,,,,
56cc78e3ccc0e20006b82a7d,TCR,2024-06-11_13h21.43.617,LearnStrategy,2023.2.3,Win32,59.88023952,,,,,,,,,,,6,07,1,4,,,,,,,,,,,,,,,,,,,,,,,,,,,,,
56cc78e3ccc0e20006b82a7d,TCR,2024-06-11_13h21.43.617,LearnStrategy,2023.2.3,Win32,59.88023952,,,,,,,,,,,4,09,1,5,,,,,,,,,,,,,,,,,,,,,,,,,,,,,
56cc78e3ccc0e20006b82a7d,TCR,2024-06-11_13h21.43.617,LearnStrategy,2023.2.3,Win32,59.88023952,,,,,,,,,,,2,05,1,6,,,,,,,,,,,,,,,,,,,,,,,,,,,,,
56cc78e3ccc0e20006b82a7d,TCR,2024-06-11_13h21.43.617,LearnStrategy,2023.2.3,Win32,59.88023952,,,,,,,,,,,7,16,1,7,,,,,,,,,,,,,,,,,,,,,,,,,,,,,
56cc78e3ccc0e20006b82a7d,TCR,2024-06-11_13h21.43.617,LearnStrategy,2023.2.3,Win32,59.88023952,,,,,,,,,,,4,05,1,8,,,,,,,,,,,,,,,,,,,,,,,,,,,,,
56cc78e3ccc0e20006b82a7d,TCR,2024-06-11_13h21.43.617,LearnStrategy,2023.2.3,Win32,59.88023952,,,,,,,,,,,1,09,2,1,,,,,,,,,,,,,,,,,,,,,,,,,,,,,
56cc78e3ccc0e20006b82a7d,TCR,2024-06-11_13h21.43.617,LearnStrategy,2023.2.3,Win32,59.88023952,,,,,,,,,,,5,10,2,2,,,,,,,,,,,,,,,,,,,,,,,,,,,,,
56cc78e3ccc0e20006b82a7d,TCR,2024-06-11_13h21.43.617,LearnStrategy,2023.2.3,Win32,59.88023952,,,,,,,,,,,3,06,2,3,,,,,,,,,,,,,,,,,,,,,,,,,,,,,
56cc78e3ccc0e20006b82a7d,TCR,2024-06-11_13h21.43.617,LearnStrategy,2023.2.3,Win32,59.88023952,,,,,,,,,,,7,04,2,4,,,,,,,,,,,,,,,,,,,,,,,,,,,,,
56cc78e3ccc0e20006b82a7d,TCR,2024-06-11_13h21.43.617,LearnStrategy,2023.2.3,Win32,59.88023952,,,,,,,,,,,3,12,2,5,,,,,,,,,,,,,,,,,,,,,,,,,,,,,
56cc78e3ccc0e20006b82a7d,TCR,2024-06-11_13h21.43.617,LearnStrategy,2023.2.3,Win32,59.88023952,,,,,,,,,,,2,14,2,6,,,,,,,,,,,,,,,,,,,,,,,,,,,,,
56cc78e3ccc0e20006b82a7d,TCR,2024-06-11_13h21.43.617,LearnStrategy,2023.2.3,Win32,59.88023952,,,,,,,,,,,5,08,2,7,,,,,,,,,,,,,,,,,,,,,,,,,,,,,
56cc78e3ccc0e20006b82a7d,TCR,2024-06-11_13h21.43.617,LearnStrategy,2023.2.3,Win32,59.88023952,,,,,,,,,,,4,12,2,8,,,,,,,,,,,,,,,,,,,,,,,,,,,,,
56cc78e3ccc0e20006b82a7d,TCR,2024-06-11_13h21.43.617,LearnStrategy,2023.2.3,Win32,59.88023952,,,,,,,,,,,8,02,3,1,,,,,,,,,,,,,,,,,,,,,,,,,,,,,
56cc78e3ccc0e20006b82a7d,TCR,2024-06-11_13h21.43.617,LearnStrategy,2023.2.3,Win32,59.88023952,,,,,,,,,,,3,15,3,2,,,,,,,,,,,,,,,,,,,,,,,,,,,,,
56cc78e3ccc0e20006b82a7d,TCR,2024-06-11_13h21.43.617,LearnStrategy,2023.2.3,Win32,59.88023952,,,,,,,,,,,7,07,3,3,,,,,,,,,,,,,,,,,,,,,,,,,,,,,
56cc78e3ccc0e20006b82a7d,TCR,2024-06-11_13h21.43.617,LearnStrategy,2023.2.3,Win32,59.88023952,,,,,,,,,,,7,10,3,4,,,,,,,,,,,,,,,,,,,,,,,,,,,,,
56cc78e3ccc0e20006b82a7d,TCR,2024-06-11_13h21.43.617,LearnStrategy,2023.2.3,Win32,59.88023952,,,,,,,,,,,3,08,3,5,,,,,,,,,,,,,,,,,,,,,,,,,,,,,
56cc78e3ccc0e20006b82a7d,TCR,2024-06-11_13h21.43.617,LearnStrategy,2023.2.3,Win32,59.88023952,,,,,,,,,,,3,11,3,6,,,,,,,,,,,,,,,,,,,,,,,,,,,,,
56cc78e3ccc0e20006b82a7d,TCR,2024-06-11_13h21.43.617,LearnStrategy,2023.2.3,Win32,59.88023952,,,,,,,,,,,4,15,3,7,,,,,,,,,,,,,,,,,,,,,,,,,,,,,
56cc78e3ccc0e20006b82a7d,TCR,2024-06-11_13h21.43.617,LearnStrategy,2023.2.3,Win32,59.88023952,,,,,,,,,,,3,09,3,8,,,,,,,,,,,,,,,,,,,,,,,,,,,,,
56cc78e3ccc0e20006b82a7d,TCR,2024-06-11_13h21.43.617,LearnStrategy,2023.2.3,Win32,59.88023952,,,,,,,,,,,2,01,4,1,,,,,,,,,,,,,,,,,,,,,,,,,,,,,
56cc78e3ccc0e20006b82a7d,TCR,2024-06-11_13h21.43.617,LearnStrategy,2023.2.3,Win32,59.88023952,,,,,,,,,,,5,06,4,2,,,,,,,,,,,,,,,,,,,,,,,,,,,,,
56cc78e3ccc0e20006b82a7d,TCR,2024-06-11_13h21.43.617,LearnStrategy,2023.2.3,Win32,59.88023952,,,,,,,,,,,6,16,4,3,,,,,,,,,,,,,,,,,,,,,,,,,,,,,
56cc78e3ccc0e20006b82a7d,TCR,2024-06-11_13h21.43.617,LearnStrategy,2023.2.3,Win32,59.88023952,,,,,,,,,,,5,16,4,4,,,,,,,,,,,,,,,,,,,,,,,,,,,,,
56cc78e3ccc0e20006b82a7d,TCR,2024-06-11_13h21.43.617,LearnStrategy,2023.2.3,Win32,59.88023952,,,,,,,,,,,8,14,4,5,,,,,,,,,,,,,,,,,,,,,,,,,,,,,
56cc78e3ccc0e20006b82a7d,TCR,2024-06-11_13h21.43.617,LearnStrategy,2023.2.3,Win32,59.88023952,,,,,,,,,,,1,07,4,6,,,,,,,,,,,,,,,,,,,,,,,,,,,,,
56cc78e3ccc0e20006b82a7d,TCR,2024-06-11_13h21.43.617,LearnStrategy,2023.2.3,Win32,59.88023952,,,,,,,,,,,4,10,4,7,,,,,,,,,,,,,,,,,,,,,,,,,,,,,
56cc78e3ccc0e20006b82a7d,TCR,2024-06-11_13h21.43.617,LearnStrategy,2023.2.3,Win32,59.88023952,,,,,,,,,,,2,08,4,8,,,,,,,,,,,,,,,,,,,,,,,,,,,,,
56cc78e3ccc0e20006b82a7d,TCR,2024-06-11_13h21.43.617,LearnStrategy,2023.2.3,Win32,59.88023952,,,,,,,,,,,8,06,5,1,,,,,,,,,,,,,,,,,,,,,,,,,,,,,
56cc78e3ccc0e20006b82a7d,TCR,2024-06-11_13h21.43.617,LearnStrategy,2023.2.3,Win32,59.88023952,,,,,,,,,,,6,12,5,2,,,,,,,,,,,,,,,,,,,,,,,,,,,,,
56cc78e3ccc0e20006b82a7d,TCR,2024-06-11_13h21.43.617,LearnStrategy,2023.2.3,Win32,59.88023952,,,,,,,,,,,6,06,5,3,,,,,,,,,,,,,,,,,,,,,,,,,,,,,
56cc78e3ccc0e20006b82a7d,TCR,2024-06-11_13h21.43.617,LearnStrategy,2023.2.3,Win32,59.88023952,,,,,,,,,,,1,10,5,4,,,,,,,,,,,,,,,,,,,,,,,,,,,,,
56cc78e3ccc0e20006b82a7d,TCR,2024-06-11_13h21.43.617,LearnStrategy,2023.2.3,Win32,59.88023952,,,,,,,,,,,1,11,5,5,,,,,,,,,,,,,,,,,,,,,,,,,,,,,
56cc78e3ccc0e20006b82a7d,TCR,2024-06-11_13h21.43.617,LearnStrategy,2023.2.3,Win32,59.88023952,,,,,,,,,,,2,04,5,6,,,,,,,,,,,,,,,,,,,,,,,,,,,,,
56cc78e3ccc0e20006b82a7d,TCR,2024-06-11_13h21.43.617,LearnStrategy,2023.2.3,Win32,59.88023952,,,,,,,,,,,1,02,5,7,,,,,,,,,,,,,,,,,,,,,,,,,,,,,
56cc78e3ccc0e20006b82a7d,TCR,2024-06-11_13h21.43.617,LearnStrategy,2023.2.3,Win32,59.88023952,,,,,,,,,,,5,14,5,8,,,,,,,,,,,,,,,,,,,,,,,,,,,,,
56cc78e3ccc0e20006b82a7d,TCR,2024-06-11_13h21.43.617,LearnStrategy,2023.2.3,Win32,59.88023952,,,,,,,,,,,8,16,6,1,,,,,,,,,,,,,,,,,,,,,,,,,,,,,
56cc78e3ccc0e20006b82a7d,TCR,2024-06-11_13h21.43.617,LearnStrategy,2023.2.3,Win32,59.88023952,,,,,,,,,,,5,07,6,2,,,,,,,,,,,,,,,,,,,,,,,,,,,,,
56cc78e3ccc0e20006b82a7d,TCR,2024-06-11_13h21.43.617,LearnStrategy,2023.2.3,Win32,59.88023952,,,,,,,,,,,6,09,6,3,,,,,,,,,,,,,,,,,,,,,,,,,,,,,
56cc78e3ccc0e20006b82a7d,TCR,2024-06-11_13h21.43.617,LearnStrategy,2023.2.3,Win32,59.88023952,,,,,,,,,,,1,01,6,4,,,,,,,,,,,,,,,,,,,,,,,,,,,,,
56cc78e3ccc0e20006b82a7d,TCR,2024-06-11_13h21.43.617,LearnStrategy,2023.2.3,Win32,59.88023952,,,,,,,,,,,7,02,6,5,,,,,,,,,,,,,,,,,,,,,,,,,,,,,
56cc78e3ccc0e20006b82a7d,TCR,2024-06-11_13h21.43.617,LearnStrategy,2023.2.3,Win32,59.88023952,,,,,,,,,,,8,15,6,6,,,,,,,,,,,,,,,,,,,,,,,,,,,,,
56cc78e3ccc0e20006b82a7d,TCR,2024-06-11_13h21.43.617,LearnStrategy,2023.2.3,Win32,59.88023952,,,,,,,,,,,2,09,6,7,,,,,,,,,,,,,,,,,,,,,,,,,,,,,
56cc78e3ccc0e20006b82a7d,TCR,2024-06-11_13h21.43.617,LearnStrategy,2023.2.3,Win32,59.88023952,,,,,,,,,,,8,03,6,8,,,,,,,,,,,,,,,,,,,,,,,,,,,,,