participant,condition,date,expName,psychopyVersion,OS,frameRate,block,phase,trial,learn_mouse.x,learn_mouse.y,learn_mouse.leftButton,learn_mouse.midButton,learn_mouse.rightButton,learn_mouse.time,learn_mouse.clicked_name,cat,token,row,col,t_select,cat_rec,token_rec,cat_mouse_l.x,cat_mouse_l.y,cat_mouse_l.leftButton,cat_mouse_l.midButton,cat_mouse_l.rightButton,cat_mouse_l.time,cat_mouse_l.clicked_name,resp,t_resp,corr,train_trials.thisRepN,train_trials.thisTrialN,train_trials.thisN,train_trials.thisIndex,train_trials.ran,cat_mouse_t.x,cat_mouse_t.y,cat_mouse_t.leftButton,cat_mouse_t.midButton,cat_mouse_t.rightButton,cat_mouse_t.time,cat_mouse_t.clicked_name,test_trials.thisRepN,test_trials.thisTrialN,test_trials.thisN,test_trials.thisIndex,test_trials.ran,Bonus
5769a352f48c3b00016737f9,SCR,2024-06-11_13h12.48.870,LearnStrategy,2023.2.3,Win32,59.88023952,,,,,,,,,,,,,,,,,,,,,,,,,,,,,,,,,,,,,,,,,,,,,
5769a352f48c3b00016737f9,SCR,2024-06-11_13h12.48.870,LearnStrategy,2023.2.3,Win32,59.88023952,1,1,1,-0.545672912,0.081360349,1,0,0,10.3348,Gabbro_10,4,10,4,1,10.335,4,10,-0.370622295,-0.240955137,1,0,0,8.4523,Andesite_rect,1,8.452,0,0,0,0,0,1,,,,,,,,,,,,,
5769a352f48c3b00016737f9,SCR,2024-06-11_13h12.48.870,LearnStrategy,2023.2.3,Win32,59.88023952,1,1,2,0.078581748,0.281418244,1,0,0,10.2678,Pumice_08,8,08,5,5,10.268,8,08,-0.117771353,-0.231693119,1,0,0,4.5431,Basalt_rect,2,4.543,0,1,0,1,0,1,,,,,,,,,,,,,
5769a352f48c3b00016737f9,SCR,2024-06-11_13h12.48.870,LearnStrategy,2023.2.3,Win32,59.88023952,1,1,3,-0.219652676,-0.396555656,1,0,0,3.6951,Pegmatite_15,6,15,1,3,3.695,6,15,0.119334242,-0.389146112,1,0,0,2.1803,Peridotite_rect,7,2.18,0,2,0,2,0,1,,,,,,,,,,,,,
5769a352f48c3b00016737f9,SCR,2024-06-11_13h12.48.870,LearnStrategy,2023.2.3,Win32,59.88023952,1,1,4,0.106367583,0.071172204,1,0,0,3.4303,Obsidian_04,5,04,4,5,3.43,5,04,-0.365991308,-0.403039074,1,0,0,2.4168,Obsidian_rect,5,2.417,1,3,0,3,0,1,,,,,,,,,,,,,
5769a352f48c3b00016737f9,SCR,2024-06-11_13h12.48.870,LearnStrategy,2023.2.3,Win32,59.88023952,1,1,5,-0.37803184,-0.0760926,1,0,0,1.5856,Andesite_09,1,09,3,2,1.586,1,09,0.146193773,-0.232619378,1,0,0,4.2821,Diorite_rect,3,4.282,0,4,0,4,0,1,,,,,,,,,,,,,
5769a352f48c3b00016737f9,SCR,2024-06-11_13h12.48.870,LearnStrategy,2023.2.3,Win32,59.88023952,1,1,6,0.540752494,0.261041975,1,0,0,1.6782,Andesite_06,1,06,5,8,1.678,1,06,-0.397481916,-0.242807568,1,0,0,2.6185,Andesite_rect,1,2.619,1,5,0,5,0,1,,,,,,,,,,,,,
5769a352f48c3b00016737f9,SCR,2024-06-11_13h12.48.870,LearnStrategy,2023.2.3,Win32,59.88023952,1,1,7,0.081360305,-0.254848011,1,0,0,7.8209,Obsidian_06,5,06,2,5,7.821,7,14,-0.341910289,-0.413227087,1,0,0,2.1971,Obsidian_rect,5,2.197,1,6,0,6,0,1,,,,,,,,,,,,,
5769a352f48c3b00016737f9,SCR,2024-06-11_13h12.48.870,LearnStrategy,2023.2.3,Win32,59.88023952,1,1,8,-0.224283663,0.30086832,1,0,0,8.3051,Pegmatite_16,6,16,5,3,8.305,4,16,0.348104165,-0.256700441,1,0,0,5.1662,Gabbro_rect,4,5.166,0,7,0,7,0,1,,,,,,,,,,,,,
5769a352f48c3b00016737f9,SCR,2024-06-11_13h12.48.870,LearnStrategy,2023.2.3,Win32,59.88023952,1,1,9,-0.562344431,-0.242807568,1,0,0,4.5194,Diorite_10,3,10,2,1,4.519,3,08,-0.452127371,-0.245586125,1,0,0,3.4649,Andesite_rect,1,3.465,0,8,0,8,0,1,,,,,,,,,,,,,
5769a352f48c3b00016737f9,SCR,2024-06-11_13h12.48.870,LearnStrategy,2023.2.3,Win32,59.88023952,1,1,10,-0.529927653,-0.384515213,1,0,0,1.7938,Diorite_11,3,11,1,1,1.794,5,12,0.128596216,-0.246512252,1,0,0,1.3293,Diorite_rect,3,1.329,1,9,0,9,0,1,,,,,,,,,,,,,
5769a352f48c3b00016737f9,SCR,2024-06-11_13h12.48.870,LearnStrategy,2023.2.3,Win32,59.88023952,1,1,11,-0.392851017,-0.399334302,1,0,0,2.3362,Diorite_02,3,02,1,2,2.336,3,12,0.11099857,-0.408596188,1,0,0,9.2724,Peridotite_rect,7,9.272,0,10,0,10,0,1,,,,,,,,,,,,,
5769a352f48c3b00016737f9,SCR,2024-06-11_13h12.48.870,LearnStrategy,2023.2.3,Win32,59.88023952,1,1,12,0.567612114,-0.102026049,1,0,0,1.4102,Andesite_16,1,16,3,8,1.41,7,05,0.118408115,-0.23632415,1,0,0,10.3346,Diorite_rect,3,10.335,0,11,0,11,0,1,,,,,,,,,,,,,
5769a352f48c3b00016737f9,SCR,2024-06-11_13h12.48.870,LearnStrategy,2023.2.3,Win32,59.88023952,1,1,13,0.085991292,-0.417858162,1,0,0,2.8191,Pegmatite_11,6,11,1,5,2.819,8,13,-0.101099834,-0.416005732,1,0,0,6.9563,Pegmatite_rect,6,6.956,1,12,0,12,0,1,,,,,,,,,,,,,
5769a352f48c3b00016737f9,SCR,2024-06-11_13h12.48.870,LearnStrategy,2023.2.3,Win32,59.88023952,1,1,14,0.410159165,-0.416005732,1,0,0,2.1185,Pegmatite_09,6,09,1,7,2.118,2,10,0.177684469,-0.389146112,1,0,0,3.7489,Peridotite_rect,7,3.749,0,13,0,13,0,1,,,,,,,,,,,,,
5769a352f48c3b00016737f9,SCR,2024-06-11_13h12.48.870,LearnStrategy,2023.2.3,Win32,59.88023952,1,1,15,0.369406759,0.417568737,1,0,0,2.9938,Gabbro_03,4,03,6,7,2.994,2,09,0.172127355,-0.240955137,1,0,0,3.5806,Diorite_rect,3,3.581,0,14,0,14,0,1,,,,,,,,,,,,,
5769a352f48c3b00016737f9,SCR,2024-06-11_13h12.48.870,LearnStrategy,2023.2.3,Win32,59.88023952,1,1,16,0.548162038,-0.274298087,1,0,0,2.0684,Pegmatite_07,6,07,2,8,2.068,6,07,-0.144630973,-0.408596188,1,0,0,3.6909,Pegmatite_rect,6,3.691,1,15,0,15,0,1,,,,,,,,,,,,,
5769a352f48c3b00016737f9,SCR,2024-06-11_13h12.48.870,LearnStrategy,2023.2.3,Win32,59.88023952,1,2,1,,,,,,,,5,07,,,,,,,,,,,,,5,3.28,1,,,,,,-0.429898694,-0.398408087,1,0,0,3.2795,Obsidian_rect,0,0,0,0,1,
5769a352f48c3b00016737f9,SCR,2024-06-11_13h12.48.870,LearnStrategy,2023.2.3,Win32,59.88023952,1,2,2,,,,,,,,8,10,,,,,,,,,,,,,2,9.164,0,,,,,,-0.126107112,-0.262257555,1,0,0,9.1644,Basalt_rect,1,0,1,0,1,
5769a352f48c3b00016737f9,SCR,2024-06-11_13h12.48.870,LearnStrategy,2023.2.3,Win32,59.88023952,1,2,3,,,,,,,,5,05,,,,,,,,,,,,,5,2.38,1,,,,,,-0.372474681,-0.395629529,1,0,0,2.3796,Obsidian_rect,2,0,2,0,1,
5769a352f48c3b00016737f9,SCR,2024-06-11_13h12.48.870,LearnStrategy,2023.2.3,Win32,59.88023952,1,2,4,,,,,,,,6,03,,,,,,,,,,,,,6,2.711,1,,,,,,-0.180752612,-0.388219985,1,0,0,2.7113,Pegmatite_rect,3,0,3,0,1,
5769a352f48c3b00016737f9,SCR,2024-06-11_13h12.48.870,LearnStrategy,2023.2.3,Win32,59.88023952,1,2,5,,,,,,,,1,01,,,,,,,,,,,,,4,7.645,0,,,,,,0.427756722,-0.245586125,1,0,0,7.6448,Gabbro_rect,4,0,4,0,1,
5769a352f48c3b00016737f9,SCR,2024-06-11_13h12.48.870,LearnStrategy,2023.2.3,Win32,59.88023952,1,2,6,,,,,,,,3,07,,,,,,,,,,,,,3,6.507,1,,,,,,0.168422583,-0.256700441,1,0,0,6.5073,Diorite_rect,5,0,5,0,1,
5769a352f48c3b00016737f9,SCR,2024-06-11_13h12.48.870,LearnStrategy,2023.2.3,Win32,59.88023952,1,2,7,,,,,,,,4,13,,,,,,,,,,,,,1,6.984,0,,,,,,-0.335426916,-0.264109986,1,0,0,6.9836,Andesite_rect,6,0,6,0,1,
5769a352f48c3b00016737f9,SCR,2024-06-11_13h12.48.870,LearnStrategy,2023.2.3,Win32,59.88023952,1,2,8,,,,,,,,4,12,,,,,,,,,,,,,1,2.637,0,,,,,,-0.335426916,-0.264109986,1,0,0,2.6367,Andesite_rect,7,0,7,0,1,
5769a352f48c3b00016737f9,SCR,2024-06-11_13h12.48.870,LearnStrategy,2023.2.3,Win32,59.88023952,1,2,9,,,,,,,,7,08,,,,,,,,,,,,,6,6.267,0,,,,,,-0.125180897,-0.383588998,1,0,0,6.2669,Pegmatite_rect,8,0,8,0,1,
5769a352f48c3b00016737f9,SCR,2024-06-11_13h12.48.870,LearnStrategy,2023.2.3,Win32,59.88023952,1,2,10,,,,,,,,3,15,,,,,,,,,,,,,1,4.502,0,,,,,,-0.318755441,-0.233545637,1,0,0,4.5016,Andesite_rect,9,0,9,0,1,
5769a352f48c3b00016737f9,SCR,2024-06-11_13h12.48.870,LearnStrategy,2023.2.3,Win32,59.88023952,1,2,11,,,,,,,,6,13,,,,,,,,,,,,,3,6.501,0,,,,,,0.102662811,-0.250217024,1,0,0,6.5014,Diorite_rect,10,0,10,0,1,
5769a352f48c3b00016737f9,SCR,2024-06-11_13h12.48.870,LearnStrategy,2023.2.3,Win32,59.88023952,1,2,12,,,,,,,,2,16,,,,,,,,,,,,,8,6.199,0,,,,,,0.374037747,-0.399334302,1,0,0,6.1991,Pumice_rect,11,0,11,0,1,
5769a352f48c3b00016737f9,SCR,2024-06-11_13h12.48.870,LearnStrategy,2023.2.3,Win32,59.88023952,1,2,13,,,,,,,,7,10,,,,,,,,,,,,,4,7.781,0,,,,,,0.319392026,-0.266888543,1,0,0,7.7808,Gabbro_rect,12,0,12,0,1,
5769a352f48c3b00016737f9,SCR,2024-06-11_13h12.48.870,LearnStrategy,2023.2.3,Win32,59.88023952,1,2,14,,,,,,,,1,11,,,,,,,,,,,,,7,5.23,0,,,,,,0.145267735,-0.38544134,1,0,0,5.2304,Peridotite_rect,13,0,13,0,1,
5769a352f48c3b00016737f9,SCR,2024-06-11_13h12.48.870,LearnStrategy,2023.2.3,Win32,59.88023952,1,2,15,,,,,,,,8,16,,,,,,,,,,,,,8,2.558,1,,,,,,0.343473178,-0.388219985,1,0,0,2.5576,Pumice_rect,14,0,14,0,1,
5769a352f48c3b00016737f9,SCR,2024-06-11_13h12.48.870,LearnStrategy,2023.2.3,Win32,59.88023952,1,2,16,,,,,,,,2,11,,,,,,,,,,,,,3,2.787,0,,,,,,0.183241672,-0.251143239,1,0,0,2.7866,Diorite_rect,15,0,15,0,1,
5769a352f48c3b00016737f9,SCR,2024-06-11_13h12.48.870,LearnStrategy,2023.2.3,Win32,59.88023952,2,1,1,0.366628026,-0.401186644,1,0,0,2.5254,Pegmatite_09,6,09,1,7,2.525,6,09,-0.111288024,-0.395629529,1,0,0,3.9426,Pegmatite_rect,6,3.943,1,0,0,0,0,1,,,,,,,,,,,,,
5769a352f48c3b00016737f9,SCR,2024-06-11_13h12.48.870,LearnStrategy,2023.2.3,Win32,59.88023952,2,1,2,-0.06683067,0.229551412,1,0,0,1.0826,Andesite_04,1,04,5,4,1.083,1,04,-0.40489146,-0.239102751,1,0,0,5.6193,Andesite_rect,1,5.619,1,1,0,1,0,1,,,,,,,,,,,,,
5769a352f48c3b00016737f9,SCR,2024-06-11_13h12.48.870,LearnStrategy,2023.2.3,Win32,59.88023952,2,1,3,-0.202054942,-0.462315428,1,0,0,1.4186,Pegmatite_15,6,15,1,3,1.419,6,15,-0.139999986,-0.415079605,1,0,0,3.6978,Pegmatite_rect,6,3.698,1,2,0,2,0,1,,,,,,,,,,,,,
5769a352f48c3b00016737f9,SCR,2024-06-11_13h12.48.870,LearnStrategy,2023.2.3,Win32,59.88023952,2,1,4,-0.365065137,0.152677279,1,0,0,1.0349,Peridotite_16,7,16,4,2,1.035,7,16,0.173979697,-0.394703314,1,0,0,3.0073,Peridotite_rect,7,3.007,1,3,0,3,0,1,,,,,,,,,,,,,
5769a352f48c3b00016737f9,SCR,2024-06-11_13h12.48.870,LearnStrategy,2023.2.3,Win32,59.88023952,2,1,5,0.548162038,-0.079797372,1,0,0,1.5103,Andesite_16,1,16,3,8,1.51,1,16,-0.407670061,-0.24465991,1,0,0,3.2278,Andesite_rect,1,3.228,1,4,0,4,0,1,,,,,,,,,,,,,
5769a352f48c3b00016737f9,SCR,2024-06-11_13h12.48.870,LearnStrategy,2023.2.3,Win32,59.88023952,2,1,6,0.447206798,-0.246512252,1,0,0,0.9858,Gabbro_16,4,16,2,7,0.986,4,16,0.378668557,-0.398408087,1,0,0,1.6722,Pumice_rect,8,1.672,0,5,0,5,0,1,,,,,,,,,,,,,
5769a352f48c3b00016737f9,SCR,2024-06-11_13h12.48.870,LearnStrategy,2023.2.3,Win32,59.88023952,2,1,7,0.236960912,-0.409522491,1,0,0,1.2564,Peridotite_14,7,14,1,6,1.256,7,14,0.107293798,-0.261331428,1,0,0,7.0412,Diorite_rect,3,7.041,0,6,0,6,0,1,,,,,,,,,,,,,
5769a352f48c3b00016737f9,SCR,2024-06-11_13h12.48.870,LearnStrategy,2023.2.3,Win32,59.88023952,2,1,8,-0.541968162,0.284196801,1,0,0,5.1509,Basalt_14,2,14,5,1,5.151,2,14,0.457395164,-0.401186644,1,0,0,1.8508,Pumice_rect,8,1.851,0,7,0,7,0,1,,,,,,,,,,,,,
5769a352f48c3b00016737f9,SCR,2024-06-11_13h12.48.870,LearnStrategy,2023.2.3,Win32,59.88023952,2,1,9,0.077655533,0.212879893,1,0,0,0.9806,Pumice_08,8,08,5,5,0.981,8,08,0.159160608,-0.247438555,1,0,0,11.7744,Diorite_rect,3,11.774,0,8,0,8,0,1,,,,,,,,,,,,,
5769a352f48c3b00016737f9,SCR,2024-06-11_13h12.48.870,LearnStrategy,2023.2.3,Win32,59.88023952,2,1,10,0.346251911,0.085065121,1,0,0,1.3692,Peridotite_05,7,05,4,7,1.369,7,05,-0.09369029,-0.395629529,1,0,0,6.7982,Pegmatite_rect,6,6.798,0,9,0,9,0,1,,,,,,,,,,,,,
5769a352f48c3b00016737f9,SCR,2024-06-11_13h12.48.870,LearnStrategy,2023.2.3,Win32,59.88023952,2,1,11,0.419421139,-0.267814758,1,0,0,1.0018,Gabbro_16,4,16,2,7,1.002,4,16,-0.054790138,-0.24465991,1,0,0,3.9914,Basalt_rect,2,3.991,0,10,0,10,0,1,,,,,,,,,,,,,
5769a352f48c3b00016737f9,SCR,2024-06-11_13h12.48.870,LearnStrategy,2023.2.3,Win32,59.88023952,2,1,12,0.087843722,0.441649783,1,0,0,0.9954,Pumice_04,8,04,6,5,0.995,8,04,0.372185228,-0.391924757,1,0,0,5.0202,Pumice_rect,8,5.02,1,11,0,11,0,1,,,,,,,,,,,,,
5769a352f48c3b00016737f9,SCR,2024-06-11_13h12.48.870,LearnStrategy,2023.2.3,Win32,59.88023952,2,1,13,0.249001444,0.292532561,1,0,0,1.0108,Gabbro_08,4,08,5,6,1.011,4,08,-0.411374833,-0.247438555,1,0,0,3.7902,Andesite_rect,1,3.79,0,12,0,12,0,1,,,,,,,,,,,,,
5769a352f48c3b00016737f9,SCR,2024-06-11_13h12.48.870,LearnStrategy,2023.2.3,Win32,59.88023952,2,1,14,0.081360305,-0.109435594,1,0,0,0.903,Diorite_08,3,08,3,5,0.903,3,08,0.149898546,-0.249290897,1,0,0,7.4005,Diorite_rect,3,7.4,1,13,0,13,0,1,,,,,,,,,,,,,
5769a352f48c3b00016737f9,SCR,2024-06-11_13h12.48.870,LearnStrategy,2023.2.3,Win32,59.88023952,2,1,15,0.064688874,-0.098321277,1,0,0,1.3629,Diorite_08,3,08,3,5,1.363,3,08,0.116555685,-0.232619378,1,0,0,1.5871,Diorite_rect,3,1.587,1,14,0,14,0,1,,,,,,,,,,,,,
5769a352f48c3b00016737f9,SCR,2024-06-11_13h12.48.870,LearnStrategy,2023.2.3,Win32,59.88023952,2,1,16,-0.496584681,-0.06683067,1,0,0,0.9907,Basalt_05,2,05,3,1,0.991,2,05,-0.151114346,-0.24465991,1,0,0,3.7968,Basalt_rect,2,3.797,1,15,0,15,0,1,,,,,,,,,,,,,
5769a352f48c3b00016737f9,SCR,2024-06-11_13h12.48.870,LearnStrategy,2023.2.3,Win32,59.88023952,2,2,1,,,,,,,,6,12,,,,,,,,,,,,,6,6.55,1,,,,,,-0.126107112,-0.397481871,1,0,0,6.5495,Pegmatite_rect,0,0,0,0,1,
5769a352f48c3b00016737f9,SCR,2024-06-11_13h12.48.870,LearnStrategy,2023.2.3,Win32,59.88023952,2,2,2,,,,,,,,2,02,,,,,,,,,,,,,3,16.897,0,,,,,,0.13600576,-0.253921796,1,0,0,16.897,Diorite_rect,1,0,1,0,1,
5769a352f48c3b00016737f9,SCR,2024-06-11_13h12.48.870,LearnStrategy,2023.2.3,Win32,59.88023952,2,2,3,,,,,,,,7,13,,,,,,,,,,,,,6,8.288,0,,,,,,-0.114066492,-0.392850884,1,0,0,8.288,Pegmatite_rect,2,0,2,0,1,
5769a352f48c3b00016737f9,SCR,2024-06-11_13h12.48.870,LearnStrategy,2023.2.3,Win32,59.88023952,2,2,4,,,,,,,,6,06,,,,,,,,,,,,,7,2.329,0,,,,,,0.106367583,-0.388219985,1,0,0,2.3287,Peridotite_rect,3,0,3,0,1,
5769a352f48c3b00016737f9,SCR,2024-06-11_13h12.48.870,LearnStrategy,2023.2.3,Win32,59.88023952,2,2,5,,,,,,,,4,05,,,,,,,,,,,,,4,8.918,1,,,,,,0.359218481,-0.261331428,1,0,0,8.9175,Gabbro_rect,4,0,4,0,1,
5769a352f48c3b00016737f9,SCR,2024-06-11_13h12.48.870,LearnStrategy,2023.2.3,Win32,59.88023952,2,2,6,,,,,,,,3,06,,,,,,,,,,,,,3,7.994,1,,,,,,0.160086824,-0.265036201,1,0,0,7.9942,Diorite_rect,5,0,5,0,1,
5769a352f48c3b00016737f9,SCR,2024-06-11_13h12.48.870,LearnStrategy,2023.2.3,Win32,59.88023952,2,2,7,,,,,,,,5,10,,,,,,,,,,,,,5,1.408,1,,,,,,-0.336353131,-0.405817631,1,0,0,1.4078,Obsidian_rect,6,0,6,0,1,
5769a352f48c3b00016737f9,SCR,2024-06-11_13h12.48.870,LearnStrategy,2023.2.3,Win32,59.88023952,2,2,8,,,,,,,,3,14,,,,,,,,,,,,,3,5.082,1,,,,,,0.115629469,-0.249290897,1,0,0,5.0823,Diorite_rect,7,0,7,0,1,
5769a352f48c3b00016737f9,SCR,2024-06-11_13h12.48.870,LearnStrategy,2023.2.3,Win32,59.88023952,2,2,9,,,,,,,,8,14,,,,,,,,,,,,,8,2.872,1,,,,,,0.371259013,-0.389146112,1,0,0,2.8717,Pumice_rect,8,0,8,0,1,
5769a352f48c3b00016737f9,SCR,2024-06-11_13h12.48.870,LearnStrategy,2023.2.3,Win32,59.88023952,2,2,10,,,,,,,,5,14,,,,,,,,,,,,,5,1.217,1,,,,,,-0.411374833,-0.409522491,1,0,0,1.2169,Obsidian_rect,9,0,9,0,1,
5769a352f48c3b00016737f9,SCR,2024-06-11_13h12.48.870,LearnStrategy,2023.2.3,Win32,59.88023952,2,2,11,,,,,,,,1,14,,,,,,,,,,,,,6,5.41,0,,,,,,-0.12054991,-0.400260428,1,0,0,5.4104,Pegmatite_rect,10,0,10,0,1,
5769a352f48c3b00016737f9,SCR,2024-06-11_13h12.48.870,LearnStrategy,2023.2.3,Win32,59.88023952,2,2,12,,,,,,,,1,05,,,,,,,,,,,,,6,2.399,0,,,,,,-0.12054991,-0.400260428,1,0,0,2.3989,Pegmatite_rect,11,0,11,0,1,
5769a352f48c3b00016737f9,SCR,2024-06-11_13h12.48.870,LearnStrategy,2023.2.3,Win32,59.88023952,2,2,13,,,,,,,,2,12,,,,,,,,,,,,,8,3.724,0,,,,,,0.407380608,-0.390998631,1,0,0,3.7238,Pumice_rect,12,0,12,0,1,
5769a352f48c3b00016737f9,SCR,2024-06-11_13h12.48.870,LearnStrategy,2023.2.3,Win32,59.88023952,2,2,14,,,,,,,,8,03,,,,,,,,,,,,,8,1.157,1,,,,,,0.407380608,-0.390998631,1,0,0,1.1574,Pumice_rect,13,0,13,0,1,
5769a352f48c3b00016737f9,SCR,2024-06-11_13h12.48.870,LearnStrategy,2023.2.3,Win32,59.88023952,2,2,15,,,,,,,,7,07,,,,,,,,,,,,,7,3.403,1,,,,,,0.188798786,-0.395629529,1,0,0,3.403,Peridotite_rect,14,0,14,0,1,
5769a352f48c3b00016737f9,SCR,2024-06-11_13h12.48.870,LearnStrategy,2023.2.3,Win32,59.88023952,2,2,16,,,,,,,,4,15,,,,,,,,,,,,,2,3.882,0,,,,,,-0.132590442,-0.254848011,1,0,0,3.8824,Basalt_rect,15,0,15,0,1,
5769a352f48c3b00016737f9,SCR,2024-06-11_13h12.48.870,LearnStrategy,2023.2.3,Win32,59.88023952,3,1,1,0.370332798,0.418494935,1,0,0,1.5412,Gabbro_03,4,03,6,7,1.541,4,03,-0.400260517,-0.24465991,1,0,0,3.6932,Andesite_rect,1,3.693,0,0,0,0,0,1,,,,,,,,,,,,,
5769a352f48c3b00016737f9,SCR,2024-06-11_13h12.48.870,LearnStrategy,2023.2.3,Win32,59.88023952,3,1,2,0.400897102,-0.405817631,1,0,0,1.2853,Pegmatite_09,6,09,1,7,1.285,6,09,0.10358885,-0.378958011,1,0,0,5.0086,Peridotite_rect,7,5.009,0,1,0,1,0,1,,,,,,,,,,,,,
5769a352f48c3b00016737f9,SCR,2024-06-11_13h12.48.870,LearnStrategy,2023.2.3,Win32,59.88023952,3,1,3,-0.53826339,-0.096468891,1,0,0,1.0525,Basalt_05,2,05,3,1,1.053,2,05,-0.127033327,-0.238176536,1,0,0,4.0475,Basalt_rect,2,4.047,1,2,0,2,0,1,,,,,,,,,,,,,
5769a352f48c3b00016737f9,SCR,2024-06-11_13h12.48.870,LearnStrategy,2023.2.3,Win32,59.88023952,3,1,4,-0.183531081,-0.091837904,1,0,0,0.9748,Andesite_02,1,02,3,3,0.975,1,02,0.111924697,-0.238176536,1,0,0,6.3348,Diorite_rect,3,6.335,0,3,0,3,0,1,,,,,,,,,,,,,
5769a352f48c3b00016737f9,SCR,2024-06-11_13h12.48.870,LearnStrategy,2023.2.3,Win32,59.88023952,3,1,5,-0.23817658,0.127670045,1,0,0,1.0517,Pumice_09,8,09,4,3,1.052,8,09,0.442575987,-0.396555656,1,0,0,2.2971,Pumice_rect,8,2.297,1,4,0,4,0,1,,,,,,,,,,,,,
5769a352f48c3b00016737f9,SCR,2024-06-11_13h12.48.870,LearnStrategy,2023.2.3,Win32,59.88023952,3,1,6,0.350882899,-0.404891504,1,0,0,1.3596,Pegmatite_09,6,09,1,7,1.36,6,09,-0.107583252,-0.398408087,1,0,0,3.9452,Pegmatite_rect,6,3.945,1,5,0,5,0,1,,,,,,,,,,,,,
5769a352f48c3b00016737f9,SCR,2024-06-11_13h12.48.870,LearnStrategy,2023.2.3,Win32,59.88023952,3,1,7,-0.514182371,-0.081649758,1,0,0,1.053,Basalt_05,2,05,3,1,1.053,2,05,-0.165933435,-0.233545637,1,0,0,6.0983,Basalt_rect,2,6.098,1,6,0,6,0,1,,,,,,,,,,,,,
5769a352f48c3b00016737f9,SCR,2024-06-11_13h12.48.870,LearnStrategy,2023.2.3,Win32,59.88023952,3,1,8,0.447206798,0.275861086,1,0,0,0.9967,Basalt_04,2,04,5,7,0.997,2,04,-0.090911644,-0.267814758,1,0,0,1.7039,Basalt_rect,2,1.704,1,7,0,7,0,1,,,,,,,,,,,,,
5769a352f48c3b00016737f9,SCR,2024-06-11_13h12.48.870,LearnStrategy,2023.2.3,Win32,59.88023952,3,1,9,0.261968014,0.235108548,1,0,0,0.8726,Gabbro_08,4,08,5,6,0.873,4,08,-0.37803184,-0.230766992,1,0,0,2.3163,Andesite_rect,1,2.316,0,8,0,8,0,1,,,,,,,,,,,,,
5769a352f48c3b00016737f9,SCR,2024-06-11_13h12.48.870,LearnStrategy,2023.2.3,Win32,59.88023952,3,1,10,-0.195571657,-0.238176536,1,0,0,0.9804,Basalt_10,2,10,2,3,0.98,2,10,-0.113140366,-0.23632415,1,0,0,1.5578,Basalt_rect,2,1.558,1,9,0,9,0,1,,,,,,,,,,,,,
5769a352f48c3b00016737f9,SCR,2024-06-11_13h12.48.870,LearnStrategy,2023.2.3,Win32,59.88023952,3,1,11,-0.506772782,-0.21872646,1,0,0,1.0048,Diorite_10,3,10,2,1,1.005,3,10,0.35736614,-0.264109986,1,0,0,2.6178,Gabbro_rect,4,2.618,0,10,0,10,0,1,,,,,,,,,,,,,
5769a352f48c3b00016737f9,SCR,2024-06-11_13h12.48.870,LearnStrategy,2023.2.3,Win32,59.88023952,3,1,12,-0.079797416,0.219363244,1,0,0,1.7141,Andesite_04,1,04,5,4,1.714,1,04,0.105441368,-0.235397979,1,0,0,12.8356,Diorite_rect,3,12.836,0,11,0,11,0,1,,,,,,,,,,,,,
5769a352f48c3b00016737f9,SCR,2024-06-11_13h12.48.870,LearnStrategy,2023.2.3,Win32,59.88023952,3,1,13,-0.046454467,-0.378958011,1,0,0,1.1231,Peridotite_02,7,02,1,4,1.123,7,02,0.085991292,-0.396555656,1,0,0,2.9909,Peridotite_rect,7,2.991,1,12,0,12,0,1,,,,,,,,,,,,,
5769a352f48c3b00016737f9,SCR,2024-06-11_13h12.48.870,LearnStrategy,2023.2.3,Win32,59.88023952,3,1,14,0.228625153,0.081360349,1,0,0,1.4273,Andesite_10,1,10,4,6,1.427,1,10,0.383299633,-0.242807568,1,0,0,8.6076,Gabbro_rect,4,8.608,0,13,0,13,0,1,,,,,,,,,,,,,
5769a352f48c3b00016737f9,SCR,2024-06-11_13h12.48.870,LearnStrategy,2023.2.3,Win32,59.88023952,3,1,15,-0.030709075,-0.398408087,1,0,0,1.0875,Peridotite_02,7,02,1,4,1.088,7,02,0.126743698,-0.408596188,1,0,0,2.9318,Peridotite_rect,7,2.932,1,14,0,14,0,1,,,,,,,,,,,,,
5769a352f48c3b00016737f9,SCR,2024-06-11_13h12.48.870,LearnStrategy,2023.2.3,Win32,59.88023952,3,1,16,-0.386367599,-0.081649758,1,0,0,0.8901,Andesite_09,1,09,3,2,0.89,1,09,-0.380810441,-0.250217024,1,0,0,1.8521,Andesite_rect,1,1.852,1,15,0,15,0,1,,,,,,,,,,,,,
5769a352f48c3b00016737f9,SCR,2024-06-11_13h12.48.870,LearnStrategy,2023.2.3,Win32,59.88023952,3,2,1,,,,,,,,2,01,,,,,,,,,,,,,2,6.482,1,,,,,,-0.131664315,-0.249290897,1,0,0,6.4824,Basalt_rect,0,0,0,0,1,
5769a352f48c3b00016737f9,SCR,2024-06-11_13h12.48.870,LearnStrategy,2023.2.3,Win32,59.88023952,3,2,2,,,,,,,,7,12,,,,,,,,,,,,,6,2.661,0,,,,,,-0.123328467,-0.408596188,1,0,0,2.6607,Pegmatite_rect,1,0,1,0,1,
5769a352f48c3b00016737f9,SCR,2024-06-11_13h12.48.870,LearnStrategy,2023.2.3,Win32,59.88023952,3,2,3,,,,,,,,1,07,,,,,,,,,,,,,3,9.637,0,,,,,,0.100810381,-0.243733695,1,0,0,9.6372,Diorite_rect,2,0,2,0,1,
5769a352f48c3b00016737f9,SCR,2024-06-11_13h12.48.870,LearnStrategy,2023.2.3,Win32,59.88023952,3,2,4,,,,,,,,3,16,,,,,,,,,,,,,1,2.251,0,,,,,,-0.398408131,-0.260405213,1,0,0,2.2514,Andesite_rect,3,0,3,0,1,
5769a352f48c3b00016737f9,SCR,2024-06-11_13h12.48.870,LearnStrategy,2023.2.3,Win32,59.88023952,3,2,5,,,,,,,,8,15,,,,,,,,,,,,,8,1.72,1,,,,,,0.317539773,-0.395629529,1,0,0,1.7197,Pumice_rect,4,0,4,0,1,
5769a352f48c3b00016737f9,SCR,2024-06-11_13h12.48.870,LearnStrategy,2023.2.3,Win32,59.88023952,3,2,6,,,,,,,,2,08,,,,,,,,,,,,,2,1.522,1,,,,,,-0.103878479,-0.254848011,1,0,0,1.5221,Basalt_rect,5,0,5,0,1,
5769a352f48c3b00016737f9,SCR,2024-06-11_13h12.48.870,LearnStrategy,2023.2.3,Win32,59.88023952,3,2,7,,,,,,,,4,09,,,,,,,,,,,,,4,8.112,1,,,,,,0.37589,-0.243733695,1,0,0,8.1118,Gabbro_rect,6,0,6,0,1,
5769a352f48c3b00016737f9,SCR,2024-06-11_13h12.48.870,LearnStrategy,2023.2.3,Win32,59.88023952,3,2,8,,,,,,,,1,03,,,,,,,,,,,,,1,6.95,1,,,,,,-0.334500745,-0.254848011,1,0,0,6.9498,Andesite_rect,7,0,7,0,1,
5769a352f48c3b00016737f9,SCR,2024-06-11_13h12.48.870,LearnStrategy,2023.2.3,Win32,59.88023952,3,2,9,,,,,,,,3,13,,,,,,,,,,,,,3,9.022,1,,,,,,0.106367583,-0.247438555,1,0,0,9.0223,Diorite_rect,8,0,8,0,1,
5769a352f48c3b00016737f9,SCR,2024-06-11_13h12.48.870,LearnStrategy,2023.2.3,Win32,59.88023952,3,2,10,,,,,,,,8,02,,,,,,,,,,,,,8,1.536,1,,,,,,0.34717795,-0.417858162,1,0,0,1.5364,Pumice_rect,9,0,9,0,1,
5769a352f48c3b00016737f9,SCR,2024-06-11_13h12.48.870,LearnStrategy,2023.2.3,Win32,59.88023952,3,2,11,,,,,,,,6,10,,,,,,,,,,,,,6,2.626,1,,,,,,-0.119623783,-0.394703314,1,0,0,2.6257,Pegmatite_rect,10,0,10,0,1,
5769a352f48c3b00016737f9,SCR,2024-06-11_13h12.48.870,LearnStrategy,2023.2.3,Win32,59.88023952,3,2,12,,,,,,,,7,04,,,,,,,,,,,,,7,3.413,1,,,,,,0.11099857,-0.383588998,1,0,0,3.4127,Peridotite_rect,11,0,11,0,1,
5769a352f48c3b00016737f9,SCR,2024-06-11_13h12.48.870,LearnStrategy,2023.2.3,Win32,59.88023952,3,2,13,,,,,,,,6,08,,,,,,,,,,,,,5,1.758,0,,,,,,-0.351172219,-0.380810441,1,0,0,1.7576,Obsidian_rect,12,0,12,0,1,
5769a352f48c3b00016737f9,SCR,2024-06-11_13h12.48.870,LearnStrategy,2023.2.3,Win32,59.88023952,3,2,14,,,,,,,,5,08,,,,,,,,,,,,,5,0.938,1,,,,,,-0.351172219,-0.380810441,1,0,0,0.9378,Obsidian_rect,13,0,13,0,1,
5769a352f48c3b00016737f9,SCR,2024-06-11_13h12.48.870,LearnStrategy,2023.2.3,Win32,59.88023952,3,2,15,,,,,,,,4,01,,,,,,,,,,,,,4,4.597,1,,,,,,0.307351671,-0.239102751,1,0,0,4.5965,Gabbro_rect,14,0,14,0,1,
5769a352f48c3b00016737f9,SCR,2024-06-11_13h12.48.870,LearnStrategy,2023.2.3,Win32,59.88023952,3,2,16,,,,,,,,5,09,,,,,,,,,,,,,5,1.341,1,,,,,,-0.388219985,-0.380810441,1,0,0,1.3405,Obsidian_rect,15,0,15,0,1,
5769a352f48c3b00016737f9,SCR,2024-06-11_13h12.48.870,LearnStrategy,2023.2.3,Win32,59.88023952,4,1,1,0.067467431,-0.357655593,1,0,0,1.3616,Pegmatite_11,6,11,1,5,1.362,6,11,-0.075166429,-0.393777099,1,0,0,2.9124,Pegmatite_rect,6,2.912,1,0,0,0,0,1,,,,,,,,,,,,,
5769a352f48c3b00016737f9,SCR,2024-06-11_13h12.48.870,LearnStrategy,2023.2.3,Win32,59.88023952,4,1,2,-0.215021732,-0.082575973,1,0,0,0.8853,Andesite_02,1,02,3,3,0.885,1,02,0.155455836,-0.23632415,1,0,0,2.9893,Diorite_rect,3,2.989,0,1,0,1,0,1,,,,,,,,,,,,,
5769a352f48c3b00016737f9,SCR,2024-06-11_13h12.48.870,LearnStrategy,2023.2.3,Win32,59.88023952,4,1,3,0.271230077,0.242518092,1,0,0,1.1049,Gabbro_08,4,08,5,6,1.105,4,08,0.40923295,-0.242807568,1,0,0,8.3668,Gabbro_rect,4,8.367,1,2,0,2,0,1,,,,,,,,,,,,,
5769a352f48c3b00016737f9,SCR,2024-06-11_13h12.48.870,LearnStrategy,2023.2.3,Win32,59.88023952,4,1,4,-0.53826339,-0.41230096,1,0,0,2.1267,Diorite_11,3,11,1,1,2.127,3,11,-0.413227219,-0.240028922,1,0,0,1.0217,Andesite_rect,1,1.022,0,3,0,3,0,1,,,,,,,,,,,,,
5769a352f48c3b00016737f9,SCR,2024-06-11_13h12.48.870,LearnStrategy,2023.2.3,Win32,59.88023952,4,1,5,-0.06683067,0.08228652,1,0,0,0.7708,Basalt_09,2,09,4,4,0.771,2,09,-0.114992796,-0.248364682,1,0,0,1.7132,Basalt_rect,2,1.713,1,4,0,4,0,1,,,,,,,,,,,,,
5769a352f48c3b00016737f9,SCR,2024-06-11_13h12.48.870,LearnStrategy,2023.2.3,Win32,59.88023952,4,1,6,0.383299633,-0.258552783,1,0,0,1.0205,Gabbro_16,4,16,2,7,1.021,4,16,-0.127959454,-0.240955137,1,0,0,1.6325,Basalt_rect,2,1.633,0,5,0,5,0,1,,,,,,,,,,,,,
5769a352f48c3b00016737f9,SCR,2024-06-11_13h12.48.870,LearnStrategy,2023.2.3,Win32,59.88023952,4,1,7,-0.063125897,0.079507963,1,0,0,0.8166,Basalt_09,2,09,4,4,0.817,2,09,0.445354544,-0.245586125,1,0,0,3.9602,Gabbro_rect,4,3.96,0,6,0,6,0,1,,,,,,,,,,,,,
5769a352f48c3b00016737f9,SCR,2024-06-11_13h12.48.870,LearnStrategy,2023.2.3,Win32,59.88023952,4,1,8,0.537047722,-0.410448618,1,0,0,1.1342,Obsidian_02,5,02,1,8,1.134,5,02,-0.340984074,-0.392850884,1,0,0,0.9637,Obsidian_rect,5,0.964,1,7,0,7,0,1,,,,,,,,,,,,,
5769a352f48c3b00016737f9,SCR,2024-06-11_13h12.48.870,LearnStrategy,2023.2.3,Win32,59.88023952,4,1,9,-0.524370516,0.39626628,1,0,0,1.9646,Pegmatite_05,6,05,6,1,1.965,7,15,0.161013039,-0.249290897,1,0,0,8.2408,Diorite_rect,3,8.241,0,8,0,8,0,1,,,,,,,,,,,,,
5769a352f48c3b00016737f9,SCR,2024-06-11_13h12.48.870,LearnStrategy,2023.2.3,Win32,59.88023952,4,1,10,-0.420636719,0.115629514,1,0,0,1.2308,Peridotite_16,7,16,4,2,1.231,7,16,-0.107583252,-0.398408087,1,0,0,4.9416,Pegmatite_rect,6,4.942,0,9,0,9,0,1,,,,,,,,,,,,,
5769a352f48c3b00016737f9,SCR,2024-06-11_13h12.48.870,LearnStrategy,2023.2.3,Win32,59.88023952,4,1,11,0.571316886,-0.084428359,1,0,0,1.0197,Andesite_16,1,16,3,8,1.02,1,16,0.394413861,-0.243733695,1,0,0,3.7623,Gabbro_rect,4,3.762,0,10,0,10,0,1,,,,,,,,,,,,,
5769a352f48c3b00016737f9,SCR,2024-06-11_13h12.48.870,LearnStrategy,2023.2.3,Win32,59.88023952,4,1,12,0.063762659,-0.402112859,1,0,0,1.0609,Pegmatite_11,6,11,1,5,1.061,6,11,-0.082575973,-0.381736656,1,0,0,1.9516,Pegmatite_rect,6,1.952,1,11,0,11,0,1,,,,,,,,,,,,,
5769a352f48c3b00016737f9,SCR,2024-06-11_13h12.48.870,LearnStrategy,2023.2.3,Win32,59.88023952,4,1,13,0.079507963,0.394413883,1,0,0,1.2039,Pumice_04,8,04,6,5,1.204,6,15,0.431461494,-0.413227087,1,0,0,1.2028,Pumice_rect,8,1.203,1,12,0,12,0,1,,,,,,,,,,,,,
5769a352f48c3b00016737f9,SCR,2024-06-11_13h12.48.870,LearnStrategy,2023.2.3,Win32,59.88023952,4,1,14,-0.383588998,0.276787279,1,0,0,3.7855,Diorite_12,3,12,5,2,3.786,8,06,-0.426193922,-0.249290897,1,0,0,1.6914,Andesite_rect,1,1.691,0,13,0,13,0,1,,,,,,,,,,,,,
5769a352f48c3b00016737f9,SCR,2024-06-11_13h12.48.870,LearnStrategy,2023.2.3,Win32,59.88023952,4,1,15,-0.069609315,-0.454905884,1,0,0,1.0533,Peridotite_02,7,02,1,4,1.053,7,02,0.071172204,-0.396555656,1,0,0,2.8342,Peridotite_rect,7,2.834,1,14,0,14,0,1,,,,,,,,,,,,,
5769a352f48c3b00016737f9,SCR,2024-06-11_13h12.48.870,LearnStrategy,2023.2.3,Win32,59.88023952,4,1,16,-0.367843783,0.246222865,1,0,0,1.0903,Diorite_12,3,12,5,2,1.09,3,12,-0.364138922,-0.240955137,1,0,0,3.2106,Andesite_rect,1,3.211,0,15,0,15,0,1,,,,,,,,,,,,,
5769a352f48c3b00016737f9,SCR,2024-06-11_13h12.48.870,LearnStrategy,2023.2.3,Win32,59.88023952,4,2,1,,,,,,,,5,09,,,,,,,,,,,,,5,1.43,1,,,,,,-0.365991308,-0.403965289,1,0,0,1.4298,Obsidian_rect,0,0,0,0,1,
5769a352f48c3b00016737f9,SCR,2024-06-11_13h12.48.870,LearnStrategy,2023.2.3,Win32,59.88023952,4,2,2,,,,,,,,1,01,,,,,,,,,,,,,4,8.191,0,,,,,,0.344399393,-0.240955137,1,0,0,8.1913,Gabbro_rect,1,0,1,0,1,
5769a352f48c3b00016737f9,SCR,2024-06-11_13h12.48.870,LearnStrategy,2023.2.3,Win32,59.88023952,4,2,3,,,,,,,,4,05,,,,,,,,,,,,,6,3.425,0,,,,,,-0.115919011,-0.411374833,1,0,0,3.4249,Pegmatite_rect,2,0,2,0,1,
5769a352f48c3b00016737f9,SCR,2024-06-11_13h12.48.870,LearnStrategy,2023.2.3,Win32,59.88023952,4,2,4,,,,,,,,5,07,,,,,,,,,,,,,5,1.034,1,,,,,,-0.400260517,-0.397481871,1,0,0,1.0343,Obsidian_rect,3,0,3,0,1,
5769a352f48c3b00016737f9,SCR,2024-06-11_13h12.48.870,LearnStrategy,2023.2.3,Win32,59.88023952,4,2,5,,,,,,,,2,08,,,,,,,,,,,,,2,1.356,1,,,,,,-0.127033327,-0.251143239,1,0,0,1.3559,Basalt_rect,4,0,4,0,1,
5769a352f48c3b00016737f9,SCR,2024-06-11_13h12.48.870,LearnStrategy,2023.2.3,Win32,59.88023952,4,2,6,,,,,,,,7,07,,,,,,,,,,,,,6,3.419,0,,,,,,-0.078871201,-0.402112859,1,0,0,3.4193,Pegmatite_rect,5,0,5,0,1,
5769a352f48c3b00016737f9,SCR,2024-06-11_13h12.48.870,LearnStrategy,2023.2.3,Win32,59.88023952,4,2,7,,,,,,,,2,11,,,,,,,,,,,,,8,2.098,0,,,,,,0.399971064,-0.397481871,1,0,0,2.0976,Pumice_rect,6,0,6,0,1,
5769a352f48c3b00016737f9,SCR,2024-06-11_13h12.48.870,LearnStrategy,2023.2.3,Win32,59.88023952,4,2,8,,,,,,,,4,09,,,,,,,,,,,,,4,2.857,1,,,,,,0.387004317,-0.251143239,1,0,0,2.8574,Gabbro_rect,7,0,7,0,1,
5769a352f48c3b00016737f9,SCR,2024-06-11_13h12.48.870,LearnStrategy,2023.2.3,Win32,59.88023952,4,2,9,,,,,,,,1,03,,,,,,,,,,,,,3,2.433,0,,,,,,0.205470305,-0.248364682,1,0,0,2.4326,Diorite_rect,8,0,8,0,1,
5769a352f48c3b00016737f9,SCR,2024-06-11_13h12.48.870,LearnStrategy,2023.2.3,Win32,59.88023952,4,2,10,,,,,,,,3,13,,,,,,,,,,,,,3,1.865,1,,,,,,0.091548495,-0.248364682,1,0,0,1.8648,Diorite_rect,9,0,9,0,1,
5769a352f48c3b00016737f9,SCR,2024-06-11_13h12.48.870,LearnStrategy,2023.2.3,Win32,59.88023952,4,2,11,,,,,,,,7,13,,,,,,,,,,,,,7,1.523,1,,,,,,0.099884077,-0.399334302,1,0,0,1.5232,Peridotite_rect,10,0,10,0,1,
5769a352f48c3b00016737f9,SCR,2024-06-11_13h12.48.870,LearnStrategy,2023.2.3,Win32,59.88023952,4,2,12,,,,,,,,8,14,,,,,,,,,,,,,8,1.214,1,,,,,,0.316613558,-0.401186644,1,0,0,1.2141,Pumice_rect,11,0,11,0,1,
5769a352f48c3b00016737f9,SCR,2024-06-11_13h12.48.870,LearnStrategy,2023.2.3,Win32,59.88023952,4,2,13,,,,,,,,6,08,,,,,,,,,,,,,6,2.483,1,,,,,,-0.123328467,-0.401186644,1,0,0,2.4834,Pegmatite_rect,12,0,12,0,1,
5769a352f48c3b00016737f9,SCR,2024-06-11_13h12.48.870,LearnStrategy,2023.2.3,Win32,59.88023952,4,2,14,,,,,,,,6,03,,,,,,,,,,,,,7,1.238,0,,,,,,0.087843722,-0.401186644,1,0,0,1.2377,Peridotite_rect,13,0,13,0,1,
5769a352f48c3b00016737f9,SCR,2024-06-11_13h12.48.870,LearnStrategy,2023.2.3,Win32,59.88023952,4,2,15,,,,,,,,8,02,,,,,,,,,,,,,8,1.131,1,,,,,,0.35736614,-0.402112859,1,0,0,1.131,Pumice_rect,14,0,14,0,1,
5769a352f48c3b00016737f9,SCR,2024-06-11_13h12.48.870,LearnStrategy,2023.2.3,Win32,59.88023952,4,2,16,,,,,,,,3,07,,,,,,,,,,,,,1,1.768,0,,,,,,-0.357655593,-0.241881353,1,0,0,1.7677,Andesite_rect,15,0,15,0,1,
5769a352f48c3b00016737f9,SCR,2024-06-11_13h12.48.870,LearnStrategy,2023.2.3,Win32,59.88023952,5,1,1,-0.386367599,-0.398408087,1,0,0,4.1158,Diorite_02,3,02,1,2,4.116,6,09,-0.372474681,-0.252995669,1,0,0,2.8102,Andesite_rect,1,2.81,0,0,0,0,0,1,,,,,,,,,,,,,
5769a352f48c3b00016737f9,SCR,2024-06-11_13h12.48.870,LearnStrategy,2023.2.3,Win32,59.88023952,5,1,2,-0.518813314,-0.399334302,1,0,0,2.9148,Diorite_11,3,11,1,1,2.915,1,04,-0.444717827,-0.250217024,1,0,0,2.67,Andesite_rect,1,2.67,0,1,0,1,0,1,,,,,,,,,,,,,
5769a352f48c3b00016737f9,SCR,2024-06-11_13h12.48.870,LearnStrategy,2023.2.3,Win32,59.88023952,5,1,3,-0.554934887,-0.27522439,1,0,0,5.6062,Diorite_10,3,10,2,1,5.606,1,10,-0.357655593,-0.270593403,1,0,0,1.7994,Andesite_rect,1,1.799,0,2,0,2,0,1,,,,,,,,,,,,,
5769a352f48c3b00016737f9,SCR,2024-06-11_13h12.48.870,LearnStrategy,2023.2.3,Win32,59.88023952,5,1,4,0.217510836,-0.247438555,1,0,0,8.2899,Pumice_06,8,06,2,6,8.29,2,04,0.411085468,-0.396555656,1,0,0,1.6735,Pumice_rect,8,1.673,1,3,0,3,0,1,,,,,,,,,,,,,
5769a352f48c3b00016737f9,SCR,2024-06-11_13h12.48.870,LearnStrategy,2023.2.3,Win32,59.88023952,5,1,5,0.10358885,-0.11036172,1,0,0,1.523,Diorite_08,3,08,3,5,1.523,6,07,0.45091157,-0.247438555,1,0,0,4.5565,Gabbro_rect,4,4.556,0,4,0,4,0,1,,,,,,,,,,,,,
5769a352f48c3b00016737f9,SCR,2024-06-11_13h12.48.870,LearnStrategy,2023.2.3,Win32,59.88023952,5,1,6,-0.103878479,-0.08535453,1,0,0,5.8992,Peridotite_15,7,15,3,4,5.899,1,16,0.108219925,-0.405817631,1,0,0,1.9882,Peridotite_rect,7,1.988,1,5,0,5,0,1,,,,,,,,,,,,,
5769a352f48c3b00016737f9,SCR,2024-06-11_13h12.48.870,LearnStrategy,2023.2.3,Win32,59.88023952,5,1,7,-0.552156308,0.098031868,1,0,0,4.699,Gabbro_10,4,10,4,1,4.699,3,10,0.355513709,-0.240028922,1,0,0,4.3672,Gabbro_rect,4,4.367,1,6,0,6,0,1,,,,,,,,,,,,,
5769a352f48c3b00016737f9,SCR,2024-06-11_13h12.48.870,LearnStrategy,2023.2.3,Win32,59.88023952,5,1,8,0.386078102,0.397192473,1,0,0,3.2338,Gabbro_03,4,03,6,7,3.234,4,14,-0.351172219,-0.238176536,1,0,0,3.7246,Andesite_rect,1,3.725,0,7,0,7,0,1,,,,,,,,,,,,,
5769a352f48c3b00016737f9,SCR,2024-06-11_13h12.48.870,LearnStrategy,2023.2.3,Win32,59.88023952,5,1,9,0.573169405,0.441649783,1,0,0,4.8235,Diorite_09,3,09,6,8,4.823,7,15,0.141562963,-0.240955137,1,0,0,2.4808,Diorite_rect,3,2.481,1,8,0,8,0,1,,,,,,,,,,,,,
5769a352f48c3b00016737f9,SCR,2024-06-11_13h12.48.870,LearnStrategy,2023.2.3,Win32,59.88023952,5,1,10,0.570390583,0.229551412,1,0,0,1.0499,Andesite_06,1,06,5,8,1.05,2,14,-0.390072371,-0.234471764,1,0,0,1.8367,Andesite_rect,1,1.837,1,9,0,9,0,1,,,,,,,,,,,,,
5769a352f48c3b00016737f9,SCR,2024-06-11_13h12.48.870,LearnStrategy,2023.2.3,Win32,59.88023952,5,1,11,0.538900152,0.397192473,1,0,0,3.0383,Diorite_09,3,09,6,8,3.038,7,05,-0.397481916,-0.252995669,1,0,0,2.8987,Andesite_rect,1,2.899,0,10,0,10,0,1,,,,,,,,,,,,,
5769a352f48c3b00016737f9,SCR,2024-06-11_13h12.48.870,LearnStrategy,2023.2.3,Win32,59.88023952,5,1,12,0.372185228,0.407380608,1,0,0,3.9179,Gabbro_03,4,03,6,7,3.918,8,13,0.373111443,-0.260405213,1,0,0,3.3394,Gabbro_rect,4,3.339,1,11,0,11,0,1,,,,,,,,,,,,,
5769a352f48c3b00016737f9,SCR,2024-06-11_13h12.48.870,LearnStrategy,2023.2.3,Win32,59.88023952,5,1,13,0.25826333,0.40182345,1,0,0,0.9647,Basalt_06,2,06,6,6,0.965,4,10,-0.146483315,-0.261331428,1,0,0,3.827,Basalt_rect,2,3.827,1,12,0,12,0,1,,,,,,,,,,,,,
5769a352f48c3b00016737f9,SCR,2024-06-11_13h12.48.870,LearnStrategy,2023.2.3,Win32,59.88023952,5,1,14,0.235108482,0.241591899,1,0,0,1.5518,Gabbro_08,4,08,5,6,1.552,6,16,0.34903038,-0.265962416,1,0,0,1.7667,Gabbro_rect,4,1.767,1,13,0,13,0,1,,,,,,,,,,,,,
5769a352f48c3b00016737f9,SCR,2024-06-11_13h12.48.870,LearnStrategy,2023.2.3,Win32,59.88023952,5,1,15,-0.055716353,0.25641101,1,0,0,3.6001,Andesite_04,1,04,5,4,3.6,1,06,0.414790152,-0.245586125,1,0,0,2.9916,Gabbro_rect,4,2.992,0,14,0,14,0,1,,,,,,,,,,,,,
5769a352f48c3b00016737f9,SCR,2024-06-11_13h12.48.870,LearnStrategy,2023.2.3,Win32,59.88023952,5,1,16,-0.034413935,-0.11314041,1,0,0,8.939,Peridotite_15,7,15,3,4,8.939,3,12,0.10914614,-0.390072239,1,0,0,1.5402,Peridotite_rect,7,1.54,1,15,0,15,0,1,,,,,,,,,,,,,
5769a352f48c3b00016737f9,SCR,2024-06-11_13h12.48.870,LearnStrategy,2023.2.3,Win32,59.88023952,5,2,1,,,,,,,,6,06,,,,,,,,,,,,,6,2.273,1,,,,,,-0.097395062,-0.38544134,1,0,0,2.273,Pegmatite_rect,0,0,0,0,1,
5769a352f48c3b00016737f9,SCR,2024-06-11_13h12.48.870,LearnStrategy,2023.2.3,Win32,59.88023952,5,2,2,,,,,,,,1,11,,,,,,,,,,,,,4,9.816,0,,,,,,0.38885657,-0.270593403,1,0,0,9.8161,Gabbro_rect,1,0,1,0,1,
5769a352f48c3b00016737f9,SCR,2024-06-11_13h12.48.870,LearnStrategy,2023.2.3,Win32,59.88023952,5,2,3,,,,,,,,5,08,,,,,,,,,,,,,5,1.32,1,,,,,,-0.365065137,-0.410448618,1,0,0,1.3201,Obsidian_rect,2,0,2,0,1,
5769a352f48c3b00016737f9,SCR,2024-06-11_13h12.48.870,LearnStrategy,2023.2.3,Win32,59.88023952,5,2,4,,,,,,,,8,16,,,,,,,,,,,,,8,2.099,1,,,,,,0.355513709,-0.384515213,1,0,0,2.099,Pumice_rect,3,0,3,0,1,
5769a352f48c3b00016737f9,SCR,2024-06-11_13h12.48.870,LearnStrategy,2023.2.3,Win32,59.88023952,5,2,5,,,,,,,,2,16,,,,,,,,,,,,,8,0.838,0,,,,,,0.355513709,-0.384515213,1,0,0,0.8382,Pumice_rect,4,0,4,0,1,
5769a352f48c3b00016737f9,SCR,2024-06-11_13h12.48.870,LearnStrategy,2023.2.3,Win32,59.88023952,5,2,6,,,,,,,,7,08,,,,,,,,,,,,,3,7.36,0,,,,,,0.131374773,-0.262257555,1,0,0,7.3599,Diorite_rect,5,0,5,0,1,
5769a352f48c3b00016737f9,SCR,2024-06-11_13h12.48.870,LearnStrategy,2023.2.3,Win32,59.88023952,5,2,7,,,,,,,,6,10,,,,,,,,,,,,,7,3.509,0,,,,,,0.093400837,-0.410448618,1,0,0,3.5085,Peridotite_rect,6,0,6,0,1,
5769a352f48c3b00016737f9,SCR,2024-06-11_13h12.48.870,LearnStrategy,2023.2.3,Win32,59.88023952,5,2,8,,,,,,,,3,06,,,,,,,,,,,,,3,1.873,1,,,,,,0.112850912,-0.261331428,1,0,0,1.8728,Diorite_rect,7,0,7,0,1,
5769a352f48c3b00016737f9,SCR,2024-06-11_13h12.48.870,LearnStrategy,2023.2.3,Win32,59.88023952,5,2,9,,,,,,,,4,13,,,,,,,,,,,,,3,3.028,0,,,,,,0.112850912,-0.252069542,1,0,0,3.0276,Diorite_rect,8,0,8,0,1,
5769a352f48c3b00016737f9,SCR,2024-06-11_13h12.48.870,LearnStrategy,2023.2.3,Win32,59.88023952,5,2,10,,,,,,,,4,15,,,,,,,,,,,,,1,2.06,0,,,,,,-0.372474681,-0.247438555,1,0,0,2.0597,Andesite_rect,9,0,9,0,1,
5769a352f48c3b00016737f9,SCR,2024-06-11_13h12.48.870,LearnStrategy,2023.2.3,Win32,59.88023952,5,2,11,,,,,,,,3,16,,,,,,,,,,,,,3,2.217,1,,,,,,0.08228652,-0.240028922,1,0,0,2.2169,Diorite_rect,10,0,10,0,1,
5769a352f48c3b00016737f9,SCR,2024-06-11_13h12.48.870,LearnStrategy,2023.2.3,Win32,59.88023952,5,2,12,,,,,,,,2,02,,,,,,,,,,,,,4,5.085,0,,,,,,0.380520988,-0.240028922,1,0,0,5.0849,Gabbro_rect,11,0,11,0,1,
5769a352f48c3b00016737f9,SCR,2024-06-11_13h12.48.870,LearnStrategy,2023.2.3,Win32,59.88023952,5,2,13,,,,,,,,5,14,,,,,,,,,,,,,5,1.372,1,,,,,,-0.320607827,-0.406743846,1,0,0,1.372,Obsidian_rect,12,0,12,0,1,
5769a352f48c3b00016737f9,SCR,2024-06-11_13h12.48.870,LearnStrategy,2023.2.3,Win32,59.88023952,5,2,14,,,,,,,,8,03,,,,,,,,,,,,,8,1.396,1,,,,,,0.34903038,-0.399334302,1,0,0,1.3956,Pumice_rect,13,0,13,0,1,
5769a352f48c3b00016737f9,SCR,2024-06-11_13h12.48.870,LearnStrategy,2023.2.3,Win32,59.88023952,5,2,15,,,,,,,,1,07,,,,,,,,,,,,,3,1.547,0,,,,,,0.173979697,-0.256700441,1,0,0,1.5469,Diorite_rect,14,0,14,0,1,
5769a352f48c3b00016737f9,SCR,2024-06-11_13h12.48.870,LearnStrategy,2023.2.3,Win32,59.88023952,5,2,16,,,,,,,,7,12,,,,,,,,,,,,,6,1.816,0,,,,,,-0.135369087,-0.396555656,1,0,0,1.816,Pegmatite_rect,15,0,15,0,1,
5769a352f48c3b00016737f9,SCR,2024-06-11_13h12.48.870,LearnStrategy,2023.2.3,Win32,59.88023952,6,1,1,-0.369696169,-0.407670061,1,0,0,2.5476,Diorite_02,3,02,1,2,2.548,4,16,0.11099857,-0.261331428,1,0,0,2.4035,Diorite_rect,3,2.404,1,0,0,0,0,1,,,,,,,,,,,,,
5769a352f48c3b00016737f9,SCR,2024-06-11_13h12.48.870,LearnStrategy,2023.2.3,Win32,59.88023952,6,1,2,-0.530853846,-0.403965289,1,0,0,1.496,Diorite_11,3,11,1,1,1.496,6,05,0.100810381,-0.240955137,1,0,0,1.1691,Diorite_rect,3,1.169,1,1,0,1,0,1,,,,,,,,,,,,,
5769a352f48c3b00016737f9,SCR,2024-06-11_13h12.48.870,LearnStrategy,2023.2.3,Win32,59.88023952,6,1,3,0.098031824,-0.068683056,1,0,0,1.2479,Diorite_08,3,08,3,5,1.248,3,11,0.093400837,-0.230766992,1,0,0,1.4735,Diorite_rect,3,1.474,1,2,0,2,0,1,,,,,,,,,,,,,
5769a352f48c3b00016737f9,SCR,2024-06-11_13h12.48.870,LearnStrategy,2023.2.3,Win32,59.88023952,6,1,4,-0.385441384,-0.101099834,1,0,0,2.5048,Andesite_09,1,09,3,2,2.505,1,09,0.399044848,-0.245586125,1,0,0,2.7346,Gabbro_rect,4,2.735,0,3,0,3,0,1,,,,,,,,,,,,,
5769a352f48c3b00016737f9,SCR,2024-06-11_13h12.48.870,LearnStrategy,2023.2.3,Win32,59.88023952,6,1,5,-0.378958055,-0.084428359,1,0,0,1.8955,Andesite_09,1,09,3,2,1.896,7,16,-0.388219985,-0.259478998,1,0,0,1.2357,Andesite_rect,1,1.236,1,4,0,4,0,1,,,,,,,,,,,,,
5769a352f48c3b00016737f9,SCR,2024-06-11_13h12.48.870,LearnStrategy,2023.2.3,Win32,59.88023952,6,1,6,-0.518813314,-0.072387828,1,0,0,1.3513,Basalt_05,2,05,3,1,1.351,1,16,0.397192595,-0.243733695,1,0,0,2.0344,Gabbro_rect,4,2.034,0,5,0,5,0,1,,,,,,,,,,,,,
5769a352f48c3b00016737f9,SCR,2024-06-11_13h12.48.870,LearnStrategy,2023.2.3,Win32,59.88023952,6,1,7,-0.545672912,0.128596216,1,0,0,2.3047,Gabbro_10,4,10,4,1,2.305,7,16,-0.160376233,-0.261331428,1,0,0,2.4761,Basalt_rect,2,2.476,0,6,0,6,0,1,,,,,,,,,,,,,
5769a352f48c3b00016737f9,SCR,2024-06-11_13h12.48.870,LearnStrategy,2023.2.3,Win32,59.88023952,6,1,8,-0.505846611,-0.122402296,1,0,0,1.919,Basalt_05,2,05,3,1,1.919,2,10,-0.139073859,-0.23632415,1,0,0,2.1272,Basalt_rect,2,2.127,1,7,0,7,0,1,,,,,,,,,,,,,
5769a352f48c3b00016737f9,SCR,2024-06-11_13h12.48.870,LearnStrategy,2023.2.3,Win32,59.88023952,6,1,9,-0.542894355,0.086917507,1,0,0,1.6866,Gabbro_10,4,10,4,1,1.687,2,05,0.374037747,-0.248364682,1,0,0,1.2338,Gabbro_rect,4,1.234,1,8,0,8,0,1,,,,,,,,,,,,,
5769a352f48c3b00016737f9,SCR,2024-06-11_13h12.48.870,LearnStrategy,2023.2.3,Win32,59.88023952,6,1,10,0.218437051,0.093400881,1,0,0,1.8305,Andesite_10,1,10,4,6,1.831,4,14,0.313835089,-0.245586125,1,0,0,6.2385,Gabbro_rect,4,6.238,0,9,0,9,0,1,,,,,,,,,,,,,
5769a352f48c3b00016737f9,SCR,2024-06-11_13h12.48.870,LearnStrategy,2023.2.3,Win32,59.88023952,6,1,11,0.506483329,0.080434178,1,0,0,1.7742,Peridotite_06,7,06,4,8,1.774,4,14,0.138784317,-0.398408087,1,0,0,1.8361,Peridotite_rect,7,1.836,1,10,0,10,0,1,,,,,,,,,,,,,
5769a352f48c3b00016737f9,SCR,2024-06-11_13h12.48.870,LearnStrategy,2023.2.3,Win32,59.88023952,6,1,12,0.399044848,0.087843722,1,0,0,1.2879,Peridotite_05,7,05,4,7,1.288,6,05,-0.137221341,-0.386367643,1,0,0,1.7746,Pegmatite_rect,6,1.775,0,11,0,11,0,1,,,,,,,,,,,,,
5769a352f48c3b00016737f9,SCR,2024-06-11_13h12.48.870,LearnStrategy,2023.2.3,Win32,59.88023952,6,1,13,0.234182355,0.243444285,1,0,0,2.4088,Gabbro_08,4,08,5,6,2.409,8,08,0.337916064,-0.232619378,1,0,0,1.9637,Gabbro_rect,4,1.964,1,12,0,12,0,1,,,,,,,,,,,,,
5769a352f48c3b00016737f9,SCR,2024-06-11_13h12.48.870,LearnStrategy,2023.2.3,Win32,59.88023952,6,1,14,-0.06683067,0.219363244,1,0,0,1.0312,Andesite_04,1,04,5,4,1.031,2,04,0.137858191,-0.264109986,1,0,0,1.6806,Diorite_rect,3,1.681,0,13,0,13,0,1,,,,,,,,,,,,,
5769a352f48c3b00016737f9,SCR,2024-06-11_13h12.48.870,LearnStrategy,2023.2.3,Win32,59.88023952,6,1,15,-0.385441384,0.230477583,1,0,0,7.2723,Diorite_12,3,12,5,2,7.272,1,10,0.111924697,-0.26318377,1,0,0,3.0274,Diorite_rect,3,3.027,1,14,0,14,0,1,,,,,,,,,,,,,
5769a352f48c3b00016737f9,SCR,2024-06-11_13h12.48.870,LearnStrategy,2023.2.3,Win32,59.88023952,6,1,16,0.226772811,-0.409522491,1,0,0,1.9549,Peridotite_14,7,14,1,6,1.955,7,15,0.129522431,-0.390998631,1,0,0,2.9635,Peridotite_rect,7,2.964,1,15,0,15,0,1,,,,,,,,,,,,,
5769a352f48c3b00016737f9,SCR,2024-06-11_13h12.48.870,LearnStrategy,2023.2.3,Win32,59.88023952,6,2,1,,,,,,,,8,15,,,,,,,,,,,,,8,1.897,1,,,,,,0.369406759,-0.394703314,1,0,0,1.8973,Pumice_rect,0,0,0,0,1,
5769a352f48c3b00016737f9,SCR,2024-06-11_13h12.48.870,LearnStrategy,2023.2.3,Win32,59.88023952,6,2,2,,,,,,,,2,01,,,,,,,,,,,,,2,2.462,1,,,,,,-0.095542632,-0.242807568,1,0,0,2.4618,Basalt_rect,1,0,1,0,1,
5769a352f48c3b00016737f9,SCR,2024-06-11_13h12.48.870,LearnStrategy,2023.2.3,Win32,59.88023952,6,2,3,,,,,,,,7,04,,,,,,,,,,,,,7,2.753,1,,,,,,0.106367583,-0.390072239,1,0,0,2.7529,Peridotite_rect,2,0,2,0,1,
5769a352f48c3b00016737f9,SCR,2024-06-11_13h12.48.870,LearnStrategy,2023.2.3,Win32,59.88023952,6,2,4,,,,,,,,2,12,,,,,,,,,,,,,8,2.616,0,,,,,,0.369406759,-0.391924757,1,0,0,2.6162,Pumice_rect,3,0,3,0,1,
5769a352f48c3b00016737f9,SCR,2024-06-11_13h12.48.870,LearnStrategy,2023.2.3,Win32,59.88023952,6,2,5,,,,,,,,6,12,,,,,,,,,,,,,5,2.714,0,,,,,,-0.398408131,-0.405817631,1,0,0,2.7137,Obsidian_rect,4,0,4,0,1,
5769a352f48c3b00016737f9,SCR,2024-06-11_13h12.48.870,LearnStrategy,2023.2.3,Win32,59.88023952,6,2,6,,,,,,,,8,10,,,,,,,,,,,,,8,1.281,1,,,,,,0.37589,-0.413227087,1,0,0,1.2813,Pumice_rect,5,0,5,0,1,
5769a352f48c3b00016737f9,SCR,2024-06-11_13h12.48.870,LearnStrategy,2023.2.3,Win32,59.88023952,6,2,7,,,,,,,,3,15,,,,,,,,,,,,,3,1.753,1,,,,,,0.129522431,-0.24465991,1,0,0,1.7527,Diorite_rect,6,0,6,0,1,
5769a352f48c3b00016737f9,SCR,2024-06-11_13h12.48.870,LearnStrategy,2023.2.3,Win32,59.88023952,6,2,8,,,,,,,,1,05,,,,,,,,,,,,,1,3.323,1,,,,,,-0.348393707,-0.247438555,1,0,0,3.3231,Andesite_rect,7,0,7,0,1,
5769a352f48c3b00016737f9,SCR,2024-06-11_13h12.48.870,LearnStrategy,2023.2.3,Win32,59.88023952,6,2,9,,,,,,,,5,05,,,,,,,,,,,,,5,2.593,1,,,,,,-0.351172219,-0.378031796,1,0,0,2.5935,Obsidian_rect,8,0,8,0,1,
5769a352f48c3b00016737f9,SCR,2024-06-11_13h12.48.870,LearnStrategy,2023.2.3,Win32,59.88023952,6,2,10,,,,,,,,1,14,,,,,,,,,,,,,3,3.287,0,,,,,,0.136931976,-0.261331428,1,0,0,3.2874,Diorite_rect,9,0,9,0,1,
5769a352f48c3b00016737f9,SCR,2024-06-11_13h12.48.870,LearnStrategy,2023.2.3,Win32,59.88023952,6,2,11,,,,,,,,7,10,,,,,,,,,,,,,6,1.881,0,,,,,,-0.102952264,-0.386367643,1,0,0,1.8809,Pegmatite_rect,10,0,10,0,1,
5769a352f48c3b00016737f9,SCR,2024-06-11_13h12.48.870,LearnStrategy,2023.2.3,Win32,59.88023952,6,2,12,,,,,,,,4,01,,,,,,,,,,,,,6,1.225,0,,,,,,-0.102952264,-0.386367643,1,0,0,1.2253,Pegmatite_rect,11,0,11,0,1,
5769a352f48c3b00016737f9,SCR,2024-06-11_13h12.48.870,LearnStrategy,2023.2.3,Win32,59.88023952,6,2,13,,,,,,,,3,14,,,,,,,,,,,,,3,3.459,1,,,,,,0.148046292,-0.251143239,1,0,0,3.4588,Diorite_rect,12,0,12,0,1,
5769a352f48c3b00016737f9,SCR,2024-06-11_13h12.48.870,LearnStrategy,2023.2.3,Win32,59.88023952,6,2,14,,,,,,,,5,10,,,,,,,,,,,,,5,1.24,1,,,,,,-0.377105669,-0.413227087,1,0,0,1.2401,Obsidian_rect,13,0,13,0,1,
5769a352f48c3b00016737f9,SCR,2024-06-11_13h12.48.870,LearnStrategy,2023.2.3,Win32,59.88023952,6,2,15,,,,,,,,4,12,,,,,,,,,,,,,4,3.195,1,,,,,,0.366628026,-0.233545637,1,0,0,3.1953,Gabbro_rect,14,0,14,0,1,
5769a352f48c3b00016737f9,SCR,2024-06-11_13h12.48.870,LearnStrategy,2023.2.3,Win32,59.88023952,6,2,16,,,,,,,,6,13,,,,,,,,,,,,,6,4.907,1,,,,,,-0.105730821,-0.389146112,1,0,0,4.9068,Pegmatite_rect,15,0,15,0,1,
5769a352f48c3b00016737f9,SCR,2024-06-11_13h12.48.870,LearnStrategy,2023.2.3,Win32,59.88023952,7,1,1,0.381447026,-0.393777099,1,0,0,1.4482,Pegmatite_09,6,09,1,7,1.448,4,16,0.172127355,-0.406743846,1,0,0,1.6392,Peridotite_rect,7,1.639,0,0,0,0,0,1,,,,,,,,,,,,,
5769a352f48c3b00016737f9,SCR,2024-06-11_13h12.48.870,LearnStrategy,2023.2.3,Win32,59.88023952,7,1,2,0.407380608,-0.397481871,1,0,0,1.0183,Pegmatite_09,6,09,1,7,1.018,1,16,-0.105730821,-0.391924757,1,0,0,1.6186,Pegmatite_rect,6,1.619,1,1,0,1,0,1,,,,,,,,,,,,,
5769a352f48c3b00016737f9,SCR,2024-06-11_13h12.48.870,LearnStrategy,2023.2.3,Win32,59.88023952,7,1,3,0.223994165,-0.433603466,1,0,0,0.9249,Peridotite_14,7,14,1,6,0.925,2,05,0.363849469,-0.24465991,1,0,0,6.2966,Gabbro_rect,4,6.297,0,2,0,2,0,1,,,,,,,,,,,,,
5769a352f48c3b00016737f9,SCR,2024-06-11_13h12.48.870,LearnStrategy,2023.2.3,Win32,59.88023952,7,1,4,0.214732279,-0.428972479,1,0,0,0.9464,Peridotite_14,7,14,1,6,0.946,7,06,0.193429773,-0.393777099,1,0,0,1.7465,Peridotite_rect,7,1.746,1,3,0,3,0,1,,,,,,,,,,,,,
5769a352f48c3b00016737f9,SCR,2024-06-11_13h12.48.870,LearnStrategy,2023.2.3,Win32,59.88023952,7,1,5,-0.214095517,-0.240955137,1,0,0,2.0311,Basalt_10,2,10,2,3,2.031,7,14,-0.205759846,-0.230766992,1,0,0,0.9251,Basalt_rect,2,0.925,1,4,0,4,0,1,,,,,,,,,,,,,
5769a352f48c3b00016737f9,SCR,2024-06-11_13h12.48.870,LearnStrategy,2023.2.3,Win32,59.88023952,7,1,6,-0.383588998,0.08413895,1,0,0,2.0372,Peridotite_16,7,16,4,2,2.037,4,14,-0.106657036,-0.389146112,1,0,0,2.7186,Pegmatite_rect,6,2.719,0,5,0,5,0,1,,,,,,,,,,,,,
5769a352f48c3b00016737f9,SCR,2024-06-11_13h12.48.870,LearnStrategy,2023.2.3,Win32,59.88023952,7,1,7,-0.541041947,0.098031868,1,0,0,1.8159,Gabbro_10,4,10,4,1,1.816,5,04,0.429609329,-0.2696671,1,0,0,1.6231,Gabbro_rect,4,1.623,1,6,0,6,0,1,,,,,,,,,,,,,
5769a352f48c3b00016737f9,SCR,2024-06-11_13h12.48.870,LearnStrategy,2023.2.3,Win32,59.88023952,7,1,8,-0.195571657,0.077655533,1,0,0,0.9213,Pumice_09,8,09,4,3,0.921,2,09,0.38237333,-0.395629529,1,0,0,1.0986,Pumice_rect,8,1.099,1,7,0,7,0,1,,,,,,,,,,,,,
5769a352f48c3b00016737f9,SCR,2024-06-11_13h12.48.870,LearnStrategy,2023.2.3,Win32,59.88023952,7,1,9,-0.048306809,0.075803191,1,0,0,0.9055,Basalt_09,2,09,4,4,0.906,4,14,-0.089985518,-0.240955137,1,0,0,1.1209,Basalt_rect,2,1.121,1,8,0,8,0,1,,,,,,,,,,,,,
5769a352f48c3b00016737f9,SCR,2024-06-11_13h12.48.870,LearnStrategy,2023.2.3,Win32,59.88023952,7,1,10,0.090622279,0.078581792,1,0,0,0.7544,Obsidian_04,5,04,4,5,0.754,7,15,-0.357655593,-0.399334302,1,0,0,1.0054,Obsidian_rect,5,1.005,1,9,0,9,0,1,,,,,,,,,,,,,
5769a352f48c3b00016737f9,SCR,2024-06-11_13h12.48.870,LearnStrategy,2023.2.3,Win32,59.88023952,7,1,11,0.229551368,0.088769893,1,0,0,0.8505,Andesite_10,1,10,4,6,0.851,6,07,0.408306646,-0.264109986,1,0,0,4.247,Gabbro_rect,4,4.247,0,10,0,10,0,1,,,,,,,,,,,,,
5769a352f48c3b00016737f9,SCR,2024-06-11_13h12.48.870,LearnStrategy,2023.2.3,Win32,59.88023952,7,1,12,0.243444241,0.05727933,1,0,0,1.2355,Andesite_10,1,10,4,6,1.236,6,11,-0.318755441,-0.247438555,1,0,0,2.2573,Andesite_rect,1,2.257,1,11,0,11,0,1,,,,,,,,,,,,,
5769a352f48c3b00016737f9,SCR,2024-06-11_13h12.48.870,LearnStrategy,2023.2.3,Win32,59.88023952,7,1,13,-0.220578891,0.255484817,1,0,0,1.331,Pegmatite_16,6,16,5,3,1.331,8,13,-0.127033327,-0.396555656,1,0,0,2.6114,Pegmatite_rect,6,2.611,1,12,0,12,0,1,,,,,,,,,,,,,
5769a352f48c3b00016737f9,SCR,2024-06-11_13h12.48.870,LearnStrategy,2023.2.3,Win32,59.88023952,7,1,14,-0.380810441,0.261968168,1,0,0,1.9538,Diorite_12,3,12,5,2,1.954,1,06,0.111924697,-0.231693119,1,0,0,1.4583,Diorite_rect,3,1.458,1,13,0,13,0,1,,,,,,,,,,,,,
5769a352f48c3b00016737f9,SCR,2024-06-11_13h12.48.870,LearnStrategy,2023.2.3,Win32,59.88023952,7,1,15,-0.05849491,0.263820554,1,0,0,1.8143,Andesite_04,1,04,5,4,1.814,6,16,-0.363212751,-0.240028922,1,0,0,2.0207,Andesite_rect,1,2.021,1,14,0,14,0,1,,,,,,,,,,,,,
5769a352f48c3b00016737f9,SCR,2024-06-11_13h12.48.870,LearnStrategy,2023.2.3,Win32,59.88023952,7,1,16,0.262894317,0.081360349,1,0,0,1.9701,Andesite_10,1,10,4,6,1.97,3,02,0.391635304,-0.240955137,1,0,0,1.5729,Gabbro_rect,4,1.573,0,15,0,15,0,1,,,,,,,,,,,,,
5769a352f48c3b00016737f9,SCR,2024-06-11_13h12.48.870,LearnStrategy,2023.2.3,Win32,59.88023952,7,2,1,,,,,,,,6,06,,,,,,,,,,,,,6,1.826,1,,,,,,-0.113140366,-0.398408087,1,0,0,1.826,Pegmatite_rect,0,0,0,0,1,
5769a352f48c3b00016737f9,SCR,2024-06-11_13h12.48.870,LearnStrategy,2023.2.3,Win32,59.88023952,7,2,2,,,,,,,,1,11,,,,,,,,,,,,,4,4.004,0,,,,,,0.399044848,-0.2696671,1,0,0,4.0042,Gabbro_rect,1,0,1,0,1,
5769a352f48c3b00016737f9,SCR,2024-06-11_13h12.48.870,LearnStrategy,2023.2.3,Win32,59.88023952,7,2,3,,,,,,,,3,15,,,,,,,,,,,,,3,1.259,1,,,,,,0.106367583,-0.240955137,1,0,0,1.2592,Diorite_rect,2,0,2,0,1,
5769a352f48c3b00016737f9,SCR,2024-06-11_13h12.48.870,LearnStrategy,2023.2.3,Win32,59.88023952,7,2,4,,,,,,,,1,01,,,,,,,,,,,,,3,1.037,0,,,,,,0.106367583,-0.240955137,1,0,0,1.0367,Diorite_rect,3,0,3,0,1,
5769a352f48c3b00016737f9,SCR,2024-06-11_13h12.48.870,LearnStrategy,2023.2.3,Win32,59.88023952,7,2,5,,,,,,,,5,09,,,,,,,,,,,,,5,1.407,1,,,,,,-0.344688934,-0.399334302,1,0,0,1.4067,Obsidian_rect,4,0,4,0,1,
5769a352f48c3b00016737f9,SCR,2024-06-11_13h12.48.870,LearnStrategy,2023.2.3,Win32,59.88023952,7,2,6,,,,,,,,2,11,,,,,,,,,,,,,8,1.34,0,,,,,,0.383299633,-0.390998631,1,0,0,1.3404,Pumice_rect,5,0,5,0,1,
5769a352f48c3b00016737f9,SCR,2024-06-11_13h12.48.870,LearnStrategy,2023.2.3,Win32,59.88023952,7,2,7,,,,,,,,4,09,,,,,,,,,,,,,5,3.853,0,,,,,,-0.332648359,-0.391924757,1,0,0,3.8535,Obsidian_rect,6,0,6,0,1,
5769a352f48c3b00016737f9,SCR,2024-06-11_13h12.48.870,LearnStrategy,2023.2.3,Win32,59.88023952,7,2,8,,,,,,,,8,10,,,,,,,,,,,,,8,1.178,1,,,,,,0.419421139,-0.393777099,1,0,0,1.1777,Pumice_rect,7,0,7,0,1,
5769a352f48c3b00016737f9,SCR,2024-06-11_13h12.48.870,LearnStrategy,2023.2.3,Win32,59.88023952,7,2,9,,,,,,,,4,05,,,,,,,,,,,,,6,2.014,0,,,,,,-0.043675822,-0.399334302,1,0,0,2.0142,Pegmatite_rect,8,0,8,0,1,
5769a352f48c3b00016737f9,SCR,2024-06-11_13h12.48.870,LearnStrategy,2023.2.3,Win32,59.88023952,7,2,10,,,,,,,,7,07,,,,,,,,,,,,,7,1.165,1,,,,,,0.124891444,-0.401186644,1,0,0,1.165,Peridotite_rect,9,0,9,0,1,
5769a352f48c3b00016737f9,SCR,2024-06-11_13h12.48.870,LearnStrategy,2023.2.3,Win32,59.88023952,7,2,11,,,,,,,,3,07,,,,,,,,,,,,,1,4.16,0,,,,,,-0.307641125,-0.256700441,1,0,0,4.1604,Andesite_rect,10,0,10,0,1,
5769a352f48c3b00016737f9,SCR,2024-06-11_13h12.48.870,LearnStrategy,2023.2.3,Win32,59.88023952,7,2,12,,,,,,,,6,08,,,,,,,,,,,,,6,1.871,1,,,,,,-0.157597764,-0.379884226,1,0,0,1.8708,Pegmatite_rect,11,0,11,0,1,
5769a352f48c3b00016737f9,SCR,2024-06-11_13h12.48.870,LearnStrategy,2023.2.3,Win32,59.88023952,7,2,13,,,,,,,,5,05,,,,,,,,,,,,,5,1.235,1,,,,,,-0.34283646,-0.389146112,1,0,0,1.2346,Obsidian_rect,12,0,12,0,1,
5769a352f48c3b00016737f9,SCR,2024-06-11_13h12.48.870,LearnStrategy,2023.2.3,Win32,59.88023952,7,2,14,,,,,,,,2,02,,,,,,,,,,,,,4,2.599,0,,,,,,0.412937722,-0.253921796,1,0,0,2.5993,Gabbro_rect,13,0,13,0,1,
5769a352f48c3b00016737f9,SCR,2024-06-11_13h12.48.870,LearnStrategy,2023.2.3,Win32,59.88023952,7,2,15,,,,,,,,8,16,,,,,,,,,,,,,2,1.369,0,,,,,,-0.141852328,-0.262257555,1,0,0,1.3687,Basalt_rect,14,0,14,0,1,
5769a352f48c3b00016737f9,SCR,2024-06-11_13h12.48.870,LearnStrategy,2023.2.3,Win32,59.88023952,7,2,16,,,,,,,,7,08,,,,,,,,,,,,,6,4.407,0,,,,,,-0.099247492,-0.396555656,1,0,0,4.4069,Pegmatite_rect,15,0,15,0,1,
5769a352f48c3b00016737f9,SCR,2024-06-11_13h12.48.870,LearnStrategy,2023.2.3,Win32,59.88023952,8,1,1,0.225846596,0.093400881,1,0,0,1.2093,Andesite_10,1,10,4,6,1.209,4,10,0.137858191,-0.255774226,1,0,0,1.5057,Diorite_rect,3,1.506,0,0,0,0,0,1,,,,,,,,,,,,,
5769a352f48c3b00016737f9,SCR,2024-06-11_13h12.48.870,LearnStrategy,2023.2.3,Win32,59.88023952,8,1,2,0.239739469,0.069319818,1,0,0,0.8639,Andesite_10,1,10,4,6,0.864,8,06,-0.362286536,-0.247438555,1,0,0,4.6198,Andesite_rect,1,4.62,1,1,0,1,0,1,,,,,,,,,,,,,
5769a352f48c3b00016737f9,SCR,2024-06-11_13h12.48.870,LearnStrategy,2023.2.3,Win32,59.88023952,8,1,3,-0.064978328,0.251780067,1,0,0,1.0044,Andesite_04,1,04,5,4,1.004,4,14,-0.371548555,-0.252995669,1,0,0,0.871,Andesite_rect,1,0.871,1,2,0,2,0,1,,,,,,,,,,,,,
5769a352f48c3b00016737f9,SCR,2024-06-11_13h12.48.870,LearnStrategy,2023.2.3,Win32,59.88023952,8,1,4,-0.083502188,0.223068016,1,0,0,1.665,Andesite_04,1,04,5,4,1.665,1,16,-0.383588998,-0.243733695,1,0,0,1.9697,Andesite_rect,1,1.97,1,3,0,3,0,1,,,,,,,,,,,,,
5769a352f48c3b00016737f9,SCR,2024-06-11_13h12.48.870,LearnStrategy,2023.2.3,Win32,59.88023952,8,1,5,0.243444241,0.086917507,1,0,0,1.0702,Andesite_10,1,10,4,6,1.07,4,03,0.360144785,-0.252995669,1,0,0,2.8132,Gabbro_rect,4,2.813,0,4,0,4,0,1,,,,,,,,,,,,,
5769a352f48c3b00016737f9,SCR,2024-06-11_13h12.48.870,LearnStrategy,2023.2.3,Win32,59.88023952,8,1,6,0.267525304,0.103589026,1,0,0,1.3628,Andesite_10,1,10,4,6,1.363,2,06,-0.340057903,-0.24465991,1,0,0,1.78,Andesite_rect,1,1.78,1,5,0,5,0,1,,,,,,,,,,,,,
5769a352f48c3b00016737f9,SCR,2024-06-11_13h12.48.870,LearnStrategy,2023.2.3,Win32,59.88023952,8,1,7,-0.534558618,0.079507963,1,0,0,3.0719,Gabbro_10,4,10,4,1,3.072,7,02,-0.082575973,-0.241881353,1,0,0,3.1376,Basalt_rect,2,3.138,0,6,0,6,0,1,,,,,,,,,,,,,
5769a352f48c3b00016737f9,SCR,2024-06-11_13h12.48.870,LearnStrategy,2023.2.3,Win32,59.88023952,8,1,8,0.515745304,0.087843722,1,0,0,1.4331,Peridotite_06,7,06,4,8,1.433,2,14,-0.117771353,-0.405817631,1,0,0,1.3668,Pegmatite_rect,6,1.367,0,7,0,7,0,1,,,,,,,,,,,,,
5769a352f48c3b00016737f9,SCR,2024-06-11_13h12.48.870,LearnStrategy,2023.2.3,Win32,59.88023952,8,1,9,0.510188101,0.088769893,1,0,0,0.9497,Peridotite_06,7,06,4,8,0.95,3,09,0.105441368,-0.395629529,1,0,0,2.2563,Peridotite_rect,7,2.256,1,8,0,8,0,1,,,,,,,,,,,,,
5769a352f48c3b00016737f9,SCR,2024-06-11_13h12.48.870,LearnStrategy,2023.2.3,Win32,59.88023952,8,1,10,-0.205759846,-0.102026049,1,0,0,4.0768,Andesite_02,1,02,3,3,4.077,6,11,0.423125912,-0.411374833,1,0,0,0.8015,Pumice_rect,8,0.802,0,9,0,9,0,1,,,,,,,,,,,,,
5769a352f48c3b00016737f9,SCR,2024-06-11_13h12.48.870,LearnStrategy,2023.2.3,Win32,59.88023952,8,1,11,-0.212243131,-0.08535453,1,0,0,0.9711,Andesite_02,1,02,3,3,0.971,5,11,-0.393777143,-0.258552783,1,0,0,1.8549,Andesite_rect,1,1.855,1,10,0,10,0,1,,,,,,,,,,,,,
5769a352f48c3b00016737f9,SCR,2024-06-11_13h12.48.870,LearnStrategy,2023.2.3,Win32,59.88023952,8,1,12,0.090622279,-0.403965289,1,0,0,3.0571,Pegmatite_11,6,11,1,5,3.057,7,05,0.090622279,-0.403965289,1,0,0,1.349,Peridotite_rect,7,1.349,0,11,0,11,0,1,,,,,,,,,,,,,
5769a352f48c3b00016737f9,SCR,2024-06-11_13h12.48.870,LearnStrategy,2023.2.3,Win32,59.88023952,8,1,13,0.078581748,-0.427120137,1,0,0,0.7893,Pegmatite_11,6,11,1,5,0.789,2,14,-0.088133176,-0.403039074,1,0,0,0.6304,Pegmatite_rect,6,0.63,1,12,0,12,0,1,,,,,,,,,,,,,
5769a352f48c3b00016737f9,SCR,2024-06-11_13h12.48.870,LearnStrategy,2023.2.3,Win32,59.88023952,8,1,14,0.074876976,-0.416005732,1,0,0,0.9534,Pegmatite_11,6,11,1,5,0.953,3,08,-0.099247492,-0.416931947,1,0,0,0.7729,Pegmatite_rect,6,0.773,1,13,0,13,0,1,,,,,,,,,,,,,
5769a352f48c3b00016737f9,SCR,2024-06-11_13h12.48.870,LearnStrategy,2023.2.3,Win32,59.88023952,8,1,15,0.065615001,-0.416005732,1,0,0,0.9802,Pegmatite_11,6,11,1,5,0.98,1,10,-0.101099834,-0.402112859,1,0,0,0.7819,Pegmatite_rect,6,0.782,1,14,0,14,0,1,,,,,,,,,,,,,
5769a352f48c3b00016737f9,SCR,2024-06-11_13h12.48.870,LearnStrategy,2023.2.3,Win32,59.88023952,8,1,16,-0.106657036,-0.06590441,1,0,0,2.2329,Peridotite_15,7,15,3,4,2.233,6,11,0.102662811,-0.386367643,1,0,0,2.2303,Peridotite_rect,7,2.23,1,15,0,15,0,1,,,,,,,,,,,,,
5769a352f48c3b00016737f9,SCR,2024-06-11_13h12.48.870,LearnStrategy,2023.2.3,Win32,59.88023952,8,2,1,,,,,,,,3,14,,,,,,,,,,,,,3,1.586,1,,,,,,0.119334242,-0.238176536,1,0,0,1.5861,Diorite_rect,0,0,0,0,1,
5769a352f48c3b00016737f9,SCR,2024-06-11_13h12.48.870,LearnStrategy,2023.2.3,Win32,59.88023952,8,2,2,,,,,,,,2,01,,,,,,,,,,,,,2,1.32,1,,,,,,-0.079797416,-0.23632415,1,0,0,1.3199,Basalt_rect,1,0,1,0,1,
5769a352f48c3b00016737f9,SCR,2024-06-11_13h12.48.870,LearnStrategy,2023.2.3,Win32,59.88023952,8,2,3,,,,,,,,1,07,,,,,,,,,,,,,3,1.066,0,,,,,,0.086917507,-0.240028922,1,0,0,1.0659,Diorite_rect,2,0,2,0,1,
5769a352f48c3b00016737f9,SCR,2024-06-11_13h12.48.870,LearnStrategy,2023.2.3,Win32,59.88023952,8,2,4,,,,,,,,6,13,,,,,,,,,,,,,4,3.813,0,,,,,,0.321244545,-0.240028922,1,0,0,3.8129,Gabbro_rect,3,0,3,0,1,
5769a352f48c3b00016737f9,SCR,2024-06-11_13h12.48.870,LearnStrategy,2023.2.3,Win32,59.88023952,8,2,5,,,,,,,,4,15,,,,,,,,,,,,,3,1.587,0,,,,,,0.123038925,-0.24465991,1,0,0,1.5872,Diorite_rect,4,0,4,0,1,
5769a352f48c3b00016737f9,SCR,2024-06-11_13h12.48.870,LearnStrategy,2023.2.3,Win32,59.88023952,8,2,6,,,,,,,,5,08,,,,,,,,,,,,,5,1.181,1,,,,,,-0.421562979,-0.400260428,1,0,0,1.1811,Obsidian_rect,5,0,5,0,1,
5769a352f48c3b00016737f9,SCR,2024-06-11_13h12.48.870,LearnStrategy,2023.2.3,Win32,59.88023952,8,2,7,,,,,,,,8,02,,,,,,,,,,,,,8,1.432,1,,,,,,0.333285076,-0.388219985,1,0,0,1.4317,Pumice_rect,6,0,6,0,1,
5769a352f48c3b00016737f9,SCR,2024-06-11_13h12.48.870,LearnStrategy,2023.2.3,Win32,59.88023952,8,2,8,,,,,,,,8,03,,,,,,,,,,,,,8,0.824,1,,,,,,0.334211292,-0.388219985,1,0,0,0.8242,Pumice_rect,7,0,7,0,1,
5769a352f48c3b00016737f9,SCR,2024-06-11_13h12.48.870,LearnStrategy,2023.2.3,Win32,59.88023952,8,2,9,,,,,,,,1,05,,,,,,,,,,,,,3,2.451,0,,,,,,0.164717811,-0.252995669,1,0,0,2.4513,Diorite_rect,8,0,8,0,1,
5769a352f48c3b00016737f9,SCR,2024-06-11_13h12.48.870,LearnStrategy,2023.2.3,Win32,59.88023952,8,2,10,,,,,,,,5,10,,,,,,,,,,,,,5,1.957,1,,,,,,-0.358581764,-0.407670061,1,0,0,1.9574,Obsidian_rect,9,0,9,0,1,
5769a352f48c3b00016737f9,SCR,2024-06-11_13h12.48.870,LearnStrategy,2023.2.3,Win32,59.88023952,8,2,11,,,,,,,,4,01,,,,,,,,,,,,,6,1.619,0,,,,,,-0.168712036,-0.390998631,1,0,0,1.6189,Pegmatite_rect,10,0,10,0,1,
5769a352f48c3b00016737f9,SCR,2024-06-11_13h12.48.870,LearnStrategy,2023.2.3,Win32,59.88023952,8,2,12,,,,,,,,7,10,,,,,,,,,,,,,7,1.187,1,,,,,,0.070245988,-0.38544134,1,0,0,1.1865,Peridotite_rect,11,0,11,0,1,
5769a352f48c3b00016737f9,SCR,2024-06-11_13h12.48.870,LearnStrategy,2023.2.3,Win32,59.88023952,8,2,13,,,,,,,,2,08,,,,,,,,,,,,,2,1.395,1,,,,,,-0.113140366,-0.230766992,1,0,0,1.3945,Basalt_rect,12,0,12,0,1,
5769a352f48c3b00016737f9,SCR,2024-06-11_13h12.48.870,LearnStrategy,2023.2.3,Win32,59.88023952,8,2,14,,,,,,,,7,12,,,,,,,,,,,,,3,2.93,0,,,,,,0.125817659,-0.26318377,1,0,0,2.9299,Diorite_rect,13,0,13,0,1,
5769a352f48c3b00016737f9,SCR,2024-06-11_13h12.48.870,LearnStrategy,2023.2.3,Win32,59.88023952,8,2,15,,,,,,,,6,12,,,,,,,,,,,,,4,1.617,0,,,,,,0.374963785,-0.262257555,1,0,0,1.6173,Gabbro_rect,14,0,14,0,1,
5769a352f48c3b00016737f9,SCR,2024-06-11_13h12.48.870,LearnStrategy,2023.2.3,Win32,59.88023952,8,2,16,,,,,,,,3,16,,,,,,,,,,,,,3,2.474,1,,,,,,0.140636748,-0.266888543,1,0,0,2.4737,Diorite_rect,15,0,15,0,1,
5769a352f48c3b00016737f9,SCR,2024-06-11_13h12.48.870,LearnStrategy,2023.2.3,Win32,59.88023952,9,1,1,-0.545672912,0.10173664,1,0,0,0.9873,Gabbro_10,4,10,4,1,0.987,1,09,0.432387798,-0.265036201,1,0,0,2.941,Gabbro_rect,4,2.941,1,0,0,0,0,1,,,,,,,,,,,,,
5769a352f48c3b00016737f9,SCR,2024-06-11_13h12.48.870,LearnStrategy,2023.2.3,Win32,59.88023952,9,1,2,-0.390072371,0.07487702,1,0,0,0.8316,Peridotite_16,7,16,4,2,0.832,3,08,0.079507963,-0.401186644,1,0,0,2.6799,Peridotite_rect,7,2.68,1,1,0,1,0,1,,,,,,,,,,,,,
5769a352f48c3b00016737f9,SCR,2024-06-11_13h12.48.870,LearnStrategy,2023.2.3,Win32,59.88023952,9,1,3,-0.229840777,0.093400881,1,0,0,0.8501,Pumice_09,8,09,4,3,0.85,1,10,0.361070912,-0.383588998,1,0,0,1.0371,Pumice_rect,8,1.037,1,2,0,2,0,1,,,,,,,,,,,,,
5769a352f48c3b00016737f9,SCR,2024-06-11_13h12.48.870,LearnStrategy,2023.2.3,Win32,59.88023952,9,1,4,-0.050159239,0.080434178,1,0,0,0.6588,Basalt_09,2,09,4,4,0.659,8,04,-0.084428404,-0.252995669,1,0,0,1.0106,Basalt_rect,2,1.011,1,3,0,3,0,1,,,,,,,,,,,,,
5769a352f48c3b00016737f9,SCR,2024-06-11_13h12.48.870,LearnStrategy,2023.2.3,Win32,59.88023952,9,1,5,0.042460153,0.088769893,1,0,0,0.6266,Obsidian_04,5,04,4,5,0.627,6,07,-0.314124454,-0.391924757,1,0,0,2.146,Obsidian_rect,5,2.146,1,4,0,4,0,1,,,,,,,,,,,,,
5769a352f48c3b00016737f9,SCR,2024-06-11_13h12.48.870,LearnStrategy,2023.2.3,Win32,59.88023952,9,1,6,0.211027507,0.056353115,1,0,0,0.7757,Andesite_10,1,10,4,6,0.776,4,03,0.383299633,-0.241881353,1,0,0,1.561,Gabbro_rect,4,1.561,0,5,0,5,0,1,,,,,,,,,,,,,
5769a352f48c3b00016737f9,SCR,2024-06-11_13h12.48.870,LearnStrategy,2023.2.3,Win32,59.88023952,9,1,7,0.367554241,0.088769893,1,0,0,0.9432,Peridotite_05,7,05,4,7,0.943,4,03,-0.090911644,-0.407670061,1,0,0,1.9309,Pegmatite_rect,6,1.931,0,6,0,6,0,1,,,,,,,,,,,,,
5769a352f48c3b00016737f9,SCR,2024-06-11_13h12.48.870,LearnStrategy,2023.2.3,Win32,59.88023952,9,1,8,0.53519538,0.10173664,1,0,0,0.8997,Peridotite_06,7,06,4,8,0.9,2,09,0.130448646,-0.400260428,1,0,0,1.187,Peridotite_rect,7,1.187,1,7,0,7,0,1,,,,,,,,,,,,,
5769a352f48c3b00016737f9,SCR,2024-06-11_13h12.48.870,LearnStrategy,2023.2.3,Win32,59.88023952,9,1,9,0.585209848,0.240665706,1,0,0,0.8559,Andesite_06,1,06,5,8,0.856,7,02,0.127670001,-0.253921796,1,0,0,2.4818,Diorite_rect,3,2.482,0,8,0,8,0,1,,,,,,,,,,,,,
5769a352f48c3b00016737f9,SCR,2024-06-11_13h12.48.870,LearnStrategy,2023.2.3,Win32,59.88023952,9,1,10,0.354587406,0.248075251,1,0,0,0.8049,Basalt_04,2,04,5,7,0.805,2,14,-0.131664315,-0.241881353,1,0,0,1.1734,Basalt_rect,2,1.173,1,9,0,9,0,1,,,,,,,,,,,,,
5769a352f48c3b00016737f9,SCR,2024-06-11_13h12.48.870,LearnStrategy,2023.2.3,Win32,59.88023952,9,1,11,0.213806064,0.254558624,1,0,0,1.1963,Gabbro_08,4,08,5,6,1.196,1,04,0.420347443,-0.242807568,1,0,0,2.2066,Gabbro_rect,4,2.207,1,10,0,10,0,1,,,,,,,,,,,,,
5769a352f48c3b00016737f9,SCR,2024-06-11_13h12.48.870,LearnStrategy,2023.2.3,Win32,59.88023952,9,1,12,-0.201128815,0.258263396,1,0,0,0.851,Pegmatite_16,6,16,5,3,0.851,4,16,-0.107583252,-0.392850884,1,0,0,1.639,Pegmatite_rect,6,1.639,1,11,0,11,0,1,,,,,,,,,,,,,
5769a352f48c3b00016737f9,SCR,2024-06-11_13h12.48.870,LearnStrategy,2023.2.3,Win32,59.88023952,9,1,13,-0.444717827,0.248075251,1,0,0,1.0379,Diorite_12,3,12,5,2,1.038,6,15,-0.344688934,-0.245586125,1,0,0,1.9961,Andesite_rect,1,1.996,0,12,0,12,0,1,,,,,,,,,,,,,
5769a352f48c3b00016737f9,SCR,2024-06-11_13h12.48.870,LearnStrategy,2023.2.3,Win32,59.88023952,9,1,14,-0.390998542,0.424052099,1,0,0,2.2896,Pumice_05,8,05,6,2,2.29,7,16,0.391635304,-0.384515213,1,0,0,1.3504,Pumice_rect,8,1.35,1,13,0,13,0,1,,,,,,,,,,,,,
5769a352f48c3b00016737f9,SCR,2024-06-11_13h12.48.870,LearnStrategy,2023.2.3,Win32,59.88023952,9,1,15,0.593545607,0.416642549,1,0,0,0.9882,Diorite_09,3,09,6,8,0.988,6,11,0.08228652,-0.246512252,1,0,0,1.411,Diorite_rect,3,1.411,1,14,0,14,0,1,,,,,,,,,,,,,
5769a352f48c3b00016737f9,SCR,2024-06-11_13h12.48.870,LearnStrategy,2023.2.3,Win32,59.88023952,9,1,16,0.408306646,0.424978292,1,0,0,0.7473,Gabbro_03,4,03,6,7,0.747,1,06,0.137858191,-0.245586125,1,0,0,1.3287,Diorite_rect,3,1.329,0,15,0,15,0,1,,,,,,,,,,,,,
5769a352f48c3b00016737f9,SCR,2024-06-11_13h12.48.870,LearnStrategy,2023.2.3,Win32,59.88023952,9,2,1,,,,,,,,5,07,,,,,,,,,,,,,5,1.355,1,,,,,,-0.368769909,-0.392850884,1,0,0,1.355,Obsidian_rect,0,0,0,0,1,
5769a352f48c3b00016737f9,SCR,2024-06-11_13h12.48.870,LearnStrategy,2023.2.3,Win32,59.88023952,9,2,2,,,,,,,,3,06,,,,,,,,,,,,,3,4.174,1,,,,,,0.118408115,-0.252069542,1,0,0,4.1744,Diorite_rect,1,0,1,0,1,
5769a352f48c3b00016737f9,SCR,2024-06-11_13h12.48.870,LearnStrategy,2023.2.3,Win32,59.88023952,9,2,3,,,,,,,,6,03,,,,,,,,,,,,,7,1.742,0,,,,,,0.098031824,-0.407670061,1,0,0,1.7422,Peridotite_rect,2,0,2,0,1,
5769a352f48c3b00016737f9,SCR,2024-06-11_13h12.48.870,LearnStrategy,2023.2.3,Win32,59.88023952,9,2,4,,,,,,,,8,14,,,,,,,,,,,,,8,1.33,1,,,,,,0.353661367,-0.395629529,1,0,0,1.3302,Pumice_rect,3,0,3,0,1,
5769a352f48c3b00016737f9,SCR,2024-06-11_13h12.48.870,LearnStrategy,2023.2.3,Win32,59.88023952,9,2,5,,,,,,,,2,12,,,,,,,,,,,,,8,1.543,0,,,,,,0.353661367,-0.395629529,1,0,0,1.5435,Pumice_rect,4,0,4,0,1,
5769a352f48c3b00016737f9,SCR,2024-06-11_13h12.48.870,LearnStrategy,2023.2.3,Win32,59.88023952,9,2,6,,,,,,,,1,03,,,,,,,,,,,,,1,4.592,1,,,,,,-0.310419682,-0.237250365,1,0,0,4.5922,Andesite_rect,5,0,5,0,1,
5769a352f48c3b00016737f9,SCR,2024-06-11_13h12.48.870,LearnStrategy,2023.2.3,Win32,59.88023952,9,2,7,,,,,,,,1,14,,,,,,,,,,,,,6,1.742,0,,,,,,-0.146483315,-0.405817631,1,0,0,1.7415,Pegmatite_rect,6,0,6,0,1,
5769a352f48c3b00016737f9,SCR,2024-06-11_13h12.48.870,LearnStrategy,2023.2.3,Win32,59.88023952,9,2,8,,,,,,,,2,16,,,,,,,,,,,,,2,1.144,1,,,,,,-0.143704758,-0.240955137,1,0,0,1.1443,Basalt_rect,7,0,7,0,1,
5769a352f48c3b00016737f9,SCR,2024-06-11_13h12.48.870,LearnStrategy,2023.2.3,Win32,59.88023952,9,2,9,,,,,,,,7,04,,,,,,,,,,,,,6,1.513,0,,,,,,-0.117771353,-0.378958011,1,0,0,1.5135,Pegmatite_rect,8,0,8,0,1,
5769a352f48c3b00016737f9,SCR,2024-06-11_13h12.48.870,LearnStrategy,2023.2.3,Win32,59.88023952,9,2,10,,,,,,,,7,13,,,,,,,,,,,,,7,0.872,1,,,,,,0.073024545,-0.390998631,1,0,0,0.8717,Peridotite_rect,9,0,9,0,1,
5769a352f48c3b00016737f9,SCR,2024-06-11_13h12.48.870,LearnStrategy,2023.2.3,Win32,59.88023952,9,2,11,,,,,,,,4,13,,,,,,,,,,,,,4,2.865,1,,,,,,0.354587406,-0.260405213,1,0,0,2.8647,Gabbro_rect,10,0,10,0,1,
5769a352f48c3b00016737f9,SCR,2024-06-11_13h12.48.870,LearnStrategy,2023.2.3,Win32,59.88023952,9,2,12,,,,,,,,8,15,,,,,,,,,,,,,8,1.533,1,,,,,,0.365701722,-0.394703314,1,0,0,1.5332,Pumice_rect,11,0,11,0,1,
5769a352f48c3b00016737f9,SCR,2024-06-11_13h12.48.870,LearnStrategy,2023.2.3,Win32,59.88023952,9,2,13,,,,,,,,6,10,,,,,,,,,,,,,7,1.418,0,,,,,,0.147120077,-0.392850884,1,0,0,1.4181,Peridotite_rect,12,0,12,0,1,
5769a352f48c3b00016737f9,SCR,2024-06-11_13h12.48.870,LearnStrategy,2023.2.3,Win32,59.88023952,9,2,14,,,,,,,,5,14,,,,,,,,,,,,,5,1.286,1,,,,,,-0.326164985,-0.390072239,1,0,0,1.2862,Obsidian_rect,13,0,13,0,1,
5769a352f48c3b00016737f9,SCR,2024-06-11_13h12.48.870,LearnStrategy,2023.2.3,Win32,59.88023952,9,2,15,,,,,,,,4,12,,,,,,,,,,,,,4,1.908,1,,,,,,0.466657139,-0.264109986,1,0,0,1.9076,Gabbro_rect,14,0,14,0,1,
5769a352f48c3b00016737f9,SCR,2024-06-11_13h12.48.870,LearnStrategy,2023.2.3,Win32,59.88023952,9,2,16,,,,,,,,3,13,,,,,,,,,,,,,3,1.407,1,,,,,,0.151751064,-0.259478998,1,0,0,1.4074,Diorite_rect,15,0,15,0,1,
5769a352f48c3b00016737f9,SCR,2024-06-11_13h12.48.870,LearnStrategy,2023.2.3,Win32,59.88023952,,,,,,,,,,,,,,,,,,,,,,,,,,,,,,,,,,,,,,,,,,,,,0
5769a352f48c3b00016737f9,SCR,2024-06-11_13h12.48.870,LearnStrategy,2023.2.3,Win32,59.88023952,,,,,,,,,,,,,,,,,,,,,,,,,,,,,,,,,,,,,,,,,,,,,
5769a352f48c3b00016737f9,SCR,2024-06-11_13h12.48.870,LearnStrategy,2023.2.3,Win32,59.88023952,,,,,,,,,,,3,11,1,1,,,,,,,,,,,,,,,,,,,,,,,,,,,,,,,
5769a352f48c3b00016737f9,SCR,2024-06-11_13h12.48.870,LearnStrategy,2023.2.3,Win32,59.88023952,,,,,,,,,,,3,02,1,2,,,,,,,,,,,,,,,,,,,,,,,,,,,,,,,
5769a352f48c3b00016737f9,SCR,2024-06-11_13h12.48.870,LearnStrategy,2023.2.3,Win32,59.88023952,,,,,,,,,,,6,15,1,3,,,,,,,,,,,,,,,,,,,,,,,,,,,,,,,
5769a352f48c3b00016737f9,SCR,2024-06-11_13h12.48.870,LearnStrategy,2023.2.3,Win32,59.88023952,,,,,,,,,,,7,02,1,4,,,,,,,,,,,,,,,,,,,,,,,,,,,,,,,
5769a352f48c3b00016737f9,SCR,2024-06-11_13h12.48.870,LearnStrategy,2023.2.3,Win32,59.88023952,,,,,,,,,,,6,11,1,5,,,,,,,,,,,,,,,,,,,,,,,,,,,,,,,
5769a352f48c3b00016737f9,SCR,2024-06-11_13h12.48.870,LearnStrategy,2023.2.3,Win32,59.88023952,,,,,,,,,,,7,14,1,6,,,,,,,,,,,,,,,,,,,,,,,,,,,,,,,
5769a352f48c3b00016737f9,SCR,2024-06-11_13h12.48.870,LearnStrategy,2023.2.3,Win32,59.88023952,,,,,,,,,,,6,09,1,7,,,,,,,,,,,,,,,,,,,,,,,,,,,,,,,
5769a352f48c3b00016737f9,SCR,2024-06-11_13h12.48.870,LearnStrategy,2023.2.3,Win32,59.88023952,,,,,,,,,,,5,02,1,8,,,,,,,,,,,,,,,,,,,,,,,,,,,,,,,
5769a352f48c3b00016737f9,SCR,2024-06-11_13h12.48.870,LearnStrategy,2023.2.3,Win32,59.88023952,,,,,,,,,,,3,10,2,1,,,,,,,,,,,,,,,,,,,,,,,,,,,,,,,
5769a352f48c3b00016737f9,SCR,2024-06-11_13h12.48.870,LearnStrategy,2023.2.3,Win32,59.88023952,,,,,,,,,,,8,13,2,2,,,,,,,,,,,,,,,,,,,,,,,,,,,,,,,
5769a352f48c3b00016737f9,SCR,2024-06-11_13h12.48.870,LearnStrategy,2023.2.3,Win32,59.88023952,,,,,,,,,,,2,10,2,3,,,,,,,,,,,,,,,,,,,,,,,,,,,,,,,
5769a352f48c3b00016737f9,SCR,2024-06-11_13h12.48.870,LearnStrategy,2023.2.3,Win32,59.88023952,,,,,,,,,,,5,11,2,4,,,,,,,,,,,,,,,,,,,,,,,,,,,,,,,
5769a352f48c3b00016737f9,SCR,2024-06-11_13h12.48.870,LearnStrategy,2023.2.3,Win32,59.88023952,,,,,,,,,,,5,06,2,5,,,,,,,,,,,,,,,,,,,,,,,,,,,,,,,
5769a352f48c3b00016737f9,SCR,2024-06-11_13h12.48.870,LearnStrategy,2023.2.3,Win32,59.88023952,,,,,,,,,,,8,06,2,6,,,,,,,,,,,,,,,,,,,,,,,,,,,,,,,
5769a352f48c3b00016737f9,SCR,2024-06-11_13h12.48.870,LearnStrategy,2023.2.3,Win32,59.88023952,,,,,,,,,,,4,16,2,7,,,,,,,,,,,,,,,,,,,,,,,,,,,,,,,
5769a352f48c3b00016737f9,SCR,2024-06-11_13h12.48.870,LearnStrategy,2023.2.3,Win32,59.88023952,,,,,,,,,,,6,07,2,8,,,,,,,,,,,,,,,,,,,,,,,,,,,,,,,
5769a352f48c3b00016737f9,SCR,2024-06-11_13h12.48.870,LearnStrategy,2023.2.3,Win32,59.88023952,,,,,,,,,,,2,05,3,1,,,,,,,,,,,,,,,,,,,,,,,,,,,,,,,
5769a352f48c3b00016737f9,SCR,2024-06-11_13h12.48.870,LearnStrategy,2023.2.3,Win32,59.88023952,,,,,,,,,,,1,09,3,2,,,,,,,,,,,,,,,,,,,,,,,,,,,,,,,
5769a352f48c3b00016737f9,SCR,2024-06-11_13h12.48.870,LearnStrategy,2023.2.3,Win32,59.88023952,,,,,,,,,,,1,02,3,3,,,,,,,,,,,,,,,,,,,,,,,,,,,,,,,
5769a352f48c3b00016737f9,SCR,2024-06-11_13h12.48.870,LearnStrategy,2023.2.3,Win32,59.88023952,,,,,,,,,,,7,15,3,4,,,,,,,,,,,,,,,,,,,,,,,,,,,,,,,
5769a352f48c3b00016737f9,SCR,2024-06-11_13h12.48.870,LearnStrategy,2023.2.3,Win32,59.88023952,,,,,,,,,,,3,08,3,5,,,,,,,,,,,,,,,,,,,,,,,,,,,,,,,
5769a352f48c3b00016737f9,SCR,2024-06-11_13h12.48.870,LearnStrategy,2023.2.3,Win32,59.88023952,,,,,,,,,,,5,16,3,6,,,,,,,,,,,,,,,,,,,,,,,,,,,,,,,
5769a352f48c3b00016737f9,SCR,2024-06-11_13h12.48.870,LearnStrategy,2023.2.3,Win32,59.88023952,,,,,,,,,,,5,12,3,7,,,,,,,,,,,,,,,,,,,,,,,,,,,,,,,
5769a352f48c3b00016737f9,SCR,2024-06-11_13h12.48.870,LearnStrategy,2023.2.3,Win32,59.88023952,,,,,,,,,,,1,16,3,8,,,,,,,,,,,,,,,,,,,,,,,,,,,,,,,
5769a352f48c3b00016737f9,SCR,2024-06-11_13h12.48.870,LearnStrategy,2023.2.3,Win32,59.88023952,,,,,,,,,,,4,10,4,1,,,,,,,,,,,,,,,,,,,,,,,,,,,,,,,
5769a352f48c3b00016737f9,SCR,2024-06-11_13h12.48.870,LearnStrategy,2023.2.3,Win32,59.88023952,,,,,,,,,,,7,16,4,2,,,,,,,,,,,,,,,,,,,,,,,,,,,,,,,
5769a352f48c3b00016737f9,SCR,2024-06-11_13h12.48.870,LearnStrategy,2023.2.3,Win32,59.88023952,,,,,,,,,,,8,09,4,3,,,,,,,,,,,,,,,,,,,,,,,,,,,,,,,
5769a352f48c3b00016737f9,SCR,2024-06-11_13h12.48.870,LearnStrategy,2023.2.3,Win32,59.88023952,,,,,,,,,,,2,09,4,4,,,,,,,,,,,,,,,,,,,,,,,,,,,,,,,
5769a352f48c3b00016737f9,SCR,2024-06-11_13h12.48.870,LearnStrategy,2023.2.3,Win32,59.88023952,,,,,,,,,,,5,04,4,5,,,,,,,,,,,,,,,,,,,,,,,,,,,,,,,
5769a352f48c3b00016737f9,SCR,2024-06-11_13h12.48.870,LearnStrategy,2023.2.3,Win32,59.88023952,,,,,,,,,,,1,10,4,6,,,,,,,,,,,,,,,,,,,,,,,,,,,,,,,
5769a352f48c3b00016737f9,SCR,2024-06-11_13h12.48.870,LearnStrategy,2023.2.3,Win32,59.88023952,,,,,,,,,,,7,05,4,7,,,,,,,,,,,,,,,,,,,,,,,,,,,,,,,
5769a352f48c3b00016737f9,SCR,2024-06-11_13h12.48.870,LearnStrategy,2023.2.3,Win32,59.88023952,,,,,,,,,,,7,06,4,8,,,,,,,,,,,,,,,,,,,,,,,,,,,,,,,
5769a352f48c3b00016737f9,SCR,2024-06-11_13h12.48.870,LearnStrategy,2023.2.3,Win32,59.88023952,,,,,,,,,,,2,14,5,1,,,,,,,,,,,,,,,,,,,,,,,,,,,,,,,
5769a352f48c3b00016737f9,SCR,2024-06-11_13h12.48.870,LearnStrategy,2023.2.3,Win32,59.88023952,,,,,,,,,,,3,12,5,2,,,,,,,,,,,,,,,,,,,,,,,,,,,,,,,
5769a352f48c3b00016737f9,SCR,2024-06-11_13h12.48.870,LearnStrategy,2023.2.3,Win32,59.88023952,,,,,,,,,,,6,16,5,3,,,,,,,,,,,,,,,,,,,,,,,,,,,,,,,
5769a352f48c3b00016737f9,SCR,2024-06-11_13h12.48.870,LearnStrategy,2023.2.3,Win32,59.88023952,,,,,,,,,,,1,04,5,4,,,,,,,,,,,,,,,,,,,,,,,,,,,,,,,
5769a352f48c3b00016737f9,SCR,2024-06-11_13h12.48.870,LearnStrategy,2023.2.3,Win32,59.88023952,,,,,,,,,,,8,08,5,5,,,,,,,,,,,,,,,,,,,,,,,,,,,,,,,
5769a352f48c3b00016737f9,SCR,2024-06-11_13h12.48.870,LearnStrategy,2023.2.3,Win32,59.88023952,,,,,,,,,,,4,08,5,6,,,,,,,,,,,,,,,,,,,,,,,,,,,,,,,
5769a352f48c3b00016737f9,SCR,2024-06-11_13h12.48.870,LearnStrategy,2023.2.3,Win32,59.88023952,,,,,,,,,,,2,04,5,7,,,,,,,,,,,,,,,,,,,,,,,,,,,,,,,
5769a352f48c3b00016737f9,SCR,2024-06-11_13h12.48.870,LearnStrategy,2023.2.3,Win32,59.88023952,,,,,,,,,,,1,06,5,8,,,,,,,,,,,,,,,,,,,,,,,,,,,,,,,
5769a352f48c3b00016737f9,SCR,2024-06-11_13h12.48.870,LearnStrategy,2023.2.3,Win32,59.88023952,,,,,,,,,,,6,05,6,1,,,,,,,,,,,,,,,,,,,,,,,,,,,,,,,
5769a352f48c3b00016737f9,SCR,2024-06-11_13h12.48.870,LearnStrategy,2023.2.3,Win32,59.88023952,,,,,,,,,,,8,05,6,2,,,,,,,,,,,,,,,,,,,,,,,,,,,,,,,
5769a352f48c3b00016737f9,SCR,2024-06-11_13h12.48.870,LearnStrategy,2023.2.3,Win32,59.88023952,,,,,,,,,,,4,11,6,3,,,,,,,,,,,,,,,,,,,,,,,,,,,,,,,
5769a352f48c3b00016737f9,SCR,2024-06-11_13h12.48.870,LearnStrategy,2023.2.3,Win32,59.88023952,,,,,,,,,,,4,14,6,4,,,,,,,,,,,,,,,,,,,,,,,,,,,,,,,
5769a352f48c3b00016737f9,SCR,2024-06-11_13h12.48.870,LearnStrategy,2023.2.3,Win32,59.88023952,,,,,,,,,,,8,04,6,5,,,,,,,,,,,,,,,,,,,,,,,,,,,,,,,
5769a352f48c3b00016737f9,SCR,2024-06-11_13h12.48.870,LearnStrategy,2023.2.3,Win32,59.88023952,,,,,,,,,,,2,06,6,6,,,,,,,,,,,,,,,,,,,,,,,,,,,,,,,
5769a352f48c3b00016737f9,SCR,2024-06-11_13h12.48.870,LearnStrategy,2023.2.3,Win32,59.88023952,,,,,,,,,,,4,03,6,7,,,,,,,,,,,,,,,,,,,,,,,,,,,,,,,
5769a352f48c3b00016737f9,SCR,2024-06-11_13h12.48.870,LearnStrategy,2023.2.3,Win32,59.88023952,,,,,,,,,,,3,09,6,8,,,,,,,,,,,,,,,,,,,,,,,,,,,,,,,