participant,condition,date,expName,psychopyVersion,OS,frameRate,block,phase,trial,learn_mouse_2.x,learn_mouse_2.y,learn_mouse_2.leftButton,learn_mouse_2.midButton,learn_mouse_2.rightButton,learn_mouse_2.time,learn_mouse_2.clicked_name,cat,token,row,col,t_select,cat_mouse_l.x,cat_mouse_l.y,cat_mouse_l.leftButton,cat_mouse_l.midButton,cat_mouse_l.rightButton,cat_mouse_l.time,cat_mouse_l.clicked_name,resp,t_resp,corr,train_trials.thisRepN,train_trials.thisTrialN,train_trials.thisN,train_trials.thisIndex,train_trials.ran,cat_mouse_t.x,cat_mouse_t.y,cat_mouse_t.leftButton,cat_mouse_t.midButton,cat_mouse_t.rightButton,cat_mouse_t.time,cat_mouse_t.clicked_name,test_trials.thisRepN,test_trials.thisTrialN,test_trials.thisN,test_trials.thisIndex,test_trials.ran,Bonus
57d0a0bee3221e00015fe385,TCN,2024-06-25_09h52.13.446,LearnStrategy,2023.2.3,Win32,59.17159763,,,,,,,,,,,,,,,,,,,,,,,,,,,,,,,,,,,,,,,,,,,
57d0a0bee3221e00015fe385,TCN,2024-06-25_09h52.13.446,LearnStrategy,2023.2.3,Win32,59.17159763,1,1,1,-0.060185185,0.01203703,1,0,0,2.3472,rock_grid_rect_2,7,10,-1,-1,2.347,-0.330555563,-0.26944443,1,0,0,3.0576,Andesite_rect,1,3.058,0,0,0,0,0,1,,,,,,,,,,,,,
57d0a0bee3221e00015fe385,TCN,2024-06-25_09h52.13.446,LearnStrategy,2023.2.3,Win32,59.17159763,1,1,2,-0.016666624,-0.021296289,1,0,0,1.7687,rock_grid_rect_2,8,15,-1,-1,1.769,0.358333305,-0.391666695,1,0,0,2.888,Pumice_rect,8,2.888,1,1,0,1,0,1,,,,,,,,,,,,,
57d0a0bee3221e00015fe385,TCN,2024-06-25_09h52.13.446,LearnStrategy,2023.2.3,Win32,59.17159763,1,1,3,-0.016666624,-0.002777771,1,0,0,1.536,rock_grid_rect_2,6,09,-1,-1,1.536,-0.10555557,-0.253703718,1,0,0,2.2492,Basalt_rect,2,2.249,0,2,0,2,0,1,,,,,,,,,,,,,
57d0a0bee3221e00015fe385,TCN,2024-06-25_09h52.13.446,LearnStrategy,2023.2.3,Win32,59.17159763,1,1,4,-0.090740698,-0.002777771,1,0,0,1.4342,rock_grid_rect_2,5,05,-1,-1,1.434,-0.359259252,-0.388888889,1,0,0,4.252,Obsidian_rect,5,4.252,1,3,0,3,0,1,,,,,,,,,,,,,
57d0a0bee3221e00015fe385,TCN,2024-06-25_09h52.13.446,LearnStrategy,2023.2.3,Win32,59.17159763,1,1,5,-0.012036995,-0.0074074,1,0,0,1.7691,rock_grid_rect_2,4,16,-1,-1,1.769,-0.088888875,-0.395370413,1,0,0,1.9794,Pegmatite_rect,6,1.979,0,4,0,4,0,1,,,,,,,,,,,,,
57d0a0bee3221e00015fe385,TCN,2024-06-25_09h52.13.446,LearnStrategy,2023.2.3,Win32,59.17159763,1,1,6,-0.014814801,-0.01203703,1,0,0,1.1494,rock_grid_rect_2,1,07,-1,-1,1.149,-0.087037051,-0.232407393,1,0,0,2.2535,Basalt_rect,2,2.254,0,5,0,5,0,1,,,,,,,,,,,,,
57d0a0bee3221e00015fe385,TCN,2024-06-25_09h52.13.446,LearnStrategy,2023.2.3,Win32,59.17159763,1,1,7,-0.037962949,0,1,0,0,1.4484,rock_grid_rect_2,1,02,-1,-1,1.448,0.150000042,-0.239814829,1,0,0,2.8181,Diorite_rect,3,2.818,0,6,0,6,0,1,,,,,,,,,,,,,
57d0a0bee3221e00015fe385,TCN,2024-06-25_09h52.13.446,LearnStrategy,2023.2.3,Win32,59.17159763,1,1,8,-0.062962921,0.011111118,1,0,0,1.2044,rock_grid_rect_2,5,04,-1,-1,1.204,-0.323148127,-0.384259259,1,0,0,1.5796,Obsidian_rect,5,1.58,1,7,0,7,0,1,,,,,,,,,,,,,
57d0a0bee3221e00015fe385,TCN,2024-06-25_09h52.13.446,LearnStrategy,2023.2.3,Win32,59.17159763,1,1,9,-0.030555513,-0.013888889,1,0,0,1.1161,rock_grid_rect_2,3,13,-1,-1,1.116,0.119444459,-0.243518547,1,0,0,3.069,Diorite_rect,3,3.069,1,8,0,8,0,1,,,,,,,,,,,,,
57d0a0bee3221e00015fe385,TCN,2024-06-25_09h52.13.446,LearnStrategy,2023.2.3,Win32,59.17159763,1,1,10,-0.037037037,0.010185171,1,0,0,1.7486,rock_grid_rect_2,7,13,-1,-1,1.749,-0.151851866,-0.386111153,1,0,0,3.018,Pegmatite_rect,6,3.018,0,9,0,9,0,1,,,,,,,,,,,,,
57d0a0bee3221e00015fe385,TCN,2024-06-25_09h52.13.446,LearnStrategy,2023.2.3,Win32,59.17159763,1,1,11,-0.018518519,0,1,0,0,1.1296,rock_grid_rect_2,3,08,-1,-1,1.13,0.107407393,-0.25462963,1,0,0,2.3368,Diorite_rect,3,2.337,1,10,0,10,0,1,,,,,,,,,,,,,
57d0a0bee3221e00015fe385,TCN,2024-06-25_09h52.13.446,LearnStrategy,2023.2.3,Win32,59.17159763,1,1,12,0.000925912,-0.009259259,1,0,0,1.1828,rock_grid_rect_2,8,14,-1,-1,1.183,0.327777863,-0.398148148,1,0,0,1.685,Pumice_rect,8,1.685,1,11,0,11,0,1,,,,,,,,,,,,,
57d0a0bee3221e00015fe385,TCN,2024-06-25_09h52.13.446,LearnStrategy,2023.2.3,Win32,59.17159763,1,1,13,-0.10092594,0.002777771,1,0,0,1.2493,rock_grid_rect_2,2,01,-1,-1,1.249,-0.313888868,-0.262962977,1,0,0,3.1682,Andesite_rect,1,3.168,0,12,0,12,0,1,,,,,,,,,,,,,
57d0a0bee3221e00015fe385,TCN,2024-06-25_09h52.13.446,LearnStrategy,2023.2.3,Win32,59.17159763,1,1,14,-0.099999958,0.005555541,1,0,0,1.3707,rock_grid_rect_2,6,06,-1,-1,1.371,0.070370356,-0.248148176,1,0,0,2.6302,Diorite_rect,3,2.63,0,13,0,13,0,1,,,,,,,,,,,,,
57d0a0bee3221e00015fe385,TCN,2024-06-25_09h52.13.446,LearnStrategy,2023.2.3,Win32,59.17159763,1,1,15,-0.040740755,-0.011111118,1,0,0,1.1378,rock_grid_rect_2,4,03,-1,-1,1.138,-0.165740755,-0.243518547,1,0,0,2.5322,Basalt_rect,2,2.532,0,14,0,14,0,1,,,,,,,,,,,,,
57d0a0bee3221e00015fe385,TCN,2024-06-25_09h52.13.446,LearnStrategy,2023.2.3,Win32,59.17159763,1,1,16,-0.000925912,-0.014814836,1,0,0,1.3828,rock_grid_rect_2,2,10,-1,-1,1.383,-0.362037023,-0.387037065,1,0,0,2.4527,Obsidian_rect,5,2.453,0,15,0,15,0,1,,,,,,,,,,,,,
57d0a0bee3221e00015fe385,TCN,2024-06-25_09h52.13.446,LearnStrategy,2023.2.3,Win32,59.17159763,1,2,1,,,,,,,,2,06,,,,,,,,,,,2,3.21,1,,,,,,-0.124074088,-0.256481524,1,0,0,3.21,Basalt_rect,0,0,0,0,1,
57d0a0bee3221e00015fe385,TCN,2024-06-25_09h52.13.446,LearnStrategy,2023.2.3,Win32,59.17159763,1,2,2,,,,,,,,5,14,,,,,,,,,,,5,1.744,1,,,,,,-0.337962963,-0.397222236,1,0,0,1.744,Obsidian_rect,1,0,1,0,1,
57d0a0bee3221e00015fe385,TCN,2024-06-25_09h52.13.446,LearnStrategy,2023.2.3,Win32,59.17159763,1,2,3,,,,,,,,6,10,,,,,,,,,,,3,2.188,0,,,,,,0.070370356,-0.259259259,1,0,0,2.1879,Diorite_rect,2,0,2,0,1,
57d0a0bee3221e00015fe385,TCN,2024-06-25_09h52.13.446,LearnStrategy,2023.2.3,Win32,59.17159763,1,2,4,,,,,,,,8,03,,,,,,,,,,,8,1.626,1,,,,,,0.36018527,-0.408333319,1,0,0,1.6264,Pumice_rect,3,0,3,0,1,
57d0a0bee3221e00015fe385,TCN,2024-06-25_09h52.13.446,LearnStrategy,2023.2.3,Win32,59.17159763,1,2,5,,,,,,,,1,06,,,,,,,,,,,1,2.094,1,,,,,,-0.376851859,-0.249074088,1,0,0,2.0939,Andesite_rect,4,0,4,0,1,
57d0a0bee3221e00015fe385,TCN,2024-06-25_09h52.13.446,LearnStrategy,2023.2.3,Win32,59.17159763,1,2,6,,,,,,,,7,14,,,,,,,,,,,6,1.26,0,,,,,,-0.15370369,-0.384259259,1,0,0,1.2605,Pegmatite_rect,5,0,5,0,1,
57d0a0bee3221e00015fe385,TCN,2024-06-25_09h52.13.446,LearnStrategy,2023.2.3,Win32,59.17159763,1,2,7,,,,,,,,5,08,,,,,,,,,,,5,1.861,1,,,,,,-0.389814801,-0.386111153,1,0,0,1.8612,Obsidian_rect,6,0,6,0,1,
57d0a0bee3221e00015fe385,TCN,2024-06-25_09h52.13.446,LearnStrategy,2023.2.3,Win32,59.17159763,1,2,8,,,,,,,,3,16,,,,,,,,,,,3,2.944,1,,,,,,0.145370413,-0.252777806,1,0,0,2.9438,Diorite_rect,7,0,7,0,1,
57d0a0bee3221e00015fe385,TCN,2024-06-25_09h52.13.446,LearnStrategy,2023.2.3,Win32,59.17159763,1,2,9,,,,,,,,3,09,,,,,,,,,,,3,2.489,1,,,,,,0.107407393,-0.252777806,1,0,0,2.4889,Diorite_rect,8,0,8,0,1,
57d0a0bee3221e00015fe385,TCN,2024-06-25_09h52.13.446,LearnStrategy,2023.2.3,Win32,59.17159763,1,2,10,,,,,,,,7,05,,,,,,,,,,,7,1.226,1,,,,,,0.062037079,-0.413888931,1,0,0,1.2265,Peridotite_rect,9,0,9,0,1,
57d0a0bee3221e00015fe385,TCN,2024-06-25_09h52.13.446,LearnStrategy,2023.2.3,Win32,59.17159763,1,2,11,,,,,,,,6,15,,,,,,,,,,,2,1.127,0,,,,,,-0.15370369,-0.24537037,1,0,0,1.1272,Basalt_rect,10,0,10,0,1,
57d0a0bee3221e00015fe385,TCN,2024-06-25_09h52.13.446,LearnStrategy,2023.2.3,Win32,59.17159763,1,2,12,,,,,,,,2,09,,,,,,,,,,,2,2.096,1,,,,,,-0.12037037,-0.251851894,1,0,0,2.0961,Basalt_rect,11,0,11,0,1,
57d0a0bee3221e00015fe385,TCN,2024-06-25_09h52.13.446,LearnStrategy,2023.2.3,Win32,59.17159763,1,2,13,,,,,,,,4,12,,,,,,,,,,,2,0.926,0,,,,,,-0.12037037,-0.251851894,1,0,0,0.9262,Basalt_rect,12,0,12,0,1,
57d0a0bee3221e00015fe385,TCN,2024-06-25_09h52.13.446,LearnStrategy,2023.2.3,Win32,59.17159763,1,2,14,,,,,,,,1,11,,,,,,,,,,,6,1.346,0,,,,,,-0.102777764,-0.412037037,1,0,0,1.3457,Pegmatite_rect,13,0,13,0,1,
57d0a0bee3221e00015fe385,TCN,2024-06-25_09h52.13.446,LearnStrategy,2023.2.3,Win32,59.17159763,1,2,15,,,,,,,,4,13,,,,,,,,,,,4,1.511,1,,,,,,0.388888889,-0.240740741,1,0,0,1.511,Gabbro_rect,14,0,14,0,1,
57d0a0bee3221e00015fe385,TCN,2024-06-25_09h52.13.446,LearnStrategy,2023.2.3,Win32,59.17159763,1,2,16,,,,,,,,8,13,,,,,,,,,,,8,2.043,1,,,,,,0.33148151,-0.401851866,1,0,0,2.0434,Pumice_rect,15,0,15,0,1,
57d0a0bee3221e00015fe385,TCN,2024-06-25_09h52.13.446,LearnStrategy,2023.2.3,Win32,59.17159763,2,1,1,-0.003703718,-0.001851859,1,0,0,1.6987,rock_grid_rect_2,1,04,-1,-1,1.699,-0.156481496,-0.252777806,1,0,0,1.5137,Basalt_rect,2,1.514,0,0,0,0,0,1,,,,,,,,,,,,,
57d0a0bee3221e00015fe385,TCN,2024-06-25_09h52.13.446,LearnStrategy,2023.2.3,Win32,59.17159763,2,1,2,-0.006481453,0.01203703,1,0,0,1.9489,rock_grid_rect_2,3,14,-1,-1,1.949,0.162962949,-0.261111153,1,0,0,1.2967,Diorite_rect,3,1.297,1,1,0,1,0,1,,,,,,,,,,,,,
57d0a0bee3221e00015fe385,TCN,2024-06-25_09h52.13.446,LearnStrategy,2023.2.3,Win32,59.17159763,2,1,3,-0.087962963,0.001851859,1,0,0,1.4816,rock_grid_rect_2,5,10,-1,-1,1.482,-0.362037023,-0.393518519,1,0,0,1.5136,Obsidian_rect,5,1.514,1,2,0,2,0,1,,,,,,,,,,,,,
57d0a0bee3221e00015fe385,TCN,2024-06-25_09h52.13.446,LearnStrategy,2023.2.3,Win32,59.17159763,2,1,4,-0.073148162,-0.024074095,1,0,0,1.3169,rock_grid_rect_2,3,02,-1,-1,1.317,-0.099999958,-0.390740783,1,0,0,1.8701,Pegmatite_rect,6,1.87,0,3,0,3,0,1,,,,,,,,,,,,,
57d0a0bee3221e00015fe385,TCN,2024-06-25_09h52.13.446,LearnStrategy,2023.2.3,Win32,59.17159763,2,1,5,-0.02870369,-0.002777771,1,0,0,2.2315,rock_grid_rect_2,8,05,-1,-1,2.231,0.347222222,-0.387962977,1,0,0,1.3874,Pumice_rect,8,1.387,1,4,0,4,0,1,,,,,,,,,,,,,
57d0a0bee3221e00015fe385,TCN,2024-06-25_09h52.13.446,LearnStrategy,2023.2.3,Win32,59.17159763,2,1,6,-0.040740755,-0.012962977,1,0,0,1.1826,rock_grid_rect_2,6,13,-1,-1,1.183,-0.094444416,-0.401851866,1,0,0,1.401,Pegmatite_rect,6,1.401,1,5,0,5,0,1,,,,,,,,,,,,,
57d0a0bee3221e00015fe385,TCN,2024-06-25_09h52.13.446,LearnStrategy,2023.2.3,Win32,59.17159763,2,1,7,0.015740783,0,1,0,0,1.2314,rock_grid_rect_2,5,06,-1,-1,1.231,-0.357407393,-0.387962977,1,0,0,1.3689,Obsidian_rect,5,1.369,1,6,0,6,0,1,,,,,,,,,,,,,
57d0a0bee3221e00015fe385,TCN,2024-06-25_09h52.13.446,LearnStrategy,2023.2.3,Win32,59.17159763,2,1,8,-0.016666624,0.005555541,1,0,0,1.2453,rock_grid_rect_2,6,07,-1,-1,1.245,-0.352777764,-0.238888917,1,0,0,1.7362,Andesite_rect,1,1.736,0,7,0,7,0,1,,,,,,,,,,,,,
57d0a0bee3221e00015fe385,TCN,2024-06-25_09h52.13.446,LearnStrategy,2023.2.3,Win32,59.17159763,2,1,9,-0.010185171,-0.017592607,1,0,0,1.65,rock_grid_rect_2,7,15,-1,-1,1.65,0.112037023,-0.239814829,1,0,0,1.3205,Diorite_rect,3,1.32,0,8,0,8,0,1,,,,,,,,,,,,,
57d0a0bee3221e00015fe385,TCN,2024-06-25_09h52.13.446,LearnStrategy,2023.2.3,Win32,59.17159763,2,1,10,-0.07222218,0.00462963,1,0,0,1.0541,rock_grid_rect_2,2,05,-1,-1,1.054,-0.134259259,-0.259259259,1,0,0,1.9295,Basalt_rect,2,1.93,1,9,0,9,0,1,,,,,,,,,,,,,
57d0a0bee3221e00015fe385,TCN,2024-06-25_09h52.13.446,LearnStrategy,2023.2.3,Win32,59.17159763,2,1,11,-0.057407379,0.000925912,1,0,0,1.2869,rock_grid_rect_2,4,11,-1,-1,1.287,0.123148176,-0.25462963,1,0,0,3.6306,Diorite_rect,3,3.631,0,10,0,10,0,1,,,,,,,,,,,,,
57d0a0bee3221e00015fe385,TCN,2024-06-25_09h52.13.446,LearnStrategy,2023.2.3,Win32,59.17159763,2,1,12,-0.07222218,0.000925912,1,0,0,1.2658,rock_grid_rect_2,7,16,-1,-1,1.266,0.083333333,-0.408333319,1,0,0,1.8361,Peridotite_rect,7,1.836,1,11,0,11,0,1,,,,,,,,,,,,,
57d0a0bee3221e00015fe385,TCN,2024-06-25_09h52.13.446,LearnStrategy,2023.2.3,Win32,59.17159763,2,1,13,-0.018518519,0.001851859,1,0,0,1.0324,rock_grid_rect_2,2,08,-1,-1,1.032,-0.127777735,-0.233333376,1,0,0,1.5199,Basalt_rect,2,1.52,1,12,0,12,0,1,,,,,,,,,,,,,
57d0a0bee3221e00015fe385,TCN,2024-06-25_09h52.13.446,LearnStrategy,2023.2.3,Win32,59.17159763,2,1,14,-0.023148148,-0.024074095,1,0,0,1.2625,rock_grid_rect_2,1,09,-1,-1,1.262,0.126851894,-0.392592607,1,0,0,2.4577,Peridotite_rect,7,2.458,0,13,0,13,0,1,,,,,,,,,,,,,
57d0a0bee3221e00015fe385,TCN,2024-06-25_09h52.13.446,LearnStrategy,2023.2.3,Win32,59.17159763,2,1,15,-0.012962977,-0.010185206,1,0,0,0.92,rock_grid_rect_2,8,10,-1,-1,0.92,0.337962963,-0.389814801,1,0,0,1.5144,Pumice_rect,8,1.514,1,14,0,14,0,1,,,,,,,,,,,,,
57d0a0bee3221e00015fe385,TCN,2024-06-25_09h52.13.446,LearnStrategy,2023.2.3,Win32,59.17159763,2,1,16,-0.087037051,-0.021296289,1,0,0,1.1527,rock_grid_rect_2,4,01,-1,-1,1.153,-0.354629623,-0.243518547,1,0,0,2.0811,Andesite_rect,1,2.081,0,15,0,15,0,1,,,,,,,,,,,,,
57d0a0bee3221e00015fe385,TCN,2024-06-25_09h52.13.446,LearnStrategy,2023.2.3,Win32,59.17159763,2,2,1,,,,,,,,5,07,,,,,,,,,,,5,2.866,1,,,,,,-0.437037044,-0.397222236,1,0,0,2.8663,Obsidian_rect,0,0,0,0,1,
57d0a0bee3221e00015fe385,TCN,2024-06-25_09h52.13.446,LearnStrategy,2023.2.3,Win32,59.17159763,2,2,2,,,,,,,,3,15,,,,,,,,,,,3,2.316,1,,,,,,0.116666653,-0.244444459,1,0,0,2.316,Diorite_rect,1,0,1,0,1,
57d0a0bee3221e00015fe385,TCN,2024-06-25_09h52.13.446,LearnStrategy,2023.2.3,Win32,59.17159763,2,2,3,,,,,,,,6,11,,,,,,,,,,,5,1.796,0,,,,,,-0.353703711,-0.389814801,1,0,0,1.7961,Obsidian_rect,2,0,2,0,1,
57d0a0bee3221e00015fe385,TCN,2024-06-25_09h52.13.446,LearnStrategy,2023.2.3,Win32,59.17159763,2,2,4,,,,,,,,3,10,,,,,,,,,,,6,2.699,0,,,,,,-0.102777764,-0.396296325,1,0,0,2.6988,Pegmatite_rect,3,0,3,0,1,
57d0a0bee3221e00015fe385,TCN,2024-06-25_09h52.13.446,LearnStrategy,2023.2.3,Win32,59.17159763,2,2,5,,,,,,,,1,10,,,,,,,,,,,3,1.533,0,,,,,,0.098148134,-0.265740783,1,0,0,1.533,Diorite_rect,4,0,4,0,1,
57d0a0bee3221e00015fe385,TCN,2024-06-25_09h52.13.446,LearnStrategy,2023.2.3,Win32,59.17159763,2,2,6,,,,,,,,7,08,,,,,,,,,,,7,1.383,1,,,,,,0.085185228,-0.39907406,1,0,0,1.3828,Peridotite_rect,5,0,5,0,1,
57d0a0bee3221e00015fe385,TCN,2024-06-25_09h52.13.446,LearnStrategy,2023.2.3,Win32,59.17159763,2,2,7,,,,,,,,8,08,,,,,,,,,,,8,2.401,1,,,,,,0.393518519,-0.393518519,1,0,0,2.4011,Pumice_rect,6,0,6,0,1,
57d0a0bee3221e00015fe385,TCN,2024-06-25_09h52.13.446,LearnStrategy,2023.2.3,Win32,59.17159763,2,2,8,,,,,,,,5,02,,,,,,,,,,,5,1.212,1,,,,,,-0.39907406,-0.404629672,1,0,0,1.2117,Obsidian_rect,7,0,7,0,1,
57d0a0bee3221e00015fe385,TCN,2024-06-25_09h52.13.446,LearnStrategy,2023.2.3,Win32,59.17159763,2,2,9,,,,,,,,1,14,,,,,,,,,,,4,2.318,0,,,,,,0.395370342,-0.243518547,1,0,0,2.3179,Gabbro_rect,8,0,8,0,1,
57d0a0bee3221e00015fe385,TCN,2024-06-25_09h52.13.446,LearnStrategy,2023.2.3,Win32,59.17159763,2,2,10,,,,,,,,2,11,,,,,,,,,,,8,2.352,0,,,,,,0.374074159,-0.39444443,1,0,0,2.352,Pumice_rect,9,0,9,0,1,
57d0a0bee3221e00015fe385,TCN,2024-06-25_09h52.13.446,LearnStrategy,2023.2.3,Win32,59.17159763,2,2,11,,,,,,,,4,14,,,,,,,,,,,1,1.867,0,,,,,,-0.366666653,-0.265740783,1,0,0,1.867,Andesite_rect,10,0,10,0,1,
57d0a0bee3221e00015fe385,TCN,2024-06-25_09h52.13.446,LearnStrategy,2023.2.3,Win32,59.17159763,2,2,12,,,,,,,,2,02,,,,,,,,,,,1,0.475,0,,,,,,-0.366666653,-0.265740783,1,0,0,0.4745,Andesite_rect,11,0,11,0,1,
57d0a0bee3221e00015fe385,TCN,2024-06-25_09h52.13.446,LearnStrategy,2023.2.3,Win32,59.17159763,2,2,13,,,,,,,,4,08,,,,,,,,,,,2,1.299,0,,,,,,-0.178703661,-0.241666653,1,0,0,1.299,Basalt_rect,12,0,12,0,1,
57d0a0bee3221e00015fe385,TCN,2024-06-25_09h52.13.446,LearnStrategy,2023.2.3,Win32,59.17159763,2,2,14,,,,,,,,8,09,,,,,,,,,,,8,1.934,1,,,,,,0.385185242,-0.397222236,1,0,0,1.9342,Pumice_rect,13,0,13,0,1,
57d0a0bee3221e00015fe385,TCN,2024-06-25_09h52.13.446,LearnStrategy,2023.2.3,Win32,59.17159763,2,2,15,,,,,,,,6,05,,,,,,,,,,,5,3.4,0,,,,,,-0.381481489,-0.390740783,1,0,0,3.4002,Obsidian_rect,14,0,14,0,1,
57d0a0bee3221e00015fe385,TCN,2024-06-25_09h52.13.446,LearnStrategy,2023.2.3,Win32,59.17159763,2,2,16,,,,,,,,7,02,,,,,,,,,,,7,3.212,1,,,,,,0.09629631,-0.405555584,1,0,0,3.2118,Peridotite_rect,15,0,15,0,1,
57d0a0bee3221e00015fe385,TCN,2024-06-25_09h52.13.446,LearnStrategy,2023.2.3,Win32,59.17159763,3,1,1,-0.074074074,0.01666666,1,0,0,1.5991,rock_grid_rect_2,4,15,-1,-1,1.599,-0.364814794,-0.25462963,1,0,0,2.1524,Andesite_rect,1,2.152,0,0,0,0,0,1,,,,,,,,,,,,,
57d0a0bee3221e00015fe385,TCN,2024-06-25_09h52.13.446,LearnStrategy,2023.2.3,Win32,59.17159763,3,1,2,0.016666695,-0.009259259,1,0,0,1.1872,rock_grid_rect_2,2,16,-1,-1,1.187,-0.084259245,-0.246296282,1,0,0,1.5657,Basalt_rect,2,1.566,1,1,0,1,0,1,,,,,,,,,,,,,
57d0a0bee3221e00015fe385,TCN,2024-06-25_09h52.13.446,LearnStrategy,2023.2.3,Win32,59.17159763,3,1,3,-0.023148148,0.002777771,1,0,0,2.2545,rock_grid_rect_2,6,08,-1,-1,2.254,0.087962963,-0.267592607,1,0,0,1.529,Diorite_rect,3,1.529,0,2,0,2,0,1,,,,,,,,,,,,,
57d0a0bee3221e00015fe385,TCN,2024-06-25_09h52.13.446,LearnStrategy,2023.2.3,Win32,59.17159763,3,1,4,-0.017592607,-0.014814836,1,0,0,1.2819,rock_grid_rect_2,3,11,-1,-1,1.282,0.346296381,-0.242592635,1,0,0,1.1525,Gabbro_rect,4,1.152,0,3,0,3,0,1,,,,,,,,,,,,,
57d0a0bee3221e00015fe385,TCN,2024-06-25_09h52.13.446,LearnStrategy,2023.2.3,Win32,59.17159763,3,1,5,-0.002777735,-0.011111118,1,0,0,1.0826,rock_grid_rect_2,4,10,-1,-1,1.083,-0.113888847,-0.418518561,1,0,0,2.1869,Pegmatite_rect,6,2.187,0,4,0,4,0,1,,,,,,,,,,,,,
57d0a0bee3221e00015fe385,TCN,2024-06-25_09h52.13.446,LearnStrategy,2023.2.3,Win32,59.17159763,3,1,6,-0.005555541,-0.000925947,1,0,0,1.187,rock_grid_rect_2,8,06,-1,-1,1.187,0.383333418,-0.381481524,1,0,0,1.4145,Pumice_rect,8,1.414,1,5,0,5,0,1,,,,,,,,,,,,,
57d0a0bee3221e00015fe385,TCN,2024-06-25_09h52.13.446,LearnStrategy,2023.2.3,Win32,59.17159763,3,1,7,0.01944443,0.002777771,1,0,0,1.1318,rock_grid_rect_2,6,03,-1,-1,1.132,0.137962977,-0.241666653,1,0,0,1.4173,Diorite_rect,3,1.417,0,6,0,6,0,1,,,,,,,,,,,,,
57d0a0bee3221e00015fe385,TCN,2024-06-25_09h52.13.446,LearnStrategy,2023.2.3,Win32,59.17159763,3,1,8,-0.025925884,-0.019444466,1,0,0,1.2477,rock_grid_rect_2,5,09,-1,-1,1.248,-0.383333312,-0.395370413,1,0,0,1.3365,Obsidian_rect,5,1.337,1,7,0,7,0,1,,,,,,,,,,,,,
57d0a0bee3221e00015fe385,TCN,2024-06-25_09h52.13.446,LearnStrategy,2023.2.3,Win32,59.17159763,3,1,9,-0.049074032,-0.019444466,1,0,0,1.2529,rock_grid_rect_2,1,01,-1,-1,1.253,0.125925912,-0.270370413,1,0,0,2.0464,Diorite_rect,3,2.046,0,8,0,8,0,1,,,,,,,,,,,,,
57d0a0bee3221e00015fe385,TCN,2024-06-25_09h52.13.446,LearnStrategy,2023.2.3,Win32,59.17159763,3,1,10,-0.012962977,-0.005555577,1,0,0,1.2015,rock_grid_rect_2,3,06,-1,-1,1.202,-0.10092594,-0.238888917,1,0,0,1.9308,Basalt_rect,2,1.931,0,9,0,9,0,1,,,,,,,,,,,,,
57d0a0bee3221e00015fe385,TCN,2024-06-25_09h52.13.446,LearnStrategy,2023.2.3,Win32,59.17159763,3,1,11,-0.015740712,-0.012962977,1,0,0,1.2547,rock_grid_rect_2,7,12,-1,-1,1.255,0.09629631,-0.420370384,1,0,0,1.5293,Peridotite_rect,7,1.529,1,10,0,10,0,1,,,,,,,,,,,,,
57d0a0bee3221e00015fe385,TCN,2024-06-25_09h52.13.446,LearnStrategy,2023.2.3,Win32,59.17159763,3,1,12,-0.030555513,-0.006481489,1,0,0,1.182,rock_grid_rect_2,8,16,-1,-1,1.182,0.388888889,-0.415740755,1,0,0,1.3693,Pumice_rect,8,1.369,1,11,0,11,0,1,,,,,,,,,,,,,
57d0a0bee3221e00015fe385,TCN,2024-06-25_09h52.13.446,LearnStrategy,2023.2.3,Win32,59.17159763,3,1,13,-0.06759255,-0.000925947,1,0,0,1.2162,rock_grid_rect_2,1,16,-1,-1,1.216,0.044444473,-0.234259288,1,0,0,2.0485,Diorite_rect,3,2.048,0,12,0,12,0,1,,,,,,,,,,,,,
57d0a0bee3221e00015fe385,TCN,2024-06-25_09h52.13.446,LearnStrategy,2023.2.3,Win32,59.17159763,3,1,14,-0.063888903,-0.011111118,1,0,0,1.0527,rock_grid_rect_2,5,12,-1,-1,1.053,-0.3824074,-0.398148148,1,0,0,1.2133,Obsidian_rect,5,1.213,1,13,0,13,0,1,,,,,,,,,,,,,
57d0a0bee3221e00015fe385,TCN,2024-06-25_09h52.13.446,LearnStrategy,2023.2.3,Win32,59.17159763,3,1,15,0.031481496,0.005555541,1,0,0,1.2661,rock_grid_rect_2,7,06,-1,-1,1.266,0.119444459,-0.406481496,1,0,0,1.5192,Peridotite_rect,7,1.519,1,14,0,14,0,1,,,,,,,,,,,,,
57d0a0bee3221e00015fe385,TCN,2024-06-25_09h52.13.446,LearnStrategy,2023.2.3,Win32,59.17159763,3,1,16,-0.045370384,0.002777771,1,0,0,1.7658,rock_grid_rect_2,2,04,-1,-1,1.766,-0.15370369,-0.262962977,1,0,0,1.2365,Basalt_rect,2,1.236,1,15,0,15,0,1,,,,,,,,,,,,,
57d0a0bee3221e00015fe385,TCN,2024-06-25_09h52.13.446,LearnStrategy,2023.2.3,Win32,59.17159763,3,2,1,,,,,,,,2,14,,,,,,,,,,,8,2.049,0,,,,,,0.401851937,-0.406481496,1,0,0,2.0492,Pumice_rect,0,0,0,0,1,
57d0a0bee3221e00015fe385,TCN,2024-06-25_09h52.13.446,LearnStrategy,2023.2.3,Win32,59.17159763,3,2,2,,,,,,,,2,12,,,,,,,,,,,2,2.012,1,,,,,,-0.122222194,-0.256481524,1,0,0,2.0118,Basalt_rect,1,0,1,0,1,
57d0a0bee3221e00015fe385,TCN,2024-06-25_09h52.13.446,LearnStrategy,2023.2.3,Win32,59.17159763,3,2,3,,,,,,,,1,05,,,,,,,,,,,6,2.915,0,,,,,,-0.131481453,-0.401851866,1,0,0,2.9148,Pegmatite_rect,2,0,2,0,1,
57d0a0bee3221e00015fe385,TCN,2024-06-25_09h52.13.446,LearnStrategy,2023.2.3,Win32,59.17159763,3,2,4,,,,,,,,7,04,,,,,,,,,,,1,1.492,0,,,,,,-0.314814815,-0.266666695,1,0,0,1.4925,Andesite_rect,3,0,3,0,1,
57d0a0bee3221e00015fe385,TCN,2024-06-25_09h52.13.446,LearnStrategy,2023.2.3,Win32,59.17159763,3,2,5,,,,,,,,6,16,,,,,,,,,,,4,2.15,0,,,,,,0.375,-0.239814829,1,0,0,2.1505,Gabbro_rect,4,0,4,0,1,
57d0a0bee3221e00015fe385,TCN,2024-06-25_09h52.13.446,LearnStrategy,2023.2.3,Win32,59.17159763,3,2,6,,,,,,,,7,07,,,,,,,,,,,4,1.298,0,,,,,,0.335185157,-0.248148176,1,0,0,1.2982,Gabbro_rect,5,0,5,0,1,
57d0a0bee3221e00015fe385,TCN,2024-06-25_09h52.13.446,LearnStrategy,2023.2.3,Win32,59.17159763,3,2,7,,,,,,,,6,12,,,,,,,,,,,3,1.151,0,,,,,,0.113888917,-0.262962977,1,0,0,1.1506,Diorite_rect,6,0,6,0,1,
57d0a0bee3221e00015fe385,TCN,2024-06-25_09h52.13.446,LearnStrategy,2023.2.3,Win32,59.17159763,3,2,8,,,,,,,,5,16,,,,,,,,,,,5,1.632,1,,,,,,-0.397222201,-0.421296296,1,0,0,1.6319,Obsidian_rect,7,0,7,0,1,
57d0a0bee3221e00015fe385,TCN,2024-06-25_09h52.13.446,LearnStrategy,2023.2.3,Win32,59.17159763,3,2,9,,,,,,,,4,09,,,,,,,,,,,2,1.366,0,,,,,,-0.145370342,-0.248148176,1,0,0,1.3656,Basalt_rect,8,0,8,0,1,
57d0a0bee3221e00015fe385,TCN,2024-06-25_09h52.13.446,LearnStrategy,2023.2.3,Win32,59.17159763,3,2,10,,,,,,,,8,04,,,,,,,,,,,8,1.6,1,,,,,,0.382407436,-0.400925954,1,0,0,1.5998,Pumice_rect,9,0,9,0,1,
57d0a0bee3221e00015fe385,TCN,2024-06-25_09h52.13.446,LearnStrategy,2023.2.3,Win32,59.17159763,3,2,11,,,,,,,,3,12,,,,,,,,,,,6,1.184,0,,,,,,-0.074074074,-0.39907406,1,0,0,1.1844,Pegmatite_rect,10,0,10,0,1,
57d0a0bee3221e00015fe385,TCN,2024-06-25_09h52.13.446,LearnStrategy,2023.2.3,Win32,59.17159763,3,2,12,,,,,,,,8,02,,,,,,,,,,,8,1.283,1,,,,,,0.353703675,-0.393518519,1,0,0,1.2825,Pumice_rect,11,0,11,0,1,
57d0a0bee3221e00015fe385,TCN,2024-06-25_09h52.13.446,LearnStrategy,2023.2.3,Win32,59.17159763,3,2,13,,,,,,,,4,05,,,,,,,,,,,3,1.582,0,,,,,,0.115740741,-0.26944443,1,0,0,1.5822,Diorite_rect,12,0,12,0,1,
57d0a0bee3221e00015fe385,TCN,2024-06-25_09h52.13.446,LearnStrategy,2023.2.3,Win32,59.17159763,3,2,14,,,,,,,,3,07,,,,,,,,,,,1,1.448,0,,,,,,-0.368518511,-0.271296325,1,0,0,1.448,Andesite_rect,13,0,13,0,1,
57d0a0bee3221e00015fe385,TCN,2024-06-25_09h52.13.446,LearnStrategy,2023.2.3,Win32,59.17159763,3,2,15,,,,,,,,5,11,,,,,,,,,,,5,1.216,1,,,,,,-0.375,-0.390740783,1,0,0,1.2158,Obsidian_rect,14,0,14,0,1,
57d0a0bee3221e00015fe385,TCN,2024-06-25_09h52.13.446,LearnStrategy,2023.2.3,Win32,59.17159763,3,2,16,,,,,,,,1,03,,,,,,,,,,,7,3.966,0,,,,,,0.150925954,-0.408333319,1,0,0,3.966,Peridotite_rect,15,0,15,0,1,
57d0a0bee3221e00015fe385,TCN,2024-06-25_09h52.13.446,LearnStrategy,2023.2.3,Win32,59.17159763,4,1,1,-0.014814801,-0.002777771,1,0,0,1.3538,rock_grid_rect_2,3,06,-1,-1,1.354,-0.356481481,-0.253703718,1,0,0,2.9644,Andesite_rect,1,2.964,0,0,0,0,0,1,,,,,,,,,,,,,
57d0a0bee3221e00015fe385,TCN,2024-06-25_09h52.13.446,LearnStrategy,2023.2.3,Win32,59.17159763,4,1,2,0.007407436,-0.000925947,1,0,0,1.2043,rock_grid_rect_2,6,07,-1,-1,1.204,0.342592593,-0.239814829,1,0,0,2.1801,Gabbro_rect,4,2.18,0,1,0,1,0,1,,,,,,,,,,,,,
57d0a0bee3221e00015fe385,TCN,2024-06-25_09h52.13.446,LearnStrategy,2023.2.3,Win32,59.17159763,4,1,3,-0.010185171,0,1,0,0,0.9044,rock_grid_rect_2,8,14,-1,-1,0.904,0.358333305,-0.420370384,1,0,0,1.8456,Pumice_rect,8,1.846,1,2,0,2,0,1,,,,,,,,,,,,,
57d0a0bee3221e00015fe385,TCN,2024-06-25_09h52.13.446,LearnStrategy,2023.2.3,Win32,59.17159763,4,1,4,-0.044444402,0.008333312,1,0,0,1.3997,rock_grid_rect_2,1,02,-1,-1,1.4,0.085185228,-0.247222265,1,0,0,1.4868,Diorite_rect,3,1.487,0,3,0,3,0,1,,,,,,,,,,,,,
57d0a0bee3221e00015fe385,TCN,2024-06-25_09h52.13.446,LearnStrategy,2023.2.3,Win32,59.17159763,4,1,5,-0.02870369,-0.003703718,1,0,0,1.0987,rock_grid_rect_2,8,16,-1,-1,1.099,0.388888889,-0.388888889,1,0,0,1.4855,Pumice_rect,8,1.486,1,4,0,4,0,1,,,,,,,,,,,,,
57d0a0bee3221e00015fe385,TCN,2024-06-25_09h52.13.446,LearnStrategy,2023.2.3,Win32,59.17159763,4,1,6,0.012962977,-0.002777771,1,0,0,1.3198,rock_grid_rect_2,3,08,-1,-1,1.32,-0.066666638,-0.401851866,1,0,0,1.8836,Pegmatite_rect,6,1.884,0,5,0,5,0,1,,,,,,,,,,,,,
57d0a0bee3221e00015fe385,TCN,2024-06-25_09h52.13.446,LearnStrategy,2023.2.3,Win32,59.17159763,4,1,7,0.003703718,-0.003703718,1,0,0,1.7502,rock_grid_rect_2,4,11,-1,-1,1.75,-0.071296268,-0.236111111,1,0,0,1.6346,Basalt_rect,2,1.635,0,6,0,6,0,1,,,,,,,,,,,,,
57d0a0bee3221e00015fe385,TCN,2024-06-25_09h52.13.446,LearnStrategy,2023.2.3,Win32,59.17159763,4,1,8,0.005555541,-0.002777771,1,0,0,1.1866,rock_grid_rect_2,1,04,-1,-1,1.187,0.125,-0.387037065,1,0,0,1.4293,Peridotite_rect,7,1.429,0,7,0,7,0,1,,,,,,,,,,,,,
57d0a0bee3221e00015fe385,TCN,2024-06-25_09h52.13.446,LearnStrategy,2023.2.3,Win32,59.17159763,4,1,9,-0.068518533,0.014814801,1,0,0,1.1987,rock_grid_rect_2,5,05,-1,-1,1.199,-0.359259252,-0.400000042,1,0,0,1.1867,Obsidian_rect,5,1.187,1,8,0,8,0,1,,,,,,,,,,,,,
57d0a0bee3221e00015fe385,TCN,2024-06-25_09h52.13.446,LearnStrategy,2023.2.3,Win32,59.17159763,4,1,10,0.060185185,0,1,0,0,1.4827,rock_grid_rect_2,4,03,-1,-1,1.483,-0.084259245,-0.256481524,1,0,0,1.2535,Basalt_rect,2,1.254,0,9,0,9,0,1,,,,,,,,,,,,,
57d0a0bee3221e00015fe385,TCN,2024-06-25_09h52.13.446,LearnStrategy,2023.2.3,Win32,59.17159763,4,1,11,-0.022222236,0,1,0,0,1.1046,rock_grid_rect_2,2,01,-1,-1,1.105,-0.176851838,-0.25462963,1,0,0,1.3793,Basalt_rect,2,1.379,1,10,0,10,0,1,,,,,,,,,,,,,
57d0a0bee3221e00015fe385,TCN,2024-06-25_09h52.13.446,LearnStrategy,2023.2.3,Win32,59.17159763,4,1,12,0.002777806,-0.002777771,1,0,0,1.254,rock_grid_rect_2,5,04,-1,-1,1.254,-0.400000007,-0.400000042,1,0,0,1.1633,Obsidian_rect,5,1.163,1,11,0,11,0,1,,,,,,,,,,,,,
57d0a0bee3221e00015fe385,TCN,2024-06-25_09h52.13.446,LearnStrategy,2023.2.3,Win32,59.17159763,4,1,13,-0.038888861,-0.015740748,1,0,0,1.0498,rock_grid_rect_2,7,16,-1,-1,1.05,0.14444443,-0.402777778,1,0,0,2.7526,Peridotite_rect,7,2.753,1,12,0,12,0,1,,,,,,,,,,,,,
57d0a0bee3221e00015fe385,TCN,2024-06-25_09h52.13.446,LearnStrategy,2023.2.3,Win32,59.17159763,4,1,14,-0.095370328,0.01666666,1,0,0,1.0353,rock_grid_rect_2,2,08,-1,-1,1.035,-0.162962949,-0.229629658,1,0,0,1.3491,Basalt_rect,2,1.349,1,13,0,13,0,1,,,,,,,,,,,,,
57d0a0bee3221e00015fe385,TCN,2024-06-25_09h52.13.446,LearnStrategy,2023.2.3,Win32,59.17159763,4,1,15,-0.008333347,-0.001851859,1,0,0,1.2194,rock_grid_rect_2,6,09,-1,-1,1.219,0.362962935,-0.265740783,1,0,0,1.466,Gabbro_rect,4,1.466,0,14,0,14,0,1,,,,,,,,,,,,,
57d0a0bee3221e00015fe385,TCN,2024-06-25_09h52.13.446,LearnStrategy,2023.2.3,Win32,59.17159763,4,1,16,-0.055555556,-0.023148148,1,0,0,1.3164,rock_grid_rect_2,7,06,-1,-1,1.316,-0.081481439,-0.416666667,1,0,0,1.7696,Pegmatite_rect,6,1.77,0,15,0,15,0,1,,,,,,,,,,,,,
57d0a0bee3221e00015fe385,TCN,2024-06-25_09h52.13.446,LearnStrategy,2023.2.3,Win32,59.17159763,4,2,1,,,,,,,,4,09,,,,,,,,,,,5,2.933,0,,,,,,-0.326851845,-0.414814843,1,0,0,2.9333,Obsidian_rect,0,0,0,0,1,
57d0a0bee3221e00015fe385,TCN,2024-06-25_09h52.13.446,LearnStrategy,2023.2.3,Win32,59.17159763,4,2,2,,,,,,,,2,02,,,,,,,,,,,2,1.849,1,,,,,,-0.143518519,-0.240740741,1,0,0,1.849,Basalt_rect,1,0,1,0,1,
57d0a0bee3221e00015fe385,TCN,2024-06-25_09h52.13.446,LearnStrategy,2023.2.3,Win32,59.17159763,4,2,3,,,,,,,,5,14,,,,,,,,,,,5,1.283,1,,,,,,-0.377777771,-0.400000042,1,0,0,1.2831,Obsidian_rect,2,0,2,0,1,
57d0a0bee3221e00015fe385,TCN,2024-06-25_09h52.13.446,LearnStrategy,2023.2.3,Win32,59.17159763,4,2,4,,,,,,,,3,09,,,,,,,,,,,1,1.383,0,,,,,,-0.362037023,-0.265740783,1,0,0,1.3832,Andesite_rect,3,0,3,0,1,
57d0a0bee3221e00015fe385,TCN,2024-06-25_09h52.13.446,LearnStrategy,2023.2.3,Win32,59.17159763,4,2,5,,,,,,,,7,14,,,,,,,,,,,7,2.382,1,,,,,,0.102777764,-0.416666667,1,0,0,2.3818,Peridotite_rect,4,0,4,0,1,
57d0a0bee3221e00015fe385,TCN,2024-06-25_09h52.13.446,LearnStrategy,2023.2.3,Win32,59.17159763,4,2,6,,,,,,,,2,11,,,,,,,,,,,8,2.577,0,,,,,,0.35555564,-0.421296296,1,0,0,2.5775,Pumice_rect,5,0,5,0,1,
57d0a0bee3221e00015fe385,TCN,2024-06-25_09h52.13.446,LearnStrategy,2023.2.3,Win32,59.17159763,4,2,7,,,,,,,,6,10,,,,,,,,,,,7,2.816,0,,,,,,0.069444444,-0.401851866,1,0,0,2.8163,Peridotite_rect,6,0,6,0,1,
57d0a0bee3221e00015fe385,TCN,2024-06-25_09h52.13.446,LearnStrategy,2023.2.3,Win32,59.17159763,4,2,8,,,,,,,,1,03,,,,,,,,,,,1,1.745,1,,,,,,-0.350925905,-0.249074088,1,0,0,1.7445,Andesite_rect,7,0,7,0,1,
57d0a0bee3221e00015fe385,TCN,2024-06-25_09h52.13.446,LearnStrategy,2023.2.3,Win32,59.17159763,4,2,9,,,,,,,,8,08,,,,,,,,,,,8,1.718,1,,,,,,0.410185213,-0.411111125,1,0,0,1.7178,Pumice_rect,8,0,8,0,1,
57d0a0bee3221e00015fe385,TCN,2024-06-25_09h52.13.446,LearnStrategy,2023.2.3,Win32,59.17159763,4,2,10,,,,,,,,3,15,,,,,,,,,,,4,1.53,0,,,,,,0.350926011,-0.248148176,1,0,0,1.5299,Gabbro_rect,9,0,9,0,1,
57d0a0bee3221e00015fe385,TCN,2024-06-25_09h52.13.446,LearnStrategy,2023.2.3,Win32,59.17159763,4,2,11,,,,,,,,4,14,,,,,,,,,,,2,1.249,0,,,,,,-0.087037051,-0.24537037,1,0,0,1.2493,Basalt_rect,10,0,10,0,1,
57d0a0bee3221e00015fe385,TCN,2024-06-25_09h52.13.446,LearnStrategy,2023.2.3,Win32,59.17159763,4,2,12,,,,,,,,1,11,,,,,,,,,,,6,0.999,0,,,,,,-0.121296282,-0.387037065,1,0,0,0.9993,Pegmatite_rect,11,0,11,0,1,
57d0a0bee3221e00015fe385,TCN,2024-06-25_09h52.13.446,LearnStrategy,2023.2.3,Win32,59.17159763,4,2,13,,,,,,,,8,02,,,,,,,,,,,8,1.417,1,,,,,,0.383333418,-0.404629672,1,0,0,1.4173,Pumice_rect,12,0,12,0,1,
57d0a0bee3221e00015fe385,TCN,2024-06-25_09h52.13.446,LearnStrategy,2023.2.3,Win32,59.17159763,4,2,14,,,,,,,,5,16,,,,,,,,,,,5,1.2,1,,,,,,-0.404629637,-0.387962977,1,0,0,1.2001,Obsidian_rect,13,0,13,0,1,
57d0a0bee3221e00015fe385,TCN,2024-06-25_09h52.13.446,LearnStrategy,2023.2.3,Win32,59.17159763,4,2,15,,,,,,,,6,16,,,,,,,,,,,3,1.318,0,,,,,,0.063888903,-0.266666695,1,0,0,1.3176,Diorite_rect,14,0,14,0,1,
57d0a0bee3221e00015fe385,TCN,2024-06-25_09h52.13.446,LearnStrategy,2023.2.3,Win32,59.17159763,4,2,16,,,,,,,,7,07,,,,,,,,,,,7,1.368,1,,,,,,0.103703746,-0.395370413,1,0,0,1.3678,Peridotite_rect,15,0,15,0,1,
57d0a0bee3221e00015fe385,TCN,2024-06-25_09h52.13.446,LearnStrategy,2023.2.3,Win32,59.17159763,5,1,1,-0.037962949,0.01203703,1,0,0,1.566,rock_grid_rect_2,2,05,-1,-1,1.566,-0.156481496,-0.250925912,1,0,0,1.3211,Basalt_rect,2,1.321,1,0,0,0,0,1,,,,,,,,,,,,,
57d0a0bee3221e00015fe385,TCN,2024-06-25_09h52.13.446,LearnStrategy,2023.2.3,Win32,59.17159763,5,1,2,-0.051851838,-0.00462963,1,0,0,1.1658,rock_grid_rect_2,8,10,-1,-1,1.166,0.366666723,-0.381481524,1,0,0,1.5826,Pumice_rect,8,1.583,1,1,0,1,0,1,,,,,,,,,,,,,
57d0a0bee3221e00015fe385,TCN,2024-06-25_09h52.13.446,LearnStrategy,2023.2.3,Win32,59.17159763,5,1,3,-0.060185185,0.0074074,1,0,0,1.1813,rock_grid_rect_2,8,06,-1,-1,1.181,0.375,-0.405555584,1,0,0,1.3701,Pumice_rect,8,1.37,1,2,0,2,0,1,,,,,,,,,,,,,
57d0a0bee3221e00015fe385,TCN,2024-06-25_09h52.13.446,LearnStrategy,2023.2.3,Win32,59.17159763,5,1,4,0.020370413,-0.003703718,1,0,0,1.4813,rock_grid_rect_2,3,02,-1,-1,1.481,-0.393518519,-0.237037023,1,0,0,1.7695,Andesite_rect,1,1.769,0,3,0,3,0,1,,,,,,,,,,,,,
57d0a0bee3221e00015fe385,TCN,2024-06-25_09h52.13.446,LearnStrategy,2023.2.3,Win32,59.17159763,5,1,5,0.009259259,-0.01203703,1,0,0,1.1284,rock_grid_rect_2,6,08,-1,-1,1.128,-0.36296297,-0.384259259,1,0,0,2.5522,Obsidian_rect,5,2.552,0,4,0,4,0,1,,,,,,,,,,,,,
57d0a0bee3221e00015fe385,TCN,2024-06-25_09h52.13.446,LearnStrategy,2023.2.3,Win32,59.17159763,5,1,6,0.005555541,-0.0074074,1,0,0,1.2191,rock_grid_rect_2,4,15,-1,-1,1.219,-0.061111097,-0.391666695,1,0,0,1.8164,Pegmatite_rect,6,1.816,0,5,0,5,0,1,,,,,,,,,,,,,
57d0a0bee3221e00015fe385,TCN,2024-06-25_09h52.13.446,LearnStrategy,2023.2.3,Win32,59.17159763,5,1,7,-0.044444402,0.015740748,1,0,0,0.9496,rock_grid_rect_2,3,13,-1,-1,0.95,0.414814843,-0.236111111,1,0,0,1.4042,Gabbro_rect,4,1.404,0,6,0,6,0,1,,,,,,,,,,,,,
57d0a0bee3221e00015fe385,TCN,2024-06-25_09h52.13.446,LearnStrategy,2023.2.3,Win32,59.17159763,5,1,8,-0.074999986,0.009259259,1,0,0,0.9143,rock_grid_rect_2,7,15,-1,-1,0.914,0.071296339,-0.410185213,1,0,0,1.4834,Peridotite_rect,7,1.483,1,7,0,7,0,1,,,,,,,,,,,,,
57d0a0bee3221e00015fe385,TCN,2024-06-25_09h52.13.446,LearnStrategy,2023.2.3,Win32,59.17159763,5,1,9,-0.007407365,-0.0074074,1,0,0,1.1205,rock_grid_rect_2,2,10,-1,-1,1.12,-0.348148134,-0.406481496,1,0,0,1.9791,Obsidian_rect,5,1.979,0,8,0,8,0,1,,,,,,,,,,,,,
57d0a0bee3221e00015fe385,TCN,2024-06-25_09h52.13.446,LearnStrategy,2023.2.3,Win32,59.17159763,5,1,10,-0.051851838,-0.006481489,1,0,0,1.0208,rock_grid_rect_2,6,06,-1,-1,1.021,-0.057407379,-0.408333319,1,0,0,1.3643,Pegmatite_rect,6,1.364,1,9,0,9,0,1,,,,,,,,,,,,,
57d0a0bee3221e00015fe385,TCN,2024-06-25_09h52.13.446,LearnStrategy,2023.2.3,Win32,59.17159763,5,1,11,0.016666695,-0.009259259,1,0,0,1.1324,rock_grid_rect_2,5,10,-1,-1,1.132,-0.377777771,-0.400000042,1,0,0,1.2318,Obsidian_rect,5,1.232,1,10,0,10,0,1,,,,,,,,,,,,,
57d0a0bee3221e00015fe385,TCN,2024-06-25_09h52.13.446,LearnStrategy,2023.2.3,Win32,59.17159763,5,1,12,0.012962977,0.00462963,1,0,0,1.1536,rock_grid_rect_2,7,10,-1,-1,1.154,0.111111111,-0.390740783,1,0,0,2.0466,Peridotite_rect,7,2.047,1,11,0,11,0,1,,,,,,,,,,,,,
57d0a0bee3221e00015fe385,TCN,2024-06-25_09h52.13.446,LearnStrategy,2023.2.3,Win32,59.17159763,5,1,13,0.035185213,-0.001851859,1,0,0,1.9161,rock_grid_rect_2,4,16,-1,-1,1.916,-0.130555541,-0.240740741,1,0,0,1.2869,Basalt_rect,2,1.287,0,12,0,12,0,1,,,,,,,,,,,,,
57d0a0bee3221e00015fe385,TCN,2024-06-25_09h52.13.446,LearnStrategy,2023.2.3,Win32,59.17159763,5,1,14,0,-0.017592607,1,0,0,1.1483,rock_grid_rect_2,1,07,-1,-1,1.148,0.321296268,-0.247222265,1,0,0,3.8697,Gabbro_rect,4,3.87,0,13,0,13,0,1,,,,,,,,,,,,,
57d0a0bee3221e00015fe385,TCN,2024-06-25_09h52.13.446,LearnStrategy,2023.2.3,Win32,59.17159763,5,1,15,-0.040740755,-0.019444466,1,0,0,1.0484,rock_grid_rect_2,5,12,-1,-1,1.048,-0.372222229,-0.390740783,1,0,0,1.9536,Obsidian_rect,5,1.954,1,14,0,14,0,1,,,,,,,,,,,,,
57d0a0bee3221e00015fe385,TCN,2024-06-25_09h52.13.446,LearnStrategy,2023.2.3,Win32,59.17159763,5,1,16,-0.02870369,-0.011111118,1,0,0,1.3547,rock_grid_rect_2,1,09,-1,-1,1.355,-0.360185164,-0.262962977,1,0,0,1.3278,Andesite_rect,1,1.328,1,15,0,15,0,1,,,,,,,,,,,,,
57d0a0bee3221e00015fe385,TCN,2024-06-25_09h52.13.446,LearnStrategy,2023.2.3,Win32,59.17159763,5,2,1,,,,,,,,8,09,,,,,,,,,,,8,1.284,1,,,,,,0.373148176,-0.409259302,1,0,0,1.2837,Pumice_rect,0,0,0,0,1,
57d0a0bee3221e00015fe385,TCN,2024-06-25_09h52.13.446,LearnStrategy,2023.2.3,Win32,59.17159763,5,2,2,,,,,,,,6,15,,,,,,,,,,,3,2.034,0,,,,,,0.069444444,-0.244444459,1,0,0,2.0336,Diorite_rect,1,0,1,0,1,
57d0a0bee3221e00015fe385,TCN,2024-06-25_09h52.13.446,LearnStrategy,2023.2.3,Win32,59.17159763,5,2,3,,,,,,,,2,09,,,,,,,,,,,2,1.082,1,,,,,,-0.118518476,-0.255555541,1,0,0,1.0817,Basalt_rect,2,0,2,0,1,
57d0a0bee3221e00015fe385,TCN,2024-06-25_09h52.13.446,LearnStrategy,2023.2.3,Win32,59.17159763,5,2,4,,,,,,,,7,08,,,,,,,,,,,7,1.317,1,,,,,,0.114814829,-0.414814843,1,0,0,1.3174,Peridotite_rect,3,0,3,0,1,
57d0a0bee3221e00015fe385,TCN,2024-06-25_09h52.13.446,LearnStrategy,2023.2.3,Win32,59.17159763,5,2,5,,,,,,,,4,08,,,,,,,,,,,1,3.616,0,,,,,,-0.324999986,-0.271296325,1,0,0,3.6162,Andesite_rect,4,0,4,0,1,
57d0a0bee3221e00015fe385,TCN,2024-06-25_09h52.13.446,LearnStrategy,2023.2.3,Win32,59.17159763,5,2,6,,,,,,,,2,14,,,,,,,,,,,8,1.878,0,,,,,,0.349074046,-0.386111153,1,0,0,1.8779,Pumice_rect,5,0,5,0,1,
57d0a0bee3221e00015fe385,TCN,2024-06-25_09h52.13.446,LearnStrategy,2023.2.3,Win32,59.17159763,5,2,7,,,,,,,,8,13,,,,,,,,,,,3,3.421,0,,,,,,0.133333347,-0.261111153,1,0,0,3.4208,Diorite_rect,6,0,6,0,1,
57d0a0bee3221e00015fe385,TCN,2024-06-25_09h52.13.446,LearnStrategy,2023.2.3,Win32,59.17159763,5,2,8,,,,,,,,1,14,,,,,,,,,,,6,2.081,0,,,,,,-0.058333291,-0.408333319,1,0,0,2.0808,Pegmatite_rect,7,0,7,0,1,
57d0a0bee3221e00015fe385,TCN,2024-06-25_09h52.13.446,LearnStrategy,2023.2.3,Win32,59.17159763,5,2,9,,,,,,,,7,05,,,,,,,,,,,7,1.15,1,,,,,,0.132407436,-0.39444443,1,0,0,1.15,Peridotite_rect,8,0,8,0,1,
57d0a0bee3221e00015fe385,TCN,2024-06-25_09h52.13.446,LearnStrategy,2023.2.3,Win32,59.17159763,5,2,10,,,,,,,,4,12,,,,,,,,,,,4,1.663,1,,,,,,0.350926011,-0.256481524,1,0,0,1.6629,Gabbro_rect,9,0,9,0,1,
57d0a0bee3221e00015fe385,TCN,2024-06-25_09h52.13.446,LearnStrategy,2023.2.3,Win32,59.17159763,5,2,11,,,,,,,,5,02,,,,,,,,,,,5,1.403,1,,,,,,-0.373148141,-0.387037065,1,0,0,1.4033,Obsidian_rect,10,0,10,0,1,
57d0a0bee3221e00015fe385,TCN,2024-06-25_09h52.13.446,LearnStrategy,2023.2.3,Win32,59.17159763,5,2,12,,,,,,,,3,16,,,,,,,,,,,1,2.333,0,,,,,,-0.359259252,-0.243518547,1,0,0,2.3334,Andesite_rect,11,0,11,0,1,
57d0a0bee3221e00015fe385,TCN,2024-06-25_09h52.13.446,LearnStrategy,2023.2.3,Win32,59.17159763,5,2,13,,,,,,,,1,06,,,,,,,,,,,3,3.097,0,,,,,,0.147222236,-0.270370413,1,0,0,3.097,Diorite_rect,12,0,12,0,1,
57d0a0bee3221e00015fe385,TCN,2024-06-25_09h52.13.446,LearnStrategy,2023.2.3,Win32,59.17159763,5,2,14,,,,,,,,3,07,,,,,,,,,,,3,0.897,1,,,,,,0.147222236,-0.270370413,1,0,0,0.8973,Diorite_rect,13,0,13,0,1,
57d0a0bee3221e00015fe385,TCN,2024-06-25_09h52.13.446,LearnStrategy,2023.2.3,Win32,59.17159763,5,2,15,,,,,,,,6,05,,,,,,,,,,,6,2.835,1,,,,,,-0.136111083,-0.391666695,1,0,0,2.8345,Pegmatite_rect,14,0,14,0,1,
57d0a0bee3221e00015fe385,TCN,2024-06-25_09h52.13.446,LearnStrategy,2023.2.3,Win32,59.17159763,5,2,16,,,,,,,,5,08,,,,,,,,,,,5,1.06,1,,,,,,-0.341666645,-0.39444443,1,0,0,1.0605,Obsidian_rect,15,0,15,0,1,
57d0a0bee3221e00015fe385,TCN,2024-06-25_09h52.13.446,LearnStrategy,2023.2.3,Win32,59.17159763,6,1,1,-0.02870369,-0.008333347,1,0,0,2.4664,rock_grid_rect_2,7,12,-1,-1,2.466,0.114814829,-0.396296325,1,0,0,1.7183,Peridotite_rect,7,1.718,1,0,0,0,0,1,,,,,,,,,,,,,
57d0a0bee3221e00015fe385,TCN,2024-06-25_09h52.13.446,LearnStrategy,2023.2.3,Win32,59.17159763,6,1,2,-0.020370342,-0.00462963,1,0,0,1.262,rock_grid_rect_2,2,16,-1,-1,1.262,-0.10555557,-0.263888889,1,0,0,1.6201,Basalt_rect,2,1.62,1,1,0,1,0,1,,,,,,,,,,,,,
57d0a0bee3221e00015fe385,TCN,2024-06-25_09h52.13.446,LearnStrategy,2023.2.3,Win32,59.17159763,6,1,3,-0.035185143,0.0074074,1,0,0,1.3516,rock_grid_rect_2,5,06,-1,-1,1.352,-0.352777764,-0.405555584,1,0,0,1.6012,Obsidian_rect,5,1.601,1,2,0,2,0,1,,,,,,,,,,,,,
57d0a0bee3221e00015fe385,TCN,2024-06-25_09h52.13.446,LearnStrategy,2023.2.3,Win32,59.17159763,6,1,4,0.016666695,0.0074074,1,0,0,1.4674,rock_grid_rect_2,8,05,-1,-1,1.467,0.426851908,-0.411111125,1,0,0,1.297,Pumice_rect,8,1.297,1,3,0,3,0,1,,,,,,,,,,,,,
57d0a0bee3221e00015fe385,TCN,2024-06-25_09h52.13.446,LearnStrategy,2023.2.3,Win32,59.17159763,6,1,5,-0.026851866,-0.010185206,1,0,0,1.2648,rock_grid_rect_2,3,11,-1,-1,1.265,0.128703718,-0.238888917,1,0,0,3.469,Diorite_rect,3,3.469,1,4,0,4,0,1,,,,,,,,,,,,,
57d0a0bee3221e00015fe385,TCN,2024-06-25_09h52.13.446,LearnStrategy,2023.2.3,Win32,59.17159763,6,1,6,-0.012036995,-0.010185206,1,0,0,1.271,rock_grid_rect_2,6,13,-1,-1,1.271,-0.104629587,-0.396296325,1,0,0,1.8964,Pegmatite_rect,6,1.896,1,5,0,5,0,1,,,,,,,,,,,,,
57d0a0bee3221e00015fe385,TCN,2024-06-25_09h52.13.446,LearnStrategy,2023.2.3,Win32,59.17159763,6,1,7,-0.042592578,-0.012962977,1,0,0,1.1352,rock_grid_rect_2,1,01,-1,-1,1.135,0.10555557,-0.400925954,1,0,0,1.6168,Peridotite_rect,7,1.617,0,6,0,6,0,1,,,,,,,,,,,,,
57d0a0bee3221e00015fe385,TCN,2024-06-25_09h52.13.446,LearnStrategy,2023.2.3,Win32,59.17159763,6,1,8,-0.01944443,-0.011111118,1,0,0,1.0825,rock_grid_rect_2,6,03,-1,-1,1.082,0.101851852,-0.393518519,1,0,0,1.5869,Peridotite_rect,7,1.587,0,7,0,7,0,1,,,,,,,,,,,,,
57d0a0bee3221e00015fe385,TCN,2024-06-25_09h52.13.446,LearnStrategy,2023.2.3,Win32,59.17159763,6,1,9,-0.060185185,0.008333312,1,0,0,1.0662,rock_grid_rect_2,3,14,-1,-1,1.066,0.108333376,-0.240740741,1,0,0,4.2208,Diorite_rect,3,4.221,1,8,0,8,0,1,,,,,,,,,,,,,
57d0a0bee3221e00015fe385,TCN,2024-06-25_09h52.13.446,LearnStrategy,2023.2.3,Win32,59.17159763,6,1,10,-0.034259231,-0.001851859,1,0,0,1.2214,rock_grid_rect_2,4,10,-1,-1,1.221,-0.148148148,-0.257407436,1,0,0,1.9454,Basalt_rect,2,1.945,0,9,0,9,0,1,,,,,,,,,,,,,
57d0a0bee3221e00015fe385,TCN,2024-06-25_09h52.13.446,LearnStrategy,2023.2.3,Win32,59.17159763,6,1,11,-0.022222236,-0.001851859,1,0,0,1.0823,rock_grid_rect_2,1,16,-1,-1,1.082,0.058333362,-0.239814829,1,0,0,2.303,Diorite_rect,3,2.303,0,10,0,10,0,1,,,,,,,,,,,,,
57d0a0bee3221e00015fe385,TCN,2024-06-25_09h52.13.446,LearnStrategy,2023.2.3,Win32,59.17159763,6,1,12,-0.027777778,0.002777771,1,0,0,1.1662,rock_grid_rect_2,8,15,-1,-1,1.166,0.3648149,-0.392592607,1,0,0,1.3514,Pumice_rect,8,1.351,1,11,0,11,0,1,,,,,,,,,,,,,
57d0a0bee3221e00015fe385,TCN,2024-06-25_09h52.13.446,LearnStrategy,2023.2.3,Win32,59.17159763,6,1,13,0.013888889,-0.011111118,1,0,0,1.333,rock_grid_rect_2,7,13,-1,-1,1.333,0.108333376,-0.387962977,1,0,0,1.3344,Peridotite_rect,7,1.334,1,12,0,12,0,1,,,,,,,,,,,,,
57d0a0bee3221e00015fe385,TCN,2024-06-25_09h52.13.446,LearnStrategy,2023.2.3,Win32,59.17159763,6,1,14,-0.011111083,-0.0074074,1,0,0,1.2211,rock_grid_rect_2,2,04,-1,-1,1.221,-0.154629601,-0.23055557,1,0,0,1.1971,Basalt_rect,2,1.197,1,13,0,13,0,1,,,,,,,,,,,,,
57d0a0bee3221e00015fe385,TCN,2024-06-25_09h52.13.446,LearnStrategy,2023.2.3,Win32,59.17159763,6,1,15,0.016666695,0.014814801,1,0,0,1.1986,rock_grid_rect_2,5,09,-1,-1,1.199,-0.397222201,-0.387037065,1,0,0,1.2681,Obsidian_rect,5,1.268,1,14,0,14,0,1,,,,,,,,,,,,,
57d0a0bee3221e00015fe385,TCN,2024-06-25_09h52.13.446,LearnStrategy,2023.2.3,Win32,59.17159763,6,1,16,-0.02870369,-0.002777771,1,0,0,1.1814,rock_grid_rect_2,4,01,-1,-1,1.181,-0.377777771,-0.263888889,1,0,0,2.0367,Andesite_rect,1,2.037,0,15,0,15,0,1,,,,,,,,,,,,,
57d0a0bee3221e00015fe385,TCN,2024-06-25_09h52.13.446,LearnStrategy,2023.2.3,Win32,59.17159763,6,2,1,,,,,,,,1,05,,,,,,,,,,,7,2.4,0,,,,,,0.075925968,-0.419444473,1,0,0,2.4,Peridotite_rect,0,0,0,0,1,
57d0a0bee3221e00015fe385,TCN,2024-06-25_09h52.13.446,LearnStrategy,2023.2.3,Win32,59.17159763,6,2,2,,,,,,,,3,12,,,,,,,,,,,1,2.094,0,,,,,,-0.360185164,-0.236111111,1,0,0,2.0941,Andesite_rect,1,0,1,0,1,
57d0a0bee3221e00015fe385,TCN,2024-06-25_09h52.13.446,LearnStrategy,2023.2.3,Win32,59.17159763,6,2,3,,,,,,,,5,11,,,,,,,,,,,5,1.4,1,,,,,,-0.376851859,-0.383333347,1,0,0,1.3999,Obsidian_rect,2,0,2,0,1,
57d0a0bee3221e00015fe385,TCN,2024-06-25_09h52.13.446,LearnStrategy,2023.2.3,Win32,59.17159763,6,2,4,,,,,,,,2,06,,,,,,,,,,,2,1.302,1,,,,,,-0.143518519,-0.235185199,1,0,0,1.302,Basalt_rect,3,0,3,0,1,
57d0a0bee3221e00015fe385,TCN,2024-06-25_09h52.13.446,LearnStrategy,2023.2.3,Win32,59.17159763,6,2,5,,,,,,,,4,05,,,,,,,,,,,7,1.801,0,,,,,,0.062037079,-0.400925954,1,0,0,1.8007,Peridotite_rect,4,0,4,0,1,
57d0a0bee3221e00015fe385,TCN,2024-06-25_09h52.13.446,LearnStrategy,2023.2.3,Win32,59.17159763,6,2,6,,,,,,,,2,12,,,,,,,,,,,8,1.331,0,,,,,,0.354629658,-0.387037065,1,0,0,1.3311,Pumice_rect,5,0,5,0,1,
57d0a0bee3221e00015fe385,TCN,2024-06-25_09h52.13.446,LearnStrategy,2023.2.3,Win32,59.17159763,6,2,7,,,,,,,,3,10,,,,,,,,,,,3,1.284,1,,,,,,0.155555584,-0.256481524,1,0,0,1.2835,Diorite_rect,6,0,6,0,1,
57d0a0bee3221e00015fe385,TCN,2024-06-25_09h52.13.446,LearnStrategy,2023.2.3,Win32,59.17159763,6,2,8,,,,,,,,6,12,,,,,,,,,,,6,3.213,1,,,,,,-0.115740741,-0.414814843,1,0,0,3.2131,Pegmatite_rect,7,0,7,0,1,
57d0a0bee3221e00015fe385,TCN,2024-06-25_09h52.13.446,LearnStrategy,2023.2.3,Win32,59.17159763,6,2,9,,,,,,,,7,02,,,,,,,,,,,7,1.327,1,,,,,,0.117592635,-0.401851866,1,0,0,1.3266,Peridotite_rect,8,0,8,0,1,
57d0a0bee3221e00015fe385,TCN,2024-06-25_09h52.13.446,LearnStrategy,2023.2.3,Win32,59.17159763,6,2,10,,,,,,,,5,07,,,,,,,,,,,5,2.338,1,,,,,,-0.321296303,-0.387962977,1,0,0,2.338,Obsidian_rect,9,0,9,0,1,
57d0a0bee3221e00015fe385,TCN,2024-06-25_09h52.13.446,LearnStrategy,2023.2.3,Win32,59.17159763,6,2,11,,,,,,,,8,03,,,,,,,,,,,8,1.418,1,,,,,,0.380555612,-0.39444443,1,0,0,1.4185,Pumice_rect,10,0,10,0,1,
57d0a0bee3221e00015fe385,TCN,2024-06-25_09h52.13.446,LearnStrategy,2023.2.3,Win32,59.17159763,6,2,12,,,,,,,,7,04,,,,,,,,,,,6,1.882,0,,,,,,-0.103703675,-0.385185171,1,0,0,1.8824,Pegmatite_rect,11,0,11,0,1,
57d0a0bee3221e00015fe385,TCN,2024-06-25_09h52.13.446,LearnStrategy,2023.2.3,Win32,59.17159763,6,2,13,,,,,,,,4,13,,,,,,,,,,,4,2.465,1,,,,,,0.374074159,-0.256481524,1,0,0,2.4648,Gabbro_rect,12,0,12,0,1,
57d0a0bee3221e00015fe385,TCN,2024-06-25_09h52.13.446,LearnStrategy,2023.2.3,Win32,59.17159763,6,2,14,,,,,,,,6,11,,,,,,,,,,,5,3.064,0,,,,,,-0.364814794,-0.416666667,1,0,0,3.0643,Obsidian_rect,13,0,13,0,1,
57d0a0bee3221e00015fe385,TCN,2024-06-25_09h52.13.446,LearnStrategy,2023.2.3,Win32,59.17159763,6,2,15,,,,,,,,8,04,,,,,,,,,,,8,1.166,1,,,,,,0.392592677,-0.405555584,1,0,0,1.1663,Pumice_rect,14,0,14,0,1,
57d0a0bee3221e00015fe385,TCN,2024-06-25_09h52.13.446,LearnStrategy,2023.2.3,Win32,59.17159763,6,2,16,,,,,,,,1,10,,,,,,,,,,,6,3.377,0,,,,,,-0.118518476,-0.388888889,1,0,0,3.3773,Pegmatite_rect,15,0,15,0,1,
57d0a0bee3221e00015fe385,TCN,2024-06-25_09h52.13.446,LearnStrategy,2023.2.3,Win32,59.17159763,7,1,1,-0.027777778,-0.012962977,1,0,0,2.4494,rock_grid_rect_2,3,14,-1,-1,2.449,0.108333376,-0.249074088,1,0,0,1.8369,Diorite_rect,3,1.837,1,0,0,0,0,1,,,,,,,,,,,,,
57d0a0bee3221e00015fe385,TCN,2024-06-25_09h52.13.446,LearnStrategy,2023.2.3,Win32,59.17159763,7,1,2,-0.027777778,0.002777771,1,0,0,2.3201,rock_grid_rect_2,2,05,-1,-1,2.32,-0.14444443,-0.233333376,1,0,0,1.4163,Basalt_rect,2,1.416,1,1,0,1,0,1,,,,,,,,,,,,,
57d0a0bee3221e00015fe385,TCN,2024-06-25_09h52.13.446,LearnStrategy,2023.2.3,Win32,59.17159763,7,1,3,0.014814801,0.001851859,1,0,0,1.2694,rock_grid_rect_2,3,08,-1,-1,1.269,0.114814829,-0.237037023,1,0,0,1.2506,Diorite_rect,3,1.251,1,2,0,2,0,1,,,,,,,,,,,,,
57d0a0bee3221e00015fe385,TCN,2024-06-25_09h52.13.446,LearnStrategy,2023.2.3,Win32,59.17159763,7,1,4,0.010185171,-0.022222236,1,0,0,1.4626,rock_grid_rect_2,6,13,-1,-1,1.463,-0.082407422,-0.409259302,1,0,0,1.7016,Pegmatite_rect,6,1.702,1,3,0,3,0,1,,,,,,,,,,,,,
57d0a0bee3221e00015fe385,TCN,2024-06-25_09h52.13.446,LearnStrategy,2023.2.3,Win32,59.17159763,7,1,5,-0.012962977,-0.013888889,1,0,0,1.1991,rock_grid_rect_2,4,15,-1,-1,1.199,0.086111139,-0.257407436,1,0,0,3.7543,Diorite_rect,3,3.754,0,4,0,4,0,1,,,,,,,,,,,,,
57d0a0bee3221e00015fe385,TCN,2024-06-25_09h52.13.446,LearnStrategy,2023.2.3,Win32,59.17159763,7,1,6,-0.016666624,-0.006481489,1,0,0,1.0194,rock_grid_rect_2,8,14,-1,-1,1.019,0.377777806,-0.412037037,1,0,0,1.2482,Pumice_rect,8,1.248,1,5,0,5,0,1,,,,,,,,,,,,,
57d0a0bee3221e00015fe385,TCN,2024-06-25_09h52.13.446,LearnStrategy,2023.2.3,Win32,59.17159763,7,1,7,0.01944443,0.003703683,1,0,0,1.136,rock_grid_rect_2,8,15,-1,-1,1.136,0.389814871,-0.393518519,1,0,0,1.1985,Pumice_rect,8,1.198,1,6,0,6,0,1,,,,,,,,,,,,,
57d0a0bee3221e00015fe385,TCN,2024-06-25_09h52.13.446,LearnStrategy,2023.2.3,Win32,59.17159763,7,1,8,0.006481524,-0.012962977,1,0,0,1.1485,rock_grid_rect_2,4,11,-1,-1,1.149,-0.101851852,-0.255555541,1,0,0,1.9371,Basalt_rect,2,1.937,0,7,0,7,0,1,,,,,,,,,,,,,
57d0a0bee3221e00015fe385,TCN,2024-06-25_09h52.13.446,LearnStrategy,2023.2.3,Win32,59.17159763,7,1,9,-0.059259273,-0.000925947,1,0,0,0.9791,rock_grid_rect_2,7,16,-1,-1,0.979,0.103703746,-0.387037065,1,0,0,2.0346,Peridotite_rect,7,2.035,1,8,0,8,0,1,,,,,,,,,,,,,
57d0a0bee3221e00015fe385,TCN,2024-06-25_09h52.13.446,LearnStrategy,2023.2.3,Win32,59.17159763,7,1,10,-0.074074074,-0.014814836,1,0,0,1.0994,rock_grid_rect_2,1,09,-1,-1,1.099,0.10092594,-0.242592635,1,0,0,1.9851,Diorite_rect,3,1.985,0,9,0,9,0,1,,,,,,,,,,,,,
57d0a0bee3221e00015fe385,TCN,2024-06-25_09h52.13.446,LearnStrategy,2023.2.3,Win32,59.17159763,7,1,11,-0.012036995,0.008333312,1,0,0,1.0992,rock_grid_rect_2,1,04,-1,-1,1.099,0.08148151,-0.238888917,1,0,0,1.2527,Diorite_rect,3,1.253,0,10,0,10,0,1,,,,,,,,,,,,,
57d0a0bee3221e00015fe385,TCN,2024-06-25_09h52.13.446,LearnStrategy,2023.2.3,Win32,59.17159763,7,1,12,-0.016666624,-0.002777771,1,0,0,0.9489,rock_grid_rect_2,2,01,-1,-1,0.949,-0.081481439,-0.259259259,1,0,0,1.103,Basalt_rect,2,1.103,1,11,0,11,0,1,,,,,,,,,,,,,
57d0a0bee3221e00015fe385,TCN,2024-06-25_09h52.13.446,LearnStrategy,2023.2.3,Win32,59.17159763,7,1,13,0.034259302,-0.005555577,1,0,0,1.1192,rock_grid_rect_2,7,12,-1,-1,1.119,0.080555598,-0.39907406,1,0,0,1.1477,Peridotite_rect,7,1.148,1,12,0,12,0,1,,,,,,,,,,,,,
57d0a0bee3221e00015fe385,TCN,2024-06-25_09h52.13.446,LearnStrategy,2023.2.3,Win32,59.17159763,7,1,14,-0.050925926,-0.002777771,1,0,0,1.0148,rock_grid_rect_2,5,05,-1,-1,1.015,-0.448148127,-0.419444473,1,0,0,1.4028,Obsidian_rect,5,1.403,1,13,0,13,0,1,,,,,,,,,,,,,
57d0a0bee3221e00015fe385,TCN,2024-06-25_09h52.13.446,LearnStrategy,2023.2.3,Win32,59.17159763,7,1,15,-0.029629601,-0.01203703,1,0,0,1.066,rock_grid_rect_2,5,12,-1,-1,1.066,-0.389814801,-0.387037065,1,0,0,1.235,Obsidian_rect,5,1.235,1,14,0,14,0,1,,,,,,,,,,,,,
57d0a0bee3221e00015fe385,TCN,2024-06-25_09h52.13.446,LearnStrategy,2023.2.3,Win32,59.17159763,7,1,16,0.012037065,-0.00462963,1,0,0,1.1994,rock_grid_rect_2,6,06,-1,-1,1.199,-0.114814829,-0.400925954,1,0,0,2.1363,Pegmatite_rect,6,2.136,1,15,0,15,0,1,,,,,,,,,,,,,
57d0a0bee3221e00015fe385,TCN,2024-06-25_09h52.13.446,LearnStrategy,2023.2.3,Win32,59.17159763,7,2,1,,,,,,,,2,11,,,,,,,,,,,8,1.414,0,,,,,,0.460185157,-0.39444443,1,0,0,1.4136,Pumice_rect,0,0,0,0,1,
57d0a0bee3221e00015fe385,TCN,2024-06-25_09h52.13.446,LearnStrategy,2023.2.3,Win32,59.17159763,7,2,2,,,,,,,,4,09,,,,,,,,,,,5,2.85,0,,,,,,-0.395370377,-0.398148148,1,0,0,2.8502,Obsidian_rect,1,0,1,0,1,
57d0a0bee3221e00015fe385,TCN,2024-06-25_09h52.13.446,LearnStrategy,2023.2.3,Win32,59.17159763,7,2,3,,,,,,,,6,16,,,,,,,,,,,3,1.398,0,,,,,,0.112963005,-0.262037065,1,0,0,1.3977,Diorite_rect,2,0,2,0,1,
57d0a0bee3221e00015fe385,TCN,2024-06-25_09h52.13.446,LearnStrategy,2023.2.3,Win32,59.17159763,7,2,4,,,,,,,,5,08,,,,,,,,,,,5,1.781,1,,,,,,-0.422222208,-0.410185213,1,0,0,1.7812,Obsidian_rect,3,0,3,0,1,
57d0a0bee3221e00015fe385,TCN,2024-06-25_09h52.13.446,LearnStrategy,2023.2.3,Win32,59.17159763,7,2,5,,,,,,,,4,12,,,,,,,,,,,2,1.433,0,,,,,,-0.126851824,-0.248148176,1,0,0,1.4328,Basalt_rect,4,0,4,0,1,
57d0a0bee3221e00015fe385,TCN,2024-06-25_09h52.13.446,LearnStrategy,2023.2.3,Win32,59.17159763,7,2,6,,,,,,,,8,03,,,,,,,,,,,8,1.4,1,,,,,,0.371296353,-0.395370413,1,0,0,1.4004,Pumice_rect,5,0,5,0,1,
57d0a0bee3221e00015fe385,TCN,2024-06-25_09h52.13.446,LearnStrategy,2023.2.3,Win32,59.17159763,7,2,7,,,,,,,,8,08,,,,,,,,,,,8,1.068,1,,,,,,0.381481453,-0.396296325,1,0,0,1.0676,Pumice_rect,6,0,6,0,1,
57d0a0bee3221e00015fe385,TCN,2024-06-25_09h52.13.446,LearnStrategy,2023.2.3,Win32,59.17159763,7,2,8,,,,,,,,7,14,,,,,,,,,,,7,1.231,1,,,,,,0.12037037,-0.413888931,1,0,0,1.2312,Peridotite_rect,7,0,7,0,1,
57d0a0bee3221e00015fe385,TCN,2024-06-25_09h52.13.446,LearnStrategy,2023.2.3,Win32,59.17159763,7,2,9,,,,,,,,5,14,,,,,,,,,,,5,1.22,1,,,,,,-0.416666667,-0.418518561,1,0,0,1.2204,Obsidian_rect,8,0,8,0,1,
57d0a0bee3221e00015fe385,TCN,2024-06-25_09h52.13.446,LearnStrategy,2023.2.3,Win32,59.17159763,7,2,10,,,,,,,,3,10,,,,,,,,,,,3,1.649,1,,,,,,0.106481481,-0.258333347,1,0,0,1.6488,Diorite_rect,9,0,9,0,1,
57d0a0bee3221e00015fe385,TCN,2024-06-25_09h52.13.446,LearnStrategy,2023.2.3,Win32,59.17159763,7,2,11,,,,,,,,7,07,,,,,,,,,,,7,1.367,1,,,,,,0.078703704,-0.387962977,1,0,0,1.3668,Peridotite_rect,10,0,10,0,1,
57d0a0bee3221e00015fe385,TCN,2024-06-25_09h52.13.446,LearnStrategy,2023.2.3,Win32,59.17159763,7,2,12,,,,,,,,2,14,,,,,,,,,,,4,3.183,0,,,,,,0.338888945,-0.231481481,1,0,0,3.1835,Gabbro_rect,11,0,11,0,1,
57d0a0bee3221e00015fe385,TCN,2024-06-25_09h52.13.446,LearnStrategy,2023.2.3,Win32,59.17159763,7,2,13,,,,,,,,6,15,,,,,,,,,,,1,1.387,0,,,,,,-0.361111111,-0.248148176,1,0,0,1.3869,Andesite_rect,12,0,12,0,1,
57d0a0bee3221e00015fe385,TCN,2024-06-25_09h52.13.446,LearnStrategy,2023.2.3,Win32,59.17159763,7,2,14,,,,,,,,1,14,,,,,,,,,,,3,2.116,0,,,,,,0.089814857,-0.26944443,1,0,0,2.1165,Diorite_rect,13,0,13,0,1,
57d0a0bee3221e00015fe385,TCN,2024-06-25_09h52.13.446,LearnStrategy,2023.2.3,Win32,59.17159763,7,2,15,,,,,,,,3,16,,,,,,,,,,,6,2.262,0,,,,,,-0.154629601,-0.396296325,1,0,0,2.262,Pegmatite_rect,14,0,14,0,1,
57d0a0bee3221e00015fe385,TCN,2024-06-25_09h52.13.446,LearnStrategy,2023.2.3,Win32,59.17159763,7,2,16,,,,,,,,1,03,,,,,,,,,,,4,3.633,0,,,,,,0.384259259,-0.25,1,0,0,3.6332,Gabbro_rect,15,0,15,0,1,
57d0a0bee3221e00015fe385,TCN,2024-06-25_09h52.13.446,LearnStrategy,2023.2.3,Win32,59.17159763,8,1,1,0.010185171,-0.01203703,1,0,0,1.7659,rock_grid_rect_2,8,16,-1,-1,1.766,0.412963019,-0.413888931,1,0,0,2.051,Pumice_rect,8,2.051,1,0,0,0,0,1,,,,,,,,,,,,,
57d0a0bee3221e00015fe385,TCN,2024-06-25_09h52.13.446,LearnStrategy,2023.2.3,Win32,59.17159763,8,1,2,-0.025925884,-0.009259259,1,0,0,1.1499,rock_grid_rect_2,8,06,-1,-1,1.15,0.366666723,-0.412962949,1,0,0,1.3852,Pumice_rect,8,1.385,1,1,0,1,0,1,,,,,,,,,,,,,
57d0a0bee3221e00015fe385,TCN,2024-06-25_09h52.13.446,LearnStrategy,2023.2.3,Win32,59.17159763,8,1,3,-0.008333347,-0.023148148,1,0,0,1.2159,rock_grid_rect_2,4,10,-1,-1,1.216,-0.127777735,-0.228703746,1,0,0,1.7022,Basalt_rect,2,1.702,0,2,0,2,0,1,,,,,,,,,,,,,
57d0a0bee3221e00015fe385,TCN,2024-06-25_09h52.13.446,LearnStrategy,2023.2.3,Win32,59.17159763,8,1,4,0.038888931,-0.015740748,1,0,0,1.4652,rock_grid_rect_2,1,16,-1,-1,1.465,0.167592578,-0.25462963,1,0,0,2.7871,Diorite_rect,3,2.787,0,3,0,3,0,1,,,,,,,,,,,,,
57d0a0bee3221e00015fe385,TCN,2024-06-25_09h52.13.446,LearnStrategy,2023.2.3,Win32,59.17159763,8,1,5,-0.071296268,-0.008333347,1,0,0,0.8991,rock_grid_rect_2,3,11,-1,-1,0.899,0.132407436,-0.25,1,0,0,1.3188,Diorite_rect,3,1.319,1,4,0,4,0,1,,,,,,,,,,,,,
57d0a0bee3221e00015fe385,TCN,2024-06-25_09h52.13.446,LearnStrategy,2023.2.3,Win32,59.17159763,8,1,6,-0.056481467,0.006481489,1,0,0,1.1821,rock_grid_rect_2,4,16,-1,-1,1.182,-0.127777735,-0.25462963,1,0,0,1.285,Basalt_rect,2,1.285,0,5,0,5,0,1,,,,,,,,,,,,,
57d0a0bee3221e00015fe385,TCN,2024-06-25_09h52.13.446,LearnStrategy,2023.2.3,Win32,59.17159763,8,1,7,0.001851894,-0.018518519,1,0,0,0.966,rock_grid_rect_2,5,09,-1,-1,0.966,-0.3824074,-0.396296325,1,0,0,1.553,Obsidian_rect,5,1.553,1,6,0,6,0,1,,,,,,,,,,,,,
57d0a0bee3221e00015fe385,TCN,2024-06-25_09h52.13.446,LearnStrategy,2023.2.3,Win32,59.17159763,8,1,8,0.045370384,-0.001851859,1,0,0,1.1206,rock_grid_rect_2,6,09,-1,-1,1.121,0.126851894,-0.397222236,1,0,0,1.8626,Peridotite_rect,7,1.863,0,7,0,7,0,1,,,,,,,,,,,,,
57d0a0bee3221e00015fe385,TCN,2024-06-25_09h52.13.446,LearnStrategy,2023.2.3,Win32,59.17159763,8,1,9,-0.146296254,-0.018518519,1,0,0,1.2994,rock_grid_rect_2,7,15,-1,-1,1.299,0.095370399,-0.409259302,1,0,0,1.8138,Peridotite_rect,7,1.814,1,8,0,8,0,1,,,,,,,,,,,,,
57d0a0bee3221e00015fe385,TCN,2024-06-25_09h52.13.446,LearnStrategy,2023.2.3,Win32,59.17159763,8,1,10,0.010185171,-0.006481489,1,0,0,1.7986,rock_grid_rect_2,2,04,-1,-1,1.799,-0.165740755,-0.235185199,1,0,0,1.2037,Basalt_rect,2,1.204,1,9,0,9,0,1,,,,,,,,,,,,,
57d0a0bee3221e00015fe385,TCN,2024-06-25_09h52.13.446,LearnStrategy,2023.2.3,Win32,59.17159763,8,1,11,-0.042592578,-0.013888889,1,0,0,1.0821,rock_grid_rect_2,1,01,-1,-1,1.082,0.108333376,-0.247222265,1,0,0,1.4037,Diorite_rect,3,1.404,0,10,0,10,0,1,,,,,,,,,,,,,
57d0a0bee3221e00015fe385,TCN,2024-06-25_09h52.13.446,LearnStrategy,2023.2.3,Win32,59.17159763,8,1,12,0.016666695,0,1,0,0,2.0861,rock_grid_rect_2,2,16,-1,-1,2.086,-0.125,-0.242592635,1,0,0,2.0012,Basalt_rect,2,2.001,1,11,0,11,0,1,,,,,,,,,,,,,
57d0a0bee3221e00015fe385,TCN,2024-06-25_09h52.13.446,LearnStrategy,2023.2.3,Win32,59.17159763,8,1,13,-0.002777735,-0.021296289,1,0,0,1.3986,rock_grid_rect_2,5,04,-1,-1,1.399,-0.417592578,-0.387037065,1,0,0,1.4515,Obsidian_rect,5,1.452,1,12,0,12,0,1,,,,,,,,,,,,,
57d0a0bee3221e00015fe385,TCN,2024-06-25_09h52.13.446,LearnStrategy,2023.2.3,Win32,59.17159763,8,1,14,-0.036111125,0,1,0,0,1.1548,rock_grid_rect_2,6,03,-1,-1,1.155,0.10555557,-0.396296325,1,0,0,1.3137,Peridotite_rect,7,1.314,0,13,0,13,0,1,,,,,,,,,,,,,
57d0a0bee3221e00015fe385,TCN,2024-06-25_09h52.13.446,LearnStrategy,2023.2.3,Win32,59.17159763,8,1,15,-0.058333291,-0.001851859,1,0,0,1.0812,rock_grid_rect_2,7,13,-1,-1,1.081,0.095370399,-0.388888889,1,0,0,1.1707,Peridotite_rect,7,1.171,1,14,0,14,0,1,,,,,,,,,,,,,
57d0a0bee3221e00015fe385,TCN,2024-06-25_09h52.13.446,LearnStrategy,2023.2.3,Win32,59.17159763,8,1,16,-0.006481453,0.000925912,1,0,0,0.952,rock_grid_rect_2,3,06,-1,-1,0.952,0.3648149,-0.247222265,1,0,0,1.3133,Gabbro_rect,4,1.313,0,15,0,15,0,1,,,,,,,,,,,,,
57d0a0bee3221e00015fe385,TCN,2024-06-25_09h52.13.446,LearnStrategy,2023.2.3,Win32,59.17159763,8,2,1,,,,,,,,6,05,,,,,,,,,,,3,2.335,0,,,,,,0.112963005,-0.243518547,1,0,0,2.3347,Diorite_rect,0,0,0,0,1,
57d0a0bee3221e00015fe385,TCN,2024-06-25_09h52.13.446,LearnStrategy,2023.2.3,Win32,59.17159763,8,2,2,,,,,,,,6,11,,,,,,,,,,,5,2.364,0,,,,,,-0.393518519,-0.39907406,1,0,0,2.3642,Obsidian_rect,1,0,1,0,1,
57d0a0bee3221e00015fe385,TCN,2024-06-25_09h52.13.446,LearnStrategy,2023.2.3,Win32,59.17159763,8,2,3,,,,,,,,4,05,,,,,,,,,,,3,1.346,0,,,,,,0.123148176,-0.258333347,1,0,0,1.3464,Diorite_rect,2,0,2,0,1,
57d0a0bee3221e00015fe385,TCN,2024-06-25_09h52.13.446,LearnStrategy,2023.2.3,Win32,59.17159763,8,2,4,,,,,,,,8,02,,,,,,,,,,,8,1.535,1,,,,,,0.406481566,-0.418518561,1,0,0,1.5353,Pumice_rect,3,0,3,0,1,
57d0a0bee3221e00015fe385,TCN,2024-06-25_09h52.13.446,LearnStrategy,2023.2.3,Win32,59.17159763,8,2,5,,,,,,,,3,07,,,,,,,,,,,4,2.203,0,,,,,,0.366666723,-0.252777806,1,0,0,2.2031,Gabbro_rect,4,0,4,0,1,
57d0a0bee3221e00015fe385,TCN,2024-06-25_09h52.13.446,LearnStrategy,2023.2.3,Win32,59.17159763,8,2,6,,,,,,,,7,04,,,,,,,,,,,6,1.181,0,,,,,,-0.095370328,-0.389814801,1,0,0,1.1813,Pegmatite_rect,5,0,5,0,1,
57d0a0bee3221e00015fe385,TCN,2024-06-25_09h52.13.446,LearnStrategy,2023.2.3,Win32,59.17159763,8,2,7,,,,,,,,8,04,,,,,,,,,,,8,6.805,1,,,,,,0.41851849,-0.406481496,1,0,0,6.8046,Pumice_rect,6,0,6,0,1,
57d0a0bee3221e00015fe385,TCN,2024-06-25_09h52.13.446,LearnStrategy,2023.2.3,Win32,59.17159763,8,2,8,,,,,,,,1,05,,,,,,,,,,,7,1.277,0,,,,,,0.119444459,-0.411111125,1,0,0,1.2771,Peridotite_rect,7,0,7,0,1,
57d0a0bee3221e00015fe385,TCN,2024-06-25_09h52.13.446,LearnStrategy,2023.2.3,Win32,59.17159763,8,2,9,,,,,,,,4,08,,,,,,,,,,,2,1.65,0,,,,,,-0.117592564,-0.232407393,1,0,0,1.65,Basalt_rect,8,0,8,0,1,
57d0a0bee3221e00015fe385,TCN,2024-06-25_09h52.13.446,LearnStrategy,2023.2.3,Win32,59.17159763,8,2,10,,,,,,,,7,08,,,,,,,,,,,7,1.326,1,,,,,,0.09629631,-0.401851866,1,0,0,1.3259,Peridotite_rect,9,0,9,0,1,
57d0a0bee3221e00015fe385,TCN,2024-06-25_09h52.13.446,LearnStrategy,2023.2.3,Win32,59.17159763,8,2,11,,,,,,,,5,02,,,,,,,,,,,5,1.302,1,,,,,,-0.343518504,-0.400000042,1,0,0,1.3024,Obsidian_rect,10,0,10,0,1,
57d0a0bee3221e00015fe385,TCN,2024-06-25_09h52.13.446,LearnStrategy,2023.2.3,Win32,59.17159763,8,2,12,,,,,,,,2,12,,,,,,,,,,,8,1.249,0,,,,,,0.35555564,-0.384259259,1,0,0,1.2489,Pumice_rect,11,0,11,0,1,
57d0a0bee3221e00015fe385,TCN,2024-06-25_09h52.13.446,LearnStrategy,2023.2.3,Win32,59.17159763,8,2,13,,,,,,,,2,02,,,,,,,,,,,2,1.269,1,,,,,,-0.112962935,-0.260185171,1,0,0,1.2691,Basalt_rect,12,0,12,0,1,
57d0a0bee3221e00015fe385,TCN,2024-06-25_09h52.13.446,LearnStrategy,2023.2.3,Win32,59.17159763,8,2,14,,,,,,,,3,15,,,,,,,,,,,3,1.749,1,,,,,,0.135185171,-0.268518519,1,0,0,1.7488,Diorite_rect,13,0,13,0,1,
57d0a0bee3221e00015fe385,TCN,2024-06-25_09h52.13.446,LearnStrategy,2023.2.3,Win32,59.17159763,8,2,15,,,,,,,,1,10,,,,,,,,,,,1,2.068,1,,,,,,-0.329629616,-0.260185171,1,0,0,2.0676,Andesite_rect,14,0,14,0,1,
57d0a0bee3221e00015fe385,TCN,2024-06-25_09h52.13.446,LearnStrategy,2023.2.3,Win32,59.17159763,8,2,16,,,,,,,,5,16,,,,,,,,,,,5,0.999,1,,,,,,-0.348148134,-0.382407436,1,0,0,0.9995,Obsidian_rect,15,0,15,0,1,
57d0a0bee3221e00015fe385,TCN,2024-06-25_09h52.13.446,LearnStrategy,2023.2.3,Win32,59.17159763,9,1,1,-0.044444402,0.006481489,1,0,0,1.4706,rock_grid_rect_2,6,07,-1,-1,1.471,-0.397222201,-0.393518519,1,0,0,1.6648,Obsidian_rect,5,1.665,0,0,0,0,0,1,,,,,,,,,,,,,
57d0a0bee3221e00015fe385,TCN,2024-06-25_09h52.13.446,LearnStrategy,2023.2.3,Win32,59.17159763,9,1,2,0.053703732,-0.00462963,1,0,0,1.3957,rock_grid_rect_2,1,07,-1,-1,1.396,0.157407407,-0.253703718,1,0,0,1.4356,Diorite_rect,3,1.436,0,1,0,1,0,1,,,,,,,,,,,,,
57d0a0bee3221e00015fe385,TCN,2024-06-25_09h52.13.446,LearnStrategy,2023.2.3,Win32,59.17159763,9,1,3,-0.057407379,-0.00462963,1,0,0,1.0146,rock_grid_rect_2,4,01,-1,-1,1.015,0.150925954,-0.267592607,1,0,0,1.2858,Diorite_rect,3,1.286,0,2,0,2,0,1,,,,,,,,,,,,,
57d0a0bee3221e00015fe385,TCN,2024-06-25_09h52.13.446,LearnStrategy,2023.2.3,Win32,59.17159763,9,1,4,0.023148148,-0.000925947,1,0,0,0.965,rock_grid_rect_2,5,06,-1,-1,0.965,-0.412962949,-0.416666667,1,0,0,1.2187,Obsidian_rect,5,1.219,1,3,0,3,0,1,,,,,,,,,,,,,
57d0a0bee3221e00015fe385,TCN,2024-06-25_09h52.13.446,LearnStrategy,2023.2.3,Win32,59.17159763,9,1,5,-0.009259259,-0.024074095,1,0,0,1.0028,rock_grid_rect_2,4,03,-1,-1,1.003,0.10092594,-0.240740741,1,0,0,1.5788,Diorite_rect,3,1.579,0,4,0,4,0,1,,,,,,,,,,,,,
57d0a0bee3221e00015fe385,TCN,2024-06-25_09h52.13.446,LearnStrategy,2023.2.3,Win32,59.17159763,9,1,6,0.013888889,-0.002777771,1,0,0,0.9823,rock_grid_rect_2,7,06,-1,-1,0.982,0.102777764,-0.381481524,1,0,0,1.2358,Peridotite_rect,7,1.236,1,5,0,5,0,1,,,,,,,,,,,,,
57d0a0bee3221e00015fe385,TCN,2024-06-25_09h52.13.446,LearnStrategy,2023.2.3,Win32,59.17159763,9,1,7,0.031481496,0.009259259,1,0,0,1.2031,rock_grid_rect_2,2,08,-1,-1,1.203,-0.14907406,-0.253703718,1,0,0,1.2337,Basalt_rect,2,1.234,1,6,0,6,0,1,,,,,,,,,,,,,
57d0a0bee3221e00015fe385,TCN,2024-06-25_09h52.13.446,LearnStrategy,2023.2.3,Win32,59.17159763,9,1,8,0.047222208,0.013888889,1,0,0,1.1999,rock_grid_rect_2,3,13,-1,-1,1.2,0.093518504,-0.244444459,1,0,0,2.1537,Diorite_rect,3,2.154,1,7,0,7,0,1,,,,,,,,,,,,,
57d0a0bee3221e00015fe385,TCN,2024-06-25_09h52.13.446,LearnStrategy,2023.2.3,Win32,59.17159763,9,1,9,-0.060185185,-0.008333347,1,0,0,0.8702,rock_grid_rect_2,3,02,-1,-1,0.87,0.128703718,-0.229629658,1,0,0,1.0655,Diorite_rect,3,1.065,1,8,0,8,0,1,,,,,,,,,,,,,
57d0a0bee3221e00015fe385,TCN,2024-06-25_09h52.13.446,LearnStrategy,2023.2.3,Win32,59.17159763,9,1,10,-0.057407379,-0.011111118,1,0,0,1.4329,rock_grid_rect_2,7,10,-1,-1,1.433,0.092592593,-0.406481496,1,0,0,1.2362,Peridotite_rect,7,1.236,1,9,0,9,0,1,,,,,,,,,,,,,
57d0a0bee3221e00015fe385,TCN,2024-06-25_09h52.13.446,LearnStrategy,2023.2.3,Win32,59.17159763,9,1,11,0.062962991,-0.018518519,1,0,0,1.1171,rock_grid_rect_2,8,10,-1,-1,1.117,0.350926011,-0.397222236,1,0,0,1.2856,Pumice_rect,8,1.286,1,10,0,10,0,1,,,,,,,,,,,,,
57d0a0bee3221e00015fe385,TCN,2024-06-25_09h52.13.446,LearnStrategy,2023.2.3,Win32,59.17159763,9,1,12,-0.012036995,0.011111118,1,0,0,1.1322,rock_grid_rect_2,8,05,-1,-1,1.132,0.397222307,-0.401851866,1,0,0,1.3521,Pumice_rect,8,1.352,1,11,0,11,0,1,,,,,,,,,,,,,
57d0a0bee3221e00015fe385,TCN,2024-06-25_09h52.13.446,LearnStrategy,2023.2.3,Win32,59.17159763,9,1,13,0.00462963,0.00462963,1,0,0,1.1199,rock_grid_rect_2,2,10,-1,-1,1.12,-0.147222236,-0.247222265,1,0,0,1.4618,Basalt_rect,2,1.462,1,12,0,12,0,1,,,,,,,,,,,,,
57d0a0bee3221e00015fe385,TCN,2024-06-25_09h52.13.446,LearnStrategy,2023.2.3,Win32,59.17159763,9,1,14,-0.006481453,-0.008333347,1,0,0,1.1211,rock_grid_rect_2,1,02,-1,-1,1.121,-0.405555548,-0.236111111,1,0,0,1.5954,Andesite_rect,1,1.595,1,13,0,13,0,1,,,,,,,,,,,,,
57d0a0bee3221e00015fe385,TCN,2024-06-25_09h52.13.446,LearnStrategy,2023.2.3,Win32,59.17159763,9,1,15,-0.04351849,-0.003703718,1,0,0,1.2491,rock_grid_rect_2,6,08,-1,-1,1.249,-0.337962963,-0.392592607,1,0,0,1.6687,Obsidian_rect,5,1.669,0,14,0,14,0,1,,,,,,,,,,,,,
57d0a0bee3221e00015fe385,TCN,2024-06-25_09h52.13.446,LearnStrategy,2023.2.3,Win32,59.17159763,9,1,16,0.064814815,-0.01666666,1,0,0,1.216,rock_grid_rect_2,5,10,-1,-1,1.216,-0.355555534,-0.393518519,1,0,0,1.403,Obsidian_rect,5,1.403,1,15,0,15,0,1,,,,,,,,,,,,,
57d0a0bee3221e00015fe385,TCN,2024-06-25_09h52.13.446,LearnStrategy,2023.2.3,Win32,59.17159763,9,2,1,,,,,,,,6,12,,,,,,,,,,,6,1.349,1,,,,,,-0.051851838,-0.39444443,1,0,0,1.3489,Pegmatite_rect,0,0,0,0,1,
57d0a0bee3221e00015fe385,TCN,2024-06-25_09h52.13.446,LearnStrategy,2023.2.3,Win32,59.17159763,9,2,2,,,,,,,,8,13,,,,,,,,,,,8,1.251,1,,,,,,0.406481566,-0.404629672,1,0,0,1.2508,Pumice_rect,1,0,1,0,1,
57d0a0bee3221e00015fe385,TCN,2024-06-25_09h52.13.446,LearnStrategy,2023.2.3,Win32,59.17159763,9,2,3,,,,,,,,3,12,,,,,,,,,,,6,2.12,0,,,,,,-0.156481496,-0.417592578,1,0,0,2.1197,Pegmatite_rect,2,0,2,0,1,
57d0a0bee3221e00015fe385,TCN,2024-06-25_09h52.13.446,LearnStrategy,2023.2.3,Win32,59.17159763,9,2,4,,,,,,,,5,07,,,,,,,,,,,5,1.059,1,,,,,,-0.416666667,-0.397222236,1,0,0,1.0594,Obsidian_rect,3,0,3,0,1,
57d0a0bee3221e00015fe385,TCN,2024-06-25_09h52.13.446,LearnStrategy,2023.2.3,Win32,59.17159763,9,2,5,,,,,,,,7,02,,,,,,,,,,,7,1.51,1,,,,,,0.079629616,-0.395370413,1,0,0,1.5101,Peridotite_rect,4,0,4,0,1,
57d0a0bee3221e00015fe385,TCN,2024-06-25_09h52.13.446,LearnStrategy,2023.2.3,Win32,59.17159763,9,2,6,,,,,,,,4,14,,,,,,,,,,,6,2.646,0,,,,,,-0.107407393,-0.39907406,1,0,0,2.6457,Pegmatite_rect,5,0,5,0,1,
57d0a0bee3221e00015fe385,TCN,2024-06-25_09h52.13.446,LearnStrategy,2023.2.3,Win32,59.17159763,9,2,7,,,,,,,,4,13,,,,,,,,,,,1,3.029,0,,,,,,-0.388888889,-0.24537037,1,0,0,3.0289,Andesite_rect,6,0,6,0,1,
57d0a0bee3221e00015fe385,TCN,2024-06-25_09h52.13.446,LearnStrategy,2023.2.3,Win32,59.17159763,9,2,8,,,,,,,,1,06,,,,,,,,,,,4,1.628,0,,,,,,0.350926011,-0.263888889,1,0,0,1.628,Gabbro_rect,7,0,7,0,1,
57d0a0bee3221e00015fe385,TCN,2024-06-25_09h52.13.446,LearnStrategy,2023.2.3,Win32,59.17159763,9,2,9,,,,,,,,6,10,,,,,,,,,,,7,1.116,0,,,,,,0.10092594,-0.391666695,1,0,0,1.1159,Peridotite_rect,8,0,8,0,1,
57d0a0bee3221e00015fe385,TCN,2024-06-25_09h52.13.446,LearnStrategy,2023.2.3,Win32,59.17159763,9,2,10,,,,,,,,2,06,,,,,,,,,,,2,1.184,1,,,,,,-0.117592564,-0.250925912,1,0,0,1.1843,Basalt_rect,9,0,9,0,1,
57d0a0bee3221e00015fe385,TCN,2024-06-25_09h52.13.446,LearnStrategy,2023.2.3,Win32,59.17159763,9,2,11,,,,,,,,5,11,,,,,,,,,,,5,1.215,1,,,,,,-0.390740748,-0.39444443,1,0,0,1.2153,Obsidian_rect,10,0,10,0,1,
57d0a0bee3221e00015fe385,TCN,2024-06-25_09h52.13.446,LearnStrategy,2023.2.3,Win32,59.17159763,9,2,12,,,,,,,,1,11,,,,,,,,,,,4,1.834,0,,,,,,0.455555527,-0.24537037,1,0,0,1.834,Gabbro_rect,11,0,11,0,1,
57d0a0bee3221e00015fe385,TCN,2024-06-25_09h52.13.446,LearnStrategy,2023.2.3,Win32,59.17159763,9,2,13,,,,,,,,8,09,,,,,,,,,,,8,2.7,1,,,,,,0.377777806,-0.40370369,1,0,0,2.6998,Pumice_rect,12,0,12,0,1,
57d0a0bee3221e00015fe385,TCN,2024-06-25_09h52.13.446,LearnStrategy,2023.2.3,Win32,59.17159763,9,2,14,,,,,,,,3,09,,,,,,,,,,,3,3.581,1,,,,,,0.062037079,-0.257407436,1,0,0,3.5807,Diorite_rect,13,0,13,0,1,
57d0a0bee3221e00015fe385,TCN,2024-06-25_09h52.13.446,LearnStrategy,2023.2.3,Win32,59.17159763,9,2,15,,,,,,,,7,05,,,,,,,,,,,7,1.293,1,,,,,,0.065740727,-0.386111153,1,0,0,1.2932,Peridotite_rect,14,0,14,0,1,
57d0a0bee3221e00015fe385,TCN,2024-06-25_09h52.13.446,LearnStrategy,2023.2.3,Win32,59.17159763,9,2,16,,,,,,,,2,09,,,,,,,,,,,2,1.1,1,,,,,,-0.148148148,-0.240740741,1,0,0,1.1003,Basalt_rect,15,0,15,0,1,
57d0a0bee3221e00015fe385,TCN,2024-06-25_09h52.13.446,LearnStrategy,2023.2.3,Win32,59.17159763,,,,,,,,,,,,,,,,,,,,,,,,,,,,,,,,,,,,,,,,,,,0
57d0a0bee3221e00015fe385,TCN,2024-06-25_09h52.13.446,LearnStrategy,2023.2.3,Win32,59.17159763,,,,,,,,,,,,,,,,,,,,,,,,,,,,,,,,,,,,,,,,,,,
57d0a0bee3221e00015fe385,TCN,2024-06-25_09h52.13.446,LearnStrategy,2023.2.3,Win32,59.17159763,,,,,,,,,,,3,14,1,1,,,,,,,,,,,,,,,,,,,,,,,,,,,,,
57d0a0bee3221e00015fe385,TCN,2024-06-25_09h52.13.446,LearnStrategy,2023.2.3,Win32,59.17159763,,,,,,,,,,,1,02,1,2,,,,,,,,,,,,,,,,,,,,,,,,,,,,,
57d0a0bee3221e00015fe385,TCN,2024-06-25_09h52.13.446,LearnStrategy,2023.2.3,Win32,59.17159763,,,,,,,,,,,6,09,1,3,,,,,,,,,,,,,,,,,,,,,,,,,,,,,
57d0a0bee3221e00015fe385,TCN,2024-06-25_09h52.13.446,LearnStrategy,2023.2.3,Win32,59.17159763,,,,,,,,,,,1,07,1,4,,,,,,,,,,,,,,,,,,,,,,,,,,,,,
57d0a0bee3221e00015fe385,TCN,2024-06-25_09h52.13.446,LearnStrategy,2023.2.3,Win32,59.17159763,,,,,,,,,,,3,11,1,5,,,,,,,,,,,,,,,,,,,,,,,,,,,,,
57d0a0bee3221e00015fe385,TCN,2024-06-25_09h52.13.446,LearnStrategy,2023.2.3,Win32,59.17159763,,,,,,,,,,,7,16,1,6,,,,,,,,,,,,,,,,,,,,,,,,,,,,,
57d0a0bee3221e00015fe385,TCN,2024-06-25_09h52.13.446,LearnStrategy,2023.2.3,Win32,59.17159763,,,,,,,,,,,3,02,1,7,,,,,,,,,,,,,,,,,,,,,,,,,,,,,
57d0a0bee3221e00015fe385,TCN,2024-06-25_09h52.13.446,LearnStrategy,2023.2.3,Win32,59.17159763,,,,,,,,,,,5,10,1,8,,,,,,,,,,,,,,,,,,,,,,,,,,,,,
57d0a0bee3221e00015fe385,TCN,2024-06-25_09h52.13.446,LearnStrategy,2023.2.3,Win32,59.17159763,,,,,,,,,,,6,13,2,1,,,,,,,,,,,,,,,,,,,,,,,,,,,,,
57d0a0bee3221e00015fe385,TCN,2024-06-25_09h52.13.446,LearnStrategy,2023.2.3,Win32,59.17159763,,,,,,,,,,,2,01,2,2,,,,,,,,,,,,,,,,,,,,,,,,,,,,,
57d0a0bee3221e00015fe385,TCN,2024-06-25_09h52.13.446,LearnStrategy,2023.2.3,Win32,59.17159763,,,,,,,,,,,8,05,2,3,,,,,,,,,,,,,,,,,,,,,,,,,,,,,
57d0a0bee3221e00015fe385,TCN,2024-06-25_09h52.13.446,LearnStrategy,2023.2.3,Win32,59.17159763,,,,,,,,,,,2,08,2,4,,,,,,,,,,,,,,,,,,,,,,,,,,,,,
57d0a0bee3221e00015fe385,TCN,2024-06-25_09h52.13.446,LearnStrategy,2023.2.3,Win32,59.17159763,,,,,,,,,,,1,16,2,5,,,,,,,,,,,,,,,,,,,,,,,,,,,,,
57d0a0bee3221e00015fe385,TCN,2024-06-25_09h52.13.446,LearnStrategy,2023.2.3,Win32,59.17159763,,,,,,,,,,,5,05,2,6,,,,,,,,,,,,,,,,,,,,,,,,,,,,,
57d0a0bee3221e00015fe385,TCN,2024-06-25_09h52.13.446,LearnStrategy,2023.2.3,Win32,59.17159763,,,,,,,,,,,2,16,2,7,,,,,,,,,,,,,,,,,,,,,,,,,,,,,
57d0a0bee3221e00015fe385,TCN,2024-06-25_09h52.13.446,LearnStrategy,2023.2.3,Win32,59.17159763,,,,,,,,,,,7,13,2,8,,,,,,,,,,,,,,,,,,,,,,,,,,,,,
57d0a0bee3221e00015fe385,TCN,2024-06-25_09h52.13.446,LearnStrategy,2023.2.3,Win32,59.17159763,,,,,,,,,,,5,12,3,1,,,,,,,,,,,,,,,,,,,,,,,,,,,,,
57d0a0bee3221e00015fe385,TCN,2024-06-25_09h52.13.446,LearnStrategy,2023.2.3,Win32,59.17159763,,,,,,,,,,,8,16,3,2,,,,,,,,,,,,,,,,,,,,,,,,,,,,,
57d0a0bee3221e00015fe385,TCN,2024-06-25_09h52.13.446,LearnStrategy,2023.2.3,Win32,59.17159763,,,,,,,,,,,8,06,3,3,,,,,,,,,,,,,,,,,,,,,,,,,,,,,
57d0a0bee3221e00015fe385,TCN,2024-06-25_09h52.13.446,LearnStrategy,2023.2.3,Win32,59.17159763,,,,,,,,,,,8,14,3,4,,,,,,,,,,,,,,,,,,,,,,,,,,,,,
57d0a0bee3221e00015fe385,TCN,2024-06-25_09h52.13.446,LearnStrategy,2023.2.3,Win32,59.17159763,,,,,,,,,,,7,06,3,5,,,,,,,,,,,,,,,,,,,,,,,,,,,,,
57d0a0bee3221e00015fe385,TCN,2024-06-25_09h52.13.446,LearnStrategy,2023.2.3,Win32,59.17159763,,,,,,,,,,,4,16,3,6,,,,,,,,,,,,,,,,,,,,,,,,,,,,,
57d0a0bee3221e00015fe385,TCN,2024-06-25_09h52.13.446,LearnStrategy,2023.2.3,Win32,59.17159763,,,,,,,,,,,4,01,3,7,,,,,,,,,,,,,,,,,,,,,,,,,,,,,
57d0a0bee3221e00015fe385,TCN,2024-06-25_09h52.13.446,LearnStrategy,2023.2.3,Win32,59.17159763,,,,,,,,,,,6,07,3,8,,,,,,,,,,,,,,,,,,,,,,,,,,,,,
57d0a0bee3221e00015fe385,TCN,2024-06-25_09h52.13.446,LearnStrategy,2023.2.3,Win32,59.17159763,,,,,,,,,,,1,04,4,1,,,,,,,,,,,,,,,,,,,,,,,,,,,,,
57d0a0bee3221e00015fe385,TCN,2024-06-25_09h52.13.446,LearnStrategy,2023.2.3,Win32,59.17159763,,,,,,,,,,,7,15,4,2,,,,,,,,,,,,,,,,,,,,,,,,,,,,,
57d0a0bee3221e00015fe385,TCN,2024-06-25_09h52.13.446,LearnStrategy,2023.2.3,Win32,59.17159763,,,,,,,,,,,2,10,4,3,,,,,,,,,,,,,,,,,,,,,,,,,,,,,
57d0a0bee3221e00015fe385,TCN,2024-06-25_09h52.13.446,LearnStrategy,2023.2.3,Win32,59.17159763,,,,,,,,,,,4,11,4,4,,,,,,,,,,,,,,,,,,,,,,,,,,,,,
57d0a0bee3221e00015fe385,TCN,2024-06-25_09h52.13.446,LearnStrategy,2023.2.3,Win32,59.17159763,,,,,,,,,,,1,01,4,5,,,,,,,,,,,,,,,,,,,,,,,,,,,,,
57d0a0bee3221e00015fe385,TCN,2024-06-25_09h52.13.446,LearnStrategy,2023.2.3,Win32,59.17159763,,,,,,,,,,,2,04,4,6,,,,,,,,,,,,,,,,,,,,,,,,,,,,,
57d0a0bee3221e00015fe385,TCN,2024-06-25_09h52.13.446,LearnStrategy,2023.2.3,Win32,59.17159763,,,,,,,,,,,8,15,4,7,,,,,,,,,,,,,,,,,,,,,,,,,,,,,
57d0a0bee3221e00015fe385,TCN,2024-06-25_09h52.13.446,LearnStrategy,2023.2.3,Win32,59.17159763,,,,,,,,,,,4,15,4,8,,,,,,,,,,,,,,,,,,,,,,,,,,,,,
57d0a0bee3221e00015fe385,TCN,2024-06-25_09h52.13.446,LearnStrategy,2023.2.3,Win32,59.17159763,,,,,,,,,,,7,10,5,1,,,,,,,,,,,,,,,,,,,,,,,,,,,,,
57d0a0bee3221e00015fe385,TCN,2024-06-25_09h52.13.446,LearnStrategy,2023.2.3,Win32,59.17159763,,,,,,,,,,,4,03,5,2,,,,,,,,,,,,,,,,,,,,,,,,,,,,,
57d0a0bee3221e00015fe385,TCN,2024-06-25_09h52.13.446,LearnStrategy,2023.2.3,Win32,59.17159763,,,,,,,,,,,2,05,5,3,,,,,,,,,,,,,,,,,,,,,,,,,,,,,
57d0a0bee3221e00015fe385,TCN,2024-06-25_09h52.13.446,LearnStrategy,2023.2.3,Win32,59.17159763,,,,,,,,,,,3,06,5,4,,,,,,,,,,,,,,,,,,,,,,,,,,,,,
57d0a0bee3221e00015fe385,TCN,2024-06-25_09h52.13.446,LearnStrategy,2023.2.3,Win32,59.17159763,,,,,,,,,,,6,08,5,5,,,,,,,,,,,,,,,,,,,,,,,,,,,,,
57d0a0bee3221e00015fe385,TCN,2024-06-25_09h52.13.446,LearnStrategy,2023.2.3,Win32,59.17159763,,,,,,,,,,,3,13,5,6,,,,,,,,,,,,,,,,,,,,,,,,,,,,,
57d0a0bee3221e00015fe385,TCN,2024-06-25_09h52.13.446,LearnStrategy,2023.2.3,Win32,59.17159763,,,,,,,,,,,8,10,5,7,,,,,,,,,,,,,,,,,,,,,,,,,,,,,
57d0a0bee3221e00015fe385,TCN,2024-06-25_09h52.13.446,LearnStrategy,2023.2.3,Win32,59.17159763,,,,,,,,,,,6,03,5,8,,,,,,,,,,,,,,,,,,,,,,,,,,,,,
57d0a0bee3221e00015fe385,TCN,2024-06-25_09h52.13.446,LearnStrategy,2023.2.3,Win32,59.17159763,,,,,,,,,,,4,10,6,1,,,,,,,,,,,,,,,,,,,,,,,,,,,,,
57d0a0bee3221e00015fe385,TCN,2024-06-25_09h52.13.446,LearnStrategy,2023.2.3,Win32,59.17159763,,,,,,,,,,,6,06,6,2,,,,,,,,,,,,,,,,,,,,,,,,,,,,,
57d0a0bee3221e00015fe385,TCN,2024-06-25_09h52.13.446,LearnStrategy,2023.2.3,Win32,59.17159763,,,,,,,,,,,7,12,6,3,,,,,,,,,,,,,,,,,,,,,,,,,,,,,
57d0a0bee3221e00015fe385,TCN,2024-06-25_09h52.13.446,LearnStrategy,2023.2.3,Win32,59.17159763,,,,,,,,,,,3,08,6,4,,,,,,,,,,,,,,,,,,,,,,,,,,,,,
57d0a0bee3221e00015fe385,TCN,2024-06-25_09h52.13.446,LearnStrategy,2023.2.3,Win32,59.17159763,,,,,,,,,,,5,09,6,5,,,,,,,,,,,,,,,,,,,,,,,,,,,,,
57d0a0bee3221e00015fe385,TCN,2024-06-25_09h52.13.446,LearnStrategy,2023.2.3,Win32,59.17159763,,,,,,,,,,,5,06,6,6,,,,,,,,,,,,,,,,,,,,,,,,,,,,,
57d0a0bee3221e00015fe385,TCN,2024-06-25_09h52.13.446,LearnStrategy,2023.2.3,Win32,59.17159763,,,,,,,,,,,1,09,6,7,,,,,,,,,,,,,,,,,,,,,,,,,,,,,
57d0a0bee3221e00015fe385,TCN,2024-06-25_09h52.13.446,LearnStrategy,2023.2.3,Win32,59.17159763,,,,,,,,,,,5,04,6,8,,,,,,,,,,,,,,,,,,,,,,,,,,,,,