participant,condition,date,expName,psychopyVersion,OS,frameRate,block,phase,trial,learn_mouse.x,learn_mouse.y,learn_mouse.leftButton,learn_mouse.midButton,learn_mouse.rightButton,learn_mouse.time,learn_mouse.clicked_name,cat,token,row,col,t_select,cat_rec,token_rec,cat_mouse_l.x,cat_mouse_l.y,cat_mouse_l.leftButton,cat_mouse_l.midButton,cat_mouse_l.rightButton,cat_mouse_l.time,cat_mouse_l.clicked_name,resp,t_resp,corr,train_trials.thisRepN,train_trials.thisTrialN,train_trials.thisN,train_trials.thisIndex,train_trials.ran,cat_mouse_t.x,cat_mouse_t.y,cat_mouse_t.leftButton,cat_mouse_t.midButton,cat_mouse_t.rightButton,cat_mouse_t.time,cat_mouse_t.clicked_name,test_trials.thisRepN,test_trials.thisTrialN,test_trials.thisN,test_trials.thisIndex,test_trials.ran,Bonus
582c71a66ef28c00019a1068,SCR,2024-06-24_18h01.02.100,LearnStrategy,2023.2.3,Win32,59.88023952,,,,,,,,,,,,,,,,,,,,,,,,,,,,,,,,,,,,,,,,,,,,,
582c71a66ef28c00019a1068,SCR,2024-06-24_18h01.02.100,LearnStrategy,2023.2.3,Win32,59.88023952,1,1,1,0.237962963,-0.097222222,1,0,0,2.4081,Peridotite_13,7,13,3,6,2.408,8,10,0.135185185,-0.239814815,1,0,0,2.3513,Diorite_rect,3,2.351,0,0,0,0,0,1,,,,,,,,,,,,,
582c71a66ef28c00019a1068,SCR,2024-06-24_18h01.02.100,LearnStrategy,2023.2.3,Win32,59.88023952,1,1,2,-0.213888889,0.09537037,1,0,0,1.5977,Gabbro_12,4,12,4,3,1.598,2,05,-0.117592593,-0.409259259,1,0,0,3.1744,Pegmatite_rect,6,3.174,0,1,0,1,0,1,,,,,,,,,,,,,
582c71a66ef28c00019a1068,SCR,2024-06-24_18h01.02.100,LearnStrategy,2023.2.3,Win32,59.88023952,1,1,3,-0.082407407,0.248148148,1,0,0,1.88,Pegmatite_03,6,03,5,4,1.88,4,16,-0.380555556,-0.253703704,1,0,0,2.4075,Andesite_rect,1,2.407,0,2,0,2,0,1,,,,,,,,,,,,,
582c71a66ef28c00019a1068,SCR,2024-06-24_18h01.02.100,LearnStrategy,2023.2.3,Win32,59.88023952,1,1,4,0.260185185,0.241666667,1,0,0,1.4645,Pumice_16,8,16,5,6,1.465,5,09,0.142592593,-0.243518519,1,0,0,0.9743,Diorite_rect,3,0.974,0,3,0,3,0,1,,,,,,,,,,,,,
582c71a66ef28c00019a1068,SCR,2024-06-24_18h01.02.100,LearnStrategy,2023.2.3,Win32,59.88023952,1,1,5,-0.060185185,-0.1,1,0,0,1.3314,Obsidian_16,5,16,3,4,1.331,3,02,-0.342592593,-0.405555556,1,0,0,2.8231,Obsidian_rect,5,2.823,1,4,0,4,0,1,,,,,,,,,,,,,
582c71a66ef28c00019a1068,SCR,2024-06-24_18h01.02.100,LearnStrategy,2023.2.3,Win32,59.88023952,1,1,6,0.080555556,0.090740741,1,0,0,1.2965,Basalt_04,2,04,4,5,1.296,7,13,-0.09537037,-0.22962963,1,0,0,1.0144,Basalt_rect,2,1.014,1,5,0,5,0,1,,,,,,,,,,,,,
582c71a66ef28c00019a1068,SCR,2024-06-24_18h01.02.100,LearnStrategy,2023.2.3,Win32,59.88023952,1,1,7,0.224074074,0.1,1,0,0,1.2296,Pegmatite_11,6,11,4,6,1.23,1,10,0.14537037,-0.241666667,1,0,0,1.1308,Diorite_rect,3,1.131,0,6,0,6,0,1,,,,,,,,,,,,,
582c71a66ef28c00019a1068,SCR,2024-06-24_18h01.02.100,LearnStrategy,2023.2.3,Win32,59.88023952,1,1,8,-0.233333333,0.265740741,1,0,0,1.3487,Pegmatite_10,6,10,5,3,1.349,7,14,0.411111111,-0.241666667,1,0,0,2.8579,Gabbro_rect,4,2.858,0,7,0,7,0,1,,,,,,,,,,,,,
582c71a66ef28c00019a1068,SCR,2024-06-24_18h01.02.100,LearnStrategy,2023.2.3,Win32,59.88023952,1,1,9,-0.387037037,0.249074074,1,0,0,0.9802,Gabbro_09,4,09,5,2,0.98,1,05,-0.419444444,-0.393518519,1,0,0,1.764,Obsidian_rect,5,1.764,0,8,0,8,0,1,,,,,,,,,,,,,
582c71a66ef28c00019a1068,SCR,2024-06-24_18h01.02.100,LearnStrategy,2023.2.3,Win32,59.88023952,1,1,10,-0.25,-0.408333333,1,0,0,2.5673,Pumice_10,8,10,1,3,2.567,8,06,0.156481481,-0.39537037,1,0,0,1.1233,Peridotite_rect,7,1.123,0,9,0,9,0,1,,,,,,,,,,,,,
582c71a66ef28c00019a1068,SCR,2024-06-24_18h01.02.100,LearnStrategy,2023.2.3,Win32,59.88023952,1,1,11,0.531481481,-0.391666667,1,0,0,1.347,Gabbro_01,4,01,1,8,1.347,5,04,0.407407407,-0.25,1,0,0,1.1808,Gabbro_rect,4,1.181,1,10,0,10,0,1,,,,,,,,,,,,,
582c71a66ef28c00019a1068,SCR,2024-06-24_18h01.02.100,LearnStrategy,2023.2.3,Win32,59.88023952,1,1,12,0.580555556,0.267592593,1,0,0,1.7638,Andesite_05,1,05,5,8,1.764,4,09,0.133333333,-0.378703704,1,0,0,1.5766,Peridotite_rect,7,1.577,0,11,0,11,0,1,,,,,,,,,,,,,
582c71a66ef28c00019a1068,SCR,2024-06-24_18h01.02.100,LearnStrategy,2023.2.3,Win32,59.88023952,1,1,13,-0.22962963,0.378703704,1,0,0,1.1156,Diorite_02,3,02,6,3,1.116,3,07,0.134259259,-0.266666667,1,0,0,3.1309,Diorite_rect,3,3.131,1,12,0,12,0,1,,,,,,,,,,,,,
582c71a66ef28c00019a1068,SCR,2024-06-24_18h01.02.100,LearnStrategy,2023.2.3,Win32,59.88023952,1,1,14,-0.549074074,0.284259259,1,0,0,1.3968,Pegmatite_08,6,08,5,1,1.397,6,10,-0.126851852,-0.267592593,1,0,0,1.3746,Basalt_rect,2,1.375,0,13,0,13,0,1,,,,,,,,,,,,,
582c71a66ef28c00019a1068,SCR,2024-06-24_18h01.02.100,LearnStrategy,2023.2.3,Win32,59.88023952,1,1,15,-0.067592593,-0.260185185,1,0,0,1.0791,Peridotite_15,7,15,2,4,1.079,2,01,-0.097222222,-0.418518519,1,0,0,1.3811,Pegmatite_rect,6,1.381,0,14,0,14,0,1,,,,,,,,,,,,,
582c71a66ef28c00019a1068,SCR,2024-06-24_18h01.02.100,LearnStrategy,2023.2.3,Win32,59.88023952,1,1,16,-0.09537037,-0.102777778,1,0,0,1.2144,Obsidian_16,5,16,3,4,1.214,6,03,-0.361111111,-0.400925926,1,0,0,1.2477,Obsidian_rect,5,1.248,1,15,0,15,0,1,,,,,,,,,,,,,
582c71a66ef28c00019a1068,SCR,2024-06-24_18h01.02.100,LearnStrategy,2023.2.3,Win32,59.88023952,1,2,1,,,,,,,,7,10,,,,,,,,,,,,,3,2.161,0,,,,,,0.156481481,-0.253703704,1,0,0,2.1608,Diorite_rect,0,0,0,0,1,
582c71a66ef28c00019a1068,SCR,2024-06-24_18h01.02.100,LearnStrategy,2023.2.3,Win32,59.88023952,1,2,2,,,,,,,,1,01,,,,,,,,,,,,,4,3.024,0,,,,,,0.39537037,-0.257407407,1,0,0,3.0241,Gabbro_rect,1,0,1,0,1,
582c71a66ef28c00019a1068,SCR,2024-06-24_18h01.02.100,LearnStrategy,2023.2.3,Win32,59.88023952,1,2,3,,,,,,,,7,12,,,,,,,,,,,,,1,1.331,0,,,,,,-0.35,-0.237037037,1,0,0,1.331,Andesite_rect,2,0,2,0,1,
582c71a66ef28c00019a1068,SCR,2024-06-24_18h01.02.100,LearnStrategy,2023.2.3,Win32,59.88023952,1,2,4,,,,,,,,8,04,,,,,,,,,,,,,2,1.193,0,,,,,,-0.19537037,-0.243518519,1,0,0,1.1933,Basalt_rect,3,0,3,0,1,
582c71a66ef28c00019a1068,SCR,2024-06-24_18h01.02.100,LearnStrategy,2023.2.3,Win32,59.88023952,1,2,5,,,,,,,,5,06,,,,,,,,,,,,,7,2.029,0,,,,,,0.142592593,-0.400925926,1,0,0,2.0288,Peridotite_rect,4,0,4,0,1,
582c71a66ef28c00019a1068,SCR,2024-06-24_18h01.02.100,LearnStrategy,2023.2.3,Win32,59.88023952,1,2,6,,,,,,,,4,03,,,,,,,,,,,,,8,0.925,0,,,,,,0.343518519,-0.419444444,1,0,0,0.9248,Pumice_rect,5,0,5,0,1,
582c71a66ef28c00019a1068,SCR,2024-06-24_18h01.02.100,LearnStrategy,2023.2.3,Win32,59.88023952,1,2,7,,,,,,,,1,09,,,,,,,,,,,,,6,1.457,0,,,,,,-0.099074074,-0.407407407,1,0,0,1.4566,Pegmatite_rect,6,0,6,0,1,
582c71a66ef28c00019a1068,SCR,2024-06-24_18h01.02.100,LearnStrategy,2023.2.3,Win32,59.88023952,1,2,8,,,,,,,,3,13,,,,,,,,,,,,,2,2.561,0,,,,,,-0.099074074,-0.248148148,1,0,0,2.5612,Basalt_rect,7,0,7,0,1,
582c71a66ef28c00019a1068,SCR,2024-06-24_18h01.02.100,LearnStrategy,2023.2.3,Win32,59.88023952,1,2,9,,,,,,,,6,12,,,,,,,,,,,,,3,1.611,0,,,,,,0.191666667,-0.246296296,1,0,0,1.6107,Diorite_rect,8,0,8,0,1,
582c71a66ef28c00019a1068,SCR,2024-06-24_18h01.02.100,LearnStrategy,2023.2.3,Win32,59.88023952,1,2,10,,,,,,,,6,15,,,,,,,,,,,,,4,1.128,0,,,,,,0.415740741,-0.239814815,1,0,0,1.1278,Gabbro_rect,9,0,9,0,1,
582c71a66ef28c00019a1068,SCR,2024-06-24_18h01.02.100,LearnStrategy,2023.2.3,Win32,59.88023952,1,2,11,,,,,,,,5,05,,,,,,,,,,,,,5,1.686,1,,,,,,-0.377777778,-0.394444444,1,0,0,1.6859,Obsidian_rect,10,0,10,0,1,
582c71a66ef28c00019a1068,SCR,2024-06-24_18h01.02.100,LearnStrategy,2023.2.3,Win32,59.88023952,1,2,12,,,,,,,,2,14,,,,,,,,,,,,,6,0.962,0,,,,,,-0.123148148,-0.40462963,1,0,0,0.9622,Pegmatite_rect,11,0,11,0,1,
582c71a66ef28c00019a1068,SCR,2024-06-24_18h01.02.100,LearnStrategy,2023.2.3,Win32,59.88023952,1,2,13,,,,,,,,8,08,,,,,,,,,,,,,1,0.844,0,,,,,,-0.430555556,-0.258333333,1,0,0,0.8438,Andesite_rect,12,0,12,0,1,
582c71a66ef28c00019a1068,SCR,2024-06-24_18h01.02.100,LearnStrategy,2023.2.3,Win32,59.88023952,1,2,14,,,,,,,,3,16,,,,,,,,,,,,,7,1.865,0,,,,,,0.121296296,-0.398148148,1,0,0,1.8655,Peridotite_rect,13,0,13,0,1,
582c71a66ef28c00019a1068,SCR,2024-06-24_18h01.02.100,LearnStrategy,2023.2.3,Win32,59.88023952,1,2,15,,,,,,,,2,06,,,,,,,,,,,,,2,1.856,1,,,,,,-0.083333333,-0.238888889,1,0,0,1.8563,Basalt_rect,14,0,14,0,1,
582c71a66ef28c00019a1068,SCR,2024-06-24_18h01.02.100,LearnStrategy,2023.2.3,Win32,59.88023952,1,2,16,,,,,,,,4,08,,,,,,,,,,,,,3,0.799,0,,,,,,0.181481481,-0.248148148,1,0,0,0.7989,Diorite_rect,15,0,15,0,1,
582c71a66ef28c00019a1068,SCR,2024-06-24_18h01.02.100,LearnStrategy,2023.2.3,Win32,59.88023952,2,1,1,0.231481481,0.092592593,1,0,0,0.9977,Pegmatite_11,6,11,4,6,0.998,4,01,0.165740741,-0.242592593,1,0,0,1.1137,Diorite_rect,3,1.114,0,0,0,0,0,1,,,,,,,,,,,,,
582c71a66ef28c00019a1068,SCR,2024-06-24_18h01.02.100,LearnStrategy,2023.2.3,Win32,59.88023952,2,1,2,-0.07037037,-0.092592593,1,0,0,0.9808,Obsidian_16,5,16,3,4,0.981,8,14,-0.37037037,-0.384259259,1,0,0,0.731,Obsidian_rect,5,0.731,1,1,0,1,0,1,,,,,,,,,,,,,
582c71a66ef28c00019a1068,SCR,2024-06-24_18h01.02.100,LearnStrategy,2023.2.3,Win32,59.88023952,2,1,3,0.076851852,0.07962963,1,0,0,0.8662,Basalt_04,2,04,4,5,0.866,4,13,0.473148148,-0.237962963,1,0,0,0.7465,Gabbro_rect,4,0.746,0,2,0,2,0,1,,,,,,,,,,,,,
582c71a66ef28c00019a1068,SCR,2024-06-24_18h01.02.100,LearnStrategy,2023.2.3,Win32,59.88023952,2,1,4,-0.249074074,0.236111111,1,0,0,0.8811,Pegmatite_10,6,10,5,3,0.881,7,05,0.162037037,-0.394444444,1,0,0,0.7475,Peridotite_rect,7,0.748,0,3,0,3,0,1,,,,,,,,,,,,,
582c71a66ef28c00019a1068,SCR,2024-06-24_18h01.02.100,LearnStrategy,2023.2.3,Win32,59.88023952,2,1,5,-0.243518519,0.385185185,1,0,0,1.0492,Diorite_02,3,02,6,3,1.049,2,04,0.401851852,-0.409259259,1,0,0,1.6323,Pumice_rect,8,1.632,0,4,0,4,0,1,,,,,,,,,,,,,
582c71a66ef28c00019a1068,SCR,2024-06-24_18h01.02.100,LearnStrategy,2023.2.3,Win32,59.88023952,2,1,6,0.092592593,0.403703704,1,0,0,0.8805,Andesite_06,1,06,6,5,0.88,6,08,-0.331481481,-0.247222222,1,0,0,1.4807,Andesite_rect,1,1.481,1,5,0,5,0,1,,,,,,,,,,,,,
582c71a66ef28c00019a1068,SCR,2024-06-24_18h01.02.100,LearnStrategy,2023.2.3,Win32,59.88023952,2,1,7,0.239814815,0.255555556,1,0,0,1.0489,Pumice_16,8,16,5,6,1.049,6,13,0.425925926,-0.228703704,1,0,0,0.8478,Gabbro_rect,4,0.848,0,6,0,6,0,1,,,,,,,,,,,,,
582c71a66ef28c00019a1068,SCR,2024-06-24_18h01.02.100,LearnStrategy,2023.2.3,Win32,59.88023952,2,1,8,-0.39537037,-0.105555556,1,0,0,1.1283,Gabbro_13,4,13,3,2,1.128,3,14,-0.142592593,-0.410185185,1,0,0,0.6811,Pegmatite_rect,6,0.681,0,7,0,7,0,1,,,,,,,,,,,,,
582c71a66ef28c00019a1068,SCR,2024-06-24_18h01.02.100,LearnStrategy,2023.2.3,Win32,59.88023952,2,1,9,-0.384259259,0.230555556,1,0,0,0.8301,Gabbro_09,4,09,5,2,0.83,2,08,-0.092592593,-0.401851852,1,0,0,0.7145,Pegmatite_rect,6,0.714,0,8,0,8,0,1,,,,,,,,,,,,,
582c71a66ef28c00019a1068,SCR,2024-06-24_18h01.02.100,LearnStrategy,2023.2.3,Win32,59.88023952,2,1,10,0.565740741,0.09537037,1,0,0,1.8323,Pumice_02,8,02,4,8,1.832,3,15,0.424074074,-0.25,1,0,0,0.6082,Gabbro_rect,4,0.608,0,9,0,9,0,1,,,,,,,,,,,,,
582c71a66ef28c00019a1068,SCR,2024-06-24_18h01.02.100,LearnStrategy,2023.2.3,Win32,59.88023952,2,1,11,-0.538888889,0.393518519,1,0,0,0.9478,Pumice_14,8,14,6,1,0.948,7,14,-0.390740741,-0.24537037,1,0,0,0.8309,Andesite_rect,1,0.831,0,10,0,10,0,1,,,,,,,,,,,,,
582c71a66ef28c00019a1068,SCR,2024-06-24_18h01.02.100,LearnStrategy,2023.2.3,Win32,59.88023952,2,1,12,-0.548148148,-0.238888889,1,0,0,1.0124,Peridotite_05,7,05,2,1,1.012,1,04,-0.387037037,-0.399074074,1,0,0,0.6308,Obsidian_rect,5,0.631,0,11,0,11,0,1,,,,,,,,,,,,,
582c71a66ef28c00019a1068,SCR,2024-06-24_18h01.02.100,LearnStrategy,2023.2.3,Win32,59.88023952,2,1,13,-0.216666667,-0.246296296,1,0,0,1.2323,Diorite_15,3,15,2,3,1.232,5,04,-0.087037037,-0.4,1,0,0,0.692,Pegmatite_rect,6,0.692,0,12,0,12,0,1,,,,,,,,,,,,,
582c71a66ef28c00019a1068,SCR,2024-06-24_18h01.02.100,LearnStrategy,2023.2.3,Win32,59.88023952,2,1,14,-0.387962963,0.090740741,1,0,0,1.0794,Andesite_04,1,04,4,2,1.079,1,03,0.115740741,-0.233333333,1,0,0,0.7451,Diorite_rect,3,0.745,0,13,0,13,0,1,,,,,,,,,,,,,
582c71a66ef28c00019a1068,SCR,2024-06-24_18h01.02.100,LearnStrategy,2023.2.3,Win32,59.88023952,2,1,15,-0.071296296,0.216666667,1,0,0,0.9972,Pegmatite_03,6,03,5,4,0.997,3,07,0.163888889,-0.393518519,1,0,0,1.9644,Peridotite_rect,7,1.964,0,14,0,14,0,1,,,,,,,,,,,,,
582c71a66ef28c00019a1068,SCR,2024-06-24_18h01.02.100,LearnStrategy,2023.2.3,Win32,59.88023952,2,1,16,0.240740741,0.378703704,1,0,0,0.8641,Peridotite_14,7,14,6,6,0.864,8,10,-0.134259259,-0.381481481,1,0,0,0.8641,Pegmatite_rect,6,0.864,0,15,0,15,0,1,,,,,,,,,,,,,
582c71a66ef28c00019a1068,SCR,2024-06-24_18h01.02.100,LearnStrategy,2023.2.3,Win32,59.88023952,2,2,1,,,,,,,,4,15,,,,,,,,,,,,,4,3.023,1,,,,,,0.407407407,-0.240740741,1,0,0,3.0229,Gabbro_rect,0,0,0,0,1,
582c71a66ef28c00019a1068,SCR,2024-06-24_18h01.02.100,LearnStrategy,2023.2.3,Win32,59.88023952,2,2,2,,,,,,,,6,07,,,,,,,,,,,,,3,2.251,0,,,,,,0.115740741,-0.242592593,1,0,0,2.2507,Diorite_rect,1,0,1,0,1,
582c71a66ef28c00019a1068,SCR,2024-06-24_18h01.02.100,LearnStrategy,2023.2.3,Win32,59.88023952,2,2,3,,,,,,,,7,02,,,,,,,,,,,,,7,1.606,1,,,,,,0.146296296,-0.396296296,1,0,0,1.6062,Peridotite_rect,2,0,2,0,1,
582c71a66ef28c00019a1068,SCR,2024-06-24_18h01.02.100,LearnStrategy,2023.2.3,Win32,59.88023952,2,2,4,,,,,,,,3,06,,,,,,,,,,,,,1,1.075,0,,,,,,-0.388888889,-0.241666667,1,0,0,1.0753,Andesite_rect,3,0,3,0,1,
582c71a66ef28c00019a1068,SCR,2024-06-24_18h01.02.100,LearnStrategy,2023.2.3,Win32,59.88023952,2,2,5,,,,,,,,1,16,,,,,,,,,,,,,6,2.809,0,,,,,,-0.119444444,-0.393518519,1,0,0,2.8091,Pegmatite_rect,4,0,4,0,1,
582c71a66ef28c00019a1068,SCR,2024-06-24_18h01.02.100,LearnStrategy,2023.2.3,Win32,59.88023952,2,2,6,,,,,,,,7,07,,,,,,,,,,,,,7,0.718,1,,,,,,0.168518519,-0.418518519,1,0,0,0.7182,Peridotite_rect,5,0,5,0,1,
582c71a66ef28c00019a1068,SCR,2024-06-24_18h01.02.100,LearnStrategy,2023.2.3,Win32,59.88023952,2,2,7,,,,,,,,4,10,,,,,,,,,,,,,2,2.926,0,,,,,,-0.108333333,-0.234259259,1,0,0,2.9259,Basalt_rect,6,0,6,0,1,
582c71a66ef28c00019a1068,SCR,2024-06-24_18h01.02.100,LearnStrategy,2023.2.3,Win32,59.88023952,2,2,8,,,,,,,,8,05,,,,,,,,,,,,,1,1.698,0,,,,,,-0.378703704,-0.252777778,1,0,0,1.6978,Andesite_rect,7,0,7,0,1,
582c71a66ef28c00019a1068,SCR,2024-06-24_18h01.02.100,LearnStrategy,2023.2.3,Win32,59.88023952,2,2,9,,,,,,,,1,14,,,,,,,,,,,,,3,0.877,0,,,,,,0.136111111,-0.251851852,1,0,0,0.8775,Diorite_rect,8,0,8,0,1,
582c71a66ef28c00019a1068,SCR,2024-06-24_18h01.02.100,LearnStrategy,2023.2.3,Win32,59.88023952,2,2,10,,,,,,,,3,10,,,,,,,,,,,,,4,1.159,0,,,,,,0.434259259,-0.24537037,1,0,0,1.1587,Gabbro_rect,9,0,9,0,1,
582c71a66ef28c00019a1068,SCR,2024-06-24_18h01.02.100,LearnStrategy,2023.2.3,Win32,59.88023952,2,2,11,,,,,,,,6,05,,,,,,,,,,,,,7,1.04,0,,,,,,0.172222222,-0.394444444,1,0,0,1.0405,Peridotite_rect,10,0,10,0,1,
582c71a66ef28c00019a1068,SCR,2024-06-24_18h01.02.100,LearnStrategy,2023.2.3,Win32,59.88023952,2,2,12,,,,,,,,2,11,,,,,,,,,,,,,8,0.891,0,,,,,,0.363888889,-0.412037037,1,0,0,0.8906,Pumice_rect,11,0,11,0,1,
582c71a66ef28c00019a1068,SCR,2024-06-24_18h01.02.100,LearnStrategy,2023.2.3,Win32,59.88023952,2,2,13,,,,,,,,5,02,,,,,,,,,,,,,5,1.148,1,,,,,,-0.411111111,-0.398148148,1,0,0,1.1476,Obsidian_rect,12,0,12,0,1,
582c71a66ef28c00019a1068,SCR,2024-06-24_18h01.02.100,LearnStrategy,2023.2.3,Win32,59.88023952,2,2,14,,,,,,,,5,07,,,,,,,,,,,,,2,0.828,0,,,,,,-0.100925926,-0.248148148,1,0,0,0.8283,Basalt_rect,13,0,13,0,1,
582c71a66ef28c00019a1068,SCR,2024-06-24_18h01.02.100,LearnStrategy,2023.2.3,Win32,59.88023952,2,2,15,,,,,,,,8,09,,,,,,,,,,,,,4,1.489,0,,,,,,0.346296296,-0.27037037,1,0,0,1.4894,Gabbro_rect,14,0,14,0,1,
582c71a66ef28c00019a1068,SCR,2024-06-24_18h01.02.100,LearnStrategy,2023.2.3,Win32,59.88023952,2,2,16,,,,,,,,2,09,,,,,,,,,,,,,3,0.523,0,,,,,,0.17037037,-0.267592593,1,0,0,0.5228,Diorite_rect,15,0,15,0,1,
582c71a66ef28c00019a1068,SCR,2024-06-24_18h01.02.100,LearnStrategy,2023.2.3,Win32,59.88023952,3,1,1,0.116666667,0.112037037,1,0,0,1.0133,Basalt_04,2,04,4,5,1.013,4,01,0.411111111,-0.250925926,1,0,0,0.8308,Gabbro_rect,4,0.831,0,0,0,0,0,1,,,,,,,,,,,,,
582c71a66ef28c00019a1068,SCR,2024-06-24_18h01.02.100,LearnStrategy,2023.2.3,Win32,59.88023952,3,1,2,-0.090740741,0.110185185,1,0,0,0.7967,Pegmatite_13,6,13,4,4,0.797,8,16,-0.125,-0.412037037,1,0,0,0.9639,Pegmatite_rect,6,0.964,1,1,0,1,0,1,,,,,,,,,,,,,
582c71a66ef28c00019a1068,SCR,2024-06-24_18h01.02.100,LearnStrategy,2023.2.3,Win32,59.88023952,3,1,3,-0.237037037,0.450925926,1,0,0,1.1475,Diorite_02,3,02,6,3,1.148,8,06,0.144444444,-0.403703704,1,0,0,1.8143,Peridotite_rect,7,1.814,0,2,0,2,0,1,,,,,,,,,,,,,
582c71a66ef28c00019a1068,SCR,2024-06-24_18h01.02.100,LearnStrategy,2023.2.3,Win32,59.88023952,3,1,4,-0.242592593,-0.100925926,1,0,0,1.3153,Obsidian_12,5,12,3,3,1.315,5,09,-0.435185185,-0.411111111,1,0,0,2.8571,Obsidian_rect,5,2.857,1,3,0,3,0,1,,,,,,,,,,,,,
582c71a66ef28c00019a1068,SCR,2024-06-24_18h01.02.100,LearnStrategy,2023.2.3,Win32,59.88023952,3,1,5,0.237962963,-0.107407407,1,0,0,8.8397,Peridotite_13,7,13,3,6,8.84,1,10,0.419444444,-0.241666667,1,0,0,0.8522,Gabbro_rect,4,0.852,0,4,0,4,0,1,,,,,,,,,,,,,
582c71a66ef28c00019a1068,SCR,2024-06-24_18h01.02.100,LearnStrategy,2023.2.3,Win32,59.88023952,3,1,6,-0.541666667,-0.259259259,1,0,0,1.4471,Peridotite_05,7,05,2,1,1.447,2,05,0.108333333,-0.239814815,1,0,0,0.8631,Diorite_rect,3,0.863,0,5,0,5,0,1,,,,,,,,,,,,,
582c71a66ef28c00019a1068,SCR,2024-06-24_18h01.02.100,LearnStrategy,2023.2.3,Win32,59.88023952,3,1,7,-0.077777778,0.244444444,1,0,0,1.6475,Pegmatite_03,6,03,5,4,1.647,3,02,0.406481481,-0.399074074,1,0,0,0.9421,Pumice_rect,8,0.942,0,6,0,6,0,1,,,,,,,,,,,,,
582c71a66ef28c00019a1068,SCR,2024-06-24_18h01.02.100,LearnStrategy,2023.2.3,Win32,59.88023952,3,1,8,-0.540740741,0.274074074,1,0,0,1.1816,Pegmatite_08,6,08,5,1,1.182,3,09,-0.169444444,-0.398148148,1,0,0,2.0144,Pegmatite_rect,6,2.014,1,7,0,7,0,1,,,,,,,,,,,,,
582c71a66ef28c00019a1068,SCR,2024-06-24_18h01.02.100,LearnStrategy,2023.2.3,Win32,59.88023952,3,1,9,-0.551851852,-0.098148148,1,0,0,1.5333,Basalt_10,2,10,3,1,1.533,7,06,0.125,-0.410185185,1,0,0,10.4088,Peridotite_rect,7,10.409,0,8,0,8,0,1,,,,,,,,,,,,,
582c71a66ef28c00019a1068,SCR,2024-06-24_18h01.02.100,LearnStrategy,2023.2.3,Win32,59.88023952,3,1,10,0.563888889,0.40462963,1,0,0,5.3514,Gabbro_14,4,14,6,8,5.351,6,13,0.403703704,-0.235185185,1,0,0,1.0121,Gabbro_rect,4,1.012,1,9,0,9,0,1,,,,,,,,,,,,,
582c71a66ef28c00019a1068,SCR,2024-06-24_18h01.02.100,LearnStrategy,2023.2.3,Win32,59.88023952,3,1,11,-0.531481481,0.413888889,1,0,0,4.4652,Pumice_14,8,14,6,1,4.465,3,11,-0.408333333,-0.239814815,1,0,0,2.3122,Andesite_rect,1,2.312,0,10,0,10,0,1,,,,,,,,,,,,,
582c71a66ef28c00019a1068,SCR,2024-06-24_18h01.02.100,LearnStrategy,2023.2.3,Win32,59.88023952,3,1,12,0.248148148,0.242592593,1,0,0,2.6321,Pumice_16,8,16,5,6,2.632,4,16,0.425,-0.416666667,1,0,0,2.7116,Pumice_rect,8,2.712,1,11,0,11,0,1,,,,,,,,,,,,,
582c71a66ef28c00019a1068,SCR,2024-06-24_18h01.02.100,LearnStrategy,2023.2.3,Win32,59.88023952,3,1,13,-0.236111111,-0.413888889,1,0,0,1.4819,Pumice_10,8,10,1,3,1.482,6,08,-0.364814815,-0.243518519,1,0,0,2.3162,Andesite_rect,1,2.316,0,12,0,12,0,1,,,,,,,,,,,,,
582c71a66ef28c00019a1068,SCR,2024-06-24_18h01.02.100,LearnStrategy,2023.2.3,Win32,59.88023952,3,1,14,-0.552777778,-0.255555556,1,0,0,1.4651,Peridotite_05,7,05,2,1,1.465,1,04,-0.399074074,-0.24537037,1,0,0,0.9476,Andesite_rect,1,0.948,0,13,0,13,0,1,,,,,,,,,,,,,
582c71a66ef28c00019a1068,SCR,2024-06-24_18h01.02.100,LearnStrategy,2023.2.3,Win32,59.88023952,3,1,15,-0.210185185,0.119444444,1,0,0,1.2332,Gabbro_12,4,12,4,3,1.233,1,07,0.138888889,-0.253703704,1,0,0,2.0169,Diorite_rect,3,2.017,0,14,0,14,0,1,,,,,,,,,,,,,
582c71a66ef28c00019a1068,SCR,2024-06-24_18h01.02.100,LearnStrategy,2023.2.3,Win32,59.88023952,3,1,16,-0.378703704,0.386111111,1,0,0,3.1032,Basalt_08,2,08,6,2,3.103,2,04,-0.111111111,-0.263888889,1,0,0,3.2575,Basalt_rect,2,3.258,1,15,0,15,0,1,,,,,,,,,,,,,
582c71a66ef28c00019a1068,SCR,2024-06-24_18h01.02.100,LearnStrategy,2023.2.3,Win32,59.88023952,3,2,1,,,,,,,,8,13,,,,,,,,,,,,,8,1.7,1,,,,,,0.362962963,-0.402777778,1,0,0,1.6995,Pumice_rect,0,0,0,0,1,
582c71a66ef28c00019a1068,SCR,2024-06-24_18h01.02.100,LearnStrategy,2023.2.3,Win32,59.88023952,3,2,2,,,,,,,,2,02,,,,,,,,,,,,,2,4.995,1,,,,,,-0.152777778,-0.243518519,1,0,0,4.9955,Basalt_rect,1,0,1,0,1,
582c71a66ef28c00019a1068,SCR,2024-06-24_18h01.02.100,LearnStrategy,2023.2.3,Win32,59.88023952,3,2,3,,,,,,,,5,14,,,,,,,,,,,,,5,1.121,1,,,,,,-0.386111111,-0.401851852,1,0,0,1.1208,Obsidian_rect,2,0,2,0,1,
582c71a66ef28c00019a1068,SCR,2024-06-24_18h01.02.100,LearnStrategy,2023.2.3,Win32,59.88023952,3,2,4,,,,,,,,1,02,,,,,,,,,,,,,4,1.678,0,,,,,,0.376851852,-0.232407407,1,0,0,1.6782,Gabbro_rect,3,0,3,0,1,
582c71a66ef28c00019a1068,SCR,2024-06-24_18h01.02.100,LearnStrategy,2023.2.3,Win32,59.88023952,3,2,5,,,,,,,,1,11,,,,,,,,,,,,,6,0.828,0,,,,,,-0.090740741,-0.400925926,1,0,0,0.8278,Pegmatite_rect,4,0,4,0,1,
582c71a66ef28c00019a1068,SCR,2024-06-24_18h01.02.100,LearnStrategy,2023.2.3,Win32,59.88023952,3,2,6,,,,,,,,3,08,,,,,,,,,,,,,1,0.911,0,,,,,,-0.343518519,-0.251851852,1,0,0,0.9113,Andesite_rect,5,0,5,0,1,
582c71a66ef28c00019a1068,SCR,2024-06-24_18h01.02.100,LearnStrategy,2023.2.3,Win32,59.88023952,3,2,7,,,,,,,,7,08,,,,,,,,,,,,,7,1.612,1,,,,,,0.161111111,-0.413888889,1,0,0,1.6121,Peridotite_rect,6,0,6,0,1,
582c71a66ef28c00019a1068,SCR,2024-06-24_18h01.02.100,LearnStrategy,2023.2.3,Win32,59.88023952,3,2,8,,,,,,,,4,05,,,,,,,,,,,,,1,1.85,0,,,,,,-0.412037037,-0.237962963,1,0,0,1.8497,Andesite_rect,7,0,7,0,1,
582c71a66ef28c00019a1068,SCR,2024-06-24_18h01.02.100,LearnStrategy,2023.2.3,Win32,59.88023952,3,2,9,,,,,,,,7,04,,,,,,,,,,,,,6,5.763,0,,,,,,-0.159259259,-0.407407407,1,0,0,5.7632,Pegmatite_rect,8,0,8,0,1,
582c71a66ef28c00019a1068,SCR,2024-06-24_18h01.02.100,LearnStrategy,2023.2.3,Win32,59.88023952,3,2,10,,,,,,,,3,12,,,,,,,,,,,,,3,2.188,1,,,,,,0.146296296,-0.251851852,1,0,0,2.1875,Diorite_rect,9,0,9,0,1,
582c71a66ef28c00019a1068,SCR,2024-06-24_18h01.02.100,LearnStrategy,2023.2.3,Win32,59.88023952,3,2,11,,,,,,,,2,12,,,,,,,,,,,,,3,3.356,0,,,,,,0.148148148,-0.259259259,1,0,0,3.356,Diorite_rect,10,0,10,0,1,
582c71a66ef28c00019a1068,SCR,2024-06-24_18h01.02.100,LearnStrategy,2023.2.3,Win32,59.88023952,3,2,12,,,,,,,,4,11,,,,,,,,,,,,,2,4.571,0,,,,,,-0.155555556,-0.253703704,1,0,0,4.5713,Basalt_rect,11,0,11,0,1,
582c71a66ef28c00019a1068,SCR,2024-06-24_18h01.02.100,LearnStrategy,2023.2.3,Win32,59.88023952,3,2,13,,,,,,,,6,16,,,,,,,,,,,,,1,2.104,0,,,,,,-0.382407407,-0.257407407,1,0,0,2.1037,Andesite_rect,12,0,12,0,1,
582c71a66ef28c00019a1068,SCR,2024-06-24_18h01.02.100,LearnStrategy,2023.2.3,Win32,59.88023952,3,2,14,,,,,,,,8,03,,,,,,,,,,,,,6,1.682,0,,,,,,-0.132407407,-0.401851852,1,0,0,1.682,Pegmatite_rect,13,0,13,0,1,
582c71a66ef28c00019a1068,SCR,2024-06-24_18h01.02.100,LearnStrategy,2023.2.3,Win32,59.88023952,3,2,15,,,,,,,,5,10,,,,,,,,,,,,,5,1.524,1,,,,,,-0.369444444,-0.399074074,1,0,0,1.5243,Obsidian_rect,14,0,14,0,1,
582c71a66ef28c00019a1068,SCR,2024-06-24_18h01.02.100,LearnStrategy,2023.2.3,Win32,59.88023952,3,2,16,,,,,,,,6,09,,,,,,,,,,,,,4,1.044,0,,,,,,0.407407407,-0.24537037,1,0,0,1.0436,Gabbro_rect,15,0,15,0,1,
582c71a66ef28c00019a1068,SCR,2024-06-24_18h01.02.100,LearnStrategy,2023.2.3,Win32,59.88023952,4,1,1,0.077777778,-0.273148148,1,0,0,1.2449,Basalt_16,2,16,2,5,1.245,7,16,0.402777778,-0.244444444,1,0,0,1.3477,Gabbro_rect,4,1.348,0,0,0,0,0,1,,,,,,,,,,,,,
582c71a66ef28c00019a1068,SCR,2024-06-24_18h01.02.100,LearnStrategy,2023.2.3,Win32,59.88023952,4,1,2,-0.412962963,0.398148148,1,0,0,2.2989,Basalt_08,2,08,6,2,2.299,3,09,-0.141666667,-0.248148148,1,0,0,1.0588,Basalt_rect,2,1.059,1,1,0,1,0,1,,,,,,,,,,,,,
582c71a66ef28c00019a1068,SCR,2024-06-24_18h01.02.100,LearnStrategy,2023.2.3,Win32,59.88023952,4,1,3,0.241666667,-0.098148148,1,0,0,3.2812,Peridotite_13,7,13,3,6,3.281,2,04,0.080555556,-0.244444444,1,0,0,1.0935,Diorite_rect,3,1.094,0,2,0,2,0,1,,,,,,,,,,,,,
582c71a66ef28c00019a1068,SCR,2024-06-24_18h01.02.100,LearnStrategy,2023.2.3,Win32,59.88023952,4,1,4,0.389814815,0.412037037,1,0,0,1.1506,Pumice_06,8,06,6,7,1.151,4,16,-0.362962963,-0.252777778,1,0,0,1.6611,Andesite_rect,1,1.661,0,3,0,3,0,1,,,,,,,,,,,,,
582c71a66ef28c00019a1068,SCR,2024-06-24_18h01.02.100,LearnStrategy,2023.2.3,Win32,59.88023952,4,1,5,-0.55,0.253703704,1,0,0,3.0151,Pegmatite_08,6,08,5,1,3.015,1,03,0.385185185,-0.239814815,1,0,0,1.4511,Gabbro_rect,4,1.451,0,4,0,4,0,1,,,,,,,,,,,,,
582c71a66ef28c00019a1068,SCR,2024-06-24_18h01.02.100,LearnStrategy,2023.2.3,Win32,59.88023952,4,1,6,0.236111111,0.40462963,1,0,0,4.3008,Peridotite_14,7,14,6,6,4.301,5,11,-0.147222222,-0.397222222,1,0,0,2.5457,Pegmatite_rect,6,2.546,0,5,0,5,0,1,,,,,,,,,,,,,
582c71a66ef28c00019a1068,SCR,2024-06-24_18h01.02.100,LearnStrategy,2023.2.3,Win32,59.88023952,4,1,7,-0.562037037,0.081481481,1,0,0,1.4822,Peridotite_16,7,16,4,1,1.482,3,14,-0.374074074,-0.255555556,1,0,0,1.2309,Andesite_rect,1,1.231,0,6,0,6,0,1,,,,,,,,,,,,,
582c71a66ef28c00019a1068,SCR,2024-06-24_18h01.02.100,LearnStrategy,2023.2.3,Win32,59.88023952,4,1,8,-0.373148148,-0.096296296,1,0,0,32.8364,Gabbro_13,4,13,3,2,32.836,6,08,0.155555556,-0.258333333,1,0,0,1.2908,Diorite_rect,3,1.291,0,7,0,7,0,1,,,,,,,,,,,,,
582c71a66ef28c00019a1068,SCR,2024-06-24_18h01.02.100,LearnStrategy,2023.2.3,Win32,59.88023952,4,1,9,0.392592593,0.422222222,1,0,0,1.6655,Pumice_06,8,06,6,7,1.665,2,08,-0.388888889,-0.248148148,1,0,0,1.4328,Andesite_rect,1,1.433,0,8,0,8,0,1,,,,,,,,,,,,,
582c71a66ef28c00019a1068,SCR,2024-06-24_18h01.02.100,LearnStrategy,2023.2.3,Win32,59.88023952,4,1,10,0.374074074,-0.085185185,1,0,0,7.1489,Diorite_07,3,07,3,7,7.149,6,10,0.386111111,-0.405555556,1,0,0,1.0615,Pumice_rect,8,1.062,0,9,0,9,0,1,,,,,,,,,,,,,
582c71a66ef28c00019a1068,SCR,2024-06-24_18h01.02.100,LearnStrategy,2023.2.3,Win32,59.88023952,4,1,11,0.553703704,0.432407407,1,0,0,1.0155,Gabbro_14,4,14,6,8,1.015,1,03,0.166666667,-0.260185185,1,0,0,74.8992,Diorite_rect,3,74.899,0,10,0,10,0,1,,,,,,,,,,,,,
582c71a66ef28c00019a1068,SCR,2024-06-24_18h01.02.100,LearnStrategy,2023.2.3,Win32,59.88023952,4,1,12,0.20462963,0.243518519,1,0,0,2.1321,Pumice_16,8,16,5,6,2.132,4,12,0.165740741,-0.40462963,1,0,0,1.6496,Peridotite_rect,7,1.65,0,11,0,11,0,1,,,,,,,,,,,,,
582c71a66ef28c00019a1068,SCR,2024-06-24_18h01.02.100,LearnStrategy,2023.2.3,Win32,59.88023952,4,1,13,0.525925926,0.424074074,1,0,0,1.1154,Gabbro_14,4,14,6,8,1.115,6,11,0.453703704,-0.237962963,1,0,0,0.8311,Gabbro_rect,4,0.831,1,12,0,12,0,1,,,,,,,,,,,,,
582c71a66ef28c00019a1068,SCR,2024-06-24_18h01.02.100,LearnStrategy,2023.2.3,Win32,59.88023952,4,1,14,-0.523148148,0.392592593,1,0,0,1.2487,Pumice_14,8,14,6,1,1.249,1,06,0.062962963,-0.262962963,1,0,0,1.2143,Diorite_rect,3,1.214,0,13,0,13,0,1,,,,,,,,,,,,,
582c71a66ef28c00019a1068,SCR,2024-06-24_18h01.02.100,LearnStrategy,2023.2.3,Win32,59.88023952,4,1,15,-0.231481481,-0.427777778,1,0,0,2.4491,Pumice_10,8,10,1,3,2.449,8,10,-0.400925926,-0.241666667,1,0,0,2.9829,Andesite_rect,1,2.983,0,14,0,14,0,1,,,,,,,,,,,,,
582c71a66ef28c00019a1068,SCR,2024-06-24_18h01.02.100,LearnStrategy,2023.2.3,Win32,59.88023952,4,1,16,0.225,0.253703704,1,0,0,1.02,Pumice_16,8,16,5,6,1.02,8,16,-0.131481481,-0.405555556,1,0,0,2.4619,Pegmatite_rect,6,2.462,0,15,0,15,0,1,,,,,,,,,,,,,
582c71a66ef28c00019a1068,SCR,2024-06-24_18h01.02.100,LearnStrategy,2023.2.3,Win32,59.88023952,4,2,1,,,,,,,,5,10,,,,,,,,,,,,,5,1.332,1,,,,,,-0.387962963,-0.398148148,1,0,0,1.3325,Obsidian_rect,0,0,0,0,1,
582c71a66ef28c00019a1068,SCR,2024-06-24_18h01.02.100,LearnStrategy,2023.2.3,Win32,59.88023952,4,2,2,,,,,,,,4,15,,,,,,,,,,,,,1,2.729,0,,,,,,-0.405555556,-0.252777778,1,0,0,2.7287,Andesite_rect,1,0,1,0,1,
582c71a66ef28c00019a1068,SCR,2024-06-24_18h01.02.100,LearnStrategy,2023.2.3,Win32,59.88023952,4,2,3,,,,,,,,6,12,,,,,,,,,,,,,8,1.184,0,,,,,,0.340740741,-0.407407407,1,0,0,1.1836,Pumice_rect,2,0,2,0,1,
582c71a66ef28c00019a1068,SCR,2024-06-24_18h01.02.100,LearnStrategy,2023.2.3,Win32,59.88023952,4,2,4,,,,,,,,8,09,,,,,,,,,,,,,7,1.253,0,,,,,,0.127777778,-0.414814815,1,0,0,1.2528,Peridotite_rect,3,0,3,0,1,
582c71a66ef28c00019a1068,SCR,2024-06-24_18h01.02.100,LearnStrategy,2023.2.3,Win32,59.88023952,4,2,5,,,,,,,,7,12,,,,,,,,,,,,,3,1.396,0,,,,,,0.172222222,-0.25,1,0,0,1.3958,Diorite_rect,4,0,4,0,1,
582c71a66ef28c00019a1068,SCR,2024-06-24_18h01.02.100,LearnStrategy,2023.2.3,Win32,59.88023952,4,2,6,,,,,,,,2,14,,,,,,,,,,,,,4,0.469,0,,,,,,0.383333333,-0.228703704,1,0,0,0.4691,Gabbro_rect,5,0,5,0,1,
582c71a66ef28c00019a1068,SCR,2024-06-24_18h01.02.100,LearnStrategy,2023.2.3,Win32,59.88023952,4,2,7,,,,,,,,6,09,,,,,,,,,,,,,6,1.199,1,,,,,,-0.160185185,-0.392592593,1,0,0,1.1992,Pegmatite_rect,6,0,6,0,1,
582c71a66ef28c00019a1068,SCR,2024-06-24_18h01.02.100,LearnStrategy,2023.2.3,Win32,59.88023952,4,2,8,,,,,,,,1,02,,,,,,,,,,,,,1,1.077,1,,,,,,-0.39537037,-0.246296296,1,0,0,1.0771,Andesite_rect,7,0,7,0,1,
582c71a66ef28c00019a1068,SCR,2024-06-24_18h01.02.100,LearnStrategy,2023.2.3,Win32,59.88023952,4,2,9,,,,,,,,2,09,,,,,,,,,,,,,2,1.496,1,,,,,,-0.139814815,-0.262037037,1,0,0,1.4963,Basalt_rect,8,0,8,0,1,
582c71a66ef28c00019a1068,SCR,2024-06-24_18h01.02.100,LearnStrategy,2023.2.3,Win32,59.88023952,4,2,10,,,,,,,,3,16,,,,,,,,,,,,,7,2.48,0,,,,,,0.143518519,-0.384259259,1,0,0,2.4799,Peridotite_rect,9,0,9,0,1,
582c71a66ef28c00019a1068,SCR,2024-06-24_18h01.02.100,LearnStrategy,2023.2.3,Win32,59.88023952,4,2,11,,,,,,,,4,11,,,,,,,,,,,,,2,1.023,0,,,,,,-0.12962963,-0.269444444,1,0,0,1.0225,Basalt_rect,10,0,10,0,1,
582c71a66ef28c00019a1068,SCR,2024-06-24_18h01.02.100,LearnStrategy,2023.2.3,Win32,59.88023952,4,2,12,,,,,,,,3,08,,,,,,,,,,,,,1,0.828,0,,,,,,-0.387962963,-0.248148148,1,0,0,0.8283,Andesite_rect,11,0,11,0,1,
582c71a66ef28c00019a1068,SCR,2024-06-24_18h01.02.100,LearnStrategy,2023.2.3,Win32,59.88023952,4,2,13,,,,,,,,8,04,,,,,,,,,,,,,4,1.097,0,,,,,,0.350925926,-0.253703704,1,0,0,1.0972,Gabbro_rect,12,0,12,0,1,
582c71a66ef28c00019a1068,SCR,2024-06-24_18h01.02.100,LearnStrategy,2023.2.3,Win32,59.88023952,4,2,14,,,,,,,,5,14,,,,,,,,,,,,,5,1.149,1,,,,,,-0.400925926,-0.399074074,1,0,0,1.1495,Obsidian_rect,13,0,13,0,1,
582c71a66ef28c00019a1068,SCR,2024-06-24_18h01.02.100,LearnStrategy,2023.2.3,Win32,59.88023952,4,2,15,,,,,,,,7,04,,,,,,,,,,,,,2,1.698,0,,,,,,-0.118518519,-0.244444444,1,0,0,1.6976,Basalt_rect,14,0,14,0,1,
582c71a66ef28c00019a1068,SCR,2024-06-24_18h01.02.100,LearnStrategy,2023.2.3,Win32,59.88023952,4,2,16,,,,,,,,1,01,,,,,,,,,,,,,7,1.293,0,,,,,,0.130555556,-0.396296296,1,0,0,1.293,Peridotite_rect,15,0,15,0,1,
582c71a66ef28c00019a1068,SCR,2024-06-24_18h01.02.100,LearnStrategy,2023.2.3,Win32,59.88023952,5,1,1,0.096296296,-0.097222222,1,0,0,1.464,Basalt_05,2,05,3,5,1.464,2,10,-0.114814815,-0.233333333,1,0,0,0.5808,Basalt_rect,2,0.581,1,0,0,0,0,1,,,,,,,,,,,,,
582c71a66ef28c00019a1068,SCR,2024-06-24_18h01.02.100,LearnStrategy,2023.2.3,Win32,59.88023952,5,1,2,0.113888889,0.243518519,1,0,0,1.8321,Andesite_07,1,07,5,5,1.832,1,07,0.414814815,-0.4,1,0,0,0.8643,Pumice_rect,8,0.864,0,1,0,1,0,1,,,,,,,,,,,,,
582c71a66ef28c00019a1068,SCR,2024-06-24_18h01.02.100,LearnStrategy,2023.2.3,Win32,59.88023952,5,1,3,0.573148148,0.403703704,1,0,0,0.9854,Gabbro_14,4,14,6,8,0.985,4,14,0.447222222,-0.239814815,1,0,0,0.6651,Gabbro_rect,4,0.665,1,2,0,2,0,1,,,,,,,,,,,,,
582c71a66ef28c00019a1068,SCR,2024-06-24_18h01.02.100,LearnStrategy,2023.2.3,Win32,59.88023952,5,1,4,-0.224074074,0.246296296,1,0,0,1.5317,Pegmatite_10,6,10,5,3,1.532,6,10,-0.169444444,-0.398148148,1,0,0,0.8978,Pegmatite_rect,6,0.898,1,3,0,3,0,1,,,,,,,,,,,,,
582c71a66ef28c00019a1068,SCR,2024-06-24_18h01.02.100,LearnStrategy,2023.2.3,Win32,59.88023952,5,1,5,0.575925926,-0.415740741,1,0,0,1.1824,Gabbro_01,4,01,1,8,1.182,4,01,0.126851852,-0.394444444,1,0,0,0.6144,Peridotite_rect,7,0.614,0,4,0,4,0,1,,,,,,,,,,,,,
582c71a66ef28c00019a1068,SCR,2024-06-24_18h01.02.100,LearnStrategy,2023.2.3,Win32,59.88023952,5,1,6,0.598148148,0.412037037,1,0,0,1.8657,Gabbro_14,4,14,6,8,1.866,4,14,0.396296296,-0.265740741,1,0,0,0.8148,Gabbro_rect,4,0.815,1,5,0,5,0,1,,,,,,,,,,,,,
582c71a66ef28c00019a1068,SCR,2024-06-24_18h01.02.100,LearnStrategy,2023.2.3,Win32,59.88023952,5,1,7,-0.250925926,-0.12037037,1,0,0,0.9,Obsidian_12,5,12,3,3,0.9,5,12,-0.389814815,-0.415740741,1,0,0,0.5812,Obsidian_rect,5,0.581,1,6,0,6,0,1,,,,,,,,,,,,,
582c71a66ef28c00019a1068,SCR,2024-06-24_18h01.02.100,LearnStrategy,2023.2.3,Win32,59.88023952,5,1,8,-0.22037037,0.428703704,1,0,0,1.2987,Diorite_02,3,02,6,3,1.299,3,02,0.141666667,-0.382407407,1,0,0,1.5661,Peridotite_rect,7,1.566,0,7,0,7,0,1,,,,,,,,,,,,,
582c71a66ef28c00019a1068,SCR,2024-06-24_18h01.02.100,LearnStrategy,2023.2.3,Win32,59.88023952,5,1,9,-0.225925926,-0.367592593,1,0,0,1.0532,Pumice_10,8,10,1,3,1.053,8,10,-0.398148148,-0.248148148,1,0,0,0.895,Andesite_rect,1,0.895,0,8,0,8,0,1,,,,,,,,,,,,,
582c71a66ef28c00019a1068,SCR,2024-06-24_18h01.02.100,LearnStrategy,2023.2.3,Win32,59.88023952,5,1,10,0.396296296,-0.42962963,1,0,0,1.8323,Diorite_09,3,09,1,7,1.832,3,09,0.125925926,-0.413888889,1,0,0,0.9978,Peridotite_rect,7,0.998,0,9,0,9,0,1,,,,,,,,,,,,,
582c71a66ef28c00019a1068,SCR,2024-06-24_18h01.02.100,LearnStrategy,2023.2.3,Win32,59.88023952,5,1,11,-0.071296296,-0.266666667,1,0,0,0.9031,Peridotite_15,7,15,2,4,0.903,7,15,-0.077777778,-0.407407407,1,0,0,1.2285,Pegmatite_rect,6,1.228,0,10,0,10,0,1,,,,,,,,,,,,,
582c71a66ef28c00019a1068,SCR,2024-06-24_18h01.02.100,LearnStrategy,2023.2.3,Win32,59.88023952,5,1,12,-0.549074074,0.269444444,1,0,0,0.9656,Pegmatite_08,6,08,5,1,0.966,7,06,-0.409259259,-0.271296296,1,0,0,2.1832,Andesite_rect,1,2.183,0,11,0,11,0,1,,,,,,,,,,,,,
582c71a66ef28c00019a1068,SCR,2024-06-24_18h01.02.100,LearnStrategy,2023.2.3,Win32,59.88023952,5,1,13,0.075925926,0.416666667,1,0,0,2.3988,Andesite_06,1,06,6,5,2.399,1,05,-0.137962963,-0.260185185,1,0,0,1.0454,Basalt_rect,2,1.045,0,12,0,12,0,1,,,,,,,,,,,,,
582c71a66ef28c00019a1068,SCR,2024-06-24_18h01.02.100,LearnStrategy,2023.2.3,Win32,59.88023952,5,1,14,-0.092592593,0.09537037,1,0,0,1.7824,Pegmatite_13,6,13,4,4,1.782,6,10,0.148148148,-0.247222222,1,0,0,0.9977,Diorite_rect,3,0.998,0,13,0,13,0,1,,,,,,,,,,,,,
582c71a66ef28c00019a1068,SCR,2024-06-24_18h01.02.100,LearnStrategy,2023.2.3,Win32,59.88023952,5,1,15,0.237962963,-0.272222222,1,0,0,1.2325,Pumice_15,8,15,2,6,1.232,8,15,0.361111111,-0.399074074,1,0,0,1.3143,Pumice_rect,8,1.314,1,14,0,14,0,1,,,,,,,,,,,,,
582c71a66ef28c00019a1068,SCR,2024-06-24_18h01.02.100,LearnStrategy,2023.2.3,Win32,59.88023952,5,1,16,-0.421296296,0.106481481,1,0,0,1.8162,Andesite_04,1,04,4,2,1.816,2,10,0.135185185,-0.263888889,1,0,0,0.8643,Diorite_rect,3,0.864,0,15,0,15,0,1,,,,,,,,,,,,,
582c71a66ef28c00019a1068,SCR,2024-06-24_18h01.02.100,LearnStrategy,2023.2.3,Win32,59.88023952,5,2,1,,,,,,,,6,07,,,,,,,,,,,,,6,1.082,1,,,,,,-0.112962963,-0.416666667,1,0,0,1.082,Pegmatite_rect,0,0,0,0,1,
582c71a66ef28c00019a1068,SCR,2024-06-24_18h01.02.100,LearnStrategy,2023.2.3,Win32,59.88023952,5,2,2,,,,,,,,3,12,,,,,,,,,,,,,4,0.916,0,,,,,,0.453703704,-0.250925926,1,0,0,0.9159,Gabbro_rect,1,0,1,0,1,
582c71a66ef28c00019a1068,SCR,2024-06-24_18h01.02.100,LearnStrategy,2023.2.3,Win32,59.88023952,5,2,3,,,,,,,,1,09,,,,,,,,,,,,,2,0.933,0,,,,,,-0.109259259,-0.246296296,1,0,0,0.933,Basalt_rect,2,0,2,0,1,
582c71a66ef28c00019a1068,SCR,2024-06-24_18h01.02.100,LearnStrategy,2023.2.3,Win32,59.88023952,5,2,4,,,,,,,,5,02,,,,,,,,,,,,,5,0.763,1,,,,,,-0.394444444,-0.412037037,1,0,0,0.7631,Obsidian_rect,3,0,3,0,1,
582c71a66ef28c00019a1068,SCR,2024-06-24_18h01.02.100,LearnStrategy,2023.2.3,Win32,59.88023952,5,2,5,,,,,,,,3,10,,,,,,,,,,,,,1,0.699,0,,,,,,-0.387962963,-0.238888889,1,0,0,0.6992,Andesite_rect,4,0,4,0,1,
582c71a66ef28c00019a1068,SCR,2024-06-24_18h01.02.100,LearnStrategy,2023.2.3,Win32,59.88023952,5,2,6,,,,,,,,4,05,,,,,,,,,,,,,8,0.566,0,,,,,,0.407407407,-0.412037037,1,0,0,0.566,Pumice_rect,5,0,5,0,1,
582c71a66ef28c00019a1068,SCR,2024-06-24_18h01.02.100,LearnStrategy,2023.2.3,Win32,59.88023952,5,2,7,,,,,,,,2,12,,,,,,,,,,,,,2,1.053,1,,,,,,-0.140740741,-0.246296296,1,0,0,1.053,Basalt_rect,6,0,6,0,1,
582c71a66ef28c00019a1068,SCR,2024-06-24_18h01.02.100,LearnStrategy,2023.2.3,Win32,59.88023952,5,2,8,,,,,,,,5,06,,,,,,,,,,,,,5,1.384,1,,,,,,-0.407407407,-0.409259259,1,0,0,1.3839,Obsidian_rect,7,0,7,0,1,
582c71a66ef28c00019a1068,SCR,2024-06-24_18h01.02.100,LearnStrategy,2023.2.3,Win32,59.88023952,5,2,9,,,,,,,,7,10,,,,,,,,,,,,,3,0.649,0,,,,,,0.092592593,-0.264814815,1,0,0,0.649,Diorite_rect,8,0,8,0,1,
582c71a66ef28c00019a1068,SCR,2024-06-24_18h01.02.100,LearnStrategy,2023.2.3,Win32,59.88023952,5,2,10,,,,,,,,7,07,,,,,,,,,,,,,7,0.91,1,,,,,,0.122222222,-0.39537037,1,0,0,0.9104,Peridotite_rect,9,0,9,0,1,
582c71a66ef28c00019a1068,SCR,2024-06-24_18h01.02.100,LearnStrategy,2023.2.3,Win32,59.88023952,5,2,11,,,,,,,,4,10,,,,,,,,,,,,,1,0.794,0,,,,,,-0.381481481,-0.255555556,1,0,0,0.7945,Andesite_rect,10,0,10,0,1,
582c71a66ef28c00019a1068,SCR,2024-06-24_18h01.02.100,LearnStrategy,2023.2.3,Win32,59.88023952,5,2,12,,,,,,,,6,05,,,,,,,,,,,,,4,2.734,0,,,,,,0.4,-0.259259259,1,0,0,2.7338,Gabbro_rect,11,0,11,0,1,
582c71a66ef28c00019a1068,SCR,2024-06-24_18h01.02.100,LearnStrategy,2023.2.3,Win32,59.88023952,5,2,13,,,,,,,,8,03,,,,,,,,,,,,,4,2.06,0,,,,,,0.394444444,-0.233333333,1,0,0,2.0599,Gabbro_rect,12,0,12,0,1,
582c71a66ef28c00019a1068,SCR,2024-06-24_18h01.02.100,LearnStrategy,2023.2.3,Win32,59.88023952,5,2,14,,,,,,,,2,06,,,,,,,,,,,,,6,1.449,0,,,,,,-0.132407407,-0.410185185,1,0,0,1.4494,Pegmatite_rect,13,0,13,0,1,
582c71a66ef28c00019a1068,SCR,2024-06-24_18h01.02.100,LearnStrategy,2023.2.3,Win32,59.88023952,5,2,15,,,,,,,,8,05,,,,,,,,,,,,,1,22.083,0,,,,,,-0.386111111,-0.232407407,1,0,0,22.0826,Andesite_rect,14,0,14,0,1,
582c71a66ef28c00019a1068,SCR,2024-06-24_18h01.02.100,LearnStrategy,2023.2.3,Win32,59.88023952,5,2,16,,,,,,,,1,14,,,,,,,,,,,,,2,1.993,0,,,,,,-0.128703704,-0.240740741,1,0,0,1.9934,Basalt_rect,15,0,15,0,1,
582c71a66ef28c00019a1068,SCR,2024-06-24_18h01.02.100,LearnStrategy,2023.2.3,Win32,59.88023952,6,1,1,-0.403703704,-0.422222222,1,0,0,1.316,Andesite_03,1,03,1,2,1.316,4,12,-0.419444444,-0.405555556,1,0,0,1.2477,Obsidian_rect,5,1.248,0,0,0,0,0,1,,,,,,,,,,,,,
582c71a66ef28c00019a1068,SCR,2024-06-24_18h01.02.100,LearnStrategy,2023.2.3,Win32,59.88023952,6,1,2,0.073148148,0.101851852,1,0,0,1.3254,Basalt_04,2,04,4,5,1.325,6,10,-0.117592593,-0.24537037,1,0,0,0.6963,Basalt_rect,2,0.696,1,1,0,1,0,1,,,,,,,,,,,,,
582c71a66ef28c00019a1068,SCR,2024-06-24_18h01.02.100,LearnStrategy,2023.2.3,Win32,59.88023952,6,1,3,-0.242592593,0.078703704,1,0,0,2.8497,Gabbro_12,4,12,4,3,2.85,7,15,0.136111111,-0.403703704,1,0,0,2.1075,Peridotite_rect,7,2.108,0,2,0,2,0,1,,,,,,,,,,,,,
582c71a66ef28c00019a1068,SCR,2024-06-24_18h01.02.100,LearnStrategy,2023.2.3,Win32,59.88023952,6,1,4,-0.560185185,-0.405555556,1,0,0,1.2131,Diorite_14,3,14,1,1,1.213,8,06,0.403703704,-0.414814815,1,0,0,0.9808,Pumice_rect,8,0.981,0,3,0,3,0,1,,,,,,,,,,,,,
582c71a66ef28c00019a1068,SCR,2024-06-24_18h01.02.100,LearnStrategy,2023.2.3,Win32,59.88023952,6,1,5,0.577777778,-0.063888889,1,0,0,1.1477,Pegmatite_06,6,06,3,8,1.148,4,16,-0.407407407,-0.264814815,1,0,0,2.214,Andesite_rect,1,2.214,0,4,0,4,0,1,,,,,,,,,,,,,
582c71a66ef28c00019a1068,SCR,2024-06-24_18h01.02.100,LearnStrategy,2023.2.3,Win32,59.88023952,6,1,6,-0.07962963,-0.097222222,1,0,0,68.0801,Obsidian_16,5,16,3,4,68.08,1,05,-0.4,-0.403703704,1,0,0,0.5702,Obsidian_rect,5,0.57,1,5,0,5,0,1,,,,,,,,,,,,,
582c71a66ef28c00019a1068,SCR,2024-06-24_18h01.02.100,LearnStrategy,2023.2.3,Win32,59.88023952,6,1,7,-0.384259259,0.077777778,1,0,0,0.9462,Andesite_04,1,04,4,2,0.946,2,04,-0.397222222,-0.236111111,1,0,0,0.9144,Andesite_rect,1,0.914,1,6,0,6,0,1,,,,,,,,,,,,,
582c71a66ef28c00019a1068,SCR,2024-06-24_18h01.02.100,LearnStrategy,2023.2.3,Win32,59.88023952,6,1,8,0.078703704,0.111111111,1,0,0,1.5162,Basalt_04,2,04,4,5,1.516,4,09,0.15,-0.248148148,1,0,0,0.7419,Diorite_rect,3,0.742,0,7,0,7,0,1,,,,,,,,,,,,,
582c71a66ef28c00019a1068,SCR,2024-06-24_18h01.02.100,LearnStrategy,2023.2.3,Win32,59.88023952,6,1,9,0.543518519,0.236111111,1,0,0,1.0299,Andesite_05,1,05,5,8,1.03,8,16,0.402777778,-0.241666667,1,0,0,1.1132,Gabbro_rect,4,1.113,0,8,0,8,0,1,,,,,,,,,,,,,
582c71a66ef28c00019a1068,SCR,2024-06-24_18h01.02.100,LearnStrategy,2023.2.3,Win32,59.88023952,6,1,10,0.536111111,-0.411111111,1,0,0,1.0485,Gabbro_01,4,01,1,8,1.048,1,04,0.427777778,-0.411111111,1,0,0,0.5969,Pumice_rect,8,0.597,0,9,0,9,0,1,,,,,,,,,,,,,
582c71a66ef28c00019a1068,SCR,2024-06-24_18h01.02.100,LearnStrategy,2023.2.3,Win32,59.88023952,6,1,11,0.407407407,-0.425925926,1,0,0,0.731,Diorite_09,3,09,1,7,0.731,3,07,0.42962963,-0.246296296,1,0,0,0.7305,Gabbro_rect,4,0.731,0,10,0,10,0,1,,,,,,,,,,,,,
582c71a66ef28c00019a1068,SCR,2024-06-24_18h01.02.100,LearnStrategy,2023.2.3,Win32,59.88023952,6,1,12,0.241666667,-0.425,1,0,0,0.6803,Andesite_10,1,10,1,6,0.68,3,14,-0.135185185,-0.240740741,1,0,0,0.781,Basalt_rect,2,0.781,0,11,0,11,0,1,,,,,,,,,,,,,
582c71a66ef28c00019a1068,SCR,2024-06-24_18h01.02.100,LearnStrategy,2023.2.3,Win32,59.88023952,6,1,13,-0.032407407,-0.421296296,1,0,0,0.7807,Obsidian_04,5,04,1,4,0.781,2,01,-0.372222222,-0.386111111,1,0,0,0.8142,Obsidian_rect,5,0.814,1,12,0,12,0,1,,,,,,,,,,,,,
582c71a66ef28c00019a1068,SCR,2024-06-24_18h01.02.100,LearnStrategy,2023.2.3,Win32,59.88023952,6,1,14,-0.244444444,-0.451851852,1,0,0,0.7635,Pumice_10,8,10,1,3,0.764,1,06,0.441666667,-0.397222222,1,0,0,0.9979,Pumice_rect,8,0.998,1,13,0,13,0,1,,,,,,,,,,,,,
582c71a66ef28c00019a1068,SCR,2024-06-24_18h01.02.100,LearnStrategy,2023.2.3,Win32,59.88023952,6,1,15,-0.586111111,-0.391666667,1,0,0,0.9132,Diorite_14,3,14,1,1,0.913,6,11,0.092592593,-0.393518519,1,0,0,0.6643,Peridotite_rect,7,0.664,0,14,0,14,0,1,,,,,,,,,,,,,
582c71a66ef28c00019a1068,SCR,2024-06-24_18h01.02.100,LearnStrategy,2023.2.3,Win32,59.88023952,6,1,16,-0.52962963,-0.237037037,1,0,0,0.9529,Peridotite_05,7,05,2,1,0.953,7,14,-0.363888889,-0.258333333,1,0,0,0.6953,Andesite_rect,1,0.695,0,15,0,15,0,1,,,,,,,,,,,,,
582c71a66ef28c00019a1068,SCR,2024-06-24_18h01.02.100,LearnStrategy,2023.2.3,Win32,59.88023952,6,2,1,,,,,,,,5,05,,,,,,,,,,,,,5,1.746,1,,,,,,-0.391666667,-0.39537037,1,0,0,1.746,Obsidian_rect,0,0,0,0,1,
582c71a66ef28c00019a1068,SCR,2024-06-24_18h01.02.100,LearnStrategy,2023.2.3,Win32,59.88023952,6,2,2,,,,,,,,7,02,,,,,,,,,,,,,1,0.766,0,,,,,,-0.349074074,-0.233333333,1,0,0,0.7657,Andesite_rect,1,0,1,0,1,
582c71a66ef28c00019a1068,SCR,2024-06-24_18h01.02.100,LearnStrategy,2023.2.3,Win32,59.88023952,6,2,3,,,,,,,,2,11,,,,,,,,,,,,,3,1.232,0,,,,,,0.17037037,-0.248148148,1,0,0,1.2323,Diorite_rect,2,0,2,0,1,
582c71a66ef28c00019a1068,SCR,2024-06-24_18h01.02.100,LearnStrategy,2023.2.3,Win32,59.88023952,6,2,4,,,,,,,,2,02,,,,,,,,,,,,,6,0.8,0,,,,,,-0.123148148,-0.401851852,1,0,0,0.8004,Pegmatite_rect,3,0,3,0,1,
582c71a66ef28c00019a1068,SCR,2024-06-24_18h01.02.100,LearnStrategy,2023.2.3,Win32,59.88023952,6,2,5,,,,,,,,4,08,,,,,,,,,,,,,8,1.133,0,,,,,,0.399074074,-0.412037037,1,0,0,1.1327,Pumice_rect,4,0,4,0,1,
582c71a66ef28c00019a1068,SCR,2024-06-24_18h01.02.100,LearnStrategy,2023.2.3,Win32,59.88023952,6,2,6,,,,,,,,7,08,,,,,,,,,,,,,7,0.249,1,,,,,,0.15,-0.398148148,1,0,0,0.2489,Peridotite_rect,5,0,5,0,1,
582c71a66ef28c00019a1068,SCR,2024-06-24_18h01.02.100,LearnStrategy,2023.2.3,Win32,59.88023952,6,2,7,,,,,,,,8,13,,,,,,,,,,,,,4,0.266,0,,,,,,0.446296296,-0.242592593,1,0,0,0.2656,Gabbro_rect,6,0,6,0,1,
582c71a66ef28c00019a1068,SCR,2024-06-24_18h01.02.100,LearnStrategy,2023.2.3,Win32,59.88023952,6,2,8,,,,,,,,3,13,,,,,,,,,,,,,5,0.266,0,,,,,,-0.443518519,-0.389814815,1,0,0,0.2659,Obsidian_rect,7,0,7,0,1,
582c71a66ef28c00019a1068,SCR,2024-06-24_18h01.02.100,LearnStrategy,2023.2.3,Win32,59.88023952,6,2,9,,,,,,,,5,07,,,,,,,,,,,,,5,1.132,1,,,,,,-0.373148148,-0.416666667,1,0,0,1.1324,Obsidian_rect,8,0,8,0,1,
582c71a66ef28c00019a1068,SCR,2024-06-24_18h01.02.100,LearnStrategy,2023.2.3,Win32,59.88023952,6,2,10,,,,,,,,6,16,,,,,,,,,,,,,1,0.251,0,,,,,,-0.369444444,-0.25462963,1,0,0,0.2511,Andesite_rect,9,0,9,0,1,
582c71a66ef28c00019a1068,SCR,2024-06-24_18h01.02.100,LearnStrategy,2023.2.3,Win32,59.88023952,6,2,11,,,,,,,,4,03,,,,,,,,,,,,,6,0.134,0,,,,,,-0.172222222,-0.399074074,1,0,0,0.1336,Pegmatite_rect,10,0,10,0,1,
582c71a66ef28c00019a1068,SCR,2024-06-24_18h01.02.100,LearnStrategy,2023.2.3,Win32,59.88023952,6,2,12,,,,,,,,1,16,,,,,,,,,,,,,2,0.233,0,,,,,,-0.130555556,-0.247222222,1,0,0,0.2328,Basalt_rect,11,0,11,0,1,
582c71a66ef28c00019a1068,SCR,2024-06-24_18h01.02.100,LearnStrategy,2023.2.3,Win32,59.88023952,6,2,13,,,,,,,,1,11,,,,,,,,,,,,,2,0.918,0,,,,,,-0.087037037,-0.246296296,1,0,0,0.9178,Basalt_rect,12,0,12,0,1,
582c71a66ef28c00019a1068,SCR,2024-06-24_18h01.02.100,LearnStrategy,2023.2.3,Win32,59.88023952,6,2,14,,,,,,,,3,06,,,,,,,,,,,,,3,0.049,1,,,,,,0.148148148,-0.25,1,0,0,0.049,Diorite_rect,13,0,13,0,1,
582c71a66ef28c00019a1068,SCR,2024-06-24_18h01.02.100,LearnStrategy,2023.2.3,Win32,59.88023952,6,2,15,,,,,,,,6,15,,,,,,,,,,,,,4,0.399,0,,,,,,0.360185185,-0.235185185,1,0,0,0.399,Gabbro_rect,14,0,14,0,1,
582c71a66ef28c00019a1068,SCR,2024-06-24_18h01.02.100,LearnStrategy,2023.2.3,Win32,59.88023952,6,2,16,,,,,,,,8,08,,,,,,,,,,,,,7,2.182,0,,,,,,0.183333333,-0.403703704,1,0,0,2.1822,Peridotite_rect,15,0,15,0,1,
582c71a66ef28c00019a1068,SCR,2024-06-24_18h01.02.100,LearnStrategy,2023.2.3,Win32,59.88023952,7,1,1,-0.54537037,-0.419444444,1,0,0,1.0539,Diorite_14,3,14,1,1,1.054,1,06,-0.359259259,-0.241666667,1,0,0,0.8285,Andesite_rect,1,0.828,0,0,0,0,0,1,,,,,,,,,,,,,
582c71a66ef28c00019a1068,SCR,2024-06-24_18h01.02.100,LearnStrategy,2023.2.3,Win32,59.88023952,7,1,2,-0.387037037,-0.42962963,1,0,0,0.7198,Andesite_03,1,03,1,2,0.72,8,16,-0.115740741,-0.231481481,1,0,0,0.912,Basalt_rect,2,0.912,0,1,0,1,0,1,,,,,,,,,,,,,
582c71a66ef28c00019a1068,SCR,2024-06-24_18h01.02.100,LearnStrategy,2023.2.3,Win32,59.88023952,7,1,3,-0.221296296,-0.431481481,1,0,0,0.8201,Pumice_10,8,10,1,3,0.82,6,10,0.394444444,-0.412962963,1,0,0,0.6784,Pumice_rect,8,0.678,1,2,0,2,0,1,,,,,,,,,,,,,
582c71a66ef28c00019a1068,SCR,2024-06-24_18h01.02.100,LearnStrategy,2023.2.3,Win32,59.88023952,7,1,4,-0.09537037,-0.444444444,1,0,0,0.6534,Obsidian_04,5,04,1,4,0.653,4,01,-0.459259259,-0.417592593,1,0,0,0.6787,Obsidian_rect,5,0.679,1,3,0,3,0,1,,,,,,,,,,,,,
582c71a66ef28c00019a1068,SCR,2024-06-24_18h01.02.100,LearnStrategy,2023.2.3,Win32,59.88023952,7,1,5,0.09537037,-0.400925926,1,0,0,0.7535,Obsidian_09,5,09,1,5,0.754,8,14,-0.391666667,-0.402777778,1,0,0,0.7453,Obsidian_rect,5,0.745,1,4,0,4,0,1,,,,,,,,,,,,,
582c71a66ef28c00019a1068,SCR,2024-06-24_18h01.02.100,LearnStrategy,2023.2.3,Win32,59.88023952,7,1,6,0.238888889,-0.421296296,1,0,0,0.7729,Andesite_10,1,10,1,6,0.773,2,16,-0.084259259,-0.230555556,1,0,0,0.6616,Basalt_rect,2,0.662,0,5,0,5,0,1,,,,,,,,,,,,,
582c71a66ef28c00019a1068,SCR,2024-06-24_18h01.02.100,LearnStrategy,2023.2.3,Win32,59.88023952,7,1,7,0.437962963,-0.419444444,1,0,0,0.8366,Diorite_09,3,09,1,7,0.837,4,09,0.199074074,-0.235185185,1,0,0,1.2118,Diorite_rect,3,1.212,1,6,0,6,0,1,,,,,,,,,,,,,
582c71a66ef28c00019a1068,SCR,2024-06-24_18h01.02.100,LearnStrategy,2023.2.3,Win32,59.88023952,7,1,8,0.555555556,-0.412962963,1,0,0,0.9034,Gabbro_01,4,01,1,8,0.903,7,13,0.40462963,-0.235185185,1,0,0,0.4951,Gabbro_rect,4,0.495,1,7,0,7,0,1,,,,,,,,,,,,,
582c71a66ef28c00019a1068,SCR,2024-06-24_18h01.02.100,LearnStrategy,2023.2.3,Win32,59.88023952,7,1,9,0.591666667,-0.283333333,1,0,0,0.6659,Gabbro_16,4,16,2,8,0.666,7,13,0.075925926,-0.402777778,1,0,0,0.6479,Peridotite_rect,7,0.648,0,8,0,8,0,1,,,,,,,,,,,,,
582c71a66ef28c00019a1068,SCR,2024-06-24_18h01.02.100,LearnStrategy,2023.2.3,Win32,59.88023952,7,1,10,0.425,-0.283333333,1,0,0,0.7869,Diorite_11,3,11,2,7,0.787,3,14,-0.113888889,-0.398148148,1,0,0,0.5613,Pegmatite_rect,6,0.561,0,9,0,9,0,1,,,,,,,,,,,,,
582c71a66ef28c00019a1068,SCR,2024-06-24_18h01.02.100,LearnStrategy,2023.2.3,Win32,59.88023952,7,1,11,0.234259259,-0.258333333,1,0,0,0.8213,Pumice_15,8,15,2,6,0.821,1,04,-0.150925926,-0.387962963,1,0,0,1.3437,Pegmatite_rect,6,1.344,0,10,0,10,0,1,,,,,,,,,,,,,
582c71a66ef28c00019a1068,SCR,2024-06-24_18h01.02.100,LearnStrategy,2023.2.3,Win32,59.88023952,7,1,12,0.05,-0.264814815,1,0,0,0.7235,Basalt_16,2,16,2,5,0.724,6,03,0.425925926,-0.235185185,1,0,0,0.4955,Gabbro_rect,4,0.495,0,11,0,11,0,1,,,,,,,,,,,,,
582c71a66ef28c00019a1068,SCR,2024-06-24_18h01.02.100,LearnStrategy,2023.2.3,Win32,59.88023952,7,1,13,-0.062962963,-0.246296296,1,0,0,0.9823,Peridotite_15,7,15,2,4,0.982,2,08,-0.133333333,-0.403703704,1,0,0,1.131,Pegmatite_rect,6,1.131,0,12,0,12,0,1,,,,,,,,,,,,,
582c71a66ef28c00019a1068,SCR,2024-06-24_18h01.02.100,LearnStrategy,2023.2.3,Win32,59.88023952,7,1,14,-0.19537037,-0.239814815,1,0,0,0.8866,Diorite_15,3,15,2,3,0.887,1,05,0.126851852,-0.252777778,1,0,0,1.0784,Diorite_rect,3,1.078,1,13,0,13,0,1,,,,,,,,,,,,,
582c71a66ef28c00019a1068,SCR,2024-06-24_18h01.02.100,LearnStrategy,2023.2.3,Win32,59.88023952,7,1,15,-0.378703704,-0.252777778,1,0,0,0.8532,Basalt_01,2,01,2,2,0.853,3,15,-0.141666667,-0.251851852,1,0,0,0.5119,Basalt_rect,2,0.512,1,14,0,14,0,1,,,,,,,,,,,,,
582c71a66ef28c00019a1068,SCR,2024-06-24_18h01.02.100,LearnStrategy,2023.2.3,Win32,59.88023952,7,1,16,-0.54537037,-0.261111111,1,0,0,0.7031,Peridotite_05,7,05,2,1,0.703,4,14,-0.437037037,-0.249074074,1,0,0,0.5285,Andesite_rect,1,0.528,0,15,0,15,0,1,,,,,,,,,,,,,
582c71a66ef28c00019a1068,SCR,2024-06-24_18h01.02.100,LearnStrategy,2023.2.3,Win32,59.88023952,7,2,1,,,,,,,,2,14,,,,,,,,,,,,,3,1.043,0,,,,,,0.118518519,-0.244444444,1,0,0,1.0434,Diorite_rect,0,0,0,0,1,
582c71a66ef28c00019a1068,SCR,2024-06-24_18h01.02.100,LearnStrategy,2023.2.3,Win32,59.88023952,7,2,2,,,,,,,,4,11,,,,,,,,,,,,,2,1.133,0,,,,,,-0.122222222,-0.258333333,1,0,0,1.1331,Basalt_rect,1,0,1,0,1,
582c71a66ef28c00019a1068,SCR,2024-06-24_18h01.02.100,LearnStrategy,2023.2.3,Win32,59.88023952,7,2,3,,,,,,,,5,07,,,,,,,,,,,,,6,0.25,0,,,,,,-0.127777778,-0.387037037,1,0,0,0.2501,Pegmatite_rect,2,0,2,0,1,
582c71a66ef28c00019a1068,SCR,2024-06-24_18h01.02.100,LearnStrategy,2023.2.3,Win32,59.88023952,7,2,4,,,,,,,,4,03,,,,,,,,,,,,,7,1.101,0,,,,,,0.12962963,-0.399074074,1,0,0,1.1009,Peridotite_rect,3,0,3,0,1,
582c71a66ef28c00019a1068,SCR,2024-06-24_18h01.02.100,LearnStrategy,2023.2.3,Win32,59.88023952,7,2,5,,,,,,,,6,07,,,,,,,,,,,,,1,1.166,0,,,,,,-0.376851852,-0.250925926,1,0,0,1.166,Andesite_rect,4,0,4,0,1,
582c71a66ef28c00019a1068,SCR,2024-06-24_18h01.02.100,LearnStrategy,2023.2.3,Win32,59.88023952,7,2,6,,,,,,,,6,05,,,,,,,,,,,,,6,0.733,1,,,,,,-0.151851852,-0.387037037,1,0,0,0.7329,Pegmatite_rect,5,0,5,0,1,
582c71a66ef28c00019a1068,SCR,2024-06-24_18h01.02.100,LearnStrategy,2023.2.3,Win32,59.88023952,7,2,7,,,,,,,,1,09,,,,,,,,,,,,,2,1.166,0,,,,,,-0.106481481,-0.252777778,1,0,0,1.1664,Basalt_rect,6,0,6,0,1,
582c71a66ef28c00019a1068,SCR,2024-06-24_18h01.02.100,LearnStrategy,2023.2.3,Win32,59.88023952,7,2,8,,,,,,,,7,08,,,,,,,,,,,,,4,0.349,0,,,,,,0.378703704,-0.228703704,1,0,0,0.349,Gabbro_rect,7,0,7,0,1,
582c71a66ef28c00019a1068,SCR,2024-06-24_18h01.02.100,LearnStrategy,2023.2.3,Win32,59.88023952,7,2,9,,,,,,,,8,13,,,,,,,,,,,,,5,0.283,0,,,,,,-0.432407407,-0.403703704,1,0,0,0.2829,Obsidian_rect,8,0,8,0,1,
582c71a66ef28c00019a1068,SCR,2024-06-24_18h01.02.100,LearnStrategy,2023.2.3,Win32,59.88023952,7,2,10,,,,,,,,3,08,,,,,,,,,,,,,1,0.878,0,,,,,,-0.367592593,-0.261111111,1,0,0,0.8778,Andesite_rect,9,0,9,0,1,
582c71a66ef28c00019a1068,SCR,2024-06-24_18h01.02.100,LearnStrategy,2023.2.3,Win32,59.88023952,7,2,11,,,,,,,,2,12,,,,,,,,,,,,,6,0.965,0,,,,,,-0.091666667,-0.397222222,1,0,0,0.9649,Pegmatite_rect,10,0,10,0,1,
582c71a66ef28c00019a1068,SCR,2024-06-24_18h01.02.100,LearnStrategy,2023.2.3,Win32,59.88023952,7,2,12,,,,,,,,1,14,,,,,,,,,,,,,3,0.916,0,,,,,,0.091666667,-0.261111111,1,0,0,0.9158,Diorite_rect,11,0,11,0,1,
582c71a66ef28c00019a1068,SCR,2024-06-24_18h01.02.100,LearnStrategy,2023.2.3,Win32,59.88023952,7,2,13,,,,,,,,8,04,,,,,,,,,,,,,2,0.583,0,,,,,,-0.178703704,-0.241666667,1,0,0,0.5827,Basalt_rect,12,0,12,0,1,
582c71a66ef28c00019a1068,SCR,2024-06-24_18h01.02.100,LearnStrategy,2023.2.3,Win32,59.88023952,7,2,14,,,,,,,,5,06,,,,,,,,,,,,,5,0.911,1,,,,,,-0.361111111,-0.405555556,1,0,0,0.9108,Obsidian_rect,13,0,13,0,1,
582c71a66ef28c00019a1068,SCR,2024-06-24_18h01.02.100,LearnStrategy,2023.2.3,Win32,59.88023952,7,2,15,,,,,,,,7,04,,,,,,,,,,,,,2,1.268,0,,,,,,-0.105555556,-0.234259259,1,0,0,1.2684,Basalt_rect,14,0,14,0,1,
582c71a66ef28c00019a1068,SCR,2024-06-24_18h01.02.100,LearnStrategy,2023.2.3,Win32,59.88023952,7,2,16,,,,,,,,3,12,,,,,,,,,,,,,7,0.496,0,,,,,,0.113888889,-0.40462963,1,0,0,0.4961,Peridotite_rect,15,0,15,0,1,
582c71a66ef28c00019a1068,SCR,2024-06-24_18h01.02.100,LearnStrategy,2023.2.3,Win32,59.88023952,8,1,1,-0.563888889,-0.110185185,1,0,0,0.7554,Basalt_10,2,10,3,1,0.755,8,02,-0.419444444,-0.259259259,1,0,0,0.6781,Andesite_rect,1,0.678,0,0,0,0,0,1,,,,,,,,,,,,,
582c71a66ef28c00019a1068,SCR,2024-06-24_18h01.02.100,LearnStrategy,2023.2.3,Win32,59.88023952,8,1,2,-0.394444444,-0.090740741,1,0,0,0.7359,Gabbro_13,4,13,3,2,0.736,7,16,0.141666667,-0.237037037,1,0,0,0.6784,Diorite_rect,3,0.678,0,1,0,1,0,1,,,,,,,,,,,,,
582c71a66ef28c00019a1068,SCR,2024-06-24_18h01.02.100,LearnStrategy,2023.2.3,Win32,59.88023952,8,1,3,-0.214814815,-0.128703704,1,0,0,0.8201,Obsidian_12,5,12,3,3,0.82,7,15,-0.438888889,-0.387962963,1,0,0,0.5785,Obsidian_rect,5,0.578,1,2,0,2,0,1,,,,,,,,,,,,,
582c71a66ef28c00019a1068,SCR,2024-06-24_18h01.02.100,LearnStrategy,2023.2.3,Win32,59.88023952,8,1,4,-0.043518519,-0.101851852,1,0,0,0.5701,Obsidian_16,5,16,3,4,0.57,1,03,-0.338888889,-0.400925926,1,0,0,0.6455,Obsidian_rect,5,0.645,1,3,0,3,0,1,,,,,,,,,,,,,
582c71a66ef28c00019a1068,SCR,2024-06-24_18h01.02.100,LearnStrategy,2023.2.3,Win32,59.88023952,8,1,5,0.100925926,-0.112037037,1,0,0,0.7368,Basalt_05,2,05,3,5,0.737,8,14,-0.101851852,-0.241666667,1,0,0,0.5452,Basalt_rect,2,0.545,1,4,0,4,0,1,,,,,,,,,,,,,
582c71a66ef28c00019a1068,SCR,2024-06-24_18h01.02.100,LearnStrategy,2023.2.3,Win32,59.88023952,8,1,6,0.260185185,-0.109259259,1,0,0,0.6236,Peridotite_13,7,13,3,6,0.624,1,04,0.449074074,-0.25462963,1,0,0,0.5959,Gabbro_rect,4,0.596,0,5,0,5,0,1,,,,,,,,,,,,,
582c71a66ef28c00019a1068,SCR,2024-06-24_18h01.02.100,LearnStrategy,2023.2.3,Win32,59.88023952,8,1,7,0.387037037,-0.087962963,1,0,0,0.7532,Diorite_07,3,07,3,7,0.753,3,15,0.156481481,-0.413888889,1,0,0,0.6118,Peridotite_rect,7,0.612,0,6,0,6,0,1,,,,,,,,,,,,,
582c71a66ef28c00019a1068,SCR,2024-06-24_18h01.02.100,LearnStrategy,2023.2.3,Win32,59.88023952,8,1,8,0.562962963,-0.12037037,1,0,0,0.7826,Pegmatite_06,6,06,3,8,0.783,3,11,-0.113888889,-0.403703704,1,0,0,0.5823,Pegmatite_rect,6,0.582,1,7,0,7,0,1,,,,,,,,,,,,,
582c71a66ef28c00019a1068,SCR,2024-06-24_18h01.02.100,LearnStrategy,2023.2.3,Win32,59.88023952,8,1,9,0.518518519,0.091666667,1,0,0,0.7398,Pumice_02,8,02,4,8,0.74,5,08,0.398148148,-0.382407407,1,0,0,0.8118,Pumice_rect,8,0.812,1,8,0,8,0,1,,,,,,,,,,,,,
582c71a66ef28c00019a1068,SCR,2024-06-24_18h01.02.100,LearnStrategy,2023.2.3,Win32,59.88023952,8,1,10,0.389814815,0.107407407,1,0,0,0.5871,Peridotite_06,7,06,4,7,0.587,2,10,0.133333333,-0.399074074,1,0,0,0.6458,Peridotite_rect,7,0.646,1,9,0,9,0,1,,,,,,,,,,,,,
582c71a66ef28c00019a1068,SCR,2024-06-24_18h01.02.100,LearnStrategy,2023.2.3,Win32,59.88023952,8,1,11,0.24537037,0.112962963,1,0,0,0.6227,Pegmatite_11,6,11,4,6,0.623,1,05,0.125925926,-0.243518519,1,0,0,1.2452,Diorite_rect,3,1.245,0,10,0,10,0,1,,,,,,,,,,,,,
582c71a66ef28c00019a1068,SCR,2024-06-24_18h01.02.100,LearnStrategy,2023.2.3,Win32,59.88023952,8,1,12,0.111111111,0.110185185,1,0,0,0.5864,Basalt_04,2,04,4,5,0.586,4,13,-0.187037037,-0.267592593,1,0,0,0.6288,Basalt_rect,2,0.629,1,11,0,11,0,1,,,,,,,,,,,,,
582c71a66ef28c00019a1068,SCR,2024-06-24_18h01.02.100,LearnStrategy,2023.2.3,Win32,59.88023952,8,1,13,-0.05462963,0.098148148,1,0,0,0.8492,Pegmatite_13,6,13,4,4,0.849,6,13,0.365740741,-0.25462963,1,0,0,0.7151,Gabbro_rect,4,0.715,0,12,0,12,0,1,,,,,,,,,,,,,
582c71a66ef28c00019a1068,SCR,2024-06-24_18h01.02.100,LearnStrategy,2023.2.3,Win32,59.88023952,8,1,14,-0.224074074,0.096296296,1,0,0,0.6217,Gabbro_12,4,12,4,3,0.622,4,09,-0.125925926,-0.242592593,1,0,0,0.8952,Basalt_rect,2,0.895,0,13,0,13,0,1,,,,,,,,,,,,,
582c71a66ef28c00019a1068,SCR,2024-06-24_18h01.02.100,LearnStrategy,2023.2.3,Win32,59.88023952,8,1,15,-0.37037037,0.087962963,1,0,0,0.7868,Andesite_04,1,04,4,2,0.787,2,10,-0.399074074,-0.42037037,1,0,0,0.6119,Obsidian_rect,5,0.612,0,14,0,14,0,1,,,,,,,,,,,,,
582c71a66ef28c00019a1068,SCR,2024-06-24_18h01.02.100,LearnStrategy,2023.2.3,Win32,59.88023952,8,1,16,-0.527777778,0.097222222,1,0,0,0.7365,Peridotite_16,7,16,4,1,0.736,6,06,-0.399074074,-0.248148148,1,0,0,0.5949,Andesite_rect,1,0.595,0,15,0,15,0,1,,,,,,,,,,,,,
582c71a66ef28c00019a1068,SCR,2024-06-24_18h01.02.100,LearnStrategy,2023.2.3,Win32,59.88023952,8,2,1,,,,,,,,4,08,,,,,,,,,,,,,3,1.328,0,,,,,,0.163888889,-0.246296296,1,0,0,1.3281,Diorite_rect,0,0,0,0,1,
582c71a66ef28c00019a1068,SCR,2024-06-24_18h01.02.100,LearnStrategy,2023.2.3,Win32,59.88023952,8,2,2,,,,,,,,5,02,,,,,,,,,,,,,5,1.1,1,,,,,,-0.373148148,-0.400925926,1,0,0,1.0998,Obsidian_rect,1,0,1,0,1,
582c71a66ef28c00019a1068,SCR,2024-06-24_18h01.02.100,LearnStrategy,2023.2.3,Win32,59.88023952,8,2,3,,,,,,,,6,12,,,,,,,,,,,,,4,0.582,0,,,,,,0.385185185,-0.257407407,1,0,0,0.5825,Gabbro_rect,2,0,2,0,1,
582c71a66ef28c00019a1068,SCR,2024-06-24_18h01.02.100,LearnStrategy,2023.2.3,Win32,59.88023952,8,2,4,,,,,,,,1,16,,,,,,,,,,,,,8,0.494,0,,,,,,0.387962963,-0.387962963,1,0,0,0.4942,Pumice_rect,3,0,3,0,1,
582c71a66ef28c00019a1068,SCR,2024-06-24_18h01.02.100,LearnStrategy,2023.2.3,Win32,59.88023952,8,2,5,,,,,,,,3,10,,,,,,,,,,,,,6,0.515,0,,,,,,-0.146296296,-0.4,1,0,0,0.5152,Pegmatite_rect,4,0,4,0,1,
582c71a66ef28c00019a1068,SCR,2024-06-24_18h01.02.100,LearnStrategy,2023.2.3,Win32,59.88023952,8,2,6,,,,,,,,1,02,,,,,,,,,,,,,7,0.383,0,,,,,,0.151851852,-0.385185185,1,0,0,0.383,Peridotite_rect,5,0,5,0,1,
582c71a66ef28c00019a1068,SCR,2024-06-24_18h01.02.100,LearnStrategy,2023.2.3,Win32,59.88023952,8,2,7,,,,,,,,3,13,,,,,,,,,,,,,1,0.882,0,,,,,,-0.422222222,-0.247222222,1,0,0,0.8825,Andesite_rect,6,0,6,0,1,
582c71a66ef28c00019a1068,SCR,2024-06-24_18h01.02.100,LearnStrategy,2023.2.3,Win32,59.88023952,8,2,8,,,,,,,,7,07,,,,,,,,,,,,,3,0.769,0,,,,,,0.181481481,-0.25,1,0,0,0.7693,Diorite_rect,7,0,7,0,1,
582c71a66ef28c00019a1068,SCR,2024-06-24_18h01.02.100,LearnStrategy,2023.2.3,Win32,59.88023952,8,2,9,,,,,,,,6,09,,,,,,,,,,,,,6,1.166,1,,,,,,-0.131481481,-0.403703704,1,0,0,1.166,Pegmatite_rect,8,0,8,0,1,
582c71a66ef28c00019a1068,SCR,2024-06-24_18h01.02.100,LearnStrategy,2023.2.3,Win32,59.88023952,8,2,10,,,,,,,,7,12,,,,,,,,,,,,,4,0.666,0,,,,,,0.406481481,-0.239814815,1,0,0,0.6659,Gabbro_rect,9,0,9,0,1,
582c71a66ef28c00019a1068,SCR,2024-06-24_18h01.02.100,LearnStrategy,2023.2.3,Win32,59.88023952,8,2,11,,,,,,,,2,02,,,,,,,,,,,,,3,0.298,0,,,,,,0.134259259,-0.228703704,1,0,0,0.2977,Diorite_rect,10,0,10,0,1,
582c71a66ef28c00019a1068,SCR,2024-06-24_18h01.02.100,LearnStrategy,2023.2.3,Win32,59.88023952,8,2,12,,,,,,,,5,05,,,,,,,,,,,,,5,0.947,1,,,,,,-0.421296296,-0.401851852,1,0,0,0.9467,Obsidian_rect,11,0,11,0,1,
582c71a66ef28c00019a1068,SCR,2024-06-24_18h01.02.100,LearnStrategy,2023.2.3,Win32,59.88023952,8,2,13,,,,,,,,2,09,,,,,,,,,,,,,7,0.299,0,,,,,,0.178703704,-0.399074074,1,0,0,0.2993,Peridotite_rect,12,0,12,0,1,
582c71a66ef28c00019a1068,SCR,2024-06-24_18h01.02.100,LearnStrategy,2023.2.3,Win32,59.88023952,8,2,14,,,,,,,,4,05,,,,,,,,,,,,,1,0.332,0,,,,,,-0.385185185,-0.252777778,1,0,0,0.3316,Andesite_rect,13,0,13,0,1,
582c71a66ef28c00019a1068,SCR,2024-06-24_18h01.02.100,LearnStrategy,2023.2.3,Win32,59.88023952,8,2,15,,,,,,,,8,09,,,,,,,,,,,,,2,0.432,0,,,,,,-0.115740741,-0.261111111,1,0,0,0.4322,Basalt_rect,14,0,14,0,1,
582c71a66ef28c00019a1068,SCR,2024-06-24_18h01.02.100,LearnStrategy,2023.2.3,Win32,59.88023952,8,2,16,,,,,,,,8,03,,,,,,,,,,,,,8,0.533,1,,,,,,0.367592593,-0.378703704,1,0,0,0.5328,Pumice_rect,15,0,15,0,1,
582c71a66ef28c00019a1068,SCR,2024-06-24_18h01.02.100,LearnStrategy,2023.2.3,Win32,59.88023952,9,1,1,-0.539814815,0.098148148,1,0,0,0.8231,Peridotite_16,7,16,4,1,0.823,3,14,0.127777778,-0.258333333,1,0,0,1.0789,Diorite_rect,3,1.079,0,0,0,0,0,1,,,,,,,,,,,,,
582c71a66ef28c00019a1068,SCR,2024-06-24_18h01.02.100,LearnStrategy,2023.2.3,Win32,59.88023952,9,1,2,-0.407407407,0.109259259,1,0,0,1.1652,Andesite_04,1,04,4,2,1.165,6,10,-0.163888889,-0.253703704,1,0,0,0.4476,Basalt_rect,2,0.448,0,1,0,1,0,1,,,,,,,,,,,,,
582c71a66ef28c00019a1068,SCR,2024-06-24_18h01.02.100,LearnStrategy,2023.2.3,Win32,59.88023952,9,1,3,-0.207407407,0.092592593,1,0,0,0.7201,Gabbro_12,4,12,4,3,0.72,4,14,-0.410185185,-0.261111111,1,0,0,0.5452,Andesite_rect,1,0.545,0,2,0,2,0,1,,,,,,,,,,,,,
582c71a66ef28c00019a1068,SCR,2024-06-24_18h01.02.100,LearnStrategy,2023.2.3,Win32,59.88023952,9,1,4,-0.062037037,0.102777778,1,0,0,0.9326,Pegmatite_13,6,13,4,4,0.933,2,08,0.385185185,-0.39537037,1,0,0,0.5647,Pumice_rect,8,0.565,0,3,0,3,0,1,,,,,,,,,,,,,
582c71a66ef28c00019a1068,SCR,2024-06-24_18h01.02.100,LearnStrategy,2023.2.3,Win32,59.88023952,9,1,5,0.099074074,0.105555556,1,0,0,0.7367,Basalt_04,2,04,4,5,0.737,1,03,-0.123148148,-0.251851852,1,0,0,0.5953,Basalt_rect,2,0.595,1,4,0,4,0,1,,,,,,,,,,,,,
582c71a66ef28c00019a1068,SCR,2024-06-24_18h01.02.100,LearnStrategy,2023.2.3,Win32,59.88023952,9,1,6,0.212962963,0.073148148,1,0,0,0.7367,Pegmatite_11,6,11,4,6,0.737,7,05,0.375,-0.241666667,1,0,0,0.4952,Gabbro_rect,4,0.495,0,5,0,5,0,1,,,,,,,,,,,,,
582c71a66ef28c00019a1068,SCR,2024-06-24_18h01.02.100,LearnStrategy,2023.2.3,Win32,59.88023952,9,1,7,0.410185185,0.07962963,1,0,0,0.6494,Peridotite_06,7,06,4,7,0.649,3,14,0.12037037,-0.239814815,1,0,0,0.681,Diorite_rect,3,0.681,0,6,0,6,0,1,,,,,,,,,,,,,
582c71a66ef28c00019a1068,SCR,2024-06-24_18h01.02.100,LearnStrategy,2023.2.3,Win32,59.88023952,9,1,8,0.561111111,0.080555556,1,0,0,0.7564,Pumice_02,8,02,4,8,0.756,5,16,-0.107407407,-0.4,1,0,0,1.6284,Pegmatite_rect,6,1.628,0,7,0,7,0,1,,,,,,,,,,,,,
582c71a66ef28c00019a1068,SCR,2024-06-24_18h01.02.100,LearnStrategy,2023.2.3,Win32,59.88023952,9,1,9,0.555555556,0.251851852,1,0,0,1.1324,Andesite_05,1,05,5,8,1.132,7,16,0.111111111,-0.402777778,1,0,0,1.6478,Peridotite_rect,7,1.648,0,8,0,8,0,1,,,,,,,,,,,,,
582c71a66ef28c00019a1068,SCR,2024-06-24_18h01.02.100,LearnStrategy,2023.2.3,Win32,59.88023952,9,1,10,0.40462963,0.242592593,1,0,0,1.049,Obsidian_08,5,08,5,7,1.049,8,10,-0.410185185,-0.386111111,1,0,0,0.6982,Obsidian_rect,5,0.698,1,9,0,9,0,1,,,,,,,,,,,,,
582c71a66ef28c00019a1068,SCR,2024-06-24_18h01.02.100,LearnStrategy,2023.2.3,Win32,59.88023952,9,1,11,0.233333333,0.25,1,0,0,0.6402,Pumice_16,8,16,5,6,0.64,4,13,0.413888889,-0.392592593,1,0,0,0.6622,Pumice_rect,8,0.662,1,10,0,10,0,1,,,,,,,,,,,,,
582c71a66ef28c00019a1068,SCR,2024-06-24_18h01.02.100,LearnStrategy,2023.2.3,Win32,59.88023952,9,1,12,0.117592593,0.250925926,1,0,0,0.6624,Andesite_07,1,07,5,5,0.662,8,06,0.103703704,-0.256481481,1,0,0,0.7193,Diorite_rect,3,0.719,0,11,0,11,0,1,,,,,,,,,,,,,
582c71a66ef28c00019a1068,SCR,2024-06-24_18h01.02.100,LearnStrategy,2023.2.3,Win32,59.88023952,9,1,13,0.060185185,0.257407407,1,0,0,0.9654,Andesite_07,1,07,5,5,0.965,6,11,-0.138888889,-0.235185185,1,0,0,0.6981,Basalt_rect,2,0.698,0,12,0,12,0,1,,,,,,,,,,,,,
582c71a66ef28c00019a1068,SCR,2024-06-24_18h01.02.100,LearnStrategy,2023.2.3,Win32,59.88023952,9,1,14,-0.066666667,0.236111111,1,0,0,0.6535,Pegmatite_03,6,03,5,4,0.653,1,07,0.403703704,-0.238888889,1,0,0,0.6781,Gabbro_rect,4,0.678,0,13,0,13,0,1,,,,,,,,,,,,,
582c71a66ef28c00019a1068,SCR,2024-06-24_18h01.02.100,LearnStrategy,2023.2.3,Win32,59.88023952,9,1,15,-0.240740741,0.240740741,1,0,0,0.6869,Pegmatite_10,6,10,5,3,0.687,1,07,-0.12962963,-0.388888889,1,0,0,0.8617,Pegmatite_rect,6,0.862,1,14,0,14,0,1,,,,,,,,,,,,,
582c71a66ef28c00019a1068,SCR,2024-06-24_18h01.02.100,LearnStrategy,2023.2.3,Win32,59.88023952,9,1,16,-0.373148148,0.237037037,1,0,0,0.6702,Gabbro_09,4,09,5,2,0.67,2,01,0.164814815,-0.382407407,1,0,0,1.078,Peridotite_rect,7,1.078,0,15,0,15,0,1,,,,,,,,,,,,,
582c71a66ef28c00019a1068,SCR,2024-06-24_18h01.02.100,LearnStrategy,2023.2.3,Win32,59.88023952,9,2,1,,,,,,,,3,16,,,,,,,,,,,,,7,2.132,0,,,,,,0.10462963,-0.412962963,1,0,0,2.1319,Peridotite_rect,0,0,0,0,1,
582c71a66ef28c00019a1068,SCR,2024-06-24_18h01.02.100,LearnStrategy,2023.2.3,Win32,59.88023952,9,2,2,,,,,,,,2,11,,,,,,,,,,,,,3,0.267,0,,,,,,0.133333333,-0.246296296,1,0,0,0.2671,Diorite_rect,1,0,1,0,1,
582c71a66ef28c00019a1068,SCR,2024-06-24_18h01.02.100,LearnStrategy,2023.2.3,Win32,59.88023952,9,2,3,,,,,,,,7,02,,,,,,,,,,,,,6,1.116,0,,,,,,-0.124074074,-0.413888889,1,0,0,1.1163,Pegmatite_rect,2,0,2,0,1,
582c71a66ef28c00019a1068,SCR,2024-06-24_18h01.02.100,LearnStrategy,2023.2.3,Win32,59.88023952,9,2,4,,,,,,,,5,14,,,,,,,,,,,,,5,0.685,1,,,,,,-0.391666667,-0.409259259,1,0,0,0.6853,Obsidian_rect,3,0,3,0,1,
582c71a66ef28c00019a1068,SCR,2024-06-24_18h01.02.100,LearnStrategy,2023.2.3,Win32,59.88023952,9,2,5,,,,,,,,5,10,,,,,,,,,,,,,1,0.383,0,,,,,,-0.386111111,-0.239814815,1,0,0,0.3828,Andesite_rect,4,0,4,0,1,
582c71a66ef28c00019a1068,SCR,2024-06-24_18h01.02.100,LearnStrategy,2023.2.3,Win32,59.88023952,9,2,6,,,,,,,,4,10,,,,,,,,,,,,,2,0.43,0,,,,,,-0.134259259,-0.243518519,1,0,0,0.43,Basalt_rect,5,0,5,0,1,
582c71a66ef28c00019a1068,SCR,2024-06-24_18h01.02.100,LearnStrategy,2023.2.3,Win32,59.88023952,9,2,7,,,,,,,,3,06,,,,,,,,,,,,,6,0.232,0,,,,,,-0.07037037,-0.412037037,1,0,0,0.2323,Pegmatite_rect,6,0,6,0,1,
582c71a66ef28c00019a1068,SCR,2024-06-24_18h01.02.100,LearnStrategy,2023.2.3,Win32,59.88023952,9,2,8,,,,,,,,6,16,,,,,,,,,,,,,4,0.316,0,,,,,,0.376851852,-0.244444444,1,0,0,0.3161,Gabbro_rect,7,0,7,0,1,
582c71a66ef28c00019a1068,SCR,2024-06-24_18h01.02.100,LearnStrategy,2023.2.3,Win32,59.88023952,9,2,9,,,,,,,,7,10,,,,,,,,,,,,,7,0.499,1,,,,,,0.151851852,-0.37962963,1,0,0,0.4988,Peridotite_rect,8,0,8,0,1,
582c71a66ef28c00019a1068,SCR,2024-06-24_18h01.02.100,LearnStrategy,2023.2.3,Win32,59.88023952,9,2,10,,,,,,,,1,11,,,,,,,,,,,,,3,0.316,0,,,,,,0.152777778,-0.228703704,1,0,0,0.3156,Diorite_rect,9,0,9,0,1,
582c71a66ef28c00019a1068,SCR,2024-06-24_18h01.02.100,LearnStrategy,2023.2.3,Win32,59.88023952,9,2,11,,,,,,,,2,06,,,,,,,,,,,,,2,1.148,1,,,,,,-0.109259259,-0.241666667,1,0,0,1.1479,Basalt_rect,10,0,10,0,1,
582c71a66ef28c00019a1068,SCR,2024-06-24_18h01.02.100,LearnStrategy,2023.2.3,Win32,59.88023952,9,2,12,,,,,,,,1,01,,,,,,,,,,,,,8,0.563,0,,,,,,0.45462963,-0.402777778,1,0,0,0.5633,Pumice_rect,11,0,11,0,1,
582c71a66ef28c00019a1068,SCR,2024-06-24_18h01.02.100,LearnStrategy,2023.2.3,Win32,59.88023952,9,2,13,,,,,,,,8,05,,,,,,,,,,,,,7,0.232,0,,,,,,0.121296296,-0.409259259,1,0,0,0.2323,Peridotite_rect,12,0,12,0,1,
582c71a66ef28c00019a1068,SCR,2024-06-24_18h01.02.100,LearnStrategy,2023.2.3,Win32,59.88023952,9,2,14,,,,,,,,8,08,,,,,,,,,,,,,4,0.935,0,,,,,,0.380555556,-0.27037037,1,0,0,0.9353,Gabbro_rect,13,0,13,0,1,
582c71a66ef28c00019a1068,SCR,2024-06-24_18h01.02.100,LearnStrategy,2023.2.3,Win32,59.88023952,9,2,15,,,,,,,,6,15,,,,,,,,,,,,,6,0.51,1,,,,,,-0.065740741,-0.405555556,1,0,0,0.5103,Pegmatite_rect,14,0,14,0,1,
582c71a66ef28c00019a1068,SCR,2024-06-24_18h01.02.100,LearnStrategy,2023.2.3,Win32,59.88023952,9,2,16,,,,,,,,4,15,,,,,,,,,,,,,3,0.3,0,,,,,,0.123148148,-0.250925926,1,0,0,0.3003,Diorite_rect,15,0,15,0,1,
582c71a66ef28c00019a1068,SCR,2024-06-24_18h01.02.100,LearnStrategy,2023.2.3,Win32,59.88023952,,,,,,,,,,,,,,,,,,,,,,,,,,,,,,,,,,,,,,,,,,,,,0
582c71a66ef28c00019a1068,SCR,2024-06-24_18h01.02.100,LearnStrategy,2023.2.3,Win32,59.88023952,,,,,,,,,,,,,,,,,,,,,,,,,,,,,,,,,,,,,,,,,,,,,
582c71a66ef28c00019a1068,SCR,2024-06-24_18h01.02.100,LearnStrategy,2023.2.3,Win32,59.88023952,,,,,,,,,,,3,14,1,1,,,,,,,,,,,,,,,,,,,,,,,,,,,,,,,
582c71a66ef28c00019a1068,SCR,2024-06-24_18h01.02.100,LearnStrategy,2023.2.3,Win32,59.88023952,,,,,,,,,,,1,03,1,2,,,,,,,,,,,,,,,,,,,,,,,,,,,,,,,
582c71a66ef28c00019a1068,SCR,2024-06-24_18h01.02.100,LearnStrategy,2023.2.3,Win32,59.88023952,,,,,,,,,,,8,10,1,3,,,,,,,,,,,,,,,,,,,,,,,,,,,,,,,
582c71a66ef28c00019a1068,SCR,2024-06-24_18h01.02.100,LearnStrategy,2023.2.3,Win32,59.88023952,,,,,,,,,,,5,04,1,4,,,,,,,,,,,,,,,,,,,,,,,,,,,,,,,
582c71a66ef28c00019a1068,SCR,2024-06-24_18h01.02.100,LearnStrategy,2023.2.3,Win32,59.88023952,,,,,,,,,,,5,09,1,5,,,,,,,,,,,,,,,,,,,,,,,,,,,,,,,
582c71a66ef28c00019a1068,SCR,2024-06-24_18h01.02.100,LearnStrategy,2023.2.3,Win32,59.88023952,,,,,,,,,,,1,10,1,6,,,,,,,,,,,,,,,,,,,,,,,,,,,,,,,
582c71a66ef28c00019a1068,SCR,2024-06-24_18h01.02.100,LearnStrategy,2023.2.3,Win32,59.88023952,,,,,,,,,,,3,09,1,7,,,,,,,,,,,,,,,,,,,,,,,,,,,,,,,
582c71a66ef28c00019a1068,SCR,2024-06-24_18h01.02.100,LearnStrategy,2023.2.3,Win32,59.88023952,,,,,,,,,,,4,01,1,8,,,,,,,,,,,,,,,,,,,,,,,,,,,,,,,
582c71a66ef28c00019a1068,SCR,2024-06-24_18h01.02.100,LearnStrategy,2023.2.3,Win32,59.88023952,,,,,,,,,,,7,05,2,1,,,,,,,,,,,,,,,,,,,,,,,,,,,,,,,
582c71a66ef28c00019a1068,SCR,2024-06-24_18h01.02.100,LearnStrategy,2023.2.3,Win32,59.88023952,,,,,,,,,,,2,01,2,2,,,,,,,,,,,,,,,,,,,,,,,,,,,,,,,
582c71a66ef28c00019a1068,SCR,2024-06-24_18h01.02.100,LearnStrategy,2023.2.3,Win32,59.88023952,,,,,,,,,,,3,15,2,3,,,,,,,,,,,,,,,,,,,,,,,,,,,,,,,
582c71a66ef28c00019a1068,SCR,2024-06-24_18h01.02.100,LearnStrategy,2023.2.3,Win32,59.88023952,,,,,,,,,,,7,15,2,4,,,,,,,,,,,,,,,,,,,,,,,,,,,,,,,
582c71a66ef28c00019a1068,SCR,2024-06-24_18h01.02.100,LearnStrategy,2023.2.3,Win32,59.88023952,,,,,,,,,,,2,16,2,5,,,,,,,,,,,,,,,,,,,,,,,,,,,,,,,
582c71a66ef28c00019a1068,SCR,2024-06-24_18h01.02.100,LearnStrategy,2023.2.3,Win32,59.88023952,,,,,,,,,,,8,15,2,6,,,,,,,,,,,,,,,,,,,,,,,,,,,,,,,
582c71a66ef28c00019a1068,SCR,2024-06-24_18h01.02.100,LearnStrategy,2023.2.3,Win32,59.88023952,,,,,,,,,,,3,11,2,7,,,,,,,,,,,,,,,,,,,,,,,,,,,,,,,
582c71a66ef28c00019a1068,SCR,2024-06-24_18h01.02.100,LearnStrategy,2023.2.3,Win32,59.88023952,,,,,,,,,,,4,16,2,8,,,,,,,,,,,,,,,,,,,,,,,,,,,,,,,
582c71a66ef28c00019a1068,SCR,2024-06-24_18h01.02.100,LearnStrategy,2023.2.3,Win32,59.88023952,,,,,,,,,,,2,10,3,1,,,,,,,,,,,,,,,,,,,,,,,,,,,,,,,
582c71a66ef28c00019a1068,SCR,2024-06-24_18h01.02.100,LearnStrategy,2023.2.3,Win32,59.88023952,,,,,,,,,,,4,13,3,2,,,,,,,,,,,,,,,,,,,,,,,,,,,,,,,
582c71a66ef28c00019a1068,SCR,2024-06-24_18h01.02.100,LearnStrategy,2023.2.3,Win32,59.88023952,,,,,,,,,,,5,12,3,3,,,,,,,,,,,,,,,,,,,,,,,,,,,,,,,
582c71a66ef28c00019a1068,SCR,2024-06-24_18h01.02.100,LearnStrategy,2023.2.3,Win32,59.88023952,,,,,,,,,,,5,16,3,4,,,,,,,,,,,,,,,,,,,,,,,,,,,,,,,
582c71a66ef28c00019a1068,SCR,2024-06-24_18h01.02.100,LearnStrategy,2023.2.3,Win32,59.88023952,,,,,,,,,,,2,05,3,5,,,,,,,,,,,,,,,,,,,,,,,,,,,,,,,
582c71a66ef28c00019a1068,SCR,2024-06-24_18h01.02.100,LearnStrategy,2023.2.3,Win32,59.88023952,,,,,,,,,,,7,13,3,6,,,,,,,,,,,,,,,,,,,,,,,,,,,,,,,
582c71a66ef28c00019a1068,SCR,2024-06-24_18h01.02.100,LearnStrategy,2023.2.3,Win32,59.88023952,,,,,,,,,,,3,07,3,7,,,,,,,,,,,,,,,,,,,,,,,,,,,,,,,
582c71a66ef28c00019a1068,SCR,2024-06-24_18h01.02.100,LearnStrategy,2023.2.3,Win32,59.88023952,,,,,,,,,,,6,06,3,8,,,,,,,,,,,,,,,,,,,,,,,,,,,,,,,
582c71a66ef28c00019a1068,SCR,2024-06-24_18h01.02.100,LearnStrategy,2023.2.3,Win32,59.88023952,,,,,,,,,,,7,16,4,1,,,,,,,,,,,,,,,,,,,,,,,,,,,,,,,
582c71a66ef28c00019a1068,SCR,2024-06-24_18h01.02.100,LearnStrategy,2023.2.3,Win32,59.88023952,,,,,,,,,,,1,04,4,2,,,,,,,,,,,,,,,,,,,,,,,,,,,,,,,
582c71a66ef28c00019a1068,SCR,2024-06-24_18h01.02.100,LearnStrategy,2023.2.3,Win32,59.88023952,,,,,,,,,,,4,12,4,3,,,,,,,,,,,,,,,,,,,,,,,,,,,,,,,
582c71a66ef28c00019a1068,SCR,2024-06-24_18h01.02.100,LearnStrategy,2023.2.3,Win32,59.88023952,,,,,,,,,,,6,13,4,4,,,,,,,,,,,,,,,,,,,,,,,,,,,,,,,
582c71a66ef28c00019a1068,SCR,2024-06-24_18h01.02.100,LearnStrategy,2023.2.3,Win32,59.88023952,,,,,,,,,,,2,04,4,5,,,,,,,,,,,,,,,,,,,,,,,,,,,,,,,
582c71a66ef28c00019a1068,SCR,2024-06-24_18h01.02.100,LearnStrategy,2023.2.3,Win32,59.88023952,,,,,,,,,,,6,11,4,6,,,,,,,,,,,,,,,,,,,,,,,,,,,,,,,
582c71a66ef28c00019a1068,SCR,2024-06-24_18h01.02.100,LearnStrategy,2023.2.3,Win32,59.88023952,,,,,,,,,,,7,06,4,7,,,,,,,,,,,,,,,,,,,,,,,,,,,,,,,
582c71a66ef28c00019a1068,SCR,2024-06-24_18h01.02.100,LearnStrategy,2023.2.3,Win32,59.88023952,,,,,,,,,,,8,02,4,8,,,,,,,,,,,,,,,,,,,,,,,,,,,,,,,
582c71a66ef28c00019a1068,SCR,2024-06-24_18h01.02.100,LearnStrategy,2023.2.3,Win32,59.88023952,,,,,,,,,,,6,08,5,1,,,,,,,,,,,,,,,,,,,,,,,,,,,,,,,
582c71a66ef28c00019a1068,SCR,2024-06-24_18h01.02.100,LearnStrategy,2023.2.3,Win32,59.88023952,,,,,,,,,,,4,09,5,2,,,,,,,,,,,,,,,,,,,,,,,,,,,,,,,
582c71a66ef28c00019a1068,SCR,2024-06-24_18h01.02.100,LearnStrategy,2023.2.3,Win32,59.88023952,,,,,,,,,,,6,10,5,3,,,,,,,,,,,,,,,,,,,,,,,,,,,,,,,
582c71a66ef28c00019a1068,SCR,2024-06-24_18h01.02.100,LearnStrategy,2023.2.3,Win32,59.88023952,,,,,,,,,,,6,03,5,4,,,,,,,,,,,,,,,,,,,,,,,,,,,,,,,
582c71a66ef28c00019a1068,SCR,2024-06-24_18h01.02.100,LearnStrategy,2023.2.3,Win32,59.88023952,,,,,,,,,,,1,07,5,5,,,,,,,,,,,,,,,,,,,,,,,,,,,,,,,
582c71a66ef28c00019a1068,SCR,2024-06-24_18h01.02.100,LearnStrategy,2023.2.3,Win32,59.88023952,,,,,,,,,,,8,16,5,6,,,,,,,,,,,,,,,,,,,,,,,,,,,,,,,
582c71a66ef28c00019a1068,SCR,2024-06-24_18h01.02.100,LearnStrategy,2023.2.3,Win32,59.88023952,,,,,,,,,,,5,08,5,7,,,,,,,,,,,,,,,,,,,,,,,,,,,,,,,
582c71a66ef28c00019a1068,SCR,2024-06-24_18h01.02.100,LearnStrategy,2023.2.3,Win32,59.88023952,,,,,,,,,,,1,05,5,8,,,,,,,,,,,,,,,,,,,,,,,,,,,,,,,
582c71a66ef28c00019a1068,SCR,2024-06-24_18h01.02.100,LearnStrategy,2023.2.3,Win32,59.88023952,,,,,,,,,,,8,14,6,1,,,,,,,,,,,,,,,,,,,,,,,,,,,,,,,
582c71a66ef28c00019a1068,SCR,2024-06-24_18h01.02.100,LearnStrategy,2023.2.3,Win32,59.88023952,,,,,,,,,,,2,08,6,2,,,,,,,,,,,,,,,,,,,,,,,,,,,,,,,
582c71a66ef28c00019a1068,SCR,2024-06-24_18h01.02.100,LearnStrategy,2023.2.3,Win32,59.88023952,,,,,,,,,,,3,02,6,3,,,,,,,,,,,,,,,,,,,,,,,,,,,,,,,
582c71a66ef28c00019a1068,SCR,2024-06-24_18h01.02.100,LearnStrategy,2023.2.3,Win32,59.88023952,,,,,,,,,,,5,11,6,4,,,,,,,,,,,,,,,,,,,,,,,,,,,,,,,
582c71a66ef28c00019a1068,SCR,2024-06-24_18h01.02.100,LearnStrategy,2023.2.3,Win32,59.88023952,,,,,,,,,,,1,06,6,5,,,,,,,,,,,,,,,,,,,,,,,,,,,,,,,
582c71a66ef28c00019a1068,SCR,2024-06-24_18h01.02.100,LearnStrategy,2023.2.3,Win32,59.88023952,,,,,,,,,,,7,14,6,6,,,,,,,,,,,,,,,,,,,,,,,,,,,,,,,
582c71a66ef28c00019a1068,SCR,2024-06-24_18h01.02.100,LearnStrategy,2023.2.3,Win32,59.88023952,,,,,,,,,,,8,06,6,7,,,,,,,,,,,,,,,,,,,,,,,,,,,,,,,
582c71a66ef28c00019a1068,SCR,2024-06-24_18h01.02.100,LearnStrategy,2023.2.3,Win32,59.88023952,,,,,,,,,,,4,14,6,8,,,,,,,,,,,,,,,,,,,,,,,,,,,,,,,