participant,condition,date,expName,psychopyVersion,OS,frameRate,block,phase,trial,learn_mouse_2.x,learn_mouse_2.y,learn_mouse_2.leftButton,learn_mouse_2.midButton,learn_mouse_2.rightButton,learn_mouse_2.time,learn_mouse_2.clicked_name,cat,token,row,col,t_select,cat_mouse_l.x,cat_mouse_l.y,cat_mouse_l.leftButton,cat_mouse_l.midButton,cat_mouse_l.rightButton,cat_mouse_l.time,cat_mouse_l.clicked_name,resp,t_resp,corr,train_trials.thisRepN,train_trials.thisTrialN,train_trials.thisN,train_trials.thisIndex,train_trials.ran,cat_mouse_t.x,cat_mouse_t.y,cat_mouse_t.leftButton,cat_mouse_t.midButton,cat_mouse_t.rightButton,cat_mouse_t.time,cat_mouse_t.clicked_name,test_trials.thisRepN,test_trials.thisTrialN,test_trials.thisN,test_trials.thisIndex,test_trials.ran,Bonus
58935d5d4d77be0001689f14,TCR,2024-06-20_15h43.34.072,LearnStrategy,2023.2.3,Win32,166.6666667,,,,,,,,,,,,,,,,,,,,,,,,,,,,,,,,,,,,,,,,,,,
58935d5d4d77be0001689f14,TCR,2024-06-20_15h43.34.072,LearnStrategy,2023.2.3,Win32,166.6666667,1,1,1,0.061913988,-0.011146586,1,0,0,70.7639,rock_grid_rect_2,4,14,-1,-1,70.764,-0.150600774,-0.40145149,1,0,0,4.9414,Pegmatite_rect,6,4.941,0,0,0,0,0,1,,,,,,,,,,,,,
58935d5d4d77be0001689f14,TCR,2024-06-20_15h43.34.072,LearnStrategy,2023.2.3,Win32,166.6666667,1,1,2,-0.009618749,0.019411091,1,0,0,1.6288,rock_grid_rect_2,3,02,-1,-1,1.629,0.166087897,-0.252830045,1,0,0,3.1298,Diorite_rect,3,3.13,1,1,0,1,0,1,,,,,,,,,,,,,
58935d5d4d77be0001689f14,TCR,2024-06-20_15h43.34.072,LearnStrategy,2023.2.3,Win32,166.6666667,1,1,3,0.016077471,-3.46441E-05,1,0,0,1.0115,rock_grid_rect_2,2,10,-1,-1,1.011,-0.338113783,-0.418119263,1,0,0,2.113,Obsidian_rect,5,2.113,0,2,0,2,0,1,,,,,,,,,,,,,
58935d5d4d77be0001689f14,TCR,2024-06-20_15h43.34.072,LearnStrategy,2023.2.3,Win32,166.6666667,1,1,4,0.099416618,0.005521234,1,0,0,1.3194,rock_grid_rect_2,3,08,-1,-1,1.319,0.105667009,-0.391034108,1,0,0,2.6457,Peridotite_rect,7,2.646,0,3,0,3,0,1,,,,,,,,,,,,,
58935d5d4d77be0001689f14,TCR,2024-06-20_15h43.34.072,LearnStrategy,2023.2.3,Win32,166.6666667,1,1,5,0.033439805,-0.001423672,1,0,0,0.7804,rock_grid_rect_2,1,03,-1,-1,0.78,-0.331863345,-0.3972845,1,0,0,1.5368,Obsidian_rect,5,1.537,0,4,0,4,0,1,,,,,,,,,,,,,
58935d5d4d77be0001689f14,TCR,2024-06-20_15h43.34.072,LearnStrategy,2023.2.3,Win32,166.6666667,1,1,6,-0.001284862,0.010382691,1,0,0,0.6896,rock_grid_rect_2,4,05,-1,-1,0.69,0.370268726,-0.406312947,1,0,0,2.4088,Pumice_rect,8,2.409,0,5,0,5,0,1,,,,,,,,,,,,,
58935d5d4d77be0001689f14,TCR,2024-06-20_15h43.34.072,LearnStrategy,2023.2.3,Win32,166.6666667,1,1,7,0.075109332,-0.014619062,1,0,0,0.8524,rock_grid_rect_2,1,14,-1,-1,0.852,0.356378915,-0.264636408,1,0,0,3.3532,Gabbro_rect,4,3.353,0,6,0,6,0,1,,,,,,,,,,,,,
58935d5d4d77be0001689f14,TCR,2024-06-20_15h43.34.072,LearnStrategy,2023.2.3,Win32,166.6666667,1,1,8,0.079276322,0.005521234,1,0,0,0.5969,rock_grid_rect_2,7,06,-1,-1,0.597,0.086915741,-0.266025389,1,0,0,1.1672,Diorite_rect,3,1.167,0,7,0,7,0,1,,,,,,,,,,,,,
58935d5d4d77be0001689f14,TCR,2024-06-20_15h43.34.072,LearnStrategy,2023.2.3,Win32,166.6666667,1,1,9,0.012605042,0.012466139,1,0,0,0.7312,rock_grid_rect_2,5,06,-1,-1,0.731,-0.341586306,-0.386867118,1,0,0,1.5787,Obsidian_rect,5,1.579,1,8,0,8,0,1,,,,,,,,,,,,,
58935d5d4d77be0001689f14,TCR,2024-06-20_15h43.34.072,LearnStrategy,2023.2.3,Win32,166.6666667,1,1,10,-0.019341663,0.016633129,1,0,0,0.6837,rock_grid_rect_2,8,06,-1,-1,0.684,0.337627554,-0.402145957,1,0,0,3.0036,Pumice_rect,8,3.004,1,9,0,9,0,1,,,,,,,,,,,,,
58935d5d4d77be0001689f14,TCR,2024-06-20_15h43.34.072,LearnStrategy,2023.2.3,Win32,166.6666667,1,1,11,0.036217767,-0.001423672,1,0,0,0.6591,rock_grid_rect_2,8,02,-1,-1,0.659,0.330682602,-0.378533231,1,0,0,0.9367,Pumice_rect,8,0.937,1,10,0,10,0,1,,,,,,,,,,,,,
58935d5d4d77be0001689f14,TCR,2024-06-20_15h43.34.072,LearnStrategy,2023.2.3,Win32,166.6666667,1,1,12,0.052191074,-0.000729205,1,0,0,0.7267,rock_grid_rect_2,7,13,-1,-1,0.727,-0.331168831,-0.245885093,1,0,0,2.3413,Andesite_rect,1,2.341,0,11,0,11,0,1,,,,,,,,,,,,,
58935d5d4d77be0001689f14,TCR,2024-06-20_15h43.34.072,LearnStrategy,2023.2.3,Win32,166.6666667,1,1,13,-0.035314969,-0.004896148,1,0,0,0.593,rock_grid_rect_2,5,02,-1,-1,0.593,-0.340891746,-0.394506538,1,0,0,1.2449,Obsidian_rect,5,1.245,1,12,0,12,0,1,,,,,,,,,,,,,
58935d5d4d77be0001689f14,TCR,2024-06-20_15h43.34.072,LearnStrategy,2023.2.3,Win32,166.6666667,1,1,14,-0.026981083,-0.014619062,1,0,0,0.6102,rock_grid_rect_2,2,04,-1,-1,0.61,-0.16657408,-0.252830045,1,0,0,1.3973,Basalt_rect,2,1.397,1,13,0,13,0,1,,,,,,,,,,,,,
58935d5d4d77be0001689f14,TCR,2024-06-20_15h43.34.072,LearnStrategy,2023.2.3,Win32,166.6666667,1,1,15,0.04316272,0.004132253,1,0,0,0.6396,rock_grid_rect_2,6,08,-1,-1,0.64,-0.071428571,-0.407701881,1,0,0,2.0092,Pegmatite_rect,6,2.009,1,14,0,14,0,1,,,,,,,,,,,,,
58935d5d4d77be0001689f14,TCR,2024-06-20_15h43.34.072,LearnStrategy,2023.2.3,Win32,166.6666667,1,1,16,-0.005451759,0.023578035,1,0,0,0.623,rock_grid_rect_2,6,15,-1,-1,0.623,-0.088790905,-0.404923919,1,0,0,1.1299,Pegmatite_rect,6,1.13,1,15,0,15,0,1,,,,,,,,,,,,,
58935d5d4d77be0001689f14,TCR,2024-06-20_15h43.34.072,LearnStrategy,2023.2.3,Win32,166.6666667,1,2,1,,,,,,,,4,01,,,,,,,,,,,7,4.419,0,,,,,,0.083443218,-0.402145957,1,0,0,4.4195,Peridotite_rect,0,0,0,0,1,
58935d5d4d77be0001689f14,TCR,2024-06-20_15h43.34.072,LearnStrategy,2023.2.3,Win32,166.6666667,1,2,2,,,,,,,,8,09,,,,,,,,,,,8,1.008,1,,,,,,0.343878039,-0.386172651,1,0,0,1.0083,Pumice_rect,1,0,1,0,1,
58935d5d4d77be0001689f14,TCR,2024-06-20_15h43.34.072,LearnStrategy,2023.2.3,Win32,166.6666667,1,2,3,,,,,,,,6,12,,,,,,,,,,,6,2.325,1,,,,,,-0.111014696,-0.402840424,1,0,0,2.3247,Pegmatite_rect,2,0,2,0,1,
58935d5d4d77be0001689f14,TCR,2024-06-20_15h43.34.072,LearnStrategy,2023.2.3,Win32,166.6666667,1,2,4,,,,,,,,1,11,,,,,,,,,,,1,4.675,1,,,,,,-0.32977985,-0.241023636,1,0,0,4.6755,Andesite_rect,3,0,3,0,1,
58935d5d4d77be0001689f14,TCR,2024-06-20_15h43.34.072,LearnStrategy,2023.2.3,Win32,166.6666667,1,2,5,,,,,,,,5,14,,,,,,,,,,,5,1.082,1,,,,,,-0.388811804,-0.390339548,1,0,0,1.0815,Obsidian_rect,4,0,4,0,1,
58935d5d4d77be0001689f14,TCR,2024-06-20_15h43.34.072,LearnStrategy,2023.2.3,Win32,166.6666667,1,2,6,,,,,,,,3,09,,,,,,,,,,,3,2.336,1,,,,,,0.129279735,-0.252135531,1,0,0,2.3356,Diorite_rect,5,0,5,0,1,
58935d5d4d77be0001689f14,TCR,2024-06-20_15h43.34.072,LearnStrategy,2023.2.3,Win32,166.6666667,1,2,7,,,,,,,,6,03,,,,,,,,,,,6,2.652,1,,,,,,-0.10268081,-0.409785376,1,0,0,2.6518,Pegmatite_rect,6,0,6,0,1,
58935d5d4d77be0001689f14,TCR,2024-06-20_15h43.34.072,LearnStrategy,2023.2.3,Win32,166.6666667,1,2,8,,,,,,,,7,16,,,,,,,,,,,4,3.397,0,,,,,,0.317487258,-0.270192332,1,0,0,3.3967,Gabbro_rect,7,0,7,0,1,
58935d5d4d77be0001689f14,TCR,2024-06-20_15h43.34.072,LearnStrategy,2023.2.3,Win32,166.6666667,1,2,9,,,,,,,,5,16,,,,,,,,,,,5,1.02,1,,,,,,-0.361726509,-0.402840424,1,0,0,1.0197,Obsidian_rect,8,0,8,0,1,
58935d5d4d77be0001689f14,TCR,2024-06-20_15h43.34.072,LearnStrategy,2023.2.3,Win32,166.6666667,1,2,10,,,,,,,,4,13,,,,,,,,,,,1,4.549,0,,,,,,-0.358254126,-0.247968588,1,0,0,4.5487,Andesite_rect,9,0,9,0,1,
58935d5d4d77be0001689f14,TCR,2024-06-20_15h43.34.072,LearnStrategy,2023.2.3,Win32,166.6666667,1,2,11,,,,,,,,8,04,,,,,,,,,,,8,0.869,1,,,,,,0.376519118,-0.420202758,1,0,0,0.8685,Pumice_rect,10,0,10,0,1,
58935d5d4d77be0001689f14,TCR,2024-06-20_15h43.34.072,LearnStrategy,2023.2.3,Win32,166.6666667,1,2,12,,,,,,,,2,11,,,,,,,,,,,7,5.292,0,,,,,,0.093166133,-0.382005661,1,0,0,5.2922,Peridotite_rect,11,0,11,0,1,
58935d5d4d77be0001689f14,TCR,2024-06-20_15h43.34.072,LearnStrategy,2023.2.3,Win32,166.6666667,1,2,13,,,,,,,,2,09,,,,,,,,,,,2,1.232,1,,,,,,-0.124904554,-0.259080483,1,0,0,1.2321,Basalt_rect,12,0,12,0,1,
58935d5d4d77be0001689f14,TCR,2024-06-20_15h43.34.072,LearnStrategy,2023.2.3,Win32,166.6666667,1,2,14,,,,,,,,3,12,,,,,,,,,,,6,1.16,0,,,,,,-0.126293535,-0.40145149,1,0,0,1.1601,Pegmatite_rect,13,0,13,0,1,
58935d5d4d77be0001689f14,TCR,2024-06-20_15h43.34.072,LearnStrategy,2023.2.3,Win32,166.6666667,1,2,15,,,,,,,,7,05,,,,,,,,,,,1,2.909,0,,,,,,-0.354781603,-0.270886846,1,0,0,2.909,Andesite_rect,14,0,14,0,1,
58935d5d4d77be0001689f14,TCR,2024-06-20_15h43.34.072,LearnStrategy,2023.2.3,Win32,166.6666667,1,2,16,,,,,,,,1,10,,,,,,,,,,,1,2.687,1,,,,,,-0.351309127,-0.261858445,1,0,0,2.6874,Andesite_rect,15,0,15,0,1,
58935d5d4d77be0001689f14,TCR,2024-06-20_15h43.34.072,LearnStrategy,2023.2.3,Win32,166.6666667,2,1,1,0.0014931,-0.009757605,1,0,0,1.0289,rock_grid_rect_2,7,13,-1,-1,1.029,0.086915741,-0.402840424,1,0,0,3.3267,Peridotite_rect,7,3.327,1,0,0,0,0,1,,,,,,,,,,,,,
58935d5d4d77be0001689f14,TCR,2024-06-20_15h43.34.072,LearnStrategy,2023.2.3,Win32,166.6666667,2,1,2,0.057746905,-0.001423672,1,0,0,0.9026,rock_grid_rect_2,3,08,-1,-1,0.903,-0.088096438,-0.41881373,1,0,0,1.3595,Pegmatite_rect,6,1.359,0,1,0,1,0,1,,,,,,,,,,,,,
58935d5d4d77be0001689f14,TCR,2024-06-20_15h43.34.072,LearnStrategy,2023.2.3,Win32,166.6666667,2,1,3,0.024411358,0.005521234,1,0,0,0.6104,rock_grid_rect_2,7,12,-1,-1,0.61,-0.082540514,-0.402145957,1,0,0,1.2051,Pegmatite_rect,6,1.205,0,2,0,2,0,1,,,,,,,,,,,,,
58935d5d4d77be0001689f14,TCR,2024-06-20_15h43.34.072,LearnStrategy,2023.2.3,Win32,166.6666667,2,1,4,0.029967283,0.000659777,1,0,0,0.7013,rock_grid_rect_2,4,16,-1,-1,0.701,0.400826404,-0.251441064,1,0,0,1.8033,Gabbro_rect,4,1.803,1,3,0,3,0,1,,,,,,,,,,,,,
58935d5d4d77be0001689f14,TCR,2024-06-20_15h43.34.072,LearnStrategy,2023.2.3,Win32,166.6666667,2,1,5,0.048718644,0.00135429,1,0,0,0.72,rock_grid_rect_2,4,11,-1,-1,0.72,-0.362421023,-0.259080483,1,0,0,1.7247,Andesite_rect,1,1.725,0,4,0,4,0,1,,,,,,,,,,,,,
58935d5d4d77be0001689f14,TCR,2024-06-20_15h43.34.072,LearnStrategy,2023.2.3,Win32,166.6666667,2,1,6,-0.040176427,-0.011146586,1,0,0,0.5072,rock_grid_rect_2,4,12,-1,-1,0.507,0.412632813,-0.261163932,1,0,0,1.5428,Gabbro_rect,4,1.543,1,5,0,5,0,1,,,,,,,,,,,,,
58935d5d4d77be0001689f14,TCR,2024-06-20_15h43.34.072,LearnStrategy,2023.2.3,Win32,166.6666667,2,1,7,-0.015174673,-0.006979643,1,0,0,0.5807,rock_grid_rect_2,2,01,-1,-1,0.581,-0.146433784,-0.261163932,1,0,0,1.2339,Basalt_rect,2,1.234,1,6,0,6,0,1,,,,,,,,,,,,,
58935d5d4d77be0001689f14,TCR,2024-06-20_15h43.34.072,LearnStrategy,2023.2.3,Win32,166.6666667,2,1,8,-0.018647289,0.009688177,1,0,0,0.5868,rock_grid_rect_2,1,03,-1,-1,0.587,-0.365198985,-0.256996988,1,0,0,1.2874,Andesite_rect,1,1.287,1,7,0,7,0,1,,,,,,,,,,,,,
58935d5d4d77be0001689f14,TCR,2024-06-20_15h43.34.072,LearnStrategy,2023.2.3,Win32,166.6666667,2,1,9,-0.043648856,0.000659777,1,0,0,0.5682,rock_grid_rect_2,4,16,-1,-1,0.568,0.070942435,-0.414646834,1,0,0,3.743,Peridotite_rect,7,3.743,0,8,0,8,0,1,,,,,,,,,,,,,
58935d5d4d77be0001689f14,TCR,2024-06-20_15h43.34.072,LearnStrategy,2023.2.3,Win32,166.6666667,2,1,10,0.04316272,-0.010452119,1,0,0,0.6295,rock_grid_rect_2,3,02,-1,-1,0.63,0.114695456,-0.261858445,1,0,0,1.6716,Diorite_rect,3,1.672,1,9,0,9,0,1,,,,,,,,,,,,,
58935d5d4d77be0001689f14,TCR,2024-06-20_15h43.34.072,LearnStrategy,2023.2.3,Win32,166.6666667,2,1,11,0.091082638,-0.007674063,1,0,0,0.5266,rock_grid_rect_2,2,04,-1,-1,0.527,-0.117265134,-0.252830045,1,0,0,2.3536,Basalt_rect,2,2.354,1,10,0,10,0,1,,,,,,,,,,,,,
58935d5d4d77be0001689f14,TCR,2024-06-20_15h43.34.072,LearnStrategy,2023.2.3,Win32,166.6666667,2,1,12,0.051496606,-0.019480519,1,0,0,0.587,rock_grid_rect_2,7,10,-1,-1,0.587,0.058441558,-0.407007414,1,0,0,2.9594,Peridotite_rect,7,2.959,1,11,0,11,0,1,,,,,,,,,,,,,
58935d5d4d77be0001689f14,TCR,2024-06-20_15h43.34.072,LearnStrategy,2023.2.3,Win32,166.6666667,2,1,13,0.016771939,0.00899371,1,0,0,0.7142,rock_grid_rect_2,7,10,-1,-1,0.714,0.091082638,-0.402840424,1,0,0,0.8108,Peridotite_rect,7,0.811,1,12,0,12,0,1,,,,,,,,,,,,,
58935d5d4d77be0001689f14,TCR,2024-06-20_15h43.34.072,LearnStrategy,2023.2.3,Win32,166.6666667,2,1,14,0.075803799,0.002743271,1,0,0,0.8597,rock_grid_rect_2,7,02,-1,-1,0.86,0.086915741,-0.270886846,1,0,0,0.924,Diorite_rect,3,0.924,0,13,0,13,0,1,,,,,,,,,,,,,
58935d5d4d77be0001689f14,TCR,2024-06-20_15h43.34.072,LearnStrategy,2023.2.3,Win32,166.6666667,2,1,15,0.038301262,0.000659777,1,0,0,0.7499,rock_grid_rect_2,5,07,-1,-1,0.75,-0.356170584,-0.413952366,1,0,0,1.0276,Obsidian_rect,5,1.028,1,14,0,14,0,1,,,,,,,,,,,,,
58935d5d4d77be0001689f14,TCR,2024-06-20_15h43.34.072,LearnStrategy,2023.2.3,Win32,166.6666667,2,1,16,-0.004757292,0.011771672,1,0,0,0.55,rock_grid_rect_2,6,08,-1,-1,0.55,-0.078373524,-0.405618386,1,0,0,1.494,Pegmatite_rect,6,1.494,1,15,0,15,0,1,,,,,,,,,,,,,
58935d5d4d77be0001689f14,TCR,2024-06-20_15h43.34.072,LearnStrategy,2023.2.3,Win32,166.6666667,2,2,1,,,,,,,,4,15,,,,,,,,,,,4,2.864,1,,,,,,0.363323774,-0.238940187,1,0,0,2.8641,Gabbro_rect,0,0,0,0,1,
58935d5d4d77be0001689f14,TCR,2024-06-20_15h43.34.072,LearnStrategy,2023.2.3,Win32,166.6666667,2,2,2,,,,,,,,1,09,,,,,,,,,,,1,3.05,1,,,,,,-0.32075145,-0.251441064,1,0,0,3.0505,Andesite_rect,1,0,1,0,1,
58935d5d4d77be0001689f14,TCR,2024-06-20_15h43.34.072,LearnStrategy,2023.2.3,Win32,166.6666667,2,2,3,,,,,,,,5,08,,,,,,,,,,,5,0.845,1,,,,,,-0.347142184,-0.404923919,1,0,0,0.8451,Obsidian_rect,2,0,2,0,1,
58935d5d4d77be0001689f14,TCR,2024-06-20_15h43.34.072,LearnStrategy,2023.2.3,Win32,166.6666667,2,2,4,,,,,,,,3,14,,,,,,,,,,,3,2.403,1,,,,,,0.141086144,-0.239634654,1,0,0,2.4029,Diorite_rect,3,0,3,0,1,
58935d5d4d77be0001689f14,TCR,2024-06-20_15h43.34.072,LearnStrategy,2023.2.3,Win32,166.6666667,2,2,5,,,,,,,,8,14,,,,,,,,,,,8,0.809,1,,,,,,0.401520871,-0.405618386,1,0,0,0.809,Pumice_rect,4,0,4,0,1,
58935d5d4d77be0001689f14,TCR,2024-06-20_15h43.34.072,LearnStrategy,2023.2.3,Win32,166.6666667,2,2,6,,,,,,,,1,01,,,,,,,,,,,1,3.556,1,,,,,,-0.36728248,-0.250052083,1,0,0,3.5556,Andesite_rect,5,0,5,0,1,
58935d5d4d77be0001689f14,TCR,2024-06-20_15h43.34.072,LearnStrategy,2023.2.3,Win32,166.6666667,2,2,7,,,,,,,,2,12,,,,,,,,,,,8,1.014,0,,,,,,0.369574259,-0.38964508,1,0,0,1.0144,Pumice_rect,6,0,6,0,1,
58935d5d4d77be0001689f14,TCR,2024-06-20_15h43.34.072,LearnStrategy,2023.2.3,Win32,166.6666667,2,2,8,,,,,,,,5,04,,,,,,,,,,,5,0.857,1,,,,,,-0.358254126,-0.382005661,1,0,0,0.8573,Obsidian_rect,7,0,7,0,1,
58935d5d4d77be0001689f14,TCR,2024-06-20_15h43.34.072,LearnStrategy,2023.2.3,Win32,166.6666667,2,2,9,,,,,,,,6,16,,,,,,,,,,,3,3.76,0,,,,,,0.120251381,-0.244496112,1,0,0,3.7603,Diorite_rect,8,0,8,0,1,
58935d5d4d77be0001689f14,TCR,2024-06-20_15h43.34.072,LearnStrategy,2023.2.3,Win32,166.6666667,2,2,10,,,,,,,,3,11,,,,,,,,,,,3,1.36,1,,,,,,0.120251381,-0.245190626,1,0,0,1.36,Diorite_rect,9,0,9,0,1,
58935d5d4d77be0001689f14,TCR,2024-06-20_15h43.34.072,LearnStrategy,2023.2.3,Win32,166.6666667,2,2,11,,,,,,,,7,07,,,,,,,,,,,6,2.784,0,,,,,,-0.090179933,-0.420897225,1,0,0,2.7845,Pegmatite_rect,10,0,10,0,1,
58935d5d4d77be0001689f14,TCR,2024-06-20_15h43.34.072,LearnStrategy,2023.2.3,Win32,166.6666667,2,2,12,,,,,,,,6,09,,,,,,,,,,,7,3.305,0,,,,,,0.081359817,-0.407007414,1,0,0,3.3055,Peridotite_rect,11,0,11,0,1,
58935d5d4d77be0001689f14,TCR,2024-06-20_15h43.34.072,LearnStrategy,2023.2.3,Win32,166.6666667,2,2,13,,,,,,,,4,09,,,,,,,,,,,4,2.003,1,,,,,,0.341100076,-0.247968588,1,0,0,2.0032,Gabbro_rect,12,0,12,0,1,
58935d5d4d77be0001689f14,TCR,2024-06-20_15h43.34.072,LearnStrategy,2023.2.3,Win32,166.6666667,2,2,14,,,,,,,,7,14,,,,,,,,,,,1,1.918,0,,,,,,-0.343669708,-0.243801644,1,0,0,1.9175,Andesite_rect,13,0,13,0,1,
58935d5d4d77be0001689f14,TCR,2024-06-20_15h43.34.072,LearnStrategy,2023.2.3,Win32,166.6666667,2,2,15,,,,,,,,8,10,,,,,,,,,,,8,1.871,1,,,,,,0.35776785,-0.385477997,1,0,0,1.8706,Pumice_rect,14,0,14,0,1,
58935d5d4d77be0001689f14,TCR,2024-06-20_15h43.34.072,LearnStrategy,2023.2.3,Win32,166.6666667,2,2,16,,,,,,,,2,06,,,,,,,,,,,2,1.308,1,,,,,,-0.167963061,-0.240329168,1,0,0,1.3077,Basalt_rect,15,0,15,0,1,
58935d5d4d77be0001689f14,TCR,2024-06-20_15h43.34.072,LearnStrategy,2023.2.3,Win32,166.6666667,3,1,1,0.100111085,0.005521234,1,0,0,1.5985,rock_grid_rect_2,7,13,-1,-1,1.599,0.322348715,-0.236162225,1,0,0,2.4219,Gabbro_rect,4,2.422,0,0,0,0,0,1,,,,,,,,,,,,,
58935d5d4d77be0001689f14,TCR,2024-06-20_15h43.34.072,LearnStrategy,2023.2.3,Win32,166.6666667,3,1,2,0.098722057,-0.016702511,1,0,0,1.7195,rock_grid_rect_2,6,10,-1,-1,1.719,-0.090179933,-0.393117417,1,0,0,1.8684,Pegmatite_rect,6,1.868,1,1,0,1,0,1,,,,,,,,,,,,,
58935d5d4d77be0001689f14,TCR,2024-06-20_15h43.34.072,LearnStrategy,2023.2.3,Win32,166.6666667,3,1,3,0.055663596,-0.018091538,1,0,0,0.9019,rock_grid_rect_2,1,02,-1,-1,0.902,-0.357559565,-0.238245673,1,0,0,1.9782,Andesite_rect,1,1.978,1,2,0,2,0,1,,,,,,,,,,,,,
58935d5d4d77be0001689f14,TCR,2024-06-20_15h43.34.072,LearnStrategy,2023.2.3,Win32,166.6666667,3,1,4,0.004965623,-0.006285129,1,0,0,1.0354,rock_grid_rect_2,6,13,-1,-1,1.035,0.09455516,-0.240329168,1,0,0,2.7643,Diorite_rect,3,2.764,0,3,0,3,0,1,,,,,,,,,,,,,
58935d5d4d77be0001689f14,TCR,2024-06-20_15h43.34.072,LearnStrategy,2023.2.3,Win32,166.6666667,3,1,5,0.06469195,-0.016008043,1,0,0,0.6589,rock_grid_rect_2,4,11,-1,-1,0.659,-0.358254126,-0.252135531,1,0,0,1.7791,Andesite_rect,1,1.779,0,4,0,4,0,1,,,,,,,,,,,,,
58935d5d4d77be0001689f14,TCR,2024-06-20_15h43.34.072,LearnStrategy,2023.2.3,Win32,166.6666667,3,1,6,0.034828646,0.024272549,1,0,0,0.55,rock_grid_rect_2,8,02,-1,-1,0.55,0.371657754,-0.400756836,1,0,0,0.8093,Pumice_rect,8,0.809,1,5,0,5,0,1,,,,,,,,,,,,,
58935d5d4d77be0001689f14,TCR,2024-06-20_15h43.34.072,LearnStrategy,2023.2.3,Win32,166.6666667,3,1,7,0.041079225,-0.017397025,1,0,0,0.5505,rock_grid_rect_2,2,10,-1,-1,0.55,-0.353392622,-0.398673527,1,0,0,0.8968,Obsidian_rect,5,0.897,0,6,0,6,0,1,,,,,,,,,,,,,
58935d5d4d77be0001689f14,TCR,2024-06-20_15h43.34.072,LearnStrategy,2023.2.3,Win32,166.6666667,3,1,8,0.008438052,0.022883614,1,0,0,0.5622,rock_grid_rect_2,7,12,-1,-1,0.562,0.09802759,-0.252135531,1,0,0,2.0031,Diorite_rect,3,2.003,0,7,0,7,0,1,,,,,,,,,,,,,
58935d5d4d77be0001689f14,TCR,2024-06-20_15h43.34.072,LearnStrategy,2023.2.3,Win32,166.6666667,3,1,9,0.045940682,0.00135429,1,0,0,0.5191,rock_grid_rect_2,2,16,-1,-1,0.519,-0.121432078,-0.261858445,1,0,0,1.5669,Basalt_rect,2,1.567,1,8,0,8,0,1,,,,,,,,,,,,,
58935d5d4d77be0001689f14,TCR,2024-06-20_15h43.34.072,LearnStrategy,2023.2.3,Win32,166.6666667,3,1,10,-0.000590395,-0.008368624,1,0,0,0.5807,rock_grid_rect_2,6,11,-1,-1,0.581,-0.126988002,-0.405618386,1,0,0,1.385,Pegmatite_rect,6,1.385,1,9,0,9,0,1,,,,,,,,,,,,,
58935d5d4d77be0001689f14,TCR,2024-06-20_15h43.34.072,LearnStrategy,2023.2.3,Win32,166.6666667,3,1,11,0.063997483,-0.000729205,1,0,0,0.5021,rock_grid_rect_2,3,08,-1,-1,0.502,0.096638655,-0.395201005,1,0,0,1.0215,Peridotite_rect,7,1.021,0,10,0,10,0,1,,,,,,,,,,,,,
58935d5d4d77be0001689f14,TCR,2024-06-20_15h43.34.072,LearnStrategy,2023.2.3,Win32,166.6666667,3,1,12,0.036217767,-0.008368624,1,0,0,0.4655,rock_grid_rect_2,5,09,-1,-1,0.466,-0.365893545,-0.393117417,1,0,0,1.1066,Obsidian_rect,5,1.107,1,11,0,11,0,1,,,,,,,,,,,,,
58935d5d4d77be0001689f14,TCR,2024-06-20_15h43.34.072,LearnStrategy,2023.2.3,Win32,166.6666667,3,1,13,0.015383004,-0.001423672,1,0,0,0.5807,rock_grid_rect_2,7,10,-1,-1,0.581,0.081359817,-0.261163932,1,0,0,0.9609,Diorite_rect,3,0.961,0,12,0,12,0,1,,,,,,,,,,,,,
58935d5d4d77be0001689f14,TCR,2024-06-20_15h43.34.072,LearnStrategy,2023.2.3,Win32,166.6666667,3,1,14,-0.019341663,0.00482672,1,0,0,0.4475,rock_grid_rect_2,4,14,-1,-1,0.447,-0.338808251,-0.253524512,1,0,0,2.5305,Andesite_rect,1,2.531,0,13,0,13,0,1,,,,,,,,,,,,,
58935d5d4d77be0001689f14,TCR,2024-06-20_15h43.34.072,LearnStrategy,2023.2.3,Win32,166.6666667,3,1,15,-0.023508653,0.024272549,1,0,0,0.4413,rock_grid_rect_2,7,13,-1,-1,0.441,-0.375616366,-0.254219026,1,0,0,1.482,Andesite_rect,1,1.482,0,14,0,14,0,1,,,,,,,,,,,,,
58935d5d4d77be0001689f14,TCR,2024-06-20_15h43.34.072,LearnStrategy,2023.2.3,Win32,166.6666667,3,1,16,0.050107485,-0.007674063,1,0,0,0.4594,rock_grid_rect_2,7,02,-1,-1,0.459,0.114000896,-0.253524512,1,0,0,1.6521,Diorite_rect,3,1.652,0,15,0,15,0,1,,,,,,,,,,,,,
58935d5d4d77be0001689f14,TCR,2024-06-20_15h43.34.072,LearnStrategy,2023.2.3,Win32,166.6666667,3,2,1,,,,,,,,2,14,,,,,,,,,,,4,4.324,0,,,,,,0.375824651,-0.243107131,1,0,0,4.324,Gabbro_rect,0,0,0,0,1,
58935d5d4d77be0001689f14,TCR,2024-06-20_15h43.34.072,LearnStrategy,2023.2.3,Win32,166.6666667,3,2,2,,,,,,,,5,12,,,,,,,,,,,5,2.257,1,,,,,,-0.379783356,-0.411868871,1,0,0,2.2575,Obsidian_rect,1,0,1,0,1,
58935d5d4d77be0001689f14,TCR,2024-06-20_15h43.34.072,LearnStrategy,2023.2.3,Win32,166.6666667,3,2,3,,,,,,,,6,07,,,,,,,,,,,6,5.972,1,,,,,,-0.067261675,-0.400062462,1,0,0,5.9722,Pegmatite_rect,2,0,2,0,1,
58935d5d4d77be0001689f14,TCR,2024-06-20_15h43.34.072,LearnStrategy,2023.2.3,Win32,166.6666667,3,2,4,,,,,,,,4,08,,,,,,,,,,,1,4.358,0,,,,,,-0.322834945,-0.266719903,1,0,0,4.3585,Andesite_rect,3,0,3,0,1,
58935d5d4d77be0001689f14,TCR,2024-06-20_15h43.34.072,LearnStrategy,2023.2.3,Win32,166.6666667,3,2,5,,,,,,,,5,11,,,,,,,,,,,5,1.046,1,,,,,,-0.399923606,-0.419508291,1,0,0,1.0456,Obsidian_rect,4,0,4,0,1,
58935d5d4d77be0001689f14,TCR,2024-06-20_15h43.34.072,LearnStrategy,2023.2.3,Win32,166.6666667,3,2,6,,,,,,,,8,13,,,,,,,,,,,8,1.942,1,,,,,,0.343878039,-0.407007414,1,0,0,1.9421,Pumice_rect,5,0,5,0,1,
58935d5d4d77be0001689f14,TCR,2024-06-20_15h43.34.072,LearnStrategy,2023.2.3,Win32,166.6666667,3,2,7,,,,,,,,1,06,,,,,,,,,,,4,1.257,0,,,,,,0.380686108,-0.249357569,1,0,0,1.2575,Gabbro_rect,6,0,6,0,1,
58935d5d4d77be0001689f14,TCR,2024-06-20_15h43.34.072,LearnStrategy,2023.2.3,Win32,166.6666667,3,2,8,,,,,,,,7,08,,,,,,,,,,,3,5.761,0,,,,,,0.109139532,-0.23407873,1,0,0,5.7606,Diorite_rect,7,0,7,0,1,
58935d5d4d77be0001689f14,TCR,2024-06-20_15h43.34.072,LearnStrategy,2023.2.3,Win32,166.6666667,3,2,9,,,,,,,,2,05,,,,,,,,,,,2,1.869,1,,,,,,-0.176991462,-0.251441064,1,0,0,1.8691,Basalt_rect,8,0,8,0,1,
58935d5d4d77be0001689f14,TCR,2024-06-20_15h43.34.072,LearnStrategy,2023.2.3,Win32,166.6666667,3,2,10,,,,,,,,4,03,,,,,,,,,,,3,1.493,0,,,,,,0.080665163,-0.264636408,1,0,0,1.4933,Diorite_rect,9,0,9,0,1,
58935d5d4d77be0001689f14,TCR,2024-06-20_15h43.34.072,LearnStrategy,2023.2.3,Win32,166.6666667,3,2,11,,,,,,,,3,13,,,,,,,,,,,3,0.811,1,,,,,,0.080665163,-0.264636408,1,0,0,0.8114,Diorite_rect,10,0,10,0,1,
58935d5d4d77be0001689f14,TCR,2024-06-20_15h43.34.072,LearnStrategy,2023.2.3,Win32,166.6666667,3,2,12,,,,,,,,7,04,,,,,,,,,,,8,6.9,0,,,,,,0.356378915,-0.404229452,1,0,0,6.9002,Pumice_rect,11,0,11,0,1,
58935d5d4d77be0001689f14,TCR,2024-06-20_15h43.34.072,LearnStrategy,2023.2.3,Win32,166.6666667,3,2,13,,,,,,,,6,06,,,,,,,,,,,7,4.19,0,,,,,,0.059830493,-0.407007414,1,0,0,4.1896,Peridotite_rect,12,0,12,0,1,
58935d5d4d77be0001689f14,TCR,2024-06-20_15h43.34.072,LearnStrategy,2023.2.3,Win32,166.6666667,3,2,14,,,,,,,,8,15,,,,,,,,,,,4,3.341,0,,,,,,0.411243786,-0.231995235,1,0,0,3.3411,Gabbro_rect,13,0,13,0,1,
58935d5d4d77be0001689f14,TCR,2024-06-20_15h43.34.072,LearnStrategy,2023.2.3,Win32,166.6666667,3,2,15,,,,,,,,1,16,,,,,,,,,,,7,2.881,0,,,,,,0.045246121,-0.399367995,1,0,0,2.8808,Peridotite_rect,14,0,14,0,1,
58935d5d4d77be0001689f14,TCR,2024-06-20_15h43.34.072,LearnStrategy,2023.2.3,Win32,166.6666667,3,2,16,,,,,,,,3,07,,,,,,,,,,,3,2.937,1,,,,,,0.148725564,-0.241023636,1,0,0,2.9373,Diorite_rect,15,0,15,0,1,
58935d5d4d77be0001689f14,TCR,2024-06-20_15h43.34.072,LearnStrategy,2023.2.3,Win32,166.6666667,4,1,1,-0.00197933,0.023578035,1,0,0,0.8053,rock_grid_rect_2,4,16,-1,-1,0.805,0.360545812,-0.241718149,1,0,0,0.9921,Gabbro_rect,4,0.992,1,0,0,0,0,1,,,,,,,,,,,,,
58935d5d4d77be0001689f14,TCR,2024-06-20_15h43.34.072,LearnStrategy,2023.2.3,Win32,166.6666667,4,1,2,0.03135631,-0.009757605,1,0,0,0.7694,rock_grid_rect_2,7,06,-1,-1,0.769,0.114000896,-0.257691502,1,0,0,1.0703,Diorite_rect,3,1.07,0,1,0,1,0,1,,,,,,,,,,,,,
58935d5d4d77be0001689f14,TCR,2024-06-20_15h43.34.072,LearnStrategy,2023.2.3,Win32,166.6666667,4,1,3,0.032745338,-0.009063091,1,0,0,0.7257,rock_grid_rect_2,4,16,-1,-1,0.726,0.342489011,-0.23407873,1,0,0,2.5445,Gabbro_rect,4,2.544,1,2,0,2,0,1,,,,,,,,,,,,,
58935d5d4d77be0001689f14,TCR,2024-06-20_15h43.34.072,LearnStrategy,2023.2.3,Win32,166.6666667,4,1,4,-0.009618749,-0.018786006,1,0,0,0.4656,rock_grid_rect_2,7,12,-1,-1,0.466,0.12372381,-0.268803351,1,0,0,1.143,Diorite_rect,3,1.143,0,3,0,3,0,1,,,,,,,,,,,,,
58935d5d4d77be0001689f14,TCR,2024-06-20_15h43.34.072,LearnStrategy,2023.2.3,Win32,166.6666667,4,1,5,0.048024177,-0.003507167,1,0,0,0.4233,rock_grid_rect_2,5,02,-1,-1,0.423,-0.399923606,-0.392423043,1,0,0,0.7661,Obsidian_rect,5,0.766,1,4,0,4,0,1,,,,,,,,,,,,,
58935d5d4d77be0001689f14,TCR,2024-06-20_15h43.34.072,LearnStrategy,2023.2.3,Win32,166.6666667,4,1,6,0.011910388,-0.011146586,1,0,0,0.4772,rock_grid_rect_2,1,05,-1,-1,0.477,0.102889047,-0.269497865,1,0,0,0.8487,Diorite_rect,3,0.849,0,5,0,5,0,1,,,,,,,,,,,,,
58935d5d4d77be0001689f14,TCR,2024-06-20_15h43.34.072,LearnStrategy,2023.2.3,Win32,166.6666667,4,1,7,0.042468066,-0.009063091,1,0,0,1.7937,rock_grid_rect_2,6,10,-1,-1,1.794,-0.100597315,-0.397978967,1,0,0,1.4387,Pegmatite_rect,6,1.439,1,6,0,6,0,1,,,,,,,,,,,,,
58935d5d4d77be0001689f14,TCR,2024-06-20_15h43.34.072,LearnStrategy,2023.2.3,Win32,166.6666667,4,1,8,0.018855434,-0.010452119,1,0,0,1.9132,rock_grid_rect_2,2,16,-1,-1,1.913,0.39110349,-0.271581313,1,0,0,1.5975,Gabbro_rect,4,1.598,0,7,0,7,0,1,,,,,,,,,,,,,
58935d5d4d77be0001689f14,TCR,2024-06-20_15h43.34.072,LearnStrategy,2023.2.3,Win32,166.6666667,4,1,9,0.06816438,0.012466139,1,0,0,0.508,rock_grid_rect_2,8,02,-1,-1,0.508,0.375130183,-0.411174311,1,0,0,1.573,Pumice_rect,8,1.573,1,8,0,8,0,1,,,,,,,,,,,,,
58935d5d4d77be0001689f14,TCR,2024-06-20_15h43.34.072,LearnStrategy,2023.2.3,Win32,166.6666667,4,1,10,0.06885894,-0.003507167,1,0,0,0.623,rock_grid_rect_2,7,02,-1,-1,0.623,0.087610208,-0.237551206,1,0,0,0.9729,Diorite_rect,3,0.973,0,9,0,9,0,1,,,,,,,,,,,,,
58935d5d4d77be0001689f14,TCR,2024-06-20_15h43.34.072,LearnStrategy,2023.2.3,Win32,166.6666667,4,1,11,0.033439805,-0.003507167,1,0,0,0.6414,rock_grid_rect_2,3,02,-1,-1,0.641,0.120945848,-0.238940187,1,0,0,0.7812,Diorite_rect,3,0.781,1,10,0,10,0,1,,,,,,,,,,,,,
58935d5d4d77be0001689f14,TCR,2024-06-20_15h43.34.072,LearnStrategy,2023.2.3,Win32,166.6666667,4,1,12,0.03899573,0.010382691,1,0,0,0.5748,rock_grid_rect_2,2,08,-1,-1,0.575,-0.051288275,-0.256996988,1,0,0,1.5248,Basalt_rect,2,1.525,1,11,0,11,0,1,,,,,,,,,,,,,
58935d5d4d77be0001689f14,TCR,2024-06-20_15h43.34.072,LearnStrategy,2023.2.3,Win32,166.6666667,4,1,13,0.03135631,-0.014619062,1,0,0,0.7082,rock_grid_rect_2,6,05,-1,-1,0.708,-0.048510313,-0.397978967,1,0,0,1.4581,Pegmatite_rect,6,1.458,1,12,0,12,0,1,,,,,,,,,,,,,
58935d5d4d77be0001689f14,TCR,2024-06-20_15h43.34.072,LearnStrategy,2023.2.3,Win32,166.6666667,4,1,14,0.022327863,-0.020869501,1,0,0,0.502,rock_grid_rect_2,4,14,-1,-1,0.502,0.393186984,-0.263247427,1,0,0,2.476,Gabbro_rect,4,2.476,1,13,0,13,0,1,,,,,,,,,,,,,
58935d5d4d77be0001689f14,TCR,2024-06-20_15h43.34.072,LearnStrategy,2023.2.3,Win32,166.6666667,4,1,15,0.032745338,0.015938615,1,0,0,0.5563,rock_grid_rect_2,1,14,-1,-1,0.556,0.091777198,-0.236856692,1,0,0,1.2459,Diorite_rect,3,1.246,0,14,0,14,0,1,,,,,,,,,,,,,
58935d5d4d77be0001689f14,TCR,2024-06-20_15h43.34.072,LearnStrategy,2023.2.3,Win32,166.6666667,4,1,16,0.038301262,0.002048758,1,0,0,0.4778,rock_grid_rect_2,7,10,-1,-1,0.478,0.12372381,-0.236856692,1,0,0,0.985,Diorite_rect,3,0.985,0,15,0,15,0,1,,,,,,,,,,,,,
58935d5d4d77be0001689f14,TCR,2024-06-20_15h43.34.072,LearnStrategy,2023.2.3,Win32,166.6666667,4,2,1,,,,,,,,3,11,,,,,,,,,,,3,2.185,1,,,,,,0.104972542,-0.254913493,1,0,0,2.1853,Diorite_rect,0,0,0,0,1,
58935d5d4d77be0001689f14,TCR,2024-06-20_15h43.34.072,LearnStrategy,2023.2.3,Win32,166.6666667,4,2,2,,,,,,,,8,09,,,,,,,,,,,8,1.154,1,,,,,,0.380686108,-0.400756836,1,0,0,1.1545,Pumice_rect,1,0,1,0,1,
58935d5d4d77be0001689f14,TCR,2024-06-20_15h43.34.072,LearnStrategy,2023.2.3,Win32,166.6666667,4,2,3,,,,,,,,5,11,,,,,,,,,,,5,0.827,1,,,,,,-0.358254126,-0.38964508,1,0,0,0.8269,Obsidian_rect,2,0,2,0,1,
58935d5d4d77be0001689f14,TCR,2024-06-20_15h43.34.072,LearnStrategy,2023.2.3,Win32,166.6666667,4,2,4,,,,,,,,6,07,,,,,,,,,,,6,1.506,1,,,,,,-0.090179933,-0.398673527,1,0,0,1.5056,Pegmatite_rect,3,0,3,0,1,
58935d5d4d77be0001689f14,TCR,2024-06-20_15h43.34.072,LearnStrategy,2023.2.3,Win32,166.6666667,4,2,5,,,,,,,,7,05,,,,,,,,,,,1,3.008,0,,,,,,-0.327696448,-0.254219026,1,0,0,3.0084,Andesite_rect,4,0,4,0,1,
58935d5d4d77be0001689f14,TCR,2024-06-20_15h43.34.072,LearnStrategy,2023.2.3,Win32,166.6666667,4,2,6,,,,,,,,4,08,,,,,,,,,,,4,2.079,1,,,,,,0.38346407,-0.245885093,1,0,0,2.0787,Gabbro_rect,5,0,5,0,1,
58935d5d4d77be0001689f14,TCR,2024-06-20_15h43.34.072,LearnStrategy,2023.2.3,Win32,166.6666667,4,2,7,,,,,,,,4,01,,,,,,,,,,,1,4.162,0,,,,,,-0.350614707,-0.247274074,1,0,0,4.1619,Andesite_rect,6,0,6,0,1,
58935d5d4d77be0001689f14,TCR,2024-06-20_15h43.34.072,LearnStrategy,2023.2.3,Win32,166.6666667,4,2,8,,,,,,,,1,01,,,,,,,,,,,4,2.835,0,,,,,,0.395964947,-0.246579607,1,0,0,2.8348,Gabbro_rect,7,0,7,0,1,
58935d5d4d77be0001689f14,TCR,2024-06-20_15h43.34.072,LearnStrategy,2023.2.3,Win32,166.6666667,4,2,9,,,,,,,,2,05,,,,,,,,,,,2,1.08,1,,,,,,-0.113792658,-0.241718149,1,0,0,1.0795,Basalt_rect,8,0,8,0,1,
58935d5d4d77be0001689f14,TCR,2024-06-20_15h43.34.072,LearnStrategy,2023.2.3,Win32,166.6666667,4,2,10,,,,,,,,5,14,,,,,,,,,,,5,1.433,1,,,,,,-0.361726509,-0.388256053,1,0,0,1.433,Obsidian_rect,9,0,9,0,1,
58935d5d4d77be0001689f14,TCR,2024-06-20_15h43.34.072,LearnStrategy,2023.2.3,Win32,166.6666667,4,2,11,,,,,,,,6,16,,,,,,,,,,,7,3.566,0,,,,,,0.088304582,-0.39381207,1,0,0,3.5664,Peridotite_rect,10,0,10,0,1,
58935d5d4d77be0001689f14,TCR,2024-06-20_15h43.34.072,LearnStrategy,2023.2.3,Win32,166.6666667,4,2,12,,,,,,,,7,16,,,,,,,,,,,1,2.194,0,,,,,,-0.352698108,-0.257691502,1,0,0,2.1939,Andesite_rect,11,0,11,0,1,
58935d5d4d77be0001689f14,TCR,2024-06-20_15h43.34.072,LearnStrategy,2023.2.3,Win32,166.6666667,4,2,13,,,,,,,,2,12,,,,,,,,,,,8,1.918,0,,,,,,0.394576012,-0.383394689,1,0,0,1.918,Pumice_rect,12,0,12,0,1,
58935d5d4d77be0001689f14,TCR,2024-06-20_15h43.34.072,LearnStrategy,2023.2.3,Win32,166.6666667,4,2,14,,,,,,,,3,12,,,,,,,,,,,3,4.834,1,,,,,,0.069553407,-0.258385969,1,0,0,4.8337,Diorite_rect,13,0,13,0,1,
58935d5d4d77be0001689f14,TCR,2024-06-20_15h43.34.072,LearnStrategy,2023.2.3,Win32,166.6666667,4,2,15,,,,,,,,1,06,,,,,,,,,,,1,3.377,1,,,,,,-0.388811804,-0.25977495,1,0,0,3.377,Andesite_rect,14,0,14,0,1,
58935d5d4d77be0001689f14,TCR,2024-06-20_15h43.34.072,LearnStrategy,2023.2.3,Win32,166.6666667,4,2,16,,,,,,,,8,14,,,,,,,,,,,8,1.051,1,,,,,,0.35776785,-0.409785376,1,0,0,1.0514,Pumice_rect,15,0,15,0,1,
58935d5d4d77be0001689f14,TCR,2024-06-20_15h43.34.072,LearnStrategy,2023.2.3,Win32,166.6666667,5,1,1,-0.060316723,0.002048758,1,0,0,0.8411,rock_grid_rect_2,4,14,-1,-1,0.841,0.3285992,-0.266025389,1,0,0,1.2278,Gabbro_rect,4,1.228,1,0,0,0,0,1,,,,,,,,,,,,,
58935d5d4d77be0001689f14,TCR,2024-06-20_15h43.34.072,LearnStrategy,2023.2.3,Win32,166.6666667,5,1,2,0.088999236,0.01802211,1,0,0,0.6111,rock_grid_rect_2,7,06,-1,-1,0.611,0.110528467,-0.382005661,1,0,0,2.7427,Peridotite_rect,7,2.743,1,1,0,1,0,1,,,,,,,,,,,,,
58935d5d4d77be0001689f14,TCR,2024-06-20_15h43.34.072,LearnStrategy,2023.2.3,Win32,166.6666667,5,1,3,0.084137779,0.015938615,1,0,0,0.7628,rock_grid_rect_2,1,14,-1,-1,0.763,0.098722057,-0.257691502,1,0,0,1.0395,Diorite_rect,3,1.039,0,2,0,2,0,1,,,,,,,,,,,,,
58935d5d4d77be0001689f14,TCR,2024-06-20_15h43.34.072,LearnStrategy,2023.2.3,Win32,166.6666667,5,1,4,0.052885541,0.005521234,1,0,0,0.4231,rock_grid_rect_2,6,11,-1,-1,0.423,-0.095735857,-0.394506538,1,0,0,0.8903,Pegmatite_rect,6,0.89,1,3,0,3,0,1,,,,,,,,,,,,,
58935d5d4d77be0001689f14,TCR,2024-06-20_15h43.34.072,LearnStrategy,2023.2.3,Win32,166.6666667,5,1,5,0.004965623,0.018716578,1,0,0,0.429,rock_grid_rect_2,7,02,-1,-1,0.429,0.095944002,-0.25977495,1,0,0,0.8036,Diorite_rect,3,0.804,0,4,0,4,0,1,,,,,,,,,,,,,
58935d5d4d77be0001689f14,TCR,2024-06-20_15h43.34.072,LearnStrategy,2023.2.3,Win32,166.6666667,5,1,6,0.023716891,-0.004201681,1,0,0,0.4172,rock_grid_rect_2,7,13,-1,-1,0.417,-0.353392622,-0.253524512,1,0,0,1.0761,Andesite_rect,1,1.076,0,5,0,5,0,1,,,,,,,,,,,,,
58935d5d4d77be0001689f14,TCR,2024-06-20_15h43.34.072,LearnStrategy,2023.2.3,Win32,166.6666667,5,1,7,-0.020730598,-3.46441E-05,1,0,0,0.4106,rock_grid_rect_2,2,02,-1,-1,0.411,0.396659321,-0.259080483,1,0,0,1.9643,Gabbro_rect,4,1.964,0,6,0,6,0,1,,,,,,,,,,,,,
58935d5d4d77be0001689f14,TCR,2024-06-20_15h43.34.072,LearnStrategy,2023.2.3,Win32,166.6666667,5,1,8,0.038301262,-0.022258482,1,0,0,0.3507,rock_grid_rect_2,4,16,-1,-1,0.351,0.370268726,-0.252830045,1,0,0,1.0281,Gabbro_rect,4,1.028,1,7,0,7,0,1,,,,,,,,,,,,,
58935d5d4d77be0001689f14,TCR,2024-06-20_15h43.34.072,LearnStrategy,2023.2.3,Win32,166.6666667,5,1,9,0.059830493,-0.014619062,1,0,0,0.4415,rock_grid_rect_2,7,10,-1,-1,0.442,-0.067956142,-0.395201005,1,0,0,2.0637,Pegmatite_rect,6,2.064,0,8,0,8,0,1,,,,,,,,,,,,,
58935d5d4d77be0001689f14,TCR,2024-06-20_15h43.34.072,LearnStrategy,2023.2.3,Win32,166.6666667,5,1,10,-0.051288275,-0.0118411,1,0,0,0.436,rock_grid_rect_2,8,06,-1,-1,0.436,0.34596144,-0.386172651,1,0,0,0.7761,Pumice_rect,8,0.776,1,9,0,9,0,1,,,,,,,,,,,,,
58935d5d4d77be0001689f14,TCR,2024-06-20_15h43.34.072,LearnStrategy,2023.2.3,Win32,166.6666667,5,1,11,0.041773692,0.004132253,1,0,0,0.484,rock_grid_rect_2,1,05,-1,-1,0.484,0.087610208,-0.266719903,1,0,0,0.9234,Diorite_rect,3,0.923,0,10,0,10,0,1,,,,,,,,,,,,,
58935d5d4d77be0001689f14,TCR,2024-06-20_15h43.34.072,LearnStrategy,2023.2.3,Win32,166.6666667,5,1,12,0.025105919,-0.002118186,1,0,0,0.6352,rock_grid_rect_2,2,10,-1,-1,0.635,-0.134627422,-0.243801644,1,0,0,1.276,Basalt_rect,2,1.276,1,11,0,11,0,1,,,,,,,,,,,,,
58935d5d4d77be0001689f14,TCR,2024-06-20_15h43.34.072,LearnStrategy,2023.2.3,Win32,166.6666667,5,1,13,-0.018647289,-0.008368624,1,0,0,0.5378,rock_grid_rect_2,3,10,-1,-1,0.538,0.108444972,-0.399367995,1,0,0,1.652,Peridotite_rect,7,1.652,0,12,0,12,0,1,,,,,,,,,,,,,
58935d5d4d77be0001689f14,TCR,2024-06-20_15h43.34.072,LearnStrategy,2023.2.3,Win32,166.6666667,5,1,14,0.078581854,-0.0118411,1,0,0,0.3974,rock_grid_rect_2,6,08,-1,-1,0.397,-0.089485372,-0.418119263,1,0,0,0.9486,Pegmatite_rect,6,0.949,1,13,0,13,0,1,,,,,,,,,,,,,
58935d5d4d77be0001689f14,TCR,2024-06-20_15h43.34.072,LearnStrategy,2023.2.3,Win32,166.6666667,5,1,15,-0.010313216,-0.009063091,1,0,0,0.69,rock_grid_rect_2,4,16,-1,-1,0.69,-0.342280727,-0.253524512,1,0,0,1.3244,Andesite_rect,1,1.324,0,14,0,14,0,1,,,,,,,,,,,,,
58935d5d4d77be0001689f14,TCR,2024-06-20_15h43.34.072,LearnStrategy,2023.2.3,Win32,166.6666667,5,1,16,-0.070734104,-0.000729205,1,0,0,0.3386,rock_grid_rect_2,1,07,-1,-1,0.339,-0.32075145,-0.238245673,1,0,0,0.8276,Andesite_rect,1,0.828,1,15,0,15,0,1,,,,,,,,,,,,,
58935d5d4d77be0001689f14,TCR,2024-06-20_15h43.34.072,LearnStrategy,2023.2.3,Win32,166.6666667,5,2,1,,,,,,,,7,07,,,,,,,,,,,7,5.065,1,,,,,,0.12372381,-0.391728575,1,0,0,5.0652,Peridotite_rect,0,0,0,0,1,
58935d5d4d77be0001689f14,TCR,2024-06-20_15h43.34.072,LearnStrategy,2023.2.3,Win32,166.6666667,5,2,2,,,,,,,,3,09,,,,,,,,,,,3,3.433,1,,,,,,0.110528467,-0.247968588,1,0,0,3.4334,Diorite_rect,1,0,1,0,1,
58935d5d4d77be0001689f14,TCR,2024-06-20_15h43.34.072,LearnStrategy,2023.2.3,Win32,166.6666667,5,2,3,,,,,,,,8,15,,,,,,,,,,,4,3.226,0,,,,,,0.393881452,-0.244496112,1,0,0,3.2262,Gabbro_rect,2,0,2,0,1,
58935d5d4d77be0001689f14,TCR,2024-06-20_15h43.34.072,LearnStrategy,2023.2.3,Win32,166.6666667,5,2,4,,,,,,,,7,08,,,,,,,,,,,7,1.859,1,,,,,,0.095249628,-0.420897225,1,0,0,1.8592,Peridotite_rect,3,0,3,0,1,
58935d5d4d77be0001689f14,TCR,2024-06-20_15h43.34.072,LearnStrategy,2023.2.3,Win32,166.6666667,5,2,5,,,,,,,,4,13,,,,,,,,,,,1,2.439,0,,,,,,-0.350614707,-0.255608007,1,0,0,2.4394,Andesite_rect,4,0,4,0,1,
58935d5d4d77be0001689f14,TCR,2024-06-20_15h43.34.072,LearnStrategy,2023.2.3,Win32,166.6666667,5,2,6,,,,,,,,1,10,,,,,,,,,,,4,4.401,0,,,,,,0.377213678,-0.245885093,1,0,0,4.401,Gabbro_rect,5,0,5,0,1,
58935d5d4d77be0001689f14,TCR,2024-06-20_15h43.34.072,LearnStrategy,2023.2.3,Win32,166.6666667,5,2,7,,,,,,,,5,12,,,,,,,,,,,5,1.128,1,,,,,,-0.344364222,-0.414646834,1,0,0,1.1283,Obsidian_rect,6,0,6,0,1,
58935d5d4d77be0001689f14,TCR,2024-06-20_15h43.34.072,LearnStrategy,2023.2.3,Win32,166.6666667,5,2,8,,,,,,,,3,14,,,,,,,,,,,3,1.732,1,,,,,,0.107056037,-0.235467711,1,0,0,1.7321,Diorite_rect,7,0,7,0,1,
58935d5d4d77be0001689f14,TCR,2024-06-20_15h43.34.072,LearnStrategy,2023.2.3,Win32,166.6666667,5,2,9,,,,,,,,8,10,,,,,,,,,,,8,0.839,1,,,,,,0.368879699,-0.406312947,1,0,0,0.8394,Pumice_rect,8,0,8,0,1,
58935d5d4d77be0001689f14,TCR,2024-06-20_15h43.34.072,LearnStrategy,2023.2.3,Win32,166.6666667,5,2,10,,,,,,,,1,16,,,,,,,,,,,1,1.263,1,,,,,,-0.369365928,-0.25977495,1,0,0,1.2632,Andesite_rect,9,0,9,0,1,
58935d5d4d77be0001689f14,TCR,2024-06-20_15h43.34.072,LearnStrategy,2023.2.3,Win32,166.6666667,5,2,11,,,,,,,,6,12,,,,,,,,,,,6,2.833,1,,,,,,-0.076984496,-0.414646834,1,0,0,2.8335,Pegmatite_rect,10,0,10,0,1,
58935d5d4d77be0001689f14,TCR,2024-06-20_15h43.34.072,LearnStrategy,2023.2.3,Win32,166.6666667,5,2,12,,,,,,,,2,11,,,,,,,,,,,4,3.112,0,,,,,,0.428606119,-0.252830045,1,0,0,3.112,Gabbro_rect,11,0,11,0,1,
58935d5d4d77be0001689f14,TCR,2024-06-20_15h43.34.072,LearnStrategy,2023.2.3,Win32,166.6666667,5,2,13,,,,,,,,6,06,,,,,,,,,,,6,1.754,1,,,,,,-0.130460478,-0.381311194,1,0,0,1.7539,Pegmatite_rect,12,0,12,0,1,
58935d5d4d77be0001689f14,TCR,2024-06-20_15h43.34.072,LearnStrategy,2023.2.3,Win32,166.6666667,5,2,14,,,,,,,,4,15,,,,,,,,,,,1,1.887,0,,,,,,-0.374227385,-0.247968588,1,0,0,1.8871,Andesite_rect,13,0,13,0,1,
58935d5d4d77be0001689f14,TCR,2024-06-20_15h43.34.072,LearnStrategy,2023.2.3,Win32,166.6666667,5,2,15,,,,,,,,2,09,,,,,,,,,,,2,0.779,1,,,,,,-0.11518164,-0.240329168,1,0,0,0.7789,Basalt_rect,14,0,14,0,1,
58935d5d4d77be0001689f14,TCR,2024-06-20_15h43.34.072,LearnStrategy,2023.2.3,Win32,166.6666667,5,2,16,,,,,,,,5,04,,,,,,,,,,,5,0.728,1,,,,,,-0.324918439,-0.405618386,1,0,0,0.7284,Obsidian_rect,15,0,15,0,1,
58935d5d4d77be0001689f14,TCR,2024-06-20_15h43.34.072,LearnStrategy,2023.2.3,Win32,166.6666667,6,1,1,0.020938929,0.004132253,1,0,0,1.5268,rock_grid_rect_2,7,12,-1,-1,1.527,0.141780518,-0.236162225,1,0,0,1.6326,Diorite_rect,3,1.633,0,0,0,0,0,1,,,,,,,,,,,,,
58935d5d4d77be0001689f14,TCR,2024-06-20_15h43.34.072,LearnStrategy,2023.2.3,Win32,166.6666667,6,1,2,0.007049024,0.020105559,1,0,0,0.7933,rock_grid_rect_2,3,15,-1,-1,0.793,0.116084391,-0.242412663,1,0,0,0.8693,Diorite_rect,3,0.869,1,1,0,1,0,1,,,,,,,,,,,,,
58935d5d4d77be0001689f14,TCR,2024-06-20_15h43.34.072,LearnStrategy,2023.2.3,Win32,166.6666667,6,1,3,0.040384757,-0.020174987,1,0,0,0.5325,rock_grid_rect_2,4,12,-1,-1,0.533,0.350822804,-0.228522806,1,0,0,1.7064,Gabbro_rect,4,1.706,1,2,0,2,0,1,,,,,,,,,,,,,
58935d5d4d77be0001689f14,TCR,2024-06-20_15h43.34.072,LearnStrategy,2023.2.3,Win32,166.6666667,6,1,4,0.027883881,-0.018091538,1,0,0,0.4415,rock_grid_rect_2,4,12,-1,-1,0.441,0.400826404,-0.257691502,1,0,0,0.7674,Gabbro_rect,4,0.767,1,3,0,3,0,1,,,,,,,,,,,,,
58935d5d4d77be0001689f14,TCR,2024-06-20_15h43.34.072,LearnStrategy,2023.2.3,Win32,166.6666667,6,1,5,0.027883881,0.011077158,1,0,0,0.4719,rock_grid_rect_2,4,11,-1,-1,0.472,0.385547565,-0.266025389,1,0,0,0.7184,Gabbro_rect,4,0.718,1,4,0,4,0,1,,,,,,,,,,,,,
58935d5d4d77be0001689f14,TCR,2024-06-20_15h43.34.072,LearnStrategy,2023.2.3,Win32,166.6666667,6,1,6,0.075109332,0.000659777,1,0,0,0.6171,rock_grid_rect_2,6,11,-1,-1,0.617,0.071636902,-0.413952366,1,0,0,2.1735,Peridotite_rect,7,2.173,0,5,0,5,0,1,,,,,,,,,,,,,
58935d5d4d77be0001689f14,TCR,2024-06-20_15h43.34.072,LearnStrategy,2023.2.3,Win32,166.6666667,6,1,7,0.065386324,-0.001423672,1,0,0,0.4233,rock_grid_rect_2,1,02,-1,-1,0.423,-0.402007101,-0.270192332,1,0,0,1.096,Andesite_rect,1,1.096,1,6,0,6,0,1,,,,,,,,,,,,,
58935d5d4d77be0001689f14,TCR,2024-06-20_15h43.34.072,LearnStrategy,2023.2.3,Win32,166.6666667,6,1,8,0.03899573,0.017327596,1,0,0,0.4352,rock_grid_rect_2,8,03,-1,-1,0.435,0.390409022,-0.405618386,1,0,0,1.3672,Pumice_rect,8,1.367,1,7,0,7,0,1,,,,,,,,,,,,,
58935d5d4d77be0001689f14,TCR,2024-06-20_15h43.34.072,LearnStrategy,2023.2.3,Win32,166.6666667,6,1,9,0.021633396,0.004132253,1,0,0,0.4476,rock_grid_rect_2,1,04,-1,-1,0.448,-0.350614707,-0.25074655,1,0,0,1.2338,Andesite_rect,1,1.234,1,8,0,8,0,1,,,,,,,,,,,,,
58935d5d4d77be0001689f14,TCR,2024-06-20_15h43.34.072,LearnStrategy,2023.2.3,Win32,166.6666667,6,1,10,0.039690197,-0.004896148,1,0,0,0.678,rock_grid_rect_2,7,06,-1,-1,0.678,0.116778951,-0.402145957,1,0,0,1.9779,Peridotite_rect,7,1.978,1,9,0,9,0,1,,,,,,,,,,,,,
58935d5d4d77be0001689f14,TCR,2024-06-20_15h43.34.072,LearnStrategy,2023.2.3,Win32,166.6666667,6,1,11,0.002882128,-0.014619062,1,0,0,0.6779,rock_grid_rect_2,7,10,-1,-1,0.678,0.070942435,-0.402840424,1,0,0,1.1241,Peridotite_rect,7,1.124,1,10,0,10,0,1,,,,,,,,,,,,,
58935d5d4d77be0001689f14,TCR,2024-06-20_15h43.34.072,LearnStrategy,2023.2.3,Win32,166.6666667,6,1,12,-0.007535254,0.004132253,1,0,0,0.4534,rock_grid_rect_2,2,16,-1,-1,0.453,-0.145044803,-0.251441064,1,0,0,0.8272,Basalt_rect,2,0.827,1,11,0,11,0,1,,,,,,,,,,,,,
58935d5d4d77be0001689f14,TCR,2024-06-20_15h43.34.072,LearnStrategy,2023.2.3,Win32,166.6666667,6,1,13,0.00982708,0.006215748,1,0,0,0.3869,rock_grid_rect_2,8,05,-1,-1,0.387,0.370963194,-0.392423043,1,0,0,1.0454,Pumice_rect,8,1.045,1,12,0,12,0,1,,,,,,,,,,,,,
58935d5d4d77be0001689f14,TCR,2024-06-20_15h43.34.072,LearnStrategy,2023.2.3,Win32,166.6666667,6,1,14,0.095249628,-0.009757605,1,0,0,0.7568,rock_grid_rect_2,4,11,-1,-1,0.757,0.347350468,-0.264636408,1,0,0,1.6013,Gabbro_rect,4,1.601,1,13,0,13,0,1,,,,,,,,,,,,,
58935d5d4d77be0001689f14,TCR,2024-06-20_15h43.34.072,LearnStrategy,2023.2.3,Win32,166.6666667,6,1,15,0.070942435,0.011771672,1,0,0,0.4719,rock_grid_rect_2,2,08,-1,-1,0.472,-0.340891746,-0.400756836,1,0,0,0.9309,Obsidian_rect,5,0.931,0,14,0,14,0,1,,,,,,,,,,,,,
58935d5d4d77be0001689f14,TCR,2024-06-20_15h43.34.072,LearnStrategy,2023.2.3,Win32,166.6666667,6,1,16,-0.049204967,-0.010452119,1,0,0,0.7082,rock_grid_rect_2,1,07,-1,-1,0.708,-0.358948547,-0.253524512,1,0,0,1.9127,Andesite_rect,1,1.913,1,15,0,15,0,1,,,,,,,,,,,,,
58935d5d4d77be0001689f14,TCR,2024-06-20_15h43.34.072,LearnStrategy,2023.2.3,Win32,166.6666667,6,2,1,,,,,,,,8,04,,,,,,,,,,,8,3.069,1,,,,,,0.378602613,-0.386172651,1,0,0,3.0692,Pumice_rect,0,0,0,0,1,
58935d5d4d77be0001689f14,TCR,2024-06-20_15h43.34.072,LearnStrategy,2023.2.3,Win32,166.6666667,6,2,2,,,,,,,,6,09,,,,,,,,,,,6,4.184,1,,,,,,-0.059622255,-0.404229452,1,0,0,4.1839,Pegmatite_rect,1,0,1,0,1,
58935d5d4d77be0001689f14,TCR,2024-06-20_15h43.34.072,LearnStrategy,2023.2.3,Win32,166.6666667,6,2,3,,,,,,,,5,08,,,,,,,,,,,5,0.858,1,,,,,,-0.345058689,-0.41881373,1,0,0,0.8576,Obsidian_rect,2,0,2,0,1,
58935d5d4d77be0001689f14,TCR,2024-06-20_15h43.34.072,LearnStrategy,2023.2.3,Win32,166.6666667,6,2,4,,,,,,,,8,13,,,,,,,,,,,8,1.798,1,,,,,,0.366101643,-0.381311194,1,0,0,1.7984,Pumice_rect,3,0,3,0,1,
58935d5d4d77be0001689f14,TCR,2024-06-20_15h43.34.072,LearnStrategy,2023.2.3,Win32,166.6666667,6,2,5,,,,,,,,2,06,,,,,,,,,,,2,1.142,1,,,,,,-0.115876153,-0.260469464,1,0,0,1.1422,Basalt_rect,4,0,4,0,1,
58935d5d4d77be0001689f14,TCR,2024-06-20_15h43.34.072,LearnStrategy,2023.2.3,Win32,166.6666667,6,2,6,,,,,,,,3,13,,,,,,,,,,,3,2.889,1,,,,,,0.145947601,-0.260469464,1,0,0,2.8885,Diorite_rect,5,0,5,0,1,
58935d5d4d77be0001689f14,TCR,2024-06-20_15h43.34.072,LearnStrategy,2023.2.3,Win32,166.6666667,6,2,7,,,,,,,,1,11,,,,,,,,,,,1,1.378,1,,,,,,-0.347836698,-0.255608007,1,0,0,1.3775,Andesite_rect,6,0,6,0,1,
58935d5d4d77be0001689f14,TCR,2024-06-20_15h43.34.072,LearnStrategy,2023.2.3,Win32,166.6666667,6,2,8,,,,,,,,5,16,,,,,,,,,,,5,0.857,1,,,,,,-0.378394329,-0.397978967,1,0,0,0.857,Obsidian_rect,7,0,7,0,1,
58935d5d4d77be0001689f14,TCR,2024-06-20_15h43.34.072,LearnStrategy,2023.2.3,Win32,166.6666667,6,2,9,,,,,,,,6,03,,,,,,,,,,,6,1.699,1,,,,,,-0.105458772,-0.39381207,1,0,0,1.6993,Pegmatite_rect,8,0,8,0,1,
58935d5d4d77be0001689f14,TCR,2024-06-20_15h43.34.072,LearnStrategy,2023.2.3,Win32,166.6666667,6,2,10,,,,,,,,4,03,,,,,,,,,,,4,1.621,1,,,,,,0.318876285,-0.264636408,1,0,0,1.6214,Gabbro_rect,9,0,9,0,1,
58935d5d4d77be0001689f14,TCR,2024-06-20_15h43.34.072,LearnStrategy,2023.2.3,Win32,166.6666667,6,2,11,,,,,,,,2,14,,,,,,,,,,,4,2.845,0,,,,,,0.350822804,-0.237551206,1,0,0,2.8448,Gabbro_rect,10,0,10,0,1,
58935d5d4d77be0001689f14,TCR,2024-06-20_15h43.34.072,LearnStrategy,2023.2.3,Win32,166.6666667,6,2,12,,,,,,,,7,14,,,,,,,,,,,1,1.221,0,,,,,,-0.356865098,-0.260469464,1,0,0,1.2206,Andesite_rect,11,0,11,0,1,
58935d5d4d77be0001689f14,TCR,2024-06-20_15h43.34.072,LearnStrategy,2023.2.3,Win32,166.6666667,6,2,13,,,,,,,,3,07,,,,,,,,,,,7,3.482,0,,,,,,0.116084391,-0.384783623,1,0,0,3.4816,Peridotite_rect,12,0,12,0,1,
58935d5d4d77be0001689f14,TCR,2024-06-20_15h43.34.072,LearnStrategy,2023.2.3,Win32,166.6666667,6,2,14,,,,,,,,1,09,,,,,,,,,,,4,5.718,0,,,,,,0.400131937,-0.248663055,1,0,0,5.7183,Gabbro_rect,13,0,13,0,1,
58935d5d4d77be0001689f14,TCR,2024-06-20_15h43.34.072,LearnStrategy,2023.2.3,Win32,166.6666667,6,2,15,,,,,,,,4,09,,,,,,,,,,,4,1.698,1,,,,,,0.411938159,-0.270886846,1,0,0,1.698,Gabbro_rect,14,0,14,0,1,
58935d5d4d77be0001689f14,TCR,2024-06-20_15h43.34.072,LearnStrategy,2023.2.3,Win32,166.6666667,6,2,16,,,,,,,,7,04,,,,,,,,,,,1,3.949,0,,,,,,-0.396451223,-0.237551206,1,0,0,3.9494,Andesite_rect,15,0,15,0,1,
58935d5d4d77be0001689f14,TCR,2024-06-20_15h43.34.072,LearnStrategy,2023.2.3,Win32,166.6666667,7,1,1,0.019549808,0.011077158,1,0,0,0.8226,rock_grid_rect_2,2,16,-1,-1,0.823,-0.116570621,-0.25074655,1,0,0,1.145,Basalt_rect,2,1.145,1,0,0,0,0,1,,,,,,,,,,,,,
58935d5d4d77be0001689f14,TCR,2024-06-20_15h43.34.072,LearnStrategy,2023.2.3,Win32,166.6666667,7,1,2,0.055663596,-0.020174987,1,0,0,0.6899,rock_grid_rect_2,7,12,-1,-1,0.69,0.136919154,-0.23407873,1,0,0,2.2764,Diorite_rect,3,2.276,0,1,0,1,0,1,,,,,,,,,,,,,
58935d5d4d77be0001689f14,TCR,2024-06-20_15h43.34.072,LearnStrategy,2023.2.3,Win32,166.6666667,7,1,3,0.04316272,0.006215748,1,0,0,0.6597,rock_grid_rect_2,7,15,-1,-1,0.66,-0.308945087,-0.236856692,1,0,0,1.2351,Andesite_rect,1,1.235,0,2,0,2,0,1,,,,,,,,,,,,,
58935d5d4d77be0001689f14,TCR,2024-06-20_15h43.34.072,LearnStrategy,2023.2.3,Win32,166.6666667,7,1,4,0.014688444,-0.02434193,1,0,0,0.9081,rock_grid_rect_2,4,12,-1,-1,0.908,0.398048442,-0.253524512,1,0,0,1.0633,Gabbro_rect,4,1.063,1,3,0,3,0,1,,,,,,,,,,,,,
58935d5d4d77be0001689f14,TCR,2024-06-20_15h43.34.072,LearnStrategy,2023.2.3,Win32,166.6666667,7,1,5,0.061219521,-0.023647463,1,0,0,0.423,rock_grid_rect_2,1,05,-1,-1,0.423,-0.408952006,-0.249357569,1,0,0,0.9133,Andesite_rect,1,0.913,1,4,0,4,0,1,,,,,,,,,,,,,
58935d5d4d77be0001689f14,TCR,2024-06-20_15h43.34.072,LearnStrategy,2023.2.3,Win32,166.6666667,7,1,6,-0.003368451,-3.46441E-05,1,0,0,0.3991,rock_grid_rect_2,6,15,-1,-1,0.399,-0.135321936,-0.403534891,1,0,0,0.9302,Pegmatite_rect,6,0.93,1,5,0,5,0,1,,,,,,,,,,,,,
58935d5d4d77be0001689f14,TCR,2024-06-20_15h43.34.072,LearnStrategy,2023.2.3,Win32,166.6666667,7,1,7,0.041773692,-0.006285129,1,0,0,0.6773,rock_grid_rect_2,7,13,-1,-1,0.677,-0.321445963,-0.247274074,1,0,0,1.3489,Andesite_rect,1,1.349,0,6,0,6,0,1,,,,,,,,,,,,,
58935d5d4d77be0001689f14,TCR,2024-06-20_15h43.34.072,LearnStrategy,2023.2.3,Win32,166.6666667,7,1,8,-0.033231474,-0.018786006,1,0,0,0.3508,rock_grid_rect_2,7,06,-1,-1,0.351,0.082748751,-0.261858445,1,0,0,0.797,Diorite_rect,3,0.797,0,7,0,7,0,1,,,,,,,,,,,,,
58935d5d4d77be0001689f14,TCR,2024-06-20_15h43.34.072,LearnStrategy,2023.2.3,Win32,166.6666667,7,1,9,0.040384757,-0.009757605,1,0,0,0.3932,rock_grid_rect_2,8,02,-1,-1,0.393,0.374435716,-0.413952366,1,0,0,0.8156,Pumice_rect,8,0.816,1,8,0,8,0,1,,,,,,,,,,,,,
58935d5d4d77be0001689f14,TCR,2024-06-20_15h43.34.072,LearnStrategy,2023.2.3,Win32,166.6666667,7,1,10,0.059830493,-0.0118411,1,0,0,0.4535,rock_grid_rect_2,1,03,-1,-1,0.454,0.4209667,-0.239634654,1,0,0,1.2489,Gabbro_rect,4,1.249,0,9,0,9,0,1,,,,,,,,,,,,,
58935d5d4d77be0001689f14,TCR,2024-06-20_15h43.34.072,LearnStrategy,2023.2.3,Win32,166.6666667,7,1,11,0.075803799,-0.013924548,1,0,0,0.3931,rock_grid_rect_2,5,05,-1,-1,0.393,-0.36311549,-0.420202758,1,0,0,1.1418,Obsidian_rect,5,1.142,1,10,0,10,0,1,,,,,,,,,,,,,
58935d5d4d77be0001689f14,TCR,2024-06-20_15h43.34.072,LearnStrategy,2023.2.3,Win32,166.6666667,7,1,12,0.084832246,0.002743271,1,0,0,0.4352,rock_grid_rect_2,4,12,-1,-1,0.435,-0.354087089,-0.256996988,1,0,0,1.5308,Andesite_rect,1,1.531,0,11,0,11,0,1,,,,,,,,,,,,,
58935d5d4d77be0001689f14,TCR,2024-06-20_15h43.34.072,LearnStrategy,2023.2.3,Win32,166.6666667,7,1,13,0.003576595,0.006215748,1,0,0,0.3689,rock_grid_rect_2,2,10,-1,-1,0.369,-0.147822812,-0.243107131,1,0,0,0.979,Basalt_rect,2,0.979,1,12,0,12,0,1,,,,,,,,,,,,,
58935d5d4d77be0001689f14,TCR,2024-06-20_15h43.34.072,LearnStrategy,2023.2.3,Win32,166.6666667,7,1,14,0.045246121,-0.006979643,1,0,0,0.4838,rock_grid_rect_2,4,11,-1,-1,0.484,0.35776785,-0.256302474,1,0,0,1.0699,Gabbro_rect,4,1.07,1,13,0,13,0,1,,,,,,,,,,,,,
58935d5d4d77be0001689f14,TCR,2024-06-20_15h43.34.072,LearnStrategy,2023.2.3,Win32,166.6666667,7,1,15,0.120251381,-0.018786006,1,0,0,0.6294,rock_grid_rect_2,3,02,-1,-1,0.629,0.13136323,-0.260469464,1,0,0,1.1975,Diorite_rect,3,1.197,1,14,0,14,0,1,,,,,,,,,,,,,
58935d5d4d77be0001689f14,TCR,2024-06-20_15h43.34.072,LearnStrategy,2023.2.3,Win32,166.6666667,7,1,16,0.002882128,0.005521234,1,0,0,0.4355,rock_grid_rect_2,1,14,-1,-1,0.435,-0.367976947,-0.248663055,1,0,0,1.3792,Andesite_rect,1,1.379,1,15,0,15,0,1,,,,,,,,,,,,,
58935d5d4d77be0001689f14,TCR,2024-06-20_15h43.34.072,LearnStrategy,2023.2.3,Win32,166.6666667,7,2,1,,,,,,,,3,14,,,,,,,,,,,3,3.525,1,,,,,,0.125112838,-0.242412663,1,0,0,3.5248,Diorite_rect,0,0,0,0,1,
58935d5d4d77be0001689f14,TCR,2024-06-20_15h43.34.072,LearnStrategy,2023.2.3,Win32,166.6666667,7,2,2,,,,,,,,2,05,,,,,,,,,,,2,0.9,1,,,,,,-0.129765964,-0.269497865,1,0,0,0.8996,Basalt_rect,1,0,1,0,1,
58935d5d4d77be0001689f14,TCR,2024-06-20_15h43.34.072,LearnStrategy,2023.2.3,Win32,166.6666667,7,2,3,,,,,,,,2,14,,,,,,,,,,,4,0.882,0,,,,,,0.333460657,-0.232689749,1,0,0,0.8817,Gabbro_rect,2,0,2,0,1,
58935d5d4d77be0001689f14,TCR,2024-06-20_15h43.34.072,LearnStrategy,2023.2.3,Win32,166.6666667,7,2,4,,,,,,,,4,13,,,,,,,,,,,1,1.256,0,,,,,,-0.365893545,-0.261163932,1,0,0,1.2556,Andesite_rect,3,0,3,0,1,
58935d5d4d77be0001689f14,TCR,2024-06-20_15h43.34.072,LearnStrategy,2023.2.3,Win32,166.6666667,7,2,5,,,,,,,,1,09,,,,,,,,,,,4,0.917,0,,,,,,0.362629307,-0.236162225,1,0,0,0.9173,Gabbro_rect,4,0,4,0,1,
58935d5d4d77be0001689f14,TCR,2024-06-20_15h43.34.072,LearnStrategy,2023.2.3,Win32,166.6666667,7,2,6,,,,,,,,6,06,,,,,,,,,,,7,4.44,0,,,,,,0.120251381,-0.407701881,1,0,0,4.4396,Peridotite_rect,5,0,5,0,1,
58935d5d4d77be0001689f14,TCR,2024-06-20_15h43.34.072,LearnStrategy,2023.2.3,Win32,166.6666667,7,2,7,,,,,,,,6,03,,,,,,,,,,,6,0.924,1,,,,,,-0.10754222,-0.394506538,1,0,0,0.924,Pegmatite_rect,6,0,6,0,1,
58935d5d4d77be0001689f14,TCR,2024-06-20_15h43.34.072,LearnStrategy,2023.2.3,Win32,166.6666667,7,2,8,,,,,,,,8,14,,,,,,,,,,,8,0.783,1,,,,,,0.393881452,-0.420897225,1,0,0,0.7833,Pumice_rect,7,0,7,0,1,
58935d5d4d77be0001689f14,TCR,2024-06-20_15h43.34.072,LearnStrategy,2023.2.3,Win32,166.6666667,7,2,9,,,,,,,,1,16,,,,,,,,,,,1,1.136,1,,,,,,-0.379783356,-0.243107131,1,0,0,1.1358,Andesite_rect,8,0,8,0,1,
58935d5d4d77be0001689f14,TCR,2024-06-20_15h43.34.072,LearnStrategy,2023.2.3,Win32,166.6666667,7,2,10,,,,,,,,3,09,,,,,,,,,,,7,1.961,0,,,,,,0.109139532,-0.391728575,1,0,0,1.9607,Peridotite_rect,9,0,9,0,1,
58935d5d4d77be0001689f14,TCR,2024-06-20_15h43.34.072,LearnStrategy,2023.2.3,Win32,166.6666667,7,2,11,,,,,,,,8,13,,,,,,,,,,,8,1.506,1,,,,,,0.4209667,-0.39381207,1,0,0,1.5061,Pumice_rect,10,0,10,0,1,
58935d5d4d77be0001689f14,TCR,2024-06-20_15h43.34.072,LearnStrategy,2023.2.3,Win32,166.6666667,7,2,12,,,,,,,,5,11,,,,,,,,,,,5,1.148,1,,,,,,-0.379088843,-0.400756836,1,0,0,1.1484,Obsidian_rect,11,0,11,0,1,
58935d5d4d77be0001689f14,TCR,2024-06-20_15h43.34.072,LearnStrategy,2023.2.3,Win32,166.6666667,7,2,13,,,,,,,,5,04,,,,,,,,,,,5,0.966,1,,,,,,-0.347142184,-0.408396255,1,0,0,0.9664,Obsidian_rect,12,0,12,0,1,
58935d5d4d77be0001689f14,TCR,2024-06-20_15h43.34.072,LearnStrategy,2023.2.3,Win32,166.6666667,7,2,14,,,,,,,,4,03,,,,,,,,,,,4,3.743,1,,,,,,0.402215432,-0.245190626,1,0,0,3.7427,Gabbro_rect,13,0,13,0,1,
58935d5d4d77be0001689f14,TCR,2024-06-20_15h43.34.072,LearnStrategy,2023.2.3,Win32,166.6666667,7,2,15,,,,,,,,7,05,,,,,,,,,,,1,5.367,0,,,,,,-0.302000181,-0.261163932,1,0,0,5.367,Andesite_rect,14,0,14,0,1,
58935d5d4d77be0001689f14,TCR,2024-06-20_15h43.34.072,LearnStrategy,2023.2.3,Win32,166.6666667,7,2,16,,,,,,,,7,08,,,,,,,,,,,7,1.996,1,,,,,,0.138308182,-0.403534891,1,0,0,1.9961,Peridotite_rect,15,0,15,0,1,
58935d5d4d77be0001689f14,TCR,2024-06-20_15h43.34.072,LearnStrategy,2023.2.3,Win32,166.6666667,8,1,1,0.056358063,-0.015313483,1,0,0,2.2902,rock_grid_rect_2,3,15,-1,-1,2.29,0.134141099,-0.259080483,1,0,0,4.367,Diorite_rect,3,4.367,1,0,0,0,0,1,,,,,,,,,,,,,
58935d5d4d77be0001689f14,TCR,2024-06-20_15h43.34.072,LearnStrategy,2023.2.3,Win32,166.6666667,8,1,2,0.095944002,0.006910215,1,0,0,0.4536,rock_grid_rect_2,1,02,-1,-1,0.454,-0.333252326,-0.237551206,1,0,0,1.0753,Andesite_rect,1,1.075,1,1,0,1,0,1,,,,,,,,,,,,,
58935d5d4d77be0001689f14,TCR,2024-06-20_15h43.34.072,LearnStrategy,2023.2.3,Win32,166.6666667,8,1,3,0.055663596,-0.006979643,1,0,0,0.6774,rock_grid_rect_2,3,06,-1,-1,0.677,0.095249628,-0.388256053,1,0,0,1.0882,Peridotite_rect,7,1.088,0,2,0,2,0,1,,,,,,,,,,,,,
58935d5d4d77be0001689f14,TCR,2024-06-20_15h43.34.072,LearnStrategy,2023.2.3,Win32,166.6666667,8,1,4,0.073720397,0.011771672,1,0,0,0.466,rock_grid_rect_2,7,13,-1,-1,0.466,0.09802759,-0.416730328,1,0,0,0.7914,Peridotite_rect,7,0.791,1,3,0,3,0,1,,,,,,,,,,,,,
58935d5d4d77be0001689f14,TCR,2024-06-20_15h43.34.072,LearnStrategy,2023.2.3,Win32,166.6666667,8,1,5,0.077887294,-0.022258482,1,0,0,0.3866,rock_grid_rect_2,6,10,-1,-1,0.387,-0.122126545,-0.411174311,1,0,0,0.7872,Pegmatite_rect,6,0.787,1,4,0,4,0,1,,,,,,,,,,,,,
58935d5d4d77be0001689f14,TCR,2024-06-20_15h43.34.072,LearnStrategy,2023.2.3,Win32,166.6666667,8,1,6,0.040384757,-0.006285129,1,0,0,0.3624,rock_grid_rect_2,4,14,-1,-1,0.362,-0.145739317,-0.247274074,1,0,0,0.76,Basalt_rect,2,0.76,0,5,0,5,0,1,,,,,,,,,,,,,
58935d5d4d77be0001689f14,TCR,2024-06-20_15h43.34.072,LearnStrategy,2023.2.3,Win32,166.6666667,8,1,7,0.018855434,-0.011146586,1,0,0,0.4417,rock_grid_rect_2,1,07,-1,-1,0.442,-0.351309127,-0.264636408,1,0,0,0.8399,Andesite_rect,1,0.84,1,6,0,6,0,1,,,,,,,,,,,,,
58935d5d4d77be0001689f14,TCR,2024-06-20_15h43.34.072,LearnStrategy,2023.2.3,Win32,166.6666667,8,1,8,0.004965623,-0.016008043,1,0,0,0.4141,rock_grid_rect_2,8,05,-1,-1,0.414,0.390409022,-0.388950613,1,0,0,0.7378,Pumice_rect,8,0.738,1,7,0,7,0,1,,,,,,,,,,,,,
58935d5d4d77be0001689f14,TCR,2024-06-20_15h43.34.072,LearnStrategy,2023.2.3,Win32,166.6666667,8,1,9,0.032050778,0.022883614,1,0,0,0.4655,rock_grid_rect_2,4,05,-1,-1,0.466,0.39110349,-0.236162225,1,0,0,1.3576,Gabbro_rect,4,1.358,1,8,0,8,0,1,,,,,,,,,,,,,
58935d5d4d77be0001689f14,TCR,2024-06-20_15h43.34.072,LearnStrategy,2023.2.3,Win32,166.6666667,8,1,10,0.023022424,-0.004896148,1,0,0,0.3692,rock_grid_rect_2,4,14,-1,-1,0.369,0.368879699,-0.231300768,1,0,0,0.8993,Gabbro_rect,4,0.899,1,9,0,9,0,1,,,,,,,,,,,,,
58935d5d4d77be0001689f14,TCR,2024-06-20_15h43.34.072,LearnStrategy,2023.2.3,Win32,166.6666667,8,1,11,0.077192827,-0.006979643,1,0,0,0.4352,rock_grid_rect_2,7,10,-1,-1,0.435,0.147336629,-0.398673527,1,0,0,0.9854,Peridotite_rect,7,0.985,1,10,0,10,0,1,,,,,,,,,,,,,
58935d5d4d77be0001689f14,TCR,2024-06-20_15h43.34.072,LearnStrategy,2023.2.3,Win32,166.6666667,8,1,12,0.055663596,-0.010452119,1,0,0,0.5865,rock_grid_rect_2,2,04,-1,-1,0.587,-0.106847706,-0.247968588,1,0,0,1.1266,Basalt_rect,2,1.127,1,11,0,11,0,1,,,,,,,,,,,,,
58935d5d4d77be0001689f14,TCR,2024-06-20_15h43.34.072,LearnStrategy,2023.2.3,Win32,166.6666667,8,1,13,-0.007535254,-0.007674063,1,0,0,0.5019,rock_grid_rect_2,2,02,-1,-1,0.502,-0.365198985,-0.25074655,1,0,0,1.2701,Andesite_rect,1,1.27,0,12,0,12,0,1,,,,,,,,,,,,,
58935d5d4d77be0001689f14,TCR,2024-06-20_15h43.34.072,LearnStrategy,2023.2.3,Win32,166.6666667,8,1,14,-0.008229814,-0.001423672,1,0,0,0.6658,rock_grid_rect_2,1,05,-1,-1,0.666,-0.395756662,-0.244496112,1,0,0,0.8717,Andesite_rect,1,0.872,1,13,0,13,0,1,,,,,,,,,,,,,
58935d5d4d77be0001689f14,TCR,2024-06-20_15h43.34.072,LearnStrategy,2023.2.3,Win32,166.6666667,8,1,15,0.058441558,-0.0028127,1,0,0,0.7141,rock_grid_rect_2,7,12,-1,-1,0.714,0.097333123,-0.384089156,1,0,0,1.0944,Peridotite_rect,7,1.094,1,14,0,14,0,1,,,,,,,,,,,,,
58935d5d4d77be0001689f14,TCR,2024-06-20_15h43.34.072,LearnStrategy,2023.2.3,Win32,166.6666667,8,1,16,0.082748751,0.00482672,1,0,0,0.4293,rock_grid_rect_2,6,08,-1,-1,0.429,-0.118654116,-0.416035675,1,0,0,1.0416,Pegmatite_rect,6,1.042,1,15,0,15,0,1,,,,,,,,,,,,,
58935d5d4d77be0001689f14,TCR,2024-06-20_15h43.34.072,LearnStrategy,2023.2.3,Win32,166.6666667,8,2,1,,,,,,,,3,12,,,,,,,,,,,7,2.331,0,,,,,,0.142475172,-0.416730328,1,0,0,2.3311,Peridotite_rect,0,0,0,0,1,
58935d5d4d77be0001689f14,TCR,2024-06-20_15h43.34.072,LearnStrategy,2023.2.3,Win32,166.6666667,8,2,2,,,,,,,,4,15,,,,,,,,,,,4,2.518,1,,,,,,0.336933086,-0.270192332,1,0,0,2.5183,Gabbro_rect,1,0,1,0,1,
58935d5d4d77be0001689f14,TCR,2024-06-20_15h43.34.072,LearnStrategy,2023.2.3,Win32,166.6666667,8,2,3,,,,,,,,3,11,,,,,,,,,,,7,2.983,0,,,,,,0.100111085,-0.416730328,1,0,0,2.9834,Peridotite_rect,2,0,2,0,1,
58935d5d4d77be0001689f14,TCR,2024-06-20_15h43.34.072,LearnStrategy,2023.2.3,Win32,166.6666667,8,2,4,,,,,,,,1,11,,,,,,,,,,,1,1.021,1,,,,,,-0.36311549,-0.247968588,1,0,0,1.0209,Andesite_rect,3,0,3,0,1,
58935d5d4d77be0001689f14,TCR,2024-06-20_15h43.34.072,LearnStrategy,2023.2.3,Win32,166.6666667,8,2,5,,,,,,,,5,08,,,,,,,,,,,5,0.73,1,,,,,,-0.336030288,-0.416730328,1,0,0,0.7303,Obsidian_rect,4,0,4,0,1,
58935d5d4d77be0001689f14,TCR,2024-06-20_15h43.34.072,LearnStrategy,2023.2.3,Win32,166.6666667,8,2,6,,,,,,,,6,12,,,,,,,,,,,6,1.742,1,,,,,,-0.096430325,-0.403534891,1,0,0,1.7424,Pegmatite_rect,5,0,5,0,1,
58935d5d4d77be0001689f14,TCR,2024-06-20_15h43.34.072,LearnStrategy,2023.2.3,Win32,166.6666667,8,2,7,,,,,,,,6,16,,,,,,,,,,,7,1.124,0,,,,,,0.110528467,-0.386867118,1,0,0,1.1241,Peridotite_rect,6,0,6,0,1,
58935d5d4d77be0001689f14,TCR,2024-06-20_15h43.34.072,LearnStrategy,2023.2.3,Win32,166.6666667,8,2,8,,,,,,,,8,04,,,,,,,,,,,8,0.827,1,,,,,,0.372352221,-0.409785376,1,0,0,0.8265,Pumice_rect,7,0,7,0,1,
58935d5d4d77be0001689f14,TCR,2024-06-20_15h43.34.072,LearnStrategy,2023.2.3,Win32,166.6666667,8,2,9,,,,,,,,4,01,,,,,,,,,,,1,1.928,0,,,,,,-0.36311549,-0.247274074,1,0,0,1.9279,Andesite_rect,8,0,8,0,1,
58935d5d4d77be0001689f14,TCR,2024-06-20_15h43.34.072,LearnStrategy,2023.2.3,Win32,166.6666667,8,2,10,,,,,,,,2,12,,,,,,,,,,,4,2.657,0,,,,,,0.409854851,-0.229217273,1,0,0,2.6572,Gabbro_rect,9,0,9,0,1,
58935d5d4d77be0001689f14,TCR,2024-06-20_15h43.34.072,LearnStrategy,2023.2.3,Win32,166.6666667,8,2,11,,,,,,,,7,16,,,,,,,,,,,4,5.681,0,,,,,,0.389019901,-0.245190626,1,0,0,5.6812,Gabbro_rect,10,0,10,0,1,
58935d5d4d77be0001689f14,TCR,2024-06-20_15h43.34.072,LearnStrategy,2023.2.3,Win32,166.6666667,8,2,12,,,,,,,,5,12,,,,,,,,,,,5,1.021,1,,,,,,-0.349920146,-0.402840424,1,0,0,1.0213,Obsidian_rect,11,0,11,0,1,
58935d5d4d77be0001689f14,TCR,2024-06-20_15h43.34.072,LearnStrategy,2023.2.3,Win32,166.6666667,8,2,13,,,,,,,,7,07,,,,,,,,,,,7,1.148,1,,,,,,0.086221274,-0.411174311,1,0,0,1.1483,Peridotite_rect,12,0,12,0,1,
58935d5d4d77be0001689f14,TCR,2024-06-20_15h43.34.072,LearnStrategy,2023.2.3,Win32,166.6666667,8,2,14,,,,,,,,1,06,,,,,,,,,,,1,1.881,1,,,,,,-0.378394329,-0.257691502,1,0,0,1.8814,Andesite_rect,13,0,13,0,1,
58935d5d4d77be0001689f14,TCR,2024-06-20_15h43.34.072,LearnStrategy,2023.2.3,Win32,166.6666667,8,2,15,,,,,,,,2,09,,,,,,,,,,,4,10.22,0,,,,,,0.409160291,-0.253524512,1,0,0,10.2197,Gabbro_rect,14,0,14,0,1,
58935d5d4d77be0001689f14,TCR,2024-06-20_15h43.34.072,LearnStrategy,2023.2.3,Win32,166.6666667,8,2,16,,,,,,,,8,15,,,,,,,,,,,4,3.809,0,,,,,,0.40429874,-0.242412663,1,0,0,3.8088,Gabbro_rect,15,0,15,0,1,
58935d5d4d77be0001689f14,TCR,2024-06-20_15h43.34.072,LearnStrategy,2023.2.3,Win32,166.6666667,9,1,1,-0.042259922,-0.009063091,1,0,0,0.9311,rock_grid_rect_2,4,14,-1,-1,0.931,0.379297173,-0.245885093,1,0,0,1.3492,Gabbro_rect,4,1.349,1,0,0,0,0,1,,,,,,,,,,,,,
58935d5d4d77be0001689f14,TCR,2024-06-20_15h43.34.072,LearnStrategy,2023.2.3,Win32,166.6666667,9,1,2,0.074414864,-0.015313483,1,0,0,0.7445,rock_grid_rect_2,6,11,-1,-1,0.744,-0.151989755,-0.405618386,1,0,0,1.1598,Pegmatite_rect,6,1.16,1,1,0,1,0,1,,,,,,,,,,,,,
58935d5d4d77be0001689f14,TCR,2024-06-20_15h43.34.072,LearnStrategy,2023.2.3,Win32,166.6666667,9,1,3,0.003576595,-0.010452119,1,0,0,0.4963,rock_grid_rect_2,4,11,-1,-1,0.496,0.393186984,-0.249357569,1,0,0,1.288,Gabbro_rect,4,1.288,1,2,0,2,0,1,,,,,,,,,,,,,
58935d5d4d77be0001689f14,TCR,2024-06-20_15h43.34.072,LearnStrategy,2023.2.3,Win32,166.6666667,9,1,4,0.057052531,-0.02434193,1,0,0,0.4235,rock_grid_rect_2,7,10,-1,-1,0.423,0.13136323,-0.408396255,1,0,0,0.9865,Peridotite_rect,7,0.986,1,3,0,3,0,1,,,,,,,,,,,,,
58935d5d4d77be0001689f14,TCR,2024-06-20_15h43.34.072,LearnStrategy,2023.2.3,Win32,166.6666667,9,1,5,0.008438052,-0.014619062,1,0,0,0.435,rock_grid_rect_2,3,08,-1,-1,0.435,0.116084391,-0.256996988,1,0,0,0.9005,Diorite_rect,3,0.9,1,4,0,4,0,1,,,,,,,,,,,,,
58935d5d4d77be0001689f14,TCR,2024-06-20_15h43.34.072,LearnStrategy,2023.2.3,Win32,166.6666667,9,1,6,0.059136026,0.004132253,1,0,0,1.744,rock_grid_rect_2,7,10,-1,-1,1.744,-0.096430325,-0.403534891,1,0,0,1.191,Pegmatite_rect,6,1.191,0,5,0,5,0,1,,,,,,,,,,,,,
58935d5d4d77be0001689f14,TCR,2024-06-20_15h43.34.072,LearnStrategy,2023.2.3,Win32,166.6666667,9,1,7,0.070247875,-0.006979643,1,0,0,0.4903,rock_grid_rect_2,1,05,-1,-1,0.49,-0.347836698,-0.252830045,1,0,0,1.2215,Andesite_rect,1,1.221,1,6,0,6,0,1,,,,,,,,,,,,,
58935d5d4d77be0001689f14,TCR,2024-06-20_15h43.34.072,LearnStrategy,2023.2.3,Win32,166.6666667,9,1,8,-0.007535254,0.006215748,1,0,0,0.4536,rock_grid_rect_2,4,11,-1,-1,0.454,0.359851345,-0.262552913,1,0,0,1.325,Gabbro_rect,4,1.325,1,7,0,7,0,1,,,,,,,,,,,,,
58935d5d4d77be0001689f14,TCR,2024-06-20_15h43.34.072,LearnStrategy,2023.2.3,Win32,166.6666667,9,1,9,-0.014480206,0.004132253,1,0,0,0.3871,rock_grid_rect_2,6,05,-1,-1,0.387,-0.025592055,-0.403534891,1,0,0,1.2726,Pegmatite_rect,6,1.273,1,8,0,8,0,1,,,,,,,,,,,,,
58935d5d4d77be0001689f14,TCR,2024-06-20_15h43.34.072,LearnStrategy,2023.2.3,Win32,166.6666667,9,1,10,0.040384757,-0.005590662,1,0,0,3.1986,rock_grid_rect_2,8,08,-1,-1,3.199,0.367490764,-0.416730328,1,0,0,0.8878,Pumice_rect,8,0.888,1,9,0,9,0,1,,,,,,,,,,,,,
58935d5d4d77be0001689f14,TCR,2024-06-20_15h43.34.072,LearnStrategy,2023.2.3,Win32,166.6666667,9,1,11,0.038301262,-0.008368624,1,0,0,0.5139,rock_grid_rect_2,1,14,-1,-1,0.514,-0.379783356,-0.254913493,1,0,0,1.2237,Andesite_rect,1,1.224,1,10,0,10,0,1,,,,,,,,,,,,,
58935d5d4d77be0001689f14,TCR,2024-06-20_15h43.34.072,LearnStrategy,2023.2.3,Win32,166.6666667,9,1,12,0.011910388,0.006910215,1,0,0,0.5209,rock_grid_rect_2,2,01,-1,-1,0.521,-0.15754568,-0.25074655,1,0,0,2.0443,Basalt_rect,2,2.044,1,11,0,11,0,1,,,,,,,,,,,,,
58935d5d4d77be0001689f14,TCR,2024-06-20_15h43.34.072,LearnStrategy,2023.2.3,Win32,166.6666667,9,1,13,0.032050778,-0.019480519,1,0,0,0.3927,rock_grid_rect_2,7,13,-1,-1,0.393,0.066080978,-0.399367995,1,0,0,1.6277,Peridotite_rect,7,1.628,1,12,0,12,0,1,,,,,,,,,,,,,
58935d5d4d77be0001689f14,TCR,2024-06-20_15h43.34.072,LearnStrategy,2023.2.3,Win32,166.6666667,9,1,14,0.088304582,0.000659777,1,0,0,0.3924,rock_grid_rect_2,2,04,-1,-1,0.392,-0.116570621,-0.231300768,1,0,0,0.9551,Basalt_rect,2,0.955,1,13,0,13,0,1,,,,,,,,,,,,,
58935d5d4d77be0001689f14,TCR,2024-06-20_15h43.34.072,LearnStrategy,2023.2.3,Win32,166.6666667,9,1,15,0.015383004,-0.005590662,1,0,0,0.4774,rock_grid_rect_2,3,15,-1,-1,0.477,0.186922661,-0.243801644,1,0,0,1.224,Diorite_rect,3,1.224,1,14,0,14,0,1,,,,,,,,,,,,,
58935d5d4d77be0001689f14,TCR,2024-06-20_15h43.34.072,LearnStrategy,2023.2.3,Win32,166.6666667,9,1,16,0.092471666,0.024272549,1,0,0,0.4597,rock_grid_rect_2,2,10,-1,-1,0.46,-0.111014696,-0.228522806,1,0,0,1.2583,Basalt_rect,2,1.258,1,15,0,15,0,1,,,,,,,,,,,,,
58935d5d4d77be0001689f14,TCR,2024-06-20_15h43.34.072,LearnStrategy,2023.2.3,Win32,166.6666667,9,2,1,,,,,,,,3,07,,,,,,,,,,,3,3.591,1,,,,,,0.090388171,-0.236162225,1,0,0,3.591,Diorite_rect,0,0,0,0,1,
58935d5d4d77be0001689f14,TCR,2024-06-20_15h43.34.072,LearnStrategy,2023.2.3,Win32,166.6666667,9,2,2,,,,,,,,8,10,,,,,,,,,,,8,0.912,1,,,,,,0.389714555,-0.38964508,1,0,0,0.9121,Pumice_rect,1,0,1,0,1,
58935d5d4d77be0001689f14,TCR,2024-06-20_15h43.34.072,LearnStrategy,2023.2.3,Win32,166.6666667,9,2,3,,,,,,,,1,10,,,,,,,,,,,4,1.342,0,,,,,,0.35012843,-0.270886846,1,0,0,1.3422,Gabbro_rect,2,0,2,0,1,
58935d5d4d77be0001689f14,TCR,2024-06-20_15h43.34.072,LearnStrategy,2023.2.3,Win32,166.6666667,9,2,4,,,,,,,,5,14,,,,,,,,,,,5,0.919,1,,,,,,-0.37631088,-0.3972845,1,0,0,0.9186,Obsidian_rect,3,0,3,0,1,
58935d5d4d77be0001689f14,TCR,2024-06-20_15h43.34.072,LearnStrategy,2023.2.3,Win32,166.6666667,9,2,5,,,,,,,,1,01,,,,,,,,,,,1,2.809,1,,,,,,-0.336724802,-0.243107131,1,0,0,2.8091,Andesite_rect,4,0,4,0,1,
58935d5d4d77be0001689f14,TCR,2024-06-20_15h43.34.072,LearnStrategy,2023.2.3,Win32,166.6666667,9,2,6,,,,,,,,2,11,,,,,,,,,,,4,1.243,0,,,,,,0.371657754,-0.234773244,1,0,0,1.243,Gabbro_rect,5,0,5,0,1,
58935d5d4d77be0001689f14,TCR,2024-06-20_15h43.34.072,LearnStrategy,2023.2.3,Win32,166.6666667,9,2,7,,,,,,,,6,07,,,,,,,,,,,7,3.016,0,,,,,,0.107056037,-0.412563339,1,0,0,3.0155,Peridotite_rect,6,0,6,0,1,
58935d5d4d77be0001689f14,TCR,2024-06-20_15h43.34.072,LearnStrategy,2023.2.3,Win32,166.6666667,9,2,8,,,,,,,,5,16,,,,,,,,,,,5,1.268,1,,,,,,-0.36728248,-0.420897225,1,0,0,1.2678,Obsidian_rect,7,0,7,0,1,
58935d5d4d77be0001689f14,TCR,2024-06-20_15h43.34.072,LearnStrategy,2023.2.3,Win32,166.6666667,9,2,9,,,,,,,,7,04,,,,,,,,,,,1,4.093,0,,,,,,-0.329085383,-0.260469464,1,0,0,4.093,Andesite_rect,8,0,8,0,1,
58935d5d4d77be0001689f14,TCR,2024-06-20_15h43.34.072,LearnStrategy,2023.2.3,Win32,166.6666667,9,2,10,,,,,,,,6,09,,,,,,,,,,,7,2.439,0,,,,,,0.127196333,-0.409785376,1,0,0,2.4393,Peridotite_rect,9,0,9,0,1,
58935d5d4d77be0001689f14,TCR,2024-06-20_15h43.34.072,LearnStrategy,2023.2.3,Win32,166.6666667,9,2,11,,,,,,,,2,06,,,,,,,,,,,2,1.378,1,,,,,,-0.134627422,-0.252135531,1,0,0,1.3775,Basalt_rect,10,0,10,0,1,
58935d5d4d77be0001689f14,TCR,2024-06-20_15h43.34.072,LearnStrategy,2023.2.3,Win32,166.6666667,9,2,12,,,,,,,,3,13,,,,,,,,,,,3,2.724,1,,,,,,0.082054284,-0.233384216,1,0,0,2.7244,Diorite_rect,11,0,11,0,1,
58935d5d4d77be0001689f14,TCR,2024-06-20_15h43.34.072,LearnStrategy,2023.2.3,Win32,166.6666667,9,2,13,,,,,,,,8,09,,,,,,,,,,,8,0.976,1,,,,,,0.395270479,-0.394506538,1,0,0,0.9765,Pumice_rect,12,0,12,0,1,
58935d5d4d77be0001689f14,TCR,2024-06-20_15h43.34.072,LearnStrategy,2023.2.3,Win32,166.6666667,9,2,14,,,,,,,,7,14,,,,,,,,,,,1,1.122,0,,,,,,-0.365893545,-0.252830045,1,0,0,1.1219,Andesite_rect,13,0,13,0,1,
58935d5d4d77be0001689f14,TCR,2024-06-20_15h43.34.072,LearnStrategy,2023.2.3,Win32,166.6666667,9,2,15,,,,,,,,4,08,,,,,,,,,,,4,0.803,1,,,,,,0.298735989,-0.254913493,1,0,0,0.8026,Gabbro_rect,14,0,14,0,1,
58935d5d4d77be0001689f14,TCR,2024-06-20_15h43.34.072,LearnStrategy,2023.2.3,Win32,166.6666667,9,2,16,,,,,,,,4,09,,,,,,,,,,,4,1.228,1,,,,,,0.369574259,-0.238940187,1,0,0,1.2284,Gabbro_rect,15,0,15,0,1,
58935d5d4d77be0001689f14,TCR,2024-06-20_15h43.34.072,LearnStrategy,2023.2.3,Win32,166.6666667,,,,,,,,,,,,,,,,,,,,,,,,,,,,,,,,,,,,,,,,,,,0
58935d5d4d77be0001689f14,TCR,2024-06-20_15h43.34.072,LearnStrategy,2023.2.3,Win32,166.6666667,,,,,,,,,,,,,,,,,,,,,,,,,,,,,,,,,,,,,,,,,,,
58935d5d4d77be0001689f14,TCR,2024-06-20_15h43.34.072,LearnStrategy,2023.2.3,Win32,166.6666667,,,,,,,,,,,8,08,1,1,,,,,,,,,,,,,,,,,,,,,,,,,,,,,
58935d5d4d77be0001689f14,TCR,2024-06-20_15h43.34.072,LearnStrategy,2023.2.3,Win32,166.6666667,,,,,,,,,,,1,05,1,2,,,,,,,,,,,,,,,,,,,,,,,,,,,,,
58935d5d4d77be0001689f14,TCR,2024-06-20_15h43.34.072,LearnStrategy,2023.2.3,Win32,166.6666667,,,,,,,,,,,3,08,1,3,,,,,,,,,,,,,,,,,,,,,,,,,,,,,
58935d5d4d77be0001689f14,TCR,2024-06-20_15h43.34.072,LearnStrategy,2023.2.3,Win32,166.6666667,,,,,,,,,,,2,10,1,4,,,,,,,,,,,,,,,,,,,,,,,,,,,,,
58935d5d4d77be0001689f14,TCR,2024-06-20_15h43.34.072,LearnStrategy,2023.2.3,Win32,166.6666667,,,,,,,,,,,3,02,1,5,,,,,,,,,,,,,,,,,,,,,,,,,,,,,
58935d5d4d77be0001689f14,TCR,2024-06-20_15h43.34.072,LearnStrategy,2023.2.3,Win32,166.6666667,,,,,,,,,,,2,02,1,6,,,,,,,,,,,,,,,,,,,,,,,,,,,,,
58935d5d4d77be0001689f14,TCR,2024-06-20_15h43.34.072,LearnStrategy,2023.2.3,Win32,166.6666667,,,,,,,,,,,4,10,1,7,,,,,,,,,,,,,,,,,,,,,,,,,,,,,
58935d5d4d77be0001689f14,TCR,2024-06-20_15h43.34.072,LearnStrategy,2023.2.3,Win32,166.6666667,,,,,,,,,,,2,04,1,8,,,,,,,,,,,,,,,,,,,,,,,,,,,,,
58935d5d4d77be0001689f14,TCR,2024-06-20_15h43.34.072,LearnStrategy,2023.2.3,Win32,166.6666667,,,,,,,,,,,7,06,2,1,,,,,,,,,,,,,,,,,,,,,,,,,,,,,
58935d5d4d77be0001689f14,TCR,2024-06-20_15h43.34.072,LearnStrategy,2023.2.3,Win32,166.6666667,,,,,,,,,,,8,02,2,2,,,,,,,,,,,,,,,,,,,,,,,,,,,,,
58935d5d4d77be0001689f14,TCR,2024-06-20_15h43.34.072,LearnStrategy,2023.2.3,Win32,166.6666667,,,,,,,,,,,5,02,2,3,,,,,,,,,,,,,,,,,,,,,,,,,,,,,
58935d5d4d77be0001689f14,TCR,2024-06-20_15h43.34.072,LearnStrategy,2023.2.3,Win32,166.6666667,,,,,,,,,,,7,15,2,4,,,,,,,,,,,,,,,,,,,,,,,,,,,,,
58935d5d4d77be0001689f14,TCR,2024-06-20_15h43.34.072,LearnStrategy,2023.2.3,Win32,166.6666667,,,,,,,,,,,6,15,2,5,,,,,,,,,,,,,,,,,,,,,,,,,,,,,
58935d5d4d77be0001689f14,TCR,2024-06-20_15h43.34.072,LearnStrategy,2023.2.3,Win32,166.6666667,,,,,,,,,,,7,10,2,6,,,,,,,,,,,,,,,,,,,,,,,,,,,,,
58935d5d4d77be0001689f14,TCR,2024-06-20_15h43.34.072,LearnStrategy,2023.2.3,Win32,166.6666667,,,,,,,,,,,1,14,2,7,,,,,,,,,,,,,,,,,,,,,,,,,,,,,
58935d5d4d77be0001689f14,TCR,2024-06-20_15h43.34.072,LearnStrategy,2023.2.3,Win32,166.6666667,,,,,,,,,,,2,08,2,8,,,,,,,,,,,,,,,,,,,,,,,,,,,,,
58935d5d4d77be0001689f14,TCR,2024-06-20_15h43.34.072,LearnStrategy,2023.2.3,Win32,166.6666667,,,,,,,,,,,7,13,3,1,,,,,,,,,,,,,,,,,,,,,,,,,,,,,
58935d5d4d77be0001689f14,TCR,2024-06-20_15h43.34.072,LearnStrategy,2023.2.3,Win32,166.6666667,,,,,,,,,,,3,15,3,2,,,,,,,,,,,,,,,,,,,,,,,,,,,,,
58935d5d4d77be0001689f14,TCR,2024-06-20_15h43.34.072,LearnStrategy,2023.2.3,Win32,166.6666667,,,,,,,,,,,6,13,3,3,,,,,,,,,,,,,,,,,,,,,,,,,,,,,
58935d5d4d77be0001689f14,TCR,2024-06-20_15h43.34.072,LearnStrategy,2023.2.3,Win32,166.6666667,,,,,,,,,,,3,10,3,4,,,,,,,,,,,,,,,,,,,,,,,,,,,,,
58935d5d4d77be0001689f14,TCR,2024-06-20_15h43.34.072,LearnStrategy,2023.2.3,Win32,166.6666667,,,,,,,,,,,5,09,3,5,,,,,,,,,,,,,,,,,,,,,,,,,,,,,
58935d5d4d77be0001689f14,TCR,2024-06-20_15h43.34.072,LearnStrategy,2023.2.3,Win32,166.6666667,,,,,,,,,,,4,16,3,6,,,,,,,,,,,,,,,,,,,,,,,,,,,,,
58935d5d4d77be0001689f14,TCR,2024-06-20_15h43.34.072,LearnStrategy,2023.2.3,Win32,166.6666667,,,,,,,,,,,3,06,3,7,,,,,,,,,,,,,,,,,,,,,,,,,,,,,
58935d5d4d77be0001689f14,TCR,2024-06-20_15h43.34.072,LearnStrategy,2023.2.3,Win32,166.6666667,,,,,,,,,,,5,06,3,8,,,,,,,,,,,,,,,,,,,,,,,,,,,,,
58935d5d4d77be0001689f14,TCR,2024-06-20_15h43.34.072,LearnStrategy,2023.2.3,Win32,166.6666667,,,,,,,,,,,8,16,4,1,,,,,,,,,,,,,,,,,,,,,,,,,,,,,
58935d5d4d77be0001689f14,TCR,2024-06-20_15h43.34.072,LearnStrategy,2023.2.3,Win32,166.6666667,,,,,,,,,,,1,04,4,2,,,,,,,,,,,,,,,,,,,,,,,,,,,,,
58935d5d4d77be0001689f14,TCR,2024-06-20_15h43.34.072,LearnStrategy,2023.2.3,Win32,166.6666667,,,,,,,,,,,5,10,4,3,,,,,,,,,,,,,,,,,,,,,,,,,,,,,
58935d5d4d77be0001689f14,TCR,2024-06-20_15h43.34.072,LearnStrategy,2023.2.3,Win32,166.6666667,,,,,,,,,,,1,02,4,4,,,,,,,,,,,,,,,,,,,,,,,,,,,,,
58935d5d4d77be0001689f14,TCR,2024-06-20_15h43.34.072,LearnStrategy,2023.2.3,Win32,166.6666667,,,,,,,,,,,6,11,4,5,,,,,,,,,,,,,,,,,,,,,,,,,,,,,
58935d5d4d77be0001689f14,TCR,2024-06-20_15h43.34.072,LearnStrategy,2023.2.3,Win32,166.6666667,,,,,,,,,,,1,03,4,6,,,,,,,,,,,,,,,,,,,,,,,,,,,,,
58935d5d4d77be0001689f14,TCR,2024-06-20_15h43.34.072,LearnStrategy,2023.2.3,Win32,166.6666667,,,,,,,,,,,6,10,4,7,,,,,,,,,,,,,,,,,,,,,,,,,,,,,
58935d5d4d77be0001689f14,TCR,2024-06-20_15h43.34.072,LearnStrategy,2023.2.3,Win32,166.6666667,,,,,,,,,,,5,05,4,8,,,,,,,,,,,,,,,,,,,,,,,,,,,,,
58935d5d4d77be0001689f14,TCR,2024-06-20_15h43.34.072,LearnStrategy,2023.2.3,Win32,166.6666667,,,,,,,,,,,7,12,5,1,,,,,,,,,,,,,,,,,,,,,,,,,,,,,
58935d5d4d77be0001689f14,TCR,2024-06-20_15h43.34.072,LearnStrategy,2023.2.3,Win32,166.6666667,,,,,,,,,,,4,14,5,2,,,,,,,,,,,,,,,,,,,,,,,,,,,,,
58935d5d4d77be0001689f14,TCR,2024-06-20_15h43.34.072,LearnStrategy,2023.2.3,Win32,166.6666667,,,,,,,,,,,8,06,5,3,,,,,,,,,,,,,,,,,,,,,,,,,,,,,
58935d5d4d77be0001689f14,TCR,2024-06-20_15h43.34.072,LearnStrategy,2023.2.3,Win32,166.6666667,,,,,,,,,,,2,01,5,4,,,,,,,,,,,,,,,,,,,,,,,,,,,,,
58935d5d4d77be0001689f14,TCR,2024-06-20_15h43.34.072,LearnStrategy,2023.2.3,Win32,166.6666667,,,,,,,,,,,7,02,5,5,,,,,,,,,,,,,,,,,,,,,,,,,,,,,
58935d5d4d77be0001689f14,TCR,2024-06-20_15h43.34.072,LearnStrategy,2023.2.3,Win32,166.6666667,,,,,,,,,,,4,11,5,6,,,,,,,,,,,,,,,,,,,,,,,,,,,,,
58935d5d4d77be0001689f14,TCR,2024-06-20_15h43.34.072,LearnStrategy,2023.2.3,Win32,166.6666667,,,,,,,,,,,8,05,5,7,,,,,,,,,,,,,,,,,,,,,,,,,,,,,
58935d5d4d77be0001689f14,TCR,2024-06-20_15h43.34.072,LearnStrategy,2023.2.3,Win32,166.6666667,,,,,,,,,,,6,08,5,8,,,,,,,,,,,,,,,,,,,,,,,,,,,,,
58935d5d4d77be0001689f14,TCR,2024-06-20_15h43.34.072,LearnStrategy,2023.2.3,Win32,166.6666667,,,,,,,,,,,4,12,6,1,,,,,,,,,,,,,,,,,,,,,,,,,,,,,
58935d5d4d77be0001689f14,TCR,2024-06-20_15h43.34.072,LearnStrategy,2023.2.3,Win32,166.6666667,,,,,,,,,,,3,16,6,2,,,,,,,,,,,,,,,,,,,,,,,,,,,,,
58935d5d4d77be0001689f14,TCR,2024-06-20_15h43.34.072,LearnStrategy,2023.2.3,Win32,166.6666667,,,,,,,,,,,4,05,6,3,,,,,,,,,,,,,,,,,,,,,,,,,,,,,
58935d5d4d77be0001689f14,TCR,2024-06-20_15h43.34.072,LearnStrategy,2023.2.3,Win32,166.6666667,,,,,,,,,,,5,07,6,4,,,,,,,,,,,,,,,,,,,,,,,,,,,,,
58935d5d4d77be0001689f14,TCR,2024-06-20_15h43.34.072,LearnStrategy,2023.2.3,Win32,166.6666667,,,,,,,,,,,2,16,6,5,,,,,,,,,,,,,,,,,,,,,,,,,,,,,
58935d5d4d77be0001689f14,TCR,2024-06-20_15h43.34.072,LearnStrategy,2023.2.3,Win32,166.6666667,,,,,,,,,,,6,05,6,6,,,,,,,,,,,,,,,,,,,,,,,,,,,,,
58935d5d4d77be0001689f14,TCR,2024-06-20_15h43.34.072,LearnStrategy,2023.2.3,Win32,166.6666667,,,,,,,,,,,8,03,6,7,,,,,,,,,,,,,,,,,,,,,,,,,,,,,
58935d5d4d77be0001689f14,TCR,2024-06-20_15h43.34.072,LearnStrategy,2023.2.3,Win32,166.6666667,,,,,,,,,,,1,07,6,8,,,,,,,,,,,,,,,,,,,,,,,,,,,,,