participant,condition,date,expName,psychopyVersion,OS,frameRate,block,phase,trial,learn_mouse.x,learn_mouse.y,learn_mouse.leftButton,learn_mouse.midButton,learn_mouse.rightButton,learn_mouse.time,learn_mouse.clicked_name,cat,token,row,col,t_select,cat_rec,token_rec,cat_mouse_l.x,cat_mouse_l.y,cat_mouse_l.leftButton,cat_mouse_l.midButton,cat_mouse_l.rightButton,cat_mouse_l.time,cat_mouse_l.clicked_name,resp,t_resp,corr,train_trials.thisRepN,train_trials.thisTrialN,train_trials.thisN,train_trials.thisIndex,train_trials.ran,cat_mouse_t.x,cat_mouse_t.y,cat_mouse_t.leftButton,cat_mouse_t.midButton,cat_mouse_t.rightButton,cat_mouse_t.time,cat_mouse_t.clicked_name,test_trials.thisRepN,test_trials.thisTrialN,test_trials.thisN,test_trials.thisIndex,test_trials.ran,Bonus
58a229e74d580c0001e0a766,SCR,2024-06-25_12h39.44.681,LearnStrategy,2023.2.3,MacIntel,97.08737864,,,,,,,,,,,,,,,,,,,,,,,,,,,,,,,,,,,,,,,,,,,,,
58a229e74d580c0001e0a766,SCR,2024-06-25_12h39.44.681,LearnStrategy,2023.2.3,MacIntel,97.08737864,1,1,1,-0.082103588,0.090444155,1,0,0,4.2408,Basalt_10,2,10,4,4,4.241,2,10,0.172952836,-0.246524161,1,0,0,45.7649,Diorite_rect,3,45.765,0,0,0,0,0,1,,,,,,,,,,,,,
58a229e74d580c0001e0a766,SCR,2024-06-25_12h39.44.681,LearnStrategy,2023.2.3,MacIntel,97.08737864,1,1,2,-0.056915509,0.440527344,1,0,0,5.2742,Peridotite_08,7,08,6,4,5.274,7,08,-0.352115885,-0.267791522,1,0,0,3.682,Andesite_rect,1,3.682,0,1,0,1,0,1,,,,,,,,,,,,,
58a229e74d580c0001e0a766,SCR,2024-06-25_12h39.44.681,LearnStrategy,2023.2.3,MacIntel,97.08737864,1,1,3,0.283828848,0.24833261,1,0,0,1.2414,Pegmatite_11,6,11,5,6,1.241,6,11,0.174905961,-0.405989583,1,0,0,1.7222,Peridotite_rect,7,1.722,0,2,0,2,0,1,,,,,,,,,,,,,
58a229e74d580c0001e0a766,SCR,2024-06-25_12h39.44.681,LearnStrategy,2023.2.3,MacIntel,97.08737864,1,1,4,0.393634259,-0.093417245,1,0,0,1.107,Gabbro_13,4,13,3,7,1.107,4,13,0.411093027,-0.240219907,1,0,0,3.7883,Gabbro_rect,4,3.788,1,3,0,3,0,1,,,,,,,,,,,,,
58a229e74d580c0001e0a766,SCR,2024-06-25_12h39.44.681,LearnStrategy,2023.2.3,MacIntel,97.08737864,1,1,5,0.518373843,-0.253895399,1,0,0,1.1312,Pegmatite_10,6,10,2,8,1.131,6,10,0.38879485,-0.400719763,1,0,0,2.0059,Pumice_rect,8,2.006,0,4,0,4,0,1,,,,,,,,,,,,,
58a229e74d580c0001e0a766,SCR,2024-06-25_12h39.44.681,LearnStrategy,2023.2.3,MacIntel,97.08737864,1,1,6,0.540780527,0.218438947,1,0,0,0.9323,Pumice_16,8,16,5,8,0.932,8,16,0.471527778,-0.407996962,1,0,0,2.4966,Pumice_rect,8,2.497,1,5,0,5,0,1,,,,,,,,,,,,,
58a229e74d580c0001e0a766,SCR,2024-06-25_12h39.44.681,LearnStrategy,2023.2.3,MacIntel,97.08737864,1,1,7,0.066822193,-0.247229456,1,0,0,0.9574,Diorite_13,3,13,2,5,0.957,3,13,0.066822193,-0.247229456,1,0,0,0.7386,Diorite_rect,3,0.739,1,6,0,6,0,1,,,,,,,,,,,,,
58a229e74d580c0001e0a766,SCR,2024-06-25_12h39.44.681,LearnStrategy,2023.2.3,MacIntel,97.08737864,1,1,8,0.389445891,0.393840422,1,0,0,0.9818,Basalt_06,2,06,6,7,0.982,2,06,-0.16150897,-0.405761719,1,0,0,1.2804,Pegmatite_rect,6,1.28,0,7,0,7,0,1,,,,,,,,,,,,,
58a229e74d580c0001e0a766,SCR,2024-06-25_12h39.44.681,LearnStrategy,2023.2.3,MacIntel,97.08737864,1,1,9,-0.222844329,-0.417585359,1,0,0,1.699,Gabbro_15,4,15,1,3,1.699,4,15,-0.382772714,-0.23308015,1,0,0,2.3883,Andesite_rect,1,2.388,0,8,0,8,0,1,,,,,,,,,,,,,
58a229e74d580c0001e0a766,SCR,2024-06-25_12h39.44.681,LearnStrategy,2023.2.3,MacIntel,97.08737864,1,1,10,-0.522591146,0.382573785,1,0,0,1.2991,Andesite_10,1,10,6,1,1.299,1,10,0.150748698,-0.241438802,1,0,0,2.9965,Diorite_rect,3,2.996,0,9,0,9,0,1,,,,,,,,,,,,,
58a229e74d580c0001e0a766,SCR,2024-06-25_12h39.44.681,LearnStrategy,2023.2.3,MacIntel,97.08737864,1,1,11,0.211610243,-0.267957899,1,0,0,1.5979,Andesite_01,1,01,2,6,1.598,1,01,0.38614728,-0.401761429,1,0,0,39.0544,Pumice_rect,8,39.054,0,10,0,10,0,1,,,,,,,,,,,,,
58a229e74d580c0001e0a766,SCR,2024-06-25_12h39.44.681,LearnStrategy,2023.2.3,MacIntel,97.08737864,1,1,12,0.254394531,-0.10375434,1,0,0,1.0404,Pumice_06,8,06,3,6,1.04,8,06,0.397833478,-0.403349248,1,0,0,2.3304,Pumice_rect,8,2.33,1,11,0,11,0,1,,,,,,,,,,,,,
58a229e74d580c0001e0a766,SCR,2024-06-25_12h39.44.681,LearnStrategy,2023.2.3,MacIntel,97.08737864,1,1,13,0.058242911,-0.410080295,1,0,0,0.9071,Obsidian_14,5,14,1,5,0.907,5,14,-0.066145833,-0.236425781,1,0,0,1.6382,Basalt_rect,2,1.638,0,12,0,12,0,1,,,,,,,,,,,,,
58a229e74d580c0001e0a766,SCR,2024-06-25_12h39.44.681,LearnStrategy,2023.2.3,MacIntel,97.08737864,1,1,14,-0.368417245,-0.239847367,1,0,0,1.0407,Peridotite_02,7,02,2,2,1.041,7,02,-0.205302373,-0.419925492,1,0,0,2.1972,Pegmatite_rect,6,2.197,0,13,0,13,0,1,,,,,,,,,,,,,
58a229e74d580c0001e0a766,SCR,2024-06-25_12h39.44.681,LearnStrategy,2023.2.3,MacIntel,97.08737864,1,1,15,-0.186834491,-0.095717593,1,0,0,0.7491,Obsidian_16,5,16,3,3,0.749,5,16,0.086523437,-0.383897569,1,0,0,3.1639,Peridotite_rect,7,3.164,0,14,0,14,0,1,,,,,,,,,,,,,
58a229e74d580c0001e0a766,SCR,2024-06-25_12h39.44.681,LearnStrategy,2023.2.3,MacIntel,97.08737864,1,1,16,0.557114439,-0.414630353,1,0,0,0.9158,Diorite_02,3,02,1,8,0.916,3,02,-0.377025463,-0.249450231,1,0,0,1.3554,Andesite_rect,1,1.355,0,15,0,15,0,1,,,,,,,,,,,,,
58a229e74d580c0001e0a766,SCR,2024-06-25_12h39.44.681,LearnStrategy,2023.2.3,MacIntel,97.08737864,1,2,1,,,,,,,,6,15,,,,,,,,,,,,,1,2.511,0,,,,,,-0.353038194,-0.23879485,1,0,0,2.5107,Andesite_rect,0,0,0,0,1,
58a229e74d580c0001e0a766,SCR,2024-06-25_12h39.44.681,LearnStrategy,2023.2.3,MacIntel,97.08737864,1,2,2,,,,,,,,7,14,,,,,,,,,,,,,4,0.945,0,,,,,,0.425459346,-0.245113571,1,0,0,0.9445,Gabbro_rect,1,0,1,0,1,
58a229e74d580c0001e0a766,SCR,2024-06-25_12h39.44.681,LearnStrategy,2023.2.3,MacIntel,97.08737864,1,2,3,,,,,,,,2,11,,,,,,,,,,,,,6,1.153,0,,,,,,-0.162720631,-0.408445457,1,0,0,1.1529,Pegmatite_rect,2,0,2,0,1,
58a229e74d580c0001e0a766,SCR,2024-06-25_12h39.44.681,LearnStrategy,2023.2.3,MacIntel,97.08737864,1,2,4,,,,,,,,1,05,,,,,,,,,,,,,2,1.279,0,,,,,,-0.148321759,-0.262890625,1,0,0,1.279,Basalt_rect,3,0,3,0,1,
58a229e74d580c0001e0a766,SCR,2024-06-25_12h39.44.681,LearnStrategy,2023.2.3,MacIntel,97.08737864,1,2,5,,,,,,,,1,06,,,,,,,,,,,,,3,0.597,0,,,,,,0.075217014,-0.245533131,1,0,0,0.5974,Diorite_rect,4,0,4,0,1,
58a229e74d580c0001e0a766,SCR,2024-06-25_12h39.44.681,LearnStrategy,2023.2.3,MacIntel,97.08737864,1,2,6,,,,,,,,8,05,,,,,,,,,,,,,8,1.163,1,,,,,,0.455902778,-0.388664641,1,0,0,1.1633,Pumice_rect,5,0,5,0,1,
58a229e74d580c0001e0a766,SCR,2024-06-25_12h39.44.681,LearnStrategy,2023.2.3,MacIntel,97.08737864,1,2,7,,,,,,,,2,08,,,,,,,,,,,,,5,0.939,0,,,,,,-0.341847512,-0.378436053,1,0,0,0.9385,Obsidian_rect,6,0,6,0,1,
58a229e74d580c0001e0a766,SCR,2024-06-25_12h39.44.681,LearnStrategy,2023.2.3,MacIntel,97.08737864,1,2,8,,,,,,,,3,11,,,,,,,,,,,,,1,1.182,0,,,,,,-0.345269097,-0.247887731,1,0,0,1.1817,Andesite_rect,7,0,7,0,1,
58a229e74d580c0001e0a766,SCR,2024-06-25_12h39.44.681,LearnStrategy,2023.2.3,MacIntel,97.08737864,1,2,9,,,,,,,,5,02,,,,,,,,,,,,,4,5.981,0,,,,,,0.409226707,-0.266413484,1,0,0,5.9807,Gabbro_rect,8,0,8,0,1,
58a229e74d580c0001e0a766,SCR,2024-06-25_12h39.44.681,LearnStrategy,2023.2.3,MacIntel,97.08737864,1,2,10,,,,,,,,7,06,,,,,,,,,,,,,5,1.938,0,,,,,,-0.439702691,-0.390545428,1,0,0,1.9382,Obsidian_rect,9,0,9,0,1,
58a229e74d580c0001e0a766,SCR,2024-06-25_12h39.44.681,LearnStrategy,2023.2.3,MacIntel,97.08737864,1,2,11,,,,,,,,4,12,,,,,,,,,,,,,1,0.806,0,,,,,,-0.417075376,-0.241880064,1,0,0,0.8059,Andesite_rect,10,0,10,0,1,
58a229e74d580c0001e0a766,SCR,2024-06-25_12h39.44.681,LearnStrategy,2023.2.3,MacIntel,97.08737864,1,2,12,,,,,,,,8,09,,,,,,,,,,,,,8,1.164,1,,,,,,0.311197917,-0.408890336,1,0,0,1.164,Pumice_rect,11,0,11,0,1,
58a229e74d580c0001e0a766,SCR,2024-06-25_12h39.44.681,LearnStrategy,2023.2.3,MacIntel,97.08737864,1,2,13,,,,,,,,6,06,,,,,,,,,,,,,2,1.474,0,,,,,,-0.0760489,-0.250954861,1,0,0,1.4738,Basalt_rect,12,0,12,0,1,
58a229e74d580c0001e0a766,SCR,2024-06-25_12h39.44.681,LearnStrategy,2023.2.3,MacIntel,97.08737864,1,2,14,,,,,,,,4,16,,,,,,,,,,,,,6,1.189,0,,,,,,-0.096997975,-0.388516348,1,0,0,1.1892,Pegmatite_rect,13,0,13,0,1,
58a229e74d580c0001e0a766,SCR,2024-06-25_12h39.44.681,LearnStrategy,2023.2.3,MacIntel,97.08737864,1,2,15,,,,,,,,3,08,,,,,,,,,,,,,3,0.598,1,,,,,,0.133532263,-0.240096933,1,0,0,0.5976,Diorite_rect,14,0,14,0,1,
58a229e74d580c0001e0a766,SCR,2024-06-25_12h39.44.681,LearnStrategy,2023.2.3,MacIntel,97.08737864,1,2,16,,,,,,,,5,06,,,,,,,,,,,,,1,1.38,0,,,,,,-0.4184932,-0.243153212,1,0,0,1.3803,Andesite_rect,15,0,15,0,1,
58a229e74d580c0001e0a766,SCR,2024-06-25_12h39.44.681,LearnStrategy,2023.2.3,MacIntel,97.08737864,2,1,1,0.558980758,-0.115035446,1,0,0,1.0278,Andesite_14,1,14,3,8,1.028,1,14,0.434975405,-0.230920862,1,0,0,2.1555,Gabbro_rect,4,2.156,0,0,0,0,0,1,,,,,,,,,,,,,
58a229e74d580c0001e0a766,SCR,2024-06-25_12h39.44.681,LearnStrategy,2023.2.3,MacIntel,97.08737864,2,1,2,0.371137153,-0.279568142,1,0,0,0.849,Andesite_11,1,11,2,7,0.849,1,11,-0.44734158,-0.236621094,1,0,0,1.6209,Andesite_rect,1,1.621,1,1,0,1,0,1,,,,,,,,,,,,,
58a229e74d580c0001e0a766,SCR,2024-06-25_12h39.44.681,LearnStrategy,2023.2.3,MacIntel,97.08737864,2,1,3,-0.095619936,-0.417259838,1,0,0,1.5824,Gabbro_11,4,11,1,4,1.582,4,11,-0.109921152,-0.261516204,1,0,0,2.9223,Basalt_rect,2,2.922,0,2,0,2,0,1,,,,,,,,,,,,,
58a229e74d580c0001e0a766,SCR,2024-06-25_12h39.44.681,LearnStrategy,2023.2.3,MacIntel,97.08737864,2,1,4,0.230219184,-0.3919307,1,0,0,1.3645,Peridotite_15,7,15,1,6,1.365,7,15,0.192513021,-0.262973814,1,0,0,1.8474,Diorite_rect,3,1.847,0,3,0,3,0,1,,,,,,,,,,,,,
58a229e74d580c0001e0a766,SCR,2024-06-25_12h39.44.681,LearnStrategy,2023.2.3,MacIntel,97.08737864,2,1,5,0.251417824,0.237717014,1,0,0,1.7076,Pegmatite_11,6,11,5,6,1.708,6,11,-0.135962818,-0.231893808,1,0,0,1.0292,Basalt_rect,2,1.029,0,4,0,4,0,1,,,,,,,,,,,,,
58a229e74d580c0001e0a766,SCR,2024-06-25_12h39.44.681,LearnStrategy,2023.2.3,MacIntel,97.08737864,2,1,6,-0.51942636,0.214662905,1,0,0,1.1577,Obsidian_07,5,07,5,1,1.158,5,07,0.386400463,-0.255696615,1,0,0,2.0222,Gabbro_rect,4,2.022,0,5,0,5,0,1,,,,,,,,,,,,,
58a229e74d580c0001e0a766,SCR,2024-06-25_12h39.44.681,LearnStrategy,2023.2.3,MacIntel,97.08737864,2,1,7,-0.073419416,-0.111277488,1,0,0,1.3487,Pegmatite_07,6,07,3,4,1.349,6,07,-0.35952691,-0.249045139,1,0,0,2.339,Andesite_rect,1,2.339,0,6,0,6,0,1,,,,,,,,,,,,,
58a229e74d580c0001e0a766,SCR,2024-06-25_12h39.44.681,LearnStrategy,2023.2.3,MacIntel,97.08737864,2,1,8,-0.19942853,0.357577402,1,0,0,1.2987,Peridotite_12,7,12,6,3,1.299,7,12,-0.134903067,-0.397692419,1,0,0,2.2819,Pegmatite_rect,6,2.282,0,7,0,7,0,1,,,,,,,,,,,,,
58a229e74d580c0001e0a766,SCR,2024-06-25_12h39.44.681,LearnStrategy,2023.2.3,MacIntel,97.08737864,2,1,9,0.406405527,-0.422356047,1,0,0,2.3744,Diorite_09,3,09,1,7,2.374,3,09,-0.380385561,-0.237839988,1,0,0,1.1804,Andesite_rect,1,1.18,0,8,0,8,0,1,,,,,,,,,,,,,
58a229e74d580c0001e0a766,SCR,2024-06-25_12h39.44.681,LearnStrategy,2023.2.3,MacIntel,97.08737864,2,1,10,-0.345591001,0.233221209,1,0,0,0.8746,Andesite_09,1,09,5,2,0.875,1,09,-0.353367332,-0.236049624,1,0,0,2.0635,Andesite_rect,1,2.064,1,9,0,9,0,1,,,,,,,,,,,,,
58a229e74d580c0001e0a766,SCR,2024-06-25_12h39.44.681,LearnStrategy,2023.2.3,MacIntel,97.08737864,2,1,11,-0.207277199,0.234494358,1,0,0,2.074,Gabbro_10,4,10,5,3,2.074,4,10,-0.149916811,-0.271195023,1,0,0,2.4705,Basalt_rect,2,2.47,0,10,0,10,0,1,,,,,,,,,,,,,
58a229e74d580c0001e0a766,SCR,2024-06-25_12h39.44.681,LearnStrategy,2023.2.3,MacIntel,97.08737864,2,1,12,0.060514323,0.235228588,1,0,0,0.8239,Gabbro_01,4,01,5,5,0.824,4,01,0.122905816,-0.400694444,1,0,0,2.1471,Peridotite_rect,7,2.147,0,11,0,11,0,1,,,,,,,,,,,,,
58a229e74d580c0001e0a766,SCR,2024-06-25_12h39.44.681,LearnStrategy,2023.2.3,MacIntel,97.08737864,2,1,13,0.197515191,0.369455295,1,0,0,1.7907,Basalt_12,2,12,6,6,1.791,2,12,-0.401815683,-0.248028791,1,0,0,1.5136,Andesite_rect,1,1.514,0,12,0,12,0,1,,,,,,,,,,,,,
58a229e74d580c0001e0a766,SCR,2024-06-25_12h39.44.681,LearnStrategy,2023.2.3,MacIntel,97.08737864,2,1,14,-0.405772569,-0.086794705,1,0,0,28.2328,Basalt_05,2,05,3,2,28.233,2,05,-0.137528935,-0.26349103,1,0,0,2.7485,Basalt_rect,2,2.748,1,13,0,13,0,1,,,,,,,,,,,,,
58a229e74d580c0001e0a766,SCR,2024-06-25_12h39.44.681,LearnStrategy,2023.2.3,MacIntel,97.08737864,2,1,15,0.242176649,0.103038194,1,0,0,0.7752,Basalt_16,2,16,4,6,0.775,2,16,0.37197989,-0.407403791,1,0,0,1.6634,Pumice_rect,8,1.663,0,14,0,14,0,1,,,,,,,,,,,,,
58a229e74d580c0001e0a766,SCR,2024-06-25_12h39.44.681,LearnStrategy,2023.2.3,MacIntel,97.08737864,2,1,16,-0.532830584,-0.09535952,1,0,0,1.0824,Obsidian_11,5,11,3,1,1.082,5,11,0.382027633,-0.245442708,1,0,0,1.2973,Gabbro_rect,4,1.297,0,15,0,15,0,1,,,,,,,,,,,,,
58a229e74d580c0001e0a766,SCR,2024-06-25_12h39.44.681,LearnStrategy,2023.2.3,MacIntel,97.08737864,2,2,1,,,,,,,,5,05,,,,,,,,,,,,,5,1.805,1,,,,,,-0.371943721,-0.385923032,1,0,0,1.8047,Obsidian_rect,0,0,0,0,1,
58a229e74d580c0001e0a766,SCR,2024-06-25_12h39.44.681,LearnStrategy,2023.2.3,MacIntel,97.08737864,2,2,2,,,,,,,,3,06,,,,,,,,,,,,,2,3.323,0,,,,,,-0.110387731,-0.251475694,1,0,0,3.3228,Basalt_rect,1,0,1,0,1,
58a229e74d580c0001e0a766,SCR,2024-06-25_12h39.44.681,LearnStrategy,2023.2.3,MacIntel,97.08737864,2,2,3,,,,,,,,7,13,,,,,,,,,,,,,2,1.722,0,,,,,,-0.074826389,-0.257219329,1,0,0,1.7224,Basalt_rect,2,0,2,0,1,
58a229e74d580c0001e0a766,SCR,2024-06-25_12h39.44.681,LearnStrategy,2023.2.3,MacIntel,97.08737864,2,2,4,,,,,,,,8,13,,,,,,,,,,,,,8,1.128,1,,,,,,0.337626591,-0.417220052,1,0,0,1.128,Pumice_rect,3,0,3,0,1,
58a229e74d580c0001e0a766,SCR,2024-06-25_12h39.44.681,LearnStrategy,2023.2.3,MacIntel,97.08737864,2,2,5,,,,,,,,3,16,,,,,,,,,,,,,1,1.854,0,,,,,,-0.359266493,-0.23874783,1,0,0,1.8541,Andesite_rect,4,0,4,0,1,
58a229e74d580c0001e0a766,SCR,2024-06-25_12h39.44.681,LearnStrategy,2023.2.3,MacIntel,97.08737864,2,2,6,,,,,,,,7,04,,,,,,,,,,,,,1,1.152,0,,,,,,-0.354137731,-0.238190828,1,0,0,1.1522,Andesite_rect,5,0,5,0,1,
58a229e74d580c0001e0a766,SCR,2024-06-25_12h39.44.681,LearnStrategy,2023.2.3,MacIntel,97.08737864,2,2,7,,,,,,,,2,04,,,,,,,,,,,,,2,1.02,1,,,,,,-0.201240596,-0.248386863,1,0,0,1.0202,Basalt_rect,6,0,6,0,1,
58a229e74d580c0001e0a766,SCR,2024-06-25_12h39.44.681,LearnStrategy,2023.2.3,MacIntel,97.08737864,2,2,8,,,,,,,,1,04,,,,,,,,,,,,,1,2.614,1,,,,,,-0.331857639,-0.262594039,1,0,0,2.6137,Andesite_rect,7,0,7,0,1,
58a229e74d580c0001e0a766,SCR,2024-06-25_12h39.44.681,LearnStrategy,2023.2.3,MacIntel,97.08737864,2,2,9,,,,,,,,1,02,,,,,,,,,,,,,7,2.086,0,,,,,,0.112735098,-0.411816406,1,0,0,2.0864,Peridotite_rect,8,0,8,0,1,
58a229e74d580c0001e0a766,SCR,2024-06-25_12h39.44.681,LearnStrategy,2023.2.3,MacIntel,97.08737864,2,2,10,,,,,,,,6,05,,,,,,,,,,,,,3,1.654,0,,,,,,0.183054832,-0.253598814,1,0,0,1.6537,Diorite_rect,9,0,9,0,1,
58a229e74d580c0001e0a766,SCR,2024-06-25_12h39.44.681,LearnStrategy,2023.2.3,MacIntel,97.08737864,2,2,11,,,,,,,,4,05,,,,,,,,,,,,,4,2.332,1,,,,,,0.417115162,-0.246043113,1,0,0,2.3317,Gabbro_rect,10,0,10,0,1,
58a229e74d580c0001e0a766,SCR,2024-06-25_12h39.44.681,LearnStrategy,2023.2.3,MacIntel,97.08737864,2,2,12,,,,,,,,5,10,,,,,,,,,,,,,5,1.518,1,,,,,,-0.402003762,-0.403226273,1,0,0,1.5181,Obsidian_rect,11,0,11,0,1,
58a229e74d580c0001e0a766,SCR,2024-06-25_12h39.44.681,LearnStrategy,2023.2.3,MacIntel,97.08737864,2,2,13,,,,,,,,2,01,,,,,,,,,,,,,2,1.208,1,,,,,,-0.195052083,-0.262178096,1,0,0,1.2084,Basalt_rect,12,0,12,0,1,
58a229e74d580c0001e0a766,SCR,2024-06-25_12h39.44.681,LearnStrategy,2023.2.3,MacIntel,97.08737864,2,2,14,,,,,,,,6,08,,,,,,,,,,,,,6,1.878,1,,,,,,-0.152492043,-0.393760851,1,0,0,1.8776,Pegmatite_rect,13,0,13,0,1,
58a229e74d580c0001e0a766,SCR,2024-06-25_12h39.44.681,LearnStrategy,2023.2.3,MacIntel,97.08737864,2,2,15,,,,,,,,8,03,,,,,,,,,,,,,8,1.956,1,,,,,,0.404926215,-0.403866464,1,0,0,1.9555,Pumice_rect,14,0,14,0,1,
58a229e74d580c0001e0a766,SCR,2024-06-25_12h39.44.681,LearnStrategy,2023.2.3,MacIntel,97.08737864,2,2,16,,,,,,,,4,14,,,,,,,,,,,,,3,2.622,0,,,,,,0.132056568,-0.237785735,1,0,0,2.6217,Diorite_rect,15,0,15,0,1,
58a229e74d580c0001e0a766,SCR,2024-06-25_12h39.44.681,LearnStrategy,2023.2.3,MacIntel,97.08737864,3,1,1,-0.339460359,0.085626447,1,0,0,1.4241,Andesite_03,1,03,4,2,1.424,1,03,-0.384628183,-0.230805122,1,0,0,1.63,Andesite_rect,1,1.63,1,0,0,0,0,1,,,,,,,,,,,,,
58a229e74d580c0001e0a766,SCR,2024-06-25_12h39.44.681,LearnStrategy,2023.2.3,MacIntel,97.08737864,3,1,2,-0.356376591,0.054531973,1,0,0,0.8911,Andesite_03,1,03,4,2,0.891,1,03,-0.33958695,-0.249971065,1,0,0,1.0303,Andesite_rect,1,1.03,1,1,0,1,0,1,,,,,,,,,,,,,
58a229e74d580c0001e0a766,SCR,2024-06-25_12h39.44.681,LearnStrategy,2023.2.3,MacIntel,97.08737864,3,1,3,0.064543547,0.385449219,1,0,0,1.7662,Basalt_02,2,02,6,5,1.766,2,02,-0.114199942,-0.246006944,1,0,0,2.5802,Basalt_rect,2,2.58,1,2,0,2,0,1,,,,,,,,,,,,,
58a229e74d580c0001e0a766,SCR,2024-06-25_12h39.44.681,LearnStrategy,2023.2.3,MacIntel,97.08737864,3,1,4,-0.243153212,-0.430949797,1,0,0,1.3817,Gabbro_15,4,15,1,3,1.382,4,15,0.065190972,-0.413534433,1,0,0,1.7063,Peridotite_rect,7,1.706,0,3,0,3,0,1,,,,,,,,,,,,,
58a229e74d580c0001e0a766,SCR,2024-06-25_12h39.44.681,LearnStrategy,2023.2.3,MacIntel,97.08737864,3,1,5,0.2520761,0.248448351,1,0,0,3.2534,Pegmatite_11,6,11,5,6,3.253,6,11,0.383347801,-0.248361545,1,0,0,1.0762,Gabbro_rect,4,1.076,0,4,0,4,0,1,,,,,,,,,,,,,
58a229e74d580c0001e0a766,SCR,2024-06-25_12h39.44.681,LearnStrategy,2023.2.3,MacIntel,97.08737864,3,1,6,-0.510434751,0.091008391,1,0,0,1.0491,Pegmatite_12,6,12,4,1,1.049,6,12,-0.411729601,-0.242227286,1,0,0,1.6806,Andesite_rect,1,1.681,0,5,0,5,0,1,,,,,,,,,,,,,
58a229e74d580c0001e0a766,SCR,2024-06-25_12h39.44.681,LearnStrategy,2023.2.3,MacIntel,97.08737864,3,1,7,0.207873987,-0.393420862,1,0,0,0.9158,Peridotite_15,7,15,1,6,0.916,7,15,-0.100687211,-0.403747106,1,0,0,2.1727,Pegmatite_rect,6,2.173,0,6,0,6,0,1,,,,,,,,,,,,,
58a229e74d580c0001e0a766,SCR,2024-06-25_12h39.44.681,LearnStrategy,2023.2.3,MacIntel,97.08737864,3,1,8,-0.543153212,-0.231734664,1,0,0,0.8572,Diorite_12,3,12,2,1,0.857,3,12,0.122627315,-0.237481916,1,0,0,3.28,Diorite_rect,3,3.28,1,7,0,7,0,1,,,,,,,,,,,,,
58a229e74d580c0001e0a766,SCR,2024-06-25_12h39.44.681,LearnStrategy,2023.2.3,MacIntel,97.08737864,3,1,9,0.498831742,0.092263455,1,0,0,0.841,Peridotite_10,7,10,4,8,0.841,7,10,-0.071148003,-0.241247106,1,0,0,1.2557,Basalt_rect,2,1.256,0,8,0,8,0,1,,,,,,,,,,,,,
58a229e74d580c0001e0a766,SCR,2024-06-25_12h39.44.681,LearnStrategy,2023.2.3,MacIntel,97.08737864,3,1,10,-0.356235532,-0.080204716,1,0,0,2.4524,Basalt_05,2,05,3,2,2.452,2,05,-0.107732928,-0.228613281,1,0,0,0.93,Basalt_rect,2,0.93,1,9,0,9,0,1,,,,,,,,,,,,,
58a229e74d580c0001e0a766,SCR,2024-06-25_12h39.44.681,LearnStrategy,2023.2.3,MacIntel,97.08737864,3,1,11,-0.061700666,-0.238906973,1,0,0,0.7741,Obsidian_12,5,12,2,4,0.774,5,12,-0.347941985,-0.400455729,1,0,0,1.3883,Obsidian_rect,5,1.388,1,10,0,10,0,1,,,,,,,,,,,,,
58a229e74d580c0001e0a766,SCR,2024-06-25_12h39.44.681,LearnStrategy,2023.2.3,MacIntel,97.08737864,3,1,12,0.372974537,-0.456832321,1,0,0,1.1327,Diorite_09,3,09,1,7,1.133,3,09,-0.346205874,-0.251671007,1,0,0,2.6888,Andesite_rect,1,2.689,0,11,0,11,0,1,,,,,,,,,,,,,
58a229e74d580c0001e0a766,SCR,2024-06-25_12h39.44.681,LearnStrategy,2023.2.3,MacIntel,97.08737864,3,1,13,-0.21312934,0.23473669,1,0,0,13.8323,Gabbro_10,4,10,5,3,13.832,4,10,-0.06583478,-0.391619647,1,0,0,2.3253,Pegmatite_rect,6,2.325,0,12,0,12,0,1,,,,,,,,,,,,,
58a229e74d580c0001e0a766,SCR,2024-06-25_12h39.44.681,LearnStrategy,2023.2.3,MacIntel,97.08737864,3,1,14,-0.369350405,-0.274573206,1,0,0,1.0153,Peridotite_02,7,02,2,2,1.015,7,02,0.088664641,-0.235514323,1,0,0,1.305,Diorite_rect,3,1.305,0,13,0,13,0,1,,,,,,,,,,,,,
58a229e74d580c0001e0a766,SCR,2024-06-25_12h39.44.681,LearnStrategy,2023.2.3,MacIntel,97.08737864,3,1,15,0.519954427,-0.091388166,1,0,0,0.8918,Andesite_14,1,14,3,8,0.892,1,14,-0.357125289,-0.247898582,1,0,0,1.3885,Andesite_rect,1,1.389,1,14,0,14,0,1,,,,,,,,,,,,,
58a229e74d580c0001e0a766,SCR,2024-06-25_12h39.44.681,LearnStrategy,2023.2.3,MacIntel,97.08737864,3,1,16,-0.41000434,-0.439731626,1,0,0,1.3992,Diorite_15,3,15,1,2,1.399,3,15,-0.407277199,-0.232678675,1,0,0,4.255,Andesite_rect,1,4.255,0,15,0,15,0,1,,,,,,,,,,,,,
58a229e74d580c0001e0a766,SCR,2024-06-25_12h39.44.681,LearnStrategy,2023.2.3,MacIntel,97.08737864,3,2,1,,,,,,,,4,08,,,,,,,,,,,,,4,1.914,1,,,,,,0.340010127,-0.234277344,1,0,0,1.9141,Gabbro_rect,0,0,0,0,1,
58a229e74d580c0001e0a766,SCR,2024-06-25_12h39.44.681,LearnStrategy,2023.2.3,MacIntel,97.08737864,3,2,2,,,,,,,,3,14,,,,,,,,,,,,,1,2.441,0,,,,,,-0.372750289,-0.23874783,1,0,0,2.4414,Andesite_rect,1,0,1,0,1,
58a229e74d580c0001e0a766,SCR,2024-06-25_12h39.44.681,LearnStrategy,2023.2.3,MacIntel,97.08737864,3,2,3,,,,,,,,8,08,,,,,,,,,,,,,8,2.163,1,,,,,,0.303967737,-0.395753762,1,0,0,2.163,Pumice_rect,2,0,2,0,1,
58a229e74d580c0001e0a766,SCR,2024-06-25_12h39.44.681,LearnStrategy,2023.2.3,MacIntel,97.08737864,3,2,4,,,,,,,,6,09,,,,,,,,,,,,,7,1.747,0,,,,,,0.114058883,-0.388527199,1,0,0,1.747,Peridotite_rect,3,0,3,0,1,
58a229e74d580c0001e0a766,SCR,2024-06-25_12h39.44.681,LearnStrategy,2023.2.3,MacIntel,97.08737864,3,2,5,,,,,,,,8,14,,,,,,,,,,,,,8,1.367,1,,,,,,0.365820313,-0.384534144,1,0,0,1.367,Pumice_rect,4,0,4,0,1,
58a229e74d580c0001e0a766,SCR,2024-06-25_12h39.44.681,LearnStrategy,2023.2.3,MacIntel,97.08737864,3,2,6,,,,,,,,1,07,,,,,,,,,,,,,3,1.616,0,,,,,,0.1747432,-0.238755064,1,0,0,1.6164,Diorite_rect,5,0,5,0,1,
58a229e74d580c0001e0a766,SCR,2024-06-25_12h39.44.681,LearnStrategy,2023.2.3,MacIntel,97.08737864,3,2,7,,,,,,,,3,10,,,,,,,,,,,,,3,0.75,1,,,,,,0.1747432,-0.238755064,1,0,0,0.7505,Diorite_rect,6,0,6,0,1,
58a229e74d580c0001e0a766,SCR,2024-06-25_12h39.44.681,LearnStrategy,2023.2.3,MacIntel,97.08737864,3,2,8,,,,,,,,1,16,,,,,,,,,,,,,1,1.403,1,,,,,,-0.352918837,-0.252734375,1,0,0,1.4034,Andesite_rect,7,0,7,0,1,
58a229e74d580c0001e0a766,SCR,2024-06-25_12h39.44.681,LearnStrategy,2023.2.3,MacIntel,97.08737864,3,2,9,,,,,,,,7,05,,,,,,,,,,,,,6,1.907,0,,,,,,-0.165932436,-0.394534867,1,0,0,1.9074,Pegmatite_rect,8,0,8,0,1,
58a229e74d580c0001e0a766,SCR,2024-06-25_12h39.44.681,LearnStrategy,2023.2.3,MacIntel,97.08737864,3,2,10,,,,,,,,5,09,,,,,,,,,,,,,5,0.844,1,,,,,,-0.418836806,-0.383966291,1,0,0,0.8436,Obsidian_rect,9,0,9,0,1,
58a229e74d580c0001e0a766,SCR,2024-06-25_12h39.44.681,LearnStrategy,2023.2.3,MacIntel,97.08737864,3,2,11,,,,,,,,6,03,,,,,,,,,,,,,4,1.866,0,,,,,,0.35901331,-0.240491175,1,0,0,1.866,Gabbro_rect,10,0,10,0,1,
58a229e74d580c0001e0a766,SCR,2024-06-25_12h39.44.681,LearnStrategy,2023.2.3,MacIntel,97.08737864,3,2,12,,,,,,,,5,08,,,,,,,,,,,,,5,1.372,1,,,,,,-0.368373843,-0.397334346,1,0,0,1.3722,Obsidian_rect,11,0,11,0,1,
58a229e74d580c0001e0a766,SCR,2024-06-25_12h39.44.681,LearnStrategy,2023.2.3,MacIntel,97.08737864,3,2,13,,,,,,,,4,09,,,,,,,,,,,,,3,4.275,0,,,,,,0.085011574,-0.251710793,1,0,0,4.2747,Diorite_rect,12,0,12,0,1,
58a229e74d580c0001e0a766,SCR,2024-06-25_12h39.44.681,LearnStrategy,2023.2.3,MacIntel,97.08737864,3,2,14,,,,,,,,2,14,,,,,,,,,,,,,8,2.222,0,,,,,,0.440722656,-0.387630208,1,0,0,2.2221,Pumice_rect,13,0,13,0,1,
58a229e74d580c0001e0a766,SCR,2024-06-25_12h39.44.681,LearnStrategy,2023.2.3,MacIntel,97.08737864,3,2,15,,,,,,,,2,09,,,,,,,,,,,,,2,1.188,1,,,,,,-0.087008102,-0.254962384,1,0,0,1.1883,Basalt_rect,14,0,14,0,1,
58a229e74d580c0001e0a766,SCR,2024-06-25_12h39.44.681,LearnStrategy,2023.2.3,MacIntel,97.08737864,3,2,16,,,,,,,,7,16,,,,,,,,,,,,,7,1.293,1,,,,,,0.11312934,-0.392104311,1,0,0,1.2926,Peridotite_rect,15,0,15,0,1,
58a229e74d580c0001e0a766,SCR,2024-06-25_12h39.44.681,LearnStrategy,2023.2.3,MacIntel,97.08737864,4,1,1,-0.38203125,-0.396473524,1,0,0,1.3499,Diorite_15,3,15,1,2,1.35,3,15,-0.374526186,-0.245811632,1,0,0,2.7635,Andesite_rect,1,2.764,0,0,0,0,0,1,,,,,,,,,,,,,
58a229e74d580c0001e0a766,SCR,2024-06-25_12h39.44.681,LearnStrategy,2023.2.3,MacIntel,97.08737864,4,1,2,-0.339138455,0.212565104,1,0,0,1.0322,Andesite_09,1,09,5,2,1.032,1,09,-0.383883102,-0.250401476,1,0,0,1.7805,Andesite_rect,1,1.781,1,1,0,1,0,1,,,,,,,,,,,,,
58a229e74d580c0001e0a766,SCR,2024-06-25_12h39.44.681,LearnStrategy,2023.2.3,MacIntel,97.08737864,4,1,3,-0.391456887,-0.412228733,1,0,0,0.9241,Diorite_15,3,15,1,2,0.924,3,15,0.14370298,-0.241829427,1,0,0,1.2642,Diorite_rect,3,1.264,1,2,0,2,0,1,,,,,,,,,,,,,
58a229e74d580c0001e0a766,SCR,2024-06-25_12h39.44.681,LearnStrategy,2023.2.3,MacIntel,97.08737864,4,1,4,0.437261285,-0.089189091,1,0,0,0.7742,Gabbro_13,4,13,3,7,0.774,4,13,0.142928964,-0.388892506,1,0,0,2.3221,Peridotite_rect,7,2.322,0,3,0,3,0,1,,,,,,,,,,,,,
58a229e74d580c0001e0a766,SCR,2024-06-25_12h39.44.681,LearnStrategy,2023.2.3,MacIntel,97.08737864,4,1,5,0.528512008,0.079380064,1,0,0,1.291,Peridotite_10,7,10,4,8,1.291,7,10,0.216409867,-0.2458261,1,0,0,1.4795,Diorite_rect,3,1.48,0,4,0,4,0,1,,,,,,,,,,,,,
58a229e74d580c0001e0a766,SCR,2024-06-25_12h39.44.681,LearnStrategy,2023.2.3,MacIntel,97.08737864,4,1,6,0.22781033,0.386744068,1,0,0,1.0233,Basalt_12,2,12,6,6,1.023,2,12,-0.361689815,-0.232732928,1,0,0,1.6564,Andesite_rect,1,1.656,0,5,0,5,0,1,,,,,,,,,,,,,
58a229e74d580c0001e0a766,SCR,2024-06-25_12h39.44.681,LearnStrategy,2023.2.3,MacIntel,97.08737864,4,1,7,-0.213606771,-0.126059751,1,0,0,0.6907,Obsidian_16,5,16,3,3,0.691,5,16,-0.345728443,-0.391587095,1,0,0,0.905,Obsidian_rect,5,0.905,1,6,0,6,0,1,,,,,,,,,,,,,
58a229e74d580c0001e0a766,SCR,2024-06-25_12h39.44.681,LearnStrategy,2023.2.3,MacIntel,97.08737864,4,1,8,0.553996672,-0.104090712,1,0,0,0.9617,Andesite_14,1,14,3,8,0.962,1,14,-0.3856807,-0.260141782,1,0,0,2.5379,Andesite_rect,1,2.538,1,7,0,7,0,1,,,,,,,,,,,,,
58a229e74d580c0001e0a766,SCR,2024-06-25_12h39.44.681,LearnStrategy,2023.2.3,MacIntel,97.08737864,4,1,9,-0.057978877,0.254506655,1,0,0,0.749,Gabbro_03,4,03,5,4,0.749,4,03,0.126797598,-0.24905599,1,0,0,3.7386,Diorite_rect,3,3.739,0,8,0,8,0,1,,,,,,,,,,,,,
58a229e74d580c0001e0a766,SCR,2024-06-25_12h39.44.681,LearnStrategy,2023.2.3,MacIntel,97.08737864,4,1,10,-0.055714699,0.130237269,1,0,0,0.6575,Basalt_10,2,10,4,4,0.658,2,10,-0.116203704,-0.251121238,1,0,0,1.1056,Basalt_rect,2,1.106,1,9,0,9,0,1,,,,,,,,,,,,,
58a229e74d580c0001e0a766,SCR,2024-06-25_12h39.44.681,LearnStrategy,2023.2.3,MacIntel,97.08737864,4,1,11,-0.5434932,0.079387297,1,0,0,1.3003,Pegmatite_12,6,12,4,1,1.3,6,12,-0.116048177,-0.409407552,1,0,0,1.2551,Pegmatite_rect,6,1.255,1,10,0,10,0,1,,,,,,,,,,,,,
58a229e74d580c0001e0a766,SCR,2024-06-25_12h39.44.681,LearnStrategy,2023.2.3,MacIntel,97.08737864,4,1,12,0.351822917,-0.425716146,1,0,0,2.0409,Diorite_09,3,09,1,7,2.041,3,09,0.15462963,-0.24702691,1,0,0,1.8375,Diorite_rect,3,1.837,1,11,0,11,0,1,,,,,,,,,,,,,
58a229e74d580c0001e0a766,SCR,2024-06-25_12h39.44.681,LearnStrategy,2023.2.3,MacIntel,97.08737864,4,1,13,-0.204257089,0.059740307,1,0,0,1.024,Pegmatite_16,6,16,4,3,1.024,6,16,-0.125947627,-0.392733652,1,0,0,1.3298,Pegmatite_rect,6,1.33,1,12,0,12,0,1,,,,,,,,,,,,,
58a229e74d580c0001e0a766,SCR,2024-06-25_12h39.44.681,LearnStrategy,2023.2.3,MacIntel,97.08737864,4,1,14,-0.06589265,-0.092954282,1,0,0,1.0659,Pegmatite_07,6,07,3,4,1.066,6,07,-0.088997396,-0.401117622,1,0,0,1.4471,Pegmatite_rect,6,1.447,1,13,0,13,0,1,,,,,,,,,,,,,
58a229e74d580c0001e0a766,SCR,2024-06-25_12h39.44.681,LearnStrategy,2023.2.3,MacIntel,97.08737864,4,1,15,-0.397724971,-0.230320457,1,0,0,0.9074,Peridotite_02,7,02,2,2,0.907,7,02,0.078316696,-0.399048756,1,0,0,2.1886,Peridotite_rect,7,2.189,1,14,0,14,0,1,,,,,,,,,,,,,
58a229e74d580c0001e0a766,SCR,2024-06-25_12h39.44.681,LearnStrategy,2023.2.3,MacIntel,97.08737864,4,1,16,-0.061686198,0.410210503,1,0,0,2.0986,Peridotite_08,7,08,6,4,2.099,7,08,-0.128718171,-0.256376591,1,0,0,1.1814,Basalt_rect,2,1.181,0,15,0,15,0,1,,,,,,,,,,,,,
58a229e74d580c0001e0a766,SCR,2024-06-25_12h39.44.681,LearnStrategy,2023.2.3,MacIntel,97.08737864,4,2,1,,,,,,,,4,12,,,,,,,,,,,,,7,2.615,0,,,,,,0.08494647,-0.38208912,1,0,0,2.6145,Peridotite_rect,0,0,0,0,1,
58a229e74d580c0001e0a766,SCR,2024-06-25_12h39.44.681,LearnStrategy,2023.2.3,MacIntel,97.08737864,4,2,2,,,,,,,,1,07,,,,,,,,,,,,,3,2.59,0,,,,,,0.222529659,-0.240946904,1,0,0,2.5895,Diorite_rect,1,0,1,0,1,
58a229e74d580c0001e0a766,SCR,2024-06-25_12h39.44.681,LearnStrategy,2023.2.3,MacIntel,97.08737864,4,2,3,,,,,,,,7,16,,,,,,,,,,,,,7,1.208,1,,,,,,0.166026476,-0.379658565,1,0,0,1.2076,Peridotite_rect,2,0,2,0,1,
58a229e74d580c0001e0a766,SCR,2024-06-25_12h39.44.681,LearnStrategy,2023.2.3,MacIntel,97.08737864,4,2,4,,,,,,,,8,05,,,,,,,,,,,,,8,0.997,1,,,,,,0.374833623,-0.415979456,1,0,0,0.9967,Pumice_rect,3,0,3,0,1,
58a229e74d580c0001e0a766,SCR,2024-06-25_12h39.44.681,LearnStrategy,2023.2.3,MacIntel,97.08737864,4,2,5,,,,,,,,2,11,,,,,,,,,,,,,2,1.597,1,,,,,,-0.126692708,-0.258695023,1,0,0,1.5966,Basalt_rect,4,0,4,0,1,
58a229e74d580c0001e0a766,SCR,2024-06-25_12h39.44.681,LearnStrategy,2023.2.3,MacIntel,97.08737864,4,2,6,,,,,,,,4,05,,,,,,,,,,,,,7,1.569,0,,,,,,0.147949219,-0.419816985,1,0,0,1.5689,Peridotite_rect,5,0,5,0,1,
58a229e74d580c0001e0a766,SCR,2024-06-25_12h39.44.681,LearnStrategy,2023.2.3,MacIntel,97.08737864,4,2,7,,,,,,,,2,04,,,,,,,,,,,,,2,1.208,1,,,,,,-0.091688368,-0.25390625,1,0,0,1.2079,Basalt_rect,6,0,6,0,1,
58a229e74d580c0001e0a766,SCR,2024-06-25_12h39.44.681,LearnStrategy,2023.2.3,MacIntel,97.08737864,4,2,8,,,,,,,,5,10,,,,,,,,,,,,,5,1.009,1,,,,,,-0.358318866,-0.398054109,1,0,0,1.0088,Obsidian_rect,7,0,7,0,1,
58a229e74d580c0001e0a766,SCR,2024-06-25_12h39.44.681,LearnStrategy,2023.2.3,MacIntel,97.08737864,4,2,9,,,,,,,,5,02,,,,,,,,,,,,,5,0.967,1,,,,,,-0.358318866,-0.398054109,1,0,0,0.9669,Obsidian_rect,8,0,8,0,1,
58a229e74d580c0001e0a766,SCR,2024-06-25_12h39.44.681,LearnStrategy,2023.2.3,MacIntel,97.08737864,4,2,10,,,,,,,,7,04,,,,,,,,,,,,,3,2.687,0,,,,,,0.194976128,-0.250712529,1,0,0,2.6872,Diorite_rect,9,0,9,0,1,
58a229e74d580c0001e0a766,SCR,2024-06-25_12h39.44.681,LearnStrategy,2023.2.3,MacIntel,97.08737864,4,2,11,,,,,,,,8,03,,,,,,,,,,,,,8,7.922,1,,,,,,0.40160952,-0.395392072,1,0,0,7.9223,Pumice_rect,10,0,10,0,1,
58a229e74d580c0001e0a766,SCR,2024-06-25_12h39.44.681,LearnStrategy,2023.2.3,MacIntel,97.08737864,4,2,12,,,,,,,,1,16,,,,,,,,,,,,,4,1.832,0,,,,,,0.376566117,-0.245301649,1,0,0,1.8325,Gabbro_rect,11,0,11,0,1,
58a229e74d580c0001e0a766,SCR,2024-06-25_12h39.44.681,LearnStrategy,2023.2.3,MacIntel,97.08737864,4,2,13,,,,,,,,6,09,,,,,,,,,,,,,7,2.118,0,,,,,,0.134805411,-0.401978443,1,0,0,2.1175,Peridotite_rect,12,0,12,0,1,
58a229e74d580c0001e0a766,SCR,2024-06-25_12h39.44.681,LearnStrategy,2023.2.3,MacIntel,97.08737864,4,2,14,,,,,,,,3,10,,,,,,,,,,,,,2,1.509,0,,,,,,-0.039199942,-0.262887008,1,0,0,1.5087,Basalt_rect,13,0,13,0,1,
58a229e74d580c0001e0a766,SCR,2024-06-25_12h39.44.681,LearnStrategy,2023.2.3,MacIntel,97.08737864,4,2,15,,,,,,,,3,06,,,,,,,,,,,,,3,1.684,1,,,,,,0.110546875,-0.26714048,1,0,0,1.6835,Diorite_rect,14,0,14,0,1,
58a229e74d580c0001e0a766,SCR,2024-06-25_12h39.44.681,LearnStrategy,2023.2.3,MacIntel,97.08737864,4,2,16,,,,,,,,6,15,,,,,,,,,,,,,6,1.801,1,,,,,,-0.115332031,-0.408246528,1,0,0,1.8009,Pegmatite_rect,15,0,15,0,1,
58a229e74d580c0001e0a766,SCR,2024-06-25_12h39.44.681,LearnStrategy,2023.2.3,MacIntel,97.08737864,5,1,1,0.4234375,-0.076623987,1,0,0,1.2198,Gabbro_13,4,13,3,7,1.22,4,13,0.145786314,-0.385326244,1,0,0,2.839,Peridotite_rect,7,2.839,0,0,0,0,0,1,,,,,,,,,,,,,
58a229e74d580c0001e0a766,SCR,2024-06-25_12h39.44.681,LearnStrategy,2023.2.3,MacIntel,97.08737864,5,1,2,-0.127958623,-0.426161024,1,0,0,1.0577,Gabbro_11,4,11,1,4,1.058,4,11,-0.153913484,-0.264322917,1,0,0,1.2052,Basalt_rect,2,1.205,0,1,0,1,0,1,,,,,,,,,,,,,
58a229e74d580c0001e0a766,SCR,2024-06-25_12h39.44.681,LearnStrategy,2023.2.3,MacIntel,97.08737864,5,1,3,0.535619213,-0.122945602,1,0,0,0.7906,Andesite_14,1,14,3,8,0.791,1,14,-0.383839699,-0.252788628,1,0,0,4.7385,Andesite_rect,1,4.739,1,2,0,2,0,1,,,,,,,,,,,,,
58a229e74d580c0001e0a766,SCR,2024-06-25_12h39.44.681,LearnStrategy,2023.2.3,MacIntel,97.08737864,5,1,4,-0.209208623,0.382790799,1,0,0,1.7659,Peridotite_12,7,12,6,3,1.766,7,12,0.209110966,-0.265574363,1,0,0,7.1147,Diorite_rect,3,7.115,0,3,0,3,0,1,,,,,,,,,,,,,
58a229e74d580c0001e0a766,SCR,2024-06-25_12h39.44.681,LearnStrategy,2023.2.3,MacIntel,97.08737864,5,1,5,0.384378617,0.244983362,1,0,0,1.7237,Pegmatite_13,6,13,5,7,1.724,6,13,-0.066048177,-0.406770833,1,0,0,1.1053,Pegmatite_rect,6,1.105,1,4,0,4,0,1,,,,,,,,,,,,,
58a229e74d580c0001e0a766,SCR,2024-06-25_12h39.44.681,LearnStrategy,2023.2.3,MacIntel,97.08737864,5,1,6,0.566087963,-0.229759838,1,0,0,0.874,Pegmatite_10,6,10,2,8,0.874,6,10,0.168308738,-0.391561777,1,0,0,0.9393,Peridotite_rect,7,0.939,0,5,0,5,0,1,,,,,,,,,,,,,
58a229e74d580c0001e0a766,SCR,2024-06-25_12h39.44.681,LearnStrategy,2023.2.3,MacIntel,97.08737864,5,1,7,0.382566551,0.061310041,1,0,0,0.8241,Peridotite_07,7,07,4,7,0.824,7,07,0.169458912,-0.243200231,1,0,0,1.022,Diorite_rect,3,1.022,0,6,0,6,0,1,,,,,,,,,,,,,
58a229e74d580c0001e0a766,SCR,2024-06-25_12h39.44.681,LearnStrategy,2023.2.3,MacIntel,97.08737864,5,1,8,0.091431568,0.365946904,1,0,0,1.0494,Basalt_02,2,02,6,5,1.049,2,02,-0.08870081,-0.23186849,1,0,0,1.6065,Basalt_rect,2,1.606,1,7,0,7,0,1,,,,,,,,,,,,,
58a229e74d580c0001e0a766,SCR,2024-06-25_12h39.44.681,LearnStrategy,2023.2.3,MacIntel,97.08737864,5,1,9,-0.386599392,0.205750868,1,0,0,1.0995,Andesite_09,1,09,5,2,1.1,1,09,-0.351584201,-0.260376881,1,0,0,1.3967,Andesite_rect,1,1.397,1,8,0,8,0,1,,,,,,,,,,,,,
58a229e74d580c0001e0a766,SCR,2024-06-25_12h39.44.681,LearnStrategy,2023.2.3,MacIntel,97.08737864,5,1,10,0.523835359,-0.434248409,1,0,0,1.0658,Diorite_02,3,02,1,8,1.066,3,02,0.186396846,-0.250437645,1,0,0,1.8721,Diorite_rect,3,1.872,1,9,0,9,0,1,,,,,,,,,,,,,
58a229e74d580c0001e0a766,SCR,2024-06-25_12h39.44.681,LearnStrategy,2023.2.3,MacIntel,97.08737864,5,1,11,-0.533264612,0.394878472,1,0,0,1.1074,Andesite_10,1,10,6,1,1.107,1,10,0.445468027,-0.259114583,1,0,0,2.5797,Gabbro_rect,4,2.58,0,10,0,10,0,1,,,,,,,,,,,,,
58a229e74d580c0001e0a766,SCR,2024-06-25_12h39.44.681,LearnStrategy,2023.2.3,MacIntel,97.08737864,5,1,12,-0.373517072,-0.24510272,1,0,0,1.1078,Peridotite_02,7,02,2,2,1.108,7,02,0.18234592,-0.403938802,1,0,0,1.4469,Peridotite_rect,7,1.447,1,11,0,11,0,1,,,,,,,,,,,,,
58a229e74d580c0001e0a766,SCR,2024-06-25_12h39.44.681,LearnStrategy,2023.2.3,MacIntel,97.08737864,5,1,13,-0.55641276,-0.068051939,1,0,0,1.8405,Obsidian_11,5,11,3,1,1.841,5,11,-0.376066985,-0.394372106,1,0,0,2.4638,Obsidian_rect,5,2.464,1,12,0,12,0,1,,,,,,,,,,,,,
58a229e74d580c0001e0a766,SCR,2024-06-25_12h39.44.681,LearnStrategy,2023.2.3,MacIntel,97.08737864,5,1,14,0.44214048,-0.116225405,1,0,0,0.8239,Gabbro_13,4,13,3,7,0.824,4,13,0.136114728,-0.268066406,1,0,0,3.1638,Diorite_rect,3,3.164,0,13,0,13,0,1,,,,,,,,,,,,,
58a229e74d580c0001e0a766,SCR,2024-06-25_12h39.44.681,LearnStrategy,2023.2.3,MacIntel,97.08737864,5,1,15,0.415237992,0.205747251,1,0,0,1.0488,Pegmatite_13,6,13,5,7,1.049,6,13,0.181615307,-0.411425781,1,0,0,1.0308,Peridotite_rect,7,1.031,0,14,0,14,0,1,,,,,,,,,,,,,
58a229e74d580c0001e0a766,SCR,2024-06-25_12h39.44.681,LearnStrategy,2023.2.3,MacIntel,97.08737864,5,1,16,-0.522008825,-0.264171007,1,0,0,0.8489,Diorite_12,3,12,2,1,0.849,3,12,0.14780816,-0.231470631,1,0,0,3.1805,Diorite_rect,3,3.18,1,15,0,15,0,1,,,,,,,,,,,,,
58a229e74d580c0001e0a766,SCR,2024-06-25_12h39.44.681,LearnStrategy,2023.2.3,MacIntel,97.08737864,5,2,1,,,,,,,,2,08,,,,,,,,,,,,,2,1.281,1,,,,,,-0.159660735,-0.242762587,1,0,0,1.281,Basalt_rect,0,0,0,0,1,
58a229e74d580c0001e0a766,SCR,2024-06-25_12h39.44.681,LearnStrategy,2023.2.3,MacIntel,97.08737864,5,2,2,,,,,,,,1,02,,,,,,,,,,,,,1,1.433,1,,,,,,-0.327741609,-0.258984375,1,0,0,1.433,Andesite_rect,1,0,1,0,1,
58a229e74d580c0001e0a766,SCR,2024-06-25_12h39.44.681,LearnStrategy,2023.2.3,MacIntel,97.08737864,5,2,3,,,,,,,,7,06,,,,,,,,,,,,,7,1.21,1,,,,,,0.112264902,-0.392766204,1,0,0,1.2098,Peridotite_rect,2,0,2,0,1,
58a229e74d580c0001e0a766,SCR,2024-06-25_12h39.44.681,LearnStrategy,2023.2.3,MacIntel,97.08737864,5,2,4,,,,,,,,7,14,,,,,,,,,,,,,3,1.886,0,,,,,,0.109241175,-0.25791739,1,0,0,1.8859,Diorite_rect,3,0,3,0,1,
58a229e74d580c0001e0a766,SCR,2024-06-25_12h39.44.681,LearnStrategy,2023.2.3,MacIntel,97.08737864,5,2,5,,,,,,,,6,05,,,,,,,,,,,,,7,2.524,0,,,,,,0.12489511,-0.412839988,1,0,0,2.5244,Peridotite_rect,4,0,4,0,1,
58a229e74d580c0001e0a766,SCR,2024-06-25_12h39.44.681,LearnStrategy,2023.2.3,MacIntel,97.08737864,5,2,6,,,,,,,,3,14,,,,,,,,,,,,,1,2.187,0,,,,,,-0.375651042,-0.26410952,1,0,0,2.1872,Andesite_rect,5,0,5,0,1,
58a229e74d580c0001e0a766,SCR,2024-06-25_12h39.44.681,LearnStrategy,2023.2.3,MacIntel,97.08737864,5,2,7,,,,,,,,8,14,,,,,,,,,,,,,8,1.276,1,,,,,,0.425481047,-0.382226562,1,0,0,1.2758,Pumice_rect,6,0,6,0,1,
58a229e74d580c0001e0a766,SCR,2024-06-25_12h39.44.681,LearnStrategy,2023.2.3,MacIntel,97.08737864,5,2,8,,,,,,,,5,05,,,,,,,,,,,,,5,1.851,1,,,,,,-0.398781105,-0.410431134,1,0,0,1.8509,Obsidian_rect,7,0,7,0,1,
58a229e74d580c0001e0a766,SCR,2024-06-25_12h39.44.681,LearnStrategy,2023.2.3,MacIntel,97.08737864,5,2,9,,,,,,,,3,16,,,,,,,,,,,,,6,2.242,0,,,,,,-0.119549334,-0.385644531,1,0,0,2.2419,Pegmatite_rect,8,0,8,0,1,
58a229e74d580c0001e0a766,SCR,2024-06-25_12h39.44.681,LearnStrategy,2023.2.3,MacIntel,97.08737864,5,2,10,,,,,,,,4,09,,,,,,,,,,,,,2,1.283,0,,,,,,-0.131854022,-0.238111256,1,0,0,1.2828,Basalt_rect,9,0,9,0,1,
58a229e74d580c0001e0a766,SCR,2024-06-25_12h39.44.681,LearnStrategy,2023.2.3,MacIntel,97.08737864,5,2,11,,,,,,,,8,08,,,,,,,,,,,,,2,1.383,0,,,,,,-0.037724248,-0.254966001,1,0,0,1.3825,Basalt_rect,10,0,10,0,1,
58a229e74d580c0001e0a766,SCR,2024-06-25_12h39.44.681,LearnStrategy,2023.2.3,MacIntel,97.08737864,5,2,12,,,,,,,,2,14,,,,,,,,,,,,,2,2.017,1,,,,,,-0.102473958,-0.249352575,1,0,0,2.0173,Basalt_rect,11,0,11,0,1,
58a229e74d580c0001e0a766,SCR,2024-06-25_12h39.44.681,LearnStrategy,2023.2.3,MacIntel,97.08737864,5,2,13,,,,,,,,4,14,,,,,,,,,,,,,2,0.775,0,,,,,,-0.102473958,-0.249352575,1,0,0,0.7747,Basalt_rect,12,0,12,0,1,
58a229e74d580c0001e0a766,SCR,2024-06-25_12h39.44.681,LearnStrategy,2023.2.3,MacIntel,97.08737864,5,2,14,,,,,,,,5,08,,,,,,,,,,,,,5,1.005,1,,,,,,-0.432255498,-0.417766204,1,0,0,1.0055,Obsidian_rect,13,0,13,0,1,
58a229e74d580c0001e0a766,SCR,2024-06-25_12h39.44.681,LearnStrategy,2023.2.3,MacIntel,97.08737864,5,2,15,,,,,,,,6,08,,,,,,,,,,,,,7,1.266,0,,,,,,0.093894676,-0.392635995,1,0,0,1.2665,Peridotite_rect,14,0,14,0,1,
58a229e74d580c0001e0a766,SCR,2024-06-25_12h39.44.681,LearnStrategy,2023.2.3,MacIntel,97.08737864,5,2,16,,,,,,,,1,05,,,,,,,,,,,,,3,0.891,0,,,,,,0.149023437,-0.25598235,1,0,0,0.8908,Diorite_rect,15,0,15,0,1,
58a229e74d580c0001e0a766,SCR,2024-06-25_12h39.44.681,LearnStrategy,2023.2.3,MacIntel,97.08737864,6,1,1,0.38942419,0.267368345,1,0,0,1.2242,Pegmatite_13,6,13,5,7,1.224,6,13,0.155269821,-0.411324508,1,0,0,1.1135,Peridotite_rect,7,1.114,0,0,0,0,0,1,,,,,,,,,,,,,
58a229e74d580c0001e0a766,SCR,2024-06-25_12h39.44.681,LearnStrategy,2023.2.3,MacIntel,97.08737864,6,1,2,-0.060564959,-0.256333189,1,0,0,1.1749,Obsidian_12,5,12,2,4,1.175,5,12,-0.411903212,-0.395865885,1,0,0,0.7972,Obsidian_rect,5,0.797,1,1,0,1,0,1,,,,,,,,,,,,,
58a229e74d580c0001e0a766,SCR,2024-06-25_12h39.44.681,LearnStrategy,2023.2.3,MacIntel,97.08737864,6,1,3,0.244864005,0.254908131,1,0,0,1.307,Pegmatite_11,6,11,5,6,1.307,6,11,-0.063046152,-0.410040509,1,0,0,3.098,Pegmatite_rect,6,3.098,1,2,0,2,0,1,,,,,,,,,,,,,
58a229e74d580c0001e0a766,SCR,2024-06-25_12h39.44.681,LearnStrategy,2023.2.3,MacIntel,97.08737864,6,1,4,0.222175203,-0.299164497,1,0,0,0.8244,Andesite_01,1,01,2,6,0.824,1,01,-0.380700231,-0.256365741,1,0,0,2.3138,Andesite_rect,1,2.314,1,3,0,3,0,1,,,,,,,,,,,,,
58a229e74d580c0001e0a766,SCR,2024-06-25_12h39.44.681,LearnStrategy,2023.2.3,MacIntel,97.08737864,6,1,5,0.055121528,0.079806858,1,0,0,1.2574,Pumice_15,8,15,4,5,1.257,8,15,-0.072272859,-0.257758247,1,0,0,4.7297,Basalt_rect,2,4.73,0,4,0,4,0,1,,,,,,,,,,,,,
58a229e74d580c0001e0a766,SCR,2024-06-25_12h39.44.681,LearnStrategy,2023.2.3,MacIntel,97.08737864,6,1,6,0.225177228,0.382931858,1,0,0,1.066,Basalt_12,2,12,6,6,1.066,2,12,-0.392335793,-0.233018663,1,0,0,0.9973,Andesite_rect,1,0.997,0,5,0,5,0,1,,,,,,,,,,,,,
58a229e74d580c0001e0a766,SCR,2024-06-25_12h39.44.681,LearnStrategy,2023.2.3,MacIntel,97.08737864,6,1,7,-0.072500723,-0.461436632,1,0,0,1.3089,Gabbro_11,4,11,1,4,1.309,4,11,-0.095905671,-0.269328704,1,0,0,1.2966,Basalt_rect,2,1.297,0,6,0,6,0,1,,,,,,,,,,,,,
58a229e74d580c0001e0a766,SCR,2024-06-25_12h39.44.681,LearnStrategy,2023.2.3,MacIntel,97.08737864,6,1,8,-0.36391059,0.074515336,1,0,0,1.0499,Andesite_03,1,03,4,2,1.05,1,03,0.329723669,-0.232877604,1,0,0,1.2301,Gabbro_rect,4,1.23,0,7,0,7,0,1,,,,,,,,,,,,,
58a229e74d580c0001e0a766,SCR,2024-06-25_12h39.44.681,LearnStrategy,2023.2.3,MacIntel,97.08737864,6,1,9,0.043504051,0.220750145,1,0,0,1.2407,Gabbro_01,4,01,5,5,1.241,4,01,0.095782697,-0.402350984,1,0,0,3.1551,Peridotite_rect,7,3.155,0,8,0,8,0,1,,,,,,,,,,,,,
58a229e74d580c0001e0a766,SCR,2024-06-25_12h39.44.681,LearnStrategy,2023.2.3,MacIntel,97.08737864,6,1,10,-0.237514468,0.235069444,1,0,0,0.7816,Gabbro_10,4,10,5,3,0.782,4,10,0.356438079,-0.263682726,1,0,0,1.3897,Gabbro_rect,4,1.39,1,9,0,9,0,1,,,,,,,,,,,,,
58a229e74d580c0001e0a766,SCR,2024-06-25_12h39.44.681,LearnStrategy,2023.2.3,MacIntel,97.08737864,6,1,11,-0.251218895,0.078273293,1,0,0,0.6912,Pegmatite_16,6,16,4,3,0.691,6,16,0.151754196,-0.418898293,1,0,0,0.93,Peridotite_rect,7,0.93,0,10,0,10,0,1,,,,,,,,,,,,,
58a229e74d580c0001e0a766,SCR,2024-06-25_12h39.44.681,LearnStrategy,2023.2.3,MacIntel,97.08737864,6,1,12,-0.386751302,-0.444346788,1,0,0,1.0419,Diorite_15,3,15,1,2,1.042,3,15,-0.396155237,-0.258622685,1,0,0,1.5881,Andesite_rect,1,1.588,0,11,0,11,0,1,,,,,,,,,,,,,
58a229e74d580c0001e0a766,SCR,2024-06-25_12h39.44.681,LearnStrategy,2023.2.3,MacIntel,97.08737864,6,1,13,-0.371643519,-0.26916956,1,0,0,0.9238,Peridotite_02,7,02,2,2,0.924,7,02,0.098216869,-0.404727286,1,0,0,1.2473,Peridotite_rect,7,1.247,1,12,0,12,0,1,,,,,,,,,,,,,
58a229e74d580c0001e0a766,SCR,2024-06-25_12h39.44.681,LearnStrategy,2023.2.3,MacIntel,97.08737864,6,1,14,0.405855758,0.068048322,1,0,0,1.1575,Peridotite_07,7,07,4,7,1.158,7,07,0.372186053,-0.234508825,1,0,0,3.1973,Gabbro_rect,4,3.197,0,13,0,13,0,1,,,,,,,,,,,,,
58a229e74d580c0001e0a766,SCR,2024-06-25_12h39.44.681,LearnStrategy,2023.2.3,MacIntel,97.08737864,6,1,15,-0.394816985,-0.434671586,1,0,0,2.117,Diorite_15,3,15,1,2,2.117,3,15,-0.41666305,-0.27177011,1,0,0,1.105,Andesite_rect,1,1.105,0,14,0,14,0,1,,,,,,,,,,,,,
58a229e74d580c0001e0a766,SCR,2024-06-25_12h39.44.681,LearnStrategy,2023.2.3,MacIntel,97.08737864,6,1,16,-0.509335214,-0.268062789,1,0,0,0.8953,Diorite_12,3,12,2,1,0.895,3,12,0.334592014,-0.236512587,1,0,0,4.1554,Gabbro_rect,4,4.155,0,15,0,15,0,1,,,,,,,,,,,,,
58a229e74d580c0001e0a766,SCR,2024-06-25_12h39.44.681,LearnStrategy,2023.2.3,MacIntel,97.08737864,6,2,1,,,,,,,,7,13,,,,,,,,,,,,,4,2.942,0,,,,,,0.370023148,-0.250625723,1,0,0,2.9421,Gabbro_rect,0,0,0,0,1,
58a229e74d580c0001e0a766,SCR,2024-06-25_12h39.44.681,LearnStrategy,2023.2.3,MacIntel,97.08737864,6,2,2,,,,,,,,1,04,,,,,,,,,,,,,3,1.516,0,,,,,,0.154998553,-0.245384838,1,0,0,1.5162,Diorite_rect,1,0,1,0,1,
58a229e74d580c0001e0a766,SCR,2024-06-25_12h39.44.681,LearnStrategy,2023.2.3,MacIntel,97.08737864,6,2,3,,,,,,,,8,09,,,,,,,,,,,,,8,1.466,1,,,,,,0.369042969,-0.412702546,1,0,0,1.4662,Pumice_rect,2,0,2,0,1,
58a229e74d580c0001e0a766,SCR,2024-06-25_12h39.44.681,LearnStrategy,2023.2.3,MacIntel,97.08737864,6,2,4,,,,,,,,4,16,,,,,,,,,,,,,2,1.256,0,,,,,,-0.0604239,-0.254723669,1,0,0,1.256,Basalt_rect,3,0,3,0,1,
58a229e74d580c0001e0a766,SCR,2024-06-25_12h39.44.681,LearnStrategy,2023.2.3,MacIntel,97.08737864,6,2,5,,,,,,,,2,01,,,,,,,,,,,,,2,1.063,1,,,,,,-0.0604239,-0.254723669,1,0,0,1.0631,Basalt_rect,4,0,4,0,1,
58a229e74d580c0001e0a766,SCR,2024-06-25_12h39.44.681,LearnStrategy,2023.2.3,MacIntel,97.08737864,6,2,6,,,,,,,,6,06,,,,,,,,,,,,,6,3.314,1,,,,,,-0.164171007,-0.398039641,1,0,0,3.3136,Pegmatite_rect,5,0,5,0,1,
58a229e74d580c0001e0a766,SCR,2024-06-25_12h39.44.681,LearnStrategy,2023.2.3,MacIntel,97.08737864,6,2,7,,,,,,,,3,11,,,,,,,,,,,,,3,3.8,1,,,,,,0.194925492,-0.245182292,1,0,0,3.8001,Diorite_rect,6,0,6,0,1,
58a229e74d580c0001e0a766,SCR,2024-06-25_12h39.44.681,LearnStrategy,2023.2.3,MacIntel,97.08737864,6,2,8,,,,,,,,1,06,,,,,,,,,,,,,1,2.653,1,,,,,,-0.33021195,-0.2408818,1,0,0,2.6533,Andesite_rect,7,0,7,0,1,
58a229e74d580c0001e0a766,SCR,2024-06-25_12h39.44.681,LearnStrategy,2023.2.3,MacIntel,97.08737864,6,2,9,,,,,,,,8,13,,,,,,,,,,,,,8,2.058,1,,,,,,0.369835069,-0.392118779,1,0,0,2.0581,Pumice_rect,8,0,8,0,1,
58a229e74d580c0001e0a766,SCR,2024-06-25_12h39.44.681,LearnStrategy,2023.2.3,MacIntel,97.08737864,6,2,10,,,,,,,,3,08,,,,,,,,,,,,,1,1.45,0,,,,,,-0.33604239,-0.253041811,1,0,0,1.4501,Andesite_rect,9,0,9,0,1,
58a229e74d580c0001e0a766,SCR,2024-06-25_12h39.44.681,LearnStrategy,2023.2.3,MacIntel,97.08737864,6,2,11,,,,,,,,4,08,,,,,,,,,,,,,2,1.108,0,,,,,,-0.175795718,-0.249956597,1,0,0,1.1084,Basalt_rect,10,0,10,0,1,
58a229e74d580c0001e0a766,SCR,2024-06-25_12h39.44.681,LearnStrategy,2023.2.3,MacIntel,97.08737864,6,2,12,,,,,,,,5,06,,,,,,,,,,,,,5,2.524,1,,,,,,-0.398969184,-0.398408565,1,0,0,2.5239,Obsidian_rect,11,0,11,0,1,
58a229e74d580c0001e0a766,SCR,2024-06-25_12h39.44.681,LearnStrategy,2023.2.3,MacIntel,97.08737864,6,2,13,,,,,,,,5,09,,,,,,,,,,,,,5,1.325,1,,,,,,-0.398969184,-0.398408565,1,0,0,1.325,Obsidian_rect,12,0,12,0,1,
58a229e74d580c0001e0a766,SCR,2024-06-25_12h39.44.681,LearnStrategy,2023.2.3,MacIntel,97.08737864,6,2,14,,,,,,,,2,09,,,,,,,,,,,,,2,1.699,1,,,,,,-0.157429109,-0.242704716,1,0,0,1.6989,Basalt_rect,13,0,13,0,1,
58a229e74d580c0001e0a766,SCR,2024-06-25_12h39.44.681,LearnStrategy,2023.2.3,MacIntel,97.08737864,6,2,15,,,,,,,,6,03,,,,,,,,,,,,,7,1.323,0,,,,,,0.16104239,-0.394549334,1,0,0,1.3229,Peridotite_rect,14,0,14,0,1,
58a229e74d580c0001e0a766,SCR,2024-06-25_12h39.44.681,LearnStrategy,2023.2.3,MacIntel,97.08737864,6,2,16,,,,,,,,7,05,,,,,,,,,,,,,2,0.922,0,,,,,,-0.140722656,-0.241644965,1,0,0,0.9221,Basalt_rect,15,0,15,0,1,
58a229e74d580c0001e0a766,SCR,2024-06-25_12h39.44.681,LearnStrategy,2023.2.3,MacIntel,97.08737864,7,1,1,-0.371896701,0.411396846,1,0,0,2.0459,Pumice_02,8,02,6,2,2.046,8,02,0.350690828,-0.408318866,1,0,0,2.9383,Pumice_rect,8,2.938,1,0,0,0,0,1,,,,,,,,,,,,,
58a229e74d580c0001e0a766,SCR,2024-06-25_12h39.44.681,LearnStrategy,2023.2.3,MacIntel,97.08737864,7,1,2,-0.50515408,0.064992043,1,0,0,1.4735,Pegmatite_12,6,12,4,1,1.474,6,12,0.0760489,-0.409201389,1,0,0,1.6558,Peridotite_rect,7,1.656,0,1,0,1,0,1,,,,,,,,,,,,,
58a229e74d580c0001e0a766,SCR,2024-06-25_12h39.44.681,LearnStrategy,2023.2.3,MacIntel,97.08737864,7,1,3,-0.059678819,0.070377604,1,0,0,0.774,Basalt_10,2,10,4,4,0.774,2,10,-0.115295862,-0.259729456,1,0,0,1.3721,Basalt_rect,2,1.372,1,2,0,2,0,1,,,,,,,,,,,,,
58a229e74d580c0001e0a766,SCR,2024-06-25_12h39.44.681,LearnStrategy,2023.2.3,MacIntel,97.08737864,7,1,4,-0.053244358,-0.395815249,1,0,0,0.791,Gabbro_11,4,11,1,4,0.791,4,11,-0.123383247,-0.250535301,1,0,0,1.3555,Basalt_rect,2,1.356,0,3,0,3,0,1,,,,,,,,,,,,,
58a229e74d580c0001e0a766,SCR,2024-06-25_12h39.44.681,LearnStrategy,2023.2.3,MacIntel,97.08737864,7,1,5,-0.0833261,0.206893808,1,0,0,1.4993,Gabbro_03,4,03,5,4,1.499,4,03,0.172909433,-0.24656033,1,0,0,1.8721,Diorite_rect,3,1.872,0,4,0,4,0,1,,,,,,,,,,,,,
58a229e74d580c0001e0a766,SCR,2024-06-25_12h39.44.681,LearnStrategy,2023.2.3,MacIntel,97.08737864,7,1,6,-0.347786458,-0.269448061,1,0,0,1.066,Peridotite_02,7,02,2,2,1.066,7,02,0.131080006,-0.236277488,1,0,0,4.264,Diorite_rect,3,4.264,0,5,0,5,0,1,,,,,,,,,,,,,
58a229e74d580c0001e0a766,SCR,2024-06-25_12h39.44.681,LearnStrategy,2023.2.3,MacIntel,97.08737864,7,1,7,0.517386429,-0.215755208,1,0,0,0.8575,Pegmatite_10,6,10,2,8,0.858,6,10,-0.045005064,-0.415755208,1,0,0,1.3973,Pegmatite_rect,6,1.397,1,6,0,6,0,1,,,,,,,,,,,,,
58a229e74d580c0001e0a766,SCR,2024-06-25_12h39.44.681,LearnStrategy,2023.2.3,MacIntel,97.08737864,7,1,8,-0.226027199,0.200227865,1,0,0,1.1909,Gabbro_10,4,10,5,3,1.191,4,10,-0.080172164,-0.246307147,1,0,0,1.3883,Basalt_rect,2,1.388,0,7,0,7,0,1,,,,,,,,,,,,,
58a229e74d580c0001e0a766,SCR,2024-06-25_12h39.44.681,LearnStrategy,2023.2.3,MacIntel,97.08737864,7,1,9,-0.057269965,-0.097269242,1,0,0,0.6985,Pegmatite_07,6,07,3,4,0.698,6,07,0.178157552,-0.403844763,1,0,0,0.8057,Peridotite_rect,7,0.806,0,8,0,8,0,1,,,,,,,,,,,,,
58a229e74d580c0001e0a766,SCR,2024-06-25_12h39.44.681,LearnStrategy,2023.2.3,MacIntel,97.08737864,7,1,10,0.405497685,-0.417585359,1,0,0,0.8234,Diorite_09,3,09,1,7,0.823,3,09,-0.381094473,-0.242205584,1,0,0,1.2222,Andesite_rect,1,1.222,0,9,0,9,0,1,,,,,,,,,,,,,
58a229e74d580c0001e0a766,SCR,2024-06-25_12h39.44.681,LearnStrategy,2023.2.3,MacIntel,97.08737864,7,1,11,0.535630064,0.07484809,1,0,0,1.1075,Peridotite_10,7,10,4,8,1.108,7,10,0.342809606,-0.241012008,1,0,0,1.8628,Gabbro_rect,4,1.863,0,10,0,10,0,1,,,,,,,,,,,,,
58a229e74d580c0001e0a766,SCR,2024-06-25_12h39.44.681,LearnStrategy,2023.2.3,MacIntel,97.08737864,7,1,12,-0.555494068,0.373716001,1,0,0,1.0659,Andesite_10,1,10,6,1,1.066,1,10,-0.359725839,-0.241724537,1,0,0,1.3884,Andesite_rect,1,1.388,1,11,0,11,0,1,,,,,,,,,,,,,
58a229e74d580c0001e0a766,SCR,2024-06-25_12h39.44.681,LearnStrategy,2023.2.3,MacIntel,97.08737864,7,1,13,0.35172526,-0.265523727,1,0,0,0.7658,Andesite_11,1,11,2,7,0.766,1,11,0.394028501,-0.234823495,1,0,0,3.055,Gabbro_rect,4,3.055,0,12,0,12,0,1,,,,,,,,,,,,,
58a229e74d580c0001e0a766,SCR,2024-06-25_12h39.44.681,LearnStrategy,2023.2.3,MacIntel,97.08737864,7,1,14,0.07708695,-0.28025897,1,0,0,0.7409,Diorite_13,3,13,2,5,0.741,3,13,-0.393377459,-0.242957899,1,0,0,2.4465,Andesite_rect,1,2.447,0,13,0,13,0,1,,,,,,,,,,,,,
58a229e74d580c0001e0a766,SCR,2024-06-25_12h39.44.681,LearnStrategy,2023.2.3,MacIntel,97.08737864,7,1,15,0.403132234,-0.447030527,1,0,0,0.7832,Diorite_09,3,09,1,7,0.783,3,09,0.116894531,-0.24963831,1,0,0,1.6799,Diorite_rect,3,1.68,1,14,0,14,0,1,,,,,,,,,,,,,
58a229e74d580c0001e0a766,SCR,2024-06-25_12h39.44.681,LearnStrategy,2023.2.3,MacIntel,97.08737864,7,1,16,-0.197981771,0.402452257,1,0,0,1.1153,Peridotite_12,7,12,6,3,1.115,7,12,0.144198495,-0.249971065,1,0,0,2.0387,Diorite_rect,3,2.039,0,15,0,15,0,1,,,,,,,,,,,,,
58a229e74d580c0001e0a766,SCR,2024-06-25_12h39.44.681,LearnStrategy,2023.2.3,MacIntel,97.08737864,7,2,1,,,,,,,,4,12,,,,,,,,,,,,,2,0.973,0,,,,,,-0.108940972,-0.235821759,1,0,0,0.9728,Basalt_rect,0,0,0,0,1,
58a229e74d580c0001e0a766,SCR,2024-06-25_12h39.44.681,LearnStrategy,2023.2.3,MacIntel,97.08737864,7,2,2,,,,,,,,2,11,,,,,,,,,,,,,2,0.973,1,,,,,,-0.109487124,-0.2541739,1,0,0,0.9732,Basalt_rect,1,0,1,0,1,
58a229e74d580c0001e0a766,SCR,2024-06-25_12h39.44.681,LearnStrategy,2023.2.3,MacIntel,97.08737864,7,2,3,,,,,,,,4,14,,,,,,,,,,,,,2,0.746,0,,,,,,-0.109487124,-0.2541739,1,0,0,0.7462,Basalt_rect,2,0,2,0,1,
58a229e74d580c0001e0a766,SCR,2024-06-25_12h39.44.681,LearnStrategy,2023.2.3,MacIntel,97.08737864,7,2,4,,,,,,,,3,06,,,,,,,,,,,,,1,1.064,0,,,,,,-0.382110822,-0.246650752,1,0,0,1.0636,Andesite_rect,3,0,3,0,1,
58a229e74d580c0001e0a766,SCR,2024-06-25_12h39.44.681,LearnStrategy,2023.2.3,MacIntel,97.08737864,7,2,5,,,,,,,,3,10,,,,,,,,,,,,,4,2.692,0,,,,,,0.382306134,-0.233817998,1,0,0,2.6924,Gabbro_rect,4,0,4,0,1,
58a229e74d580c0001e0a766,SCR,2024-06-25_12h39.44.681,LearnStrategy,2023.2.3,MacIntel,97.08737864,7,2,6,,,,,,,,8,09,,,,,,,,,,,,,8,1.535,1,,,,,,0.437510851,-0.391120515,1,0,0,1.5351,Pumice_rect,5,0,5,0,1,
58a229e74d580c0001e0a766,SCR,2024-06-25_12h39.44.681,LearnStrategy,2023.2.3,MacIntel,97.08737864,7,2,7,,,,,,,,8,13,,,,,,,,,,,,,8,1.237,1,,,,,,0.366753472,-0.410492622,1,0,0,1.2367,Pumice_rect,6,0,6,0,1,
58a229e74d580c0001e0a766,SCR,2024-06-25_12h39.44.681,LearnStrategy,2023.2.3,MacIntel,97.08737864,7,2,8,,,,,,,,1,05,,,,,,,,,,,,,1,1.339,1,,,,,,-0.400962095,-0.250788484,1,0,0,1.3389,Andesite_rect,7,0,7,0,1,
58a229e74d580c0001e0a766,SCR,2024-06-25_12h39.44.681,LearnStrategy,2023.2.3,MacIntel,97.08737864,7,2,9,,,,,,,,6,06,,,,,,,,,,,,,7,1.883,0,,,,,,0.058365885,-0.409960938,1,0,0,1.8828,Peridotite_rect,8,0,8,0,1,
58a229e74d580c0001e0a766,SCR,2024-06-25_12h39.44.681,LearnStrategy,2023.2.3,MacIntel,97.08737864,7,2,10,,,,,,,,7,06,,,,,,,,,,,,,6,0.659,0,,,,,,-0.102683738,-0.400390625,1,0,0,0.6585,Pegmatite_rect,9,0,9,0,1,
58a229e74d580c0001e0a766,SCR,2024-06-25_12h39.44.681,LearnStrategy,2023.2.3,MacIntel,97.08737864,7,2,11,,,,,,,,5,08,,,,,,,,,,,,,5,1.784,1,,,,,,-0.421249277,-0.413530816,1,0,0,1.7844,Obsidian_rect,10,0,10,0,1,
58a229e74d580c0001e0a766,SCR,2024-06-25_12h39.44.681,LearnStrategy,2023.2.3,MacIntel,97.08737864,7,2,12,,,,,,,,6,09,,,,,,,,,,,,,7,1.559,0,,,,,,0.115010127,-0.410221354,1,0,0,1.5592,Peridotite_rect,11,0,11,0,1,
58a229e74d580c0001e0a766,SCR,2024-06-25_12h39.44.681,LearnStrategy,2023.2.3,MacIntel,97.08737864,7,2,13,,,,,,,,7,13,,,,,,,,,,,,,4,0.941,0,,,,,,0.42515191,-0.24781901,1,0,0,0.9414,Gabbro_rect,12,0,12,0,1,
58a229e74d580c0001e0a766,SCR,2024-06-25_12h39.44.681,LearnStrategy,2023.2.3,MacIntel,97.08737864,7,2,14,,,,,,,,2,08,,,,,,,,,,,,,2,0.824,1,,,,,,-0.147507957,-0.239963108,1,0,0,0.8242,Basalt_rect,13,0,13,0,1,
58a229e74d580c0001e0a766,SCR,2024-06-25_12h39.44.681,LearnStrategy,2023.2.3,MacIntel,97.08737864,7,2,15,,,,,,,,1,07,,,,,,,,,,,,,1,0.959,1,,,,,,-0.376783131,-0.26895978,1,0,0,0.9592,Andesite_rect,14,0,14,0,1,
58a229e74d580c0001e0a766,SCR,2024-06-25_12h39.44.681,LearnStrategy,2023.2.3,MacIntel,97.08737864,7,2,16,,,,,,,,5,10,,,,,,,,,,,,,5,0.958,1,,,,,,-0.378671152,-0.382548466,1,0,0,0.9585,Obsidian_rect,15,0,15,0,1,
58a229e74d580c0001e0a766,SCR,2024-06-25_12h39.44.681,LearnStrategy,2023.2.3,MacIntel,97.08737864,8,1,1,-0.242426215,-0.364623119,1,0,0,0.8559,Gabbro_15,4,15,1,3,0.856,4,15,-0.386288339,-0.237011719,1,0,0,0.7889,Andesite_rect,1,0.789,0,0,0,0,0,1,,,,,,,,,,,,,
58a229e74d580c0001e0a766,SCR,2024-06-25_12h39.44.681,LearnStrategy,2023.2.3,MacIntel,97.08737864,8,1,2,-0.191554543,0.372052228,1,0,0,1.0079,Peridotite_12,7,12,6,3,1.008,7,12,0.11745515,-0.238664641,1,0,0,1.3049,Diorite_rect,3,1.305,0,1,0,1,0,1,,,,,,,,,,,,,
58a229e74d580c0001e0a766,SCR,2024-06-25_12h39.44.681,LearnStrategy,2023.2.3,MacIntel,97.08737864,8,1,3,-0.354007523,-0.432863137,1,0,0,1.5083,Diorite_15,3,15,1,2,1.508,3,15,-0.366388166,-0.267144097,1,0,0,2.413,Andesite_rect,1,2.413,0,2,0,2,0,1,,,,,,,,,,,,,
58a229e74d580c0001e0a766,SCR,2024-06-25_12h39.44.681,LearnStrategy,2023.2.3,MacIntel,97.08737864,8,1,4,-0.353783275,0.043919994,1,0,0,0.7825,Andesite_03,1,03,4,2,0.783,1,03,-0.337051505,-0.26906467,1,0,0,0.913,Andesite_rect,1,0.913,1,3,0,3,0,1,,,,,,,,,,,,,
58a229e74d580c0001e0a766,SCR,2024-06-25_12h39.44.681,LearnStrategy,2023.2.3,MacIntel,97.08737864,8,1,5,0.21895978,0.396853299,1,0,0,1.6577,Basalt_12,2,12,6,6,1.658,2,12,-0.360398582,-0.243149595,1,0,0,1.3305,Andesite_rect,1,1.33,0,4,0,4,0,1,,,,,,,,,,,,,
58a229e74d580c0001e0a766,SCR,2024-06-25_12h39.44.681,LearnStrategy,2023.2.3,MacIntel,97.08737864,8,1,6,0.253063513,-0.389970341,1,0,0,0.7492,Peridotite_15,7,15,1,6,0.749,7,15,0.164239728,-0.415816696,1,0,0,1.1639,Peridotite_rect,7,1.164,1,5,0,5,0,1,,,,,,,,,,,,,
58a229e74d580c0001e0a766,SCR,2024-06-25_12h39.44.681,LearnStrategy,2023.2.3,MacIntel,97.08737864,8,1,7,0.083814381,-0.247732205,1,0,0,0.7495,Diorite_13,3,13,2,5,0.75,3,13,0.089724392,-0.381785301,1,0,0,2.3716,Peridotite_rect,7,2.372,0,6,0,6,0,1,,,,,,,,,,,,,
58a229e74d580c0001e0a766,SCR,2024-06-25_12h39.44.681,LearnStrategy,2023.2.3,MacIntel,97.08737864,8,1,8,0.578219039,0.102202691,1,0,0,1.4493,Peridotite_10,7,10,4,8,1.449,7,10,0.068044705,-0.405848524,1,0,0,2.6627,Peridotite_rect,7,2.663,1,7,0,7,0,1,,,,,,,,,,,,,
58a229e74d580c0001e0a766,SCR,2024-06-25_12h39.44.681,LearnStrategy,2023.2.3,MacIntel,97.08737864,8,1,9,0.199309172,0.222214988,1,0,0,1.8402,Pegmatite_11,6,11,5,6,1.84,6,11,-0.07160735,-0.384964554,1,0,0,1.0311,Pegmatite_rect,6,1.031,1,8,0,8,0,1,,,,,,,,,,,,,
58a229e74d580c0001e0a766,SCR,2024-06-25_12h39.44.681,LearnStrategy,2023.2.3,MacIntel,97.08737864,8,1,10,0.529076244,-0.40979456,1,0,0,1.0658,Diorite_02,3,02,1,8,1.066,3,02,-0.410138166,-0.239615885,1,0,0,1.18,Andesite_rect,1,1.18,0,9,0,9,0,1,,,,,,,,,,,,,
58a229e74d580c0001e0a766,SCR,2024-06-25_12h39.44.681,LearnStrategy,2023.2.3,MacIntel,97.08737864,8,1,11,-0.514239728,0.394393808,1,0,0,1.8161,Andesite_10,1,10,6,1,1.816,1,10,-0.191210938,-0.242617911,1,0,0,1.4046,Basalt_rect,2,1.405,0,10,0,10,0,1,,,,,,,,,,,,,
58a229e74d580c0001e0a766,SCR,2024-06-25_12h39.44.681,LearnStrategy,2023.2.3,MacIntel,97.08737864,8,1,12,-0.04458912,-0.40922309,1,0,0,1.0241,Gabbro_11,4,11,1,4,1.024,4,11,-0.098289207,-0.250303819,1,0,0,1.6723,Basalt_rect,2,1.672,0,11,0,11,0,1,,,,,,,,,,,,,
58a229e74d580c0001e0a766,SCR,2024-06-25_12h39.44.681,LearnStrategy,2023.2.3,MacIntel,97.08737864,8,1,13,-0.349692564,0.3747432,1,0,0,1.6243,Pumice_02,8,02,6,2,1.624,8,02,0.3536386,-0.406405527,1,0,0,1.2387,Pumice_rect,8,1.239,1,12,0,12,0,1,,,,,,,,,,,,,
58a229e74d580c0001e0a766,SCR,2024-06-25_12h39.44.681,LearnStrategy,2023.2.3,MacIntel,97.08737864,8,1,14,-0.246589265,0.213089554,1,0,0,0.7151,Gabbro_10,4,10,5,3,0.715,4,10,0.348983652,-0.250426794,1,0,0,3.1398,Gabbro_rect,4,3.14,1,13,0,13,0,1,,,,,,,,,,,,,
58a229e74d580c0001e0a766,SCR,2024-06-25_12h39.44.681,LearnStrategy,2023.2.3,MacIntel,97.08737864,8,1,15,-0.065693721,-0.062047888,1,0,0,0.6908,Pegmatite_07,6,07,3,4,0.691,6,07,0.158036748,-0.393102575,1,0,0,1.2716,Peridotite_rect,7,1.272,0,14,0,14,0,1,,,,,,,,,,,,,
58a229e74d580c0001e0a766,SCR,2024-06-25_12h39.44.681,LearnStrategy,2023.2.3,MacIntel,97.08737864,8,1,16,-0.224757668,0.074649161,1,0,0,0.9074,Pegmatite_16,6,16,4,3,0.907,6,16,0.180805122,-0.418847656,1,0,0,1.0131,Peridotite_rect,7,1.013,0,15,0,15,0,1,,,,,,,,,,,,,
58a229e74d580c0001e0a766,SCR,2024-06-25_12h39.44.681,LearnStrategy,2023.2.3,MacIntel,97.08737864,8,2,1,,,,,,,,8,03,,,,,,,,,,,,,8,1.013,1,,,,,,0.417740885,-0.38359375,1,0,0,1.0132,Pumice_rect,0,0,0,0,1,
58a229e74d580c0001e0a766,SCR,2024-06-25_12h39.44.681,LearnStrategy,2023.2.3,MacIntel,97.08737864,8,2,2,,,,,,,,3,08,,,,,,,,,,,,,1,1.214,0,,,,,,-0.341995804,-0.271806279,1,0,0,1.2144,Andesite_rect,1,0,1,0,1,
58a229e74d580c0001e0a766,SCR,2024-06-25_12h39.44.681,LearnStrategy,2023.2.3,MacIntel,97.08737864,8,2,3,,,,,,,,4,08,,,,,,,,,,,,,4,1.648,1,,,,,,0.428483073,-0.231532118,1,0,0,1.6483,Gabbro_rect,2,0,2,0,1,
58a229e74d580c0001e0a766,SCR,2024-06-25_12h39.44.681,LearnStrategy,2023.2.3,MacIntel,97.08737864,8,2,4,,,,,,,,7,04,,,,,,,,,,,,,6,1.349,0,,,,,,-0.080400029,-0.400025318,1,0,0,1.3487,Pegmatite_rect,3,0,3,0,1,
58a229e74d580c0001e0a766,SCR,2024-06-25_12h39.44.681,LearnStrategy,2023.2.3,MacIntel,97.08737864,8,2,5,,,,,,,,1,16,,,,,,,,,,,,,1,1.757,1,,,,,,-0.358257378,-0.230251736,1,0,0,1.7569,Andesite_rect,4,0,4,0,1,
58a229e74d580c0001e0a766,SCR,2024-06-25_12h39.44.681,LearnStrategy,2023.2.3,MacIntel,97.08737864,8,2,6,,,,,,,,6,03,,,,,,,,,,,,,7,1.747,0,,,,,,0.097301794,-0.387742332,1,0,0,1.7468,Peridotite_rect,5,0,5,0,1,
58a229e74d580c0001e0a766,SCR,2024-06-25_12h39.44.681,LearnStrategy,2023.2.3,MacIntel,97.08737864,8,2,7,,,,,,,,7,14,,,,,,,,,,,,,3,2.095,0,,,,,,0.16875,-0.251696325,1,0,0,2.0947,Diorite_rect,6,0,6,0,1,
58a229e74d580c0001e0a766,SCR,2024-06-25_12h39.44.681,LearnStrategy,2023.2.3,MacIntel,97.08737864,8,2,8,,,,,,,,2,01,,,,,,,,,,,,,2,0.797,1,,,,,,-0.197363281,-0.240183738,1,0,0,0.7966,Basalt_rect,7,0,7,0,1,
58a229e74d580c0001e0a766,SCR,2024-06-25_12h39.44.681,LearnStrategy,2023.2.3,MacIntel,97.08737864,8,2,9,,,,,,,,4,16,,,,,,,,,,,,,2,1.096,0,,,,,,-0.197363281,-0.240183738,1,0,0,1.0957,Basalt_rect,8,0,8,0,1,
58a229e74d580c0001e0a766,SCR,2024-06-25_12h39.44.681,LearnStrategy,2023.2.3,MacIntel,97.08737864,8,2,10,,,,,,,,3,16,,,,,,,,,,,,,1,1.033,0,,,,,,-0.33443287,-0.243381076,1,0,0,1.033,Andesite_rect,9,0,9,0,1,
58a229e74d580c0001e0a766,SCR,2024-06-25_12h39.44.681,LearnStrategy,2023.2.3,MacIntel,97.08737864,8,2,11,,,,,,,,6,05,,,,,,,,,,,,,7,1.017,0,,,,,,0.110521557,-0.419618056,1,0,0,1.0173,Peridotite_rect,10,0,10,0,1,
58a229e74d580c0001e0a766,SCR,2024-06-25_12h39.44.681,LearnStrategy,2023.2.3,MacIntel,97.08737864,8,2,12,,,,,,,,8,05,,,,,,,,,,,,,8,1.209,1,,,,,,0.345493345,-0.393713831,1,0,0,1.2091,Pumice_rect,11,0,11,0,1,
58a229e74d580c0001e0a766,SCR,2024-06-25_12h39.44.681,LearnStrategy,2023.2.3,MacIntel,97.08737864,8,2,13,,,,,,,,2,04,,,,,,,,,,,,,2,1.539,1,,,,,,-0.110771123,-0.242834925,1,0,0,1.5385,Basalt_rect,12,0,12,0,1,
58a229e74d580c0001e0a766,SCR,2024-06-25_12h39.44.681,LearnStrategy,2023.2.3,MacIntel,97.08737864,8,2,14,,,,,,,,5,02,,,,,,,,,,,,,5,1.309,1,,,,,,-0.336668113,-0.398593027,1,0,0,1.3094,Obsidian_rect,13,0,13,0,1,
58a229e74d580c0001e0a766,SCR,2024-06-25_12h39.44.681,LearnStrategy,2023.2.3,MacIntel,97.08737864,8,2,15,,,,,,,,5,09,,,,,,,,,,,,,5,0.988,1,,,,,,-0.340397135,-0.390172888,1,0,0,0.988,Obsidian_rect,14,0,14,0,1,
58a229e74d580c0001e0a766,SCR,2024-06-25_12h39.44.681,LearnStrategy,2023.2.3,MacIntel,97.08737864,8,2,16,,,,,,,,1,06,,,,,,,,,,,,,1,1.301,1,,,,,,-0.358626302,-0.242578125,1,0,0,1.301,Andesite_rect,15,0,15,0,1,
58a229e74d580c0001e0a766,SCR,2024-06-25_12h39.44.681,LearnStrategy,2023.2.3,MacIntel,97.08737864,9,1,1,-0.052748843,0.446267361,1,0,0,0.9829,Peridotite_08,7,08,6,4,0.983,7,08,0.431521267,-0.247743056,1,0,0,3.4639,Gabbro_rect,4,3.464,0,0,0,0,0,1,,,,,,,,,,,,,
58a229e74d580c0001e0a766,SCR,2024-06-25_12h39.44.681,LearnStrategy,2023.2.3,MacIntel,97.08737864,9,1,2,0.54718967,-0.270891204,1,0,0,1.0828,Pegmatite_10,6,10,2,8,1.083,6,10,-0.084848814,-0.414076968,1,0,0,1.7554,Pegmatite_rect,6,1.755,1,1,0,1,0,1,,,,,,,,,,,,,
58a229e74d580c0001e0a766,SCR,2024-06-25_12h39.44.681,LearnStrategy,2023.2.3,MacIntel,97.08737864,9,1,3,0.530703848,-0.443710214,1,0,0,1.842,Diorite_02,3,02,1,8,1.842,3,02,0.173585793,-0.255175781,1,0,0,1.8449,Diorite_rect,3,1.845,1,2,0,2,0,1,,,,,,,,,,,,,
58a229e74d580c0001e0a766,SCR,2024-06-25_12h39.44.681,LearnStrategy,2023.2.3,MacIntel,97.08737864,9,1,4,-0.345775463,0.103761574,1,0,0,0.8408,Andesite_03,1,03,4,2,0.841,1,03,-0.353374566,-0.233904803,1,0,0,1.0973,Andesite_rect,1,1.097,1,3,0,3,0,1,,,,,,,,,,,,,
58a229e74d580c0001e0a766,SCR,2024-06-25_12h39.44.681,LearnStrategy,2023.2.3,MacIntel,97.08737864,9,1,5,-0.204076244,-0.404604311,1,0,0,0.983,Gabbro_15,4,15,1,3,0.983,4,15,-0.224070457,-0.403294994,1,0,0,5.0137,Pegmatite_rect,6,5.014,0,4,0,4,0,1,,,,,,,,,,,,,
58a229e74d580c0001e0a766,SCR,2024-06-25_12h39.44.681,LearnStrategy,2023.2.3,MacIntel,97.08737864,9,1,6,-0.227293113,0.438939525,1,0,0,1.4498,Peridotite_12,7,12,6,3,1.45,7,12,0.395377604,-0.255204716,1,0,0,3.3783,Gabbro_rect,4,3.378,0,5,0,5,0,1,,,,,,,,,,,,,
58a229e74d580c0001e0a766,SCR,2024-06-25_12h39.44.681,LearnStrategy,2023.2.3,MacIntel,97.08737864,9,1,7,0.111780237,0.273021557,1,0,0,0.8245,Gabbro_01,4,01,5,5,0.824,4,01,0.36978805,-0.251435909,1,0,0,1.4714,Gabbro_rect,4,1.471,1,6,0,6,0,1,,,,,,,,,,,,,
58a229e74d580c0001e0a766,SCR,2024-06-25_12h39.44.681,LearnStrategy,2023.2.3,MacIntel,97.08737864,9,1,8,0.340245226,-0.395392072,1,0,0,1.0741,Diorite_09,3,09,1,7,1.074,3,09,-0.362160012,-0.254806858,1,0,0,1.3639,Andesite_rect,1,1.364,0,7,0,7,0,1,,,,,,,,,,,,,
58a229e74d580c0001e0a766,SCR,2024-06-25_12h39.44.681,LearnStrategy,2023.2.3,MacIntel,97.08737864,9,1,9,-0.235065828,-0.438975694,1,0,0,0.9245,Gabbro_15,4,15,1,3,0.925,4,15,0.156882957,-0.251135706,1,0,0,1.5888,Diorite_rect,3,1.589,0,8,0,8,0,1,,,,,,,,,,,,,
58a229e74d580c0001e0a766,SCR,2024-06-25_12h39.44.681,LearnStrategy,2023.2.3,MacIntel,97.08737864,9,1,10,-0.218869358,-0.249761285,1,0,0,0.7411,Diorite_07,3,07,2,3,0.741,3,07,-0.413888889,-0.239999277,1,0,0,1.1971,Andesite_rect,1,1.197,0,9,0,9,0,1,,,,,,,,,,,,,
58a229e74d580c0001e0a766,SCR,2024-06-25_12h39.44.681,LearnStrategy,2023.2.3,MacIntel,97.08737864,9,1,11,0.385941117,0.082465278,1,0,0,1.0244,Peridotite_07,7,07,4,7,1.024,7,07,0.378472222,-0.234414786,1,0,0,2.6715,Gabbro_rect,4,2.671,0,10,0,10,0,1,,,,,,,,,,,,,
58a229e74d580c0001e0a766,SCR,2024-06-25_12h39.44.681,LearnStrategy,2023.2.3,MacIntel,97.08737864,9,1,12,0.416496672,0.217209201,1,0,0,0.8329,Pegmatite_13,6,13,5,7,0.833,6,13,0.164362703,-0.399464699,1,0,0,2.6042,Peridotite_rect,7,2.604,0,11,0,11,0,1,,,,,,,,,,,,,
58a229e74d580c0001e0a766,SCR,2024-06-25_12h39.44.681,LearnStrategy,2023.2.3,MacIntel,97.08737864,9,1,13,-0.437264902,0.416677517,1,0,0,1.8161,Pumice_02,8,02,6,2,1.816,8,02,0.394502315,-0.399750434,1,0,0,1.7635,Pumice_rect,8,1.764,1,12,0,12,0,1,,,,,,,,,,,,,
58a229e74d580c0001e0a766,SCR,2024-06-25_12h39.44.681,LearnStrategy,2023.2.3,MacIntel,97.08737864,9,1,14,0.542896412,-0.245026765,1,0,0,0.9743,Pegmatite_10,6,10,2,8,0.974,6,10,-0.047019676,-0.38577474,1,0,0,0.7724,Pegmatite_rect,6,0.772,1,13,0,13,0,1,,,,,,,,,,,,,
58a229e74d580c0001e0a766,SCR,2024-06-25_12h39.44.681,LearnStrategy,2023.2.3,MacIntel,97.08737864,9,1,15,-0.404636863,-0.089673756,1,0,0,0.7658,Basalt_05,2,05,3,2,0.766,2,05,-0.117871094,-0.257653356,1,0,0,1.2224,Basalt_rect,2,1.222,1,14,0,14,0,1,,,,,,,,,,,,,
58a229e74d580c0001e0a766,SCR,2024-06-25_12h39.44.681,LearnStrategy,2023.2.3,MacIntel,97.08737864,9,1,16,0.276030816,-0.421469907,1,0,0,0.9078,Peridotite_15,7,15,1,6,0.908,7,15,-0.085033275,-0.390885417,1,0,0,3.6048,Pegmatite_rect,6,3.605,0,15,0,15,0,1,,,,,,,,,,,,,
58a229e74d580c0001e0a766,SCR,2024-06-25_12h39.44.681,LearnStrategy,2023.2.3,MacIntel,97.08737864,9,2,1,,,,,,,,2,09,,,,,,,,,,,,,4,1.589,0,,,,,,0.404513889,-0.230208333,1,0,0,1.5891,Gabbro_rect,0,0,0,0,1,
58a229e74d580c0001e0a766,SCR,2024-06-25_12h39.44.681,LearnStrategy,2023.2.3,MacIntel,97.08737864,9,2,2,,,,,,,,4,05,,,,,,,,,,,,,6,1.448,0,,,,,,-0.147200521,-0.393728299,1,0,0,1.4477,Pegmatite_rect,1,0,1,0,1,
58a229e74d580c0001e0a766,SCR,2024-06-25_12h39.44.681,LearnStrategy,2023.2.3,MacIntel,97.08737864,9,2,3,,,,,,,,3,14,,,,,,,,,,,,,1,1.016,0,,,,,,-0.382230179,-0.237941262,1,0,0,1.0165,Andesite_rect,2,0,2,0,1,
58a229e74d580c0001e0a766,SCR,2024-06-25_12h39.44.681,LearnStrategy,2023.2.3,MacIntel,97.08737864,9,2,4,,,,,,,,7,16,,,,,,,,,,,,,6,1.132,0,,,,,,-0.167162182,-0.413454861,1,0,0,1.1321,Pegmatite_rect,3,0,3,0,1,
58a229e74d580c0001e0a766,SCR,2024-06-25_12h39.44.681,LearnStrategy,2023.2.3,MacIntel,97.08737864,9,2,5,,,,,,,,1,04,,,,,,,,,,,,,3,1.108,0,,,,,,0.127148437,-0.248734086,1,0,0,1.1076,Diorite_rect,4,0,4,0,1,
58a229e74d580c0001e0a766,SCR,2024-06-25_12h39.44.681,LearnStrategy,2023.2.3,MacIntel,97.08737864,9,2,6,,,,,,,,5,06,,,,,,,,,,,,,5,1.998,1,,,,,,-0.431521267,-0.412073206,1,0,0,1.9982,Obsidian_rect,5,0,5,0,1,
58a229e74d580c0001e0a766,SCR,2024-06-25_12h39.44.681,LearnStrategy,2023.2.3,MacIntel,97.08737864,9,2,7,,,,,,,,6,15,,,,,,,,,,,,,7,1.584,0,,,,,,0.074717882,-0.408893953,1,0,0,1.5844,Peridotite_rect,6,0,6,0,1,
58a229e74d580c0001e0a766,SCR,2024-06-25_12h39.44.681,LearnStrategy,2023.2.3,MacIntel,97.08737864,9,2,8,,,,,,,,5,05,,,,,,,,,,,,,5,0.899,1,,,,,,-0.427712674,-0.406163194,1,0,0,0.8994,Obsidian_rect,7,0,7,0,1,
58a229e74d580c0001e0a766,SCR,2024-06-25_12h39.44.681,LearnStrategy,2023.2.3,MacIntel,97.08737864,9,2,9,,,,,,,,1,02,,,,,,,,,,,,,2,1.267,0,,,,,,-0.194979745,-0.252256944,1,0,0,1.267,Basalt_rect,8,0,8,0,1,
58a229e74d580c0001e0a766,SCR,2024-06-25_12h39.44.681,LearnStrategy,2023.2.3,MacIntel,97.08737864,9,2,10,,,,,,,,8,08,,,,,,,,,,,,,8,1.361,1,,,,,,0.384635417,-0.402647569,1,0,0,1.3611,Pumice_rect,9,0,9,0,1,
58a229e74d580c0001e0a766,SCR,2024-06-25_12h39.44.681,LearnStrategy,2023.2.3,MacIntel,97.08737864,9,2,11,,,,,,,,6,08,,,,,,,,,,,,,7,4.742,0,,,,,,0.103606047,-0.403703704,1,0,0,4.7419,Peridotite_rect,10,0,10,0,1,
58a229e74d580c0001e0a766,SCR,2024-06-25_12h39.44.681,LearnStrategy,2023.2.3,MacIntel,97.08737864,9,2,12,,,,,,,,3,11,,,,,,,,,,,,,3,3.103,1,,,,,,0.168413628,-0.245153356,1,0,0,3.1033,Diorite_rect,11,0,11,0,1,
58a229e74d580c0001e0a766,SCR,2024-06-25_12h39.44.681,LearnStrategy,2023.2.3,MacIntel,97.08737864,9,2,13,,,,,,,,7,05,,,,,,,,,,,,,4,1.32,0,,,,,,0.356383825,-0.261306424,1,0,0,1.3203,Gabbro_rect,12,0,12,0,1,
58a229e74d580c0001e0a766,SCR,2024-06-25_12h39.44.681,LearnStrategy,2023.2.3,MacIntel,97.08737864,9,2,14,,,,,,,,4,09,,,,,,,,,,,,,4,1.688,1,,,,,,0.406069155,-0.260789207,1,0,0,1.6879,Gabbro_rect,13,0,13,0,1,
58a229e74d580c0001e0a766,SCR,2024-06-25_12h39.44.681,LearnStrategy,2023.2.3,MacIntel,97.08737864,9,2,15,,,,,,,,2,14,,,,,,,,,,,,,2,2.847,1,,,,,,-0.119921875,-0.255971499,1,0,0,2.8475,Basalt_rect,14,0,14,0,1,
58a229e74d580c0001e0a766,SCR,2024-06-25_12h39.44.681,LearnStrategy,2023.2.3,MacIntel,97.08737864,9,2,16,,,,,,,,8,14,,,,,,,,,,,,,8,1.757,1,,,,,,0.397536892,-0.400408709,1,0,0,1.7575,Pumice_rect,15,0,15,0,1,
58a229e74d580c0001e0a766,SCR,2024-06-25_12h39.44.681,LearnStrategy,2023.2.3,MacIntel,97.08737864,,,,,,,,,,,,,,,,,,,,,,,,,,,,,,,,,,,,,,,,,,,,,0
58a229e74d580c0001e0a766,SCR,2024-06-25_12h39.44.681,LearnStrategy,2023.2.3,MacIntel,97.08737864,,,,,,,,,,,,,,,,,,,,,,,,,,,,,,,,,,,,,,,,,,,,,
58a229e74d580c0001e0a766,SCR,2024-06-25_12h39.44.681,LearnStrategy,2023.2.3,MacIntel,97.08737864,,,,,,,,,,,8,10,1,1,,,,,,,,,,,,,,,,,,,,,,,,,,,,,,,
58a229e74d580c0001e0a766,SCR,2024-06-25_12h39.44.681,LearnStrategy,2023.2.3,MacIntel,97.08737864,,,,,,,,,,,3,15,1,2,,,,,,,,,,,,,,,,,,,,,,,,,,,,,,,
58a229e74d580c0001e0a766,SCR,2024-06-25_12h39.44.681,LearnStrategy,2023.2.3,MacIntel,97.08737864,,,,,,,,,,,4,15,1,3,,,,,,,,,,,,,,,,,,,,,,,,,,,,,,,
58a229e74d580c0001e0a766,SCR,2024-06-25_12h39.44.681,LearnStrategy,2023.2.3,MacIntel,97.08737864,,,,,,,,,,,4,11,1,4,,,,,,,,,,,,,,,,,,,,,,,,,,,,,,,
58a229e74d580c0001e0a766,SCR,2024-06-25_12h39.44.681,LearnStrategy,2023.2.3,MacIntel,97.08737864,,,,,,,,,,,5,14,1,5,,,,,,,,,,,,,,,,,,,,,,,,,,,,,,,
58a229e74d580c0001e0a766,SCR,2024-06-25_12h39.44.681,LearnStrategy,2023.2.3,MacIntel,97.08737864,,,,,,,,,,,7,15,1,6,,,,,,,,,,,,,,,,,,,,,,,,,,,,,,,
58a229e74d580c0001e0a766,SCR,2024-06-25_12h39.44.681,LearnStrategy,2023.2.3,MacIntel,97.08737864,,,,,,,,,,,3,09,1,7,,,,,,,,,,,,,,,,,,,,,,,,,,,,,,,
58a229e74d580c0001e0a766,SCR,2024-06-25_12h39.44.681,LearnStrategy,2023.2.3,MacIntel,97.08737864,,,,,,,,,,,3,02,1,8,,,,,,,,,,,,,,,,,,,,,,,,,,,,,,,
58a229e74d580c0001e0a766,SCR,2024-06-25_12h39.44.681,LearnStrategy,2023.2.3,MacIntel,97.08737864,,,,,,,,,,,3,12,2,1,,,,,,,,,,,,,,,,,,,,,,,,,,,,,,,
58a229e74d580c0001e0a766,SCR,2024-06-25_12h39.44.681,LearnStrategy,2023.2.3,MacIntel,97.08737864,,,,,,,,,,,7,02,2,2,,,,,,,,,,,,,,,,,,,,,,,,,,,,,,,
58a229e74d580c0001e0a766,SCR,2024-06-25_12h39.44.681,LearnStrategy,2023.2.3,MacIntel,97.08737864,,,,,,,,,,,3,07,2,3,,,,,,,,,,,,,,,,,,,,,,,,,,,,,,,
58a229e74d580c0001e0a766,SCR,2024-06-25_12h39.44.681,LearnStrategy,2023.2.3,MacIntel,97.08737864,,,,,,,,,,,5,12,2,4,,,,,,,,,,,,,,,,,,,,,,,,,,,,,,,
58a229e74d580c0001e0a766,SCR,2024-06-25_12h39.44.681,LearnStrategy,2023.2.3,MacIntel,97.08737864,,,,,,,,,,,3,13,2,5,,,,,,,,,,,,,,,,,,,,,,,,,,,,,,,
58a229e74d580c0001e0a766,SCR,2024-06-25_12h39.44.681,LearnStrategy,2023.2.3,MacIntel,97.08737864,,,,,,,,,,,1,01,2,6,,,,,,,,,,,,,,,,,,,,,,,,,,,,,,,
58a229e74d580c0001e0a766,SCR,2024-06-25_12h39.44.681,LearnStrategy,2023.2.3,MacIntel,97.08737864,,,,,,,,,,,1,11,2,7,,,,,,,,,,,,,,,,,,,,,,,,,,,,,,,
58a229e74d580c0001e0a766,SCR,2024-06-25_12h39.44.681,LearnStrategy,2023.2.3,MacIntel,97.08737864,,,,,,,,,,,6,10,2,8,,,,,,,,,,,,,,,,,,,,,,,,,,,,,,,
58a229e74d580c0001e0a766,SCR,2024-06-25_12h39.44.681,LearnStrategy,2023.2.3,MacIntel,97.08737864,,,,,,,,,,,5,11,3,1,,,,,,,,,,,,,,,,,,,,,,,,,,,,,,,
58a229e74d580c0001e0a766,SCR,2024-06-25_12h39.44.681,LearnStrategy,2023.2.3,MacIntel,97.08737864,,,,,,,,,,,2,05,3,2,,,,,,,,,,,,,,,,,,,,,,,,,,,,,,,
58a229e74d580c0001e0a766,SCR,2024-06-25_12h39.44.681,LearnStrategy,2023.2.3,MacIntel,97.08737864,,,,,,,,,,,5,16,3,3,,,,,,,,,,,,,,,,,,,,,,,,,,,,,,,
58a229e74d580c0001e0a766,SCR,2024-06-25_12h39.44.681,LearnStrategy,2023.2.3,MacIntel,97.08737864,,,,,,,,,,,6,07,3,4,,,,,,,,,,,,,,,,,,,,,,,,,,,,,,,
58a229e74d580c0001e0a766,SCR,2024-06-25_12h39.44.681,LearnStrategy,2023.2.3,MacIntel,97.08737864,,,,,,,,,,,5,04,3,5,,,,,,,,,,,,,,,,,,,,,,,,,,,,,,,
58a229e74d580c0001e0a766,SCR,2024-06-25_12h39.44.681,LearnStrategy,2023.2.3,MacIntel,97.08737864,,,,,,,,,,,8,06,3,6,,,,,,,,,,,,,,,,,,,,,,,,,,,,,,,
58a229e74d580c0001e0a766,SCR,2024-06-25_12h39.44.681,LearnStrategy,2023.2.3,MacIntel,97.08737864,,,,,,,,,,,4,13,3,7,,,,,,,,,,,,,,,,,,,,,,,,,,,,,,,
58a229e74d580c0001e0a766,SCR,2024-06-25_12h39.44.681,LearnStrategy,2023.2.3,MacIntel,97.08737864,,,,,,,,,,,1,14,3,8,,,,,,,,,,,,,,,,,,,,,,,,,,,,,,,
58a229e74d580c0001e0a766,SCR,2024-06-25_12h39.44.681,LearnStrategy,2023.2.3,MacIntel,97.08737864,,,,,,,,,,,6,12,4,1,,,,,,,,,,,,,,,,,,,,,,,,,,,,,,,
58a229e74d580c0001e0a766,SCR,2024-06-25_12h39.44.681,LearnStrategy,2023.2.3,MacIntel,97.08737864,,,,,,,,,,,1,03,4,2,,,,,,,,,,,,,,,,,,,,,,,,,,,,,,,
58a229e74d580c0001e0a766,SCR,2024-06-25_12h39.44.681,LearnStrategy,2023.2.3,MacIntel,97.08737864,,,,,,,,,,,6,16,4,3,,,,,,,,,,,,,,,,,,,,,,,,,,,,,,,
58a229e74d580c0001e0a766,SCR,2024-06-25_12h39.44.681,LearnStrategy,2023.2.3,MacIntel,97.08737864,,,,,,,,,,,2,10,4,4,,,,,,,,,,,,,,,,,,,,,,,,,,,,,,,
58a229e74d580c0001e0a766,SCR,2024-06-25_12h39.44.681,LearnStrategy,2023.2.3,MacIntel,97.08737864,,,,,,,,,,,8,15,4,5,,,,,,,,,,,,,,,,,,,,,,,,,,,,,,,
58a229e74d580c0001e0a766,SCR,2024-06-25_12h39.44.681,LearnStrategy,2023.2.3,MacIntel,97.08737864,,,,,,,,,,,2,16,4,6,,,,,,,,,,,,,,,,,,,,,,,,,,,,,,,
58a229e74d580c0001e0a766,SCR,2024-06-25_12h39.44.681,LearnStrategy,2023.2.3,MacIntel,97.08737864,,,,,,,,,,,7,07,4,7,,,,,,,,,,,,,,,,,,,,,,,,,,,,,,,
58a229e74d580c0001e0a766,SCR,2024-06-25_12h39.44.681,LearnStrategy,2023.2.3,MacIntel,97.08737864,,,,,,,,,,,7,10,4,8,,,,,,,,,,,,,,,,,,,,,,,,,,,,,,,
58a229e74d580c0001e0a766,SCR,2024-06-25_12h39.44.681,LearnStrategy,2023.2.3,MacIntel,97.08737864,,,,,,,,,,,5,07,5,1,,,,,,,,,,,,,,,,,,,,,,,,,,,,,,,
58a229e74d580c0001e0a766,SCR,2024-06-25_12h39.44.681,LearnStrategy,2023.2.3,MacIntel,97.08737864,,,,,,,,,,,1,09,5,2,,,,,,,,,,,,,,,,,,,,,,,,,,,,,,,
58a229e74d580c0001e0a766,SCR,2024-06-25_12h39.44.681,LearnStrategy,2023.2.3,MacIntel,97.08737864,,,,,,,,,,,4,10,5,3,,,,,,,,,,,,,,,,,,,,,,,,,,,,,,,
58a229e74d580c0001e0a766,SCR,2024-06-25_12h39.44.681,LearnStrategy,2023.2.3,MacIntel,97.08737864,,,,,,,,,,,4,03,5,4,,,,,,,,,,,,,,,,,,,,,,,,,,,,,,,
58a229e74d580c0001e0a766,SCR,2024-06-25_12h39.44.681,LearnStrategy,2023.2.3,MacIntel,97.08737864,,,,,,,,,,,4,01,5,5,,,,,,,,,,,,,,,,,,,,,,,,,,,,,,,
58a229e74d580c0001e0a766,SCR,2024-06-25_12h39.44.681,LearnStrategy,2023.2.3,MacIntel,97.08737864,,,,,,,,,,,6,11,5,6,,,,,,,,,,,,,,,,,,,,,,,,,,,,,,,
58a229e74d580c0001e0a766,SCR,2024-06-25_12h39.44.681,LearnStrategy,2023.2.3,MacIntel,97.08737864,,,,,,,,,,,6,13,5,7,,,,,,,,,,,,,,,,,,,,,,,,,,,,,,,
58a229e74d580c0001e0a766,SCR,2024-06-25_12h39.44.681,LearnStrategy,2023.2.3,MacIntel,97.08737864,,,,,,,,,,,8,16,5,8,,,,,,,,,,,,,,,,,,,,,,,,,,,,,,,
58a229e74d580c0001e0a766,SCR,2024-06-25_12h39.44.681,LearnStrategy,2023.2.3,MacIntel,97.08737864,,,,,,,,,,,1,10,6,1,,,,,,,,,,,,,,,,,,,,,,,,,,,,,,,
58a229e74d580c0001e0a766,SCR,2024-06-25_12h39.44.681,LearnStrategy,2023.2.3,MacIntel,97.08737864,,,,,,,,,,,8,02,6,2,,,,,,,,,,,,,,,,,,,,,,,,,,,,,,,
58a229e74d580c0001e0a766,SCR,2024-06-25_12h39.44.681,LearnStrategy,2023.2.3,MacIntel,97.08737864,,,,,,,,,,,7,12,6,3,,,,,,,,,,,,,,,,,,,,,,,,,,,,,,,
58a229e74d580c0001e0a766,SCR,2024-06-25_12h39.44.681,LearnStrategy,2023.2.3,MacIntel,97.08737864,,,,,,,,,,,7,08,6,4,,,,,,,,,,,,,,,,,,,,,,,,,,,,,,,
58a229e74d580c0001e0a766,SCR,2024-06-25_12h39.44.681,LearnStrategy,2023.2.3,MacIntel,97.08737864,,,,,,,,,,,2,02,6,5,,,,,,,,,,,,,,,,,,,,,,,,,,,,,,,
58a229e74d580c0001e0a766,SCR,2024-06-25_12h39.44.681,LearnStrategy,2023.2.3,MacIntel,97.08737864,,,,,,,,,,,2,12,6,6,,,,,,,,,,,,,,,,,,,,,,,,,,,,,,,
58a229e74d580c0001e0a766,SCR,2024-06-25_12h39.44.681,LearnStrategy,2023.2.3,MacIntel,97.08737864,,,,,,,,,,,2,06,6,7,,,,,,,,,,,,,,,,,,,,,,,,,,,,,,,
58a229e74d580c0001e0a766,SCR,2024-06-25_12h39.44.681,LearnStrategy,2023.2.3,MacIntel,97.08737864,,,,,,,,,,,8,04,6,8,,,,,,,,,,,,,,,,,,,,,,,,,,,,,,,