participant,condition,date,expName,psychopyVersion,OS,frameRate,block,phase,trial,learn_mouse_2.x,learn_mouse_2.y,learn_mouse_2.leftButton,learn_mouse_2.midButton,learn_mouse_2.rightButton,learn_mouse_2.time,learn_mouse_2.clicked_name,cat,token,row,col,t_select,cat_mouse_l.x,cat_mouse_l.y,cat_mouse_l.leftButton,cat_mouse_l.midButton,cat_mouse_l.rightButton,cat_mouse_l.time,cat_mouse_l.clicked_name,resp,t_resp,corr,train_trials.thisRepN,train_trials.thisTrialN,train_trials.thisN,train_trials.thisIndex,train_trials.ran,cat_mouse_t.x,cat_mouse_t.y,cat_mouse_t.leftButton,cat_mouse_t.midButton,cat_mouse_t.rightButton,cat_mouse_t.time,cat_mouse_t.clicked_name,test_trials.thisRepN,test_trials.thisTrialN,test_trials.thisN,test_trials.thisIndex,test_trials.ran,Bonus
58a5cf959e040a0001399f07,TCR,2024-06-11_13h09.47.119,LearnStrategy,2023.2.3,Win32,59.52380952,,,,,,,,,,,,,,,,,,,,,,,,,,,,,,,,,,,,,,,,,,,
58a5cf959e040a0001399f07,TCR,2024-06-11_13h09.47.119,LearnStrategy,2023.2.3,Win32,59.52380952,1,1,1,0.031481459,-0.011111111,1,0,0,1.884,rock_grid_rect_2,7,13,-1,-1,1.884,0.115740696,-0.412962986,1,0,0,3.5556,Peridotite_rect,7,3.556,1,0,0,0,0,1,,,,,,,,,,,,,
58a5cf959e040a0001399f07,TCR,2024-06-11_13h09.47.119,LearnStrategy,2023.2.3,Win32,59.52380952,1,1,2,-0.000925903,0.008333333,1,0,0,1.5554,rock_grid_rect_2,8,13,-1,-1,1.555,0.392592502,-0.39259257,1,0,0,3.931,Pumice_rect,8,3.931,1,1,0,1,0,1,,,,,,,,,,,,,
58a5cf959e040a0001399f07,TCR,2024-06-11_13h09.47.119,LearnStrategy,2023.2.3,Win32,59.52380952,1,1,3,0.036111179,-0.009259237,1,0,0,1.011,rock_grid_rect_2,8,02,-1,-1,1.011,0.387036947,-0.410185208,1,0,0,2.4005,Pumice_rect,8,2.4,1,2,0,2,0,1,,,,,,,,,,,,,
58a5cf959e040a0001399f07,TCR,2024-06-11_13h09.47.119,LearnStrategy,2023.2.3,Win32,59.52380952,1,1,4,0.091666667,0.004629652,1,0,0,0.6428,rock_grid_rect_2,5,05,-1,-1,0.643,-0.35,-0.421296319,1,0,0,2.0998,Obsidian_rect,5,2.1,1,3,0,3,0,1,,,,,,,,,,,,,
58a5cf959e040a0001399f07,TCR,2024-06-11_13h09.47.119,LearnStrategy,2023.2.3,Win32,59.52380952,1,1,5,0.089814792,0.00740743,1,0,0,0.9774,rock_grid_rect_2,4,05,-1,-1,0.977,0.144444444,-0.25740743,1,0,0,3.3036,Diorite_rect,3,3.304,0,4,0,4,0,1,,,,,,,,,,,,,
58a5cf959e040a0001399f07,TCR,2024-06-11_13h09.47.119,LearnStrategy,2023.2.3,Win32,59.52380952,1,1,6,-0.016666599,0.009259271,1,0,0,0.9114,rock_grid_rect_2,4,15,-1,-1,0.911,-0.376851874,-0.243518541,1,0,0,1.7414,Andesite_rect,1,1.741,0,5,0,5,0,1,,,,,,,,,,,,,
58a5cf959e040a0001399f07,TCR,2024-06-11_13h09.47.119,LearnStrategy,2023.2.3,Win32,59.52380952,1,1,7,0.013888957,-0.025,1,0,0,0.9106,rock_grid_rect_2,2,16,-1,-1,0.911,0.116666667,-0.265740763,1,0,0,3.4565,Diorite_rect,3,3.457,0,6,0,6,0,1,,,,,,,,,,,,,
58a5cf959e040a0001399f07,TCR,2024-06-11_13h09.47.119,LearnStrategy,2023.2.3,Win32,59.52380952,1,1,8,0.050925903,-0.016666667,1,0,0,1.0098,rock_grid_rect_2,3,02,-1,-1,1.01,0.390740696,-0.235185208,1,0,0,1.7669,Gabbro_rect,4,1.767,0,7,0,7,0,1,,,,,,,,,,,,,
58a5cf959e040a0001399f07,TCR,2024-06-11_13h09.47.119,LearnStrategy,2023.2.3,Win32,59.52380952,1,1,9,0.059259237,0.010185208,1,0,0,0.9768,rock_grid_rect_2,6,12,-1,-1,0.977,-0.140740763,-0.401851874,1,0,0,3.3687,Pegmatite_rect,6,3.369,1,8,0,8,0,1,,,,,,,,,,,,,
58a5cf959e040a0001399f07,TCR,2024-06-11_13h09.47.119,LearnStrategy,2023.2.3,Win32,59.52380952,1,1,10,0.064814792,-0.004629618,1,0,0,0.8252,rock_grid_rect_2,1,11,-1,-1,0.825,-0.124999932,-0.404629652,1,0,0,2.5727,Pegmatite_rect,6,2.573,0,9,0,9,0,1,,,,,,,,,,,,,
58a5cf959e040a0001399f07,TCR,2024-06-11_13h09.47.119,LearnStrategy,2023.2.3,Win32,59.52380952,1,1,11,0.041666734,-0.011111111,1,0,0,1.0129,rock_grid_rect_2,3,10,-1,-1,1.013,0.431481391,-0.249074097,1,0,0,1.3178,Gabbro_rect,4,1.318,0,10,0,10,0,1,,,,,,,,,,,,,
58a5cf959e040a0001399f07,TCR,2024-06-11_13h09.47.119,LearnStrategy,2023.2.3,Win32,59.52380952,1,1,12,-0.030555488,0.016666667,1,0,0,1.0599,rock_grid_rect_2,1,09,-1,-1,1.06,0.109259237,-0.231481459,1,0,0,1.661,Diorite_rect,3,1.661,0,11,0,11,0,1,,,,,,,,,,,,,
58a5cf959e040a0001399f07,TCR,2024-06-11_13h09.47.119,LearnStrategy,2023.2.3,Win32,59.52380952,1,1,13,-0.001851874,-0.012037014,1,0,0,0.8602,rock_grid_rect_2,7,06,-1,-1,0.86,0.377777778,-0.251851874,1,0,0,2.4495,Gabbro_rect,4,2.45,0,12,0,12,0,1,,,,,,,,,,,,,
58a5cf959e040a0001399f07,TCR,2024-06-11_13h09.47.119,LearnStrategy,2023.2.3,Win32,59.52380952,1,1,14,0.081481459,0.017592604,1,0,0,0.8503,rock_grid_rect_2,6,03,-1,-1,0.85,0.139814792,-0.408333401,1,0,0,1.98,Peridotite_rect,7,1.98,0,13,0,13,0,1,,,,,,,,,,,,,
58a5cf959e040a0001399f07,TCR,2024-06-11_13h09.47.119,LearnStrategy,2023.2.3,Win32,59.52380952,1,1,15,0.040740763,0.013888889,1,0,0,0.8934,rock_grid_rect_2,2,08,-1,-1,0.893,-0.122222154,-0.246296319,1,0,0,2.5924,Basalt_rect,2,2.592,1,14,0,14,0,1,,,,,,,,,,,,,
58a5cf959e040a0001399f07,TCR,2024-06-11_13h09.47.119,LearnStrategy,2023.2.3,Win32,59.52380952,1,1,16,-0.003703681,0.017592604,1,0,0,0.6451,rock_grid_rect_2,5,08,-1,-1,0.645,-0.375925937,-0.401851874,1,0,0,1.0774,Obsidian_rect,5,1.077,1,15,0,15,0,1,,,,,,,,,,,,,
58a5cf959e040a0001399f07,TCR,2024-06-11_13h09.47.119,LearnStrategy,2023.2.3,Win32,59.52380952,1,2,1,,,,,,,,3,15,,,,,,,,,,,4,2.347,0,,,,,,0.41018514,-0.251851874,1,0,0,2.3469,Gabbro_rect,0,0,0,0,1,
58a5cf959e040a0001399f07,TCR,2024-06-11_13h09.47.119,LearnStrategy,2023.2.3,Win32,59.52380952,1,2,2,,,,,,,,3,07,,,,,,,,,,,1,2.774,0,,,,,,-0.312962986,-0.248148126,1,0,0,2.7736,Andesite_rect,1,0,1,0,1,
58a5cf959e040a0001399f07,TCR,2024-06-11_13h09.47.119,LearnStrategy,2023.2.3,Win32,59.52380952,1,2,3,,,,,,,,8,09,,,,,,,,,,,8,2.227,1,,,,,,0.372222222,-0.380555623,1,0,0,2.227,Pumice_rect,2,0,2,0,1,
58a5cf959e040a0001399f07,TCR,2024-06-11_13h09.47.119,LearnStrategy,2023.2.3,Win32,59.52380952,1,2,4,,,,,,,,7,05,,,,,,,,,,,7,1.792,1,,,,,,0.188888889,-0.386111179,1,0,0,1.7916,Peridotite_rect,3,0,3,0,1,
58a5cf959e040a0001399f07,TCR,2024-06-11_13h09.47.119,LearnStrategy,2023.2.3,Win32,59.52380952,1,2,5,,,,,,,,2,12,,,,,,,,,,,8,2.007,0,,,,,,0.396296251,-0.401851874,1,0,0,2.0068,Pumice_rect,4,0,4,0,1,
58a5cf959e040a0001399f07,TCR,2024-06-11_13h09.47.119,LearnStrategy,2023.2.3,Win32,59.52380952,1,2,6,,,,,,,,6,16,,,,,,,,,,,6,2.631,1,,,,,,-0.097222154,-0.396296319,1,0,0,2.631,Pegmatite_rect,5,0,5,0,1,
58a5cf959e040a0001399f07,TCR,2024-06-11_13h09.47.119,LearnStrategy,2023.2.3,Win32,59.52380952,1,2,7,,,,,,,,1,01,,,,,,,,,,,3,3.491,0,,,,,,0.162962918,-0.241666734,1,0,0,3.4908,Diorite_rect,6,0,6,0,1,
58a5cf959e040a0001399f07,TCR,2024-06-11_13h09.47.119,LearnStrategy,2023.2.3,Win32,59.52380952,1,2,8,,,,,,,,8,04,,,,,,,,,,,8,1.25,1,,,,,,0.347222222,-0.394444512,1,0,0,1.2497,Pumice_rect,7,0,7,0,1,
58a5cf959e040a0001399f07,TCR,2024-06-11_13h09.47.119,LearnStrategy,2023.2.3,Win32,59.52380952,1,2,9,,,,,,,,5,06,,,,,,,,,,,5,1.916,1,,,,,,-0.345370382,-0.390740763,1,0,0,1.9155,Obsidian_rect,8,0,8,0,1,
58a5cf959e040a0001399f07,TCR,2024-06-11_13h09.47.119,LearnStrategy,2023.2.3,Win32,59.52380952,1,2,10,,,,,,,,4,01,,,,,,,,,,,4,3.239,1,,,,,,0.397222222,-0.228703681,1,0,0,3.2395,Gabbro_rect,9,0,9,0,1,
58a5cf959e040a0001399f07,TCR,2024-06-11_13h09.47.119,LearnStrategy,2023.2.3,Win32,59.52380952,1,2,11,,,,,,,,5,02,,,,,,,,,,,5,1.388,1,,,,,,-0.350925937,-0.381481459,1,0,0,1.3884,Obsidian_rect,10,0,10,0,1,
58a5cf959e040a0001399f07,TCR,2024-06-11_13h09.47.119,LearnStrategy,2023.2.3,Win32,59.52380952,1,2,12,,,,,,,,2,10,,,,,,,,,,,4,6.084,0,,,,,,0.450925836,-0.239814792,1,0,0,6.0836,Gabbro_rect,11,0,11,0,1,
58a5cf959e040a0001399f07,TCR,2024-06-11_13h09.47.119,LearnStrategy,2023.2.3,Win32,59.52380952,1,2,13,,,,,,,,4,16,,,,,,,,,,,4,7.542,1,,,,,,0.422222222,-0.239814792,1,0,0,7.5421,Gabbro_rect,12,0,12,0,1,
58a5cf959e040a0001399f07,TCR,2024-06-11_13h09.47.119,LearnStrategy,2023.2.3,Win32,59.52380952,1,2,14,,,,,,,,6,13,,,,,,,,,,,6,1.532,1,,,,,,-0.099999932,-0.380555623,1,0,0,1.5318,Pegmatite_rect,13,0,13,0,1,
58a5cf959e040a0001399f07,TCR,2024-06-11_13h09.47.119,LearnStrategy,2023.2.3,Win32,59.52380952,1,2,15,,,,,,,,7,10,,,,,,,,,,,7,2.357,1,,,,,,0.159259237,-0.400925903,1,0,0,2.3568,Peridotite_rect,14,0,14,0,1,
58a5cf959e040a0001399f07,TCR,2024-06-11_13h09.47.119,LearnStrategy,2023.2.3,Win32,59.52380952,1,2,16,,,,,,,,1,04,,,,,,,,,,,1,2.047,1,,,,,,-0.372222222,-0.252777846,1,0,0,2.0466,Andesite_rect,15,0,15,0,1,
58a5cf959e040a0001399f07,TCR,2024-06-11_13h09.47.119,LearnStrategy,2023.2.3,Win32,59.52380952,2,1,1,-0.005555488,-0.011111111,1,0,0,1.3773,rock_grid_rect_2,6,05,-1,-1,1.377,-0.131481459,-0.386111179,1,0,0,1.4272,Pegmatite_rect,6,1.427,1,0,0,0,0,1,,,,,,,,,,,,,
58a5cf959e040a0001399f07,TCR,2024-06-11_13h09.47.119,LearnStrategy,2023.2.3,Win32,59.52380952,2,1,2,0.036111179,-0.009259237,1,0,0,0.9103,rock_grid_rect_2,1,02,-1,-1,0.91,-0.400925937,-0.235185208,1,0,0,1.2363,Andesite_rect,1,1.236,1,1,0,1,0,1,,,,,,,,,,,,,
58a5cf959e040a0001399f07,TCR,2024-06-11_13h09.47.119,LearnStrategy,2023.2.3,Win32,59.52380952,2,1,3,0.081481459,0.003703715,1,0,0,0.8767,rock_grid_rect_2,3,10,-1,-1,0.877,0.456481391,-0.256481459,1,0,0,1.4582,Gabbro_rect,4,1.458,0,2,0,2,0,1,,,,,,,,,,,,,
58a5cf959e040a0001399f07,TCR,2024-06-11_13h09.47.119,LearnStrategy,2023.2.3,Win32,59.52380952,2,1,4,0.062037014,0.005555556,1,0,0,0.9262,rock_grid_rect_2,3,02,-1,-1,0.926,0.323148058,-0.258333401,1,0,0,4.593,Gabbro_rect,4,4.593,0,3,0,3,0,1,,,,,,,,,,,,,
58a5cf959e040a0001399f07,TCR,2024-06-11_13h09.47.119,LearnStrategy,2023.2.3,Win32,59.52380952,2,1,5,0.023148126,-0.020370348,1,0,0,0.8425,rock_grid_rect_2,5,04,-1,-1,0.843,-0.361111111,-0.420370348,1,0,0,1.0946,Obsidian_rect,5,1.095,1,4,0,4,0,1,,,,,,,,,,,,,
58a5cf959e040a0001399f07,TCR,2024-06-11_13h09.47.119,LearnStrategy,2023.2.3,Win32,59.52380952,2,1,6,0.069444444,-0.002777778,1,0,0,1.0098,rock_grid_rect_2,2,02,-1,-1,1.01,-0.114814792,-0.241666734,1,0,0,1.8232,Basalt_rect,2,1.823,1,5,0,5,0,1,,,,,,,,,,,,,
58a5cf959e040a0001399f07,TCR,2024-06-11_13h09.47.119,LearnStrategy,2023.2.3,Win32,59.52380952,2,1,7,-0.014814792,-0.001851841,1,0,0,0.926,rock_grid_rect_2,2,06,-1,-1,0.926,-0.088888821,-0.254629652,1,0,0,1.1153,Basalt_rect,2,1.115,1,6,0,6,0,1,,,,,,,,,,,,,
58a5cf959e040a0001399f07,TCR,2024-06-11_13h09.47.119,LearnStrategy,2023.2.3,Win32,59.52380952,2,1,8,0.011111179,-0.004629618,1,0,0,0.9447,rock_grid_rect_2,3,02,-1,-1,0.945,0.18518514,-0.243518541,1,0,0,1.0509,Diorite_rect,3,1.051,1,7,0,7,0,1,,,,,,,,,,,,,
58a5cf959e040a0001399f07,TCR,2024-06-11_13h09.47.119,LearnStrategy,2023.2.3,Win32,59.52380952,2,1,9,-0.023148126,-0.002777778,1,0,0,0.8275,rock_grid_rect_2,8,15,-1,-1,0.827,0.457407362,-0.400000068,1,0,0,1.0793,Pumice_rect,8,1.079,1,8,0,8,0,1,,,,,,,,,,,,,
58a5cf959e040a0001399f07,TCR,2024-06-11_13h09.47.119,LearnStrategy,2023.2.3,Win32,59.52380952,2,1,10,0.021296319,-0.006481459,1,0,0,1.0473,rock_grid_rect_2,7,06,-1,-1,1.047,0.118518473,-0.393518541,1,0,0,1.775,Peridotite_rect,7,1.775,1,9,0,9,0,1,,,,,,,,,,,,,
58a5cf959e040a0001399f07,TCR,2024-06-11_13h09.47.119,LearnStrategy,2023.2.3,Win32,59.52380952,2,1,11,0.016666734,0.011111111,1,0,0,0.8955,rock_grid_rect_2,4,12,-1,-1,0.896,-0.038888821,-0.255555623,1,0,0,1.36,Basalt_rect,2,1.36,0,10,0,10,0,1,,,,,,,,,,,,,
58a5cf959e040a0001399f07,TCR,2024-06-11_13h09.47.119,LearnStrategy,2023.2.3,Win32,59.52380952,2,1,12,0.06759257,0.009259271,1,0,0,1.3111,rock_grid_rect_2,1,06,-1,-1,1.311,-0.364814826,-0.250925903,1,0,0,2.8796,Andesite_rect,1,2.88,1,11,0,11,0,1,,,,,,,,,,,,,
58a5cf959e040a0001399f07,TCR,2024-06-11_13h09.47.119,LearnStrategy,2023.2.3,Win32,59.52380952,2,1,13,0.038888957,-0.005555556,1,0,0,0.6777,rock_grid_rect_2,2,06,-1,-1,0.678,-0.105555488,-0.244444512,1,0,0,1.9617,Basalt_rect,2,1.962,1,12,0,12,0,1,,,,,,,,,,,,,
58a5cf959e040a0001399f07,TCR,2024-06-11_13h09.47.119,LearnStrategy,2023.2.3,Win32,59.52380952,2,1,14,0.013888957,-0.006481459,1,0,0,0.993,rock_grid_rect_2,3,02,-1,-1,0.993,0.109259237,-0.240740763,1,0,0,1.0884,Diorite_rect,3,1.088,1,13,0,13,0,1,,,,,,,,,,,,,
58a5cf959e040a0001399f07,TCR,2024-06-11_13h09.47.119,LearnStrategy,2023.2.3,Win32,59.52380952,2,1,15,0.041666734,-0.004629618,1,0,0,0.6941,rock_grid_rect_2,3,16,-1,-1,0.694,-0.377777778,-0.262037014,1,0,0,1.7607,Andesite_rect,1,1.761,0,14,0,14,0,1,,,,,,,,,,,,,
58a5cf959e040a0001399f07,TCR,2024-06-11_13h09.47.119,LearnStrategy,2023.2.3,Win32,59.52380952,2,1,16,0.148148126,0.005555556,1,0,0,0.9104,rock_grid_rect_2,2,16,-1,-1,0.91,-0.059259237,-0.241666734,1,0,0,0.9357,Basalt_rect,2,0.936,1,15,0,15,0,1,,,,,,,,,,,,,
58a5cf959e040a0001399f07,TCR,2024-06-11_13h09.47.119,LearnStrategy,2023.2.3,Win32,59.52380952,2,2,1,,,,,,,,3,11,,,,,,,,,,,1,2.373,0,,,,,,-0.341666667,-0.261111179,1,0,0,2.3733,Andesite_rect,0,0,0,0,1,
58a5cf959e040a0001399f07,TCR,2024-06-11_13h09.47.119,LearnStrategy,2023.2.3,Win32,59.52380952,2,2,2,,,,,,,,8,05,,,,,,,,,,,8,1.217,1,,,,,,0.381481391,-0.389814792,1,0,0,1.217,Pumice_rect,1,0,1,0,1,
58a5cf959e040a0001399f07,TCR,2024-06-11_13h09.47.119,LearnStrategy,2023.2.3,Win32,59.52380952,2,2,3,,,,,,,,6,10,,,,,,,,,,,7,1.104,0,,,,,,0.139814792,-0.400925903,1,0,0,1.1036,Peridotite_rect,2,0,2,0,1,
58a5cf959e040a0001399f07,TCR,2024-06-11_13h09.47.119,LearnStrategy,2023.2.3,Win32,59.52380952,2,2,4,,,,,,,,4,14,,,,,,,,,,,3,1.709,0,,,,,,0.089814792,-0.243518541,1,0,0,1.7095,Diorite_rect,3,0,3,0,1,
58a5cf959e040a0001399f07,TCR,2024-06-11_13h09.47.119,LearnStrategy,2023.2.3,Win32,59.52380952,2,2,5,,,,,,,,1,05,,,,,,,,,,,7,3.001,0,,,,,,0.132407362,-0.396296319,1,0,0,3.0012,Peridotite_rect,4,0,4,0,1,
58a5cf959e040a0001399f07,TCR,2024-06-11_13h09.47.119,LearnStrategy,2023.2.3,Win32,59.52380952,2,2,6,,,,,,,,8,08,,,,,,,,,,,8,1.207,1,,,,,,0.387036947,-0.413888957,1,0,0,1.2066,Pumice_rect,5,0,5,0,1,
58a5cf959e040a0001399f07,TCR,2024-06-11_13h09.47.119,LearnStrategy,2023.2.3,Win32,59.52380952,2,2,7,,,,,,,,7,16,,,,,,,,,,,7,1.681,1,,,,,,0.137037014,-0.395370348,1,0,0,1.6814,Peridotite_rect,6,0,6,0,1,
58a5cf959e040a0001399f07,TCR,2024-06-11_13h09.47.119,LearnStrategy,2023.2.3,Win32,59.52380952,2,2,8,,,,,,,,6,07,,,,,,,,,,,6,2.622,1,,,,,,-0.195370416,-0.399074097,1,0,0,2.6218,Pegmatite_rect,7,0,7,0,1,
58a5cf959e040a0001399f07,TCR,2024-06-11_13h09.47.119,LearnStrategy,2023.2.3,Win32,59.52380952,2,2,9,,,,,,,,1,10,,,,,,,,,,,1,5.782,1,,,,,,-0.417592604,-0.25740743,1,0,0,5.7825,Andesite_rect,8,0,8,0,1,
58a5cf959e040a0001399f07,TCR,2024-06-11_13h09.47.119,LearnStrategy,2023.2.3,Win32,59.52380952,2,2,10,,,,,,,,7,04,,,,,,,,,,,3,2.203,0,,,,,,0.099074029,-0.24722229,1,0,0,2.2033,Diorite_rect,9,0,9,0,1,
58a5cf959e040a0001399f07,TCR,2024-06-11_13h09.47.119,LearnStrategy,2023.2.3,Win32,59.52380952,2,2,11,,,,,,,,2,01,,,,,,,,,,,2,1.136,1,,,,,,-0.137962986,-0.249074097,1,0,0,1.1364,Basalt_rect,10,0,10,0,1,
58a5cf959e040a0001399f07,TCR,2024-06-11_13h09.47.119,LearnStrategy,2023.2.3,Win32,59.52380952,2,2,12,,,,,,,,5,10,,,,,,,,,,,5,1.143,1,,,,,,-0.380555556,-0.39259257,1,0,0,1.1428,Obsidian_rect,11,0,11,0,1,
58a5cf959e040a0001399f07,TCR,2024-06-11_13h09.47.119,LearnStrategy,2023.2.3,Win32,59.52380952,2,2,13,,,,,,,,3,09,,,,,,,,,,,1,3.915,0,,,,,,-0.378703715,-0.236111179,1,0,0,3.9153,Andesite_rect,12,0,12,0,1,
58a5cf959e040a0001399f07,TCR,2024-06-11_13h09.47.119,LearnStrategy,2023.2.3,Win32,59.52380952,2,2,14,,,,,,,,4,03,,,,,,,,,,,3,2.644,0,,,,,,0.196296251,-0.269444512,1,0,0,2.6438,Diorite_rect,13,0,13,0,1,
58a5cf959e040a0001399f07,TCR,2024-06-11_13h09.47.119,LearnStrategy,2023.2.3,Win32,59.52380952,2,2,15,,,,,,,,5,07,,,,,,,,,,,5,1.106,1,,,,,,-0.416666633,-0.391666734,1,0,0,1.106,Obsidian_rect,14,0,14,0,1,
58a5cf959e040a0001399f07,TCR,2024-06-11_13h09.47.119,LearnStrategy,2023.2.3,Win32,59.52380952,2,2,16,,,,,,,,2,04,,,,,,,,,,,2,1.158,1,,,,,,-0.126851874,-0.260185208,1,0,0,1.1575,Basalt_rect,15,0,15,0,1,
58a5cf959e040a0001399f07,TCR,2024-06-11_13h09.47.119,LearnStrategy,2023.2.3,Win32,59.52380952,3,1,1,0.039814792,-0.004629618,1,0,0,1.0106,rock_grid_rect_2,3,13,-1,-1,1.011,-0.371296319,-0.231481459,1,0,0,2.5258,Andesite_rect,1,2.526,0,0,0,0,0,1,,,,,,,,,,,,,
58a5cf959e040a0001399f07,TCR,2024-06-11_13h09.47.119,LearnStrategy,2023.2.3,Win32,59.52380952,3,1,2,-0.011111043,-0.006481459,1,0,0,0.8935,rock_grid_rect_2,4,09,-1,-1,0.894,0.430555556,-0.253703681,1,0,0,4.1617,Gabbro_rect,4,4.162,1,1,0,1,0,1,,,,,,,,,,,,,
58a5cf959e040a0001399f07,TCR,2024-06-11_13h09.47.119,LearnStrategy,2023.2.3,Win32,59.52380952,3,1,3,-0.080555488,-0.001851841,1,0,0,0.7412,rock_grid_rect_2,4,12,-1,-1,0.741,0.312962918,-0.250000068,1,0,0,1.8529,Gabbro_rect,4,1.853,1,2,0,2,0,1,,,,,,,,,,,,,
58a5cf959e040a0001399f07,TCR,2024-06-11_13h09.47.119,LearnStrategy,2023.2.3,Win32,59.52380952,3,1,4,-0.05277771,-0.008333333,1,0,0,1.127,rock_grid_rect_2,3,16,-1,-1,1.127,0.147222222,-0.250000068,1,0,0,1.9337,Diorite_rect,3,1.934,1,3,0,3,0,1,,,,,,,,,,,,,
58a5cf959e040a0001399f07,TCR,2024-06-11_13h09.47.119,LearnStrategy,2023.2.3,Win32,59.52380952,3,1,5,-0.009259237,-0.008333333,1,0,0,0.6608,rock_grid_rect_2,8,13,-1,-1,0.661,0.376851807,-0.411111179,1,0,0,1.8182,Pumice_rect,8,1.818,1,4,0,4,0,1,,,,,,,,,,,,,
58a5cf959e040a0001399f07,TCR,2024-06-11_13h09.47.119,LearnStrategy,2023.2.3,Win32,59.52380952,3,1,6,0.02222229,-0.005555556,1,0,0,1.1808,rock_grid_rect_2,1,09,-1,-1,1.181,-0.373148159,-0.236111179,1,0,0,2.089,Andesite_rect,1,2.089,1,5,0,5,0,1,,,,,,,,,,,,,
58a5cf959e040a0001399f07,TCR,2024-06-11_13h09.47.119,LearnStrategy,2023.2.3,Win32,59.52380952,3,1,7,0.063888889,-0.007407396,1,0,0,0.8112,rock_grid_rect_2,2,16,-1,-1,0.811,-0.098148126,-0.259259237,1,0,0,1.4558,Basalt_rect,2,1.456,1,6,0,6,0,1,,,,,,,,,,,,,
58a5cf959e040a0001399f07,TCR,2024-06-11_13h09.47.119,LearnStrategy,2023.2.3,Win32,59.52380952,3,1,8,0.01759257,-0.015740729,1,0,0,1.0777,rock_grid_rect_2,3,10,-1,-1,1.078,0.157407362,-0.228703681,1,0,0,1.2941,Diorite_rect,3,1.294,1,7,0,7,0,1,,,,,,,,,,,,,
58a5cf959e040a0001399f07,TCR,2024-06-11_13h09.47.119,LearnStrategy,2023.2.3,Win32,59.52380952,3,1,9,0.002777846,-0.025,1,0,0,0.6441,rock_grid_rect_2,6,03,-1,-1,0.644,0.086111111,-0.386111179,1,0,0,1.1757,Peridotite_rect,7,1.176,0,8,0,8,0,1,,,,,,,,,,,,,
58a5cf959e040a0001399f07,TCR,2024-06-11_13h09.47.119,LearnStrategy,2023.2.3,Win32,59.52380952,3,1,10,0.024074097,-0.012037014,1,0,0,0.8442,rock_grid_rect_2,4,09,-1,-1,0.844,0.363888889,-0.244444512,1,0,0,2.0453,Gabbro_rect,4,2.045,1,9,0,9,0,1,,,,,,,,,,,,,
58a5cf959e040a0001399f07,TCR,2024-06-11_13h09.47.119,LearnStrategy,2023.2.3,Win32,59.52380952,3,1,11,-0.035185208,-0.004629618,1,0,0,0.7775,rock_grid_rect_2,3,12,-1,-1,0.777,-0.386111111,-0.250000068,1,0,0,1.4624,Andesite_rect,1,1.462,0,10,0,10,0,1,,,,,,,,,,,,,
58a5cf959e040a0001399f07,TCR,2024-06-11_13h09.47.119,LearnStrategy,2023.2.3,Win32,59.52380952,3,1,12,0.023148126,0.012962986,1,0,0,0.6136,rock_grid_rect_2,3,02,-1,-1,0.614,0.075,-0.238888957,1,0,0,1.0993,Diorite_rect,3,1.099,1,11,0,11,0,1,,,,,,,,,,,,,
58a5cf959e040a0001399f07,TCR,2024-06-11_13h09.47.119,LearnStrategy,2023.2.3,Win32,59.52380952,3,1,13,-0.022222154,0.014814826,1,0,0,0.6952,rock_grid_rect_2,6,09,-1,-1,0.695,-0.080555488,-0.400000068,1,0,0,1.8108,Pegmatite_rect,6,1.811,1,12,0,12,0,1,,,,,,,,,,,,,
58a5cf959e040a0001399f07,TCR,2024-06-11_13h09.47.119,LearnStrategy,2023.2.3,Win32,59.52380952,3,1,14,0.069444444,0.020370382,1,0,0,0.8117,rock_grid_rect_2,7,13,-1,-1,0.812,0.088888889,-0.421296319,1,0,0,0.9907,Peridotite_rect,7,0.991,1,13,0,13,0,1,,,,,,,,,,,,,
58a5cf959e040a0001399f07,TCR,2024-06-11_13h09.47.119,LearnStrategy,2023.2.3,Win32,59.52380952,3,1,15,0.002777846,0.014814826,1,0,0,0.9804,rock_grid_rect_2,1,03,-1,-1,0.98,0.421296251,-0.251851874,1,0,0,1.8119,Gabbro_rect,4,1.812,0,14,0,14,0,1,,,,,,,,,,,,,
58a5cf959e040a0001399f07,TCR,2024-06-11_13h09.47.119,LearnStrategy,2023.2.3,Win32,59.52380952,3,1,16,0.030555623,-0.003703681,1,0,0,0.8764,rock_grid_rect_2,7,07,-1,-1,0.876,0.125,-0.411111179,1,0,0,2.8351,Peridotite_rect,7,2.835,1,15,0,15,0,1,,,,,,,,,,,,,
58a5cf959e040a0001399f07,TCR,2024-06-11_13h09.47.119,LearnStrategy,2023.2.3,Win32,59.52380952,3,2,1,,,,,,,,7,15,,,,,,,,,,,7,0.976,1,,,,,,0.079629584,-0.412962986,1,0,0,0.9757,Peridotite_rect,0,0,0,0,1,
58a5cf959e040a0001399f07,TCR,2024-06-11_13h09.47.119,LearnStrategy,2023.2.3,Win32,59.52380952,3,2,2,,,,,,,,7,08,,,,,,,,,,,7,1.251,1,,,,,,0.119444444,-0.396296319,1,0,0,1.2512,Peridotite_rect,1,0,1,0,1,
58a5cf959e040a0001399f07,TCR,2024-06-11_13h09.47.119,LearnStrategy,2023.2.3,Win32,59.52380952,3,2,3,,,,,,,,4,13,,,,,,,,,,,3,3.882,0,,,,,,0.06759257,-0.24722229,1,0,0,3.882,Diorite_rect,2,0,2,0,1,
58a5cf959e040a0001399f07,TCR,2024-06-11_13h09.47.119,LearnStrategy,2023.2.3,Win32,59.52380952,3,2,4,,,,,,,,2,11,,,,,,,,,,,8,1.761,0,,,,,,0.373148058,-0.405555623,1,0,0,1.7609,Pumice_rect,3,0,3,0,1,
58a5cf959e040a0001399f07,TCR,2024-06-11_13h09.47.119,LearnStrategy,2023.2.3,Win32,59.52380952,3,2,5,,,,,,,,3,06,,,,,,,,,,,1,2.936,0,,,,,,-0.440740729,-0.249074097,1,0,0,2.9359,Andesite_rect,4,0,4,0,1,
58a5cf959e040a0001399f07,TCR,2024-06-11_13h09.47.119,LearnStrategy,2023.2.3,Win32,59.52380952,3,2,6,,,,,,,,8,06,,,,,,,,,,,8,1.32,1,,,,,,0.402777778,-0.393518541,1,0,0,1.32,Pumice_rect,5,0,5,0,1,
58a5cf959e040a0001399f07,TCR,2024-06-11_13h09.47.119,LearnStrategy,2023.2.3,Win32,59.52380952,3,2,7,,,,,,,,6,06,,,,,,,,,,,6,1.794,1,,,,,,-0.188888889,-0.409259237,1,0,0,1.7942,Pegmatite_rect,6,0,6,0,1,
58a5cf959e040a0001399f07,TCR,2024-06-11_13h09.47.119,LearnStrategy,2023.2.3,Win32,59.52380952,3,2,8,,,,,,,,5,09,,,,,,,,,,,5,1.143,1,,,,,,-0.393518541,-0.416666734,1,0,0,1.1429,Obsidian_rect,7,0,7,0,1,
58a5cf959e040a0001399f07,TCR,2024-06-11_13h09.47.119,LearnStrategy,2023.2.3,Win32,59.52380952,3,2,9,,,,,,,,8,03,,,,,,,,,,,8,1.087,1,,,,,,0.462036947,-0.395370348,1,0,0,1.0872,Pumice_rect,8,0,8,0,1,
58a5cf959e040a0001399f07,TCR,2024-06-11_13h09.47.119,LearnStrategy,2023.2.3,Win32,59.52380952,3,2,10,,,,,,,,4,08,,,,,,,,,,,4,1.555,1,,,,,,0.338888889,-0.24259257,1,0,0,1.5555,Gabbro_rect,9,0,9,0,1,
58a5cf959e040a0001399f07,TCR,2024-06-11_13h09.47.119,LearnStrategy,2023.2.3,Win32,59.52380952,3,2,11,,,,,,,,3,14,,,,,,,,,,,3,1.87,1,,,,,,0.150925903,-0.25740743,1,0,0,1.87,Diorite_rect,10,0,10,0,1,
58a5cf959e040a0001399f07,TCR,2024-06-11_13h09.47.119,LearnStrategy,2023.2.3,Win32,59.52380952,3,2,12,,,,,,,,1,16,,,,,,,,,,,1,3.478,1,,,,,,-0.429629618,-0.253703681,1,0,0,3.4785,Andesite_rect,11,0,11,0,1,
58a5cf959e040a0001399f07,TCR,2024-06-11_13h09.47.119,LearnStrategy,2023.2.3,Win32,59.52380952,3,2,13,,,,,,,,5,16,,,,,,,,,,,5,0.99,1,,,,,,-0.442592604,-0.41759257,1,0,0,0.9896,Obsidian_rect,12,0,12,0,1,
58a5cf959e040a0001399f07,TCR,2024-06-11_13h09.47.119,LearnStrategy,2023.2.3,Win32,59.52380952,3,2,14,,,,,,,,2,14,,,,,,,,,,,4,3.86,0,,,,,,0.450925836,-0.244444512,1,0,0,3.8603,Gabbro_rect,13,0,13,0,1,
58a5cf959e040a0001399f07,TCR,2024-06-11_13h09.47.119,LearnStrategy,2023.2.3,Win32,59.52380952,3,2,15,,,,,,,,1,14,,,,,,,,,,,3,2.702,0,,,,,,0.162037014,-0.262037014,1,0,0,2.7015,Diorite_rect,14,0,14,0,1,
58a5cf959e040a0001399f07,TCR,2024-06-11_13h09.47.119,LearnStrategy,2023.2.3,Win32,59.52380952,3,2,16,,,,,,,,6,15,,,,,,,,,,,6,1.259,1,,,,,,-0.12777771,-0.411111179,1,0,0,1.2589,Pegmatite_rect,15,0,15,0,1,
58a5cf959e040a0001399f07,TCR,2024-06-11_13h09.47.119,LearnStrategy,2023.2.3,Win32,59.52380952,4,1,1,0.06018514,0.003703715,1,0,0,1.1546,rock_grid_rect_2,1,06,-1,-1,1.155,0.144444444,-0.241666734,1,0,0,2.0239,Diorite_rect,3,2.024,0,0,0,0,0,1,,,,,,,,,,,,,
58a5cf959e040a0001399f07,TCR,2024-06-11_13h09.47.119,LearnStrategy,2023.2.3,Win32,59.52380952,4,1,2,-0.022222154,-0.013888889,1,0,0,0.9641,rock_grid_rect_2,1,06,-1,-1,0.964,-0.339814826,-0.241666734,1,0,0,0.9802,Andesite_rect,1,0.98,1,1,0,1,0,1,,,,,,,,,,,,,
58a5cf959e040a0001399f07,TCR,2024-06-11_13h09.47.119,LearnStrategy,2023.2.3,Win32,59.52380952,4,1,3,-0.02777771,0.015740763,1,0,0,0.8623,rock_grid_rect_2,3,10,-1,-1,0.862,0.043518541,-0.23240743,1,0,0,1.1194,Diorite_rect,3,1.119,1,2,0,2,0,1,,,,,,,,,,,,,
58a5cf959e040a0001399f07,TCR,2024-06-11_13h09.47.119,LearnStrategy,2023.2.3,Win32,59.52380952,4,1,4,-0.015740763,-0.002777778,1,0,0,0.71,rock_grid_rect_2,4,05,-1,-1,0.71,0.387962918,-0.246296319,1,0,0,1.2456,Gabbro_rect,4,1.246,1,3,0,3,0,1,,,,,,,,,,,,,
58a5cf959e040a0001399f07,TCR,2024-06-11_13h09.47.119,LearnStrategy,2023.2.3,Win32,59.52380952,4,1,5,-0.050925903,0.022222222,1,0,0,0.6771,rock_grid_rect_2,3,13,-1,-1,0.677,0.140740696,-0.262037014,1,0,0,2.144,Diorite_rect,3,2.144,1,4,0,4,0,1,,,,,,,,,,,,,
58a5cf959e040a0001399f07,TCR,2024-06-11_13h09.47.119,LearnStrategy,2023.2.3,Win32,59.52380952,4,1,6,0.010185208,0.016666667,1,0,0,0.8616,rock_grid_rect_2,3,16,-1,-1,0.862,0.153703681,-0.249074097,1,0,0,1.1774,Diorite_rect,3,1.177,1,5,0,5,0,1,,,,,,,,,,,,,
58a5cf959e040a0001399f07,TCR,2024-06-11_13h09.47.119,LearnStrategy,2023.2.3,Win32,59.52380952,4,1,7,0.024074097,-0.007407396,1,0,0,0.6445,rock_grid_rect_2,8,13,-1,-1,0.645,0.412962918,-0.389814792,1,0,0,1.1452,Pumice_rect,8,1.145,1,6,0,6,0,1,,,,,,,,,,,,,
58a5cf959e040a0001399f07,TCR,2024-06-11_13h09.47.119,LearnStrategy,2023.2.3,Win32,59.52380952,4,1,8,0.013888957,-0.003703681,1,0,0,1.1773,rock_grid_rect_2,6,08,-1,-1,1.177,-0.088888821,-0.391666734,1,0,0,1.4018,Pegmatite_rect,6,1.402,1,7,0,7,0,1,,,,,,,,,,,,,
58a5cf959e040a0001399f07,TCR,2024-06-11_13h09.47.119,LearnStrategy,2023.2.3,Win32,59.52380952,4,1,9,0.020370348,-0.006481459,1,0,0,0.9452,rock_grid_rect_2,2,09,-1,-1,0.945,-0.094444377,-0.24259257,1,0,0,1.1156,Basalt_rect,2,1.116,1,8,0,8,0,1,,,,,,,,,,,,,
58a5cf959e040a0001399f07,TCR,2024-06-11_13h09.47.119,LearnStrategy,2023.2.3,Win32,59.52380952,4,1,10,-0.004629652,0.017592604,1,0,0,0.7771,rock_grid_rect_2,2,06,-1,-1,0.777,-0.08240743,-0.243518541,1,0,0,0.9319,Basalt_rect,2,0.932,1,9,0,9,0,1,,,,,,,,,,,,,
58a5cf959e040a0001399f07,TCR,2024-06-11_13h09.47.119,LearnStrategy,2023.2.3,Win32,59.52380952,4,1,11,-0.06759257,-0.01759257,1,0,0,0.8282,rock_grid_rect_2,4,05,-1,-1,0.828,0.382407362,-0.238888957,1,0,0,1.3754,Gabbro_rect,4,1.375,1,10,0,10,0,1,,,,,,,,,,,,,
58a5cf959e040a0001399f07,TCR,2024-06-11_13h09.47.119,LearnStrategy,2023.2.3,Win32,59.52380952,4,1,12,-0.047222154,0.000925937,1,0,0,0.8785,rock_grid_rect_2,4,10,-1,-1,0.879,0.37037028,-0.259259237,1,0,0,1.8625,Gabbro_rect,4,1.862,1,11,0,11,0,1,,,,,,,,,,,,,
58a5cf959e040a0001399f07,TCR,2024-06-11_13h09.47.119,LearnStrategy,2023.2.3,Win32,59.52380952,4,1,13,-0.020370348,-0.003703681,1,0,0,1.2271,rock_grid_rect_2,7,07,-1,-1,1.227,0.108333333,-0.387962986,1,0,0,1.34,Peridotite_rect,7,1.34,1,12,0,12,0,1,,,,,,,,,,,,,
58a5cf959e040a0001399f07,TCR,2024-06-11_13h09.47.119,LearnStrategy,2023.2.3,Win32,59.52380952,4,1,14,-0.012962986,-0.012037014,1,0,0,1.1143,rock_grid_rect_2,1,07,-1,-1,1.114,0.078703681,-0.245370348,1,0,0,2.3571,Diorite_rect,3,2.357,0,13,0,13,0,1,,,,,,,,,,,,,
58a5cf959e040a0001399f07,TCR,2024-06-11_13h09.47.119,LearnStrategy,2023.2.3,Win32,59.52380952,4,1,15,-0.022222154,0.023148159,1,0,0,0.6267,rock_grid_rect_2,3,12,-1,-1,0.627,0.083333333,-0.266666734,1,0,0,1.3328,Diorite_rect,3,1.333,1,14,0,14,0,1,,,,,,,,,,,,,
58a5cf959e040a0001399f07,TCR,2024-06-11_13h09.47.119,LearnStrategy,2023.2.3,Win32,59.52380952,4,1,16,0.04259257,0,1,0,0,0.6269,rock_grid_rect_2,2,02,-1,-1,0.627,-0.112962986,-0.256481459,1,0,0,1.0555,Basalt_rect,2,1.056,1,15,0,15,0,1,,,,,,,,,,,,,
58a5cf959e040a0001399f07,TCR,2024-06-11_13h09.47.119,LearnStrategy,2023.2.3,Win32,59.52380952,4,2,1,,,,,,,,5,09,,,,,,,,,,,5,1.084,1,,,,,,-0.377777778,-0.396296319,1,0,0,1.0839,Obsidian_rect,0,0,0,0,1,
58a5cf959e040a0001399f07,TCR,2024-06-11_13h09.47.119,LearnStrategy,2023.2.3,Win32,59.52380952,4,2,2,,,,,,,,7,15,,,,,,,,,,,7,1.214,1,,,,,,0.102777778,-0.38240743,1,0,0,1.2143,Peridotite_rect,1,0,1,0,1,
58a5cf959e040a0001399f07,TCR,2024-06-11_13h09.47.119,LearnStrategy,2023.2.3,Win32,59.52380952,4,2,3,,,,,,,,7,08,,,,,,,,,,,7,0.875,1,,,,,,0.101851807,-0.418518541,1,0,0,0.8745,Peridotite_rect,2,0,2,0,1,
58a5cf959e040a0001399f07,TCR,2024-06-11_13h09.47.119,LearnStrategy,2023.2.3,Win32,59.52380952,4,2,4,,,,,,,,2,12,,,,,,,,,,,8,1.212,0,,,,,,0.412962918,-0.40740743,1,0,0,1.2117,Pumice_rect,3,0,3,0,1,
58a5cf959e040a0001399f07,TCR,2024-06-11_13h09.47.119,LearnStrategy,2023.2.3,Win32,59.52380952,4,2,5,,,,,,,,6,16,,,,,,,,,,,6,1.286,1,,,,,,-0.139814792,-0.383333401,1,0,0,1.2865,Pegmatite_rect,4,0,4,0,1,
58a5cf959e040a0001399f07,TCR,2024-06-11_13h09.47.119,LearnStrategy,2023.2.3,Win32,59.52380952,4,2,6,,,,,,,,3,06,,,,,,,,,,,3,2.515,1,,,,,,0.145370348,-0.263888957,1,0,0,2.5149,Diorite_rect,5,0,5,0,1,
58a5cf959e040a0001399f07,TCR,2024-06-11_13h09.47.119,LearnStrategy,2023.2.3,Win32,59.52380952,4,2,7,,,,,,,,2,10,,,,,,,,,,,2,0.96,1,,,,,,-0.101851874,-0.245370348,1,0,0,0.9598,Basalt_rect,6,0,6,0,1,
58a5cf959e040a0001399f07,TCR,2024-06-11_13h09.47.119,LearnStrategy,2023.2.3,Win32,59.52380952,4,2,8,,,,,,,,8,03,,,,,,,,,,,8,1.34,1,,,,,,0.379629584,-0.405555623,1,0,0,1.3403,Pumice_rect,7,0,7,0,1,
58a5cf959e040a0001399f07,TCR,2024-06-11_13h09.47.119,LearnStrategy,2023.2.3,Win32,59.52380952,4,2,9,,,,,,,,1,04,,,,,,,,,,,1,1.604,1,,,,,,-0.433333299,-0.246296319,1,0,0,1.6035,Andesite_rect,8,0,8,0,1,
58a5cf959e040a0001399f07,TCR,2024-06-11_13h09.47.119,LearnStrategy,2023.2.3,Win32,59.52380952,4,2,10,,,,,,,,5,16,,,,,,,,,,,5,0.946,1,,,,,,-0.358333333,-0.41759257,1,0,0,0.9455,Obsidian_rect,9,0,9,0,1,
58a5cf959e040a0001399f07,TCR,2024-06-11_13h09.47.119,LearnStrategy,2023.2.3,Win32,59.52380952,4,2,11,,,,,,,,8,09,,,,,,,,,,,8,1.257,1,,,,,,0.329629584,-0.383333401,1,0,0,1.2571,Pumice_rect,10,0,10,0,1,
58a5cf959e040a0001399f07,TCR,2024-06-11_13h09.47.119,LearnStrategy,2023.2.3,Win32,59.52380952,4,2,12,,,,,,,,4,13,,,,,,,,,,,4,1.985,1,,,,,,0.418518473,-0.256481459,1,0,0,1.9845,Gabbro_rect,11,0,11,0,1,
58a5cf959e040a0001399f07,TCR,2024-06-11_13h09.47.119,LearnStrategy,2023.2.3,Win32,59.52380952,4,2,13,,,,,,,,3,09,,,,,,,,,,,1,2.991,0,,,,,,-0.410185208,-0.262962986,1,0,0,2.9912,Andesite_rect,12,0,12,0,1,
58a5cf959e040a0001399f07,TCR,2024-06-11_13h09.47.119,LearnStrategy,2023.2.3,Win32,59.52380952,4,2,14,,,,,,,,1,01,,,,,,,,,,,3,1.087,0,,,,,,0.189814792,-0.243518541,1,0,0,1.0872,Diorite_rect,13,0,13,0,1,
58a5cf959e040a0001399f07,TCR,2024-06-11_13h09.47.119,LearnStrategy,2023.2.3,Win32,59.52380952,4,2,15,,,,,,,,4,01,,,,,,,,,,,4,3.918,1,,,,,,0.397222222,-0.261111179,1,0,0,3.9185,Gabbro_rect,14,0,14,0,1,
58a5cf959e040a0001399f07,TCR,2024-06-11_13h09.47.119,LearnStrategy,2023.2.3,Win32,59.52380952,4,2,16,,,,,,,,6,10,,,,,,,,,,,6,2.4,1,,,,,,-0.137962986,-0.410185208,1,0,0,2.4002,Pegmatite_rect,15,0,15,0,1,
58a5cf959e040a0001399f07,TCR,2024-06-11_13h09.47.119,LearnStrategy,2023.2.3,Win32,59.52380952,5,1,1,0.013888957,-0.007407396,1,0,0,0.9283,rock_grid_rect_2,1,02,-1,-1,0.928,-0.355555556,-0.231481459,1,0,0,1.8276,Andesite_rect,1,1.828,1,0,0,0,0,1,,,,,,,,,,,,,
58a5cf959e040a0001399f07,TCR,2024-06-11_13h09.47.119,LearnStrategy,2023.2.3,Win32,59.52380952,5,1,2,0.020370348,-0.008333333,1,0,0,1.0117,rock_grid_rect_2,4,15,-1,-1,1.012,0.119444444,-0.256481459,1,0,0,0.9129,Diorite_rect,3,0.913,0,1,0,1,0,1,,,,,,,,,,,,,
58a5cf959e040a0001399f07,TCR,2024-06-11_13h09.47.119,LearnStrategy,2023.2.3,Win32,59.52380952,5,1,3,-0.012037014,0.011111111,1,0,0,0.6779,rock_grid_rect_2,6,11,-1,-1,0.678,-0.091666599,-0.391666734,1,0,0,1.0211,Pegmatite_rect,6,1.021,1,2,0,2,0,1,,,,,,,,,,,,,
58a5cf959e040a0001399f07,TCR,2024-06-11_13h09.47.119,LearnStrategy,2023.2.3,Win32,59.52380952,5,1,4,0.011111179,0.001851874,1,0,0,0.9142,rock_grid_rect_2,4,12,-1,-1,0.914,-0.103703681,-0.241666734,1,0,0,1.5784,Basalt_rect,2,1.578,0,3,0,3,0,1,,,,,,,,,,,,,
58a5cf959e040a0001399f07,TCR,2024-06-11_13h09.47.119,LearnStrategy,2023.2.3,Win32,59.52380952,5,1,5,-0.040740763,0.018518541,1,0,0,0.7636,rock_grid_rect_2,2,02,-1,-1,0.764,-0.072222154,-0.240740763,1,0,0,0.8281,Basalt_rect,2,0.828,1,4,0,4,0,1,,,,,,,,,,,,,
58a5cf959e040a0001399f07,TCR,2024-06-11_13h09.47.119,LearnStrategy,2023.2.3,Win32,59.52380952,5,1,6,-0.066666599,0.014814826,1,0,0,0.6618,rock_grid_rect_2,7,06,-1,-1,0.662,0.144444444,-0.400000068,1,0,0,0.9419,Peridotite_rect,7,0.942,1,5,0,5,0,1,,,,,,,,,,,,,
58a5cf959e040a0001399f07,TCR,2024-06-11_13h09.47.119,LearnStrategy,2023.2.3,Win32,59.52380952,5,1,7,0.072222222,-0.013888889,1,0,0,0.6783,rock_grid_rect_2,2,09,-1,-1,0.678,-0.098148126,-0.237962986,1,0,0,0.8926,Basalt_rect,2,0.893,1,6,0,6,0,1,,,,,,,,,,,,,
58a5cf959e040a0001399f07,TCR,2024-06-11_13h09.47.119,LearnStrategy,2023.2.3,Win32,59.52380952,5,1,8,0.048148126,0.008333333,1,0,0,0.678,rock_grid_rect_2,1,06,-1,-1,0.678,0.196296251,-0.256481459,1,0,0,1.1104,Diorite_rect,3,1.11,0,7,0,7,0,1,,,,,,,,,,,,,
58a5cf959e040a0001399f07,TCR,2024-06-11_13h09.47.119,LearnStrategy,2023.2.3,Win32,59.52380952,5,1,9,-0.063888821,0.00740743,1,0,0,0.8098,rock_grid_rect_2,5,12,-1,-1,0.81,-0.318518541,-0.400000068,1,0,0,1.1266,Obsidian_rect,5,1.127,1,8,0,8,0,1,,,,,,,,,,,,,
58a5cf959e040a0001399f07,TCR,2024-06-11_13h09.47.119,LearnStrategy,2023.2.3,Win32,59.52380952,5,1,10,-0.024074097,-0.018518507,1,0,0,0.977,rock_grid_rect_2,3,13,-1,-1,0.977,-0.366666667,-0.243518541,1,0,0,0.9968,Andesite_rect,1,0.997,0,9,0,9,0,1,,,,,,,,,,,,,
58a5cf959e040a0001399f07,TCR,2024-06-11_13h09.47.119,LearnStrategy,2023.2.3,Win32,59.52380952,5,1,11,0.033333401,0.001851874,1,0,0,0.7109,rock_grid_rect_2,1,02,-1,-1,0.711,-0.387037048,-0.238888957,1,0,0,2.0727,Andesite_rect,1,2.073,1,10,0,10,0,1,,,,,,,,,,,,,
58a5cf959e040a0001399f07,TCR,2024-06-11_13h09.47.119,LearnStrategy,2023.2.3,Win32,59.52380952,5,1,12,0.03240743,0.004629652,1,0,0,0.6793,rock_grid_rect_2,3,12,-1,-1,0.679,0.127777778,-0.271296319,1,0,0,0.8632,Diorite_rect,3,0.863,1,11,0,11,0,1,,,,,,,,,,,,,
58a5cf959e040a0001399f07,TCR,2024-06-11_13h09.47.119,LearnStrategy,2023.2.3,Win32,59.52380952,5,1,13,-0.022222154,-0.005555556,1,0,0,1.2944,rock_grid_rect_2,2,16,-1,-1,1.294,-0.099999932,-0.240740763,1,0,0,0.8634,Basalt_rect,2,0.863,1,12,0,12,0,1,,,,,,,,,,,,,
58a5cf959e040a0001399f07,TCR,2024-06-11_13h09.47.119,LearnStrategy,2023.2.3,Win32,59.52380952,5,1,14,0.03240743,0.006481493,1,0,0,0.9603,rock_grid_rect_2,8,02,-1,-1,0.96,0.369444444,-0.408333401,1,0,0,1.1315,Pumice_rect,8,1.131,1,13,0,13,0,1,,,,,,,,,,,,,
58a5cf959e040a0001399f07,TCR,2024-06-11_13h09.47.119,LearnStrategy,2023.2.3,Win32,59.52380952,5,1,15,-0.02777771,0.008333333,1,0,0,0.9608,rock_grid_rect_2,3,16,-1,-1,0.961,0.132407362,-0.237962986,1,0,0,1.2862,Diorite_rect,3,1.286,1,14,0,14,0,1,,,,,,,,,,,,,
58a5cf959e040a0001399f07,TCR,2024-06-11_13h09.47.119,LearnStrategy,2023.2.3,Win32,59.52380952,5,1,16,-0.019444377,0.008333333,1,0,0,0.6285,rock_grid_rect_2,3,16,-1,-1,0.628,0.131481459,-0.250000068,1,0,0,1.2299,Diorite_rect,3,1.23,1,15,0,15,0,1,,,,,,,,,,,,,
58a5cf959e040a0001399f07,TCR,2024-06-11_13h09.47.119,LearnStrategy,2023.2.3,Win32,59.52380952,5,2,1,,,,,,,,4,03,,,,,,,,,,,3,1.193,0,,,,,,0.157407362,-0.23240743,1,0,0,1.1929,Diorite_rect,0,0,0,0,1,
58a5cf959e040a0001399f07,TCR,2024-06-11_13h09.47.119,LearnStrategy,2023.2.3,Win32,59.52380952,5,2,2,,,,,,,,3,15,,,,,,,,,,,3,3.518,1,,,,,,0.113888889,-0.244444512,1,0,0,3.5179,Diorite_rect,1,0,1,0,1,
58a5cf959e040a0001399f07,TCR,2024-06-11_13h09.47.119,LearnStrategy,2023.2.3,Win32,59.52380952,5,2,3,,,,,,,,3,07,,,,,,,,,,,1,1.57,0,,,,,,-0.38240743,-0.249074097,1,0,0,1.5701,Andesite_rect,2,0,2,0,1,
58a5cf959e040a0001399f07,TCR,2024-06-11_13h09.47.119,LearnStrategy,2023.2.3,Win32,59.52380952,5,2,4,,,,,,,,1,10,,,,,,,,,,,4,2.075,0,,,,,,0.379629584,-0.250925903,1,0,0,2.0749,Gabbro_rect,3,0,3,0,1,
58a5cf959e040a0001399f07,TCR,2024-06-11_13h09.47.119,LearnStrategy,2023.2.3,Win32,59.52380952,5,2,5,,,,,,,,7,10,,,,,,,,,,,7,1.076,1,,,,,,0.171296251,-0.411111179,1,0,0,1.0757,Peridotite_rect,4,0,4,0,1,
58a5cf959e040a0001399f07,TCR,2024-06-11_13h09.47.119,LearnStrategy,2023.2.3,Win32,59.52380952,5,2,6,,,,,,,,1,16,,,,,,,,,,,4,1.979,0,,,,,,0.378703613,-0.237037014,1,0,0,1.9786,Gabbro_rect,5,0,5,0,1,
58a5cf959e040a0001399f07,TCR,2024-06-11_13h09.47.119,LearnStrategy,2023.2.3,Win32,59.52380952,5,2,7,,,,,,,,6,13,,,,,,,,,,,6,1.389,1,,,,,,-0.146296319,-0.398148126,1,0,0,1.389,Pegmatite_rect,6,0,6,0,1,
58a5cf959e040a0001399f07,TCR,2024-06-11_13h09.47.119,LearnStrategy,2023.2.3,Win32,59.52380952,5,2,8,,,,,,,,6,15,,,,,,,,,,,6,1.639,1,,,,,,-0.10277771,-0.39259257,1,0,0,1.6387,Pegmatite_rect,7,0,7,0,1,
58a5cf959e040a0001399f07,TCR,2024-06-11_13h09.47.119,LearnStrategy,2023.2.3,Win32,59.52380952,5,2,9,,,,,,,,5,10,,,,,,,,,,,5,1.073,1,,,,,,-0.400925937,-0.408333401,1,0,0,1.0734,Obsidian_rect,8,0,8,0,1,
58a5cf959e040a0001399f07,TCR,2024-06-11_13h09.47.119,LearnStrategy,2023.2.3,Win32,59.52380952,5,2,10,,,,,,,,4,14,,,,,,,,,,,2,1.429,0,,,,,,-0.081481459,-0.252777846,1,0,0,1.4289,Basalt_rect,9,0,9,0,1,
58a5cf959e040a0001399f07,TCR,2024-06-11_13h09.47.119,LearnStrategy,2023.2.3,Win32,59.52380952,5,2,11,,,,,,,,8,06,,,,,,,,,,,8,1.061,1,,,,,,0.372222222,-0.395370348,1,0,0,1.0612,Pumice_rect,10,0,10,0,1,
58a5cf959e040a0001399f07,TCR,2024-06-11_13h09.47.119,LearnStrategy,2023.2.3,Win32,59.52380952,5,2,12,,,,,,,,2,01,,,,,,,,,,,2,1.342,1,,,,,,-0.201851874,-0.25740743,1,0,0,1.3423,Basalt_rect,11,0,11,0,1,
58a5cf959e040a0001399f07,TCR,2024-06-11_13h09.47.119,LearnStrategy,2023.2.3,Win32,59.52380952,5,2,13,,,,,,,,5,02,,,,,,,,,,,5,1.509,1,,,,,,-0.310185208,-0.406481459,1,0,0,1.509,Obsidian_rect,12,0,12,0,1,
58a5cf959e040a0001399f07,TCR,2024-06-11_13h09.47.119,LearnStrategy,2023.2.3,Win32,59.52380952,5,2,14,,,,,,,,7,05,,,,,,,,,,,7,1.726,1,,,,,,0.122222222,-0.402777846,1,0,0,1.7264,Peridotite_rect,13,0,13,0,1,
58a5cf959e040a0001399f07,TCR,2024-06-11_13h09.47.119,LearnStrategy,2023.2.3,Win32,59.52380952,5,2,15,,,,,,,,2,14,,,,,,,,,,,8,3.371,0,,,,,,0.409259169,-0.383333401,1,0,0,3.371,Pumice_rect,14,0,14,0,1,
58a5cf959e040a0001399f07,TCR,2024-06-11_13h09.47.119,LearnStrategy,2023.2.3,Win32,59.52380952,5,2,16,,,,,,,,8,05,,,,,,,,,,,8,1.198,1,,,,,,0.388888889,-0.405555623,1,0,0,1.1984,Pumice_rect,15,0,15,0,1,
58a5cf959e040a0001399f07,TCR,2024-06-11_13h09.47.119,LearnStrategy,2023.2.3,Win32,59.52380952,6,1,1,-0.048148126,0.013888889,1,0,0,1.2617,rock_grid_rect_2,6,03,-1,-1,1.262,-0.111111043,-0.38240743,1,0,0,1.0886,Pegmatite_rect,6,1.089,1,0,0,0,0,1,,,,,,,,,,,,,
58a5cf959e040a0001399f07,TCR,2024-06-11_13h09.47.119,LearnStrategy,2023.2.3,Win32,59.52380952,6,1,2,-0.07777771,0.016666667,1,0,0,0.7442,rock_grid_rect_2,4,09,-1,-1,0.744,0.41018514,-0.261111179,1,0,0,2.2449,Gabbro_rect,4,2.245,1,1,0,1,0,1,,,,,,,,,,,,,
58a5cf959e040a0001399f07,TCR,2024-06-11_13h09.47.119,LearnStrategy,2023.2.3,Win32,59.52380952,6,1,3,0.020370348,0.004629652,1,0,0,1.2446,rock_grid_rect_2,4,10,-1,-1,1.245,0.375,-0.248148126,1,0,0,0.9179,Gabbro_rect,4,0.918,1,2,0,2,0,1,,,,,,,,,,,,,
58a5cf959e040a0001399f07,TCR,2024-06-11_13h09.47.119,LearnStrategy,2023.2.3,Win32,59.52380952,6,1,4,0.049074097,-0.001851841,1,0,0,0.6351,rock_grid_rect_2,2,05,-1,-1,0.635,-0.139814792,-0.249074097,1,0,0,0.9654,Basalt_rect,2,0.965,1,3,0,3,0,1,,,,,,,,,,,,,
58a5cf959e040a0001399f07,TCR,2024-06-11_13h09.47.119,LearnStrategy,2023.2.3,Win32,59.52380952,6,1,5,0.028703681,-0.008333333,1,0,0,0.6612,rock_grid_rect_2,7,14,-1,-1,0.661,0.077777778,-0.394444512,1,0,0,1.2892,Peridotite_rect,7,1.289,1,4,0,4,0,1,,,,,,,,,,,,,
58a5cf959e040a0001399f07,TCR,2024-06-11_13h09.47.119,LearnStrategy,2023.2.3,Win32,59.52380952,6,1,6,0.031481459,-0.005555556,1,0,0,0.6457,rock_grid_rect_2,1,02,-1,-1,0.646,-0.337962986,-0.240740763,1,0,0,1.2299,Andesite_rect,1,1.23,1,5,0,5,0,1,,,,,,,,,,,,,
58a5cf959e040a0001399f07,TCR,2024-06-11_13h09.47.119,LearnStrategy,2023.2.3,Win32,59.52380952,6,1,7,0.065740696,-0.001851841,1,0,0,0.6285,rock_grid_rect_2,8,10,-1,-1,0.628,0.375925836,-0.401851874,1,0,0,1.2642,Pumice_rect,8,1.264,1,6,0,6,0,1,,,,,,,,,,,,,
58a5cf959e040a0001399f07,TCR,2024-06-11_13h09.47.119,LearnStrategy,2023.2.3,Win32,59.52380952,6,1,8,0.012037014,-0.020370348,1,0,0,0.6611,rock_grid_rect_2,1,02,-1,-1,0.661,-0.379629652,-0.250000068,1,0,0,1.2753,Andesite_rect,1,1.275,1,7,0,7,0,1,,,,,,,,,,,,,
58a5cf959e040a0001399f07,TCR,2024-06-11_13h09.47.119,LearnStrategy,2023.2.3,Win32,59.52380952,6,1,9,0.073148126,0.013888889,1,0,0,0.7942,rock_grid_rect_2,3,02,-1,-1,0.794,0.073148126,-0.26759257,1,0,0,0.8128,Diorite_rect,3,0.813,1,8,0,8,0,1,,,,,,,,,,,,,
58a5cf959e040a0001399f07,TCR,2024-06-11_13h09.47.119,LearnStrategy,2023.2.3,Win32,59.52380952,6,1,10,0.035185208,0.009259271,1,0,0,0.6475,rock_grid_rect_2,3,12,-1,-1,0.648,0.099074029,-0.261111179,1,0,0,1.3818,Diorite_rect,3,1.382,1,9,0,9,0,1,,,,,,,,,,,,,
58a5cf959e040a0001399f07,TCR,2024-06-11_13h09.47.119,LearnStrategy,2023.2.3,Win32,59.52380952,6,1,11,0.079629584,0.021296319,1,0,0,0.6108,rock_grid_rect_2,3,12,-1,-1,0.611,0.101851807,-0.244444512,1,0,0,1.1729,Diorite_rect,3,1.173,1,10,0,10,0,1,,,,,,,,,,,,,
58a5cf959e040a0001399f07,TCR,2024-06-11_13h09.47.119,LearnStrategy,2023.2.3,Win32,59.52380952,6,1,12,-0.036111043,-0.016666667,1,0,0,0.895,rock_grid_rect_2,2,16,-1,-1,0.895,-0.099074097,-0.252777846,1,0,0,1.8592,Basalt_rect,2,1.859,1,11,0,11,0,1,,,,,,,,,,,,,
58a5cf959e040a0001399f07,TCR,2024-06-11_13h09.47.119,LearnStrategy,2023.2.3,Win32,59.52380952,6,1,13,0.02222229,-0.016666667,1,0,0,1.0286,rock_grid_rect_2,2,06,-1,-1,1.029,-0.137962986,-0.23240743,1,0,0,0.8867,Basalt_rect,2,0.887,1,12,0,12,0,1,,,,,,,,,,,,,
58a5cf959e040a0001399f07,TCR,2024-06-11_13h09.47.119,LearnStrategy,2023.2.3,Win32,59.52380952,6,1,14,-0.001851874,-0.007407396,1,0,0,0.7642,rock_grid_rect_2,4,10,-1,-1,0.764,0.356481391,-0.238888957,1,0,0,1.1076,Gabbro_rect,4,1.108,1,13,0,13,0,1,,,,,,,,,,,,,
58a5cf959e040a0001399f07,TCR,2024-06-11_13h09.47.119,LearnStrategy,2023.2.3,Win32,59.52380952,6,1,15,0.039814792,-0.011111111,1,0,0,0.6285,rock_grid_rect_2,5,04,-1,-1,0.629,-0.390740763,-0.39259257,1,0,0,1.1056,Obsidian_rect,5,1.106,1,14,0,14,0,1,,,,,,,,,,,,,
58a5cf959e040a0001399f07,TCR,2024-06-11_13h09.47.119,LearnStrategy,2023.2.3,Win32,59.52380952,6,1,16,0.033333401,0.003703715,1,0,0,0.8591,rock_grid_rect_2,1,11,-1,-1,0.859,-0.452777744,-0.256481459,1,0,0,1.3494,Andesite_rect,1,1.349,1,15,0,15,0,1,,,,,,,,,,,,,
58a5cf959e040a0001399f07,TCR,2024-06-11_13h09.47.119,LearnStrategy,2023.2.3,Win32,59.52380952,6,2,1,,,,,,,,6,06,,,,,,,,,,,6,1.457,1,,,,,,-0.109259237,-0.394444512,1,0,0,1.4573,Pegmatite_rect,0,0,0,0,1,
58a5cf959e040a0001399f07,TCR,2024-06-11_13h09.47.119,LearnStrategy,2023.2.3,Win32,59.52380952,6,2,2,,,,,,,,1,05,,,,,,,,,,,7,3.988,0,,,,,,0.102777778,-0.379629652,1,0,0,3.9878,Peridotite_rect,1,0,1,0,1,
58a5cf959e040a0001399f07,TCR,2024-06-11_13h09.47.119,LearnStrategy,2023.2.3,Win32,59.52380952,6,2,3,,,,,,,,8,04,,,,,,,,,,,8,1.163,1,,,,,,0.369444444,-0.389814792,1,0,0,1.1635,Pumice_rect,2,0,2,0,1,
58a5cf959e040a0001399f07,TCR,2024-06-11_13h09.47.119,LearnStrategy,2023.2.3,Win32,59.52380952,6,2,4,,,,,,,,2,11,,,,,,,,,,,8,1.144,0,,,,,,0.376851807,-0.39722229,1,0,0,1.1444,Pumice_rect,3,0,3,0,1,
58a5cf959e040a0001399f07,TCR,2024-06-11_13h09.47.119,LearnStrategy,2023.2.3,Win32,59.52380952,6,2,5,,,,,,,,4,16,,,,,,,,,,,4,1.808,1,,,,,,0.387036947,-0.251851874,1,0,0,1.8077,Gabbro_rect,4,0,4,0,1,
58a5cf959e040a0001399f07,TCR,2024-06-11_13h09.47.119,LearnStrategy,2023.2.3,Win32,59.52380952,6,2,6,,,,,,,,3,14,,,,,,,,,,,3,1.4,1,,,,,,0.137037014,-0.250000068,1,0,0,1.3998,Diorite_rect,5,0,5,0,1,
58a5cf959e040a0001399f07,TCR,2024-06-11_13h09.47.119,LearnStrategy,2023.2.3,Win32,59.52380952,6,2,7,,,,,,,,7,16,,,,,,,,,,,7,1.385,1,,,,,,0.136111111,-0.379629652,1,0,0,1.3852,Peridotite_rect,6,0,6,0,1,
58a5cf959e040a0001399f07,TCR,2024-06-11_13h09.47.119,LearnStrategy,2023.2.3,Win32,59.52380952,6,2,8,,,,,,,,3,11,,,,,,,,,,,3,2.186,1,,,,,,0.163888889,-0.250925903,1,0,0,2.1857,Diorite_rect,7,0,7,0,1,
58a5cf959e040a0001399f07,TCR,2024-06-11_13h09.47.119,LearnStrategy,2023.2.3,Win32,59.52380952,6,2,9,,,,,,,,7,04,,,,,,,,,,,1,1.254,0,,,,,,-0.414814826,-0.25740743,1,0,0,1.2543,Andesite_rect,8,0,8,0,1,
58a5cf959e040a0001399f07,TCR,2024-06-11_13h09.47.119,LearnStrategy,2023.2.3,Win32,59.52380952,6,2,10,,,,,,,,6,07,,,,,,,,,,,6,1.992,1,,,,,,-0.162962986,-0.393518541,1,0,0,1.9925,Pegmatite_rect,9,0,9,0,1,
58a5cf959e040a0001399f07,TCR,2024-06-11_13h09.47.119,LearnStrategy,2023.2.3,Win32,59.52380952,6,2,11,,,,,,,,5,07,,,,,,,,,,,5,0.907,1,,,,,,-0.417592604,-0.387962986,1,0,0,0.9071,Obsidian_rect,10,0,10,0,1,
58a5cf959e040a0001399f07,TCR,2024-06-11_13h09.47.119,LearnStrategy,2023.2.3,Win32,59.52380952,6,2,12,,,,,,,,1,14,,,,,,,,,,,1,2.029,1,,,,,,-0.360185208,-0.270370348,1,0,0,2.0289,Andesite_rect,11,0,11,0,1,
58a5cf959e040a0001399f07,TCR,2024-06-11_13h09.47.119,LearnStrategy,2023.2.3,Win32,59.52380952,6,2,13,,,,,,,,5,06,,,,,,,,,,,5,0.948,1,,,,,,-0.476851841,-0.394444512,1,0,0,0.9478,Obsidian_rect,12,0,12,0,1,
58a5cf959e040a0001399f07,TCR,2024-06-11_13h09.47.119,LearnStrategy,2023.2.3,Win32,59.52380952,6,2,14,,,,,,,,8,08,,,,,,,,,,,8,1.661,1,,,,,,0.381481391,-0.387962986,1,0,0,1.6608,Pumice_rect,13,0,13,0,1,
58a5cf959e040a0001399f07,TCR,2024-06-11_13h09.47.119,LearnStrategy,2023.2.3,Win32,59.52380952,6,2,15,,,,,,,,2,04,,,,,,,,,,,2,0.95,1,,,,,,-0.15277771,-0.263888957,1,0,0,0.9503,Basalt_rect,14,0,14,0,1,
58a5cf959e040a0001399f07,TCR,2024-06-11_13h09.47.119,LearnStrategy,2023.2.3,Win32,59.52380952,6,2,16,,,,,,,,4,08,,,,,,,,,,,4,1.675,1,,,,,,0.491666667,-0.262962986,1,0,0,1.6754,Gabbro_rect,15,0,15,0,1,
58a5cf959e040a0001399f07,TCR,2024-06-11_13h09.47.119,LearnStrategy,2023.2.3,Win32,59.52380952,7,1,1,0.056481459,-0.012962952,1,0,0,0.8279,rock_grid_rect_2,4,10,-1,-1,0.828,0.374074029,-0.241666734,1,0,0,1.2261,Gabbro_rect,4,1.226,1,0,0,0,0,1,,,,,,,,,,,,,
58a5cf959e040a0001399f07,TCR,2024-06-11_13h09.47.119,LearnStrategy,2023.2.3,Win32,59.52380952,7,1,2,0.049074097,-0.009259237,1,0,0,1.1817,rock_grid_rect_2,6,09,-1,-1,1.182,-0.108333266,-0.39259257,1,0,0,1.1725,Pegmatite_rect,6,1.173,1,1,0,1,0,1,,,,,,,,,,,,,
58a5cf959e040a0001399f07,TCR,2024-06-11_13h09.47.119,LearnStrategy,2023.2.3,Win32,59.52380952,7,1,3,-0.026851874,0.011111111,1,0,0,0.9122,rock_grid_rect_2,2,09,-1,-1,0.912,-0.124999932,-0.255555623,1,0,0,2.9137,Basalt_rect,2,2.914,1,2,0,2,0,1,,,,,,,,,,,,,
58a5cf959e040a0001399f07,TCR,2024-06-11_13h09.47.119,LearnStrategy,2023.2.3,Win32,59.52380952,7,1,4,-0.019444377,-0.012037014,1,0,0,0.8439,rock_grid_rect_2,5,04,-1,-1,0.844,-0.338888889,-0.404629652,1,0,0,1.0323,Obsidian_rect,5,1.032,1,3,0,3,0,1,,,,,,,,,,,,,
58a5cf959e040a0001399f07,TCR,2024-06-11_13h09.47.119,LearnStrategy,2023.2.3,Win32,59.52380952,7,1,5,0.046296319,-0.023148126,1,0,0,1.0946,rock_grid_rect_2,7,13,-1,-1,1.095,0.162962918,-0.406481459,1,0,0,0.963,Peridotite_rect,7,0.963,1,4,0,4,0,1,,,,,,,,,,,,,
58a5cf959e040a0001399f07,TCR,2024-06-11_13h09.47.119,LearnStrategy,2023.2.3,Win32,59.52380952,7,1,6,0.041666734,0.003703715,1,0,0,0.6937,rock_grid_rect_2,1,06,-1,-1,0.694,-0.438888855,-0.235185208,1,0,0,1.0139,Andesite_rect,1,1.014,1,5,0,5,0,1,,,,,,,,,,,,,
58a5cf959e040a0001399f07,TCR,2024-06-11_13h09.47.119,LearnStrategy,2023.2.3,Win32,59.52380952,7,1,7,0.088888889,0.016666667,1,0,0,0.944,rock_grid_rect_2,1,02,-1,-1,0.944,-0.365740763,-0.258333401,1,0,0,2.0732,Andesite_rect,1,2.073,1,6,0,6,0,1,,,,,,,,,,,,,
58a5cf959e040a0001399f07,TCR,2024-06-11_13h09.47.119,LearnStrategy,2023.2.3,Win32,59.52380952,7,1,8,-0.026851874,-0.012037014,1,0,0,0.9619,rock_grid_rect_2,1,06,-1,-1,0.962,-0.422222188,-0.251851874,1,0,0,1.0877,Andesite_rect,1,1.088,1,7,0,7,0,1,,,,,,,,,,,,,
58a5cf959e040a0001399f07,TCR,2024-06-11_13h09.47.119,LearnStrategy,2023.2.3,Win32,59.52380952,7,1,9,-0.000925903,-0.013888889,1,0,0,0.7771,rock_grid_rect_2,2,06,-1,-1,0.777,-0.143518541,-0.24722229,1,0,0,0.9585,Basalt_rect,2,0.958,1,8,0,8,0,1,,,,,,,,,,,,,
58a5cf959e040a0001399f07,TCR,2024-06-11_13h09.47.119,LearnStrategy,2023.2.3,Win32,59.52380952,7,1,10,-0.000925903,0.010185208,1,0,0,0.9097,rock_grid_rect_2,2,09,-1,-1,0.91,-0.120370348,-0.254629652,1,0,0,0.8101,Basalt_rect,2,0.81,1,9,0,9,0,1,,,,,,,,,,,,,
58a5cf959e040a0001399f07,TCR,2024-06-11_13h09.47.119,LearnStrategy,2023.2.3,Win32,59.52380952,7,1,11,0.051851874,0.008333333,1,0,0,0.746,rock_grid_rect_2,7,02,-1,-1,0.746,0.162037014,-0.38240743,1,0,0,1.3297,Peridotite_rect,7,1.33,1,10,0,10,0,1,,,,,,,,,,,,,
58a5cf959e040a0001399f07,TCR,2024-06-11_13h09.47.119,LearnStrategy,2023.2.3,Win32,59.52380952,7,1,12,0.01759257,-0.001851841,1,0,0,0.8942,rock_grid_rect_2,4,15,-1,-1,0.894,0.184259237,-0.245370348,1,0,0,1.2794,Diorite_rect,3,1.279,0,11,0,11,0,1,,,,,,,,,,,,,
58a5cf959e040a0001399f07,TCR,2024-06-11_13h09.47.119,LearnStrategy,2023.2.3,Win32,59.52380952,7,1,13,0.056481459,0.002777778,1,0,0,0.5779,rock_grid_rect_2,8,16,-1,-1,0.578,0.412036947,-0.384259237,1,0,0,1.5116,Pumice_rect,8,1.512,1,12,0,12,0,1,,,,,,,,,,,,,
58a5cf959e040a0001399f07,TCR,2024-06-11_13h09.47.119,LearnStrategy,2023.2.3,Win32,59.52380952,7,1,14,-0.010185208,0.014814826,1,0,0,0.7217,rock_grid_rect_2,3,02,-1,-1,0.722,0.056481459,-0.253703681,1,0,0,0.8943,Diorite_rect,3,0.894,1,13,0,13,0,1,,,,,,,,,,,,,
58a5cf959e040a0001399f07,TCR,2024-06-11_13h09.47.119,LearnStrategy,2023.2.3,Win32,59.52380952,7,1,15,0.018518541,0.013888889,1,0,0,0.9946,rock_grid_rect_2,3,16,-1,-1,0.995,0.108333333,-0.250000068,1,0,0,1.1107,Diorite_rect,3,1.111,1,14,0,14,0,1,,,,,,,,,,,,,
58a5cf959e040a0001399f07,TCR,2024-06-11_13h09.47.119,LearnStrategy,2023.2.3,Win32,59.52380952,7,1,16,0.05740743,0.006481493,1,0,0,0.6099,rock_grid_rect_2,1,07,-1,-1,0.61,0.030555623,-0.268518541,1,0,0,0.8866,Diorite_rect,3,0.887,0,15,0,15,0,1,,,,,,,,,,,,,
58a5cf959e040a0001399f07,TCR,2024-06-11_13h09.47.119,LearnStrategy,2023.2.3,Win32,59.52380952,7,2,1,,,,,,,,6,10,,,,,,,,,,,6,1.39,1,,,,,,-0.129629652,-0.384259237,1,0,0,1.39,Pegmatite_rect,0,0,0,0,1,
58a5cf959e040a0001399f07,TCR,2024-06-11_13h09.47.119,LearnStrategy,2023.2.3,Win32,59.52380952,7,2,2,,,,,,,,5,16,,,,,,,,,,,5,0.968,1,,,,,,-0.350925937,-0.412037014,1,0,0,0.9676,Obsidian_rect,1,0,1,0,1,
58a5cf959e040a0001399f07,TCR,2024-06-11_13h09.47.119,LearnStrategy,2023.2.3,Win32,59.52380952,7,2,3,,,,,,,,2,11,,,,,,,,,,,8,1.114,0,,,,,,0.359259169,-0.400925903,1,0,0,1.1143,Pumice_rect,2,0,2,0,1,
58a5cf959e040a0001399f07,TCR,2024-06-11_13h09.47.119,LearnStrategy,2023.2.3,Win32,59.52380952,7,2,4,,,,,,,,3,11,,,,,,,,,,,3,1.909,1,,,,,,0.119444444,-0.237962986,1,0,0,1.9093,Diorite_rect,3,0,3,0,1,
58a5cf959e040a0001399f07,TCR,2024-06-11_13h09.47.119,LearnStrategy,2023.2.3,Win32,59.52380952,7,2,5,,,,,,,,5,10,,,,,,,,,,,5,1.353,1,,,,,,-0.374074097,-0.399074097,1,0,0,1.3533,Obsidian_rect,4,0,4,0,1,
58a5cf959e040a0001399f07,TCR,2024-06-11_13h09.47.119,LearnStrategy,2023.2.3,Win32,59.52380952,7,2,6,,,,,,,,1,14,,,,,,,,,,,1,1.21,1,,,,,,-0.341666667,-0.248148126,1,0,0,1.2104,Andesite_rect,5,0,5,0,1,
58a5cf959e040a0001399f07,TCR,2024-06-11_13h09.47.119,LearnStrategy,2023.2.3,Win32,59.52380952,7,2,7,,,,,,,,2,10,,,,,,,,,,,2,1.095,1,,,,,,-0.138888821,-0.24259257,1,0,0,1.0953,Basalt_rect,6,0,6,0,1,
58a5cf959e040a0001399f07,TCR,2024-06-11_13h09.47.119,LearnStrategy,2023.2.3,Win32,59.52380952,7,2,8,,,,,,,,4,14,,,,,,,,,,,4,1.979,1,,,,,,0.342592502,-0.243518541,1,0,0,1.9793,Gabbro_rect,7,0,7,0,1,
58a5cf959e040a0001399f07,TCR,2024-06-11_13h09.47.119,LearnStrategy,2023.2.3,Win32,59.52380952,7,2,9,,,,,,,,6,13,,,,,,,,,,,6,1.353,1,,,,,,-0.155555488,-0.406481459,1,0,0,1.3533,Pegmatite_rect,8,0,8,0,1,
58a5cf959e040a0001399f07,TCR,2024-06-11_13h09.47.119,LearnStrategy,2023.2.3,Win32,59.52380952,7,2,10,,,,,,,,8,08,,,,,,,,,,,8,1.007,1,,,,,,0.317592502,-0.386111179,1,0,0,1.0072,Pumice_rect,9,0,9,0,1,
58a5cf959e040a0001399f07,TCR,2024-06-11_13h09.47.119,LearnStrategy,2023.2.3,Win32,59.52380952,7,2,11,,,,,,,,4,03,,,,,,,,,,,4,2.876,1,,,,,,0.42037028,-0.237037014,1,0,0,2.8764,Gabbro_rect,10,0,10,0,1,
58a5cf959e040a0001399f07,TCR,2024-06-11_13h09.47.119,LearnStrategy,2023.2.3,Win32,59.52380952,7,2,12,,,,,,,,1,01,,,,,,,,,,,3,1.399,0,,,,,,0.18518514,-0.261111179,1,0,0,1.3987,Diorite_rect,11,0,11,0,1,
58a5cf959e040a0001399f07,TCR,2024-06-11_13h09.47.119,LearnStrategy,2023.2.3,Win32,59.52380952,7,2,13,,,,,,,,3,07,,,,,,,,,,,1,2.758,0,,,,,,-0.359259271,-0.246296319,1,0,0,2.7581,Andesite_rect,12,0,12,0,1,
58a5cf959e040a0001399f07,TCR,2024-06-11_13h09.47.119,LearnStrategy,2023.2.3,Win32,59.52380952,7,2,14,,,,,,,,8,06,,,,,,,,,,,8,1.089,1,,,,,,0.464814724,-0.409259237,1,0,0,1.0888,Pumice_rect,13,0,13,0,1,
58a5cf959e040a0001399f07,TCR,2024-06-11_13h09.47.119,LearnStrategy,2023.2.3,Win32,59.52380952,7,2,15,,,,,,,,7,15,,,,,,,,,,,7,0.903,1,,,,,,0.112037014,-0.419444512,1,0,0,0.9033,Peridotite_rect,14,0,14,0,1,
58a5cf959e040a0001399f07,TCR,2024-06-11_13h09.47.119,LearnStrategy,2023.2.3,Win32,59.52380952,7,2,16,,,,,,,,7,04,,,,,,,,,,,1,1.055,0,,,,,,-0.342592604,-0.266666734,1,0,0,1.0554,Andesite_rect,15,0,15,0,1,
58a5cf959e040a0001399f07,TCR,2024-06-11_13h09.47.119,LearnStrategy,2023.2.3,Win32,59.52380952,8,1,1,0.051851874,-0.006481459,1,0,0,0.9614,rock_grid_rect_2,6,03,-1,-1,0.961,-0.099999932,-0.402777846,1,0,0,1.5261,Pegmatite_rect,6,1.526,1,0,0,0,0,1,,,,,,,,,,,,,
58a5cf959e040a0001399f07,TCR,2024-06-11_13h09.47.119,LearnStrategy,2023.2.3,Win32,59.52380952,8,1,2,-0.024074097,-0.007407396,1,0,0,0.7279,rock_grid_rect_2,5,04,-1,-1,0.728,-0.408333333,-0.410185208,1,0,0,0.8637,Obsidian_rect,5,0.864,1,1,0,1,0,1,,,,,,,,,,,,,
58a5cf959e040a0001399f07,TCR,2024-06-11_13h09.47.119,LearnStrategy,2023.2.3,Win32,59.52380952,8,1,3,-0.06759257,-0.000925903,1,0,0,1.2603,rock_grid_rect_2,2,08,-1,-1,1.26,-0.123148126,-0.263888957,1,0,0,1.0534,Basalt_rect,2,1.053,1,2,0,2,0,1,,,,,,,,,,,,,
58a5cf959e040a0001399f07,TCR,2024-06-11_13h09.47.119,LearnStrategy,2023.2.3,Win32,59.52380952,8,1,4,-0.051851874,0.002777778,1,0,0,1.068,rock_grid_rect_2,4,05,-1,-1,1.068,0.387036947,-0.239814792,1,0,0,1.7099,Gabbro_rect,4,1.71,1,3,0,3,0,1,,,,,,,,,,,,,
58a5cf959e040a0001399f07,TCR,2024-06-11_13h09.47.119,LearnStrategy,2023.2.3,Win32,59.52380952,8,1,5,-0.058333266,0.019444444,1,0,0,0.6453,rock_grid_rect_2,4,11,-1,-1,0.645,0.379629584,-0.252777846,1,0,0,1.8369,Gabbro_rect,4,1.837,1,4,0,4,0,1,,,,,,,,,,,,,
58a5cf959e040a0001399f07,TCR,2024-06-11_13h09.47.119,LearnStrategy,2023.2.3,Win32,59.52380952,8,1,6,-0.02777771,0.013888889,1,0,0,0.5651,rock_grid_rect_2,3,02,-1,-1,0.565,0.141666667,-0.24722229,1,0,0,1.2121,Diorite_rect,3,1.212,1,5,0,5,0,1,,,,,,,,,,,,,
58a5cf959e040a0001399f07,TCR,2024-06-11_13h09.47.119,LearnStrategy,2023.2.3,Win32,59.52380952,8,1,7,0.035185208,0,1,0,0,1.0438,rock_grid_rect_2,7,12,-1,-1,1.044,0.128703681,-0.383333401,1,0,0,1.3108,Peridotite_rect,7,1.311,1,6,0,6,0,1,,,,,,,,,,,,,
58a5cf959e040a0001399f07,TCR,2024-06-11_13h09.47.119,LearnStrategy,2023.2.3,Win32,59.52380952,8,1,8,-0.008333266,0.011111111,1,0,0,0.7603,rock_grid_rect_2,2,05,-1,-1,0.76,-0.119444377,-0.264814792,1,0,0,1.9118,Basalt_rect,2,1.912,1,7,0,7,0,1,,,,,,,,,,,,,
58a5cf959e040a0001399f07,TCR,2024-06-11_13h09.47.119,LearnStrategy,2023.2.3,Win32,59.52380952,8,1,9,0.011111179,0.017592604,1,0,0,0.8782,rock_grid_rect_2,1,07,-1,-1,0.878,0.076851807,-0.228703681,1,0,0,0.9076,Diorite_rect,3,0.908,0,8,0,8,0,1,,,,,,,,,,,,,
58a5cf959e040a0001399f07,TCR,2024-06-11_13h09.47.119,LearnStrategy,2023.2.3,Win32,59.52380952,8,1,10,0.046296319,0.010185208,1,0,0,0.6627,rock_grid_rect_2,1,03,-1,-1,0.663,-0.375925937,-0.259259237,1,0,0,1.7946,Andesite_rect,1,1.795,1,9,0,9,0,1,,,,,,,,,,,,,
58a5cf959e040a0001399f07,TCR,2024-06-11_13h09.47.119,LearnStrategy,2023.2.3,Win32,59.52380952,8,1,11,0.056481459,0.016666667,1,0,0,0.7309,rock_grid_rect_2,2,02,-1,-1,0.731,-0.347222222,-0.238888957,1,0,0,1.3313,Andesite_rect,1,1.331,0,10,0,10,0,1,,,,,,,,,,,,,
58a5cf959e040a0001399f07,TCR,2024-06-11_13h09.47.119,LearnStrategy,2023.2.3,Win32,59.52380952,8,1,12,-0.012962986,0.001851874,1,0,0,0.7776,rock_grid_rect_2,8,10,-1,-1,0.778,0.373148058,-0.412962986,1,0,0,0.9977,Pumice_rect,8,0.998,1,11,0,11,0,1,,,,,,,,,,,,,
58a5cf959e040a0001399f07,TCR,2024-06-11_13h09.47.119,LearnStrategy,2023.2.3,Win32,59.52380952,8,1,13,-0.065740763,-0.001851841,1,0,0,0.8273,rock_grid_rect_2,3,16,-1,-1,0.827,0.136111111,-0.25740743,1,0,0,1.0104,Diorite_rect,3,1.01,1,12,0,12,0,1,,,,,,,,,,,,,
58a5cf959e040a0001399f07,TCR,2024-06-11_13h09.47.119,LearnStrategy,2023.2.3,Win32,59.52380952,8,1,14,0.034259237,-0.013888889,1,0,0,0.8008,rock_grid_rect_2,1,07,-1,-1,0.801,-0.418518507,-0.24259257,1,0,0,1.2446,Andesite_rect,1,1.245,1,13,0,13,0,1,,,,,,,,,,,,,
58a5cf959e040a0001399f07,TCR,2024-06-11_13h09.47.119,LearnStrategy,2023.2.3,Win32,59.52380952,8,1,15,0.018518541,0.013888889,1,0,0,0.5775,rock_grid_rect_2,7,14,-1,-1,0.577,0.144444444,-0.405555623,1,0,0,1.8967,Peridotite_rect,7,1.897,1,14,0,14,0,1,,,,,,,,,,,,,
58a5cf959e040a0001399f07,TCR,2024-06-11_13h09.47.119,LearnStrategy,2023.2.3,Win32,59.52380952,8,1,16,0.051851874,0.010185208,1,0,0,1.2288,rock_grid_rect_2,3,10,-1,-1,1.229,0.14259257,-0.263888957,1,0,0,1.2623,Diorite_rect,3,1.262,1,15,0,15,0,1,,,,,,,,,,,,,
58a5cf959e040a0001399f07,TCR,2024-06-11_13h09.47.119,LearnStrategy,2023.2.3,Win32,59.52380952,8,2,1,,,,,,,,5,09,,,,,,,,,,,5,1.008,1,,,,,,-0.398148159,-0.396296319,1,0,0,1.0082,Obsidian_rect,0,0,0,0,1,
58a5cf959e040a0001399f07,TCR,2024-06-11_13h09.47.119,LearnStrategy,2023.2.3,Win32,59.52380952,8,2,2,,,,,,,,1,05,,,,,,,,,,,1,3.084,1,,,,,,-0.424999966,-0.237962986,1,0,0,3.0837,Andesite_rect,1,0,1,0,1,
58a5cf959e040a0001399f07,TCR,2024-06-11_13h09.47.119,LearnStrategy,2023.2.3,Win32,59.52380952,8,2,3,,,,,,,,6,06,,,,,,,,,,,6,1.452,1,,,,,,-0.199074097,-0.396296319,1,0,0,1.452,Pegmatite_rect,2,0,2,0,1,
58a5cf959e040a0001399f07,TCR,2024-06-11_13h09.47.119,LearnStrategy,2023.2.3,Win32,59.52380952,8,2,4,,,,,,,,7,16,,,,,,,,,,,7,1.061,1,,,,,,0.152777778,-0.384259237,1,0,0,1.0611,Peridotite_rect,3,0,3,0,1,
58a5cf959e040a0001399f07,TCR,2024-06-11_13h09.47.119,LearnStrategy,2023.2.3,Win32,59.52380952,8,2,5,,,,,,,,6,16,,,,,,,,,,,6,1.415,1,,,,,,-0.183333333,-0.411111179,1,0,0,1.4154,Pegmatite_rect,4,0,4,0,1,
58a5cf959e040a0001399f07,TCR,2024-06-11_13h09.47.119,LearnStrategy,2023.2.3,Win32,59.52380952,8,2,6,,,,,,,,8,05,,,,,,,,,,,8,1.121,1,,,,,,0.451851807,-0.413888957,1,0,0,1.1211,Pumice_rect,5,0,5,0,1,
58a5cf959e040a0001399f07,TCR,2024-06-11_13h09.47.119,LearnStrategy,2023.2.3,Win32,59.52380952,8,2,7,,,,,,,,8,09,,,,,,,,,,,8,0.666,1,,,,,,0.451851807,-0.413888957,1,0,0,0.6663,Pumice_rect,6,0,6,0,1,
58a5cf959e040a0001399f07,TCR,2024-06-11_13h09.47.119,LearnStrategy,2023.2.3,Win32,59.52380952,8,2,8,,,,,,,,2,12,,,,,,,,,,,8,0.667,0,,,,,,0.451851807,-0.413888957,1,0,0,0.6672,Pumice_rect,7,0,7,0,1,
58a5cf959e040a0001399f07,TCR,2024-06-11_13h09.47.119,LearnStrategy,2023.2.3,Win32,59.52380952,8,2,9,,,,,,,,7,10,,,,,,,,,,,7,1.046,1,,,,,,0.183333333,-0.395370348,1,0,0,1.0456,Peridotite_rect,8,0,8,0,1,
58a5cf959e040a0001399f07,TCR,2024-06-11_13h09.47.119,LearnStrategy,2023.2.3,Win32,59.52380952,8,2,10,,,,,,,,4,16,,,,,,,,,,,4,2.039,1,,,,,,0.41018514,-0.262962986,1,0,0,2.0387,Gabbro_rect,9,0,9,0,1,
58a5cf959e040a0001399f07,TCR,2024-06-11_13h09.47.119,LearnStrategy,2023.2.3,Win32,59.52380952,8,2,11,,,,,,,,3,14,,,,,,,,,,,3,2.421,1,,,,,,0.181481459,-0.25740743,1,0,0,2.4213,Diorite_rect,10,0,10,0,1,
58a5cf959e040a0001399f07,TCR,2024-06-11_13h09.47.119,LearnStrategy,2023.2.3,Win32,59.52380952,8,2,12,,,,,,,,3,06,,,,,,,,,,,4,4.61,0,,,,,,0.43518514,-0.237962986,1,0,0,4.6103,Gabbro_rect,11,0,11,0,1,
58a5cf959e040a0001399f07,TCR,2024-06-11_13h09.47.119,LearnStrategy,2023.2.3,Win32,59.52380952,8,2,13,,,,,,,,4,08,,,,,,,,,,,4,1.271,1,,,,,,0.478703613,-0.26759257,1,0,0,1.2707,Gabbro_rect,12,0,12,0,1,
58a5cf959e040a0001399f07,TCR,2024-06-11_13h09.47.119,LearnStrategy,2023.2.3,Win32,59.52380952,8,2,14,,,,,,,,1,10,,,,,,,,,,,4,1.954,0,,,,,,0.396296251,-0.253703681,1,0,0,1.9536,Gabbro_rect,13,0,13,0,1,
58a5cf959e040a0001399f07,TCR,2024-06-11_13h09.47.119,LearnStrategy,2023.2.3,Win32,59.52380952,8,2,15,,,,,,,,2,14,,,,,,,,,,,8,2.555,0,,,,,,0.38518514,-0.389814792,1,0,0,2.5553,Pumice_rect,14,0,14,0,1,
58a5cf959e040a0001399f07,TCR,2024-06-11_13h09.47.119,LearnStrategy,2023.2.3,Win32,59.52380952,8,2,16,,,,,,,,5,02,,,,,,,,,,,5,1.086,1,,,,,,-0.354629652,-0.404629652,1,0,0,1.086,Obsidian_rect,15,0,15,0,1,
58a5cf959e040a0001399f07,TCR,2024-06-11_13h09.47.119,LearnStrategy,2023.2.3,Win32,59.52380952,9,1,1,-0.001851874,0.002777778,1,0,0,0.8777,rock_grid_rect_2,1,11,-1,-1,0.878,-0.311111111,-0.246296319,1,0,0,1.7288,Andesite_rect,1,1.729,1,0,0,0,0,1,,,,,,,,,,,,,
58a5cf959e040a0001399f07,TCR,2024-06-11_13h09.47.119,LearnStrategy,2023.2.3,Win32,59.52380952,9,1,2,0.046296319,0.012037048,1,0,0,0.8765,rock_grid_rect_2,8,10,-1,-1,0.876,0.399074029,-0.401851874,1,0,0,1.0555,Pumice_rect,8,1.056,1,1,0,1,0,1,,,,,,,,,,,,,
58a5cf959e040a0001399f07,TCR,2024-06-11_13h09.47.119,LearnStrategy,2023.2.3,Win32,59.52380952,9,1,3,-0.050925903,0.016666667,1,0,0,1.0127,rock_grid_rect_2,2,16,-1,-1,1.013,-0.133333266,-0.234259237,1,0,0,0.9443,Basalt_rect,2,0.944,1,2,0,2,0,1,,,,,,,,,,,,,
58a5cf959e040a0001399f07,TCR,2024-06-11_13h09.47.119,LearnStrategy,2023.2.3,Win32,59.52380952,9,1,4,0.000925903,-0.013888889,1,0,0,0.5605,rock_grid_rect_2,3,12,-1,-1,0.561,0.349074029,-0.249074097,1,0,0,1.0966,Gabbro_rect,4,1.097,0,3,0,3,0,1,,,,,,,,,,,,,
58a5cf959e040a0001399f07,TCR,2024-06-11_13h09.47.119,LearnStrategy,2023.2.3,Win32,59.52380952,9,1,5,0.015740763,-0.013888889,1,0,0,0.6945,rock_grid_rect_2,4,09,-1,-1,0.694,0.323148058,-0.236111179,1,0,0,1.6576,Gabbro_rect,4,1.658,1,4,0,4,0,1,,,,,,,,,,,,,
58a5cf959e040a0001399f07,TCR,2024-06-11_13h09.47.119,LearnStrategy,2023.2.3,Win32,59.52380952,9,1,6,0.038888957,-0.001851841,1,0,0,0.6945,rock_grid_rect_2,4,12,-1,-1,0.694,0.4,-0.249074097,1,0,0,1.3113,Gabbro_rect,4,1.311,1,5,0,5,0,1,,,,,,,,,,,,,
58a5cf959e040a0001399f07,TCR,2024-06-11_13h09.47.119,LearnStrategy,2023.2.3,Win32,59.52380952,9,1,7,0.008333401,-0.006481459,1,0,0,0.8139,rock_grid_rect_2,1,03,-1,-1,0.814,-0.452777744,-0.234259237,1,0,0,1.0739,Andesite_rect,1,1.074,1,6,0,6,0,1,,,,,,,,,,,,,
58a5cf959e040a0001399f07,TCR,2024-06-11_13h09.47.119,LearnStrategy,2023.2.3,Win32,59.52380952,9,1,8,0.071296251,-0.004629618,1,0,0,0.6278,rock_grid_rect_2,7,06,-1,-1,0.628,0.082407362,-0.399074097,1,0,0,0.9447,Peridotite_rect,7,0.945,1,7,0,7,0,1,,,,,,,,,,,,,
58a5cf959e040a0001399f07,TCR,2024-06-11_13h09.47.119,LearnStrategy,2023.2.3,Win32,59.52380952,9,1,9,0.013888957,-0.002777778,1,0,0,0.5787,rock_grid_rect_2,1,02,-1,-1,0.579,-0.383333333,-0.249074097,1,0,0,1.7246,Andesite_rect,1,1.725,1,8,0,8,0,1,,,,,,,,,,,,,
58a5cf959e040a0001399f07,TCR,2024-06-11_13h09.47.119,LearnStrategy,2023.2.3,Win32,59.52380952,9,1,10,0.025925903,0.014814826,1,0,0,0.8279,rock_grid_rect_2,6,09,-1,-1,0.828,-0.172222154,-0.401851874,1,0,0,1.1527,Pegmatite_rect,6,1.153,1,9,0,9,0,1,,,,,,,,,,,,,
58a5cf959e040a0001399f07,TCR,2024-06-11_13h09.47.119,LearnStrategy,2023.2.3,Win32,59.52380952,9,1,11,-0.021296319,0.001851874,1,0,0,0.8282,rock_grid_rect_2,2,02,-1,-1,0.828,-0.094444377,-0.245370348,1,0,0,1.0129,Basalt_rect,2,1.013,1,10,0,10,0,1,,,,,,,,,,,,,
58a5cf959e040a0001399f07,TCR,2024-06-11_13h09.47.119,LearnStrategy,2023.2.3,Win32,59.52380952,9,1,12,-0.054629652,0.015740763,1,0,0,0.5456,rock_grid_rect_2,5,04,-1,-1,0.546,-0.394444444,-0.391666734,1,0,0,0.8922,Obsidian_rect,5,0.892,1,11,0,11,0,1,,,,,,,,,,,,,
58a5cf959e040a0001399f07,TCR,2024-06-11_13h09.47.119,LearnStrategy,2023.2.3,Win32,59.52380952,9,1,13,-0.00277771,0.011111111,1,0,0,0.8293,rock_grid_rect_2,2,05,-1,-1,0.829,-0.194444444,-0.234259237,1,0,0,0.988,Basalt_rect,2,0.988,1,12,0,12,0,1,,,,,,,,,,,,,
58a5cf959e040a0001399f07,TCR,2024-06-11_13h09.47.119,LearnStrategy,2023.2.3,Win32,59.52380952,9,1,14,-0.064814792,0.022222222,1,0,0,0.9003,rock_grid_rect_2,3,10,-1,-1,0.9,0.143518473,-0.254629652,1,0,0,0.9744,Diorite_rect,3,0.974,1,13,0,13,0,1,,,,,,,,,,,,,
58a5cf959e040a0001399f07,TCR,2024-06-11_13h09.47.119,LearnStrategy,2023.2.3,Win32,59.52380952,9,1,15,-0.018518541,-0.001851841,1,0,0,1.2454,rock_grid_rect_2,7,14,-1,-1,1.245,0.157407362,-0.391666734,1,0,0,1.3641,Peridotite_rect,7,1.364,1,14,0,14,0,1,,,,,,,,,,,,,
58a5cf959e040a0001399f07,TCR,2024-06-11_13h09.47.119,LearnStrategy,2023.2.3,Win32,59.52380952,9,1,16,0.023148126,-0.006481459,1,0,0,0.9275,rock_grid_rect_2,3,10,-1,-1,0.928,0.151851807,-0.234259237,1,0,0,1.0449,Diorite_rect,3,1.045,1,15,0,15,0,1,,,,,,,,,,,,,
58a5cf959e040a0001399f07,TCR,2024-06-11_13h09.47.119,LearnStrategy,2023.2.3,Win32,59.52380952,9,2,1,,,,,,,,8,03,,,,,,,,,,,8,1.185,1,,,,,,0.378703613,-0.410185208,1,0,0,1.1849,Pumice_rect,0,0,0,0,1,
58a5cf959e040a0001399f07,TCR,2024-06-11_13h09.47.119,LearnStrategy,2023.2.3,Win32,59.52380952,9,2,2,,,,,,,,4,01,,,,,,,,,,,4,2.559,1,,,,,,0.397222222,-0.271296319,1,0,0,2.5587,Gabbro_rect,1,0,1,0,1,
58a5cf959e040a0001399f07,TCR,2024-06-11_13h09.47.119,LearnStrategy,2023.2.3,Win32,59.52380952,9,2,3,,,,,,,,2,01,,,,,,,,,,,2,0.91,1,,,,,,-0.097222154,-0.240740763,1,0,0,0.9101,Basalt_rect,2,0,2,0,1,
58a5cf959e040a0001399f07,TCR,2024-06-11_13h09.47.119,LearnStrategy,2023.2.3,Win32,59.52380952,9,2,4,,,,,,,,5,06,,,,,,,,,,,5,0.894,1,,,,,,-0.348148159,-0.384259237,1,0,0,0.8941,Obsidian_rect,3,0,3,0,1,
58a5cf959e040a0001399f07,TCR,2024-06-11_13h09.47.119,LearnStrategy,2023.2.3,Win32,59.52380952,9,2,5,,,,,,,,1,04,,,,,,,,,,,3,2.99,0,,,,,,0.152777778,-0.246296319,1,0,0,2.9895,Diorite_rect,4,0,4,0,1,
58a5cf959e040a0001399f07,TCR,2024-06-11_13h09.47.119,LearnStrategy,2023.2.3,Win32,59.52380952,9,2,6,,,,,,,,3,15,,,,,,,,,,,1,2.689,0,,,,,,-0.411111111,-0.263888957,1,0,0,2.6887,Andesite_rect,5,0,5,0,1,
58a5cf959e040a0001399f07,TCR,2024-06-11_13h09.47.119,LearnStrategy,2023.2.3,Win32,59.52380952,9,2,7,,,,,,,,2,04,,,,,,,,,,,2,0.909,1,,,,,,-0.069444377,-0.258333401,1,0,0,0.9091,Basalt_rect,6,0,6,0,1,
58a5cf959e040a0001399f07,TCR,2024-06-11_13h09.47.119,LearnStrategy,2023.2.3,Win32,59.52380952,9,2,8,,,,,,,,7,08,,,,,,,,,,,7,0.985,1,,,,,,0.2,-0.412962986,1,0,0,0.9845,Peridotite_rect,7,0,7,0,1,
58a5cf959e040a0001399f07,TCR,2024-06-11_13h09.47.119,LearnStrategy,2023.2.3,Win32,59.52380952,9,2,9,,,,,,,,8,04,,,,,,,,,,,8,0.885,1,,,,,,0.363888889,-0.387962986,1,0,0,0.8853,Pumice_rect,8,0,8,0,1,
58a5cf959e040a0001399f07,TCR,2024-06-11_13h09.47.119,LearnStrategy,2023.2.3,Win32,59.52380952,9,2,10,,,,,,,,6,07,,,,,,,,,,,6,0.999,1,,,,,,-0.054629652,-0.415740763,1,0,0,0.9985,Pegmatite_rect,9,0,9,0,1,
58a5cf959e040a0001399f07,TCR,2024-06-11_13h09.47.119,LearnStrategy,2023.2.3,Win32,59.52380952,9,2,11,,,,,,,,6,15,,,,,,,,,,,6,0.936,1,,,,,,-0.169444377,-0.396296319,1,0,0,0.9364,Pegmatite_rect,10,0,10,0,1,
58a5cf959e040a0001399f07,TCR,2024-06-11_13h09.47.119,LearnStrategy,2023.2.3,Win32,59.52380952,9,2,12,,,,,,,,3,09,,,,,,,,,,,1,1.301,0,,,,,,-0.302777778,-0.229629652,1,0,0,1.3009,Andesite_rect,11,0,11,0,1,
58a5cf959e040a0001399f07,TCR,2024-06-11_13h09.47.119,LearnStrategy,2023.2.3,Win32,59.52380952,9,2,13,,,,,,,,4,13,,,,,,,,,,,4,1.412,1,,,,,,0.390740696,-0.248148126,1,0,0,1.4116,Gabbro_rect,12,0,12,0,1,
58a5cf959e040a0001399f07,TCR,2024-06-11_13h09.47.119,LearnStrategy,2023.2.3,Win32,59.52380952,9,2,14,,,,,,,,1,16,,,,,,,,,,,3,2.272,0,,,,,,0.138888889,-0.246296319,1,0,0,2.2724,Diorite_rect,13,0,13,0,1,
58a5cf959e040a0001399f07,TCR,2024-06-11_13h09.47.119,LearnStrategy,2023.2.3,Win32,59.52380952,9,2,15,,,,,,,,5,07,,,,,,,,,,,5,1.565,1,,,,,,-0.346296319,-0.404629652,1,0,0,1.5648,Obsidian_rect,14,0,14,0,1,
58a5cf959e040a0001399f07,TCR,2024-06-11_13h09.47.119,LearnStrategy,2023.2.3,Win32,59.52380952,9,2,16,,,,,,,,7,05,,,,,,,,,,,7,1.127,1,,,,,,0.106481459,-0.39722229,1,0,0,1.1267,Peridotite_rect,15,0,15,0,1,
58a5cf959e040a0001399f07,TCR,2024-06-11_13h09.47.119,LearnStrategy,2023.2.3,Win32,59.52380952,,,,,,,,,,,,,,,,,,,,,,,,,,,,,,,,,,,,,,,,,,,1
58a5cf959e040a0001399f07,TCR,2024-06-11_13h09.47.119,LearnStrategy,2023.2.3,Win32,59.52380952,,,,,,,,,,,,,,,,,,,,,,,,,,,,,,,,,,,,,,,,,,,
58a5cf959e040a0001399f07,TCR,2024-06-11_13h09.47.119,LearnStrategy,2023.2.3,Win32,59.52380952,,,,,,,,,,,1,09,1,1,,,,,,,,,,,,,,,,,,,,,,,,,,,,,
58a5cf959e040a0001399f07,TCR,2024-06-11_13h09.47.119,LearnStrategy,2023.2.3,Win32,59.52380952,,,,,,,,,,,6,11,1,2,,,,,,,,,,,,,,,,,,,,,,,,,,,,,
58a5cf959e040a0001399f07,TCR,2024-06-11_13h09.47.119,LearnStrategy,2023.2.3,Win32,59.52380952,,,,,,,,,,,3,16,1,3,,,,,,,,,,,,,,,,,,,,,,,,,,,,,
58a5cf959e040a0001399f07,TCR,2024-06-11_13h09.47.119,LearnStrategy,2023.2.3,Win32,59.52380952,,,,,,,,,,,1,03,1,4,,,,,,,,,,,,,,,,,,,,,,,,,,,,,
58a5cf959e040a0001399f07,TCR,2024-06-11_13h09.47.119,LearnStrategy,2023.2.3,Win32,59.52380952,,,,,,,,,,,3,10,1,5,,,,,,,,,,,,,,,,,,,,,,,,,,,,,
58a5cf959e040a0001399f07,TCR,2024-06-11_13h09.47.119,LearnStrategy,2023.2.3,Win32,59.52380952,,,,,,,,,,,2,02,1,6,,,,,,,,,,,,,,,,,,,,,,,,,,,,,
58a5cf959e040a0001399f07,TCR,2024-06-11_13h09.47.119,LearnStrategy,2023.2.3,Win32,59.52380952,,,,,,,,,,,7,13,1,7,,,,,,,,,,,,,,,,,,,,,,,,,,,,,
58a5cf959e040a0001399f07,TCR,2024-06-11_13h09.47.119,LearnStrategy,2023.2.3,Win32,59.52380952,,,,,,,,,,,7,06,1,8,,,,,,,,,,,,,,,,,,,,,,,,,,,,,
58a5cf959e040a0001399f07,TCR,2024-06-11_13h09.47.119,LearnStrategy,2023.2.3,Win32,59.52380952,,,,,,,,,,,6,05,2,1,,,,,,,,,,,,,,,,,,,,,,,,,,,,,
58a5cf959e040a0001399f07,TCR,2024-06-11_13h09.47.119,LearnStrategy,2023.2.3,Win32,59.52380952,,,,,,,,,,,2,09,2,2,,,,,,,,,,,,,,,,,,,,,,,,,,,,,
58a5cf959e040a0001399f07,TCR,2024-06-11_13h09.47.119,LearnStrategy,2023.2.3,Win32,59.52380952,,,,,,,,,,,8,13,2,3,,,,,,,,,,,,,,,,,,,,,,,,,,,,,
58a5cf959e040a0001399f07,TCR,2024-06-11_13h09.47.119,LearnStrategy,2023.2.3,Win32,59.52380952,,,,,,,,,,,3,02,2,4,,,,,,,,,,,,,,,,,,,,,,,,,,,,,
58a5cf959e040a0001399f07,TCR,2024-06-11_13h09.47.119,LearnStrategy,2023.2.3,Win32,59.52380952,,,,,,,,,,,7,14,2,5,,,,,,,,,,,,,,,,,,,,,,,,,,,,,
58a5cf959e040a0001399f07,TCR,2024-06-11_13h09.47.119,LearnStrategy,2023.2.3,Win32,59.52380952,,,,,,,,,,,3,12,2,6,,,,,,,,,,,,,,,,,,,,,,,,,,,,,
58a5cf959e040a0001399f07,TCR,2024-06-11_13h09.47.119,LearnStrategy,2023.2.3,Win32,59.52380952,,,,,,,,,,,6,03,2,7,,,,,,,,,,,,,,,,,,,,,,,,,,,,,
58a5cf959e040a0001399f07,TCR,2024-06-11_13h09.47.119,LearnStrategy,2023.2.3,Win32,59.52380952,,,,,,,,,,,2,16,2,8,,,,,,,,,,,,,,,,,,,,,,,,,,,,,
58a5cf959e040a0001399f07,TCR,2024-06-11_13h09.47.119,LearnStrategy,2023.2.3,Win32,59.52380952,,,,,,,,,,,7,02,3,1,,,,,,,,,,,,,,,,,,,,,,,,,,,,,
58a5cf959e040a0001399f07,TCR,2024-06-11_13h09.47.119,LearnStrategy,2023.2.3,Win32,59.52380952,,,,,,,,,,,4,10,3,2,,,,,,,,,,,,,,,,,,,,,,,,,,,,,
58a5cf959e040a0001399f07,TCR,2024-06-11_13h09.47.119,LearnStrategy,2023.2.3,Win32,59.52380952,,,,,,,,,,,8,02,3,3,,,,,,,,,,,,,,,,,,,,,,,,,,,,,
58a5cf959e040a0001399f07,TCR,2024-06-11_13h09.47.119,LearnStrategy,2023.2.3,Win32,59.52380952,,,,,,,,,,,2,05,3,4,,,,,,,,,,,,,,,,,,,,,,,,,,,,,
58a5cf959e040a0001399f07,TCR,2024-06-11_13h09.47.119,LearnStrategy,2023.2.3,Win32,59.52380952,,,,,,,,,,,1,02,3,5,,,,,,,,,,,,,,,,,,,,,,,,,,,,,
58a5cf959e040a0001399f07,TCR,2024-06-11_13h09.47.119,LearnStrategy,2023.2.3,Win32,59.52380952,,,,,,,,,,,8,15,3,6,,,,,,,,,,,,,,,,,,,,,,,,,,,,,
58a5cf959e040a0001399f07,TCR,2024-06-11_13h09.47.119,LearnStrategy,2023.2.3,Win32,59.52380952,,,,,,,,,,,7,12,3,7,,,,,,,,,,,,,,,,,,,,,,,,,,,,,
58a5cf959e040a0001399f07,TCR,2024-06-11_13h09.47.119,LearnStrategy,2023.2.3,Win32,59.52380952,,,,,,,,,,,1,06,3,8,,,,,,,,,,,,,,,,,,,,,,,,,,,,,
58a5cf959e040a0001399f07,TCR,2024-06-11_13h09.47.119,LearnStrategy,2023.2.3,Win32,59.52380952,,,,,,,,,,,5,12,4,1,,,,,,,,,,,,,,,,,,,,,,,,,,,,,
58a5cf959e040a0001399f07,TCR,2024-06-11_13h09.47.119,LearnStrategy,2023.2.3,Win32,59.52380952,,,,,,,,,,,4,15,4,2,,,,,,,,,,,,,,,,,,,,,,,,,,,,,
58a5cf959e040a0001399f07,TCR,2024-06-11_13h09.47.119,LearnStrategy,2023.2.3,Win32,59.52380952,,,,,,,,,,,8,14,4,3,,,,,,,,,,,,,,,,,,,,,,,,,,,,,
58a5cf959e040a0001399f07,TCR,2024-06-11_13h09.47.119,LearnStrategy,2023.2.3,Win32,59.52380952,,,,,,,,,,,6,09,4,4,,,,,,,,,,,,,,,,,,,,,,,,,,,,,
58a5cf959e040a0001399f07,TCR,2024-06-11_13h09.47.119,LearnStrategy,2023.2.3,Win32,59.52380952,,,,,,,,,,,5,05,4,5,,,,,,,,,,,,,,,,,,,,,,,,,,,,,
58a5cf959e040a0001399f07,TCR,2024-06-11_13h09.47.119,LearnStrategy,2023.2.3,Win32,59.52380952,,,,,,,,,,,1,11,4,6,,,,,,,,,,,,,,,,,,,,,,,,,,,,,
58a5cf959e040a0001399f07,TCR,2024-06-11_13h09.47.119,LearnStrategy,2023.2.3,Win32,59.52380952,,,,,,,,,,,2,08,4,7,,,,,,,,,,,,,,,,,,,,,,,,,,,,,
58a5cf959e040a0001399f07,TCR,2024-06-11_13h09.47.119,LearnStrategy,2023.2.3,Win32,59.52380952,,,,,,,,,,,3,13,4,8,,,,,,,,,,,,,,,,,,,,,,,,,,,,,
58a5cf959e040a0001399f07,TCR,2024-06-11_13h09.47.119,LearnStrategy,2023.2.3,Win32,59.52380952,,,,,,,,,,,7,07,5,1,,,,,,,,,,,,,,,,,,,,,,,,,,,,,
58a5cf959e040a0001399f07,TCR,2024-06-11_13h09.47.119,LearnStrategy,2023.2.3,Win32,59.52380952,,,,,,,,,,,8,10,5,2,,,,,,,,,,,,,,,,,,,,,,,,,,,,,
58a5cf959e040a0001399f07,TCR,2024-06-11_13h09.47.119,LearnStrategy,2023.2.3,Win32,59.52380952,,,,,,,,,,,4,05,5,3,,,,,,,,,,,,,,,,,,,,,,,,,,,,,
58a5cf959e040a0001399f07,TCR,2024-06-11_13h09.47.119,LearnStrategy,2023.2.3,Win32,59.52380952,,,,,,,,,,,6,08,5,4,,,,,,,,,,,,,,,,,,,,,,,,,,,,,
58a5cf959e040a0001399f07,TCR,2024-06-11_13h09.47.119,LearnStrategy,2023.2.3,Win32,59.52380952,,,,,,,,,,,4,09,5,5,,,,,,,,,,,,,,,,,,,,,,,,,,,,,
58a5cf959e040a0001399f07,TCR,2024-06-11_13h09.47.119,LearnStrategy,2023.2.3,Win32,59.52380952,,,,,,,,,,,4,11,5,6,,,,,,,,,,,,,,,,,,,,,,,,,,,,,
58a5cf959e040a0001399f07,TCR,2024-06-11_13h09.47.119,LearnStrategy,2023.2.3,Win32,59.52380952,,,,,,,,,,,3,08,5,7,,,,,,,,,,,,,,,,,,,,,,,,,,,,,
58a5cf959e040a0001399f07,TCR,2024-06-11_13h09.47.119,LearnStrategy,2023.2.3,Win32,59.52380952,,,,,,,,,,,2,06,5,8,,,,,,,,,,,,,,,,,,,,,,,,,,,,,
58a5cf959e040a0001399f07,TCR,2024-06-11_13h09.47.119,LearnStrategy,2023.2.3,Win32,59.52380952,,,,,,,,,,,5,14,6,1,,,,,,,,,,,,,,,,,,,,,,,,,,,,,
58a5cf959e040a0001399f07,TCR,2024-06-11_13h09.47.119,LearnStrategy,2023.2.3,Win32,59.52380952,,,,,,,,,,,1,07,6,2,,,,,,,,,,,,,,,,,,,,,,,,,,,,,
58a5cf959e040a0001399f07,TCR,2024-06-11_13h09.47.119,LearnStrategy,2023.2.3,Win32,59.52380952,,,,,,,,,,,5,04,6,3,,,,,,,,,,,,,,,,,,,,,,,,,,,,,
58a5cf959e040a0001399f07,TCR,2024-06-11_13h09.47.119,LearnStrategy,2023.2.3,Win32,59.52380952,,,,,,,,,,,4,12,6,4,,,,,,,,,,,,,,,,,,,,,,,,,,,,,
58a5cf959e040a0001399f07,TCR,2024-06-11_13h09.47.119,LearnStrategy,2023.2.3,Win32,59.52380952,,,,,,,,,,,8,16,6,5,,,,,,,,,,,,,,,,,,,,,,,,,,,,,
58a5cf959e040a0001399f07,TCR,2024-06-11_13h09.47.119,LearnStrategy,2023.2.3,Win32,59.52380952,,,,,,,,,,,5,11,6,6,,,,,,,,,,,,,,,,,,,,,,,,,,,,,
58a5cf959e040a0001399f07,TCR,2024-06-11_13h09.47.119,LearnStrategy,2023.2.3,Win32,59.52380952,,,,,,,,,,,5,08,6,7,,,,,,,,,,,,,,,,,,,,,,,,,,,,,
58a5cf959e040a0001399f07,TCR,2024-06-11_13h09.47.119,LearnStrategy,2023.2.3,Win32,59.52380952,,,,,,,,,,,6,12,6,8,,,,,,,,,,,,,,,,,,,,,,,,,,,,,