participant,condition,date,expName,psychopyVersion,OS,frameRate,block,phase,trial,learn_mouse.x,learn_mouse.y,learn_mouse.leftButton,learn_mouse.midButton,learn_mouse.rightButton,learn_mouse.time,learn_mouse.clicked_name,cat,token,row,col,t_select,cat_mouse_l.x,cat_mouse_l.y,cat_mouse_l.leftButton,cat_mouse_l.midButton,cat_mouse_l.rightButton,cat_mouse_l.time,cat_mouse_l.clicked_name,resp,t_resp,corr,train_trials.thisRepN,train_trials.thisTrialN,train_trials.thisN,train_trials.thisIndex,train_trials.ran,cat_mouse_t.x,cat_mouse_t.y,cat_mouse_t.leftButton,cat_mouse_t.midButton,cat_mouse_t.rightButton,cat_mouse_t.time,cat_mouse_t.clicked_name,test_trials.thisRepN,test_trials.thisTrialN,test_trials.thisN,test_trials.thisIndex,test_trials.ran,Bonus
58cab9bfc7ed3f000116e2a4,SCN,2024-06-11_12h20.20.635,LearnStrategy,2023.2.3,Win32,60.60606061,,,,,,,,,,,,,,,,,,,,,,,,,,,,,,,,,,,,,,,,,,,
58cab9bfc7ed3f000116e2a4,SCN,2024-06-11_12h20.20.635,LearnStrategy,2023.2.3,Win32,60.60606061,1,1,1,0.2109375,0.104166667,1,0,0,4.9003,Obsidian_04,5,04,4,6,4.9,-0.346354167,-0.38671875,1,0,0,10.2238,Obsidian_rect,5,10.224,1,0,0,0,0,1,,,,,,,,,,,,,
58cab9bfc7ed3f000116e2a4,SCN,2024-06-11_12h20.20.635,LearnStrategy,2023.2.3,Win32,60.60606061,1,1,2,0.0703125,-0.09375,1,0,0,2.8296,Pumice_10,8,10,3,5,2.83,0.348958333,-0.3828125,1,0,0,2.579,Pumice_rect,8,2.579,1,1,0,1,0,1,,,,,,,,,,,,,
58cab9bfc7ed3f000116e2a4,SCN,2024-06-11_12h20.20.635,LearnStrategy,2023.2.3,Win32,60.60606061,1,1,3,0.563802083,-0.1328125,1,0,0,4.8061,Peridotite_13,7,13,3,8,4.806,-0.135416667,-0.26171875,1,0,0,6.2658,Basalt_rect,2,6.266,0,2,0,2,0,1,,,,,,,,,,,,,
58cab9bfc7ed3f000116e2a4,SCN,2024-06-11_12h20.20.635,LearnStrategy,2023.2.3,Win32,60.60606061,1,1,4,-0.42578125,-0.40234375,1,0,0,2.2561,Diorite_14,3,14,1,2,2.256,-0.174479167,-0.248697917,1,0,0,5.3588,Basalt_rect,2,5.359,0,3,0,3,0,1,,,,,,,,,,,,,
58cab9bfc7ed3f000116e2a4,SCN,2024-06-11_12h20.20.635,LearnStrategy,2023.2.3,Win32,60.60606061,1,1,5,0.0625,0.098958333,1,0,0,1.3453,Pumice_08,8,08,4,5,1.345,-0.083333333,-0.24609375,1,0,0,4.7368,Basalt_rect,2,4.737,0,4,0,4,0,1,,,,,,,,,,,,,
58cab9bfc7ed3f000116e2a4,SCN,2024-06-11_12h20.20.635,LearnStrategy,2023.2.3,Win32,60.60606061,1,1,6,-0.24609375,0.263020833,1,0,0,12.7299,Obsidian_06,5,06,5,3,12.73,0.360677083,-0.2421875,1,0,0,4.0268,Gabbro_rect,4,4.027,0,5,0,5,0,1,,,,,,,,,,,,,
58cab9bfc7ed3f000116e2a4,SCN,2024-06-11_12h20.20.635,LearnStrategy,2023.2.3,Win32,60.60606061,1,1,7,-0.569010417,-0.247395833,1,0,0,1.6969,Pegmatite_13,6,13,2,1,1.697,-0.1953125,-0.4140625,1,0,0,2.606,Pegmatite_rect,6,2.606,1,6,0,6,0,1,,,,,,,,,,,,,
58cab9bfc7ed3f000116e2a4,SCN,2024-06-11_12h20.20.635,LearnStrategy,2023.2.3,Win32,60.60606061,1,1,8,-0.544270833,0.049479167,1,0,0,3.7796,Basalt_09,2,09,4,1,3.78,0.080729167,-0.26953125,1,0,0,6.405,Diorite_rect,3,6.405,0,7,0,7,0,1,,,,,,,,,,,,,
58cab9bfc7ed3f000116e2a4,SCN,2024-06-11_12h20.20.635,LearnStrategy,2023.2.3,Win32,60.60606061,1,1,9,-0.2421875,-0.296875,1,0,0,5.3788,Pegmatite_10,6,10,2,3,5.379,0.1171875,-0.37890625,1,0,0,2.4547,Peridotite_rect,7,2.455,0,8,0,8,0,1,,,,,,,,,,,,,
58cab9bfc7ed3f000116e2a4,SCN,2024-06-11_12h20.20.635,LearnStrategy,2023.2.3,Win32,60.60606061,1,1,10,-0.359375,-0.109375,1,0,0,1.5467,Peridotite_15,7,15,3,2,1.547,-0.109375,-0.393229167,1,0,0,2.6616,Pegmatite_rect,6,2.662,0,9,0,9,0,1,,,,,,,,,,,,,
58cab9bfc7ed3f000116e2a4,SCN,2024-06-11_12h20.20.635,LearnStrategy,2023.2.3,Win32,60.60606061,1,1,11,0.559895833,-0.09375,1,0,0,1.6958,Peridotite_13,7,13,3,8,1.696,0.16796875,-0.407552083,1,0,0,1.4292,Peridotite_rect,7,1.429,1,10,0,10,0,1,,,,,,,,,,,,,
58cab9bfc7ed3f000116e2a4,SCN,2024-06-11_12h20.20.635,LearnStrategy,2023.2.3,Win32,60.60606061,1,1,12,0.412760417,-0.412760417,1,0,0,3.1585,Pegmatite_03,6,03,1,7,3.159,-0.412760417,-0.243489583,1,0,0,4.8874,Andesite_rect,1,4.887,0,11,0,11,0,1,,,,,,,,,,,,,
58cab9bfc7ed3f000116e2a4,SCN,2024-06-11_12h20.20.635,LearnStrategy,2023.2.3,Win32,60.60606061,1,1,13,-0.364583333,-0.080729167,1,0,0,1.6123,Peridotite_15,7,15,3,2,1.612,-0.063802083,-0.404947917,1,0,0,6.3709,Pegmatite_rect,6,6.371,0,12,0,12,0,1,,,,,,,,,,,,,
58cab9bfc7ed3f000116e2a4,SCN,2024-06-11_12h20.20.635,LearnStrategy,2023.2.3,Win32,60.60606061,1,1,14,0.5859375,-0.087239583,1,0,0,1.6472,Peridotite_13,7,13,3,8,1.647,-0.07421875,-0.3828125,1,0,0,2.1731,Pegmatite_rect,6,2.173,0,13,0,13,0,1,,,,,,,,,,,,,
58cab9bfc7ed3f000116e2a4,SCN,2024-06-11_12h20.20.635,LearnStrategy,2023.2.3,Win32,60.60606061,1,1,15,-0.20703125,-0.26171875,1,0,0,1.6238,Pegmatite_10,6,10,2,3,1.624,0.109375,-0.412760417,1,0,0,1.4688,Peridotite_rect,7,1.469,0,14,0,14,0,1,,,,,,,,,,,,,
58cab9bfc7ed3f000116e2a4,SCN,2024-06-11_12h20.20.635,LearnStrategy,2023.2.3,Win32,60.60606061,1,1,16,-0.407552083,-0.080729167,1,0,0,1.0788,Peridotite_15,7,15,3,2,1.079,-0.078125,-0.389322917,1,0,0,2.5383,Pegmatite_rect,6,2.538,0,15,0,15,0,1,,,,,,,,,,,,,
58cab9bfc7ed3f000116e2a4,SCN,2024-06-11_12h20.20.635,LearnStrategy,2023.2.3,Win32,60.60606061,1,2,1,,,,,,,,3,16,,,,,,,,,,,1,6.226,0,,,,,,-0.34375,-0.264322917,1,0,0,6.2257,Andesite_rect,0,0,0,0,1,
58cab9bfc7ed3f000116e2a4,SCN,2024-06-11_12h20.20.635,LearnStrategy,2023.2.3,Win32,60.60606061,1,2,2,,,,,,,,3,11,,,,,,,,,,,3,2.152,1,,,,,,0.126302083,-0.264322917,1,0,0,2.1524,Diorite_rect,1,0,1,0,1,
58cab9bfc7ed3f000116e2a4,SCN,2024-06-11_12h20.20.635,LearnStrategy,2023.2.3,Win32,60.60606061,1,2,3,,,,,,,,6,15,,,,,,,,,,,4,5.765,0,,,,,,0.37109375,-0.248697917,1,0,0,5.765,Gabbro_rect,2,0,2,0,1,
58cab9bfc7ed3f000116e2a4,SCN,2024-06-11_12h20.20.635,LearnStrategy,2023.2.3,Win32,60.60606061,1,2,4,,,,,,,,8,05,,,,,,,,,,,8,2.927,1,,,,,,0.3203125,-0.391927083,1,0,0,2.9269,Pumice_rect,3,0,3,0,1,
58cab9bfc7ed3f000116e2a4,SCN,2024-06-11_12h20.20.635,LearnStrategy,2023.2.3,Win32,60.60606061,1,2,5,,,,,,,,7,16,,,,,,,,,,,7,4.297,1,,,,,,0.059895833,-0.403645833,1,0,0,4.2968,Peridotite_rect,4,0,4,0,1,
58cab9bfc7ed3f000116e2a4,SCN,2024-06-11_12h20.20.635,LearnStrategy,2023.2.3,Win32,60.60606061,1,2,6,,,,,,,,1,07,,,,,,,,,,,3,5.421,0,,,,,,0.102864583,-0.229166667,1,0,0,5.4211,Diorite_rect,5,0,5,0,1,
58cab9bfc7ed3f000116e2a4,SCN,2024-06-11_12h20.20.635,LearnStrategy,2023.2.3,Win32,60.60606061,1,2,7,,,,,,,,4,16,,,,,,,,,,,2,2.011,0,,,,,,-0.200520833,-0.23828125,1,0,0,2.0108,Basalt_rect,6,0,6,0,1,
58cab9bfc7ed3f000116e2a4,SCN,2024-06-11_12h20.20.635,LearnStrategy,2023.2.3,Win32,60.60606061,1,2,8,,,,,,,,6,08,,,,,,,,,,,5,2.763,0,,,,,,-0.377604167,-0.389322917,1,0,0,2.7635,Obsidian_rect,7,0,7,0,1,
58cab9bfc7ed3f000116e2a4,SCN,2024-06-11_12h20.20.635,LearnStrategy,2023.2.3,Win32,60.60606061,1,2,9,,,,,,,,2,16,,,,,,,,,,,8,2.392,0,,,,,,0.358072917,-0.380208333,1,0,0,2.3917,Pumice_rect,8,0,8,0,1,
58cab9bfc7ed3f000116e2a4,SCN,2024-06-11_12h20.20.635,LearnStrategy,2023.2.3,Win32,60.60606061,1,2,10,,,,,,,,5,10,,,,,,,,,,,4,1.778,0,,,,,,0.350260417,-0.2578125,1,0,0,1.7777,Gabbro_rect,9,0,9,0,1,
58cab9bfc7ed3f000116e2a4,SCN,2024-06-11_12h20.20.635,LearnStrategy,2023.2.3,Win32,60.60606061,1,2,11,,,,,,,,2,06,,,,,,,,,,,5,4.139,0,,,,,,-0.33984375,-0.381510417,1,0,0,4.1391,Obsidian_rect,10,0,10,0,1,
58cab9bfc7ed3f000116e2a4,SCN,2024-06-11_12h20.20.635,LearnStrategy,2023.2.3,Win32,60.60606061,1,2,12,,,,,,,,1,14,,,,,,,,,,,3,2.125,0,,,,,,0.12109375,-0.25390625,1,0,0,2.1245,Diorite_rect,11,0,11,0,1,
58cab9bfc7ed3f000116e2a4,SCN,2024-06-11_12h20.20.635,LearnStrategy,2023.2.3,Win32,60.60606061,1,2,13,,,,,,,,5,05,,,,,,,,,,,5,3.855,1,,,,,,-0.365885417,-0.39453125,1,0,0,3.855,Obsidian_rect,12,0,12,0,1,
58cab9bfc7ed3f000116e2a4,SCN,2024-06-11_12h20.20.635,LearnStrategy,2023.2.3,Win32,60.60606061,1,2,14,,,,,,,,4,12,,,,,,,,,,,8,1.981,0,,,,,,0.3203125,-0.390625,1,0,0,1.9814,Pumice_rect,13,0,13,0,1,
58cab9bfc7ed3f000116e2a4,SCN,2024-06-11_12h20.20.635,LearnStrategy,2023.2.3,Win32,60.60606061,1,2,15,,,,,,,,7,14,,,,,,,,,,,2,13.091,0,,,,,,-0.173177083,-0.247395833,1,0,0,13.0908,Basalt_rect,14,0,14,0,1,
58cab9bfc7ed3f000116e2a4,SCN,2024-06-11_12h20.20.635,LearnStrategy,2023.2.3,Win32,60.60606061,1,2,16,,,,,,,,8,09,,,,,,,,,,,8,2.712,1,,,,,,0.33984375,-0.401041667,1,0,0,2.7125,Pumice_rect,15,0,15,0,1,
58cab9bfc7ed3f000116e2a4,SCN,2024-06-11_12h20.20.635,LearnStrategy,2023.2.3,Win32,60.60606061,2,1,1,0.561197917,-0.421875,1,0,0,5.8159,Obsidian_07,5,07,1,8,5.816,-0.108072917,-0.25390625,1,0,0,2.6915,Basalt_rect,2,2.692,0,0,0,0,0,1,,,,,,,,,,,,,
58cab9bfc7ed3f000116e2a4,SCN,2024-06-11_12h20.20.635,LearnStrategy,2023.2.3,Win32,60.60606061,2,1,2,0.0859375,0.26953125,1,0,0,4.799,Diorite_06,3,06,5,5,4.799,0.377604167,-0.24609375,1,0,0,1.7637,Gabbro_rect,4,1.764,0,1,0,1,0,1,,,,,,,,,,,,,
58cab9bfc7ed3f000116e2a4,SCN,2024-06-11_12h20.20.635,LearnStrategy,2023.2.3,Win32,60.60606061,2,1,3,-0.404947917,-0.2265625,1,0,0,1.3646,Andesite_11,1,11,2,2,1.365,0.091145833,-0.26171875,1,0,0,0.9313,Diorite_rect,3,0.931,0,2,0,2,0,1,,,,,,,,,,,,,
58cab9bfc7ed3f000116e2a4,SCN,2024-06-11_12h20.20.635,LearnStrategy,2023.2.3,Win32,60.60606061,2,1,4,-0.381510417,-0.416666667,1,0,0,1.6809,Diorite_14,3,14,1,2,1.681,0.194010417,-0.243489583,1,0,0,2.3066,Diorite_rect,3,2.307,1,3,0,3,0,1,,,,,,,,,,,,,
58cab9bfc7ed3f000116e2a4,SCN,2024-06-11_12h20.20.635,LearnStrategy,2023.2.3,Win32,60.60606061,2,1,5,0.110677083,0.248697917,1,0,0,3.2971,Diorite_06,3,06,5,5,3.297,0.131510417,-0.270833333,1,0,0,1.1311,Diorite_rect,3,1.131,1,4,0,4,0,1,,,,,,,,,,,,,
58cab9bfc7ed3f000116e2a4,SCN,2024-06-11_12h20.20.635,LearnStrategy,2023.2.3,Win32,60.60606061,2,1,6,-0.087239583,0.130208333,1,0,0,1.4644,Gabbro_13,4,13,4,4,1.464,-0.330729167,-0.255208333,1,0,0,2.5023,Andesite_rect,1,2.502,0,5,0,5,0,1,,,,,,,,,,,,,
58cab9bfc7ed3f000116e2a4,SCN,2024-06-11_12h20.20.635,LearnStrategy,2023.2.3,Win32,60.60606061,2,1,7,0.209635417,0.423177083,1,0,0,2.697,Gabbro_14,4,14,6,6,2.697,0.390625,-0.26171875,1,0,0,2.4666,Gabbro_rect,4,2.467,1,6,0,6,0,1,,,,,,,,,,,,,
58cab9bfc7ed3f000116e2a4,SCN,2024-06-11_12h20.20.635,LearnStrategy,2023.2.3,Win32,60.60606061,2,1,8,-0.102864583,-0.276041667,1,0,0,7.7132,Obsidian_09,5,09,2,4,7.713,-0.345052083,-0.390625,1,0,0,1.8329,Obsidian_rect,5,1.833,1,7,0,7,0,1,,,,,,,,,,,,,
58cab9bfc7ed3f000116e2a4,SCN,2024-06-11_12h20.20.635,LearnStrategy,2023.2.3,Win32,60.60606061,2,1,9,0.10546875,0.10546875,1,0,0,1.4507,Pumice_08,8,08,4,5,1.451,0.346354167,-0.41796875,1,0,0,1.4802,Pumice_rect,8,1.48,1,8,0,8,0,1,,,,,,,,,,,,,
58cab9bfc7ed3f000116e2a4,SCN,2024-06-11_12h20.20.635,LearnStrategy,2023.2.3,Win32,60.60606061,2,1,10,0.56640625,-0.126302083,1,0,0,1.5927,Peridotite_13,7,13,3,8,1.593,0.416666667,-0.259114583,1,0,0,1.5484,Gabbro_rect,4,1.548,0,9,0,9,0,1,,,,,,,,,,,,,
58cab9bfc7ed3f000116e2a4,SCN,2024-06-11_12h20.20.635,LearnStrategy,2023.2.3,Win32,60.60606061,2,1,11,0.407552083,-0.430989583,1,0,0,6.9304,Pegmatite_03,6,03,1,7,6.93,-0.098958333,-0.390625,1,0,0,1.7185,Pegmatite_rect,6,1.719,1,10,0,10,0,1,,,,,,,,,,,,,
58cab9bfc7ed3f000116e2a4,SCN,2024-06-11_12h20.20.635,LearnStrategy,2023.2.3,Win32,60.60606061,2,1,12,-0.389322917,0.278645833,1,0,0,1.7384,Pumice_16,8,16,5,2,1.738,0.39453125,-0.416666667,1,0,0,1.7014,Pumice_rect,8,1.701,1,11,0,11,0,1,,,,,,,,,,,,,
58cab9bfc7ed3f000116e2a4,SCN,2024-06-11_12h20.20.635,LearnStrategy,2023.2.3,Win32,60.60606061,2,1,13,0.072916667,0.10546875,1,0,0,1.3026,Pumice_08,8,08,4,5,1.303,0.358072917,-0.420572917,1,0,0,0.9597,Pumice_rect,8,0.96,1,12,0,12,0,1,,,,,,,,,,,,,
58cab9bfc7ed3f000116e2a4,SCN,2024-06-11_12h20.20.635,LearnStrategy,2023.2.3,Win32,60.60606061,2,1,14,-0.345052083,0.104166667,1,0,0,1.4919,Basalt_10,2,10,4,2,1.492,-0.166666667,-0.247395833,1,0,0,1.8055,Basalt_rect,2,1.806,1,13,0,13,0,1,,,,,,,,,,,,,
58cab9bfc7ed3f000116e2a4,SCN,2024-06-11_12h20.20.635,LearnStrategy,2023.2.3,Win32,60.60606061,2,1,15,0.546875,0.38671875,1,0,0,1.602,Diorite_12,3,12,6,8,1.602,0.151041667,-0.252604167,1,0,0,2.9712,Diorite_rect,3,2.971,1,14,0,14,0,1,,,,,,,,,,,,,
58cab9bfc7ed3f000116e2a4,SCN,2024-06-11_12h20.20.635,LearnStrategy,2023.2.3,Win32,60.60606061,2,1,16,0.092447917,0.278645833,1,0,0,1.4631,Diorite_06,3,06,5,5,1.463,0.083333333,-0.243489583,1,0,0,1.2423,Diorite_rect,3,1.242,1,15,0,15,0,1,,,,,,,,,,,,,
58cab9bfc7ed3f000116e2a4,SCN,2024-06-11_12h20.20.635,LearnStrategy,2023.2.3,Win32,60.60606061,2,2,1,,,,,,,,4,01,,,,,,,,,,,3,4.123,0,,,,,,0.14453125,-0.239583333,1,0,0,4.1226,Diorite_rect,0,0,0,0,1,
58cab9bfc7ed3f000116e2a4,SCN,2024-06-11_12h20.20.635,LearnStrategy,2023.2.3,Win32,60.60606061,2,2,2,,,,,,,,5,14,,,,,,,,,,,5,2.141,1,,,,,,-0.377604167,-0.39453125,1,0,0,2.1415,Obsidian_rect,1,0,1,0,1,
58cab9bfc7ed3f000116e2a4,SCN,2024-06-11_12h20.20.635,LearnStrategy,2023.2.3,Win32,60.60606061,2,2,3,,,,,,,,8,14,,,,,,,,,,,8,2.463,1,,,,,,0.381510417,-0.401041667,1,0,0,2.4634,Pumice_rect,2,0,2,0,1,
58cab9bfc7ed3f000116e2a4,SCN,2024-06-11_12h20.20.635,LearnStrategy,2023.2.3,Win32,60.60606061,2,2,4,,,,,,,,1,02,,,,,,,,,,,3,9.965,0,,,,,,0.157552083,-0.252604167,1,0,0,9.9649,Diorite_rect,3,0,3,0,1,
58cab9bfc7ed3f000116e2a4,SCN,2024-06-11_12h20.20.635,LearnStrategy,2023.2.3,Win32,60.60606061,2,2,5,,,,,,,,6,05,,,,,,,,,,,3,3.733,0,,,,,,0.16796875,-0.2421875,1,0,0,3.7329,Diorite_rect,4,0,4,0,1,
58cab9bfc7ed3f000116e2a4,SCN,2024-06-11_12h20.20.635,LearnStrategy,2023.2.3,Win32,60.60606061,2,2,6,,,,,,,,5,08,,,,,,,,,,,5,3.154,1,,,,,,-0.36328125,-0.38671875,1,0,0,3.1541,Obsidian_rect,5,0,5,0,1,
58cab9bfc7ed3f000116e2a4,SCN,2024-06-11_12h20.20.635,LearnStrategy,2023.2.3,Win32,60.60606061,2,2,7,,,,,,,,7,02,,,,,,,,,,,7,3.716,1,,,,,,0.092447917,-0.404947917,1,0,0,3.7158,Peridotite_rect,6,0,6,0,1,
58cab9bfc7ed3f000116e2a4,SCN,2024-06-11_12h20.20.635,LearnStrategy,2023.2.3,Win32,60.60606061,2,2,8,,,,,,,,8,15,,,,,,,,,,,8,1.487,1,,,,,,0.403645833,-0.3984375,1,0,0,1.4874,Pumice_rect,7,0,7,0,1,
58cab9bfc7ed3f000116e2a4,SCN,2024-06-11_12h20.20.635,LearnStrategy,2023.2.3,Win32,60.60606061,2,2,9,,,,,,,,3,13,,,,,,,,,,,3,2.743,1,,,,,,0.12890625,-0.264322917,1,0,0,2.7431,Diorite_rect,8,0,8,0,1,
58cab9bfc7ed3f000116e2a4,SCN,2024-06-11_12h20.20.635,LearnStrategy,2023.2.3,Win32,60.60606061,2,2,10,,,,,,,,7,10,,,,,,,,,,,6,2.331,0,,,,,,-0.115885417,-0.390625,1,0,0,2.331,Pegmatite_rect,9,0,9,0,1,
58cab9bfc7ed3f000116e2a4,SCN,2024-06-11_12h20.20.635,LearnStrategy,2023.2.3,Win32,60.60606061,2,2,11,,,,,,,,1,03,,,,,,,,,,,1,2.29,1,,,,,,-0.326822917,-0.26953125,1,0,0,2.29,Andesite_rect,10,0,10,0,1,
58cab9bfc7ed3f000116e2a4,SCN,2024-06-11_12h20.20.635,LearnStrategy,2023.2.3,Win32,60.60606061,2,2,12,,,,,,,,6,16,,,,,,,,,,,4,3.868,0,,,,,,0.354166667,-0.255208333,1,0,0,3.8682,Gabbro_rect,11,0,11,0,1,
58cab9bfc7ed3f000116e2a4,SCN,2024-06-11_12h20.20.635,LearnStrategy,2023.2.3,Win32,60.60606061,2,2,13,,,,,,,,4,08,,,,,,,,,,,2,3.368,0,,,,,,-0.14453125,-0.256510417,1,0,0,3.3679,Basalt_rect,12,0,12,0,1,
58cab9bfc7ed3f000116e2a4,SCN,2024-06-11_12h20.20.635,LearnStrategy,2023.2.3,Win32,60.60606061,2,2,14,,,,,,,,2,02,,,,,,,,,,,2,0.921,1,,,,,,-0.14453125,-0.256510417,1,0,0,0.9213,Basalt_rect,13,0,13,0,1,
58cab9bfc7ed3f000116e2a4,SCN,2024-06-11_12h20.20.635,LearnStrategy,2023.2.3,Win32,60.60606061,2,2,15,,,,,,,,2,08,,,,,,,,,,,2,0.845,1,,,,,,-0.126302083,-0.256510417,1,0,0,0.8447,Basalt_rect,14,0,14,0,1,
58cab9bfc7ed3f000116e2a4,SCN,2024-06-11_12h20.20.635,LearnStrategy,2023.2.3,Win32,60.60606061,2,2,16,,,,,,,,3,08,,,,,,,,,,,3,1.806,1,,,,,,0.170572917,-0.268229167,1,0,0,1.8065,Diorite_rect,15,0,15,0,1,
58cab9bfc7ed3f000116e2a4,SCN,2024-06-11_12h20.20.635,LearnStrategy,2023.2.3,Win32,60.60606061,3,1,1,-0.057291667,0.109375,1,0,0,1.3645,Gabbro_13,4,13,4,4,1.365,-0.40625,-0.251302083,1,0,0,1.4632,Andesite_rect,1,1.463,0,0,0,0,0,1,,,,,,,,,,,,,
58cab9bfc7ed3f000116e2a4,SCN,2024-06-11_12h20.20.635,LearnStrategy,2023.2.3,Win32,60.60606061,3,1,2,0.21484375,0.411458333,1,0,0,1.4141,Gabbro_14,4,14,6,6,1.414,0.438802083,-0.252604167,1,0,0,2.3988,Gabbro_rect,4,2.399,1,1,0,1,0,1,,,,,,,,,,,,,
58cab9bfc7ed3f000116e2a4,SCN,2024-06-11_12h20.20.635,LearnStrategy,2023.2.3,Win32,60.60606061,3,1,3,0.243489583,0.0859375,1,0,0,1.9968,Obsidian_04,5,04,4,6,1.997,-0.432291667,-0.412760417,1,0,0,1.0515,Obsidian_rect,5,1.051,1,2,0,2,0,1,,,,,,,,,,,,,
58cab9bfc7ed3f000116e2a4,SCN,2024-06-11_12h20.20.635,LearnStrategy,2023.2.3,Win32,60.60606061,3,1,4,-0.533854167,0.139322917,1,0,0,1.8304,Basalt_09,2,09,4,1,1.83,0.1875,-0.263020833,1,0,0,1.9205,Diorite_rect,3,1.921,0,3,0,3,0,1,,,,,,,,,,,,,
58cab9bfc7ed3f000116e2a4,SCN,2024-06-11_12h20.20.635,LearnStrategy,2023.2.3,Win32,60.60606061,3,1,5,0.58984375,-0.119791667,1,0,0,1.797,Peridotite_13,7,13,3,8,1.797,0.190104167,-0.4140625,1,0,0,0.9154,Peridotite_rect,7,0.915,1,4,0,4,0,1,,,,,,,,,,,,,
58cab9bfc7ed3f000116e2a4,SCN,2024-06-11_12h20.20.635,LearnStrategy,2023.2.3,Win32,60.60606061,3,1,6,-0.197916667,-0.282552083,1,0,0,1.198,Pegmatite_10,6,10,2,3,1.198,-0.151041667,-0.393229167,1,0,0,0.8907,Pegmatite_rect,6,0.891,1,5,0,5,0,1,,,,,,,,,,,,,
58cab9bfc7ed3f000116e2a4,SCN,2024-06-11_12h20.20.635,LearnStrategy,2023.2.3,Win32,60.60606061,3,1,7,-0.424479167,-0.412760417,1,0,0,1.4665,Diorite_14,3,14,1,2,1.466,0.10546875,-0.248697917,1,0,0,2.1723,Diorite_rect,3,2.172,1,6,0,6,0,1,,,,,,,,,,,,,
58cab9bfc7ed3f000116e2a4,SCN,2024-06-11_12h20.20.635,LearnStrategy,2023.2.3,Win32,60.60606061,3,1,8,-0.408854167,0.12109375,1,0,0,1.3634,Basalt_10,2,10,4,2,1.363,-0.19921875,-0.2578125,1,0,0,4.697,Basalt_rect,2,4.697,1,7,0,7,0,1,,,,,,,,,,,,,
58cab9bfc7ed3f000116e2a4,SCN,2024-06-11_12h20.20.635,LearnStrategy,2023.2.3,Win32,60.60606061,3,1,9,0.576822917,0.276041667,1,0,0,1.7797,Andesite_05,1,05,5,8,1.78,-0.3671875,-0.251302083,1,0,0,2.7746,Andesite_rect,1,2.775,1,8,0,8,0,1,,,,,,,,,,,,,
58cab9bfc7ed3f000116e2a4,SCN,2024-06-11_12h20.20.635,LearnStrategy,2023.2.3,Win32,60.60606061,3,1,10,-0.208333333,0.276041667,1,0,0,3.0466,Obsidian_06,5,06,5,3,3.047,-0.423177083,-0.40234375,1,0,0,1.548,Obsidian_rect,5,1.548,1,9,0,9,0,1,,,,,,,,,,,,,
58cab9bfc7ed3f000116e2a4,SCN,2024-06-11_12h20.20.635,LearnStrategy,2023.2.3,Win32,60.60606061,3,1,11,0.225260417,-0.43359375,1,0,0,2.5305,Peridotite_04,7,04,1,6,2.531,0.329427083,-0.25390625,1,0,0,3.8848,Gabbro_rect,4,3.885,0,10,0,10,0,1,,,,,,,,,,,,,
58cab9bfc7ed3f000116e2a4,SCN,2024-06-11_12h20.20.635,LearnStrategy,2023.2.3,Win32,60.60606061,3,1,12,-0.069010417,0.270833333,1,0,0,2.7802,Pegmatite_11,6,11,5,4,2.78,-0.38671875,-0.38671875,1,0,0,1.3372,Obsidian_rect,5,1.337,0,11,0,11,0,1,,,,,,,,,,,,,
58cab9bfc7ed3f000116e2a4,SCN,2024-06-11_12h20.20.635,LearnStrategy,2023.2.3,Win32,60.60606061,3,1,13,-0.0390625,0.236979167,1,0,0,1.0799,Pegmatite_11,6,11,5,4,1.08,-0.1328125,-0.412760417,1,0,0,1.3321,Pegmatite_rect,6,1.332,1,12,0,12,0,1,,,,,,,,,,,,,
58cab9bfc7ed3f000116e2a4,SCN,2024-06-11_12h20.20.635,LearnStrategy,2023.2.3,Win32,60.60606061,3,1,14,-0.2109375,0.415364583,1,0,0,3.7143,Basalt_14,2,14,6,3,3.714,0.369791667,-0.389322917,1,0,0,4.6416,Pumice_rect,8,4.642,0,13,0,13,0,1,,,,,,,,,,,,,
58cab9bfc7ed3f000116e2a4,SCN,2024-06-11_12h20.20.635,LearnStrategy,2023.2.3,Win32,60.60606061,3,1,15,-0.065104167,0.091145833,1,0,0,0.9486,Gabbro_13,4,13,4,4,0.949,-0.178385417,-0.25390625,1,0,0,1.1076,Basalt_rect,2,1.108,0,14,0,14,0,1,,,,,,,,,,,,,
58cab9bfc7ed3f000116e2a4,SCN,2024-06-11_12h20.20.635,LearnStrategy,2023.2.3,Win32,60.60606061,3,1,16,0.407552083,0.130208333,1,0,0,1.3641,Gabbro_11,4,11,4,7,1.364,-0.108072917,-0.236979167,1,0,0,1.8754,Basalt_rect,2,1.875,0,15,0,15,0,1,,,,,,,,,,,,,
58cab9bfc7ed3f000116e2a4,SCN,2024-06-11_12h20.20.635,LearnStrategy,2023.2.3,Win32,60.60606061,3,2,1,,,,,,,,6,12,,,,,,,,,,,3,4.078,0,,,,,,0.196614583,-0.231770833,1,0,0,4.0777,Diorite_rect,0,0,0,0,1,
58cab9bfc7ed3f000116e2a4,SCN,2024-06-11_12h20.20.635,LearnStrategy,2023.2.3,Win32,60.60606061,3,2,2,,,,,,,,2,04,,,,,,,,,,,5,4.829,0,,,,,,-0.377604167,-0.393229167,1,0,0,4.8294,Obsidian_rect,1,0,1,0,1,
58cab9bfc7ed3f000116e2a4,SCN,2024-06-11_12h20.20.635,LearnStrategy,2023.2.3,Win32,60.60606061,3,2,3,,,,,,,,8,04,,,,,,,,,,,8,1.367,1,,,,,,0.372395833,-0.390625,1,0,0,1.3669,Pumice_rect,2,0,2,0,1,
58cab9bfc7ed3f000116e2a4,SCN,2024-06-11_12h20.20.635,LearnStrategy,2023.2.3,Win32,60.60606061,3,2,4,,,,,,,,5,12,,,,,,,,,,,5,3.561,1,,,,,,-0.372395833,-0.38671875,1,0,0,3.5613,Obsidian_rect,3,0,3,0,1,
58cab9bfc7ed3f000116e2a4,SCN,2024-06-11_12h20.20.635,LearnStrategy,2023.2.3,Win32,60.60606061,3,2,5,,,,,,,,8,06,,,,,,,,,,,8,1.973,1,,,,,,0.395833333,-0.4140625,1,0,0,1.9731,Pumice_rect,4,0,4,0,1,
58cab9bfc7ed3f000116e2a4,SCN,2024-06-11_12h20.20.635,LearnStrategy,2023.2.3,Win32,60.60606061,3,2,6,,,,,,,,1,09,,,,,,,,,,,3,3.497,0,,,,,,0.1328125,-0.25,1,0,0,3.4966,Diorite_rect,5,0,5,0,1,
58cab9bfc7ed3f000116e2a4,SCN,2024-06-11_12h20.20.635,LearnStrategy,2023.2.3,Win32,60.60606061,3,2,7,,,,,,,,4,09,,,,,,,,,,,1,7.76,0,,,,,,-0.361979167,-0.23828125,1,0,0,7.7604,Andesite_rect,6,0,6,0,1,
58cab9bfc7ed3f000116e2a4,SCN,2024-06-11_12h20.20.635,LearnStrategy,2023.2.3,Win32,60.60606061,3,2,8,,,,,,,,2,12,,,,,,,,,,,8,2.294,0,,,,,,0.31640625,-0.407552083,1,0,0,2.2942,Pumice_rect,7,0,7,0,1,
58cab9bfc7ed3f000116e2a4,SCN,2024-06-11_12h20.20.635,LearnStrategy,2023.2.3,Win32,60.60606061,3,2,9,,,,,,,,7,06,,,,,,,,,,,6,6.06,0,,,,,,-0.096354167,-0.404947917,1,0,0,6.0596,Pegmatite_rect,8,0,8,0,1,
58cab9bfc7ed3f000116e2a4,SCN,2024-06-11_12h20.20.635,LearnStrategy,2023.2.3,Win32,60.60606061,3,2,10,,,,,,,,5,11,,,,,,,,,,,5,2.516,1,,,,,,-0.3515625,-0.384114583,1,0,0,2.5161,Obsidian_rect,9,0,9,0,1,
58cab9bfc7ed3f000116e2a4,SCN,2024-06-11_12h20.20.635,LearnStrategy,2023.2.3,Win32,60.60606061,3,2,11,,,,,,,,1,16,,,,,,,,,,,3,2.037,0,,,,,,0.118489583,-0.243489583,1,0,0,2.0374,Diorite_rect,10,0,10,0,1,
58cab9bfc7ed3f000116e2a4,SCN,2024-06-11_12h20.20.635,LearnStrategy,2023.2.3,Win32,60.60606061,3,2,12,,,,,,,,7,07,,,,,,,,,,,7,2.414,1,,,,,,0.122395833,-0.401041667,1,0,0,2.4137,Peridotite_rect,11,0,11,0,1,
58cab9bfc7ed3f000116e2a4,SCN,2024-06-11_12h20.20.635,LearnStrategy,2023.2.3,Win32,60.60606061,3,2,13,,,,,,,,3,02,,,,,,,,,,,4,1.504,0,,,,,,0.380208333,-0.263020833,1,0,0,1.5036,Gabbro_rect,12,0,12,0,1,
58cab9bfc7ed3f000116e2a4,SCN,2024-06-11_12h20.20.635,LearnStrategy,2023.2.3,Win32,60.60606061,3,2,14,,,,,,,,4,15,,,,,,,,,,,1,3.694,0,,,,,,-0.361979167,-0.25390625,1,0,0,3.6939,Andesite_rect,13,0,13,0,1,
58cab9bfc7ed3f000116e2a4,SCN,2024-06-11_12h20.20.635,LearnStrategy,2023.2.3,Win32,60.60606061,3,2,15,,,,,,,,3,07,,,,,,,,,,,3,1.942,1,,,,,,0.084635417,-0.2421875,1,0,0,1.9423,Diorite_rect,14,0,14,0,1,
58cab9bfc7ed3f000116e2a4,SCN,2024-06-11_12h20.20.635,LearnStrategy,2023.2.3,Win32,60.60606061,3,2,16,,,,,,,,6,09,,,,,,,,,,,7,3.963,0,,,,,,0.095052083,-0.403645833,1,0,0,3.9626,Peridotite_rect,15,0,15,0,1,
58cab9bfc7ed3f000116e2a4,SCN,2024-06-11_12h20.20.635,LearnStrategy,2023.2.3,Win32,60.60606061,4,1,1,-0.537760417,-0.424479167,1,0,0,4.2067,Pumice_03,8,03,1,1,4.207,0.373697917,-0.419270833,1,0,0,1.7712,Pumice_rect,8,1.771,1,0,0,0,0,1,,,,,,,,,,,,,
58cab9bfc7ed3f000116e2a4,SCN,2024-06-11_12h20.20.635,LearnStrategy,2023.2.3,Win32,60.60606061,4,1,2,-0.403645833,-0.420572917,1,0,0,1.0282,Diorite_14,3,14,1,2,1.028,0.384114583,-0.244791667,1,0,0,1.6499,Gabbro_rect,4,1.65,0,1,0,1,0,1,,,,,,,,,,,,,
58cab9bfc7ed3f000116e2a4,SCN,2024-06-11_12h20.20.635,LearnStrategy,2023.2.3,Win32,60.60606061,4,1,3,-0.265625,-0.44140625,1,0,0,1.1648,Diorite_10,3,10,1,3,1.165,-0.119791667,-0.264322917,1,0,0,1.6043,Basalt_rect,2,1.604,0,2,0,2,0,1,,,,,,,,,,,,,
58cab9bfc7ed3f000116e2a4,SCN,2024-06-11_12h20.20.635,LearnStrategy,2023.2.3,Win32,60.60606061,4,1,4,-0.390625,-0.415364583,1,0,0,1.697,Diorite_14,3,14,1,2,1.697,0.127604167,-0.25,1,0,0,1.292,Diorite_rect,3,1.292,1,3,0,3,0,1,,,,,,,,,,,,,
58cab9bfc7ed3f000116e2a4,SCN,2024-06-11_12h20.20.635,LearnStrategy,2023.2.3,Win32,60.60606061,4,1,5,-0.217447917,-0.440104167,1,0,0,0.8304,Diorite_10,3,10,1,3,0.83,0.11328125,-0.25,1,0,0,0.8783,Diorite_rect,3,0.878,1,4,0,4,0,1,,,,,,,,,,,,,
58cab9bfc7ed3f000116e2a4,SCN,2024-06-11_12h20.20.635,LearnStrategy,2023.2.3,Win32,60.60606061,4,1,6,0.092447917,-0.411458333,1,0,0,1.2816,Basalt_11,2,11,1,5,1.282,0.352864583,-0.391927083,1,0,0,1.8378,Pumice_rect,8,1.838,0,5,0,5,0,1,,,,,,,,,,,,,
58cab9bfc7ed3f000116e2a4,SCN,2024-06-11_12h20.20.635,LearnStrategy,2023.2.3,Win32,60.60606061,4,1,7,0.091145833,-0.408854167,1,0,0,1.0145,Basalt_11,2,11,1,5,1.014,-0.14453125,-0.259114583,1,0,0,0.6508,Basalt_rect,2,0.651,1,6,0,6,0,1,,,,,,,,,,,,,
58cab9bfc7ed3f000116e2a4,SCN,2024-06-11_12h20.20.635,LearnStrategy,2023.2.3,Win32,60.60606061,4,1,8,0.25,-0.428385417,1,0,0,1.073,Peridotite_04,7,04,1,6,1.073,-0.408854167,-0.243489583,1,0,0,1.2454,Andesite_rect,1,1.245,0,7,0,7,0,1,,,,,,,,,,,,,
58cab9bfc7ed3f000116e2a4,SCN,2024-06-11_12h20.20.635,LearnStrategy,2023.2.3,Win32,60.60606061,4,1,9,0.22265625,-0.423177083,1,0,0,1.1813,Peridotite_04,7,04,1,6,1.181,0.17578125,-0.408854167,1,0,0,1.2213,Peridotite_rect,7,1.221,1,8,0,8,0,1,,,,,,,,,,,,,
58cab9bfc7ed3f000116e2a4,SCN,2024-06-11_12h20.20.635,LearnStrategy,2023.2.3,Win32,60.60606061,4,1,10,0.442708333,-0.420572917,1,0,0,1.0263,Pegmatite_03,6,03,1,7,1.026,-0.32421875,-0.229166667,1,0,0,2.521,Andesite_rect,1,2.521,0,9,0,9,0,1,,,,,,,,,,,,,
58cab9bfc7ed3f000116e2a4,SCN,2024-06-11_12h20.20.635,LearnStrategy,2023.2.3,Win32,60.60606061,4,1,11,0.55859375,-0.397135417,1,0,0,1.665,Obsidian_07,5,07,1,8,1.665,0.204427083,-0.251302083,1,0,0,2.7774,Diorite_rect,3,2.777,0,10,0,10,0,1,,,,,,,,,,,,,
58cab9bfc7ed3f000116e2a4,SCN,2024-06-11_12h20.20.635,LearnStrategy,2023.2.3,Win32,60.60606061,4,1,12,0.247395833,-0.404947917,1,0,0,2.814,Peridotite_04,7,04,1,6,2.814,-0.080729167,-0.407552083,1,0,0,2.4931,Pegmatite_rect,6,2.493,0,11,0,11,0,1,,,,,,,,,,,,,
58cab9bfc7ed3f000116e2a4,SCN,2024-06-11_12h20.20.635,LearnStrategy,2023.2.3,Win32,60.60606061,4,1,13,0.42578125,-0.399739583,1,0,0,1.4619,Pegmatite_03,6,03,1,7,1.462,-0.360677083,-0.39453125,1,0,0,2.2256,Obsidian_rect,5,2.226,0,12,0,12,0,1,,,,,,,,,,,,,
58cab9bfc7ed3f000116e2a4,SCN,2024-06-11_12h20.20.635,LearnStrategy,2023.2.3,Win32,60.60606061,4,1,14,0.587239583,-0.364583333,1,0,0,1.2146,Obsidian_07,5,07,1,8,1.215,-0.376302083,-0.399739583,1,0,0,1.2787,Obsidian_rect,5,1.279,1,13,0,13,0,1,,,,,,,,,,,,,
58cab9bfc7ed3f000116e2a4,SCN,2024-06-11_12h20.20.635,LearnStrategy,2023.2.3,Win32,60.60606061,4,1,15,0.557291667,-0.247395833,1,0,0,0.9599,Gabbro_03,4,03,2,8,0.96,-0.110677083,-0.259114583,1,0,0,2.29,Basalt_rect,2,2.29,0,14,0,14,0,1,,,,,,,,,,,,,
58cab9bfc7ed3f000116e2a4,SCN,2024-06-11_12h20.20.635,LearnStrategy,2023.2.3,Win32,60.60606061,4,1,16,0.25,-0.236979167,1,0,0,1.7267,Andesite_06,1,06,2,6,1.727,0.37890625,-0.2421875,1,0,0,0.7197,Gabbro_rect,4,0.72,0,15,0,15,0,1,,,,,,,,,,,,,
58cab9bfc7ed3f000116e2a4,SCN,2024-06-11_12h20.20.635,LearnStrategy,2023.2.3,Win32,60.60606061,4,2,1,,,,,,,,1,16,,,,,,,,,,,1,1.955,1,,,,,,-0.354166667,-0.270833333,1,0,0,1.9551,Andesite_rect,0,0,0,0,1,
58cab9bfc7ed3f000116e2a4,SCN,2024-06-11_12h20.20.635,LearnStrategy,2023.2.3,Win32,60.60606061,4,2,2,,,,,,,,4,09,,,,,,,,,,,5,3.542,0,,,,,,-0.373697917,-0.420572917,1,0,0,3.542,Obsidian_rect,1,0,1,0,1,
58cab9bfc7ed3f000116e2a4,SCN,2024-06-11_12h20.20.635,LearnStrategy,2023.2.3,Win32,60.60606061,4,2,3,,,,,,,,2,16,,,,,,,,,,,4,2.726,0,,,,,,0.416666667,-0.26171875,1,0,0,2.7265,Gabbro_rect,2,0,2,0,1,
58cab9bfc7ed3f000116e2a4,SCN,2024-06-11_12h20.20.635,LearnStrategy,2023.2.3,Win32,60.60606061,4,2,4,,,,,,,,3,07,,,,,,,,,,,3,1.68,1,,,,,,0.18359375,-0.265625,1,0,0,1.6802,Diorite_rect,3,0,3,0,1,
58cab9bfc7ed3f000116e2a4,SCN,2024-06-11_12h20.20.635,LearnStrategy,2023.2.3,Win32,60.60606061,4,2,5,,,,,,,,3,08,,,,,,,,,,,3,0.854,1,,,,,,0.166666667,-0.252604167,1,0,0,0.8538,Diorite_rect,4,0,4,0,1,
58cab9bfc7ed3f000116e2a4,SCN,2024-06-11_12h20.20.635,LearnStrategy,2023.2.3,Win32,60.60606061,4,2,6,,,,,,,,7,06,,,,,,,,,,,7,2.588,1,,,,,,0.0703125,-0.407552083,1,0,0,2.588,Peridotite_rect,5,0,5,0,1,
58cab9bfc7ed3f000116e2a4,SCN,2024-06-11_12h20.20.635,LearnStrategy,2023.2.3,Win32,60.60606061,4,2,7,,,,,,,,8,04,,,,,,,,,,,8,0.988,1,,,,,,0.3515625,-0.40234375,1,0,0,0.9881,Pumice_rect,6,0,6,0,1,
58cab9bfc7ed3f000116e2a4,SCN,2024-06-11_12h20.20.635,LearnStrategy,2023.2.3,Win32,60.60606061,4,2,8,,,,,,,,4,12,,,,,,,,,,,4,4.672,1,,,,,,0.404947917,-0.23046875,1,0,0,4.6723,Gabbro_rect,7,0,7,0,1,
58cab9bfc7ed3f000116e2a4,SCN,2024-06-11_12h20.20.635,LearnStrategy,2023.2.3,Win32,60.60606061,4,2,9,,,,,,,,7,07,,,,,,,,,,,6,2.309,0,,,,,,-0.03125,-0.39453125,1,0,0,2.3091,Pegmatite_rect,8,0,8,0,1,
58cab9bfc7ed3f000116e2a4,SCN,2024-06-11_12h20.20.635,LearnStrategy,2023.2.3,Win32,60.60606061,4,2,10,,,,,,,,6,08,,,,,,,,,,,5,1.499,0,,,,,,-0.359375,-0.389322917,1,0,0,1.4987,Obsidian_rect,9,0,9,0,1,
58cab9bfc7ed3f000116e2a4,SCN,2024-06-11_12h20.20.635,LearnStrategy,2023.2.3,Win32,60.60606061,4,2,11,,,,,,,,5,08,,,,,,,,,,,5,1.097,1,,,,,,-0.44921875,-0.41796875,1,0,0,1.0967,Obsidian_rect,10,0,10,0,1,
58cab9bfc7ed3f000116e2a4,SCN,2024-06-11_12h20.20.635,LearnStrategy,2023.2.3,Win32,60.60606061,4,2,12,,,,,,,,2,08,,,,,,,,,,,5,1.667,0,,,,,,-0.358072917,-0.388020833,1,0,0,1.6667,Obsidian_rect,11,0,11,0,1,
58cab9bfc7ed3f000116e2a4,SCN,2024-06-11_12h20.20.635,LearnStrategy,2023.2.3,Win32,60.60606061,4,2,13,,,,,,,,1,14,,,,,,,,,,,3,0.984,0,,,,,,0.09375,-0.248697917,1,0,0,0.9841,Diorite_rect,12,0,12,0,1,
58cab9bfc7ed3f000116e2a4,SCN,2024-06-11_12h20.20.635,LearnStrategy,2023.2.3,Win32,60.60606061,4,2,14,,,,,,,,5,14,,,,,,,,,,,5,1.332,1,,,,,,-0.385416667,-0.389322917,1,0,0,1.3322,Obsidian_rect,13,0,13,0,1,
58cab9bfc7ed3f000116e2a4,SCN,2024-06-11_12h20.20.635,LearnStrategy,2023.2.3,Win32,60.60606061,4,2,15,,,,,,,,6,12,,,,,,,,,,,4,2.523,0,,,,,,0.436197917,-0.239583333,1,0,0,2.5226,Gabbro_rect,14,0,14,0,1,
58cab9bfc7ed3f000116e2a4,SCN,2024-06-11_12h20.20.635,LearnStrategy,2023.2.3,Win32,60.60606061,4,2,16,,,,,,,,8,15,,,,,,,,,,,8,1.428,1,,,,,,0.37890625,-0.39453125,1,0,0,1.428,Pumice_rect,15,0,15,0,1,
58cab9bfc7ed3f000116e2a4,SCN,2024-06-11_12h20.20.635,LearnStrategy,2023.2.3,Win32,60.60606061,5,1,1,-0.07421875,0.110677083,1,0,0,1.2695,Gabbro_13,4,13,4,4,1.269,-0.375,-0.229166667,1,0,0,1.7868,Andesite_rect,1,1.787,0,0,0,0,0,1,,,,,,,,,,,,,
58cab9bfc7ed3f000116e2a4,SCN,2024-06-11_12h20.20.635,LearnStrategy,2023.2.3,Win32,60.60606061,5,1,2,-0.08203125,0.071614583,1,0,0,0.7297,Gabbro_13,4,13,4,4,0.73,0.359375,-0.2578125,1,0,0,0.9669,Gabbro_rect,4,0.967,1,1,0,1,0,1,,,,,,,,,,,,,
58cab9bfc7ed3f000116e2a4,SCN,2024-06-11_12h20.20.635,LearnStrategy,2023.2.3,Win32,60.60606061,5,1,3,0.243489583,0.286458333,1,0,0,1.3597,Diorite_15,3,15,5,6,1.36,0.397135417,-0.23046875,1,0,0,1.007,Gabbro_rect,4,1.007,0,2,0,2,0,1,,,,,,,,,,,,,
58cab9bfc7ed3f000116e2a4,SCN,2024-06-11_12h20.20.635,LearnStrategy,2023.2.3,Win32,60.60606061,5,1,4,0.095052083,0.260416667,1,0,0,2.5463,Diorite_06,3,06,5,5,2.546,-0.138020833,-0.235677083,1,0,0,4.464,Basalt_rect,2,4.464,0,3,0,3,0,1,,,,,,,,,,,,,
58cab9bfc7ed3f000116e2a4,SCN,2024-06-11_12h20.20.635,LearnStrategy,2023.2.3,Win32,60.60606061,5,1,5,-0.244791667,0.1328125,1,0,0,1.815,Pumice_13,8,13,4,3,1.815,0.352864583,-0.388020833,1,0,0,1.3337,Pumice_rect,8,1.334,1,4,0,4,0,1,,,,,,,,,,,,,
58cab9bfc7ed3f000116e2a4,SCN,2024-06-11_12h20.20.635,LearnStrategy,2023.2.3,Win32,60.60606061,5,1,6,-0.532552083,0.375,1,0,0,2.9473,Peridotite_12,7,12,6,1,2.947,0.098958333,-0.247395833,1,0,0,1.6393,Diorite_rect,3,1.639,0,5,0,5,0,1,,,,,,,,,,,,,
58cab9bfc7ed3f000116e2a4,SCN,2024-06-11_12h20.20.635,LearnStrategy,2023.2.3,Win32,60.60606061,5,1,7,-0.19921875,-0.088541667,1,0,0,1.7632,Andesite_04,1,04,3,3,1.763,-0.114583333,-0.260416667,1,0,0,1.0827,Basalt_rect,2,1.083,0,6,0,6,0,1,,,,,,,,,,,,,
58cab9bfc7ed3f000116e2a4,SCN,2024-06-11_12h20.20.635,LearnStrategy,2023.2.3,Win32,60.60606061,5,1,8,0.07421875,0.236979167,1,0,0,3.0594,Diorite_06,3,06,5,5,3.059,-0.3515625,-0.244791667,1,0,0,8.3376,Andesite_rect,1,8.338,0,7,0,7,0,1,,,,,,,,,,,,,
58cab9bfc7ed3f000116e2a4,SCN,2024-06-11_12h20.20.635,LearnStrategy,2023.2.3,Win32,60.60606061,5,1,9,0.104166667,-0.119791667,1,0,0,3.0582,Pumice_10,8,10,3,5,3.058,0.40234375,-0.41796875,1,0,0,2.2976,Pumice_rect,8,2.298,1,8,0,8,0,1,,,,,,,,,,,,,
58cab9bfc7ed3f000116e2a4,SCN,2024-06-11_12h20.20.635,LearnStrategy,2023.2.3,Win32,60.60606061,5,1,10,-0.545572917,0.272135417,1,0,0,4.0132,Peridotite_05,7,05,5,1,4.013,0.1015625,-0.41015625,1,0,0,1.9992,Peridotite_rect,7,1.999,1,9,0,9,0,1,,,,,,,,,,,,,
58cab9bfc7ed3f000116e2a4,SCN,2024-06-11_12h20.20.635,LearnStrategy,2023.2.3,Win32,60.60606061,5,1,11,0.252604167,0.102864583,1,0,0,1.5295,Obsidian_04,5,04,4,6,1.53,-0.376302083,-0.404947917,1,0,0,2.6915,Obsidian_rect,5,2.691,1,10,0,10,0,1,,,,,,,,,,,,,
58cab9bfc7ed3f000116e2a4,SCN,2024-06-11_12h20.20.635,LearnStrategy,2023.2.3,Win32,60.60606061,5,1,12,0.5546875,0.23046875,1,0,0,1.6471,Andesite_05,1,05,5,8,1.647,0.412760417,-0.251302083,1,0,0,2.1711,Gabbro_rect,4,2.171,0,11,0,11,0,1,,,,,,,,,,,,,
58cab9bfc7ed3f000116e2a4,SCN,2024-06-11_12h20.20.635,LearnStrategy,2023.2.3,Win32,60.60606061,5,1,13,-0.07421875,-0.08203125,1,0,0,1.4521,Andesite_10,1,10,3,4,1.452,-0.373697917,-0.25390625,1,0,0,0.9999,Andesite_rect,1,1,1,12,0,12,0,1,,,,,,,,,,,,,
58cab9bfc7ed3f000116e2a4,SCN,2024-06-11_12h20.20.635,LearnStrategy,2023.2.3,Win32,60.60606061,5,1,14,0.240885417,-0.264322917,1,0,0,1.6129,Andesite_06,1,06,2,6,1.613,-0.38671875,-0.256510417,1,0,0,1.4646,Andesite_rect,1,1.465,1,13,0,13,0,1,,,,,,,,,,,,,
58cab9bfc7ed3f000116e2a4,SCN,2024-06-11_12h20.20.635,LearnStrategy,2023.2.3,Win32,60.60606061,5,1,15,-0.514322917,0.244791667,1,0,0,1.6824,Peridotite_05,7,05,5,1,1.682,0.06640625,-0.399739583,1,0,0,1.3735,Peridotite_rect,7,1.373,1,14,0,14,0,1,,,,,,,,,,,,,
58cab9bfc7ed3f000116e2a4,SCN,2024-06-11_12h20.20.635,LearnStrategy,2023.2.3,Win32,60.60606061,5,1,16,0.537760417,0.109375,1,0,0,1.1556,Pegmatite_07,6,07,4,8,1.156,-0.3671875,-0.265625,1,0,0,2.9935,Andesite_rect,1,2.994,0,15,0,15,0,1,,,,,,,,,,,,,
58cab9bfc7ed3f000116e2a4,SCN,2024-06-11_12h20.20.635,LearnStrategy,2023.2.3,Win32,60.60606061,5,2,1,,,,,,,,5,05,,,,,,,,,,,6,1.748,0,,,,,,-0.096354167,-0.404947917,1,0,0,1.7476,Pegmatite_rect,0,0,0,0,1,
58cab9bfc7ed3f000116e2a4,SCN,2024-06-11_12h20.20.635,LearnStrategy,2023.2.3,Win32,60.60606061,5,2,2,,,,,,,,7,02,,,,,,,,,,,7,1.79,1,,,,,,0.162760417,-0.390625,1,0,0,1.7901,Peridotite_rect,1,0,1,0,1,
58cab9bfc7ed3f000116e2a4,SCN,2024-06-11_12h20.20.635,LearnStrategy,2023.2.3,Win32,60.60606061,5,2,3,,,,,,,,4,08,,,,,,,,,,,1,7.578,0,,,,,,-0.39453125,-0.26171875,1,0,0,7.5783,Andesite_rect,2,0,2,0,1,
58cab9bfc7ed3f000116e2a4,SCN,2024-06-11_12h20.20.635,LearnStrategy,2023.2.3,Win32,60.60606061,5,2,4,,,,,,,,6,09,,,,,,,,,,,7,2.874,0,,,,,,0.088541667,-0.403645833,1,0,0,2.8736,Peridotite_rect,3,0,3,0,1,
58cab9bfc7ed3f000116e2a4,SCN,2024-06-11_12h20.20.635,LearnStrategy,2023.2.3,Win32,60.60606061,5,2,5,,,,,,,,2,02,,,,,,,,,,,5,7.737,0,,,,,,-0.399739583,-0.401041667,1,0,0,7.7369,Obsidian_rect,4,0,4,0,1,
58cab9bfc7ed3f000116e2a4,SCN,2024-06-11_12h20.20.635,LearnStrategy,2023.2.3,Win32,60.60606061,5,2,6,,,,,,,,8,06,,,,,,,,,,,8,1.206,1,,,,,,0.33203125,-0.40625,1,0,0,1.2061,Pumice_rect,5,0,5,0,1,
58cab9bfc7ed3f000116e2a4,SCN,2024-06-11_12h20.20.635,LearnStrategy,2023.2.3,Win32,60.60606061,5,2,7,,,,,,,,4,16,,,,,,,,,,,5,3.632,0,,,,,,-0.397135417,-0.421875,1,0,0,3.6321,Obsidian_rect,6,0,6,0,1,
58cab9bfc7ed3f000116e2a4,SCN,2024-06-11_12h20.20.635,LearnStrategy,2023.2.3,Win32,60.60606061,5,2,8,,,,,,,,1,03,,,,,,,,,,,2,1.106,0,,,,,,-0.109375,-0.265625,1,0,0,1.1063,Basalt_rect,7,0,7,0,1,
58cab9bfc7ed3f000116e2a4,SCN,2024-06-11_12h20.20.635,LearnStrategy,2023.2.3,Win32,60.60606061,5,2,9,,,,,,,,5,10,,,,,,,,,,,5,1.164,1,,,,,,-0.3828125,-0.404947917,1,0,0,1.1644,Obsidian_rect,8,0,8,0,1,
58cab9bfc7ed3f000116e2a4,SCN,2024-06-11_12h20.20.635,LearnStrategy,2023.2.3,Win32,60.60606061,5,2,10,,,,,,,,3,16,,,,,,,,,,,1,2.67,0,,,,,,-0.33984375,-0.233072917,1,0,0,2.6703,Andesite_rect,9,0,9,0,1,
58cab9bfc7ed3f000116e2a4,SCN,2024-06-11_12h20.20.635,LearnStrategy,2023.2.3,Win32,60.60606061,5,2,11,,,,,,,,2,06,,,,,,,,,,,3,1.469,0,,,,,,0.09375,-0.243489583,1,0,0,1.4689,Diorite_rect,10,0,10,0,1,
58cab9bfc7ed3f000116e2a4,SCN,2024-06-11_12h20.20.635,LearnStrategy,2023.2.3,Win32,60.60606061,5,2,12,,,,,,,,3,13,,,,,,,,,,,4,1.4,0,,,,,,0.401041667,-0.252604167,1,0,0,1.4001,Gabbro_rect,11,0,11,0,1,
58cab9bfc7ed3f000116e2a4,SCN,2024-06-11_12h20.20.635,LearnStrategy,2023.2.3,Win32,60.60606061,5,2,13,,,,,,,,8,09,,,,,,,,,,,8,1.211,1,,,,,,0.37109375,-0.38671875,1,0,0,1.2109,Pumice_rect,12,0,12,0,1,
58cab9bfc7ed3f000116e2a4,SCN,2024-06-11_12h20.20.635,LearnStrategy,2023.2.3,Win32,60.60606061,5,2,14,,,,,,,,7,10,,,,,,,,,,,7,1.288,1,,,,,,0.084635417,-0.421875,1,0,0,1.2875,Peridotite_rect,13,0,13,0,1,
58cab9bfc7ed3f000116e2a4,SCN,2024-06-11_12h20.20.635,LearnStrategy,2023.2.3,Win32,60.60606061,5,2,15,,,,,,,,6,15,,,,,,,,,,,6,3.887,1,,,,,,-0.166666667,-0.388020833,1,0,0,3.8872,Pegmatite_rect,14,0,14,0,1,
58cab9bfc7ed3f000116e2a4,SCN,2024-06-11_12h20.20.635,LearnStrategy,2023.2.3,Win32,60.60606061,5,2,16,,,,,,,,1,02,,,,,,,,,,,3,2.693,0,,,,,,0.173177083,-0.244791667,1,0,0,2.6929,Diorite_rect,15,0,15,0,1,
58cab9bfc7ed3f000116e2a4,SCN,2024-06-11_12h20.20.635,LearnStrategy,2023.2.3,Win32,60.60606061,6,1,1,0.061197917,0.07421875,1,0,0,2.0854,Pumice_08,8,08,4,5,2.085,0.393229167,-0.404947917,1,0,0,0.8615,Pumice_rect,8,0.861,1,0,0,0,0,1,,,,,,,,,,,,,
58cab9bfc7ed3f000116e2a4,SCN,2024-06-11_12h20.20.635,LearnStrategy,2023.2.3,Win32,60.60606061,6,1,2,-0.057291667,0.102864583,1,0,0,0.8133,Gabbro_13,4,13,4,4,0.813,-0.388020833,-0.24609375,1,0,0,1.6305,Andesite_rect,1,1.631,0,1,0,1,0,1,,,,,,,,,,,,,
58cab9bfc7ed3f000116e2a4,SCN,2024-06-11_12h20.20.635,LearnStrategy,2023.2.3,Win32,60.60606061,6,1,3,-0.078125,0.24609375,1,0,0,1.5296,Pegmatite_11,6,11,5,4,1.53,0.377604167,-0.260416667,1,0,0,1.2107,Gabbro_rect,4,1.211,0,2,0,2,0,1,,,,,,,,,,,,,
58cab9bfc7ed3f000116e2a4,SCN,2024-06-11_12h20.20.635,LearnStrategy,2023.2.3,Win32,60.60606061,6,1,4,-0.102864583,0.126302083,1,0,0,1.6027,Gabbro_13,4,13,4,4,1.603,0.427083333,-0.25390625,1,0,0,1.0583,Gabbro_rect,4,1.058,1,3,0,3,0,1,,,,,,,,,,,,,
58cab9bfc7ed3f000116e2a4,SCN,2024-06-11_12h20.20.635,LearnStrategy,2023.2.3,Win32,60.60606061,6,1,5,-0.0859375,0.259114583,1,0,0,0.9635,Pegmatite_11,6,11,5,4,0.964,-0.110677083,-0.388020833,1,0,0,2.6988,Pegmatite_rect,6,2.699,1,4,0,4,0,1,,,,,,,,,,,,,
58cab9bfc7ed3f000116e2a4,SCN,2024-06-11_12h20.20.635,LearnStrategy,2023.2.3,Win32,60.60606061,6,1,6,-0.25,0.434895833,1,0,0,1.6726,Basalt_14,2,14,6,3,1.673,0.450520833,-0.397135417,1,0,0,1.5172,Pumice_rect,8,1.517,0,5,0,5,0,1,,,,,,,,,,,,,
58cab9bfc7ed3f000116e2a4,SCN,2024-06-11_12h20.20.635,LearnStrategy,2023.2.3,Win32,60.60606061,6,1,7,0.522135417,0.4140625,1,0,0,2.2126,Diorite_12,3,12,6,8,2.213,0.09375,-0.256510417,1,0,0,25.685,Diorite_rect,3,25.685,1,6,0,6,0,1,,,,,,,,,,,,,
58cab9bfc7ed3f000116e2a4,SCN,2024-06-11_12h20.20.635,LearnStrategy,2023.2.3,Win32,60.60606061,6,1,8,-0.203125,-0.104166667,1,0,0,1.7462,Andesite_04,1,04,3,3,1.746,-0.338541667,-0.239583333,1,0,0,2.8785,Andesite_rect,1,2.879,1,7,0,7,0,1,,,,,,,,,,,,,
58cab9bfc7ed3f000116e2a4,SCN,2024-06-11_12h20.20.635,LearnStrategy,2023.2.3,Win32,60.60606061,6,1,9,0.41796875,0.12109375,1,0,0,1.0477,Gabbro_11,4,11,4,7,1.048,0.079427083,-0.248697917,1,0,0,5.6224,Diorite_rect,3,5.622,0,8,0,8,0,1,,,,,,,,,,,,,
58cab9bfc7ed3f000116e2a4,SCN,2024-06-11_12h20.20.635,LearnStrategy,2023.2.3,Win32,60.60606061,6,1,10,0.403645833,0.079427083,1,0,0,1.1463,Gabbro_11,4,11,4,7,1.146,0.3828125,-0.23046875,1,0,0,1.0962,Gabbro_rect,4,1.096,1,9,0,9,0,1,,,,,,,,,,,,,
58cab9bfc7ed3f000116e2a4,SCN,2024-06-11_12h20.20.635,LearnStrategy,2023.2.3,Win32,60.60606061,6,1,11,0.40234375,0.2734375,1,0,0,1.6466,Basalt_01,2,01,5,7,1.647,0.385416667,-0.247395833,1,0,0,0.8473,Gabbro_rect,4,0.847,0,10,0,10,0,1,,,,,,,,,,,,,
58cab9bfc7ed3f000116e2a4,SCN,2024-06-11_12h20.20.635,LearnStrategy,2023.2.3,Win32,60.60606061,6,1,12,0.083333333,0.4140625,1,0,0,2.4296,Gabbro_10,4,10,6,5,2.43,0.375,-0.2421875,1,0,0,1.4088,Gabbro_rect,4,1.409,1,11,0,11,0,1,,,,,,,,,,,,,
58cab9bfc7ed3f000116e2a4,SCN,2024-06-11_12h20.20.635,LearnStrategy,2023.2.3,Win32,60.60606061,6,1,13,-0.251302083,0.268229167,1,0,0,1.564,Obsidian_06,5,06,5,3,1.564,-0.360677083,-0.419270833,1,0,0,1.3032,Obsidian_rect,5,1.303,1,12,0,12,0,1,,,,,,,,,,,,,
58cab9bfc7ed3f000116e2a4,SCN,2024-06-11_12h20.20.635,LearnStrategy,2023.2.3,Win32,60.60606061,6,1,14,0.087239583,-0.276041667,1,0,0,0.9804,Diorite_09,3,09,2,5,0.98,-0.416666667,-0.244791667,1,0,0,3.2444,Andesite_rect,1,3.244,0,13,0,13,0,1,,,,,,,,,,,,,
58cab9bfc7ed3f000116e2a4,SCN,2024-06-11_12h20.20.635,LearnStrategy,2023.2.3,Win32,60.60606061,6,1,15,0.079427083,-0.23046875,1,0,0,0.9484,Diorite_09,3,09,2,5,0.948,0.143229167,-0.2421875,1,0,0,0.9337,Diorite_rect,3,0.934,1,14,0,14,0,1,,,,,,,,,,,,,
58cab9bfc7ed3f000116e2a4,SCN,2024-06-11_12h20.20.635,LearnStrategy,2023.2.3,Win32,60.60606061,6,1,16,0.264322917,-0.102864583,1,0,0,1.543,Pegmatite_06,6,06,3,6,1.543,0.174479167,-0.263020833,1,0,0,1.1972,Diorite_rect,3,1.197,0,15,0,15,0,1,,,,,,,,,,,,,
58cab9bfc7ed3f000116e2a4,SCN,2024-06-11_12h20.20.635,LearnStrategy,2023.2.3,Win32,60.60606061,6,2,1,,,,,,,,5,11,,,,,,,,,,,5,3.558,1,,,,,,-0.34765625,-0.40234375,1,0,0,3.5583,Obsidian_rect,0,0,0,0,1,
58cab9bfc7ed3f000116e2a4,SCN,2024-06-11_12h20.20.635,LearnStrategy,2023.2.3,Win32,60.60606061,6,2,2,,,,,,,,7,14,,,,,,,,,,,7,2,1,,,,,,0.126302083,-0.416666667,1,0,0,2.0004,Peridotite_rect,1,0,1,0,1,
58cab9bfc7ed3f000116e2a4,SCN,2024-06-11_12h20.20.635,LearnStrategy,2023.2.3,Win32,60.60606061,6,2,3,,,,,,,,3,02,,,,,,,,,,,3,3.04,1,,,,,,0.05078125,-0.265625,1,0,0,3.0399,Diorite_rect,2,0,2,0,1,
58cab9bfc7ed3f000116e2a4,SCN,2024-06-11_12h20.20.635,LearnStrategy,2023.2.3,Win32,60.60606061,6,2,4,,,,,,,,4,15,,,,,,,,,,,1,2.015,0,,,,,,-0.325520833,-0.25390625,1,0,0,2.0153,Andesite_rect,3,0,3,0,1,
58cab9bfc7ed3f000116e2a4,SCN,2024-06-11_12h20.20.635,LearnStrategy,2023.2.3,Win32,60.60606061,6,2,5,,,,,,,,4,01,,,,,,,,,,,2,1.212,0,,,,,,-0.07421875,-0.24609375,1,0,0,1.2118,Basalt_rect,4,0,4,0,1,
58cab9bfc7ed3f000116e2a4,SCN,2024-06-11_12h20.20.635,LearnStrategy,2023.2.3,Win32,60.60606061,6,2,6,,,,,,,,2,04,,,,,,,,,,,2,1.237,1,,,,,,-0.052083333,-0.263020833,1,0,0,1.2372,Basalt_rect,5,0,5,0,1,
58cab9bfc7ed3f000116e2a4,SCN,2024-06-11_12h20.20.635,LearnStrategy,2023.2.3,Win32,60.60606061,6,2,7,,,,,,,,3,11,,,,,,,,,,,3,1.019,1,,,,,,0.161458333,-0.26171875,1,0,0,1.0194,Diorite_rect,6,0,6,0,1,
58cab9bfc7ed3f000116e2a4,SCN,2024-06-11_12h20.20.635,LearnStrategy,2023.2.3,Win32,60.60606061,6,2,8,,,,,,,,8,14,,,,,,,,,,,8,1.679,1,,,,,,0.352864583,-0.404947917,1,0,0,1.6788,Pumice_rect,7,0,7,0,1,
58cab9bfc7ed3f000116e2a4,SCN,2024-06-11_12h20.20.635,LearnStrategy,2023.2.3,Win32,60.60606061,6,2,9,,,,,,,,5,12,,,,,,,,,,,5,1.205,1,,,,,,-0.3671875,-0.408854167,1,0,0,1.2045,Obsidian_rect,8,0,8,0,1,
58cab9bfc7ed3f000116e2a4,SCN,2024-06-11_12h20.20.635,LearnStrategy,2023.2.3,Win32,60.60606061,6,2,10,,,,,,,,7,16,,,,,,,,,,,6,1.937,0,,,,,,-0.067708333,-0.395833333,1,0,0,1.9367,Pegmatite_rect,9,0,9,0,1,
58cab9bfc7ed3f000116e2a4,SCN,2024-06-11_12h20.20.635,LearnStrategy,2023.2.3,Win32,60.60606061,6,2,11,,,,,,,,2,12,,,,,,,,,,,8,3.667,0,,,,,,0.393229167,-0.384114583,1,0,0,3.6665,Pumice_rect,10,0,10,0,1,
58cab9bfc7ed3f000116e2a4,SCN,2024-06-11_12h20.20.635,LearnStrategy,2023.2.3,Win32,60.60606061,6,2,12,,,,,,,,1,09,,,,,,,,,,,2,2.074,0,,,,,,-0.141927083,-0.247395833,1,0,0,2.0744,Basalt_rect,11,0,11,0,1,
58cab9bfc7ed3f000116e2a4,SCN,2024-06-11_12h20.20.635,LearnStrategy,2023.2.3,Win32,60.60606061,6,2,13,,,,,,,,6,16,,,,,,,,,,,6,2.188,1,,,,,,-0.05859375,-0.40625,1,0,0,2.1881,Pegmatite_rect,12,0,12,0,1,
58cab9bfc7ed3f000116e2a4,SCN,2024-06-11_12h20.20.635,LearnStrategy,2023.2.3,Win32,60.60606061,6,2,14,,,,,,,,8,05,,,,,,,,,,,8,1.445,1,,,,,,0.380208333,-0.3984375,1,0,0,1.4452,Pumice_rect,13,0,13,0,1,
58cab9bfc7ed3f000116e2a4,SCN,2024-06-11_12h20.20.635,LearnStrategy,2023.2.3,Win32,60.60606061,6,2,15,,,,,,,,6,05,,,,,,,,,,,3,4.155,0,,,,,,0.126302083,-0.247395833,1,0,0,4.1553,Diorite_rect,14,0,14,0,1,
58cab9bfc7ed3f000116e2a4,SCN,2024-06-11_12h20.20.635,LearnStrategy,2023.2.3,Win32,60.60606061,6,2,16,,,,,,,,1,07,,,,,,,,,,,2,1.47,0,,,,,,-0.114583333,-0.231770833,1,0,0,1.4703,Basalt_rect,15,0,15,0,1,
58cab9bfc7ed3f000116e2a4,SCN,2024-06-11_12h20.20.635,LearnStrategy,2023.2.3,Win32,60.60606061,7,1,1,0.40625,-0.10546875,1,0,0,76.8608,Andesite_01,1,01,3,7,76.861,-0.372395833,-0.251302083,1,0,0,2.5444,Andesite_rect,1,2.544,1,0,0,0,0,1,,,,,,,,,,,,,
58cab9bfc7ed3f000116e2a4,SCN,2024-06-11_12h20.20.635,LearnStrategy,2023.2.3,Win32,60.60606061,7,1,2,-0.07421875,-0.119791667,1,0,0,1.4624,Andesite_10,1,10,3,4,1.462,0.0859375,-0.26953125,1,0,0,1.0497,Diorite_rect,3,1.05,0,1,0,1,0,1,,,,,,,,,,,,,
58cab9bfc7ed3f000116e2a4,SCN,2024-06-11_12h20.20.635,LearnStrategy,2023.2.3,Win32,60.60606061,7,1,3,-0.20703125,-0.118489583,1,0,0,0.8521,Andesite_04,1,04,3,3,0.852,-0.326822917,-0.26171875,1,0,0,0.789,Andesite_rect,1,0.789,1,2,0,2,0,1,,,,,,,,,,,,,
58cab9bfc7ed3f000116e2a4,SCN,2024-06-11_12h20.20.635,LearnStrategy,2023.2.3,Win32,60.60606061,7,1,4,0.28515625,-0.092447917,1,0,0,0.7835,Pegmatite_06,6,06,3,6,0.784,-0.06640625,-0.408854167,1,0,0,1.5056,Pegmatite_rect,6,1.506,1,3,0,3,0,1,,,,,,,,,,,,,
58cab9bfc7ed3f000116e2a4,SCN,2024-06-11_12h20.20.635,LearnStrategy,2023.2.3,Win32,60.60606061,7,1,5,0.10546875,-0.106770833,1,0,0,1.4822,Pumice_10,8,10,3,5,1.482,-0.34765625,-0.243489583,1,0,0,1.431,Andesite_rect,1,1.431,0,4,0,4,0,1,,,,,,,,,,,,,
58cab9bfc7ed3f000116e2a4,SCN,2024-06-11_12h20.20.635,LearnStrategy,2023.2.3,Win32,60.60606061,7,1,6,0.415364583,-0.09765625,1,0,0,1.0317,Andesite_01,1,01,3,7,1.032,-0.352864583,-0.234375,1,0,0,2.2733,Andesite_rect,1,2.273,1,5,0,5,0,1,,,,,,,,,,,,,
58cab9bfc7ed3f000116e2a4,SCN,2024-06-11_12h20.20.635,LearnStrategy,2023.2.3,Win32,60.60606061,7,1,7,0.233072917,-0.119791667,1,0,0,1.3605,Pegmatite_06,6,06,3,6,1.361,-0.067708333,-0.401041667,1,0,0,1.1125,Pegmatite_rect,6,1.113,1,6,0,6,0,1,,,,,,,,,,,,,
58cab9bfc7ed3f000116e2a4,SCN,2024-06-11_12h20.20.635,LearnStrategy,2023.2.3,Win32,60.60606061,7,1,8,0.390625,0.095052083,1,0,0,1.0962,Gabbro_11,4,11,4,7,1.096,-0.341145833,-0.256510417,1,0,0,4.49,Andesite_rect,1,4.49,0,7,0,7,0,1,,,,,,,,,,,,,
58cab9bfc7ed3f000116e2a4,SCN,2024-06-11_12h20.20.635,LearnStrategy,2023.2.3,Win32,60.60606061,7,1,9,0.395833333,-0.42578125,1,0,0,3.5962,Pegmatite_03,6,03,1,7,3.596,-0.061197917,-0.399739583,1,0,0,0.958,Pegmatite_rect,6,0.958,1,8,0,8,0,1,,,,,,,,,,,,,
58cab9bfc7ed3f000116e2a4,SCN,2024-06-11_12h20.20.635,LearnStrategy,2023.2.3,Win32,60.60606061,7,1,10,0.423177083,0.108072917,1,0,0,1.1643,Gabbro_11,4,11,4,7,1.164,0.333333333,-0.234375,1,0,0,1.8617,Gabbro_rect,4,1.862,1,9,0,9,0,1,,,,,,,,,,,,,
58cab9bfc7ed3f000116e2a4,SCN,2024-06-11_12h20.20.635,LearnStrategy,2023.2.3,Win32,60.60606061,7,1,11,0.338541667,-0.14453125,1,0,0,1.5914,Andesite_01,1,01,3,7,1.591,0.345052083,-0.235677083,1,0,0,0.7766,Gabbro_rect,4,0.777,0,10,0,10,0,1,,,,,,,,,,,,,
58cab9bfc7ed3f000116e2a4,SCN,2024-06-11_12h20.20.635,LearnStrategy,2023.2.3,Win32,60.60606061,7,1,12,0.197916667,-0.125,1,0,0,1.8797,Pegmatite_06,6,06,3,6,1.88,-0.102864583,-0.390625,1,0,0,0.8778,Pegmatite_rect,6,0.878,1,11,0,11,0,1,,,,,,,,,,,,,
58cab9bfc7ed3f000116e2a4,SCN,2024-06-11_12h20.20.635,LearnStrategy,2023.2.3,Win32,60.60606061,7,1,13,-0.069010417,-0.1015625,1,0,0,0.9755,Andesite_10,1,10,3,4,0.976,-0.122395833,-0.255208333,1,0,0,2.3548,Basalt_rect,2,2.355,0,12,0,12,0,1,,,,,,,,,,,,,
58cab9bfc7ed3f000116e2a4,SCN,2024-06-11_12h20.20.635,LearnStrategy,2023.2.3,Win32,60.60606061,7,1,14,-0.087239583,-0.071614583,1,0,0,2.0426,Andesite_10,1,10,3,4,2.043,0.319010417,-0.23828125,1,0,0,2.6437,Gabbro_rect,4,2.644,0,13,0,13,0,1,,,,,,,,,,,,,
58cab9bfc7ed3f000116e2a4,SCN,2024-06-11_12h20.20.635,LearnStrategy,2023.2.3,Win32,60.60606061,7,1,15,0.032552083,0.08984375,1,0,0,0.9692,Pumice_08,8,08,4,5,0.969,0.348958333,-0.2421875,1,0,0,2.4394,Gabbro_rect,4,2.439,0,14,0,14,0,1,,,,,,,,,,,,,
58cab9bfc7ed3f000116e2a4,SCN,2024-06-11_12h20.20.635,LearnStrategy,2023.2.3,Win32,60.60606061,7,1,16,0.1015625,0.135416667,1,0,0,0.9954,Pumice_08,8,08,4,5,0.995,0.333333333,-0.393229167,1,0,0,1.047,Pumice_rect,8,1.047,1,15,0,15,0,1,,,,,,,,,,,,,
58cab9bfc7ed3f000116e2a4,SCN,2024-06-11_12h20.20.635,LearnStrategy,2023.2.3,Win32,60.60606061,7,2,1,,,,,,,,4,01,,,,,,,,,,,7,4.244,0,,,,,,0.154947917,-0.403645833,1,0,0,4.2439,Peridotite_rect,0,0,0,0,1,
58cab9bfc7ed3f000116e2a4,SCN,2024-06-11_12h20.20.635,LearnStrategy,2023.2.3,Win32,60.60606061,7,2,2,,,,,,,,7,06,,,,,,,,,,,6,5.681,0,,,,,,-0.04296875,-0.38671875,1,0,0,5.6809,Pegmatite_rect,1,0,1,0,1,
58cab9bfc7ed3f000116e2a4,SCN,2024-06-11_12h20.20.635,LearnStrategy,2023.2.3,Win32,60.60606061,7,2,3,,,,,,,,3,02,,,,,,,,,,,3,6.123,1,,,,,,0.096354167,-0.24609375,1,0,0,6.1232,Diorite_rect,2,0,2,0,1,
58cab9bfc7ed3f000116e2a4,SCN,2024-06-11_12h20.20.635,LearnStrategy,2023.2.3,Win32,60.60606061,7,2,4,,,,,,,,6,05,,,,,,,,,,,6,2.527,1,,,,,,-0.1015625,-0.393229167,1,0,0,2.5271,Pegmatite_rect,3,0,3,0,1,
58cab9bfc7ed3f000116e2a4,SCN,2024-06-11_12h20.20.635,LearnStrategy,2023.2.3,Win32,60.60606061,7,2,5,,,,,,,,7,14,,,,,,,,,,,7,1.244,1,,,,,,0.03515625,-0.40625,1,0,0,1.2438,Peridotite_rect,4,0,4,0,1,
58cab9bfc7ed3f000116e2a4,SCN,2024-06-11_12h20.20.635,LearnStrategy,2023.2.3,Win32,60.60606061,7,2,6,,,,,,,,2,04,,,,,,,,,,,5,4.782,0,,,,,,-0.359375,-0.37890625,1,0,0,4.7815,Obsidian_rect,5,0,5,0,1,
58cab9bfc7ed3f000116e2a4,SCN,2024-06-11_12h20.20.635,LearnStrategy,2023.2.3,Win32,60.60606061,7,2,7,,,,,,,,5,11,,,,,,,,,,,5,1.016,1,,,,,,-0.432291667,-0.407552083,1,0,0,1.0163,Obsidian_rect,6,0,6,0,1,
58cab9bfc7ed3f000116e2a4,SCN,2024-06-11_12h20.20.635,LearnStrategy,2023.2.3,Win32,60.60606061,7,2,8,,,,,,,,1,16,,,,,,,,,,,1,4.626,1,,,,,,-0.372395833,-0.244791667,1,0,0,4.6255,Andesite_rect,7,0,7,0,1,
58cab9bfc7ed3f000116e2a4,SCN,2024-06-11_12h20.20.635,LearnStrategy,2023.2.3,Win32,60.60606061,7,2,9,,,,,,,,5,08,,,,,,,,,,,5,1.156,1,,,,,,-0.423177083,-0.407552083,1,0,0,1.1559,Obsidian_rect,8,0,8,0,1,
58cab9bfc7ed3f000116e2a4,SCN,2024-06-11_12h20.20.635,LearnStrategy,2023.2.3,Win32,60.60606061,7,2,10,,,,,,,,8,15,,,,,,,,,,,8,1.436,1,,,,,,0.38671875,-0.397135417,1,0,0,1.4358,Pumice_rect,9,0,9,0,1,
58cab9bfc7ed3f000116e2a4,SCN,2024-06-11_12h20.20.635,LearnStrategy,2023.2.3,Win32,60.60606061,7,2,11,,,,,,,,4,15,,,,,,,,,,,3,1.587,0,,,,,,0.127604167,-0.234375,1,0,0,1.5875,Diorite_rect,10,0,10,0,1,
58cab9bfc7ed3f000116e2a4,SCN,2024-06-11_12h20.20.635,LearnStrategy,2023.2.3,Win32,60.60606061,7,2,12,,,,,,,,8,09,,,,,,,,,,,8,1.204,1,,,,,,0.350260417,-0.390625,1,0,0,1.2036,Pumice_rect,11,0,11,0,1,
58cab9bfc7ed3f000116e2a4,SCN,2024-06-11_12h20.20.635,LearnStrategy,2023.2.3,Win32,60.60606061,7,2,13,,,,,,,,1,03,,,,,,,,,,,2,2.419,0,,,,,,-0.08203125,-0.255208333,1,0,0,2.4192,Basalt_rect,12,0,12,0,1,
58cab9bfc7ed3f000116e2a4,SCN,2024-06-11_12h20.20.635,LearnStrategy,2023.2.3,Win32,60.60606061,7,2,14,,,,,,,,2,06,,,,,,,,,,,5,1.482,0,,,,,,-0.438802083,-0.404947917,1,0,0,1.482,Obsidian_rect,13,0,13,0,1,
58cab9bfc7ed3f000116e2a4,SCN,2024-06-11_12h20.20.635,LearnStrategy,2023.2.3,Win32,60.60606061,7,2,15,,,,,,,,6,16,,,,,,,,,,,6,1.272,1,,,,,,-0.069010417,-0.380208333,1,0,0,1.272,Pegmatite_rect,14,0,14,0,1,
58cab9bfc7ed3f000116e2a4,SCN,2024-06-11_12h20.20.635,LearnStrategy,2023.2.3,Win32,60.60606061,7,2,16,,,,,,,,3,11,,,,,,,,,,,6,1.451,0,,,,,,-0.083333333,-0.385416667,1,0,0,1.4513,Pegmatite_rect,15,0,15,0,1,
58cab9bfc7ed3f000116e2a4,SCN,2024-06-11_12h20.20.635,LearnStrategy,2023.2.3,Win32,60.60606061,8,1,1,-0.231770833,0.127604167,1,0,0,2.456,Pumice_13,8,13,4,3,2.456,0.43359375,-0.38671875,1,0,0,1.0552,Pumice_rect,8,1.055,1,0,0,0,0,1,,,,,,,,,,,,,
58cab9bfc7ed3f000116e2a4,SCN,2024-06-11_12h20.20.635,LearnStrategy,2023.2.3,Win32,60.60606061,8,1,2,-0.514322917,0.41796875,1,0,0,1.181,Peridotite_12,7,12,6,1,1.181,0.087239583,-0.420572917,1,0,0,1.3645,Peridotite_rect,7,1.364,1,1,0,1,0,1,,,,,,,,,,,,,
58cab9bfc7ed3f000116e2a4,SCN,2024-06-11_12h20.20.635,LearnStrategy,2023.2.3,Win32,60.60606061,8,1,3,-0.540364583,0.30078125,1,0,0,1.1271,Peridotite_05,7,05,5,1,1.127,-0.111979167,-0.380208333,1,0,0,1.3902,Pegmatite_rect,6,1.39,0,2,0,2,0,1,,,,,,,,,,,,,
58cab9bfc7ed3f000116e2a4,SCN,2024-06-11_12h20.20.635,LearnStrategy,2023.2.3,Win32,60.60606061,8,1,4,-0.569010417,0.2734375,1,0,0,0.8301,Peridotite_05,7,05,5,1,0.83,0.130208333,-0.401041667,1,0,0,2.4329,Peridotite_rect,7,2.433,1,3,0,3,0,1,,,,,,,,,,,,,
58cab9bfc7ed3f000116e2a4,SCN,2024-06-11_12h20.20.635,LearnStrategy,2023.2.3,Win32,60.60606061,8,1,5,-0.583333333,0.087239583,1,0,0,0.8877,Basalt_09,2,09,4,1,0.888,-0.3203125,-0.252604167,1,0,0,1.6367,Andesite_rect,1,1.637,0,4,0,4,0,1,,,,,,,,,,,,,
58cab9bfc7ed3f000116e2a4,SCN,2024-06-11_12h20.20.635,LearnStrategy,2023.2.3,Win32,60.60606061,8,1,6,-0.557291667,0.114583333,1,0,0,0.7252,Basalt_09,2,09,4,1,0.725,-0.139322917,-0.255208333,1,0,0,0.8153,Basalt_rect,2,0.815,1,5,0,5,0,1,,,,,,,,,,,,,
58cab9bfc7ed3f000116e2a4,SCN,2024-06-11_12h20.20.635,LearnStrategy,2023.2.3,Win32,60.60606061,8,1,7,-0.52734375,-0.102864583,1,0,0,0.8725,Basalt_05,2,05,3,1,0.872,-0.075520833,-0.240885417,1,0,0,0.8721,Basalt_rect,2,0.872,1,6,0,6,0,1,,,,,,,,,,,,,
58cab9bfc7ed3f000116e2a4,SCN,2024-06-11_12h20.20.635,LearnStrategy,2023.2.3,Win32,60.60606061,8,1,8,-0.532552083,-0.240885417,1,0,0,1.0386,Pegmatite_13,6,13,2,1,1.039,-0.131510417,-0.408854167,1,0,0,1.8222,Pegmatite_rect,6,1.822,1,7,0,7,0,1,,,,,,,,,,,,,
58cab9bfc7ed3f000116e2a4,SCN,2024-06-11_12h20.20.635,LearnStrategy,2023.2.3,Win32,60.60606061,8,1,9,-0.533854167,-0.385416667,1,0,0,1.0604,Pumice_03,8,03,1,1,1.06,0.35546875,-0.408854167,1,0,0,3.711,Pumice_rect,8,3.711,1,8,0,8,0,1,,,,,,,,,,,,,
58cab9bfc7ed3f000116e2a4,SCN,2024-06-11_12h20.20.635,LearnStrategy,2023.2.3,Win32,60.60606061,8,1,10,-0.372395833,0.397135417,1,0,0,1.3985,Obsidian_16,5,16,6,2,1.399,-0.399739583,-0.393229167,1,0,0,1.0527,Obsidian_rect,5,1.053,1,9,0,9,0,1,,,,,,,,,,,,,
58cab9bfc7ed3f000116e2a4,SCN,2024-06-11_12h20.20.635,LearnStrategy,2023.2.3,Win32,60.60606061,8,1,11,-0.403645833,0.28125,1,0,0,0.8974,Pumice_16,8,16,5,2,0.897,0.4140625,-0.3984375,1,0,0,0.9632,Pumice_rect,8,0.963,1,10,0,10,0,1,,,,,,,,,,,,,
58cab9bfc7ed3f000116e2a4,SCN,2024-06-11_12h20.20.635,LearnStrategy,2023.2.3,Win32,60.60606061,8,1,12,-0.37109375,0.12109375,1,0,0,0.9265,Basalt_10,2,10,4,2,0.927,-0.3359375,-0.391927083,1,0,0,2.1912,Obsidian_rect,5,2.191,0,11,0,11,0,1,,,,,,,,,,,,,
58cab9bfc7ed3f000116e2a4,SCN,2024-06-11_12h20.20.635,LearnStrategy,2023.2.3,Win32,60.60606061,8,1,13,-0.364583333,0.07421875,1,0,0,0.7315,Basalt_10,2,10,4,2,0.732,-0.1328125,-0.251302083,1,0,0,1.1496,Basalt_rect,2,1.15,1,12,0,12,0,1,,,,,,,,,,,,,
58cab9bfc7ed3f000116e2a4,SCN,2024-06-11_12h20.20.635,LearnStrategy,2023.2.3,Win32,60.60606061,8,1,14,-0.377604167,-0.11328125,1,0,0,0.9279,Peridotite_15,7,15,3,2,0.928,0.0703125,-0.408854167,1,0,0,1.3069,Peridotite_rect,7,1.307,1,13,0,13,0,1,,,,,,,,,,,,,
58cab9bfc7ed3f000116e2a4,SCN,2024-06-11_12h20.20.635,LearnStrategy,2023.2.3,Win32,60.60606061,8,1,15,-0.388020833,-0.263020833,1,0,0,0.9786,Andesite_11,1,11,2,2,0.979,-0.065104167,-0.264322917,1,0,0,1.2679,Basalt_rect,2,1.268,0,14,0,14,0,1,,,,,,,,,,,,,
58cab9bfc7ed3f000116e2a4,SCN,2024-06-11_12h20.20.635,LearnStrategy,2023.2.3,Win32,60.60606061,8,1,16,-0.39453125,-0.278645833,1,0,0,0.9638,Andesite_11,1,11,2,2,0.964,-0.352864583,-0.248697917,1,0,0,0.979,Andesite_rect,1,0.979,1,15,0,15,0,1,,,,,,,,,,,,,
58cab9bfc7ed3f000116e2a4,SCN,2024-06-11_12h20.20.635,LearnStrategy,2023.2.3,Win32,60.60606061,8,2,1,,,,,,,,4,16,,,,,,,,,,,5,2.02,0,,,,,,-0.352864583,-0.40625,1,0,0,2.0201,Obsidian_rect,0,0,0,0,1,
58cab9bfc7ed3f000116e2a4,SCN,2024-06-11_12h20.20.635,LearnStrategy,2023.2.3,Win32,60.60606061,8,2,2,,,,,,,,4,08,,,,,,,,,,,7,5.372,0,,,,,,0.11328125,-0.4140625,1,0,0,5.3718,Peridotite_rect,1,0,1,0,1,
58cab9bfc7ed3f000116e2a4,SCN,2024-06-11_12h20.20.635,LearnStrategy,2023.2.3,Win32,60.60606061,8,2,3,,,,,,,,3,16,,,,,,,,,,,6,1.396,0,,,,,,-0.122395833,-0.390625,1,0,0,1.3962,Pegmatite_rect,2,0,2,0,1,
58cab9bfc7ed3f000116e2a4,SCN,2024-06-11_12h20.20.635,LearnStrategy,2023.2.3,Win32,60.60606061,8,2,4,,,,,,,,7,07,,,,,,,,,,,7,1.295,1,,,,,,0.067708333,-0.408854167,1,0,0,1.2946,Peridotite_rect,3,0,3,0,1,
58cab9bfc7ed3f000116e2a4,SCN,2024-06-11_12h20.20.635,LearnStrategy,2023.2.3,Win32,60.60606061,8,2,5,,,,,,,,7,02,,,,,,,,,,,7,0.935,1,,,,,,0.140625,-0.415364583,1,0,0,0.9351,Peridotite_rect,4,0,4,0,1,
58cab9bfc7ed3f000116e2a4,SCN,2024-06-11_12h20.20.635,LearnStrategy,2023.2.3,Win32,60.60606061,8,2,6,,,,,,,,1,02,,,,,,,,,,,6,1.676,0,,,,,,-0.096354167,-0.39453125,1,0,0,1.676,Pegmatite_rect,5,0,5,0,1,
58cab9bfc7ed3f000116e2a4,SCN,2024-06-11_12h20.20.635,LearnStrategy,2023.2.3,Win32,60.60606061,8,2,7,,,,,,,,6,08,,,,,,,,,,,6,0.656,1,,,,,,-0.057291667,-0.391927083,1,0,0,0.6556,Pegmatite_rect,6,0,6,0,1,
58cab9bfc7ed3f000116e2a4,SCN,2024-06-11_12h20.20.635,LearnStrategy,2023.2.3,Win32,60.60606061,8,2,8,,,,,,,,6,15,,,,,,,,,,,6,1.033,1,,,,,,-0.08203125,-0.38671875,1,0,0,1.0333,Pegmatite_rect,7,0,7,0,1,
58cab9bfc7ed3f000116e2a4,SCN,2024-06-11_12h20.20.635,LearnStrategy,2023.2.3,Win32,60.60606061,8,2,9,,,,,,,,5,05,,,,,,,,,,,6,0.672,0,,,,,,-0.08203125,-0.38671875,1,0,0,0.6724,Pegmatite_rect,8,0,8,0,1,
58cab9bfc7ed3f000116e2a4,SCN,2024-06-11_12h20.20.635,LearnStrategy,2023.2.3,Win32,60.60606061,8,2,10,,,,,,,,1,07,,,,,,,,,,,4,1.654,0,,,,,,0.3515625,-0.268229167,1,0,0,1.6539,Gabbro_rect,9,0,9,0,1,
58cab9bfc7ed3f000116e2a4,SCN,2024-06-11_12h20.20.635,LearnStrategy,2023.2.3,Win32,60.60606061,8,2,11,,,,,,,,5,14,,,,,,,,,,,5,1.189,1,,,,,,-0.377604167,-0.41796875,1,0,0,1.1888,Obsidian_rect,10,0,10,0,1,
58cab9bfc7ed3f000116e2a4,SCN,2024-06-11_12h20.20.635,LearnStrategy,2023.2.3,Win32,60.60606061,8,2,12,,,,,,,,2,12,,,,,,,,,,,8,1.187,0,,,,,,0.4296875,-0.397135417,1,0,0,1.1868,Pumice_rect,11,0,11,0,1,
58cab9bfc7ed3f000116e2a4,SCN,2024-06-11_12h20.20.635,LearnStrategy,2023.2.3,Win32,60.60606061,8,2,13,,,,,,,,3,07,,,,,,,,,,,6,1.085,0,,,,,,-0.05078125,-0.39453125,1,0,0,1.0852,Pegmatite_rect,12,0,12,0,1,
58cab9bfc7ed3f000116e2a4,SCN,2024-06-11_12h20.20.635,LearnStrategy,2023.2.3,Win32,60.60606061,8,2,14,,,,,,,,2,02,,,,,,,,,,,5,1.077,0,,,,,,-0.34375,-0.381510417,1,0,0,1.077,Obsidian_rect,13,0,13,0,1,
58cab9bfc7ed3f000116e2a4,SCN,2024-06-11_12h20.20.635,LearnStrategy,2023.2.3,Win32,60.60606061,8,2,15,,,,,,,,8,05,,,,,,,,,,,8,1.63,1,,,,,,0.420572917,-0.381510417,1,0,0,1.6301,Pumice_rect,14,0,14,0,1,
58cab9bfc7ed3f000116e2a4,SCN,2024-06-11_12h20.20.635,LearnStrategy,2023.2.3,Win32,60.60606061,8,2,16,,,,,,,,8,06,,,,,,,,,,,8,1.449,1,,,,,,0.309895833,-0.41796875,1,0,0,1.4487,Pumice_rect,15,0,15,0,1,
58cab9bfc7ed3f000116e2a4,SCN,2024-06-11_12h20.20.635,LearnStrategy,2023.2.3,Win32,60.60606061,9,1,1,0.57421875,0.39453125,1,0,0,2.916,Diorite_12,3,12,6,8,2.916,-0.076822917,-0.3828125,1,0,0,3.2362,Pegmatite_rect,6,3.236,0,0,0,0,0,1,,,,,,,,,,,,,
58cab9bfc7ed3f000116e2a4,SCN,2024-06-11_12h20.20.635,LearnStrategy,2023.2.3,Win32,60.60606061,9,1,2,0.600260417,0.421875,1,0,0,1.197,Diorite_12,3,12,6,8,1.197,0.154947917,-0.403645833,1,0,0,1.6308,Peridotite_rect,7,1.631,0,1,0,1,0,1,,,,,,,,,,,,,
58cab9bfc7ed3f000116e2a4,SCN,2024-06-11_12h20.20.635,LearnStrategy,2023.2.3,Win32,60.60606061,9,1,3,0.545572917,0.451822917,1,0,0,1.1175,Diorite_12,3,12,6,8,1.117,-0.057291667,-0.4140625,1,0,0,4.1754,Pegmatite_rect,6,4.175,0,2,0,2,0,1,,,,,,,,,,,,,
58cab9bfc7ed3f000116e2a4,SCN,2024-06-11_12h20.20.635,LearnStrategy,2023.2.3,Win32,60.60606061,9,1,4,0.569010417,0.419270833,1,0,0,0.9304,Diorite_12,3,12,6,8,0.93,0.096354167,-0.26953125,1,0,0,2.8797,Diorite_rect,3,2.88,1,3,0,3,0,1,,,,,,,,,,,,,
58cab9bfc7ed3f000116e2a4,SCN,2024-06-11_12h20.20.635,LearnStrategy,2023.2.3,Win32,60.60606061,9,1,5,0.583333333,0.268229167,1,0,0,1.3604,Andesite_05,1,05,5,8,1.36,-0.333333333,-0.265625,1,0,0,2.2097,Andesite_rect,1,2.21,1,4,0,4,0,1,,,,,,,,,,,,,
58cab9bfc7ed3f000116e2a4,SCN,2024-06-11_12h20.20.635,LearnStrategy,2023.2.3,Win32,60.60606061,9,1,6,0.572916667,0.127604167,1,0,0,1.0165,Pegmatite_07,6,07,4,8,1.016,-0.096354167,-0.395833333,1,0,0,1.3559,Pegmatite_rect,6,1.356,1,5,0,5,0,1,,,,,,,,,,,,,
58cab9bfc7ed3f000116e2a4,SCN,2024-06-11_12h20.20.635,LearnStrategy,2023.2.3,Win32,60.60606061,9,1,7,0.595052083,-0.09765625,1,0,0,0.9937,Peridotite_13,7,13,3,8,0.994,0.149739583,-0.41015625,1,0,0,2.3421,Peridotite_rect,7,2.342,1,6,0,6,0,1,,,,,,,,,,,,,
58cab9bfc7ed3f000116e2a4,SCN,2024-06-11_12h20.20.635,LearnStrategy,2023.2.3,Win32,60.60606061,9,1,8,0.600260417,-0.240885417,1,0,0,0.85,Gabbro_03,4,03,2,8,0.85,-0.36328125,-0.259114583,1,0,0,3.3288,Andesite_rect,1,3.329,0,7,0,7,0,1,,,,,,,,,,,,,
58cab9bfc7ed3f000116e2a4,SCN,2024-06-11_12h20.20.635,LearnStrategy,2023.2.3,Win32,60.60606061,9,1,9,0.557291667,-0.302083333,1,0,0,0.9091,Gabbro_03,4,03,2,8,0.909,0.428385417,-0.229166667,1,0,0,1.1286,Gabbro_rect,4,1.129,1,8,0,8,0,1,,,,,,,,,,,,,
58cab9bfc7ed3f000116e2a4,SCN,2024-06-11_12h20.20.635,LearnStrategy,2023.2.3,Win32,60.60606061,9,1,10,0.563802083,-0.446614583,1,0,0,1.0968,Obsidian_07,5,07,1,8,1.097,-0.358072917,-0.389322917,1,0,0,0.9675,Obsidian_rect,5,0.967,1,9,0,9,0,1,,,,,,,,,,,,,
58cab9bfc7ed3f000116e2a4,SCN,2024-06-11_12h20.20.635,LearnStrategy,2023.2.3,Win32,60.60606061,9,1,11,0.408854167,-0.40625,1,0,0,1.6641,Pegmatite_03,6,03,1,7,1.664,-0.083333333,-0.3984375,1,0,0,1.3858,Pegmatite_rect,6,1.386,1,10,0,10,0,1,,,,,,,,,,,,,
58cab9bfc7ed3f000116e2a4,SCN,2024-06-11_12h20.20.635,LearnStrategy,2023.2.3,Win32,60.60606061,9,1,12,0.403645833,-0.25390625,1,0,0,0.9802,Peridotite_08,7,08,2,7,0.98,0.16796875,-0.421875,1,0,0,1.8934,Peridotite_rect,7,1.893,1,11,0,11,0,1,,,,,,,,,,,,,
58cab9bfc7ed3f000116e2a4,SCN,2024-06-11_12h20.20.635,LearnStrategy,2023.2.3,Win32,60.60606061,9,1,13,0.399739583,-0.24609375,1,0,0,1.0233,Peridotite_08,7,08,2,7,1.023,0.1171875,-0.380208333,1,0,0,1.8024,Peridotite_rect,7,1.802,1,12,0,12,0,1,,,,,,,,,,,,,
58cab9bfc7ed3f000116e2a4,SCN,2024-06-11_12h20.20.635,LearnStrategy,2023.2.3,Win32,60.60606061,9,1,14,0.384114583,-0.100260417,1,0,0,1.0223,Andesite_01,1,01,3,7,1.022,0.4296875,-0.243489583,1,0,0,1.8181,Gabbro_rect,4,1.818,0,13,0,13,0,1,,,,,,,,,,,,,
58cab9bfc7ed3f000116e2a4,SCN,2024-06-11_12h20.20.635,LearnStrategy,2023.2.3,Win32,60.60606061,9,1,15,0.40625,-0.126302083,1,0,0,1.1463,Andesite_01,1,01,3,7,1.146,-0.365885417,-0.263020833,1,0,0,0.931,Andesite_rect,1,0.931,1,14,0,14,0,1,,,,,,,,,,,,,
58cab9bfc7ed3f000116e2a4,SCN,2024-06-11_12h20.20.635,LearnStrategy,2023.2.3,Win32,60.60606061,9,1,16,0.424479167,0.118489583,1,0,0,0.8556,Gabbro_11,4,11,4,7,0.856,0.389322917,-0.256510417,1,0,0,1.0454,Gabbro_rect,4,1.045,1,15,0,15,0,1,,,,,,,,,,,,,
58cab9bfc7ed3f000116e2a4,SCN,2024-06-11_12h20.20.635,LearnStrategy,2023.2.3,Win32,60.60606061,9,2,1,,,,,,,,7,10,,,,,,,,,,,7,1.31,1,,,,,,0.130208333,-0.391927083,1,0,0,1.3101,Peridotite_rect,0,0,0,0,1,
58cab9bfc7ed3f000116e2a4,SCN,2024-06-11_12h20.20.635,LearnStrategy,2023.2.3,Win32,60.60606061,9,2,2,,,,,,,,8,04,,,,,,,,,,,8,1.024,1,,,,,,0.384114583,-0.420572917,1,0,0,1.0237,Pumice_rect,1,0,1,0,1,
58cab9bfc7ed3f000116e2a4,SCN,2024-06-11_12h20.20.635,LearnStrategy,2023.2.3,Win32,60.60606061,9,2,3,,,,,,,,4,12,,,,,,,,,,,1,2.646,0,,,,,,-0.372395833,-0.26171875,1,0,0,2.6465,Andesite_rect,2,0,2,0,1,
58cab9bfc7ed3f000116e2a4,SCN,2024-06-11_12h20.20.635,LearnStrategy,2023.2.3,Win32,60.60606061,9,2,4,,,,,,,,2,16,,,,,,,,,,,4,7.058,0,,,,,,0.3515625,-0.252604167,1,0,0,7.0585,Gabbro_rect,3,0,3,0,1,
58cab9bfc7ed3f000116e2a4,SCN,2024-06-11_12h20.20.635,LearnStrategy,2023.2.3,Win32,60.60606061,9,2,5,,,,,,,,5,12,,,,,,,,,,,5,1.487,1,,,,,,-0.407552083,-0.403645833,1,0,0,1.4869,Obsidian_rect,4,0,4,0,1,
58cab9bfc7ed3f000116e2a4,SCN,2024-06-11_12h20.20.635,LearnStrategy,2023.2.3,Win32,60.60606061,9,2,6,,,,,,,,3,13,,,,,,,,,,,6,1.467,0,,,,,,-0.08203125,-0.3828125,1,0,0,1.4674,Pegmatite_rect,5,0,5,0,1,
58cab9bfc7ed3f000116e2a4,SCN,2024-06-11_12h20.20.635,LearnStrategy,2023.2.3,Win32,60.60606061,9,2,7,,,,,,,,1,14,,,,,,,,,,,1,3.774,1,,,,,,-0.354166667,-0.260416667,1,0,0,3.7744,Andesite_rect,6,0,6,0,1,
58cab9bfc7ed3f000116e2a4,SCN,2024-06-11_12h20.20.635,LearnStrategy,2023.2.3,Win32,60.60606061,9,2,8,,,,,,,,7,16,,,,,,,,,,,6,2.971,0,,,,,,-0.109375,-0.412760417,1,0,0,2.9715,Pegmatite_rect,7,0,7,0,1,
58cab9bfc7ed3f000116e2a4,SCN,2024-06-11_12h20.20.635,LearnStrategy,2023.2.3,Win32,60.60606061,9,2,9,,,,,,,,3,08,,,,,,,,,,,6,2.42,0,,,,,,-0.09375,-0.388020833,1,0,0,2.4205,Pegmatite_rect,8,0,8,0,1,
58cab9bfc7ed3f000116e2a4,SCN,2024-06-11_12h20.20.635,LearnStrategy,2023.2.3,Win32,60.60606061,9,2,10,,,,,,,,4,09,,,,,,,,,,,5,1.393,0,,,,,,-0.388020833,-0.384114583,1,0,0,1.3932,Obsidian_rect,9,0,9,0,1,
58cab9bfc7ed3f000116e2a4,SCN,2024-06-11_12h20.20.635,LearnStrategy,2023.2.3,Win32,60.60606061,9,2,11,,,,,,,,1,09,,,,,,,,,,,1,3.474,1,,,,,,-0.34375,-0.25,1,0,0,3.4742,Andesite_rect,10,0,10,0,1,
58cab9bfc7ed3f000116e2a4,SCN,2024-06-11_12h20.20.635,LearnStrategy,2023.2.3,Win32,60.60606061,9,2,12,,,,,,,,6,09,,,,,,,,,,,6,1.806,1,,,,,,-0.0625,-0.40234375,1,0,0,1.8056,Pegmatite_rect,11,0,11,0,1,
58cab9bfc7ed3f000116e2a4,SCN,2024-06-11_12h20.20.635,LearnStrategy,2023.2.3,Win32,60.60606061,9,2,13,,,,,,,,5,10,,,,,,,,,,,5,1.039,1,,,,,,-0.380208333,-0.389322917,1,0,0,1.0395,Obsidian_rect,12,0,12,0,1,
58cab9bfc7ed3f000116e2a4,SCN,2024-06-11_12h20.20.635,LearnStrategy,2023.2.3,Win32,60.60606061,9,2,14,,,,,,,,2,08,,,,,,,,,,,4,1.892,0,,,,,,0.37109375,-0.236979167,1,0,0,1.8921,Gabbro_rect,13,0,13,0,1,
58cab9bfc7ed3f000116e2a4,SCN,2024-06-11_12h20.20.635,LearnStrategy,2023.2.3,Win32,60.60606061,9,2,15,,,,,,,,8,14,,,,,,,,,,,8,1.649,1,,,,,,0.346354167,-0.395833333,1,0,0,1.6487,Pumice_rect,14,0,14,0,1,
58cab9bfc7ed3f000116e2a4,SCN,2024-06-11_12h20.20.635,LearnStrategy,2023.2.3,Win32,60.60606061,9,2,16,,,,,,,,6,12,,,,,,,,,,,6,1.291,1,,,,,,-0.084635417,-0.390625,1,0,0,1.2915,Pegmatite_rect,15,0,15,0,1,
58cab9bfc7ed3f000116e2a4,SCN,2024-06-11_12h20.20.635,LearnStrategy,2023.2.3,Win32,60.60606061,,,,,,,,,,,,,,,,,,,,,,,,,,,,,,,,,,,,,,,,,,,0
58cab9bfc7ed3f000116e2a4,SCN,2024-06-11_12h20.20.635,LearnStrategy,2023.2.3,Win32,60.60606061,,,,,,,,,,,,,,,,,,,,,,,,,,,,,,,,,,,,,,,,,,,
58cab9bfc7ed3f000116e2a4,SCN,2024-06-11_12h20.20.635,LearnStrategy,2023.2.3,Win32,60.60606061,,,,,,,,,,,8,03,1,1,,,,,,,,,,,,,,,,,,,,,,,,,,,,,
58cab9bfc7ed3f000116e2a4,SCN,2024-06-11_12h20.20.635,LearnStrategy,2023.2.3,Win32,60.60606061,,,,,,,,,,,3,14,1,2,,,,,,,,,,,,,,,,,,,,,,,,,,,,,
58cab9bfc7ed3f000116e2a4,SCN,2024-06-11_12h20.20.635,LearnStrategy,2023.2.3,Win32,60.60606061,,,,,,,,,,,3,10,1,3,,,,,,,,,,,,,,,,,,,,,,,,,,,,,
58cab9bfc7ed3f000116e2a4,SCN,2024-06-11_12h20.20.635,LearnStrategy,2023.2.3,Win32,60.60606061,,,,,,,,,,,4,05,1,4,,,,,,,,,,,,,,,,,,,,,,,,,,,,,
58cab9bfc7ed3f000116e2a4,SCN,2024-06-11_12h20.20.635,LearnStrategy,2023.2.3,Win32,60.60606061,,,,,,,,,,,2,11,1,5,,,,,,,,,,,,,,,,,,,,,,,,,,,,,
58cab9bfc7ed3f000116e2a4,SCN,2024-06-11_12h20.20.635,LearnStrategy,2023.2.3,Win32,60.60606061,,,,,,,,,,,7,04,1,6,,,,,,,,,,,,,,,,,,,,,,,,,,,,,
58cab9bfc7ed3f000116e2a4,SCN,2024-06-11_12h20.20.635,LearnStrategy,2023.2.3,Win32,60.60606061,,,,,,,,,,,6,03,1,7,,,,,,,,,,,,,,,,,,,,,,,,,,,,,
58cab9bfc7ed3f000116e2a4,SCN,2024-06-11_12h20.20.635,LearnStrategy,2023.2.3,Win32,60.60606061,,,,,,,,,,,5,07,1,8,,,,,,,,,,,,,,,,,,,,,,,,,,,,,
58cab9bfc7ed3f000116e2a4,SCN,2024-06-11_12h20.20.635,LearnStrategy,2023.2.3,Win32,60.60606061,,,,,,,,,,,6,13,2,1,,,,,,,,,,,,,,,,,,,,,,,,,,,,,
58cab9bfc7ed3f000116e2a4,SCN,2024-06-11_12h20.20.635,LearnStrategy,2023.2.3,Win32,60.60606061,,,,,,,,,,,1,11,2,2,,,,,,,,,,,,,,,,,,,,,,,,,,,,,
58cab9bfc7ed3f000116e2a4,SCN,2024-06-11_12h20.20.635,LearnStrategy,2023.2.3,Win32,60.60606061,,,,,,,,,,,6,10,2,3,,,,,,,,,,,,,,,,,,,,,,,,,,,,,
58cab9bfc7ed3f000116e2a4,SCN,2024-06-11_12h20.20.635,LearnStrategy,2023.2.3,Win32,60.60606061,,,,,,,,,,,5,09,2,4,,,,,,,,,,,,,,,,,,,,,,,,,,,,,
58cab9bfc7ed3f000116e2a4,SCN,2024-06-11_12h20.20.635,LearnStrategy,2023.2.3,Win32,60.60606061,,,,,,,,,,,3,09,2,5,,,,,,,,,,,,,,,,,,,,,,,,,,,,,
58cab9bfc7ed3f000116e2a4,SCN,2024-06-11_12h20.20.635,LearnStrategy,2023.2.3,Win32,60.60606061,,,,,,,,,,,1,06,2,6,,,,,,,,,,,,,,,,,,,,,,,,,,,,,
58cab9bfc7ed3f000116e2a4,SCN,2024-06-11_12h20.20.635,LearnStrategy,2023.2.3,Win32,60.60606061,,,,,,,,,,,7,08,2,7,,,,,,,,,,,,,,,,,,,,,,,,,,,,,
58cab9bfc7ed3f000116e2a4,SCN,2024-06-11_12h20.20.635,LearnStrategy,2023.2.3,Win32,60.60606061,,,,,,,,,,,4,03,2,8,,,,,,,,,,,,,,,,,,,,,,,,,,,,,
58cab9bfc7ed3f000116e2a4,SCN,2024-06-11_12h20.20.635,LearnStrategy,2023.2.3,Win32,60.60606061,,,,,,,,,,,2,05,3,1,,,,,,,,,,,,,,,,,,,,,,,,,,,,,
58cab9bfc7ed3f000116e2a4,SCN,2024-06-11_12h20.20.635,LearnStrategy,2023.2.3,Win32,60.60606061,,,,,,,,,,,7,15,3,2,,,,,,,,,,,,,,,,,,,,,,,,,,,,,
58cab9bfc7ed3f000116e2a4,SCN,2024-06-11_12h20.20.635,LearnStrategy,2023.2.3,Win32,60.60606061,,,,,,,,,,,1,04,3,3,,,,,,,,,,,,,,,,,,,,,,,,,,,,,
58cab9bfc7ed3f000116e2a4,SCN,2024-06-11_12h20.20.635,LearnStrategy,2023.2.3,Win32,60.60606061,,,,,,,,,,,1,10,3,4,,,,,,,,,,,,,,,,,,,,,,,,,,,,,
58cab9bfc7ed3f000116e2a4,SCN,2024-06-11_12h20.20.635,LearnStrategy,2023.2.3,Win32,60.60606061,,,,,,,,,,,8,10,3,5,,,,,,,,,,,,,,,,,,,,,,,,,,,,,
58cab9bfc7ed3f000116e2a4,SCN,2024-06-11_12h20.20.635,LearnStrategy,2023.2.3,Win32,60.60606061,,,,,,,,,,,6,06,3,6,,,,,,,,,,,,,,,,,,,,,,,,,,,,,
58cab9bfc7ed3f000116e2a4,SCN,2024-06-11_12h20.20.635,LearnStrategy,2023.2.3,Win32,60.60606061,,,,,,,,,,,1,01,3,7,,,,,,,,,,,,,,,,,,,,,,,,,,,,,
58cab9bfc7ed3f000116e2a4,SCN,2024-06-11_12h20.20.635,LearnStrategy,2023.2.3,Win32,60.60606061,,,,,,,,,,,7,13,3,8,,,,,,,,,,,,,,,,,,,,,,,,,,,,,
58cab9bfc7ed3f000116e2a4,SCN,2024-06-11_12h20.20.635,LearnStrategy,2023.2.3,Win32,60.60606061,,,,,,,,,,,2,09,4,1,,,,,,,,,,,,,,,,,,,,,,,,,,,,,
58cab9bfc7ed3f000116e2a4,SCN,2024-06-11_12h20.20.635,LearnStrategy,2023.2.3,Win32,60.60606061,,,,,,,,,,,2,10,4,2,,,,,,,,,,,,,,,,,,,,,,,,,,,,,
58cab9bfc7ed3f000116e2a4,SCN,2024-06-11_12h20.20.635,LearnStrategy,2023.2.3,Win32,60.60606061,,,,,,,,,,,8,13,4,3,,,,,,,,,,,,,,,,,,,,,,,,,,,,,
58cab9bfc7ed3f000116e2a4,SCN,2024-06-11_12h20.20.635,LearnStrategy,2023.2.3,Win32,60.60606061,,,,,,,,,,,4,13,4,4,,,,,,,,,,,,,,,,,,,,,,,,,,,,,
58cab9bfc7ed3f000116e2a4,SCN,2024-06-11_12h20.20.635,LearnStrategy,2023.2.3,Win32,60.60606061,,,,,,,,,,,8,08,4,5,,,,,,,,,,,,,,,,,,,,,,,,,,,,,
58cab9bfc7ed3f000116e2a4,SCN,2024-06-11_12h20.20.635,LearnStrategy,2023.2.3,Win32,60.60606061,,,,,,,,,,,5,04,4,6,,,,,,,,,,,,,,,,,,,,,,,,,,,,,
58cab9bfc7ed3f000116e2a4,SCN,2024-06-11_12h20.20.635,LearnStrategy,2023.2.3,Win32,60.60606061,,,,,,,,,,,4,11,4,7,,,,,,,,,,,,,,,,,,,,,,,,,,,,,
58cab9bfc7ed3f000116e2a4,SCN,2024-06-11_12h20.20.635,LearnStrategy,2023.2.3,Win32,60.60606061,,,,,,,,,,,6,07,4,8,,,,,,,,,,,,,,,,,,,,,,,,,,,,,
58cab9bfc7ed3f000116e2a4,SCN,2024-06-11_12h20.20.635,LearnStrategy,2023.2.3,Win32,60.60606061,,,,,,,,,,,7,05,5,1,,,,,,,,,,,,,,,,,,,,,,,,,,,,,
58cab9bfc7ed3f000116e2a4,SCN,2024-06-11_12h20.20.635,LearnStrategy,2023.2.3,Win32,60.60606061,,,,,,,,,,,8,16,5,2,,,,,,,,,,,,,,,,,,,,,,,,,,,,,
58cab9bfc7ed3f000116e2a4,SCN,2024-06-11_12h20.20.635,LearnStrategy,2023.2.3,Win32,60.60606061,,,,,,,,,,,5,06,5,3,,,,,,,,,,,,,,,,,,,,,,,,,,,,,
58cab9bfc7ed3f000116e2a4,SCN,2024-06-11_12h20.20.635,LearnStrategy,2023.2.3,Win32,60.60606061,,,,,,,,,,,6,11,5,4,,,,,,,,,,,,,,,,,,,,,,,,,,,,,
58cab9bfc7ed3f000116e2a4,SCN,2024-06-11_12h20.20.635,LearnStrategy,2023.2.3,Win32,60.60606061,,,,,,,,,,,3,06,5,5,,,,,,,,,,,,,,,,,,,,,,,,,,,,,
58cab9bfc7ed3f000116e2a4,SCN,2024-06-11_12h20.20.635,LearnStrategy,2023.2.3,Win32,60.60606061,,,,,,,,,,,3,15,5,6,,,,,,,,,,,,,,,,,,,,,,,,,,,,,
58cab9bfc7ed3f000116e2a4,SCN,2024-06-11_12h20.20.635,LearnStrategy,2023.2.3,Win32,60.60606061,,,,,,,,,,,2,01,5,7,,,,,,,,,,,,,,,,,,,,,,,,,,,,,
58cab9bfc7ed3f000116e2a4,SCN,2024-06-11_12h20.20.635,LearnStrategy,2023.2.3,Win32,60.60606061,,,,,,,,,,,1,05,5,8,,,,,,,,,,,,,,,,,,,,,,,,,,,,,
58cab9bfc7ed3f000116e2a4,SCN,2024-06-11_12h20.20.635,LearnStrategy,2023.2.3,Win32,60.60606061,,,,,,,,,,,7,12,6,1,,,,,,,,,,,,,,,,,,,,,,,,,,,,,
58cab9bfc7ed3f000116e2a4,SCN,2024-06-11_12h20.20.635,LearnStrategy,2023.2.3,Win32,60.60606061,,,,,,,,,,,5,16,6,2,,,,,,,,,,,,,,,,,,,,,,,,,,,,,
58cab9bfc7ed3f000116e2a4,SCN,2024-06-11_12h20.20.635,LearnStrategy,2023.2.3,Win32,60.60606061,,,,,,,,,,,2,14,6,3,,,,,,,,,,,,,,,,,,,,,,,,,,,,,
58cab9bfc7ed3f000116e2a4,SCN,2024-06-11_12h20.20.635,LearnStrategy,2023.2.3,Win32,60.60606061,,,,,,,,,,,5,02,6,4,,,,,,,,,,,,,,,,,,,,,,,,,,,,,
58cab9bfc7ed3f000116e2a4,SCN,2024-06-11_12h20.20.635,LearnStrategy,2023.2.3,Win32,60.60606061,,,,,,,,,,,4,10,6,5,,,,,,,,,,,,,,,,,,,,,,,,,,,,,
58cab9bfc7ed3f000116e2a4,SCN,2024-06-11_12h20.20.635,LearnStrategy,2023.2.3,Win32,60.60606061,,,,,,,,,,,4,14,6,6,,,,,,,,,,,,,,,,,,,,,,,,,,,,,
58cab9bfc7ed3f000116e2a4,SCN,2024-06-11_12h20.20.635,LearnStrategy,2023.2.3,Win32,60.60606061,,,,,,,,,,,8,02,6,7,,,,,,,,,,,,,,,,,,,,,,,,,,,,,
58cab9bfc7ed3f000116e2a4,SCN,2024-06-11_12h20.20.635,LearnStrategy,2023.2.3,Win32,60.60606061,,,,,,,,,,,3,12,6,8,,,,,,,,,,,,,,,,,,,,,,,,,,,,,