participant,condition,date,expName,psychopyVersion,OS,frameRate,block,phase,trial,learn_mouse.x,learn_mouse.y,learn_mouse.leftButton,learn_mouse.midButton,learn_mouse.rightButton,learn_mouse.time,learn_mouse.clicked_name,cat,token,row,col,t_select,cat_mouse_l.x,cat_mouse_l.y,cat_mouse_l.leftButton,cat_mouse_l.midButton,cat_mouse_l.rightButton,cat_mouse_l.time,cat_mouse_l.clicked_name,resp,t_resp,corr,train_trials.thisRepN,train_trials.thisTrialN,train_trials.thisN,train_trials.thisIndex,train_trials.ran,cat_mouse_t.x,cat_mouse_t.y,cat_mouse_t.leftButton,cat_mouse_t.midButton,cat_mouse_t.rightButton,cat_mouse_t.time,cat_mouse_t.clicked_name,test_trials.thisRepN,test_trials.thisTrialN,test_trials.thisN,test_trials.thisIndex,test_trials.ran,Bonus
58d4c4c287b2420001263b6a,SCN,2024-06-24_14h35.20.133,LearnStrategy,2023.2.3,Win32,59.52380952,,,,,,,,,,,,,,,,,,,,,,,,,,,,,,,,,,,,,,,,,,,
58d4c4c287b2420001263b6a,SCN,2024-06-24_14h35.20.133,LearnStrategy,2023.2.3,Win32,59.52380952,1,1,1,0.536111196,0.222222222,1,0,0,9.1634,Pegmatite_10,6,10,5,8,9.163,-0.333333333,-0.259259259,1,0,0,16.4281,Andesite_rect,1,16.428,0,0,0,0,0,1,,,,,,,,,,,,,
58d4c4c287b2420001263b6a,SCN,2024-06-24_14h35.20.133,LearnStrategy,2023.2.3,Win32,59.52380952,1,1,2,-0.216666681,0.081481474,1,0,0,5.4604,Peridotite_13,7,13,4,3,5.46,-0.051851838,-0.412037037,1,0,0,14.5143,Pegmatite_rect,6,14.514,0,1,0,1,0,1,,,,,,,,,,,,,
58d4c4c287b2420001263b6a,SCN,2024-06-24_14h35.20.133,LearnStrategy,2023.2.3,Win32,59.52380952,1,1,3,-0.060185185,0.072222215,1,0,0,7.9816,Obsidian_12,5,12,4,4,7.982,-0.337037016,-0.391666695,1,0,0,3.9446,Obsidian_rect,5,3.945,1,2,0,2,0,1,,,,,,,,,,,,,
58d4c4c287b2420001263b6a,SCN,2024-06-24_14h35.20.133,LearnStrategy,2023.2.3,Win32,59.52380952,1,1,4,0.542592649,-0.262037065,1,0,0,7.9947,Obsidian_16,5,16,2,8,7.995,-0.452777757,-0.387962977,1,0,0,7.0406,Obsidian_rect,5,7.041,1,3,0,3,0,1,,,,,,,,,,,,,
58d4c4c287b2420001263b6a,SCN,2024-06-24_14h35.20.133,LearnStrategy,2023.2.3,Win32,59.52380952,1,1,5,-0.556481467,-0.10555557,1,0,0,8.964,Pegmatite_11,6,11,3,1,8.964,0.15370369,-0.252777806,1,0,0,12.42,Diorite_rect,3,12.42,0,4,0,4,0,1,,,,,,,,,,,,,
58d4c4c287b2420001263b6a,SCN,2024-06-24_14h35.20.133,LearnStrategy,2023.2.3,Win32,59.52380952,1,1,6,0.256481524,-0.122222265,1,0,0,9.4943,Obsidian_07,5,07,3,6,9.494,-0.351851852,-0.246296282,1,0,0,13.4054,Andesite_rect,1,13.405,0,5,0,5,0,1,,,,,,,,,,,,,
58d4c4c287b2420001263b6a,SCN,2024-06-24_14h35.20.133,LearnStrategy,2023.2.3,Win32,59.52380952,1,1,7,-0.407407407,-0.104629658,1,0,0,7.1727,Pegmatite_13,6,13,3,2,7.173,-0.137036995,-0.402777778,1,0,0,4.2954,Pegmatite_rect,6,4.295,1,6,0,6,0,1,,,,,,,,,,,,,
58d4c4c287b2420001263b6a,SCN,2024-06-24_14h35.20.133,LearnStrategy,2023.2.3,Win32,59.52380952,1,1,8,-0.05277775,0.415740737,1,0,0,2.7994,Pegmatite_16,6,16,6,4,2.799,-0.157407407,-0.39444443,1,0,0,4.3551,Pegmatite_rect,6,4.355,1,7,0,7,0,1,,,,,,,,,,,,,
58d4c4c287b2420001263b6a,SCN,2024-06-24_14h35.20.133,LearnStrategy,2023.2.3,Win32,59.52380952,1,1,9,-0.23055557,0.400925928,1,0,0,4.2336,Basalt_02,2,02,6,3,4.234,0.432407379,-0.396296325,1,0,0,4.1973,Pumice_rect,8,4.197,0,8,0,8,0,1,,,,,,,,,,,,,
58d4c4c287b2420001263b6a,SCN,2024-06-24_14h35.20.133,LearnStrategy,2023.2.3,Win32,59.52380952,1,1,10,-0.224074046,-0.259259259,1,0,0,5.659,Basalt_08,2,08,2,3,5.659,-0.180555556,-0.258333347,1,0,0,1.916,Basalt_rect,2,1.916,1,9,0,9,0,1,,,,,,,,,,,,,
58d4c4c287b2420001263b6a,SCN,2024-06-24_14h35.20.133,LearnStrategy,2023.2.3,Win32,59.52380952,1,1,11,-0.549999979,-0.26944443,1,0,0,3.5948,Basalt_05,2,05,2,1,3.595,-0.200925898,-0.234259288,1,0,0,11.2696,Basalt_rect,2,11.27,1,10,0,10,0,1,,,,,,,,,,,,,
58d4c4c287b2420001263b6a,SCN,2024-06-24_14h35.20.133,LearnStrategy,2023.2.3,Win32,59.52380952,1,1,12,0.106481481,-0.115740741,1,0,0,1.9124,Pumice_04,8,04,3,5,1.912,0.32685188,-0.388888889,1,0,0,1.8238,Pumice_rect,8,1.824,1,11,0,11,0,1,,,,,,,,,,,,,
58d4c4c287b2420001263b6a,SCN,2024-06-24_14h35.20.133,LearnStrategy,2023.2.3,Win32,59.52380952,1,1,13,0.519444501,-0.125,1,0,0,3.3278,Diorite_06,3,06,3,8,3.328,0.386111083,-0.241666653,1,0,0,5.7961,Gabbro_rect,4,5.796,0,12,0,12,0,1,,,,,,,,,,,,,
58d4c4c287b2420001263b6a,SCN,2024-06-24_14h35.20.133,LearnStrategy,2023.2.3,Win32,59.52380952,1,1,14,-0.070370356,-0.262037065,1,0,0,2.0971,Diorite_09,3,09,2,4,2.097,0.148148148,-0.252777806,1,0,0,1.6125,Diorite_rect,3,1.613,1,13,0,13,0,1,,,,,,,,,,,,,
58d4c4c287b2420001263b6a,SCN,2024-06-24_14h35.20.133,LearnStrategy,2023.2.3,Win32,59.52380952,1,1,15,-0.380555541,-0.267592607,1,0,0,2.4617,Peridotite_10,7,10,2,2,2.462,-0.128703718,-0.406481496,1,0,0,5.9782,Pegmatite_rect,6,5.978,0,14,0,14,0,1,,,,,,,,,,,,,
58d4c4c287b2420001263b6a,SCN,2024-06-24_14h35.20.133,LearnStrategy,2023.2.3,Win32,59.52380952,1,1,16,0.381481453,-0.102777764,1,0,0,3.8602,Peridotite_08,7,08,3,7,3.86,0.102777764,-0.396296325,1,0,0,5.6588,Peridotite_rect,7,5.659,1,15,0,15,0,1,,,,,,,,,,,,,
58d4c4c287b2420001263b6a,SCN,2024-06-24_14h35.20.133,LearnStrategy,2023.2.3,Win32,59.52380952,1,2,1,,,,,,,,4,05,,,,,,,,,,,7,13.899,0,,,,,,0.125,-0.395370413,1,0,0,13.899,Peridotite_rect,0,0,0,0,1,
58d4c4c287b2420001263b6a,SCN,2024-06-24_14h35.20.133,LearnStrategy,2023.2.3,Win32,59.52380952,1,2,2,,,,,,,,2,16,,,,,,,,,,,2,8.88,1,,,,,,-0.112037023,-0.261111153,1,0,0,8.8801,Basalt_rect,1,0,1,0,1,
58d4c4c287b2420001263b6a,SCN,2024-06-24_14h35.20.133,LearnStrategy,2023.2.3,Win32,59.52380952,1,2,3,,,,,,,,5,05,,,,,,,,,,,5,2.724,1,,,,,,-0.438888868,-0.398148148,1,0,0,2.7238,Obsidian_rect,2,0,2,0,1,
58d4c4c287b2420001263b6a,SCN,2024-06-24_14h35.20.133,LearnStrategy,2023.2.3,Win32,59.52380952,1,2,4,,,,,,,,4,11,,,,,,,,,,,2,10.556,0,,,,,,-0.078703704,-0.25,1,0,0,10.5558,Basalt_rect,3,0,3,0,1,
58d4c4c287b2420001263b6a,SCN,2024-06-24_14h35.20.133,LearnStrategy,2023.2.3,Win32,59.52380952,1,2,5,,,,,,,,7,04,,,,,,,,,,,6,3.666,0,,,,,,-0.085185157,-0.400925954,1,0,0,3.666,Pegmatite_rect,4,0,4,0,1,
58d4c4c287b2420001263b6a,SCN,2024-06-24_14h35.20.133,LearnStrategy,2023.2.3,Win32,59.52380952,1,2,6,,,,,,,,6,09,,,,,,,,,,,6,4.561,1,,,,,,-0.085185157,-0.400925954,1,0,0,4.5607,Pegmatite_rect,5,0,5,0,1,
58d4c4c287b2420001263b6a,SCN,2024-06-24_14h35.20.133,LearnStrategy,2023.2.3,Win32,59.52380952,1,2,7,,,,,,,,3,11,,,,,,,,,,,7,12.464,0,,,,,,0.097222222,-0.39444443,1,0,0,12.4637,Peridotite_rect,6,0,6,0,1,
58d4c4c287b2420001263b6a,SCN,2024-06-24_14h35.20.133,LearnStrategy,2023.2.3,Win32,59.52380952,1,2,8,,,,,,,,8,02,,,,,,,,,,,8,1.782,1,,,,,,0.368518547,-0.400925954,1,0,0,1.7825,Pumice_rect,7,0,7,0,1,
58d4c4c287b2420001263b6a,SCN,2024-06-24_14h35.20.133,LearnStrategy,2023.2.3,Win32,59.52380952,1,2,9,,,,,,,,2,06,,,,,,,,,,,2,1.685,1,,,,,,-0.12962963,-0.257407436,1,0,0,1.6848,Basalt_rect,8,0,8,0,1,
58d4c4c287b2420001263b6a,SCN,2024-06-24_14h35.20.133,LearnStrategy,2023.2.3,Win32,59.52380952,1,2,10,,,,,,,,8,13,,,,,,,,,,,8,6.528,1,,,,,,0.372222194,-0.402777778,1,0,0,6.5277,Pumice_rect,9,0,9,0,1,
58d4c4c287b2420001263b6a,SCN,2024-06-24_14h35.20.133,LearnStrategy,2023.2.3,Win32,59.52380952,1,2,11,,,,,,,,1,09,,,,,,,,,,,2,2.215,0,,,,,,-0.094444416,-0.266666695,1,0,0,2.215,Basalt_rect,10,0,10,0,1,
58d4c4c287b2420001263b6a,SCN,2024-06-24_14h35.20.133,LearnStrategy,2023.2.3,Win32,59.52380952,1,2,12,,,,,,,,7,12,,,,,,,,,,,7,5.255,1,,,,,,0.130555541,-0.406481496,1,0,0,5.2548,Peridotite_rect,11,0,11,0,1,
58d4c4c287b2420001263b6a,SCN,2024-06-24_14h35.20.133,LearnStrategy,2023.2.3,Win32,59.52380952,1,2,13,,,,,,,,5,08,,,,,,,,,,,5,2.127,1,,,,,,-0.340740734,-0.402777778,1,0,0,2.1273,Obsidian_rect,12,0,12,0,1,
58d4c4c287b2420001263b6a,SCN,2024-06-24_14h35.20.133,LearnStrategy,2023.2.3,Win32,59.52380952,1,2,14,,,,,,,,6,06,,,,,,,,,,,6,4.176,1,,,,,,-0.147222236,-0.392592607,1,0,0,4.1761,Pegmatite_rect,13,0,13,0,1,
58d4c4c287b2420001263b6a,SCN,2024-06-24_14h35.20.133,LearnStrategy,2023.2.3,Win32,59.52380952,1,2,15,,,,,,,,1,07,,,,,,,,,,,2,4.929,0,,,,,,-0.165740755,-0.249074088,1,0,0,4.9294,Basalt_rect,14,0,14,0,1,
58d4c4c287b2420001263b6a,SCN,2024-06-24_14h35.20.133,LearnStrategy,2023.2.3,Win32,59.52380952,1,2,16,,,,,,,,3,02,,,,,,,,,,,2,5.373,0,,,,,,-0.165740755,-0.249074088,1,0,0,5.373,Basalt_rect,15,0,15,0,1,
58d4c4c287b2420001263b6a,SCN,2024-06-24_14h35.20.133,LearnStrategy,2023.2.3,Win32,59.52380952,2,1,1,-0.51666666,0.229629623,1,0,0,4.594,Pegmatite_05,6,05,5,1,4.594,-0.119444459,-0.392592607,1,0,0,9.4477,Pegmatite_rect,6,9.448,1,0,0,0,0,1,,,,,,,,,,,,,
58d4c4c287b2420001263b6a,SCN,2024-06-24_14h35.20.133,LearnStrategy,2023.2.3,Win32,59.52380952,2,1,2,-0.568518497,0.405555557,1,0,0,2.043,Andesite_04,1,04,6,1,2.043,0.079629616,-0.416666667,1,0,0,7.0765,Peridotite_rect,7,7.077,0,1,0,1,0,1,,,,,,,,,,,,,
58d4c4c287b2420001263b6a,SCN,2024-06-24_14h35.20.133,LearnStrategy,2023.2.3,Win32,59.52380952,2,1,3,-0.3675926,0.37314815,1,0,0,4.361,Diorite_16,3,16,6,2,4.361,-0.09629631,-0.242592635,1,0,0,4.3219,Basalt_rect,2,4.322,0,2,0,2,0,1,,,,,,,,,,,,,
58d4c4c287b2420001263b6a,SCN,2024-06-24_14h35.20.133,LearnStrategy,2023.2.3,Win32,59.52380952,2,1,4,0.071296339,0.402777778,1,0,0,4.4616,Gabbro_09,4,09,6,5,4.462,-0.092592593,-0.232407393,1,0,0,5.5829,Basalt_rect,2,5.583,0,3,0,3,0,1,,,,,,,,,,,,,
58d4c4c287b2420001263b6a,SCN,2024-06-24_14h35.20.133,LearnStrategy,2023.2.3,Win32,59.52380952,2,1,5,0.23055557,0.412037037,1,0,0,1.8718,Pumice_16,8,16,6,6,1.872,0.342592593,-0.415740755,1,0,0,1.4864,Pumice_rect,8,1.486,1,4,0,4,0,1,,,,,,,,,,,,,
58d4c4c287b2420001263b6a,SCN,2024-06-24_14h35.20.133,LearnStrategy,2023.2.3,Win32,59.52380952,2,1,6,0.419444473,0.403703698,1,0,0,2.0978,Gabbro_10,4,10,6,7,2.098,-0.10555557,-0.251851894,1,0,0,4.8532,Basalt_rect,2,4.853,0,5,0,5,0,1,,,,,,,,,,,,,
58d4c4c287b2420001263b6a,SCN,2024-06-24_14h35.20.133,LearnStrategy,2023.2.3,Win32,59.52380952,2,1,7,0.537963019,0.396296298,1,0,0,1.5938,Basalt_10,2,10,6,8,1.594,0.124074088,-0.267592607,1,0,0,10.7057,Diorite_rect,3,10.706,0,6,0,6,0,1,,,,,,,,,,,,,
58d4c4c287b2420001263b6a,SCN,2024-06-24_14h35.20.133,LearnStrategy,2023.2.3,Win32,59.52380952,2,1,8,-0.414814808,0.232407411,1,0,0,3.0792,Andesite_02,1,02,5,2,3.079,-0.331481474,-0.237963005,1,0,0,6.2418,Andesite_rect,1,6.242,1,7,0,7,0,1,,,,,,,,,,,,,
58d4c4c287b2420001263b6a,SCN,2024-06-24_14h35.20.133,LearnStrategy,2023.2.3,Win32,59.52380952,2,1,9,-0.194444444,0.215740734,1,0,0,2.4776,Gabbro_03,4,03,5,3,2.478,-0.148148148,-0.271296325,1,0,0,1.8321,Basalt_rect,2,1.832,0,8,0,8,0,1,,,,,,,,,,,,,
58d4c4c287b2420001263b6a,SCN,2024-06-24_14h35.20.133,LearnStrategy,2023.2.3,Win32,59.52380952,2,1,10,-0.04351849,0.218518522,1,0,0,2.17,Obsidian_09,5,09,5,4,2.17,-0.326851845,-0.398148148,1,0,0,3.5793,Obsidian_rect,5,3.579,1,9,0,9,0,1,,,,,,,,,,,,,
58d4c4c287b2420001263b6a,SCN,2024-06-24_14h35.20.133,LearnStrategy,2023.2.3,Win32,59.52380952,2,1,11,0.547222279,0.240740741,1,0,0,9.082,Pegmatite_10,6,10,5,8,9.082,-0.081481439,-0.395370413,1,0,0,2.5431,Pegmatite_rect,6,2.543,1,10,0,10,0,1,,,,,,,,,,,,,
58d4c4c287b2420001263b6a,SCN,2024-06-24_14h35.20.133,LearnStrategy,2023.2.3,Win32,59.52380952,2,1,12,-0.102777764,-0.103703746,1,0,0,4.775,Peridotite_14,7,14,3,4,4.775,0.121296282,-0.384259259,1,0,0,3.9728,Peridotite_rect,7,3.973,1,11,0,11,0,1,,,,,,,,,,,,,
58d4c4c287b2420001263b6a,SCN,2024-06-24_14h35.20.133,LearnStrategy,2023.2.3,Win32,59.52380952,2,1,13,-0.546296296,-0.444444444,1,0,0,3.8173,Andesite_16,1,16,1,1,3.817,-0.321296303,-0.250925912,1,0,0,4.9069,Andesite_rect,1,4.907,1,12,0,12,0,1,,,,,,,,,,,,,
58d4c4c287b2420001263b6a,SCN,2024-06-24_14h35.20.133,LearnStrategy,2023.2.3,Win32,59.52380952,2,1,14,0.361111111,-0.264814801,1,0,0,2.9742,Pumice_14,8,14,2,7,2.974,0.412037037,-0.380555541,1,0,0,1.5537,Pumice_rect,8,1.554,1,13,0,13,0,1,,,,,,,,,,,,,
58d4c4c287b2420001263b6a,SCN,2024-06-24_14h35.20.133,LearnStrategy,2023.2.3,Win32,59.52380952,2,1,15,-0.268518519,-0.275925954,1,0,0,2.1957,Basalt_08,2,08,2,3,2.196,-0.213888875,-0.234259288,1,0,0,2.5635,Basalt_rect,2,2.564,1,14,0,14,0,1,,,,,,,,,,,,,
58d4c4c287b2420001263b6a,SCN,2024-06-24_14h35.20.133,LearnStrategy,2023.2.3,Win32,59.52380952,2,1,16,-0.256481453,-0.392592607,1,0,0,6.9501,Diorite_13,3,13,1,3,6.95,0.341666751,-0.261111153,1,0,0,4.6877,Gabbro_rect,4,4.688,0,15,0,15,0,1,,,,,,,,,,,,,
58d4c4c287b2420001263b6a,SCN,2024-06-24_14h35.20.133,LearnStrategy,2023.2.3,Win32,59.52380952,2,2,1,,,,,,,,8,06,,,,,,,,,,,8,2.616,1,,,,,,0.424074102,-0.400000042,1,0,0,2.6158,Pumice_rect,0,0,0,0,1,
58d4c4c287b2420001263b6a,SCN,2024-06-24_14h35.20.133,LearnStrategy,2023.2.3,Win32,59.52380952,2,2,2,,,,,,,,5,06,,,,,,,,,,,5,2.074,1,,,,,,-0.35833334,-0.398148148,1,0,0,2.0743,Obsidian_rect,1,0,1,0,1,
58d4c4c287b2420001263b6a,SCN,2024-06-24_14h35.20.133,LearnStrategy,2023.2.3,Win32,59.52380952,2,2,3,,,,,,,,3,07,,,,,,,,,,,3,4.037,1,,,,,,0.10092594,-0.250925912,1,0,0,4.0368,Diorite_rect,2,0,2,0,1,
58d4c4c287b2420001263b6a,SCN,2024-06-24_14h35.20.133,LearnStrategy,2023.2.3,Win32,59.52380952,2,2,4,,,,,,,,6,15,,,,,,,,,,,6,4.049,1,,,,,,-0.157407407,-0.400000042,1,0,0,4.049,Pegmatite_rect,3,0,3,0,1,
58d4c4c287b2420001263b6a,SCN,2024-06-24_14h35.20.133,LearnStrategy,2023.2.3,Win32,59.52380952,2,2,5,,,,,,,,6,12,,,,,,,,,,,5,8.413,0,,,,,,-0.360185164,-0.401851866,1,0,0,8.4125,Obsidian_rect,4,0,4,0,1,
58d4c4c287b2420001263b6a,SCN,2024-06-24_14h35.20.133,LearnStrategy,2023.2.3,Win32,59.52380952,2,2,6,,,,,,,,1,10,,,,,,,,,,,8,1.465,0,,,,,,0.369444529,-0.397222236,1,0,0,1.4649,Pumice_rect,5,0,5,0,1,
58d4c4c287b2420001263b6a,SCN,2024-06-24_14h35.20.133,LearnStrategy,2023.2.3,Win32,59.52380952,2,2,7,,,,,,,,2,01,,,,,,,,,,,2,1.159,1,,,,,,-0.171296296,-0.261111153,1,0,0,1.1588,Basalt_rect,6,0,6,0,1,
58d4c4c287b2420001263b6a,SCN,2024-06-24_14h35.20.133,LearnStrategy,2023.2.3,Win32,59.52380952,2,2,8,,,,,,,,7,16,,,,,,,,,,,7,4.633,1,,,,,,0.092592593,-0.412037037,1,0,0,4.6334,Peridotite_rect,7,0,7,0,1,
58d4c4c287b2420001263b6a,SCN,2024-06-24_14h35.20.133,LearnStrategy,2023.2.3,Win32,59.52380952,2,2,9,,,,,,,,4,01,,,,,,,,,,,1,10.46,0,,,,,,-0.341666645,-0.256481524,1,0,0,10.4602,Andesite_rect,8,0,8,0,1,
58d4c4c287b2420001263b6a,SCN,2024-06-24_14h35.20.133,LearnStrategy,2023.2.3,Win32,59.52380952,2,2,10,,,,,,,,2,04,,,,,,,,,,,2,2.005,1,,,,,,-0.151851866,-0.271296325,1,0,0,2.0053,Basalt_rect,9,0,9,0,1,
58d4c4c287b2420001263b6a,SCN,2024-06-24_14h35.20.133,LearnStrategy,2023.2.3,Win32,59.52380952,2,2,11,,,,,,,,5,04,,,,,,,,,,,5,1.533,1,,,,,,-0.378703683,-0.380555541,1,0,0,1.5328,Obsidian_rect,10,0,10,0,1,
58d4c4c287b2420001263b6a,SCN,2024-06-24_14h35.20.133,LearnStrategy,2023.2.3,Win32,59.52380952,2,2,12,,,,,,,,3,08,,,,,,,,,,,3,7.127,1,,,,,,0.146296325,-0.257407436,1,0,0,7.1269,Diorite_rect,11,0,11,0,1,
58d4c4c287b2420001263b6a,SCN,2024-06-24_14h35.20.133,LearnStrategy,2023.2.3,Win32,59.52380952,2,2,13,,,,,,,,4,12,,,,,,,,,,,2,1.357,0,,,,,,-0.089814787,-0.247222265,1,0,0,1.3574,Basalt_rect,12,0,12,0,1,
58d4c4c287b2420001263b6a,SCN,2024-06-24_14h35.20.133,LearnStrategy,2023.2.3,Win32,59.52380952,2,2,14,,,,,,,,1,11,,,,,,,,,,,4,9.781,0,,,,,,0.449074074,-0.255555541,1,0,0,9.7812,Gabbro_rect,13,0,13,0,1,
58d4c4c287b2420001263b6a,SCN,2024-06-24_14h35.20.133,LearnStrategy,2023.2.3,Win32,59.52380952,2,2,15,,,,,,,,8,03,,,,,,,,,,,8,1.475,1,,,,,,0.462037122,-0.400925954,1,0,0,1.475,Pumice_rect,14,0,14,0,1,
58d4c4c287b2420001263b6a,SCN,2024-06-24_14h35.20.133,LearnStrategy,2023.2.3,Win32,59.52380952,2,2,16,,,,,,,,7,05,,,,,,,,,,,2,5.345,0,,,,,,-0.136111083,-0.253703718,1,0,0,5.345,Basalt_rect,15,0,15,0,1,
58d4c4c287b2420001263b6a,SCN,2024-06-24_14h35.20.133,LearnStrategy,2023.2.3,Win32,59.52380952,3,1,1,-0.548148155,-0.409259302,1,0,0,3.4764,Andesite_16,1,16,1,1,3.476,0.074074074,-0.252777806,1,0,0,6.6547,Diorite_rect,3,6.655,0,0,0,0,0,1,,,,,,,,,,,,,
58d4c4c287b2420001263b6a,SCN,2024-06-24_14h35.20.133,LearnStrategy,2023.2.3,Win32,59.52380952,3,1,2,-0.429629608,-0.424074102,1,0,0,1.7042,Andesite_14,1,14,1,2,1.704,-0.402777778,-0.270370413,1,0,0,2.8679,Andesite_rect,1,2.868,1,1,0,1,0,1,,,,,,,,,,,,,
58d4c4c287b2420001263b6a,SCN,2024-06-24_14h35.20.133,LearnStrategy,2023.2.3,Win32,59.52380952,3,1,3,-0.235185199,-0.385185171,1,0,0,2.3743,Diorite_13,3,13,1,3,2.374,-0.334259245,-0.257407436,1,0,0,3.9106,Andesite_rect,1,3.911,0,2,0,2,0,1,,,,,,,,,,,,,
58d4c4c287b2420001263b6a,SCN,2024-06-24_14h35.20.133,LearnStrategy,2023.2.3,Win32,59.52380952,3,1,4,-0.058333291,-0.413888931,1,0,0,2.0638,Peridotite_02,7,02,1,4,2.064,0.145370413,-0.407407407,1,0,0,2.2453,Peridotite_rect,7,2.245,1,3,0,3,0,1,,,,,,,,,,,,,
58d4c4c287b2420001263b6a,SCN,2024-06-24_14h35.20.133,LearnStrategy,2023.2.3,Win32,59.52380952,3,1,5,0.087037051,-0.429629644,1,0,0,1.3938,Basalt_14,2,14,1,5,1.394,0.356481481,-0.386111153,1,0,0,5.5785,Pumice_rect,8,5.579,0,4,0,4,0,1,,,,,,,,,,,,,
58d4c4c287b2420001263b6a,SCN,2024-06-24_14h35.20.133,LearnStrategy,2023.2.3,Win32,59.52380952,3,1,6,0.402777778,-0.271296325,1,0,0,3.2294,Pumice_14,8,14,2,7,3.229,0.411111196,-0.393518519,1,0,0,1.2408,Pumice_rect,8,1.241,1,5,0,5,0,1,,,,,,,,,,,,,
58d4c4c287b2420001263b6a,SCN,2024-06-24_14h35.20.133,LearnStrategy,2023.2.3,Win32,59.52380952,3,1,7,0.219444487,-0.268518519,1,0,0,1.8792,Andesite_01,1,01,2,6,1.879,0.147222236,-0.260185171,1,0,0,7.1572,Diorite_rect,3,7.157,0,6,0,6,0,1,,,,,,,,,,,,,
58d4c4c287b2420001263b6a,SCN,2024-06-24_14h35.20.133,LearnStrategy,2023.2.3,Win32,59.52380952,3,1,8,0.055555556,-0.253703718,1,0,0,4.2094,Gabbro_13,4,13,2,5,4.209,0.312037009,-0.246296282,1,0,0,4.0429,Gabbro_rect,4,4.043,1,7,0,7,0,1,,,,,,,,,,,,,
58d4c4c287b2420001263b6a,SCN,2024-06-24_14h35.20.133,LearnStrategy,2023.2.3,Win32,59.52380952,3,1,9,-0.363888882,-0.236111111,1,0,0,3.3215,Peridotite_10,7,10,2,2,3.322,0.107407393,-0.40370369,1,0,0,3.2237,Peridotite_rect,7,3.224,1,8,0,8,0,1,,,,,,,,,,,,,
58d4c4c287b2420001263b6a,SCN,2024-06-24_14h35.20.133,LearnStrategy,2023.2.3,Win32,59.52380952,3,1,10,-0.378703683,-0.117592635,1,0,0,4.077,Pegmatite_13,6,13,3,2,4.077,-0.163888861,-0.402777778,1,0,0,2.0689,Pegmatite_rect,6,2.069,1,9,0,9,0,1,,,,,,,,,,,,,
58d4c4c287b2420001263b6a,SCN,2024-06-24_14h35.20.133,LearnStrategy,2023.2.3,Win32,59.52380952,3,1,11,0.37037037,-0.089814822,1,0,0,2.8959,Peridotite_08,7,08,3,7,2.896,0.183333362,-0.414814843,1,0,0,2.0302,Peridotite_rect,7,2.03,1,10,0,10,0,1,,,,,,,,,,,,,
58d4c4c287b2420001263b6a,SCN,2024-06-24_14h35.20.133,LearnStrategy,2023.2.3,Win32,59.52380952,3,1,12,-0.06759255,-0.106481481,1,0,0,1.5475,Peridotite_14,7,14,3,4,1.547,0.140740783,-0.256481524,1,0,0,4.9183,Diorite_rect,3,4.918,0,11,0,11,0,1,,,,,,,,,,,,,
58d4c4c287b2420001263b6a,SCN,2024-06-24_14h35.20.133,LearnStrategy,2023.2.3,Win32,59.52380952,3,1,13,-0.219444416,0.073148127,1,0,0,2.3689,Peridotite_13,7,13,4,3,2.369,-0.14907406,-0.401851866,1,0,0,3.0641,Pegmatite_rect,6,3.064,0,12,0,12,0,1,,,,,,,,,,,,,
58d4c4c287b2420001263b6a,SCN,2024-06-24_14h35.20.133,LearnStrategy,2023.2.3,Win32,59.52380952,3,1,14,0.509259259,0.082407386,1,0,0,3.3286,Diorite_12,3,12,4,8,3.329,-0.332407386,-0.246296282,1,0,0,7.1928,Andesite_rect,1,7.193,0,13,0,13,0,1,,,,,,,,,,,,,
58d4c4c287b2420001263b6a,SCN,2024-06-24_14h35.20.133,LearnStrategy,2023.2.3,Win32,59.52380952,3,1,15,0.562037009,0.091666645,1,0,0,4.8256,Diorite_12,3,12,4,8,4.826,0.162037037,-0.241666653,1,0,0,1.726,Diorite_rect,3,1.726,1,14,0,14,0,1,,,,,,,,,,,,,
58d4c4c287b2420001263b6a,SCN,2024-06-24_14h35.20.133,LearnStrategy,2023.2.3,Win32,59.52380952,3,1,16,0.067592621,0.133333312,1,0,0,2.022,Basalt_09,2,09,4,5,2.022,-0.068518533,-0.239814829,1,0,0,1.1634,Basalt_rect,2,1.163,1,15,0,15,0,1,,,,,,,,,,,,,
58d4c4c287b2420001263b6a,SCN,2024-06-24_14h35.20.133,LearnStrategy,2023.2.3,Win32,59.52380952,3,2,1,,,,,,,,4,15,,,,,,,,,,,4,2.747,1,,,,,,0.373148176,-0.24537037,1,0,0,2.7474,Gabbro_rect,0,0,0,0,1,
58d4c4c287b2420001263b6a,SCN,2024-06-24_14h35.20.133,LearnStrategy,2023.2.3,Win32,59.52380952,3,2,2,,,,,,,,5,10,,,,,,,,,,,5,1.85,1,,,,,,-0.324999986,-0.39444443,1,0,0,1.8498,Obsidian_rect,1,0,1,0,1,
58d4c4c287b2420001263b6a,SCN,2024-06-24_14h35.20.133,LearnStrategy,2023.2.3,Win32,59.52380952,3,2,3,,,,,,,,2,11,,,,,,,,,,,8,9.248,0,,,,,,0.366666723,-0.401851866,1,0,0,9.2482,Pumice_rect,2,0,2,0,1,
58d4c4c287b2420001263b6a,SCN,2024-06-24_14h35.20.133,LearnStrategy,2023.2.3,Win32,59.52380952,3,2,4,,,,,,,,8,09,,,,,,,,,,,8,1.333,1,,,,,,0.440740797,-0.381481524,1,0,0,1.3333,Pumice_rect,3,0,3,0,1,
58d4c4c287b2420001263b6a,SCN,2024-06-24_14h35.20.133,LearnStrategy,2023.2.3,Win32,59.52380952,3,2,5,,,,,,,,8,08,,,,,,,,,,,8,6.502,1,,,,,,0.362962935,-0.39907406,1,0,0,6.5021,Pumice_rect,4,0,4,0,1,
58d4c4c287b2420001263b6a,SCN,2024-06-24_14h35.20.133,LearnStrategy,2023.2.3,Win32,59.52380952,3,2,6,,,,,,,,7,06,,,,,,,,,,,6,4.578,0,,,,,,-0.10092594,-0.414814843,1,0,0,4.5783,Pegmatite_rect,5,0,5,0,1,
58d4c4c287b2420001263b6a,SCN,2024-06-24_14h35.20.133,LearnStrategy,2023.2.3,Win32,59.52380952,3,2,7,,,,,,,,5,11,,,,,,,,,,,5,1.65,1,,,,,,-0.354629623,-0.395370413,1,0,0,1.6502,Obsidian_rect,6,0,6,0,1,
58d4c4c287b2420001263b6a,SCN,2024-06-24_14h35.20.133,LearnStrategy,2023.2.3,Win32,59.52380952,3,2,8,,,,,,,,3,15,,,,,,,,,,,3,3.931,1,,,,,,0.150000042,-0.260185171,1,0,0,3.9312,Diorite_rect,7,0,7,0,1,
58d4c4c287b2420001263b6a,SCN,2024-06-24_14h35.20.133,LearnStrategy,2023.2.3,Win32,59.52380952,3,2,9,,,,,,,,4,08,,,,,,,,,,,4,5.486,1,,,,,,0.378703788,-0.237963005,1,0,0,5.4859,Gabbro_rect,8,0,8,0,1,
58d4c4c287b2420001263b6a,SCN,2024-06-24_14h35.20.133,LearnStrategy,2023.2.3,Win32,59.52380952,3,2,10,,,,,,,,2,12,,,,,,,,,,,8,2.547,0,,,,,,0.390740712,-0.408333319,1,0,0,2.5471,Pumice_rect,9,0,9,0,1,
58d4c4c287b2420001263b6a,SCN,2024-06-24_14h35.20.133,LearnStrategy,2023.2.3,Win32,59.52380952,3,2,11,,,,,,,,6,07,,,,,,,,,,,6,3.87,1,,,,,,-0.113888847,-0.400000042,1,0,0,3.8699,Pegmatite_rect,10,0,10,0,1,
58d4c4c287b2420001263b6a,SCN,2024-06-24_14h35.20.133,LearnStrategy,2023.2.3,Win32,59.52380952,3,2,12,,,,,,,,6,08,,,,,,,,,,,6,2.884,1,,,,,,-0.124074088,-0.402777778,1,0,0,2.884,Pegmatite_rect,11,0,11,0,1,
58d4c4c287b2420001263b6a,SCN,2024-06-24_14h35.20.133,LearnStrategy,2023.2.3,Win32,59.52380952,3,2,13,,,,,,,,7,15,,,,,,,,,,,7,3.115,1,,,,,,0.137962977,-0.408333319,1,0,0,3.1152,Peridotite_rect,12,0,12,0,1,
58d4c4c287b2420001263b6a,SCN,2024-06-24_14h35.20.133,LearnStrategy,2023.2.3,Win32,59.52380952,3,2,14,,,,,,,,1,06,,,,,,,,,,,2,3.184,0,,,,,,-0.111111111,-0.25,1,0,0,3.1841,Basalt_rect,13,0,13,0,1,
58d4c4c287b2420001263b6a,SCN,2024-06-24_14h35.20.133,LearnStrategy,2023.2.3,Win32,59.52380952,3,2,15,,,,,,,,1,03,,,,,,,,,,,1,5.311,1,,,,,,-0.315740727,-0.262962977,1,0,0,5.3109,Andesite_rect,14,0,14,0,1,
58d4c4c287b2420001263b6a,SCN,2024-06-24_14h35.20.133,LearnStrategy,2023.2.3,Win32,59.52380952,3,2,16,,,,,,,,3,14,,,,,,,,,,,3,4.755,1,,,,,,0.107407393,-0.25462963,1,0,0,4.755,Diorite_rect,15,0,15,0,1,
58d4c4c287b2420001263b6a,SCN,2024-06-24_14h35.20.133,LearnStrategy,2023.2.3,Win32,59.52380952,4,1,1,-0.05277775,-0.132407436,1,0,0,9.0864,Peridotite_14,7,14,3,4,9.086,0.075925968,-0.415740755,1,0,0,7.0409,Peridotite_rect,7,7.041,1,0,0,0,0,1,,,,,,,,,,,,,
58d4c4c287b2420001263b6a,SCN,2024-06-24_14h35.20.133,LearnStrategy,2023.2.3,Win32,59.52380952,4,1,2,-0.075925898,-0.410185213,1,0,0,2.7617,Peridotite_02,7,02,1,4,2.762,0.085185228,-0.411111125,1,0,0,2.8798,Peridotite_rect,7,2.88,1,1,0,1,0,1,,,,,,,,,,,,,
58d4c4c287b2420001263b6a,SCN,2024-06-24_14h35.20.133,LearnStrategy,2023.2.3,Win32,59.52380952,4,1,3,-0.39166666,0.421296296,1,0,0,4.7874,Diorite_16,3,16,6,2,4.787,0.088888875,-0.250925912,1,0,0,1.7044,Diorite_rect,3,1.704,1,2,0,2,0,1,,,,,,,,,,,,,
58d4c4c287b2420001263b6a,SCN,2024-06-24_14h35.20.133,LearnStrategy,2023.2.3,Win32,59.52380952,4,1,4,-0.081481439,0.407407407,1,0,0,2.1316,Pegmatite_16,6,16,6,4,2.132,-0.088888875,-0.412962949,1,0,0,2.0357,Pegmatite_rect,6,2.036,1,3,0,3,0,1,,,,,,,,,,,,,
58d4c4c287b2420001263b6a,SCN,2024-06-24_14h35.20.133,LearnStrategy,2023.2.3,Win32,59.52380952,4,1,5,0.409259231,0.099074081,1,0,0,3.26,Peridotite_07,7,07,4,7,3.26,0.135185171,-0.390740783,1,0,0,2.2187,Peridotite_rect,7,2.219,1,4,0,4,0,1,,,,,,,,,,,,,
58d4c4c287b2420001263b6a,SCN,2024-06-24_14h35.20.133,LearnStrategy,2023.2.3,Win32,59.52380952,4,1,6,-0.368518511,-0.086111104,1,0,0,3.6939,Pegmatite_13,6,13,3,2,3.694,-0.14444443,-0.390740783,1,0,0,2.589,Pegmatite_rect,6,2.589,1,5,0,5,0,1,,,,,,,,,,,,,
58d4c4c287b2420001263b6a,SCN,2024-06-24_14h35.20.133,LearnStrategy,2023.2.3,Win32,59.52380952,4,1,7,-0.539814808,-0.087962963,1,0,0,2.6639,Pegmatite_11,6,11,3,1,2.664,-0.152777778,-0.400000042,1,0,0,1.7681,Pegmatite_rect,6,1.768,1,6,0,6,0,1,,,,,,,,,,,,,
58d4c4c287b2420001263b6a,SCN,2024-06-24_14h35.20.133,LearnStrategy,2023.2.3,Win32,59.52380952,4,1,8,0.056481467,-0.099074116,1,0,0,1.7646,Pumice_04,8,04,3,5,1.765,0.383333418,-0.400925954,1,0,0,1.6858,Pumice_rect,8,1.686,1,7,0,7,0,1,,,,,,,,,,,,,
58d4c4c287b2420001263b6a,SCN,2024-06-24_14h35.20.133,LearnStrategy,2023.2.3,Win32,59.52380952,4,1,9,0.389814871,-0.26944443,1,0,0,3.4958,Pumice_14,8,14,2,7,3.496,0.425925926,-0.395370413,1,0,0,1.2655,Pumice_rect,8,1.265,1,8,0,8,0,1,,,,,,,,,,,,,
58d4c4c287b2420001263b6a,SCN,2024-06-24_14h35.20.133,LearnStrategy,2023.2.3,Win32,59.52380952,4,1,10,-0.515740748,-0.273148148,1,0,0,4.3097,Basalt_05,2,05,2,1,4.31,-0.147222236,-0.265740783,1,0,0,1.053,Basalt_rect,2,1.053,1,9,0,9,0,1,,,,,,,,,,,,,
58d4c4c287b2420001263b6a,SCN,2024-06-24_14h35.20.133,LearnStrategy,2023.2.3,Win32,59.52380952,4,1,11,0.232407393,0.224074063,1,0,0,2.647,Pegmatite_03,6,03,5,6,2.647,-0.101851852,-0.408333319,1,0,0,6.0758,Pegmatite_rect,6,6.076,1,10,0,10,0,1,,,,,,,,,,,,,
58d4c4c287b2420001263b6a,SCN,2024-06-24_14h35.20.133,LearnStrategy,2023.2.3,Win32,59.52380952,4,1,12,0.376851824,0.222222222,1,0,0,3.4619,Diorite_10,3,10,5,7,3.462,0.14444443,-0.26944443,1,0,0,1.6242,Diorite_rect,3,1.624,1,11,0,11,0,1,,,,,,,,,,,,,
58d4c4c287b2420001263b6a,SCN,2024-06-24_14h35.20.133,LearnStrategy,2023.2.3,Win32,59.52380952,4,1,13,-0.37962963,0.221296293,1,0,0,2.0309,Andesite_02,1,02,5,2,2.031,-0.380555541,-0.268518519,1,0,0,3.1994,Andesite_rect,1,3.199,1,12,0,12,0,1,,,,,,,,,,,,,
58d4c4c287b2420001263b6a,SCN,2024-06-24_14h35.20.133,LearnStrategy,2023.2.3,Win32,59.52380952,4,1,14,-0.237037023,0.242592582,1,0,0,2.4771,Gabbro_03,4,03,5,3,2.477,0.07222225,-0.239814829,1,0,0,2.4387,Diorite_rect,3,2.439,0,13,0,13,0,1,,,,,,,,,,,,,
58d4c4c287b2420001263b6a,SCN,2024-06-24_14h35.20.133,LearnStrategy,2023.2.3,Win32,59.52380952,4,1,15,-0.417592578,0.232407411,1,0,0,2.2712,Andesite_02,1,02,5,2,2.271,-0.381481489,-0.236111111,1,0,0,2.2774,Andesite_rect,1,2.277,1,14,0,14,0,1,,,,,,,,,,,,,
58d4c4c287b2420001263b6a,SCN,2024-06-24_14h35.20.133,LearnStrategy,2023.2.3,Win32,59.52380952,4,1,16,0.534259231,0.074074074,1,0,0,2.1817,Diorite_12,3,12,4,8,2.182,0.116666653,-0.240740741,1,0,0,6.0232,Diorite_rect,3,6.023,1,15,0,15,0,1,,,,,,,,,,,,,
58d4c4c287b2420001263b6a,SCN,2024-06-24_14h35.20.133,LearnStrategy,2023.2.3,Win32,59.52380952,4,2,1,,,,,,,,8,13,,,,,,,,,,,8,5.572,1,,,,,,0.330555527,-0.402777778,1,0,0,5.5718,Pumice_rect,0,0,0,0,1,
58d4c4c287b2420001263b6a,SCN,2024-06-24_14h35.20.133,LearnStrategy,2023.2.3,Win32,59.52380952,4,2,2,,,,,,,,3,11,,,,,,,,,,,3,8.368,1,,,,,,0.114814829,-0.257407436,1,0,0,8.3679,Diorite_rect,1,0,1,0,1,
58d4c4c287b2420001263b6a,SCN,2024-06-24_14h35.20.133,LearnStrategy,2023.2.3,Win32,59.52380952,4,2,3,,,,,,,,1,11,,,,,,,,,,,1,5.974,1,,,,,,-0.372222229,-0.249074088,1,0,0,5.9743,Andesite_rect,2,0,2,0,1,
58d4c4c287b2420001263b6a,SCN,2024-06-24_14h35.20.133,LearnStrategy,2023.2.3,Win32,59.52380952,4,2,4,,,,,,,,5,08,,,,,,,,,,,5,1.407,1,,,,,,-0.365740741,-0.419444473,1,0,0,1.4074,Obsidian_rect,3,0,3,0,1,
58d4c4c287b2420001263b6a,SCN,2024-06-24_14h35.20.133,LearnStrategy,2023.2.3,Win32,59.52380952,4,2,5,,,,,,,,7,06,,,,,,,,,,,6,2.709,0,,,,,,-0.121296282,-0.392592607,1,0,0,2.709,Pegmatite_rect,4,0,4,0,1,
58d4c4c287b2420001263b6a,SCN,2024-06-24_14h35.20.133,LearnStrategy,2023.2.3,Win32,59.52380952,4,2,6,,,,,,,,3,07,,,,,,,,,,,3,4.981,1,,,,,,0.158333319,-0.243518547,1,0,0,4.9814,Diorite_rect,5,0,5,0,1,
58d4c4c287b2420001263b6a,SCN,2024-06-24_14h35.20.133,LearnStrategy,2023.2.3,Win32,59.52380952,4,2,7,,,,,,,,6,08,,,,,,,,,,,6,1.679,1,,,,,,-0.182407379,-0.388888889,1,0,0,1.6788,Pegmatite_rect,6,0,6,0,1,
58d4c4c287b2420001263b6a,SCN,2024-06-24_14h35.20.133,LearnStrategy,2023.2.3,Win32,59.52380952,4,2,8,,,,,,,,8,09,,,,,,,,,,,8,1.167,1,,,,,,0.36018527,-0.393518519,1,0,0,1.1665,Pumice_rect,7,0,7,0,1,
58d4c4c287b2420001263b6a,SCN,2024-06-24_14h35.20.133,LearnStrategy,2023.2.3,Win32,59.52380952,4,2,9,,,,,,,,7,16,,,,,,,,,,,7,2.221,1,,,,,,0.103703746,-0.412037037,1,0,0,2.2211,Peridotite_rect,8,0,8,0,1,
58d4c4c287b2420001263b6a,SCN,2024-06-24_14h35.20.133,LearnStrategy,2023.2.3,Win32,59.52380952,4,2,10,,,,,,,,4,05,,,,,,,,,,,2,10.15,0,,,,,,-0.078703704,-0.263888889,1,0,0,10.1501,Basalt_rect,9,0,9,0,1,
58d4c4c287b2420001263b6a,SCN,2024-06-24_14h35.20.133,LearnStrategy,2023.2.3,Win32,59.52380952,4,2,11,,,,,,,,6,15,,,,,,,,,,,6,1.623,1,,,,,,-0.109259217,-0.39444443,1,0,0,1.6232,Pegmatite_rect,10,0,10,0,1,
58d4c4c287b2420001263b6a,SCN,2024-06-24_14h35.20.133,LearnStrategy,2023.2.3,Win32,59.52380952,4,2,12,,,,,,,,1,06,,,,,,,,,,,1,3.48,1,,,,,,-0.324999986,-0.252777806,1,0,0,3.48,Andesite_rect,11,0,11,0,1,
58d4c4c287b2420001263b6a,SCN,2024-06-24_14h35.20.133,LearnStrategy,2023.2.3,Win32,59.52380952,4,2,13,,,,,,,,2,12,,,,,,,,,,,8,1.353,0,,,,,,0.405555584,-0.381481524,1,0,0,1.3531,Pumice_rect,12,0,12,0,1,
58d4c4c287b2420001263b6a,SCN,2024-06-24_14h35.20.133,LearnStrategy,2023.2.3,Win32,59.52380952,4,2,14,,,,,,,,2,06,,,,,,,,,,,2,1.208,1,,,,,,-0.056481467,-0.242592635,1,0,0,1.2077,Basalt_rect,13,0,13,0,1,
58d4c4c287b2420001263b6a,SCN,2024-06-24_14h35.20.133,LearnStrategy,2023.2.3,Win32,59.52380952,4,2,15,,,,,,,,4,01,,,,,,,,,,,4,4.887,1,,,,,,0.332407492,-0.239814829,1,0,0,4.8868,Gabbro_rect,14,0,14,0,1,
58d4c4c287b2420001263b6a,SCN,2024-06-24_14h35.20.133,LearnStrategy,2023.2.3,Win32,59.52380952,4,2,16,,,,,,,,5,11,,,,,,,,,,,5,1.533,1,,,,,,-0.348148134,-0.411111125,1,0,0,1.5327,Obsidian_rect,15,0,15,0,1,
58d4c4c287b2420001263b6a,SCN,2024-06-24_14h35.20.133,LearnStrategy,2023.2.3,Win32,59.52380952,5,1,1,0.545370455,0.38333333,1,0,0,3.2597,Basalt_10,2,10,6,8,3.26,-0.092592593,-0.251851894,1,0,0,5.177,Basalt_rect,2,5.177,1,0,0,0,0,1,,,,,,,,,,,,,
58d4c4c287b2420001263b6a,SCN,2024-06-24_14h35.20.133,LearnStrategy,2023.2.3,Win32,59.52380952,5,1,2,0.381481453,0.37777778,1,0,0,3.11,Gabbro_10,4,10,6,7,3.11,-0.087037051,-0.244444459,1,0,0,4.6027,Basalt_rect,2,4.603,0,1,0,1,0,1,,,,,,,,,,,,,
58d4c4c287b2420001263b6a,SCN,2024-06-24_14h35.20.133,LearnStrategy,2023.2.3,Win32,59.52380952,5,1,3,0.091666681,0.38333333,1,0,0,2.5343,Gabbro_09,4,09,6,5,2.534,0.40833339,-0.252777806,1,0,0,1.3038,Gabbro_rect,4,1.304,1,2,0,2,0,1,,,,,,,,,,,,,
58d4c4c287b2420001263b6a,SCN,2024-06-24_14h35.20.133,LearnStrategy,2023.2.3,Win32,59.52380952,5,1,4,-0.19722218,0.3787037,1,0,0,3.9106,Basalt_02,2,02,6,3,3.911,-0.17777775,-0.266666695,1,0,0,1.0708,Basalt_rect,2,1.071,1,3,0,3,0,1,,,,,,,,,,,,,
58d4c4c287b2420001263b6a,SCN,2024-06-24_14h35.20.133,LearnStrategy,2023.2.3,Win32,59.52380952,5,1,5,-0.361111111,0.411111108,1,0,0,1.3957,Diorite_16,3,16,6,2,1.396,0.135185171,-0.255555541,1,0,0,1.6389,Diorite_rect,3,1.639,1,4,0,4,0,1,,,,,,,,,,,,,
58d4c4c287b2420001263b6a,SCN,2024-06-24_14h35.20.133,LearnStrategy,2023.2.3,Win32,59.52380952,5,1,6,-0.550925926,0.392592589,1,0,0,1.2897,Andesite_04,1,04,6,1,1.29,-0.362037023,-0.251851894,1,0,0,2.2985,Andesite_rect,1,2.299,1,5,0,5,0,1,,,,,,,,,,,,,
58d4c4c287b2420001263b6a,SCN,2024-06-24_14h35.20.133,LearnStrategy,2023.2.3,Win32,59.52380952,5,1,7,-0.557407414,0.24537037,1,0,0,1.627,Pegmatite_05,6,05,5,1,1.627,-0.098148134,-0.402777778,1,0,0,4.3718,Pegmatite_rect,6,4.372,1,6,0,6,0,1,,,,,,,,,,,,,
58d4c4c287b2420001263b6a,SCN,2024-06-24_14h35.20.133,LearnStrategy,2023.2.3,Win32,59.52380952,5,1,8,-0.375,0.229629623,1,0,0,2.2278,Andesite_02,1,02,5,2,2.228,-0.430555556,-0.242592635,1,0,0,1.7455,Andesite_rect,1,1.745,1,7,0,7,0,1,,,,,,,,,,,,,
58d4c4c287b2420001263b6a,SCN,2024-06-24_14h35.20.133,LearnStrategy,2023.2.3,Win32,59.52380952,5,1,9,-0.203703704,0.230555552,1,0,0,1.7172,Gabbro_03,4,03,5,3,1.717,0.118518547,-0.261111153,1,0,0,3.3885,Diorite_rect,3,3.389,0,8,0,8,0,1,,,,,,,,,,,,,
58d4c4c287b2420001263b6a,SCN,2024-06-24_14h35.20.133,LearnStrategy,2023.2.3,Win32,59.52380952,5,1,10,0.247222265,0.235185182,1,0,0,3.1428,Pegmatite_03,6,03,5,6,3.143,-0.082407422,-0.406481496,1,0,0,1.8141,Pegmatite_rect,6,1.814,1,9,0,9,0,1,,,,,,,,,,,,,
58d4c4c287b2420001263b6a,SCN,2024-06-24_14h35.20.133,LearnStrategy,2023.2.3,Win32,59.52380952,5,1,11,0.521296325,0.081481474,1,0,0,2.0799,Diorite_12,3,12,4,8,2.08,0.176851838,-0.259259259,1,0,0,3.5751,Diorite_rect,3,3.575,1,10,0,10,0,1,,,,,,,,,,,,,
58d4c4c287b2420001263b6a,SCN,2024-06-24_14h35.20.133,LearnStrategy,2023.2.3,Win32,59.52380952,5,1,12,-0.377777771,0.24166667,1,0,0,2.1939,Andesite_02,1,02,5,2,2.194,-0.390740748,-0.247222265,1,0,0,2.1663,Andesite_rect,1,2.166,1,11,0,11,0,1,,,,,,,,,,,,,
58d4c4c287b2420001263b6a,SCN,2024-06-24_14h35.20.133,LearnStrategy,2023.2.3,Win32,59.52380952,5,1,13,-0.064814815,-0.109259288,1,0,0,1.6008,Peridotite_14,7,14,3,4,1.601,0.127777806,-0.39444443,1,0,0,1.8863,Peridotite_rect,7,1.886,1,12,0,12,0,1,,,,,,,,,,,,,
58d4c4c287b2420001263b6a,SCN,2024-06-24_14h35.20.133,LearnStrategy,2023.2.3,Win32,59.52380952,5,1,14,-0.396296289,-0.252777806,1,0,0,1.2966,Peridotite_10,7,10,2,2,1.297,0.155555584,-0.408333319,1,0,0,1.8325,Peridotite_rect,7,1.832,1,13,0,13,0,1,,,,,,,,,,,,,
58d4c4c287b2420001263b6a,SCN,2024-06-24_14h35.20.133,LearnStrategy,2023.2.3,Win32,59.52380952,5,1,15,-0.380555541,-0.253703718,1,0,0,1.5294,Peridotite_10,7,10,2,2,1.529,0.100000028,-0.396296325,1,0,0,1.923,Peridotite_rect,7,1.923,1,14,0,14,0,1,,,,,,,,,,,,,
58d4c4c287b2420001263b6a,SCN,2024-06-24_14h35.20.133,LearnStrategy,2023.2.3,Win32,59.52380952,5,1,16,-0.527777778,-0.24537037,1,0,0,2.0127,Basalt_05,2,05,2,1,2.013,-0.159259231,-0.238888917,1,0,0,1.2222,Basalt_rect,2,1.222,1,15,0,15,0,1,,,,,,,,,,,,,
58d4c4c287b2420001263b6a,SCN,2024-06-24_14h35.20.133,LearnStrategy,2023.2.3,Win32,59.52380952,5,2,1,,,,,,,,6,12,,,,,,,,,,,6,3.782,1,,,,,,-0.094444416,-0.402777778,1,0,0,3.7819,Pegmatite_rect,0,0,0,0,1,
58d4c4c287b2420001263b6a,SCN,2024-06-24_14h35.20.133,LearnStrategy,2023.2.3,Win32,59.52380952,5,2,2,,,,,,,,5,05,,,,,,,,,,,5,1.942,1,,,,,,-0.424074067,-0.417592578,1,0,0,1.9415,Obsidian_rect,1,0,1,0,1,
58d4c4c287b2420001263b6a,SCN,2024-06-24_14h35.20.133,LearnStrategy,2023.2.3,Win32,59.52380952,5,2,3,,,,,,,,7,05,,,,,,,,,,,7,2.508,1,,,,,,0.113888917,-0.40370369,1,0,0,2.5082,Peridotite_rect,2,0,2,0,1,
58d4c4c287b2420001263b6a,SCN,2024-06-24_14h35.20.133,LearnStrategy,2023.2.3,Win32,59.52380952,5,2,4,,,,,,,,5,10,,,,,,,,,,,5,1.186,1,,,,,,-0.395370377,-0.411111125,1,0,0,1.1856,Obsidian_rect,3,0,3,0,1,
58d4c4c287b2420001263b6a,SCN,2024-06-24_14h35.20.133,LearnStrategy,2023.2.3,Win32,59.52380952,5,2,5,,,,,,,,3,08,,,,,,,,,,,3,13.321,1,,,,,,0.124074088,-0.257407436,1,0,0,13.3208,Diorite_rect,4,0,4,0,1,
58d4c4c287b2420001263b6a,SCN,2024-06-24_14h35.20.133,LearnStrategy,2023.2.3,Win32,59.52380952,5,2,6,,,,,,,,1,10,,,,,,,,,,,1,9.144,1,,,,,,-0.314814815,-0.259259259,1,0,0,9.1441,Andesite_rect,5,0,5,0,1,
58d4c4c287b2420001263b6a,SCN,2024-06-24_14h35.20.133,LearnStrategy,2023.2.3,Win32,59.52380952,5,2,7,,,,,,,,7,04,,,,,,,,,,,7,12.219,1,,,,,,0.049074102,-0.400000042,1,0,0,12.2189,Peridotite_rect,6,0,6,0,1,
58d4c4c287b2420001263b6a,SCN,2024-06-24_14h35.20.133,LearnStrategy,2023.2.3,Win32,59.52380952,5,2,8,,,,,,,,2,01,,,,,,,,,,,2,1.033,1,,,,,,-0.149999972,-0.246296282,1,0,0,1.0326,Basalt_rect,7,0,7,0,1,
58d4c4c287b2420001263b6a,SCN,2024-06-24_14h35.20.133,LearnStrategy,2023.2.3,Win32,59.52380952,5,2,9,,,,,,,,8,02,,,,,,,,,,,8,1.941,1,,,,,,0.41851849,-0.382407436,1,0,0,1.9414,Pumice_rect,8,0,8,0,1,
58d4c4c287b2420001263b6a,SCN,2024-06-24_14h35.20.133,LearnStrategy,2023.2.3,Win32,59.52380952,5,2,10,,,,,,,,8,06,,,,,,,,,,,8,1.673,1,,,,,,0.438888974,-0.406481496,1,0,0,1.6727,Pumice_rect,9,0,9,0,1,
58d4c4c287b2420001263b6a,SCN,2024-06-24_14h35.20.133,LearnStrategy,2023.2.3,Win32,59.52380952,5,2,11,,,,,,,,2,04,,,,,,,,,,,2,1.014,1,,,,,,-0.078703704,-0.263888889,1,0,0,1.0139,Basalt_rect,10,0,10,0,1,
58d4c4c287b2420001263b6a,SCN,2024-06-24_14h35.20.133,LearnStrategy,2023.2.3,Win32,59.52380952,5,2,12,,,,,,,,1,07,,,,,,,,,,,1,2.123,1,,,,,,-0.305555556,-0.262962977,1,0,0,2.1235,Andesite_rect,11,0,11,0,1,
58d4c4c287b2420001263b6a,SCN,2024-06-24_14h35.20.133,LearnStrategy,2023.2.3,Win32,59.52380952,5,2,13,,,,,,,,6,06,,,,,,,,,,,6,1.803,1,,,,,,-0.12037037,-0.418518561,1,0,0,1.8035,Pegmatite_rect,12,0,12,0,1,
58d4c4c287b2420001263b6a,SCN,2024-06-24_14h35.20.133,LearnStrategy,2023.2.3,Win32,59.52380952,5,2,14,,,,,,,,3,15,,,,,,,,,,,3,1.826,1,,,,,,0.099074116,-0.259259259,1,0,0,1.8257,Diorite_rect,13,0,13,0,1,
58d4c4c287b2420001263b6a,SCN,2024-06-24_14h35.20.133,LearnStrategy,2023.2.3,Win32,59.52380952,5,2,15,,,,,,,,4,08,,,,,,,,,,,4,2.708,1,,,,,,0.365740741,-0.236111111,1,0,0,2.7082,Gabbro_rect,14,0,14,0,1,
58d4c4c287b2420001263b6a,SCN,2024-06-24_14h35.20.133,LearnStrategy,2023.2.3,Win32,59.52380952,5,2,16,,,,,,,,4,12,,,,,,,,,,,2,5.319,0,,,,,,-0.118518476,-0.26944443,1,0,0,5.3186,Basalt_rect,15,0,15,0,1,
58d4c4c287b2420001263b6a,SCN,2024-06-24_14h35.20.133,LearnStrategy,2023.2.3,Win32,59.52380952,6,1,1,-0.41574072,0.244444441,1,0,0,1.678,Andesite_02,1,02,5,2,1.678,-0.381481489,-0.234259288,1,0,0,0.9793,Andesite_rect,1,0.979,1,0,0,0,0,1,,,,,,,,,,,,,
58d4c4c287b2420001263b6a,SCN,2024-06-24_14h35.20.133,LearnStrategy,2023.2.3,Win32,59.52380952,6,1,2,-0.549074067,0.387037039,1,0,0,2.0784,Andesite_04,1,04,6,1,2.078,-0.431481467,-0.251851894,1,0,0,1.4557,Andesite_rect,1,1.456,1,1,0,1,0,1,,,,,,,,,,,,,
58d4c4c287b2420001263b6a,SCN,2024-06-24_14h35.20.133,LearnStrategy,2023.2.3,Win32,59.52380952,6,1,3,-0.424074067,0.424074076,1,0,0,1.2972,Diorite_16,3,16,6,2,1.297,0.141666695,-0.264814801,1,0,0,2.0152,Diorite_rect,3,2.015,1,2,0,2,0,1,,,,,,,,,,,,,
58d4c4c287b2420001263b6a,SCN,2024-06-24_14h35.20.133,LearnStrategy,2023.2.3,Win32,59.52380952,6,1,4,-0.400925919,-0.428703732,1,0,0,2.5801,Andesite_14,1,14,1,2,2.58,0.062962991,-0.400925954,1,0,0,15.4885,Peridotite_rect,7,15.488,0,3,0,3,0,1,,,,,,,,,,,,,
58d4c4c287b2420001263b6a,SCN,2024-06-24_14h35.20.133,LearnStrategy,2023.2.3,Win32,59.52380952,6,1,5,-0.383333312,-0.244444459,1,0,0,1.8473,Peridotite_10,7,10,2,2,1.847,0.139814801,-0.39444443,1,0,0,1.7082,Peridotite_rect,7,1.708,1,4,0,4,0,1,,,,,,,,,,,,,
58d4c4c287b2420001263b6a,SCN,2024-06-24_14h35.20.133,LearnStrategy,2023.2.3,Win32,59.52380952,6,1,6,-0.387962942,-0.413888931,1,0,0,1.482,Andesite_14,1,14,1,2,1.482,-0.414814808,-0.247222265,1,0,0,1.402,Andesite_rect,1,1.402,1,5,0,5,0,1,,,,,,,,,,,,,
58d4c4c287b2420001263b6a,SCN,2024-06-24_14h35.20.133,LearnStrategy,2023.2.3,Win32,59.52380952,6,1,7,0.048148191,-0.244444459,1,0,0,4.8263,Gabbro_13,4,13,2,5,4.826,0.395370342,-0.236111111,1,0,0,1.5296,Gabbro_rect,4,1.53,1,6,0,6,0,1,,,,,,,,,,,,,
58d4c4c287b2420001263b6a,SCN,2024-06-24_14h35.20.133,LearnStrategy,2023.2.3,Win32,59.52380952,6,1,8,0.404629601,-0.097222222,1,0,0,2.2461,Peridotite_08,7,08,3,7,2.246,0.154629672,-0.387962977,1,0,0,2.1475,Peridotite_rect,7,2.148,1,7,0,7,0,1,,,,,,,,,,,,,
58d4c4c287b2420001263b6a,SCN,2024-06-24_14h35.20.133,LearnStrategy,2023.2.3,Win32,59.52380952,6,1,9,0.047222208,-0.094444487,1,0,0,1.6949,Pumice_04,8,04,3,5,1.695,0.425000085,-0.386111153,1,0,0,1.2327,Pumice_rect,8,1.233,1,8,0,8,0,1,,,,,,,,,,,,,
58d4c4c287b2420001263b6a,SCN,2024-06-24_14h35.20.133,LearnStrategy,2023.2.3,Win32,59.52380952,6,1,10,-0.40370369,-0.09629631,1,0,0,2.8559,Pegmatite_13,6,13,3,2,2.856,-0.152777778,-0.412962949,1,0,0,2.4403,Pegmatite_rect,6,2.44,1,9,0,9,0,1,,,,,,,,,,,,,
58d4c4c287b2420001263b6a,SCN,2024-06-24_14h35.20.133,LearnStrategy,2023.2.3,Win32,59.52380952,6,1,11,0.52870376,-0.106481481,1,0,0,3.5284,Diorite_06,3,06,3,8,3.528,0.207407422,-0.242592635,1,0,0,1.4302,Diorite_rect,3,1.43,1,10,0,10,0,1,,,,,,,,,,,,,
58d4c4c287b2420001263b6a,SCN,2024-06-24_14h35.20.133,LearnStrategy,2023.2.3,Win32,59.52380952,6,1,12,-0.533333319,0.087962963,1,0,0,3.9367,Gabbro_14,4,14,4,1,3.937,0.394444501,-0.246296282,1,0,0,3.2472,Gabbro_rect,4,3.247,1,11,0,11,0,1,,,,,,,,,,,,,
58d4c4c287b2420001263b6a,SCN,2024-06-24_14h35.20.133,LearnStrategy,2023.2.3,Win32,59.52380952,6,1,13,-0.365740741,0.072222215,1,0,0,3.016,Gabbro_16,4,16,4,2,3.016,0.371296353,-0.255555541,1,0,0,4.1887,Gabbro_rect,4,4.189,1,12,0,12,0,1,,,,,,,,,,,,,
58d4c4c287b2420001263b6a,SCN,2024-06-24_14h35.20.133,LearnStrategy,2023.2.3,Win32,59.52380952,6,1,14,0.110185199,0.070370356,1,0,0,2.7127,Basalt_09,2,09,4,5,2.713,-0.087037051,-0.251851894,1,0,0,1.3955,Basalt_rect,2,1.396,1,13,0,13,0,1,,,,,,,,,,,,,
58d4c4c287b2420001263b6a,SCN,2024-06-24_14h35.20.133,LearnStrategy,2023.2.3,Win32,59.52380952,6,1,15,0.237963005,0.061111097,1,0,0,1.8298,Pumice_10,8,10,4,6,1.83,0.415740826,-0.398148148,1,0,0,1.3995,Pumice_rect,8,1.399,1,14,0,14,0,1,,,,,,,,,,,,,
58d4c4c287b2420001263b6a,SCN,2024-06-24_14h35.20.133,LearnStrategy,2023.2.3,Win32,59.52380952,6,1,16,-0.085185157,-0.275000042,1,0,0,11.7864,Diorite_09,3,09,2,4,11.786,0.103703746,-0.244444459,1,0,0,5.8939,Diorite_rect,3,5.894,1,15,0,15,0,1,,,,,,,,,,,,,
58d4c4c287b2420001263b6a,SCN,2024-06-24_14h35.20.133,LearnStrategy,2023.2.3,Win32,59.52380952,6,2,1,,,,,,,,2,16,,,,,,,,,,,2,4.547,1,,,,,,-0.119444459,-0.252777806,1,0,0,4.5472,Basalt_rect,0,0,0,0,1,
58d4c4c287b2420001263b6a,SCN,2024-06-24_14h35.20.133,LearnStrategy,2023.2.3,Win32,59.52380952,6,2,2,,,,,,,,6,09,,,,,,,,,,,6,2.023,1,,,,,,-0.122222194,-0.417592578,1,0,0,2.0229,Pegmatite_rect,1,0,1,0,1,
58d4c4c287b2420001263b6a,SCN,2024-06-24_14h35.20.133,LearnStrategy,2023.2.3,Win32,59.52380952,6,2,3,,,,,,,,3,14,,,,,,,,,,,3,1.467,1,,,,,,0.111111111,-0.251851894,1,0,0,1.4671,Diorite_rect,2,0,2,0,1,
58d4c4c287b2420001263b6a,SCN,2024-06-24_14h35.20.133,LearnStrategy,2023.2.3,Win32,59.52380952,6,2,4,,,,,,,,5,04,,,,,,,,,,,5,1.228,1,,,,,,-0.334259245,-0.402777778,1,0,0,1.2276,Obsidian_rect,3,0,3,0,1,
58d4c4c287b2420001263b6a,SCN,2024-06-24_14h35.20.133,LearnStrategy,2023.2.3,Win32,59.52380952,6,2,5,,,,,,,,7,15,,,,,,,,,,,7,1.536,1,,,,,,0.047222208,-0.40370369,1,0,0,1.536,Peridotite_rect,4,0,4,0,1,
58d4c4c287b2420001263b6a,SCN,2024-06-24_14h35.20.133,LearnStrategy,2023.2.3,Win32,59.52380952,6,2,6,,,,,,,,8,03,,,,,,,,,,,8,2.074,1,,,,,,0.37037037,-0.395370413,1,0,0,2.0737,Pumice_rect,5,0,5,0,1,
58d4c4c287b2420001263b6a,SCN,2024-06-24_14h35.20.133,LearnStrategy,2023.2.3,Win32,59.52380952,6,2,7,,,,,,,,4,15,,,,,,,,,,,4,1.681,1,,,,,,0.407407407,-0.270370413,1,0,0,1.6808,Gabbro_rect,6,0,6,0,1,
58d4c4c287b2420001263b6a,SCN,2024-06-24_14h35.20.133,LearnStrategy,2023.2.3,Win32,59.52380952,6,2,8,,,,,,,,1,09,,,,,,,,,,,2,2.875,0,,,,,,-0.106481481,-0.270370413,1,0,0,2.875,Basalt_rect,7,0,7,0,1,
58d4c4c287b2420001263b6a,SCN,2024-06-24_14h35.20.133,LearnStrategy,2023.2.3,Win32,59.52380952,6,2,9,,,,,,,,3,02,,,,,,,,,,,3,7.115,1,,,,,,0.135185171,-0.259259259,1,0,0,7.1151,Diorite_rect,8,0,8,0,1,
58d4c4c287b2420001263b6a,SCN,2024-06-24_14h35.20.133,LearnStrategy,2023.2.3,Win32,59.52380952,6,2,10,,,,,,,,8,08,,,,,,,,,,,8,1.952,1,,,,,,0.352777834,-0.400925954,1,0,0,1.9522,Pumice_rect,9,0,9,0,1,
58d4c4c287b2420001263b6a,SCN,2024-06-24_14h35.20.133,LearnStrategy,2023.2.3,Win32,59.52380952,6,2,11,,,,,,,,7,12,,,,,,,,,,,7,1.473,1,,,,,,0.178703732,-0.398148148,1,0,0,1.4726,Peridotite_rect,10,0,10,0,1,
58d4c4c287b2420001263b6a,SCN,2024-06-24_14h35.20.133,LearnStrategy,2023.2.3,Win32,59.52380952,6,2,12,,,,,,,,5,06,,,,,,,,,,,5,1.326,1,,,,,,-0.405555548,-0.406481496,1,0,0,1.3256,Obsidian_rect,11,0,11,0,1,
58d4c4c287b2420001263b6a,SCN,2024-06-24_14h35.20.133,LearnStrategy,2023.2.3,Win32,59.52380952,6,2,13,,,,,,,,2,11,,,,,,,,,,,8,3.356,0,,,,,,0.387963048,-0.406481496,1,0,0,3.3564,Pumice_rect,12,0,12,0,1,
58d4c4c287b2420001263b6a,SCN,2024-06-24_14h35.20.133,LearnStrategy,2023.2.3,Win32,59.52380952,6,2,14,,,,,,,,1,03,,,,,,,,,,,1,1.407,1,,,,,,-0.372222229,-0.240740741,1,0,0,1.4074,Andesite_rect,13,0,13,0,1,
58d4c4c287b2420001263b6a,SCN,2024-06-24_14h35.20.133,LearnStrategy,2023.2.3,Win32,59.52380952,6,2,15,,,,,,,,6,07,,,,,,,,,,,6,2.081,1,,,,,,-0.130555541,-0.407407407,1,0,0,2.0805,Pegmatite_rect,14,0,14,0,1,
58d4c4c287b2420001263b6a,SCN,2024-06-24_14h35.20.133,LearnStrategy,2023.2.3,Win32,59.52380952,6,2,16,,,,,,,,4,11,,,,,,,,,,,2,1.981,0,,,,,,-0.122222194,-0.262962977,1,0,0,1.9813,Basalt_rect,15,0,15,0,1,
58d4c4c287b2420001263b6a,SCN,2024-06-24_14h35.20.133,LearnStrategy,2023.2.3,Win32,59.52380952,7,1,1,0.546296296,-0.128703718,1,0,0,2.3279,Diorite_06,3,06,3,8,2.328,0.140740783,-0.231481481,1,0,0,2.594,Diorite_rect,3,2.594,1,0,0,0,0,1,,,,,,,,,,,,,
58d4c4c287b2420001263b6a,SCN,2024-06-24_14h35.20.133,LearnStrategy,2023.2.3,Win32,59.52380952,7,1,2,-0.07222218,-0.239814829,1,0,0,6.6214,Diorite_09,3,09,2,4,6.621,0.184259273,-0.239814829,1,0,0,1.5608,Diorite_rect,3,1.561,1,1,0,1,0,1,,,,,,,,,,,,,
58d4c4c287b2420001263b6a,SCN,2024-06-24_14h35.20.133,LearnStrategy,2023.2.3,Win32,59.52380952,7,1,3,0.045370384,-0.255555541,1,0,0,1.3468,Gabbro_13,4,13,2,5,1.347,0.382407436,-0.249074088,1,0,0,1.5676,Gabbro_rect,4,1.568,1,2,0,2,0,1,,,,,,,,,,,,,
58d4c4c287b2420001263b6a,SCN,2024-06-24_14h35.20.133,LearnStrategy,2023.2.3,Win32,59.52380952,7,1,4,0.381481453,-0.251851894,1,0,0,1.7793,Pumice_14,8,14,2,7,1.779,0.412037037,-0.405555584,1,0,0,1.5983,Pumice_rect,8,1.598,1,3,0,3,0,1,,,,,,,,,,,,,
58d4c4c287b2420001263b6a,SCN,2024-06-24_14h35.20.133,LearnStrategy,2023.2.3,Win32,59.52380952,7,1,5,0.538888861,-0.398148148,1,0,0,2.8281,Pumice_05,8,05,1,8,2.828,0.435185185,-0.401851866,1,0,0,1.173,Pumice_rect,8,1.173,1,4,0,4,0,1,,,,,,,,,,,,,
58d4c4c287b2420001263b6a,SCN,2024-06-24_14h35.20.133,LearnStrategy,2023.2.3,Win32,59.52380952,7,1,6,0.062037079,-0.425925926,1,0,0,1.5716,Basalt_14,2,14,1,5,1.572,-0.061111097,-0.26944443,1,0,0,2.0432,Basalt_rect,2,2.043,1,5,0,5,0,1,,,,,,,,,,,,,
58d4c4c287b2420001263b6a,SCN,2024-06-24_14h35.20.133,LearnStrategy,2023.2.3,Win32,59.52380952,7,1,7,-0.36296297,-0.429629644,1,0,0,1.949,Andesite_14,1,14,1,2,1.949,-0.440740727,-0.251851894,1,0,0,3.243,Andesite_rect,1,3.243,1,6,0,6,0,1,,,,,,,,,,,,,
58d4c4c287b2420001263b6a,SCN,2024-06-24_14h35.20.133,LearnStrategy,2023.2.3,Win32,59.52380952,7,1,8,-0.083333333,-0.421296296,1,0,0,2.0268,Peridotite_02,7,02,1,4,2.027,0.151851866,-0.400000042,1,0,0,2.8723,Peridotite_rect,7,2.872,1,7,0,7,0,1,,,,,,,,,,,,,
58d4c4c287b2420001263b6a,SCN,2024-06-24_14h35.20.133,LearnStrategy,2023.2.3,Win32,59.52380952,7,1,9,0.212962963,-0.422222208,1,0,0,3.978,Andesite_05,1,05,1,6,3.978,0.329629686,-0.251851894,1,0,0,12.8517,Gabbro_rect,4,12.852,0,8,0,8,0,1,,,,,,,,,,,,,
58d4c4c287b2420001263b6a,SCN,2024-06-24_14h35.20.133,LearnStrategy,2023.2.3,Win32,59.52380952,7,1,10,-0.397222201,-0.275000042,1,0,0,8.1893,Peridotite_10,7,10,2,2,8.189,0.167592578,-0.397222236,1,0,0,1.4575,Peridotite_rect,7,1.457,1,9,0,9,0,1,,,,,,,,,,,,,
58d4c4c287b2420001263b6a,SCN,2024-06-24_14h35.20.133,LearnStrategy,2023.2.3,Win32,59.52380952,7,1,11,-0.05277775,-0.121296282,1,0,0,1.4133,Peridotite_14,7,14,3,4,1.413,0.171296296,-0.400000042,1,0,0,8.1167,Peridotite_rect,7,8.117,1,10,0,10,0,1,,,,,,,,,,,,,
58d4c4c287b2420001263b6a,SCN,2024-06-24_14h35.20.133,LearnStrategy,2023.2.3,Win32,59.52380952,7,1,12,0.540740826,-0.412962949,1,0,0,3.1035,Pumice_05,8,05,1,8,3.104,0.420370455,-0.39444443,1,0,0,1.1775,Pumice_rect,8,1.178,1,11,0,11,0,1,,,,,,,,,,,,,
58d4c4c287b2420001263b6a,SCN,2024-06-24_14h35.20.133,LearnStrategy,2023.2.3,Win32,59.52380952,7,1,13,-0.06759255,-0.248148176,1,0,0,2.1622,Diorite_09,3,09,2,4,2.162,0.110185199,-0.247222265,1,0,0,1.7327,Diorite_rect,3,1.733,1,12,0,12,0,1,,,,,,,,,,,,,
58d4c4c287b2420001263b6a,SCN,2024-06-24_14h35.20.133,LearnStrategy,2023.2.3,Win32,59.52380952,7,1,14,0.085185228,0.064814815,1,0,0,3.2943,Basalt_09,2,09,4,5,3.294,-0.174074032,-0.258333347,1,0,0,1.1485,Basalt_rect,2,1.149,1,13,0,13,0,1,,,,,,,,,,,,,
58d4c4c287b2420001263b6a,SCN,2024-06-24_14h35.20.133,LearnStrategy,2023.2.3,Win32,59.52380952,7,1,15,0.251851894,0.079629616,1,0,0,1.1468,Pumice_10,8,10,4,6,1.147,0.444444444,-0.404629672,1,0,0,1.5351,Pumice_rect,8,1.535,1,14,0,14,0,1,,,,,,,,,,,,,
58d4c4c287b2420001263b6a,SCN,2024-06-24_14h35.20.133,LearnStrategy,2023.2.3,Win32,59.52380952,7,1,16,0.409259231,0.083333333,1,0,0,3.1465,Peridotite_07,7,07,4,7,3.147,0.187962991,-0.406481496,1,0,0,1.4554,Peridotite_rect,7,1.455,1,15,0,15,0,1,,,,,,,,,,,,,
58d4c4c287b2420001263b6a,SCN,2024-06-24_14h35.20.133,LearnStrategy,2023.2.3,Win32,59.52380952,7,2,1,,,,,,,,2,04,,,,,,,,,,,2,3.464,1,,,,,,-0.077777792,-0.260185171,1,0,0,3.4639,Basalt_rect,0,0,0,0,1,
58d4c4c287b2420001263b6a,SCN,2024-06-24_14h35.20.133,LearnStrategy,2023.2.3,Win32,59.52380952,7,2,2,,,,,,,,4,08,,,,,,,,,,,4,2.477,1,,,,,,0.42777775,-0.25462963,1,0,0,2.4769,Gabbro_rect,1,0,1,0,1,
58d4c4c287b2420001263b6a,SCN,2024-06-24_14h35.20.133,LearnStrategy,2023.2.3,Win32,59.52380952,7,2,3,,,,,,,,8,03,,,,,,,,,,,8,1.266,1,,,,,,0.366666723,-0.387962977,1,0,0,1.2657,Pumice_rect,2,0,2,0,1,
58d4c4c287b2420001263b6a,SCN,2024-06-24_14h35.20.133,LearnStrategy,2023.2.3,Win32,59.52380952,7,2,4,,,,,,,,7,06,,,,,,,,,,,6,1.703,0,,,,,,-0.066666638,-0.412037037,1,0,0,1.7026,Pegmatite_rect,3,0,3,0,1,
58d4c4c287b2420001263b6a,SCN,2024-06-24_14h35.20.133,LearnStrategy,2023.2.3,Win32,59.52380952,7,2,5,,,,,,,,4,15,,,,,,,,,,,4,1.936,1,,,,,,0.384259259,-0.24537037,1,0,0,1.9358,Gabbro_rect,4,0,4,0,1,
58d4c4c287b2420001263b6a,SCN,2024-06-24_14h35.20.133,LearnStrategy,2023.2.3,Win32,59.52380952,7,2,6,,,,,,,,8,06,,,,,,,,,,,8,1.209,1,,,,,,0.359259288,-0.414814843,1,0,0,1.2092,Pumice_rect,5,0,5,0,1,
58d4c4c287b2420001263b6a,SCN,2024-06-24_14h35.20.133,LearnStrategy,2023.2.3,Win32,59.52380952,7,2,7,,,,,,,,2,01,,,,,,,,,,,2,0.993,1,,,,,,-0.086111069,-0.261111153,1,0,0,0.9927,Basalt_rect,6,0,6,0,1,
58d4c4c287b2420001263b6a,SCN,2024-06-24_14h35.20.133,LearnStrategy,2023.2.3,Win32,59.52380952,7,2,8,,,,,,,,7,15,,,,,,,,,,,7,2.536,1,,,,,,0.188888903,-0.418518561,1,0,0,2.5364,Peridotite_rect,7,0,7,0,1,
58d4c4c287b2420001263b6a,SCN,2024-06-24_14h35.20.133,LearnStrategy,2023.2.3,Win32,59.52380952,7,2,9,,,,,,,,5,06,,,,,,,,,,,5,1.984,1,,,,,,-0.384259259,-0.388888889,1,0,0,1.9841,Obsidian_rect,8,0,8,0,1,
58d4c4c287b2420001263b6a,SCN,2024-06-24_14h35.20.133,LearnStrategy,2023.2.3,Win32,59.52380952,7,2,10,,,,,,,,3,11,,,,,,,,,,,3,2.591,1,,,,,,0.15370369,-0.248148176,1,0,0,2.5906,Diorite_rect,9,0,9,0,1,
58d4c4c287b2420001263b6a,SCN,2024-06-24_14h35.20.133,LearnStrategy,2023.2.3,Win32,59.52380952,7,2,11,,,,,,,,1,03,,,,,,,,,,,1,2.042,1,,,,,,-0.400925919,-0.260185171,1,0,0,2.0415,Andesite_rect,10,0,10,0,1,
58d4c4c287b2420001263b6a,SCN,2024-06-24_14h35.20.133,LearnStrategy,2023.2.3,Win32,59.52380952,7,2,12,,,,,,,,6,09,,,,,,,,,,,6,1.679,1,,,,,,-0.108333305,-0.414814843,1,0,0,1.6789,Pegmatite_rect,11,0,11,0,1,
58d4c4c287b2420001263b6a,SCN,2024-06-24_14h35.20.133,LearnStrategy,2023.2.3,Win32,59.52380952,7,2,13,,,,,,,,6,06,,,,,,,,,,,6,1.251,1,,,,,,-0.108333305,-0.401851866,1,0,0,1.251,Pegmatite_rect,12,0,12,0,1,
58d4c4c287b2420001263b6a,SCN,2024-06-24_14h35.20.133,LearnStrategy,2023.2.3,Win32,59.52380952,7,2,14,,,,,,,,3,02,,,,,,,,,,,3,13.746,1,,,,,,0.185185185,-0.251851894,1,0,0,13.7462,Diorite_rect,13,0,13,0,1,
58d4c4c287b2420001263b6a,SCN,2024-06-24_14h35.20.133,LearnStrategy,2023.2.3,Win32,59.52380952,7,2,15,,,,,,,,5,11,,,,,,,,,,,5,1.299,1,,,,,,-0.397222201,-0.387962977,1,0,0,1.2995,Obsidian_rect,14,0,14,0,1,
58d4c4c287b2420001263b6a,SCN,2024-06-24_14h35.20.133,LearnStrategy,2023.2.3,Win32,59.52380952,7,2,16,,,,,,,,1,09,,,,,,,,,,,2,1.551,0,,,,,,-0.130555541,-0.262037065,1,0,0,1.5508,Basalt_rect,15,0,15,0,1,
58d4c4c287b2420001263b6a,SCN,2024-06-24_14h35.20.133,LearnStrategy,2023.2.3,Win32,59.52380952,8,1,1,0.255555541,-0.40370369,1,0,0,7.351,Andesite_05,1,05,1,6,7.351,-0.397222201,-0.260185171,1,0,0,2.4049,Andesite_rect,1,2.405,1,0,0,0,0,1,,,,,,,,,,,,,
58d4c4c287b2420001263b6a,SCN,2024-06-24_14h35.20.133,LearnStrategy,2023.2.3,Win32,59.52380952,8,1,2,0.422222279,0.070370356,1,0,0,3.1947,Peridotite_07,7,07,4,7,3.195,0.171296296,-0.397222236,1,0,0,1.8741,Peridotite_rect,7,1.874,1,1,0,1,0,1,,,,,,,,,,,,,
58d4c4c287b2420001263b6a,SCN,2024-06-24_14h35.20.133,LearnStrategy,2023.2.3,Win32,59.52380952,8,1,3,-0.398148148,-0.420370384,1,0,0,5.411,Andesite_14,1,14,1,2,5.411,-0.373148141,-0.24537037,1,0,0,6.675,Andesite_rect,1,6.675,1,2,0,2,0,1,,,,,,,,,,,,,
58d4c4c287b2420001263b6a,SCN,2024-06-24_14h35.20.133,LearnStrategy,2023.2.3,Win32,59.52380952,8,1,4,-0.552777785,0.073148127,1,0,0,1.8634,Gabbro_14,4,14,4,1,1.863,0.411111196,-0.262962977,1,0,0,2.2333,Gabbro_rect,4,2.233,1,3,0,3,0,1,,,,,,,,,,,,,
58d4c4c287b2420001263b6a,SCN,2024-06-24_14h35.20.133,LearnStrategy,2023.2.3,Win32,59.52380952,8,1,5,-0.260185171,-0.115740741,1,0,0,2.91,Pumice_15,8,15,3,3,2.91,0.402777778,-0.396296325,1,0,0,1.1529,Pumice_rect,8,1.153,1,4,0,4,0,1,,,,,,,,,,,,,
58d4c4c287b2420001263b6a,SCN,2024-06-24_14h35.20.133,LearnStrategy,2023.2.3,Win32,59.52380952,8,1,6,0.371296353,-0.107407393,1,0,0,4.262,Peridotite_08,7,08,3,7,4.262,0.152777778,-0.401851866,1,0,0,1.7393,Peridotite_rect,7,1.739,1,5,0,5,0,1,,,,,,,,,,,,,
58d4c4c287b2420001263b6a,SCN,2024-06-24_14h35.20.133,LearnStrategy,2023.2.3,Win32,59.52380952,8,1,7,0.532407407,-0.122222265,1,0,0,3.9776,Diorite_06,3,06,3,8,3.978,0.107407393,-0.258333347,1,0,0,1.1796,Diorite_rect,3,1.18,1,6,0,6,0,1,,,,,,,,,,,,,
58d4c4c287b2420001263b6a,SCN,2024-06-24_14h35.20.133,LearnStrategy,2023.2.3,Win32,59.52380952,8,1,8,-0.414814808,-0.256481524,1,0,0,3.4252,Peridotite_10,7,10,2,2,3.425,0.12037037,-0.396296325,1,0,0,1.4975,Peridotite_rect,7,1.497,1,7,0,7,0,1,,,,,,,,,,,,,
58d4c4c287b2420001263b6a,SCN,2024-06-24_14h35.20.133,LearnStrategy,2023.2.3,Win32,59.52380952,8,1,9,-0.106481481,-0.279629672,1,0,0,3.3954,Diorite_09,3,09,2,4,3.395,0.125,-0.24537037,1,0,0,2.4504,Diorite_rect,3,2.45,1,8,0,8,0,1,,,,,,,,,,,,,
58d4c4c287b2420001263b6a,SCN,2024-06-24_14h35.20.133,LearnStrategy,2023.2.3,Win32,59.52380952,8,1,10,-0.357407393,0.390740739,1,0,0,2.1436,Diorite_16,3,16,6,2,2.144,0.124074088,-0.262037065,1,0,0,2.6717,Diorite_rect,3,2.672,1,9,0,9,0,1,,,,,,,,,,,,,
58d4c4c287b2420001263b6a,SCN,2024-06-24_14h35.20.133,LearnStrategy,2023.2.3,Win32,59.52380952,8,1,11,0.37962963,0.220370363,1,0,0,2.2945,Diorite_10,3,10,5,7,2.294,0.168518561,-0.241666653,1,0,0,2.0134,Diorite_rect,3,2.013,1,10,0,10,0,1,,,,,,,,,,,,,
58d4c4c287b2420001263b6a,SCN,2024-06-24_14h35.20.133,LearnStrategy,2023.2.3,Win32,59.52380952,8,1,12,-0.521296289,0.214814804,1,0,0,6.282,Pegmatite_05,6,05,5,1,6.282,-0.142592607,-0.401851866,1,0,0,1.7102,Pegmatite_rect,6,1.71,1,11,0,11,0,1,,,,,,,,,,,,,
58d4c4c287b2420001263b6a,SCN,2024-06-24_14h35.20.133,LearnStrategy,2023.2.3,Win32,59.52380952,8,1,13,0.512963048,0.098148134,1,0,0,1.5816,Diorite_12,3,12,4,8,1.582,0.186111097,-0.264814801,1,0,0,2.471,Diorite_rect,3,2.471,1,12,0,12,0,1,,,,,,,,,,,,,
58d4c4c287b2420001263b6a,SCN,2024-06-24_14h35.20.133,LearnStrategy,2023.2.3,Win32,59.52380952,8,1,14,0.399074131,0.088888875,1,0,0,2.8797,Peridotite_07,7,07,4,7,2.88,0.135185171,-0.410185213,1,0,0,1.7049,Peridotite_rect,7,1.705,1,13,0,13,0,1,,,,,,,,,,,,,
58d4c4c287b2420001263b6a,SCN,2024-06-24_14h35.20.133,LearnStrategy,2023.2.3,Win32,59.52380952,8,1,15,0.244444459,0.098148134,1,0,0,2.3533,Pumice_10,8,10,4,6,2.353,0.410185213,-0.39907406,1,0,0,1.6074,Pumice_rect,8,1.607,1,14,0,14,0,1,,,,,,,,,,,,,
58d4c4c287b2420001263b6a,SCN,2024-06-24_14h35.20.133,LearnStrategy,2023.2.3,Win32,59.52380952,8,1,16,-0.361111111,-0.263888889,1,0,0,2.0956,Peridotite_10,7,10,2,2,2.096,0.086111139,-0.39907406,1,0,0,1.3165,Peridotite_rect,7,1.316,1,15,0,15,0,1,,,,,,,,,,,,,
58d4c4c287b2420001263b6a,SCN,2024-06-24_14h35.20.133,LearnStrategy,2023.2.3,Win32,59.52380952,8,2,1,,,,,,,,8,13,,,,,,,,,,,8,1.634,1,,,,,,0.339814787,-0.408333319,1,0,0,1.6336,Pumice_rect,0,0,0,0,1,
58d4c4c287b2420001263b6a,SCN,2024-06-24_14h35.20.133,LearnStrategy,2023.2.3,Win32,59.52380952,8,2,2,,,,,,,,6,12,,,,,,,,,,,6,7.001,1,,,,,,-0.103703675,-0.404629672,1,0,0,7.0012,Pegmatite_rect,1,0,1,0,1,
58d4c4c287b2420001263b6a,SCN,2024-06-24_14h35.20.133,LearnStrategy,2023.2.3,Win32,59.52380952,8,2,3,,,,,,,,6,08,,,,,,,,,,,6,1.566,1,,,,,,-0.103703675,-0.404629672,1,0,0,1.5662,Pegmatite_rect,2,0,2,0,1,
58d4c4c287b2420001263b6a,SCN,2024-06-24_14h35.20.133,LearnStrategy,2023.2.3,Win32,59.52380952,8,2,4,,,,,,,,8,02,,,,,,,,,,,8,1.233,1,,,,,,0.343518575,-0.411111125,1,0,0,1.2331,Pumice_rect,3,0,3,0,1,
58d4c4c287b2420001263b6a,SCN,2024-06-24_14h35.20.133,LearnStrategy,2023.2.3,Win32,59.52380952,8,2,5,,,,,,,,7,05,,,,,,,,,,,7,2.166,1,,,,,,0.127777806,-0.401851866,1,0,0,2.1655,Peridotite_rect,4,0,4,0,1,
58d4c4c287b2420001263b6a,SCN,2024-06-24_14h35.20.133,LearnStrategy,2023.2.3,Win32,59.52380952,8,2,6,,,,,,,,3,08,,,,,,,,,,,3,1.558,1,,,,,,0.163888931,-0.261111153,1,0,0,1.5577,Diorite_rect,5,0,5,0,1,
58d4c4c287b2420001263b6a,SCN,2024-06-24_14h35.20.133,LearnStrategy,2023.2.3,Win32,59.52380952,8,2,7,,,,,,,,2,16,,,,,,,,,,,2,1.1,1,,,,,,-0.087962963,-0.259259259,1,0,0,1.1004,Basalt_rect,6,0,6,0,1,
58d4c4c287b2420001263b6a,SCN,2024-06-24_14h35.20.133,LearnStrategy,2023.2.3,Win32,59.52380952,8,2,8,,,,,,,,5,10,,,,,,,,,,,5,1.25,1,,,,,,-0.335185192,-0.405555584,1,0,0,1.25,Obsidian_rect,7,0,7,0,1,
58d4c4c287b2420001263b6a,SCN,2024-06-24_14h35.20.133,LearnStrategy,2023.2.3,Win32,59.52380952,8,2,9,,,,,,,,7,12,,,,,,,,,,,7,2.392,1,,,,,,0.125,-0.40370369,1,0,0,2.392,Peridotite_rect,8,0,8,0,1,
58d4c4c287b2420001263b6a,SCN,2024-06-24_14h35.20.133,LearnStrategy,2023.2.3,Win32,59.52380952,8,2,10,,,,,,,,2,12,,,,,,,,,,,8,1.482,0,,,,,,0.42314812,-0.409259302,1,0,0,1.4821,Pumice_rect,9,0,9,0,1,
58d4c4c287b2420001263b6a,SCN,2024-06-24_14h35.20.133,LearnStrategy,2023.2.3,Win32,59.52380952,8,2,11,,,,,,,,5,08,,,,,,,,,,,5,1.693,1,,,,,,-0.304629608,-0.405555584,1,0,0,1.6932,Obsidian_rect,10,0,10,0,1,
58d4c4c287b2420001263b6a,SCN,2024-06-24_14h35.20.133,LearnStrategy,2023.2.3,Win32,59.52380952,8,2,12,,,,,,,,4,11,,,,,,,,,,,2,1.283,0,,,,,,-0.127777735,-0.262962977,1,0,0,1.2833,Basalt_rect,11,0,11,0,1,
58d4c4c287b2420001263b6a,SCN,2024-06-24_14h35.20.133,LearnStrategy,2023.2.3,Win32,59.52380952,8,2,13,,,,,,,,4,01,,,,,,,,,,,4,9.633,1,,,,,,0.3648149,-0.264814801,1,0,0,9.6327,Gabbro_rect,12,0,12,0,1,
58d4c4c287b2420001263b6a,SCN,2024-06-24_14h35.20.133,LearnStrategy,2023.2.3,Win32,59.52380952,8,2,14,,,,,,,,1,06,,,,,,,,,,,1,2.46,1,,,,,,-0.356481481,-0.258333347,1,0,0,2.4604,Andesite_rect,13,0,13,0,1,
58d4c4c287b2420001263b6a,SCN,2024-06-24_14h35.20.133,LearnStrategy,2023.2.3,Win32,59.52380952,8,2,15,,,,,,,,1,07,,,,,,,,,,,1,1.511,1,,,,,,-0.348148134,-0.241666653,1,0,0,1.5112,Andesite_rect,14,0,14,0,1,
58d4c4c287b2420001263b6a,SCN,2024-06-24_14h35.20.133,LearnStrategy,2023.2.3,Win32,59.52380952,8,2,16,,,,,,,,3,07,,,,,,,,,,,3,2.064,1,,,,,,0.175000014,-0.261111153,1,0,0,2.0642,Diorite_rect,15,0,15,0,1,
58d4c4c287b2420001263b6a,SCN,2024-06-24_14h35.20.133,LearnStrategy,2023.2.3,Win32,59.52380952,9,1,1,0.561111168,0.234259252,1,0,0,1.4776,Pegmatite_10,6,10,5,8,1.478,-0.074074074,-0.404629672,1,0,0,1.9893,Pegmatite_rect,6,1.989,1,0,0,0,0,1,,,,,,,,,,,,,
58d4c4c287b2420001263b6a,SCN,2024-06-24_14h35.20.133,LearnStrategy,2023.2.3,Win32,59.52380952,9,1,2,0.375,0.249074071,1,0,0,2.6672,Diorite_10,3,10,5,7,2.667,0.155555584,-0.262037065,1,0,0,1.3663,Diorite_rect,3,1.366,1,1,0,1,0,1,,,,,,,,,,,,,
58d4c4c287b2420001263b6a,SCN,2024-06-24_14h35.20.133,LearnStrategy,2023.2.3,Win32,59.52380952,9,1,3,0.237963005,0.223148152,1,0,0,1.5033,Pegmatite_03,6,03,5,6,1.503,-0.087962963,-0.404629672,1,0,0,2.139,Pegmatite_rect,6,2.139,1,2,0,2,0,1,,,,,,,,,,,,,
58d4c4c287b2420001263b6a,SCN,2024-06-24_14h35.20.133,LearnStrategy,2023.2.3,Win32,59.52380952,9,1,4,0.095370399,0.225925922,1,0,0,1.3132,Obsidian_14,5,14,5,5,1.313,-0.315740727,-0.397222236,1,0,0,1.689,Obsidian_rect,5,1.689,1,3,0,3,0,1,,,,,,,,,,,,,
58d4c4c287b2420001263b6a,SCN,2024-06-24_14h35.20.133,LearnStrategy,2023.2.3,Win32,59.52380952,9,1,5,-0.057407379,0.240740741,1,0,0,1.4346,Obsidian_09,5,09,5,4,1.435,-0.331481474,-0.385185171,1,0,0,1.2237,Obsidian_rect,5,1.224,1,4,0,4,0,1,,,,,,,,,,,,,
58d4c4c287b2420001263b6a,SCN,2024-06-24_14h35.20.133,LearnStrategy,2023.2.3,Win32,59.52380952,9,1,6,-0.210185157,0.210185175,1,0,0,1.4313,Gabbro_03,4,03,5,3,1.431,0.103703746,-0.257407436,1,0,0,2.404,Diorite_rect,3,2.404,0,5,0,5,0,1,,,,,,,,,,,,,
58d4c4c287b2420001263b6a,SCN,2024-06-24_14h35.20.133,LearnStrategy,2023.2.3,Win32,59.52380952,9,1,7,-0.354629623,0.235185182,1,0,0,1.6887,Andesite_02,1,02,5,2,1.689,-0.398148148,-0.268518519,1,0,0,1.215,Andesite_rect,1,1.215,1,6,0,6,0,1,,,,,,,,,,,,,
58d4c4c287b2420001263b6a,SCN,2024-06-24_14h35.20.133,LearnStrategy,2023.2.3,Win32,59.52380952,9,1,8,-0.532407407,0.230555552,1,0,0,1.1967,Pegmatite_05,6,05,5,1,1.197,-0.133333347,-0.396296325,1,0,0,1.3485,Pegmatite_rect,6,1.349,1,7,0,7,0,1,,,,,,,,,,,,,
58d4c4c287b2420001263b6a,SCN,2024-06-24_14h35.20.133,LearnStrategy,2023.2.3,Win32,59.52380952,9,1,9,-0.220370328,0.227777781,1,0,0,2.1976,Gabbro_03,4,03,5,3,2.198,0.393518519,-0.256481524,1,0,0,2.9413,Gabbro_rect,4,2.941,1,8,0,8,0,1,,,,,,,,,,,,,
58d4c4c287b2420001263b6a,SCN,2024-06-24_14h35.20.133,LearnStrategy,2023.2.3,Win32,59.52380952,9,1,10,0.582407492,0.083333333,1,0,0,2.9054,Diorite_12,3,12,4,8,2.905,0.131481524,-0.242592635,1,0,0,2.1029,Diorite_rect,3,2.103,1,9,0,9,0,1,,,,,,,,,,,,,
58d4c4c287b2420001263b6a,SCN,2024-06-24_14h35.20.133,LearnStrategy,2023.2.3,Win32,59.52380952,9,1,11,0.41851849,0.10833334,1,0,0,1.5805,Peridotite_07,7,07,4,7,1.581,0.156481496,-0.383333347,1,0,0,1.4096,Peridotite_rect,7,1.41,1,10,0,10,0,1,,,,,,,,,,,,,
58d4c4c287b2420001263b6a,SCN,2024-06-24_14h35.20.133,LearnStrategy,2023.2.3,Win32,59.52380952,9,1,12,0.242592635,0.087962963,1,0,0,1.2821,Pumice_10,8,10,4,6,1.282,0.399074131,-0.400925954,1,0,0,1.2699,Pumice_rect,8,1.27,1,11,0,11,0,1,,,,,,,,,,,,,
58d4c4c287b2420001263b6a,SCN,2024-06-24_14h35.20.133,LearnStrategy,2023.2.3,Win32,59.52380952,9,1,13,0.063888903,0.079629616,1,0,0,1.1989,Basalt_09,2,09,4,5,1.199,-0.102777764,-0.258333347,1,0,0,0.9983,Basalt_rect,2,0.998,1,12,0,12,0,1,,,,,,,,,,,,,
58d4c4c287b2420001263b6a,SCN,2024-06-24_14h35.20.133,LearnStrategy,2023.2.3,Win32,59.52380952,9,1,14,-0.223148134,0.082407386,1,0,0,5.2165,Peridotite_13,7,13,4,3,5.216,0.127777806,-0.40370369,1,0,0,8.5139,Peridotite_rect,7,8.514,1,13,0,13,0,1,,,,,,,,,,,,,
58d4c4c287b2420001263b6a,SCN,2024-06-24_14h35.20.133,LearnStrategy,2023.2.3,Win32,59.52380952,9,1,15,-0.418518526,0.112037023,1,0,0,1.6976,Gabbro_16,4,16,4,2,1.698,0.397222307,-0.248148176,1,0,0,4.0435,Gabbro_rect,4,4.043,1,14,0,14,0,1,,,,,,,,,,,,,
58d4c4c287b2420001263b6a,SCN,2024-06-24_14h35.20.133,LearnStrategy,2023.2.3,Win32,59.52380952,9,1,16,-0.550925926,0.092592593,1,0,0,1.4116,Gabbro_14,4,14,4,1,1.412,0.44722225,-0.258333347,1,0,0,1.2858,Gabbro_rect,4,1.286,1,15,0,15,0,1,,,,,,,,,,,,,
58d4c4c287b2420001263b6a,SCN,2024-06-24_14h35.20.133,LearnStrategy,2023.2.3,Win32,59.52380952,9,2,1,,,,,,,,8,09,,,,,,,,,,,8,1.769,1,,,,,,0.330555527,-0.413888931,1,0,0,1.7688,Pumice_rect,0,0,0,0,1,
58d4c4c287b2420001263b6a,SCN,2024-06-24_14h35.20.133,LearnStrategy,2023.2.3,Win32,59.52380952,9,2,2,,,,,,,,4,05,,,,,,,,,,,4,3.889,1,,,,,,0.470370399,-0.235185199,1,0,0,3.8885,Gabbro_rect,1,0,1,0,1,
58d4c4c287b2420001263b6a,SCN,2024-06-24_14h35.20.133,LearnStrategy,2023.2.3,Win32,59.52380952,9,2,3,,,,,,,,4,12,,,,,,,,,,,2,1.882,0,,,,,,-0.108333305,-0.261111153,1,0,0,1.8816,Basalt_rect,2,0,2,0,1,
58d4c4c287b2420001263b6a,SCN,2024-06-24_14h35.20.133,LearnStrategy,2023.2.3,Win32,59.52380952,9,2,4,,,,,,,,5,04,,,,,,,,,,,5,1.158,1,,,,,,-0.380555541,-0.404629672,1,0,0,1.1576,Obsidian_rect,3,0,3,0,1,
58d4c4c287b2420001263b6a,SCN,2024-06-24_14h35.20.133,LearnStrategy,2023.2.3,Win32,59.52380952,9,2,5,,,,,,,,6,15,,,,,,,,,,,6,2.329,1,,,,,,-0.163888861,-0.398148148,1,0,0,2.3285,Pegmatite_rect,4,0,4,0,1,
58d4c4c287b2420001263b6a,SCN,2024-06-24_14h35.20.133,LearnStrategy,2023.2.3,Win32,59.52380952,9,2,6,,,,,,,,2,11,,,,,,,,,,,8,1.658,0,,,,,,0.399074131,-0.381481524,1,0,0,1.658,Pumice_rect,5,0,5,0,1,
58d4c4c287b2420001263b6a,SCN,2024-06-24_14h35.20.133,LearnStrategy,2023.2.3,Win32,59.52380952,9,2,7,,,,,,,,5,05,,,,,,,,,,,5,1.507,1,,,,,,-0.351851852,-0.384259259,1,0,0,1.5066,Obsidian_rect,6,0,6,0,1,
58d4c4c287b2420001263b6a,SCN,2024-06-24_14h35.20.133,LearnStrategy,2023.2.3,Win32,59.52380952,9,2,8,,,,,,,,6,07,,,,,,,,,,,6,1.557,1,,,,,,-0.134259259,-0.420370384,1,0,0,1.5573,Pegmatite_rect,7,0,7,0,1,
58d4c4c287b2420001263b6a,SCN,2024-06-24_14h35.20.133,LearnStrategy,2023.2.3,Win32,59.52380952,9,2,9,,,,,,,,1,10,,,,,,,,,,,8,1.953,0,,,,,,0.400925954,-0.39907406,1,0,0,1.9534,Pumice_rect,8,0,8,0,1,
58d4c4c287b2420001263b6a,SCN,2024-06-24_14h35.20.133,LearnStrategy,2023.2.3,Win32,59.52380952,9,2,10,,,,,,,,7,04,,,,,,,,,,,1,9.11,0,,,,,,-0.36296297,-0.25462963,1,0,0,9.1096,Andesite_rect,9,0,9,0,1,
58d4c4c287b2420001263b6a,SCN,2024-06-24_14h35.20.133,LearnStrategy,2023.2.3,Win32,59.52380952,9,2,11,,,,,,,,1,11,,,,,,,,,,,1,0.988,1,,,,,,-0.36296297,-0.25462963,1,0,0,0.9883,Andesite_rect,10,0,10,0,1,
58d4c4c287b2420001263b6a,SCN,2024-06-24_14h35.20.133,LearnStrategy,2023.2.3,Win32,59.52380952,9,2,12,,,,,,,,7,16,,,,,,,,,,,7,2.482,1,,,,,,0.092592593,-0.400925954,1,0,0,2.4823,Peridotite_rect,11,0,11,0,1,
58d4c4c287b2420001263b6a,SCN,2024-06-24_14h35.20.133,LearnStrategy,2023.2.3,Win32,59.52380952,9,2,13,,,,,,,,8,08,,,,,,,,,,,8,1.1,1,,,,,,0.409259231,-0.40370369,1,0,0,1.1004,Pumice_rect,12,0,12,0,1,
58d4c4c287b2420001263b6a,SCN,2024-06-24_14h35.20.133,LearnStrategy,2023.2.3,Win32,59.52380952,9,2,14,,,,,,,,3,15,,,,,,,,,,,3,1.502,1,,,,,,0.181481467,-0.229629658,1,0,0,1.5023,Diorite_rect,13,0,13,0,1,
58d4c4c287b2420001263b6a,SCN,2024-06-24_14h35.20.133,LearnStrategy,2023.2.3,Win32,59.52380952,9,2,15,,,,,,,,2,06,,,,,,,,,,,2,1.108,1,,,,,,-0.095370328,-0.25,1,0,0,1.1079,Basalt_rect,14,0,14,0,1,
58d4c4c287b2420001263b6a,SCN,2024-06-24_14h35.20.133,LearnStrategy,2023.2.3,Win32,59.52380952,9,2,16,,,,,,,,3,14,,,,,,,,,,,3,3.199,1,,,,,,0.158333319,-0.262962977,1,0,0,3.199,Diorite_rect,15,0,15,0,1,
58d4c4c287b2420001263b6a,SCN,2024-06-24_14h35.20.133,LearnStrategy,2023.2.3,Win32,59.52380952,,,,,,,,,,,,,,,,,,,,,,,,,,,,,,,,,,,,,,,,,,,1
58d4c4c287b2420001263b6a,SCN,2024-06-24_14h35.20.133,LearnStrategy,2023.2.3,Win32,59.52380952,,,,,,,,,,,,,,,,,,,,,,,,,,,,,,,,,,,,,,,,,,,
58d4c4c287b2420001263b6a,SCN,2024-06-24_14h35.20.133,LearnStrategy,2023.2.3,Win32,59.52380952,,,,,,,,,,,1,16,1,1,,,,,,,,,,,,,,,,,,,,,,,,,,,,,
58d4c4c287b2420001263b6a,SCN,2024-06-24_14h35.20.133,LearnStrategy,2023.2.3,Win32,59.52380952,,,,,,,,,,,1,14,1,2,,,,,,,,,,,,,,,,,,,,,,,,,,,,,
58d4c4c287b2420001263b6a,SCN,2024-06-24_14h35.20.133,LearnStrategy,2023.2.3,Win32,59.52380952,,,,,,,,,,,3,13,1,3,,,,,,,,,,,,,,,,,,,,,,,,,,,,,
58d4c4c287b2420001263b6a,SCN,2024-06-24_14h35.20.133,LearnStrategy,2023.2.3,Win32,59.52380952,,,,,,,,,,,7,02,1,4,,,,,,,,,,,,,,,,,,,,,,,,,,,,,
58d4c4c287b2420001263b6a,SCN,2024-06-24_14h35.20.133,LearnStrategy,2023.2.3,Win32,59.52380952,,,,,,,,,,,2,14,1,5,,,,,,,,,,,,,,,,,,,,,,,,,,,,,
58d4c4c287b2420001263b6a,SCN,2024-06-24_14h35.20.133,LearnStrategy,2023.2.3,Win32,59.52380952,,,,,,,,,,,1,05,1,6,,,,,,,,,,,,,,,,,,,,,,,,,,,,,
58d4c4c287b2420001263b6a,SCN,2024-06-24_14h35.20.133,LearnStrategy,2023.2.3,Win32,59.52380952,,,,,,,,,,,5,02,1,7,,,,,,,,,,,,,,,,,,,,,,,,,,,,,
58d4c4c287b2420001263b6a,SCN,2024-06-24_14h35.20.133,LearnStrategy,2023.2.3,Win32,59.52380952,,,,,,,,,,,8,05,1,8,,,,,,,,,,,,,,,,,,,,,,,,,,,,,
58d4c4c287b2420001263b6a,SCN,2024-06-24_14h35.20.133,LearnStrategy,2023.2.3,Win32,59.52380952,,,,,,,,,,,2,05,2,1,,,,,,,,,,,,,,,,,,,,,,,,,,,,,
58d4c4c287b2420001263b6a,SCN,2024-06-24_14h35.20.133,LearnStrategy,2023.2.3,Win32,59.52380952,,,,,,,,,,,7,10,2,2,,,,,,,,,,,,,,,,,,,,,,,,,,,,,
58d4c4c287b2420001263b6a,SCN,2024-06-24_14h35.20.133,LearnStrategy,2023.2.3,Win32,59.52380952,,,,,,,,,,,2,08,2,3,,,,,,,,,,,,,,,,,,,,,,,,,,,,,
58d4c4c287b2420001263b6a,SCN,2024-06-24_14h35.20.133,LearnStrategy,2023.2.3,Win32,59.52380952,,,,,,,,,,,3,09,2,4,,,,,,,,,,,,,,,,,,,,,,,,,,,,,
58d4c4c287b2420001263b6a,SCN,2024-06-24_14h35.20.133,LearnStrategy,2023.2.3,Win32,59.52380952,,,,,,,,,,,4,13,2,5,,,,,,,,,,,,,,,,,,,,,,,,,,,,,
58d4c4c287b2420001263b6a,SCN,2024-06-24_14h35.20.133,LearnStrategy,2023.2.3,Win32,59.52380952,,,,,,,,,,,1,01,2,6,,,,,,,,,,,,,,,,,,,,,,,,,,,,,
58d4c4c287b2420001263b6a,SCN,2024-06-24_14h35.20.133,LearnStrategy,2023.2.3,Win32,59.52380952,,,,,,,,,,,8,14,2,7,,,,,,,,,,,,,,,,,,,,,,,,,,,,,
58d4c4c287b2420001263b6a,SCN,2024-06-24_14h35.20.133,LearnStrategy,2023.2.3,Win32,59.52380952,,,,,,,,,,,5,16,2,8,,,,,,,,,,,,,,,,,,,,,,,,,,,,,
58d4c4c287b2420001263b6a,SCN,2024-06-24_14h35.20.133,LearnStrategy,2023.2.3,Win32,59.52380952,,,,,,,,,,,6,11,3,1,,,,,,,,,,,,,,,,,,,,,,,,,,,,,
58d4c4c287b2420001263b6a,SCN,2024-06-24_14h35.20.133,LearnStrategy,2023.2.3,Win32,59.52380952,,,,,,,,,,,6,13,3,2,,,,,,,,,,,,,,,,,,,,,,,,,,,,,
58d4c4c287b2420001263b6a,SCN,2024-06-24_14h35.20.133,LearnStrategy,2023.2.3,Win32,59.52380952,,,,,,,,,,,8,15,3,3,,,,,,,,,,,,,,,,,,,,,,,,,,,,,
58d4c4c287b2420001263b6a,SCN,2024-06-24_14h35.20.133,LearnStrategy,2023.2.3,Win32,59.52380952,,,,,,,,,,,7,14,3,4,,,,,,,,,,,,,,,,,,,,,,,,,,,,,
58d4c4c287b2420001263b6a,SCN,2024-06-24_14h35.20.133,LearnStrategy,2023.2.3,Win32,59.52380952,,,,,,,,,,,8,04,3,5,,,,,,,,,,,,,,,,,,,,,,,,,,,,,
58d4c4c287b2420001263b6a,SCN,2024-06-24_14h35.20.133,LearnStrategy,2023.2.3,Win32,59.52380952,,,,,,,,,,,5,07,3,6,,,,,,,,,,,,,,,,,,,,,,,,,,,,,
58d4c4c287b2420001263b6a,SCN,2024-06-24_14h35.20.133,LearnStrategy,2023.2.3,Win32,59.52380952,,,,,,,,,,,7,08,3,7,,,,,,,,,,,,,,,,,,,,,,,,,,,,,
58d4c4c287b2420001263b6a,SCN,2024-06-24_14h35.20.133,LearnStrategy,2023.2.3,Win32,59.52380952,,,,,,,,,,,3,06,3,8,,,,,,,,,,,,,,,,,,,,,,,,,,,,,
58d4c4c287b2420001263b6a,SCN,2024-06-24_14h35.20.133,LearnStrategy,2023.2.3,Win32,59.52380952,,,,,,,,,,,4,14,4,1,,,,,,,,,,,,,,,,,,,,,,,,,,,,,
58d4c4c287b2420001263b6a,SCN,2024-06-24_14h35.20.133,LearnStrategy,2023.2.3,Win32,59.52380952,,,,,,,,,,,4,16,4,2,,,,,,,,,,,,,,,,,,,,,,,,,,,,,
58d4c4c287b2420001263b6a,SCN,2024-06-24_14h35.20.133,LearnStrategy,2023.2.3,Win32,59.52380952,,,,,,,,,,,7,13,4,3,,,,,,,,,,,,,,,,,,,,,,,,,,,,,
58d4c4c287b2420001263b6a,SCN,2024-06-24_14h35.20.133,LearnStrategy,2023.2.3,Win32,59.52380952,,,,,,,,,,,5,12,4,4,,,,,,,,,,,,,,,,,,,,,,,,,,,,,
58d4c4c287b2420001263b6a,SCN,2024-06-24_14h35.20.133,LearnStrategy,2023.2.3,Win32,59.52380952,,,,,,,,,,,2,09,4,5,,,,,,,,,,,,,,,,,,,,,,,,,,,,,
58d4c4c287b2420001263b6a,SCN,2024-06-24_14h35.20.133,LearnStrategy,2023.2.3,Win32,59.52380952,,,,,,,,,,,8,10,4,6,,,,,,,,,,,,,,,,,,,,,,,,,,,,,
58d4c4c287b2420001263b6a,SCN,2024-06-24_14h35.20.133,LearnStrategy,2023.2.3,Win32,59.52380952,,,,,,,,,,,7,07,4,7,,,,,,,,,,,,,,,,,,,,,,,,,,,,,
58d4c4c287b2420001263b6a,SCN,2024-06-24_14h35.20.133,LearnStrategy,2023.2.3,Win32,59.52380952,,,,,,,,,,,3,12,4,8,,,,,,,,,,,,,,,,,,,,,,,,,,,,,
58d4c4c287b2420001263b6a,SCN,2024-06-24_14h35.20.133,LearnStrategy,2023.2.3,Win32,59.52380952,,,,,,,,,,,6,05,5,1,,,,,,,,,,,,,,,,,,,,,,,,,,,,,
58d4c4c287b2420001263b6a,SCN,2024-06-24_14h35.20.133,LearnStrategy,2023.2.3,Win32,59.52380952,,,,,,,,,,,1,02,5,2,,,,,,,,,,,,,,,,,,,,,,,,,,,,,
58d4c4c287b2420001263b6a,SCN,2024-06-24_14h35.20.133,LearnStrategy,2023.2.3,Win32,59.52380952,,,,,,,,,,,4,03,5,3,,,,,,,,,,,,,,,,,,,,,,,,,,,,,
58d4c4c287b2420001263b6a,SCN,2024-06-24_14h35.20.133,LearnStrategy,2023.2.3,Win32,59.52380952,,,,,,,,,,,5,09,5,4,,,,,,,,,,,,,,,,,,,,,,,,,,,,,
58d4c4c287b2420001263b6a,SCN,2024-06-24_14h35.20.133,LearnStrategy,2023.2.3,Win32,59.52380952,,,,,,,,,,,5,14,5,5,,,,,,,,,,,,,,,,,,,,,,,,,,,,,
58d4c4c287b2420001263b6a,SCN,2024-06-24_14h35.20.133,LearnStrategy,2023.2.3,Win32,59.52380952,,,,,,,,,,,6,03,5,6,,,,,,,,,,,,,,,,,,,,,,,,,,,,,
58d4c4c287b2420001263b6a,SCN,2024-06-24_14h35.20.133,LearnStrategy,2023.2.3,Win32,59.52380952,,,,,,,,,,,3,10,5,7,,,,,,,,,,,,,,,,,,,,,,,,,,,,,
58d4c4c287b2420001263b6a,SCN,2024-06-24_14h35.20.133,LearnStrategy,2023.2.3,Win32,59.52380952,,,,,,,,,,,6,10,5,8,,,,,,,,,,,,,,,,,,,,,,,,,,,,,
58d4c4c287b2420001263b6a,SCN,2024-06-24_14h35.20.133,LearnStrategy,2023.2.3,Win32,59.52380952,,,,,,,,,,,1,04,6,1,,,,,,,,,,,,,,,,,,,,,,,,,,,,,
58d4c4c287b2420001263b6a,SCN,2024-06-24_14h35.20.133,LearnStrategy,2023.2.3,Win32,59.52380952,,,,,,,,,,,3,16,6,2,,,,,,,,,,,,,,,,,,,,,,,,,,,,,
58d4c4c287b2420001263b6a,SCN,2024-06-24_14h35.20.133,LearnStrategy,2023.2.3,Win32,59.52380952,,,,,,,,,,,2,02,6,3,,,,,,,,,,,,,,,,,,,,,,,,,,,,,
58d4c4c287b2420001263b6a,SCN,2024-06-24_14h35.20.133,LearnStrategy,2023.2.3,Win32,59.52380952,,,,,,,,,,,6,16,6,4,,,,,,,,,,,,,,,,,,,,,,,,,,,,,
58d4c4c287b2420001263b6a,SCN,2024-06-24_14h35.20.133,LearnStrategy,2023.2.3,Win32,59.52380952,,,,,,,,,,,4,09,6,5,,,,,,,,,,,,,,,,,,,,,,,,,,,,,
58d4c4c287b2420001263b6a,SCN,2024-06-24_14h35.20.133,LearnStrategy,2023.2.3,Win32,59.52380952,,,,,,,,,,,8,16,6,6,,,,,,,,,,,,,,,,,,,,,,,,,,,,,
58d4c4c287b2420001263b6a,SCN,2024-06-24_14h35.20.133,LearnStrategy,2023.2.3,Win32,59.52380952,,,,,,,,,,,4,10,6,7,,,,,,,,,,,,,,,,,,,,,,,,,,,,,
58d4c4c287b2420001263b6a,SCN,2024-06-24_14h35.20.133,LearnStrategy,2023.2.3,Win32,59.52380952,,,,,,,,,,,2,10,6,8,,,,,,,,,,,,,,,,,,,,,,,,,,,,,