participant,condition,date,expName,psychopyVersion,OS,frameRate,block,phase,trial,learn_mouse.x,learn_mouse.y,learn_mouse.leftButton,learn_mouse.midButton,learn_mouse.rightButton,learn_mouse.time,learn_mouse.clicked_name,cat,token,row,col,t_select,cat_mouse_l.x,cat_mouse_l.y,cat_mouse_l.leftButton,cat_mouse_l.midButton,cat_mouse_l.rightButton,cat_mouse_l.time,cat_mouse_l.clicked_name,resp,t_resp,corr,train_trials.thisRepN,train_trials.thisTrialN,train_trials.thisN,train_trials.thisIndex,train_trials.ran,cat_mouse_t.x,cat_mouse_t.y,cat_mouse_t.leftButton,cat_mouse_t.midButton,cat_mouse_t.rightButton,cat_mouse_t.time,cat_mouse_t.clicked_name,test_trials.thisRepN,test_trials.thisTrialN,test_trials.thisN,test_trials.thisIndex,test_trials.ran,Bonus
595d19b05b278d00018faa06,SCN,2024-06-20_13h30.04.274,LearnStrategy,2023.2.3,Win32,59.52380952,,,,,,,,,,,,,,,,,,,,,,,,,,,,,,,,,,,,,,,,,,,
595d19b05b278d00018faa06,SCN,2024-06-20_13h30.04.274,LearnStrategy,2023.2.3,Win32,59.52380952,1,1,1,-0.547222208,0.388888889,1,0,0,5.1545,Basalt_02,2,02,6,1,5.154,-0.37962963,-0.256481524,1,0,0,17.6307,Andesite_rect,1,17.631,0,0,0,0,0,1,,,,,,,,,,,,,
595d19b05b278d00018faa06,SCN,2024-06-20_13h30.04.274,LearnStrategy,2023.2.3,Win32,59.52380952,1,1,2,-0.366666653,0.416666667,1,0,0,3.4672,Gabbro_08,4,08,6,2,3.467,0.419444473,-0.412037037,1,0,0,5.5822,Pumice_rect,8,5.582,0,1,0,1,0,1,,,,,,,,,,,,,
595d19b05b278d00018faa06,SCN,2024-06-20_13h30.04.274,LearnStrategy,2023.2.3,Win32,59.52380952,1,1,3,-0.212037051,0.382407409,1,0,0,2.2157,Pegmatite_09,6,09,6,3,2.216,-0.421296296,-0.239814829,1,0,0,12.4547,Andesite_rect,1,12.455,0,2,0,2,0,1,,,,,,,,,,,,,
595d19b05b278d00018faa06,SCN,2024-06-20_13h30.04.274,LearnStrategy,2023.2.3,Win32,59.52380952,1,1,4,-0.061111097,0.37777778,1,0,0,2.9986,Basalt_14,2,14,6,4,2.999,0.114814829,-0.256481524,1,0,0,10.157,Diorite_rect,3,10.157,0,3,0,3,0,1,,,,,,,,,,,,,
595d19b05b278d00018faa06,SCN,2024-06-20_13h30.04.274,LearnStrategy,2023.2.3,Win32,59.52380952,1,1,5,0.080555598,0.399074069,1,0,0,2.3484,Pumice_06,8,06,6,5,2.348,-0.40370369,-0.238888917,1,0,0,8.0427,Andesite_rect,1,8.043,0,4,0,4,0,1,,,,,,,,,,,,,
595d19b05b278d00018faa06,SCN,2024-06-20_13h30.04.274,LearnStrategy,2023.2.3,Win32,59.52380952,1,1,6,0.235185199,0.38518518,1,0,0,1.9964,Diorite_08,3,08,6,6,1.996,0.078703704,-0.405555584,1,0,0,2.8269,Peridotite_rect,7,2.827,0,5,0,5,0,1,,,,,,,,,,,,,
595d19b05b278d00018faa06,SCN,2024-06-20_13h30.04.274,LearnStrategy,2023.2.3,Win32,59.52380952,1,1,7,0.37962963,0.392592589,1,0,0,2.0158,Peridotite_02,7,02,6,7,2.016,0.114814829,-0.406481496,1,0,0,3.8253,Peridotite_rect,7,3.825,1,6,0,6,0,1,,,,,,,,,,,,,
595d19b05b278d00018faa06,SCN,2024-06-20_13h30.04.274,LearnStrategy,2023.2.3,Win32,59.52380952,1,1,8,0.544444473,0.38055555,1,0,0,3.9817,Andesite_04,1,04,6,8,3.982,-0.425925926,-0.249074088,1,0,0,7.321,Andesite_rect,1,7.321,1,7,0,7,0,1,,,,,,,,,,,,,
595d19b05b278d00018faa06,SCN,2024-06-20_13h30.04.274,LearnStrategy,2023.2.3,Win32,59.52380952,1,1,9,-0.567592586,0.234259252,1,0,0,1.8495,Peridotite_05,7,05,5,1,1.849,0.147222236,-0.406481496,1,0,0,7.052,Peridotite_rect,7,7.052,1,8,0,8,0,1,,,,,,,,,,,,,
595d19b05b278d00018faa06,SCN,2024-06-20_13h30.04.274,LearnStrategy,2023.2.3,Win32,59.52380952,1,1,10,-0.387962942,0.2462963,1,0,0,1.6153,Pumice_05,8,05,5,2,1.615,0.381481453,-0.409259302,1,0,0,4.0707,Pumice_rect,8,4.071,1,9,0,9,0,1,,,,,,,,,,,,,
595d19b05b278d00018faa06,SCN,2024-06-20_13h30.04.274,LearnStrategy,2023.2.3,Win32,59.52380952,1,1,11,-0.243518476,0.249074071,1,0,0,1.8812,Gabbro_15,4,15,5,3,1.881,-0.39907406,-0.400000042,1,0,0,5.3139,Obsidian_rect,5,5.314,0,10,0,10,0,1,,,,,,,,,,,,,
595d19b05b278d00018faa06,SCN,2024-06-20_13h30.04.274,LearnStrategy,2023.2.3,Win32,59.52380952,1,1,12,-0.38703703,0.232407411,1,0,0,5.572,Pumice_05,8,05,5,2,5.572,0.42777775,-0.400000042,1,0,0,4.9932,Pumice_rect,8,4.993,1,11,0,11,0,1,,,,,,,,,,,,,
595d19b05b278d00018faa06,SCN,2024-06-20_13h30.04.274,LearnStrategy,2023.2.3,Win32,59.52380952,1,1,13,-0.217592593,0.223148152,1,0,0,3.6659,Gabbro_15,4,15,5,3,3.666,0.345370399,-0.250925912,1,0,0,10.606,Gabbro_rect,4,10.606,1,12,0,12,0,1,,,,,,,,,,,,,
595d19b05b278d00018faa06,SCN,2024-06-20_13h30.04.274,LearnStrategy,2023.2.3,Win32,59.52380952,1,1,14,-0.041666667,0.229629623,1,0,0,2.015,Obsidian_04,5,04,5,4,2.015,-0.369444423,-0.396296325,1,0,0,2.1537,Obsidian_rect,5,2.154,1,13,0,13,0,1,,,,,,,,,,,,,
595d19b05b278d00018faa06,SCN,2024-06-20_13h30.04.274,LearnStrategy,2023.2.3,Win32,59.52380952,1,1,15,0.070370356,0.213888892,1,0,0,2.3993,Peridotite_16,7,16,5,5,2.399,0.108333376,-0.39444443,1,0,0,2.7188,Peridotite_rect,7,2.719,1,14,0,14,0,1,,,,,,,,,,,,,
595d19b05b278d00018faa06,SCN,2024-06-20_13h30.04.274,LearnStrategy,2023.2.3,Win32,59.52380952,1,1,16,0.252777806,0.244444441,1,0,0,1.4322,Pegmatite_05,6,05,5,6,1.432,-0.146296254,-0.389814801,1,0,0,2.6233,Pegmatite_rect,6,2.623,1,15,0,15,0,1,,,,,,,,,,,,,
595d19b05b278d00018faa06,SCN,2024-06-20_13h30.04.274,LearnStrategy,2023.2.3,Win32,59.52380952,1,2,1,,,,,,,,7,04,,,,,,,,,,,7,8.743,1,,,,,,0.117592635,-0.401851866,1,0,0,8.7428,Peridotite_rect,0,0,0,0,1,
595d19b05b278d00018faa06,SCN,2024-06-20_13h30.04.274,LearnStrategy,2023.2.3,Win32,59.52380952,1,2,2,,,,,,,,1,16,,,,,,,,,,,2,7.689,0,,,,,,-0.114814829,-0.258333347,1,0,0,7.6887,Basalt_rect,1,0,1,0,1,
595d19b05b278d00018faa06,SCN,2024-06-20_13h30.04.274,LearnStrategy,2023.2.3,Win32,59.52380952,1,2,3,,,,,,,,8,14,,,,,,,,,,,8,1.547,1,,,,,,0.382407436,-0.412962949,1,0,0,1.5467,Pumice_rect,2,0,2,0,1,
595d19b05b278d00018faa06,SCN,2024-06-20_13h30.04.274,LearnStrategy,2023.2.3,Win32,59.52380952,1,2,4,,,,,,,,2,12,,,,,,,,,,,8,2.815,0,,,,,,0.388888889,-0.406481496,1,0,0,2.8149,Pumice_rect,3,0,3,0,1,
595d19b05b278d00018faa06,SCN,2024-06-20_13h30.04.274,LearnStrategy,2023.2.3,Win32,59.52380952,1,2,5,,,,,,,,7,08,,,,,,,,,,,4,10.527,0,,,,,,0.382407436,-0.25462963,1,0,0,10.5267,Gabbro_rect,4,0,4,0,1,
595d19b05b278d00018faa06,SCN,2024-06-20_13h30.04.274,LearnStrategy,2023.2.3,Win32,59.52380952,1,2,6,,,,,,,,3,11,,,,,,,,,,,6,11.137,0,,,,,,-0.118518476,-0.396296325,1,0,0,11.1367,Pegmatite_rect,5,0,5,0,1,
595d19b05b278d00018faa06,SCN,2024-06-20_13h30.04.274,LearnStrategy,2023.2.3,Win32,59.52380952,1,2,7,,,,,,,,5,02,,,,,,,,,,,5,1.663,1,,,,,,-0.429629608,-0.392592607,1,0,0,1.6632,Obsidian_rect,6,0,6,0,1,
595d19b05b278d00018faa06,SCN,2024-06-20_13h30.04.274,LearnStrategy,2023.2.3,Win32,59.52380952,1,2,8,,,,,,,,2,01,,,,,,,,,,,2,3.415,1,,,,,,-0.132407365,-0.262037065,1,0,0,3.4148,Basalt_rect,7,0,7,0,1,
595d19b05b278d00018faa06,SCN,2024-06-20_13h30.04.274,LearnStrategy,2023.2.3,Win32,59.52380952,1,2,9,,,,,,,,6,12,,,,,,,,,,,6,4.095,1,,,,,,-0.099074046,-0.408333319,1,0,0,4.0949,Pegmatite_rect,8,0,8,0,1,
595d19b05b278d00018faa06,SCN,2024-06-20_13h30.04.274,LearnStrategy,2023.2.3,Win32,59.52380952,1,2,10,,,,,,,,5,08,,,,,,,,,,,5,1.655,1,,,,,,-0.3824074,-0.409259302,1,0,0,1.6554,Obsidian_rect,9,0,9,0,1,
595d19b05b278d00018faa06,SCN,2024-06-20_13h30.04.274,LearnStrategy,2023.2.3,Win32,59.52380952,1,2,11,,,,,,,,3,13,,,,,,,,,,,4,5.974,0,,,,,,0.437962991,-0.25462963,1,0,0,5.9739,Gabbro_rect,10,0,10,0,1,
595d19b05b278d00018faa06,SCN,2024-06-20_13h30.04.274,LearnStrategy,2023.2.3,Win32,59.52380952,1,2,12,,,,,,,,4,10,,,,,,,,,,,2,7.624,0,,,,,,-0.157407407,-0.249074088,1,0,0,7.6236,Basalt_rect,11,0,11,0,1,
595d19b05b278d00018faa06,SCN,2024-06-20_13h30.04.274,LearnStrategy,2023.2.3,Win32,59.52380952,1,2,13,,,,,,,,8,15,,,,,,,,,,,8,8.221,1,,,,,,0.369444529,-0.391666695,1,0,0,8.2208,Pumice_rect,12,0,12,0,1,
595d19b05b278d00018faa06,SCN,2024-06-20_13h30.04.274,LearnStrategy,2023.2.3,Win32,59.52380952,1,2,14,,,,,,,,6,11,,,,,,,,,,,5,3.555,0,,,,,,-0.368518511,-0.39444443,1,0,0,3.5547,Obsidian_rect,13,0,13,0,1,
595d19b05b278d00018faa06,SCN,2024-06-20_13h30.04.274,LearnStrategy,2023.2.3,Win32,59.52380952,1,2,15,,,,,,,,4,01,,,,,,,,,,,1,4.642,0,,,,,,-0.363888882,-0.264814801,1,0,0,4.6425,Andesite_rect,14,0,14,0,1,
595d19b05b278d00018faa06,SCN,2024-06-20_13h30.04.274,LearnStrategy,2023.2.3,Win32,59.52380952,1,2,16,,,,,,,,1,03,,,,,,,,,,,2,8.955,0,,,,,,-0.125925912,-0.252777806,1,0,0,8.9551,Basalt_rect,15,0,15,0,1,
595d19b05b278d00018faa06,SCN,2024-06-20_13h30.04.274,LearnStrategy,2023.2.3,Win32,59.52380952,2,1,1,-0.527777778,-0.276851866,1,0,0,6.8564,Basalt_11,2,11,2,1,6.856,-0.137036995,-0.262962977,1,0,0,3.9633,Basalt_rect,2,3.963,1,0,0,0,0,1,,,,,,,,,,,,,
595d19b05b278d00018faa06,SCN,2024-06-20_13h30.04.274,LearnStrategy,2023.2.3,Win32,59.52380952,2,1,2,0.416666667,-0.252777806,1,0,0,3.6141,Diorite_12,3,12,2,7,3.614,0.375925982,-0.247222265,1,0,0,1.7125,Gabbro_rect,4,1.713,0,1,0,1,0,1,,,,,,,,,,,,,
595d19b05b278d00018faa06,SCN,2024-06-20_13h30.04.274,LearnStrategy,2023.2.3,Win32,59.52380952,2,1,3,0.579629686,-0.27407406,1,0,0,2.9308,Andesite_07,1,07,2,8,2.931,0.10555557,-0.253703718,1,0,0,3.938,Diorite_rect,3,3.938,0,2,0,2,0,1,,,,,,,,,,,,,
595d19b05b278d00018faa06,SCN,2024-06-20_13h30.04.274,LearnStrategy,2023.2.3,Win32,59.52380952,2,1,4,-0.22129631,-0.407407407,1,0,0,5.9719,Obsidian_07,5,07,1,3,5.972,-0.366666653,-0.396296325,1,0,0,1.6841,Obsidian_rect,5,1.684,1,3,0,3,0,1,,,,,,,,,,,,,
595d19b05b278d00018faa06,SCN,2024-06-20_13h30.04.274,LearnStrategy,2023.2.3,Win32,59.52380952,2,1,5,-0.071296268,-0.098148134,1,0,0,3.4302,Andesite_06,1,06,3,4,3.43,-0.331481474,-0.242592635,1,0,0,4.027,Andesite_rect,1,4.027,1,4,0,4,0,1,,,,,,,,,,,,,
595d19b05b278d00018faa06,SCN,2024-06-20_13h30.04.274,LearnStrategy,2023.2.3,Win32,59.52380952,2,1,6,-0.236111111,-0.246296282,1,0,0,3.6812,Diorite_14,3,14,2,3,3.681,-0.364814794,-0.262037065,1,0,0,6.0363,Andesite_rect,1,6.036,0,5,0,5,0,1,,,,,,,,,,,,,
595d19b05b278d00018faa06,SCN,2024-06-20_13h30.04.274,LearnStrategy,2023.2.3,Win32,59.52380952,2,1,7,0.231481481,-0.087962963,1,0,0,2.2148,Andesite_11,1,11,3,6,2.215,0.106481481,-0.252777806,1,0,0,5.971,Diorite_rect,3,5.971,0,6,0,6,0,1,,,,,,,,,,,,,
595d19b05b278d00018faa06,SCN,2024-06-20_13h30.04.274,LearnStrategy,2023.2.3,Win32,59.52380952,2,1,8,-0.39444443,-0.100000028,1,0,0,2.5653,Andesite_05,1,05,3,2,2.565,0.165740755,-0.410185213,1,0,0,5.3186,Peridotite_rect,7,5.319,0,7,0,7,0,1,,,,,,,,,,,,,
595d19b05b278d00018faa06,SCN,2024-06-20_13h30.04.274,LearnStrategy,2023.2.3,Win32,59.52380952,2,1,9,-0.35833334,-0.271296325,1,0,0,3.9989,Pumice_10,8,10,2,2,3.999,0.40833339,-0.390740783,1,0,0,1.8709,Pumice_rect,8,1.871,1,8,0,8,0,1,,,,,,,,,,,,,
595d19b05b278d00018faa06,SCN,2024-06-20_13h30.04.274,LearnStrategy,2023.2.3,Win32,59.52380952,2,1,10,-0.06759255,-0.39907406,1,0,0,4.5829,Gabbro_05,4,05,1,4,4.583,-0.117592564,-0.385185171,1,0,0,6.6377,Pegmatite_rect,6,6.638,0,9,0,9,0,1,,,,,,,,,,,,,
595d19b05b278d00018faa06,SCN,2024-06-20_13h30.04.274,LearnStrategy,2023.2.3,Win32,59.52380952,2,1,11,0.372222194,-0.118518547,1,0,0,5.348,Pegmatite_13,6,13,3,7,5.348,0.362037094,-0.246296282,1,0,0,5.5522,Gabbro_rect,4,5.552,0,10,0,10,0,1,,,,,,,,,,,,,
595d19b05b278d00018faa06,SCN,2024-06-20_13h30.04.274,LearnStrategy,2023.2.3,Win32,59.52380952,2,1,12,-0.550925926,-0.093518504,1,0,0,2.6495,Peridotite_10,7,10,3,1,2.649,-0.162962949,-0.387037065,1,0,0,4.4756,Pegmatite_rect,6,4.476,0,11,0,11,0,1,,,,,,,,,,,,,
595d19b05b278d00018faa06,SCN,2024-06-20_13h30.04.274,LearnStrategy,2023.2.3,Win32,59.52380952,2,1,13,-0.233333305,0.070370356,1,0,0,3.8164,Diorite_06,3,06,4,3,3.816,0.387963048,-0.239814829,1,0,0,5.4787,Gabbro_rect,4,5.479,0,12,0,12,0,1,,,,,,,,,,,,,
595d19b05b278d00018faa06,SCN,2024-06-20_13h30.04.274,LearnStrategy,2023.2.3,Win32,59.52380952,2,1,14,-0.543518526,-0.234259288,1,0,0,5.1162,Basalt_11,2,11,2,1,5.116,-0.17777775,-0.239814829,1,0,0,3.195,Basalt_rect,2,3.195,1,13,0,13,0,1,,,,,,,,,,,,,
595d19b05b278d00018faa06,SCN,2024-06-20_13h30.04.274,LearnStrategy,2023.2.3,Win32,59.52380952,2,1,15,-0.078703704,-0.405555584,1,0,0,2.3468,Gabbro_05,4,05,1,4,2.347,0.125925912,-0.259259259,1,0,0,7.3905,Diorite_rect,3,7.39,0,14,0,14,0,1,,,,,,,,,,,,,
595d19b05b278d00018faa06,SCN,2024-06-20_13h30.04.274,LearnStrategy,2023.2.3,Win32,59.52380952,2,1,16,0.204629616,-0.09629631,1,0,0,2.8151,Andesite_11,1,11,3,6,2.815,0.125,-0.247222265,1,0,0,7.4412,Diorite_rect,3,7.441,0,15,0,15,0,1,,,,,,,,,,,,,
595d19b05b278d00018faa06,SCN,2024-06-20_13h30.04.274,LearnStrategy,2023.2.3,Win32,59.52380952,2,2,1,,,,,,,,7,12,,,,,,,,,,,7,5.55,1,,,,,,0.152777778,-0.393518519,1,0,0,5.55,Peridotite_rect,0,0,0,0,1,
595d19b05b278d00018faa06,SCN,2024-06-20_13h30.04.274,LearnStrategy,2023.2.3,Win32,59.52380952,2,2,2,,,,,,,,7,14,,,,,,,,,,,4,7.679,0,,,,,,0.376851824,-0.257407436,1,0,0,7.679,Gabbro_rect,1,0,1,0,1,
595d19b05b278d00018faa06,SCN,2024-06-20_13h30.04.274,LearnStrategy,2023.2.3,Win32,59.52380952,2,2,3,,,,,,,,8,03,,,,,,,,,,,8,6.819,1,,,,,,0.350926011,-0.411111125,1,0,0,6.8192,Pumice_rect,2,0,2,0,1,
595d19b05b278d00018faa06,SCN,2024-06-20_13h30.04.274,LearnStrategy,2023.2.3,Win32,59.52380952,2,2,4,,,,,,,,5,12,,,,,,,,,,,5,1.405,1,,,,,,-0.465740734,-0.409259302,1,0,0,1.4052,Obsidian_rect,3,0,3,0,1,
595d19b05b278d00018faa06,SCN,2024-06-20_13h30.04.274,LearnStrategy,2023.2.3,Win32,59.52380952,2,2,5,,,,,,,,8,13,,,,,,,,,,,8,9.327,1,,,,,,0.381481453,-0.407407407,1,0,0,9.3269,Pumice_rect,4,0,4,0,1,
595d19b05b278d00018faa06,SCN,2024-06-20_13h30.04.274,LearnStrategy,2023.2.3,Win32,59.52380952,2,2,6,,,,,,,,2,16,,,,,,,,,,,2,2.847,1,,,,,,-0.111111111,-0.246296282,1,0,0,2.8471,Basalt_rect,5,0,5,0,1,
595d19b05b278d00018faa06,SCN,2024-06-20_13h30.04.274,LearnStrategy,2023.2.3,Win32,59.52380952,2,2,7,,,,,,,,2,09,,,,,,,,,,,2,3.43,1,,,,,,-0.123148106,-0.262037065,1,0,0,3.4302,Basalt_rect,6,0,6,0,1,
595d19b05b278d00018faa06,SCN,2024-06-20_13h30.04.274,LearnStrategy,2023.2.3,Win32,59.52380952,2,2,8,,,,,,,,4,14,,,,,,,,,,,3,8.488,0,,,,,,0.093518504,-0.25,1,0,0,8.4881,Diorite_rect,7,0,7,0,1,
595d19b05b278d00018faa06,SCN,2024-06-20_13h30.04.274,LearnStrategy,2023.2.3,Win32,59.52380952,2,2,9,,,,,,,,5,09,,,,,,,,,,,5,1.384,1,,,,,,-0.364814794,-0.412962949,1,0,0,1.3835,Obsidian_rect,8,0,8,0,1,
595d19b05b278d00018faa06,SCN,2024-06-20_13h30.04.274,LearnStrategy,2023.2.3,Win32,59.52380952,2,2,10,,,,,,,,3,07,,,,,,,,,,,6,5.81,0,,,,,,-0.102777764,-0.407407407,1,0,0,5.81,Pegmatite_rect,9,0,9,0,1,
595d19b05b278d00018faa06,SCN,2024-06-20_13h30.04.274,LearnStrategy,2023.2.3,Win32,59.52380952,2,2,11,,,,,,,,6,06,,,,,,,,,,,6,2.006,1,,,,,,-0.128703718,-0.406481496,1,0,0,2.0061,Pegmatite_rect,10,0,10,0,1,
595d19b05b278d00018faa06,SCN,2024-06-20_13h30.04.274,LearnStrategy,2023.2.3,Win32,59.52380952,2,2,12,,,,,,,,4,13,,,,,,,,,,,4,6.574,1,,,,,,0.327777863,-0.239814829,1,0,0,6.5741,Gabbro_rect,11,0,11,0,1,
595d19b05b278d00018faa06,SCN,2024-06-20_13h30.04.274,LearnStrategy,2023.2.3,Win32,59.52380952,2,2,13,,,,,,,,6,08,,,,,,,,,,,6,2.689,1,,,,,,-0.141666624,-0.412037037,1,0,0,2.6895,Pegmatite_rect,12,0,12,0,1,
595d19b05b278d00018faa06,SCN,2024-06-20_13h30.04.274,LearnStrategy,2023.2.3,Win32,59.52380952,2,2,14,,,,,,,,3,15,,,,,,,,,,,1,4.021,0,,,,,,-0.345370363,-0.257407436,1,0,0,4.0209,Andesite_rect,13,0,13,0,1,
595d19b05b278d00018faa06,SCN,2024-06-20_13h30.04.274,LearnStrategy,2023.2.3,Win32,59.52380952,2,2,15,,,,,,,,1,02,,,,,,,,,,,3,7.105,0,,,,,,0.158333319,-0.261111153,1,0,0,7.105,Diorite_rect,14,0,14,0,1,
595d19b05b278d00018faa06,SCN,2024-06-20_13h30.04.274,LearnStrategy,2023.2.3,Win32,59.52380952,2,2,16,,,,,,,,1,09,,,,,,,,,,,6,10.671,0,,,,,,-0.138888889,-0.401851866,1,0,0,10.6715,Pegmatite_rect,15,0,15,0,1,
595d19b05b278d00018faa06,SCN,2024-06-20_13h30.04.274,LearnStrategy,2023.2.3,Win32,59.52380952,3,1,1,-0.091666681,0.065740727,1,0,0,2.2322,Pegmatite_15,6,15,4,4,2.232,-0.123148106,-0.384259259,1,0,0,2.7264,Pegmatite_rect,6,2.726,1,0,0,0,0,1,,,,,,,,,,,,,
595d19b05b278d00018faa06,SCN,2024-06-20_13h30.04.274,LearnStrategy,2023.2.3,Win32,59.52380952,3,1,2,0.097222222,-0.099074116,1,0,0,2.9006,Peridotite_15,7,15,3,5,2.901,0.118518547,-0.401851866,1,0,0,1.8373,Peridotite_rect,7,1.837,1,1,0,1,0,1,,,,,,,,,,,,,
595d19b05b278d00018faa06,SCN,2024-06-20_13h30.04.274,LearnStrategy,2023.2.3,Win32,59.52380952,3,1,3,0.239814829,-0.389814801,1,0,0,2.782,Diorite_02,3,02,1,6,2.782,0.112037023,-0.248148176,1,0,0,6.344,Diorite_rect,3,6.344,1,2,0,2,0,1,,,,,,,,,,,,,
595d19b05b278d00018faa06,SCN,2024-06-20_13h30.04.274,LearnStrategy,2023.2.3,Win32,59.52380952,3,1,4,-0.077777792,-0.094444487,1,0,0,3.2506,Andesite_06,1,06,3,4,3.251,-0.327777757,-0.244444459,1,0,0,2.7736,Andesite_rect,1,2.774,1,3,0,3,0,1,,,,,,,,,,,,,
595d19b05b278d00018faa06,SCN,2024-06-20_13h30.04.274,LearnStrategy,2023.2.3,Win32,59.52380952,3,1,5,0.404629601,-0.103703746,1,0,0,3.2419,Pegmatite_13,6,13,3,7,3.242,-0.162962949,-0.412037037,1,0,0,5.7434,Pegmatite_rect,6,5.743,1,4,0,4,0,1,,,,,,,,,,,,,
595d19b05b278d00018faa06,SCN,2024-06-20_13h30.04.274,LearnStrategy,2023.2.3,Win32,59.52380952,3,1,6,0.570370427,-0.067592586,1,0,0,2.9994,Basalt_05,2,05,3,8,2.999,-0.114814829,-0.238888917,1,0,0,2.9915,Basalt_rect,2,2.991,1,5,0,5,0,1,,,,,,,,,,,,,
595d19b05b278d00018faa06,SCN,2024-06-20_13h30.04.274,LearnStrategy,2023.2.3,Win32,59.52380952,3,1,7,-0.083333333,-0.097222222,1,0,0,2.0492,Andesite_06,1,06,3,4,2.049,-0.361111111,-0.243518547,1,0,0,3.7505,Andesite_rect,1,3.75,1,6,0,6,0,1,,,,,,,,,,,,,
595d19b05b278d00018faa06,SCN,2024-06-20_13h30.04.274,LearnStrategy,2023.2.3,Win32,59.52380952,3,1,8,-0.217592593,0.063888868,1,0,0,2.1681,Diorite_06,3,06,4,3,2.168,0.137037065,-0.242592635,1,0,0,4.0304,Diorite_rect,3,4.03,1,7,0,7,0,1,,,,,,,,,,,,,
595d19b05b278d00018faa06,SCN,2024-06-20_13h30.04.274,LearnStrategy,2023.2.3,Win32,59.52380952,3,1,9,-0.213888875,-0.263888889,1,0,0,2.6993,Diorite_14,3,14,2,3,2.699,0.112037023,-0.243518547,1,0,0,2.3051,Diorite_rect,3,2.305,1,8,0,8,0,1,,,,,,,,,,,,,
595d19b05b278d00018faa06,SCN,2024-06-20_13h30.04.274,LearnStrategy,2023.2.3,Win32,59.52380952,3,1,10,-0.373148141,0.091666645,1,0,0,2.3812,Obsidian_16,5,16,4,2,2.381,-0.35833334,-0.388888889,1,0,0,1.7045,Obsidian_rect,5,1.705,1,9,0,9,0,1,,,,,,,,,,,,,
595d19b05b278d00018faa06,SCN,2024-06-20_13h30.04.274,LearnStrategy,2023.2.3,Win32,59.52380952,3,1,11,-0.54074072,0.094444452,1,0,0,1.7659,Diorite_09,3,09,4,1,1.766,-0.357407393,-0.246296282,1,0,0,2.1689,Andesite_rect,1,2.169,0,10,0,10,0,1,,,,,,,,,,,,,
595d19b05b278d00018faa06,SCN,2024-06-20_13h30.04.274,LearnStrategy,2023.2.3,Win32,59.52380952,3,1,12,0.532407407,-0.24537037,1,0,0,5.3318,Andesite_07,1,07,2,8,5.332,-0.3824074,-0.258333347,1,0,0,2.4048,Andesite_rect,1,2.405,1,11,0,11,0,1,,,,,,,,,,,,,
595d19b05b278d00018faa06,SCN,2024-06-20_13h30.04.274,LearnStrategy,2023.2.3,Win32,59.52380952,3,1,13,0.216666681,-0.090740734,1,0,0,3.3663,Andesite_11,1,11,3,6,3.366,0.136111153,-0.250925912,1,0,0,1.8571,Diorite_rect,3,1.857,0,12,0,12,0,1,,,,,,,,,,,,,
595d19b05b278d00018faa06,SCN,2024-06-20_13h30.04.274,LearnStrategy,2023.2.3,Win32,59.52380952,3,1,14,-0.246296282,0.234259252,1,0,0,3.1204,Gabbro_15,4,15,5,3,3.12,-0.128703718,-0.417592578,1,0,0,5.2259,Pegmatite_rect,6,5.226,0,13,0,13,0,1,,,,,,,,,,,,,
595d19b05b278d00018faa06,SCN,2024-06-20_13h30.04.274,LearnStrategy,2023.2.3,Win32,59.52380952,3,1,15,0.363888917,0.072222215,1,0,0,3.6324,Gabbro_09,4,09,4,7,3.632,0.350926011,-0.259259259,1,0,0,8.7039,Gabbro_rect,4,8.704,1,14,0,14,0,1,,,,,,,,,,,,,
595d19b05b278d00018faa06,SCN,2024-06-20_13h30.04.274,LearnStrategy,2023.2.3,Win32,59.52380952,3,1,16,0.371296353,-0.383333347,1,0,0,3.2483,Pumice_04,8,04,1,7,3.248,0.377777806,-0.395370413,1,0,0,2.6263,Pumice_rect,8,2.626,1,15,0,15,0,1,,,,,,,,,,,,,
595d19b05b278d00018faa06,SCN,2024-06-20_13h30.04.274,LearnStrategy,2023.2.3,Win32,59.52380952,3,2,1,,,,,,,,4,03,,,,,,,,,,,1,4.577,0,,,,,,-0.342592593,-0.25462963,1,0,0,4.5768,Andesite_rect,0,0,0,0,1,
595d19b05b278d00018faa06,SCN,2024-06-20_13h30.04.274,LearnStrategy,2023.2.3,Win32,59.52380952,3,2,2,,,,,,,,1,10,,,,,,,,,,,1,5.238,1,,,,,,-0.354629623,-0.262962977,1,0,0,5.2381,Andesite_rect,1,0,1,0,1,
595d19b05b278d00018faa06,SCN,2024-06-20_13h30.04.274,LearnStrategy,2023.2.3,Win32,59.52380952,3,2,3,,,,,,,,4,11,,,,,,,,,,,3,6.255,0,,,,,,0.119444459,-0.237963005,1,0,0,6.2553,Diorite_rect,2,0,2,0,1,
595d19b05b278d00018faa06,SCN,2024-06-20_13h30.04.274,LearnStrategy,2023.2.3,Win32,59.52380952,3,2,4,,,,,,,,8,16,,,,,,,,,,,4,7.838,0,,,,,,0.338888945,-0.251851894,1,0,0,7.8383,Gabbro_rect,3,0,3,0,1,
595d19b05b278d00018faa06,SCN,2024-06-20_13h30.04.274,LearnStrategy,2023.2.3,Win32,59.52380952,3,2,5,,,,,,,,2,10,,,,,,,,,,,2,13.813,1,,,,,,-0.119444459,-0.263888889,1,0,0,13.8126,Basalt_rect,4,0,4,0,1,
595d19b05b278d00018faa06,SCN,2024-06-20_13h30.04.274,LearnStrategy,2023.2.3,Win32,59.52380952,3,2,6,,,,,,,,5,14,,,,,,,,,,,5,1.93,1,,,,,,-0.39166666,-0.411111125,1,0,0,1.9305,Obsidian_rect,5,0,5,0,1,
595d19b05b278d00018faa06,SCN,2024-06-20_13h30.04.274,LearnStrategy,2023.2.3,Win32,59.52380952,3,2,7,,,,,,,,1,14,,,,,,,,,,,3,3.786,0,,,,,,0.092592593,-0.253703718,1,0,0,3.7861,Diorite_rect,6,0,6,0,1,
595d19b05b278d00018faa06,SCN,2024-06-20_13h30.04.274,LearnStrategy,2023.2.3,Win32,59.52380952,3,2,8,,,,,,,,6,07,,,,,,,,,,,7,8.222,0,,,,,,0.114814829,-0.412037037,1,0,0,8.2215,Peridotite_rect,7,0,7,0,1,
595d19b05b278d00018faa06,SCN,2024-06-20_13h30.04.274,LearnStrategy,2023.2.3,Win32,59.52380952,3,2,9,,,,,,,,6,10,,,,,,,,,,,7,8.885,0,,,,,,0.150000042,-0.40370369,1,0,0,8.8849,Peridotite_rect,8,0,8,0,1,
595d19b05b278d00018faa06,SCN,2024-06-20_13h30.04.274,LearnStrategy,2023.2.3,Win32,59.52380952,3,2,10,,,,,,,,3,16,,,,,,,,,,,3,7.221,1,,,,,,0.068518533,-0.261111153,1,0,0,7.2206,Diorite_rect,9,0,9,0,1,
595d19b05b278d00018faa06,SCN,2024-06-20_13h30.04.274,LearnStrategy,2023.2.3,Win32,59.52380952,3,2,11,,,,,,,,8,09,,,,,,,,,,,8,1.589,1,,,,,,0.384259259,-0.402777778,1,0,0,1.5892,Pumice_rect,10,0,10,0,1,
595d19b05b278d00018faa06,SCN,2024-06-20_13h30.04.274,LearnStrategy,2023.2.3,Win32,59.52380952,3,2,12,,,,,,,,2,08,,,,,,,,,,,2,2.146,1,,,,,,-0.14444443,-0.26944443,1,0,0,2.1458,Basalt_rect,11,0,11,0,1,
595d19b05b278d00018faa06,SCN,2024-06-20_13h30.04.274,LearnStrategy,2023.2.3,Win32,59.52380952,3,2,13,,,,,,,,3,10,,,,,,,,,,,4,7.598,0,,,,,,0.417592649,-0.256481524,1,0,0,7.5978,Gabbro_rect,12,0,12,0,1,
595d19b05b278d00018faa06,SCN,2024-06-20_13h30.04.274,LearnStrategy,2023.2.3,Win32,59.52380952,3,2,14,,,,,,,,5,06,,,,,,,,,,,5,1.816,1,,,,,,-0.400000007,-0.396296325,1,0,0,1.8162,Obsidian_rect,13,0,13,0,1,
595d19b05b278d00018faa06,SCN,2024-06-20_13h30.04.274,LearnStrategy,2023.2.3,Win32,59.52380952,3,2,15,,,,,,,,7,13,,,,,,,,,,,7,1.499,1,,,,,,0.131481524,-0.405555584,1,0,0,1.4994,Peridotite_rect,14,0,14,0,1,
595d19b05b278d00018faa06,SCN,2024-06-20_13h30.04.274,LearnStrategy,2023.2.3,Win32,59.52380952,3,2,16,,,,,,,,7,06,,,,,,,,,,,7,5.94,1,,,,,,0.114814829,-0.412037037,1,0,0,5.9396,Peridotite_rect,15,0,15,0,1,
595d19b05b278d00018faa06,SCN,2024-06-20_13h30.04.274,LearnStrategy,2023.2.3,Win32,59.52380952,4,1,1,0.266666695,0.083333333,1,0,0,3.3307,Pegmatite_16,6,16,4,6,3.331,-0.10092594,-0.383333347,1,0,0,5.0602,Pegmatite_rect,6,5.06,1,0,0,0,0,1,,,,,,,,,,,,,
595d19b05b278d00018faa06,SCN,2024-06-20_13h30.04.274,LearnStrategy,2023.2.3,Win32,59.52380952,4,1,2,0.395370342,-0.080555563,1,0,0,3.115,Pegmatite_13,6,13,3,7,3.115,0.443518603,-0.241666653,1,0,0,2.328,Gabbro_rect,4,2.328,0,1,0,1,0,1,,,,,,,,,,,,,
595d19b05b278d00018faa06,SCN,2024-06-20_13h30.04.274,LearnStrategy,2023.2.3,Win32,59.52380952,4,1,3,0.249074088,-0.086111104,1,0,0,3.3314,Andesite_11,1,11,3,6,3.331,-0.378703683,-0.240740741,1,0,0,2.4837,Andesite_rect,1,2.484,1,2,0,2,0,1,,,,,,,,,,,,,
595d19b05b278d00018faa06,SCN,2024-06-20_13h30.04.274,LearnStrategy,2023.2.3,Win32,59.52380952,4,1,4,0.214814857,-0.412962949,1,0,0,2.6889,Diorite_02,3,02,1,6,2.689,-0.349074081,-0.250925912,1,0,0,7.17,Andesite_rect,1,7.17,0,3,0,3,0,1,,,,,,,,,,,,,
595d19b05b278d00018faa06,SCN,2024-06-20_13h30.04.274,LearnStrategy,2023.2.3,Win32,59.52380952,4,1,5,-0.209259245,0.059259238,1,0,0,2.9975,Diorite_06,3,06,4,3,2.997,0.125925912,-0.235185199,1,0,0,2.6015,Diorite_rect,3,2.601,1,4,0,4,0,1,,,,,,,,,,,,,
595d19b05b278d00018faa06,SCN,2024-06-20_13h30.04.274,LearnStrategy,2023.2.3,Win32,59.52380952,4,1,6,0.208333333,-0.085185192,1,0,0,3.1036,Andesite_11,1,11,3,6,3.104,0.108333376,-0.249074088,1,0,0,2.2976,Diorite_rect,3,2.298,0,5,0,5,0,1,,,,,,,,,,,,,
595d19b05b278d00018faa06,SCN,2024-06-20_13h30.04.274,LearnStrategy,2023.2.3,Win32,59.52380952,4,1,7,-0.385185171,-0.091666681,1,0,0,1.9828,Andesite_05,1,05,3,2,1.983,-0.361111111,-0.233333376,1,0,0,4.9798,Andesite_rect,1,4.98,1,6,0,6,0,1,,,,,,,,,,,,,
595d19b05b278d00018faa06,SCN,2024-06-20_13h30.04.274,LearnStrategy,2023.2.3,Win32,59.52380952,4,1,8,-0.222222222,-0.373148176,1,0,0,4.7658,Obsidian_07,5,07,1,3,4.766,-0.321296303,-0.383333347,1,0,0,1.8667,Obsidian_rect,5,1.867,1,7,0,7,0,1,,,,,,,,,,,,,
595d19b05b278d00018faa06,SCN,2024-06-20_13h30.04.274,LearnStrategy,2023.2.3,Win32,59.52380952,4,1,9,-0.206481439,0.25,1,0,0,2.7481,Gabbro_15,4,15,5,3,2.748,0.376851824,-0.234259288,1,0,0,1.6803,Gabbro_rect,4,1.68,1,8,0,8,0,1,,,,,,,,,,,,,
595d19b05b278d00018faa06,SCN,2024-06-20_13h30.04.274,LearnStrategy,2023.2.3,Win32,59.52380952,4,1,10,0.389814871,-0.086111104,1,0,0,3.3972,Pegmatite_13,6,13,3,7,3.397,0.409259231,-0.249074088,1,0,0,2.1078,Gabbro_rect,4,2.108,0,9,0,9,0,1,,,,,,,,,,,,,
595d19b05b278d00018faa06,SCN,2024-06-20_13h30.04.274,LearnStrategy,2023.2.3,Win32,59.52380952,4,1,11,0.07222225,0.37685185,1,0,0,3.0198,Pumice_06,8,06,6,5,3.02,0.384259259,-0.402777778,1,0,0,1.46,Pumice_rect,8,1.46,1,10,0,10,0,1,,,,,,,,,,,,,
595d19b05b278d00018faa06,SCN,2024-06-20_13h30.04.274,LearnStrategy,2023.2.3,Win32,59.52380952,4,1,12,-0.532407407,0.081481474,1,0,0,3.3543,Diorite_09,3,09,4,1,3.354,0.424074102,-0.241666653,1,0,0,3.1144,Gabbro_rect,4,3.114,0,11,0,11,0,1,,,,,,,,,,,,,
595d19b05b278d00018faa06,SCN,2024-06-20_13h30.04.274,LearnStrategy,2023.2.3,Win32,59.52380952,4,1,13,-0.205555527,-0.251851894,1,0,0,2.8314,Diorite_14,3,14,2,3,2.831,0.123148176,-0.229629658,1,0,0,1.6265,Diorite_rect,3,1.626,1,12,0,12,0,1,,,,,,,,,,,,,
595d19b05b278d00018faa06,SCN,2024-06-20_13h30.04.274,LearnStrategy,2023.2.3,Win32,59.52380952,4,1,14,-0.535185178,0.076851845,1,0,0,1.7548,Diorite_09,3,09,4,1,1.755,0.141666695,-0.242592635,1,0,0,2.4118,Diorite_rect,3,2.412,1,13,0,13,0,1,,,,,,,,,,,,,
595d19b05b278d00018faa06,SCN,2024-06-20_13h30.04.274,LearnStrategy,2023.2.3,Win32,59.52380952,4,1,15,-0.231481481,-0.237037023,1,0,0,2.4153,Diorite_14,3,14,2,3,2.415,-0.344444452,-0.24537037,1,0,0,2.4602,Andesite_rect,1,2.46,0,14,0,14,0,1,,,,,,,,,,,,,
595d19b05b278d00018faa06,SCN,2024-06-20_13h30.04.274,LearnStrategy,2023.2.3,Win32,59.52380952,4,1,16,0.070370356,-0.393518519,1,0,0,3.8323,Pegmatite_03,6,03,1,5,3.832,0.067592621,-0.412962949,1,0,0,6.5302,Peridotite_rect,7,6.53,0,15,0,15,0,1,,,,,,,,,,,,,
595d19b05b278d00018faa06,SCN,2024-06-20_13h30.04.274,LearnStrategy,2023.2.3,Win32,59.52380952,4,2,1,,,,,,,,6,11,,,,,,,,,,,6,4.37,1,,,,,,-0.115740741,-0.406481496,1,0,0,4.3695,Pegmatite_rect,0,0,0,0,1,
595d19b05b278d00018faa06,SCN,2024-06-20_13h30.04.274,LearnStrategy,2023.2.3,Win32,59.52380952,4,2,2,,,,,,,,8,15,,,,,,,,,,,8,1.61,1,,,,,,0.37037037,-0.40370369,1,0,0,1.6102,Pumice_rect,1,0,1,0,1,
595d19b05b278d00018faa06,SCN,2024-06-20_13h30.04.274,LearnStrategy,2023.2.3,Win32,59.52380952,4,2,3,,,,,,,,2,09,,,,,,,,,,,2,2.704,1,,,,,,-0.114814829,-0.243518547,1,0,0,2.7042,Basalt_rect,2,0,2,0,1,
595d19b05b278d00018faa06,SCN,2024-06-20_13h30.04.274,LearnStrategy,2023.2.3,Win32,59.52380952,4,2,4,,,,,,,,4,11,,,,,,,,,,,2,9.173,0,,,,,,-0.111111111,-0.256481524,1,0,0,9.173,Basalt_rect,3,0,3,0,1,
595d19b05b278d00018faa06,SCN,2024-06-20_13h30.04.274,LearnStrategy,2023.2.3,Win32,59.52380952,4,2,5,,,,,,,,1,02,,,,,,,,,,,4,2.738,0,,,,,,0.411111196,-0.256481524,1,0,0,2.738,Gabbro_rect,4,0,4,0,1,
595d19b05b278d00018faa06,SCN,2024-06-20_13h30.04.274,LearnStrategy,2023.2.3,Win32,59.52380952,4,2,6,,,,,,,,5,02,,,,,,,,,,,5,1.643,1,,,,,,-0.362037023,-0.39907406,1,0,0,1.6432,Obsidian_rect,5,0,5,0,1,
595d19b05b278d00018faa06,SCN,2024-06-20_13h30.04.274,LearnStrategy,2023.2.3,Win32,59.52380952,4,2,7,,,,,,,,8,14,,,,,,,,,,,8,1.46,1,,,,,,0.358333305,-0.411111125,1,0,0,1.4601,Pumice_rect,6,0,6,0,1,
595d19b05b278d00018faa06,SCN,2024-06-20_13h30.04.274,LearnStrategy,2023.2.3,Win32,59.52380952,4,2,8,,,,,,,,7,14,,,,,,,,,,,4,3.126,0,,,,,,0.330555527,-0.264814801,1,0,0,3.1261,Gabbro_rect,7,0,7,0,1,
595d19b05b278d00018faa06,SCN,2024-06-20_13h30.04.274,LearnStrategy,2023.2.3,Win32,59.52380952,4,2,9,,,,,,,,6,12,,,,,,,,,,,6,3.908,1,,,,,,-0.112037023,-0.400000042,1,0,0,3.9076,Pegmatite_rect,8,0,8,0,1,
595d19b05b278d00018faa06,SCN,2024-06-20_13h30.04.274,LearnStrategy,2023.2.3,Win32,59.52380952,4,2,10,,,,,,,,3,16,,,,,,,,,,,3,5.152,1,,,,,,0.10555557,-0.256481524,1,0,0,5.1525,Diorite_rect,9,0,9,0,1,
595d19b05b278d00018faa06,SCN,2024-06-20_13h30.04.274,LearnStrategy,2023.2.3,Win32,59.52380952,4,2,11,,,,,,,,3,11,,,,,,,,,,,1,2.355,0,,,,,,-0.337037016,-0.251851894,1,0,0,2.3551,Andesite_rect,10,0,10,0,1,
595d19b05b278d00018faa06,SCN,2024-06-20_13h30.04.274,LearnStrategy,2023.2.3,Win32,59.52380952,4,2,12,,,,,,,,4,01,,,,,,,,,,,1,4.894,0,,,,,,-0.340740734,-0.247222265,1,0,0,4.8943,Andesite_rect,11,0,11,0,1,
595d19b05b278d00018faa06,SCN,2024-06-20_13h30.04.274,LearnStrategy,2023.2.3,Win32,59.52380952,4,2,13,,,,,,,,1,09,,,,,,,,,,,3,12.255,0,,,,,,0.073148162,-0.250925912,1,0,0,12.2551,Diorite_rect,12,0,12,0,1,
595d19b05b278d00018faa06,SCN,2024-06-20_13h30.04.274,LearnStrategy,2023.2.3,Win32,59.52380952,4,2,14,,,,,,,,5,06,,,,,,,,,,,5,1.491,1,,,,,,-0.337037016,-0.40370369,1,0,0,1.4909,Obsidian_rect,13,0,13,0,1,
595d19b05b278d00018faa06,SCN,2024-06-20_13h30.04.274,LearnStrategy,2023.2.3,Win32,59.52380952,4,2,15,,,,,,,,7,04,,,,,,,,,,,7,4.362,1,,,,,,0.098148134,-0.392592607,1,0,0,4.3616,Peridotite_rect,14,0,14,0,1,
595d19b05b278d00018faa06,SCN,2024-06-20_13h30.04.274,LearnStrategy,2023.2.3,Win32,59.52380952,4,2,16,,,,,,,,2,12,,,,,,,,,,,8,1.749,0,,,,,,0.349074046,-0.406481496,1,0,0,1.7492,Pumice_rect,15,0,15,0,1,
595d19b05b278d00018faa06,SCN,2024-06-20_13h30.04.274,LearnStrategy,2023.2.3,Win32,59.52380952,5,1,1,0.064814815,-0.09629631,1,0,0,3.2966,Peridotite_15,7,15,3,5,3.297,0.10555557,-0.389814801,1,0,0,2.1604,Peridotite_rect,7,2.16,1,0,0,0,0,1,,,,,,,,,,,,,
595d19b05b278d00018faa06,SCN,2024-06-20_13h30.04.274,LearnStrategy,2023.2.3,Win32,59.52380952,5,1,2,-0.083333333,0.082407386,1,0,0,2.0485,Pegmatite_15,6,15,4,4,2.048,-0.107407393,-0.383333347,1,0,0,5.9939,Pegmatite_rect,6,5.994,1,1,0,1,0,1,,,,,,,,,,,,,
595d19b05b278d00018faa06,SCN,2024-06-20_13h30.04.274,LearnStrategy,2023.2.3,Win32,59.52380952,5,1,3,0.42314812,0.076851845,1,0,0,2.1483,Gabbro_09,4,09,4,7,2.148,-0.169444402,-0.23055557,1,0,0,2.6107,Basalt_rect,2,2.611,0,2,0,2,0,1,,,,,,,,,,,,,
595d19b05b278d00018faa06,SCN,2024-06-20_13h30.04.274,LearnStrategy,2023.2.3,Win32,59.52380952,5,1,4,0.257407436,-0.085185192,1,0,0,2.7,Andesite_11,1,11,3,6,2.7,0.09629631,-0.237963005,1,0,0,3.5118,Diorite_rect,3,3.512,0,3,0,3,0,1,,,,,,,,,,,,,
595d19b05b278d00018faa06,SCN,2024-06-20_13h30.04.274,LearnStrategy,2023.2.3,Win32,59.52380952,5,1,5,0.366666723,-0.114814829,1,0,0,2.6492,Pegmatite_13,6,13,3,7,2.649,-0.14444443,-0.421296296,1,0,0,1.8542,Pegmatite_rect,6,1.854,1,4,0,4,0,1,,,,,,,,,,,,,
595d19b05b278d00018faa06,SCN,2024-06-20_13h30.04.274,LearnStrategy,2023.2.3,Win32,59.52380952,5,1,6,-0.248148106,-0.093518504,1,0,0,1.4613,Basalt_06,2,06,3,3,1.461,-0.156481496,-0.244444459,1,0,0,3.0401,Basalt_rect,2,3.04,1,5,0,5,0,1,,,,,,,,,,,,,
595d19b05b278d00018faa06,SCN,2024-06-20_13h30.04.274,LearnStrategy,2023.2.3,Win32,59.52380952,5,1,7,-0.073148162,0.392592589,1,0,0,2.5159,Basalt_14,2,14,6,4,2.516,0.384259259,-0.244444459,1,0,0,2.6232,Gabbro_rect,4,2.623,0,6,0,6,0,1,,,,,,,,,,,,,
595d19b05b278d00018faa06,SCN,2024-06-20_13h30.04.274,LearnStrategy,2023.2.3,Win32,59.52380952,5,1,8,-0.25,0.062037044,1,0,0,2.4567,Diorite_06,3,06,4,3,2.457,-0.383333312,-0.233333376,1,0,0,2.4219,Andesite_rect,1,2.422,0,7,0,7,0,1,,,,,,,,,,,,,
595d19b05b278d00018faa06,SCN,2024-06-20_13h30.04.274,LearnStrategy,2023.2.3,Win32,59.52380952,5,1,9,0.262037065,-0.243518547,1,0,0,2.8995,Gabbro_12,4,12,2,6,2.899,-0.109259217,-0.248148176,1,0,0,2.205,Basalt_rect,2,2.205,0,8,0,8,0,1,,,,,,,,,,,,,
595d19b05b278d00018faa06,SCN,2024-06-20_13h30.04.274,LearnStrategy,2023.2.3,Win32,59.52380952,5,1,10,-0.551851838,-0.101851852,1,0,0,1.9811,Peridotite_10,7,10,3,1,1.981,0.113888917,-0.388888889,1,0,0,5.0096,Peridotite_rect,7,5.01,1,9,0,9,0,1,,,,,,,,,,,,,
595d19b05b278d00018faa06,SCN,2024-06-20_13h30.04.274,LearnStrategy,2023.2.3,Win32,59.52380952,5,1,11,0.08148151,0.093518504,1,0,0,1.7646,Basalt_04,2,04,4,5,1.765,-0.141666624,-0.233333376,1,0,0,2.0935,Basalt_rect,2,2.093,1,10,0,10,0,1,,,,,,,,,,,,,
595d19b05b278d00018faa06,SCN,2024-06-20_13h30.04.274,LearnStrategy,2023.2.3,Win32,59.52380952,5,1,12,0.372222194,-0.262962977,1,0,0,3.1289,Diorite_12,3,12,2,7,3.129,-0.349074081,-0.239814829,1,0,0,3.0222,Andesite_rect,1,3.022,0,11,0,11,0,1,,,,,,,,,,,,,
595d19b05b278d00018faa06,SCN,2024-06-20_13h30.04.274,LearnStrategy,2023.2.3,Win32,59.52380952,5,1,13,-0.058333291,-0.239814829,1,0,0,4.3472,Peridotite_07,7,07,2,4,4.347,0.190740727,-0.396296325,1,0,0,6.5204,Peridotite_rect,7,6.52,1,12,0,12,0,1,,,,,,,,,,,,,
595d19b05b278d00018faa06,SCN,2024-06-20_13h30.04.274,LearnStrategy,2023.2.3,Win32,59.52380952,5,1,14,-0.412962949,0.078703704,1,0,0,2.9804,Obsidian_16,5,16,4,2,2.98,-0.375925912,-0.39444443,1,0,0,1.6869,Obsidian_rect,5,1.687,1,13,0,13,0,1,,,,,,,,,,,,,
595d19b05b278d00018faa06,SCN,2024-06-20_13h30.04.274,LearnStrategy,2023.2.3,Win32,59.52380952,5,1,15,-0.52407406,0.087037016,1,0,0,2.3574,Diorite_09,3,09,4,1,2.357,-0.353703711,-0.237963005,1,0,0,1.9021,Andesite_rect,1,1.902,0,14,0,14,0,1,,,,,,,,,,,,,
595d19b05b278d00018faa06,SCN,2024-06-20_13h30.04.274,LearnStrategy,2023.2.3,Win32,59.52380952,5,1,16,0.588888945,-0.251851894,1,0,0,3.4949,Andesite_07,1,07,2,8,3.495,-0.346296275,-0.256481524,1,0,0,1.586,Andesite_rect,1,1.586,1,15,0,15,0,1,,,,,,,,,,,,,
595d19b05b278d00018faa06,SCN,2024-06-20_13h30.04.274,LearnStrategy,2023.2.3,Win32,59.52380952,5,2,1,,,,,,,,5,14,,,,,,,,,,,5,4.07,1,,,,,,-0.396296289,-0.386111153,1,0,0,4.0696,Obsidian_rect,0,0,0,0,1,
595d19b05b278d00018faa06,SCN,2024-06-20_13h30.04.274,LearnStrategy,2023.2.3,Win32,59.52380952,5,2,2,,,,,,,,6,06,,,,,,,,,,,6,3.656,1,,,,,,-0.138888889,-0.409259302,1,0,0,3.6562,Pegmatite_rect,1,0,1,0,1,
595d19b05b278d00018faa06,SCN,2024-06-20_13h30.04.274,LearnStrategy,2023.2.3,Win32,59.52380952,5,2,3,,,,,,,,6,07,,,,,,,,,,,7,13.138,0,,,,,,0.163888931,-0.398148148,1,0,0,13.1376,Peridotite_rect,2,0,2,0,1,
595d19b05b278d00018faa06,SCN,2024-06-20_13h30.04.274,LearnStrategy,2023.2.3,Win32,59.52380952,5,2,4,,,,,,,,3,13,,,,,,,,,,,1,5.704,0,,,,,,-0.349074081,-0.24537037,1,0,0,5.7038,Andesite_rect,3,0,3,0,1,
595d19b05b278d00018faa06,SCN,2024-06-20_13h30.04.274,LearnStrategy,2023.2.3,Win32,59.52380952,5,2,5,,,,,,,,8,16,,,,,,,,,,,8,4.164,1,,,,,,0.41851849,-0.384259259,1,0,0,4.1636,Pumice_rect,4,0,4,0,1,
595d19b05b278d00018faa06,SCN,2024-06-20_13h30.04.274,LearnStrategy,2023.2.3,Win32,59.52380952,5,2,6,,,,,,,,1,10,,,,,,,,,,,4,7.454,0,,,,,,0.391666695,-0.247222265,1,0,0,7.4544,Gabbro_rect,5,0,5,0,1,
595d19b05b278d00018faa06,SCN,2024-06-20_13h30.04.274,LearnStrategy,2023.2.3,Win32,59.52380952,5,2,7,,,,,,,,2,10,,,,,,,,,,,4,4.131,0,,,,,,0.358333305,-0.248148176,1,0,0,4.1313,Gabbro_rect,6,0,6,0,1,
595d19b05b278d00018faa06,SCN,2024-06-20_13h30.04.274,LearnStrategy,2023.2.3,Win32,59.52380952,5,2,8,,,,,,,,4,14,,,,,,,,,,,4,7.022,1,,,,,,0.363888917,-0.251851894,1,0,0,7.0217,Gabbro_rect,7,0,7,0,1,
595d19b05b278d00018faa06,SCN,2024-06-20_13h30.04.274,LearnStrategy,2023.2.3,Win32,59.52380952,5,2,9,,,,,,,,7,06,,,,,,,,,,,7,2.863,1,,,,,,0.115740741,-0.404629672,1,0,0,2.8634,Peridotite_rect,8,0,8,0,1,
595d19b05b278d00018faa06,SCN,2024-06-20_13h30.04.274,LearnStrategy,2023.2.3,Win32,59.52380952,5,2,10,,,,,,,,3,07,,,,,,,,,,,1,6.146,0,,,,,,-0.355555534,-0.247222265,1,0,0,6.1463,Andesite_rect,9,0,9,0,1,
595d19b05b278d00018faa06,SCN,2024-06-20_13h30.04.274,LearnStrategy,2023.2.3,Win32,59.52380952,5,2,11,,,,,,,,5,08,,,,,,,,,,,5,1.562,1,,,,,,-0.337962963,-0.406481496,1,0,0,1.5624,Obsidian_rect,10,0,10,0,1,
595d19b05b278d00018faa06,SCN,2024-06-20_13h30.04.274,LearnStrategy,2023.2.3,Win32,59.52380952,5,2,12,,,,,,,,7,13,,,,,,,,,,,7,1.684,1,,,,,,0.118518547,-0.396296325,1,0,0,1.6843,Peridotite_rect,11,0,11,0,1,
595d19b05b278d00018faa06,SCN,2024-06-20_13h30.04.274,LearnStrategy,2023.2.3,Win32,59.52380952,5,2,13,,,,,,,,8,13,,,,,,,,,,,4,3.177,0,,,,,,0.349074046,-0.258333347,1,0,0,3.1772,Gabbro_rect,12,0,12,0,1,
595d19b05b278d00018faa06,SCN,2024-06-20_13h30.04.274,LearnStrategy,2023.2.3,Win32,59.52380952,5,2,14,,,,,,,,4,10,,,,,,,,,,,4,18.888,1,,,,,,0.344444416,-0.236111111,1,0,0,18.8884,Gabbro_rect,13,0,13,0,1,
595d19b05b278d00018faa06,SCN,2024-06-20_13h30.04.274,LearnStrategy,2023.2.3,Win32,59.52380952,5,2,15,,,,,,,,2,01,,,,,,,,,,,2,1.491,1,,,,,,-0.084259245,-0.250925912,1,0,0,1.4911,Basalt_rect,14,0,14,0,1,
595d19b05b278d00018faa06,SCN,2024-06-20_13h30.04.274,LearnStrategy,2023.2.3,Win32,59.52380952,5,2,16,,,,,,,,1,14,,,,,,,,,,,3,7.993,0,,,,,,0.14907406,-0.260185171,1,0,0,7.993,Diorite_rect,15,0,15,0,1,
595d19b05b278d00018faa06,SCN,2024-06-20_13h30.04.274,LearnStrategy,2023.2.3,Win32,59.52380952,6,1,1,0.066666709,-0.08888891,1,0,0,2.6884,Peridotite_15,7,15,3,5,2.688,0.125,-0.387037065,1,0,0,2.2367,Peridotite_rect,7,2.237,1,0,0,0,0,1,,,,,,,,,,,,,
595d19b05b278d00018faa06,SCN,2024-06-20_13h30.04.274,LearnStrategy,2023.2.3,Win32,59.52380952,6,1,2,-0.260185171,0.074999986,1,0,0,2.3834,Diorite_06,3,06,4,3,2.383,0.146296325,-0.260185171,1,0,0,2.6851,Diorite_rect,3,2.685,1,1,0,1,0,1,,,,,,,,,,,,,
595d19b05b278d00018faa06,SCN,2024-06-20_13h30.04.274,LearnStrategy,2023.2.3,Win32,59.52380952,6,1,3,0.070370356,0.069444444,1,0,0,2.1841,Basalt_04,2,04,4,5,2.184,-0.103703675,-0.236111111,1,0,0,1.9698,Basalt_rect,2,1.97,1,2,0,2,0,1,,,,,,,,,,,,,
595d19b05b278d00018faa06,SCN,2024-06-20_13h30.04.274,LearnStrategy,2023.2.3,Win32,59.52380952,6,1,4,0.202777792,0.079629616,1,0,0,2.1963,Pegmatite_16,6,16,4,6,2.196,-0.125925912,-0.384259259,1,0,0,1.5597,Pegmatite_rect,6,1.56,1,3,0,3,0,1,,,,,,,,,,,,,
595d19b05b278d00018faa06,SCN,2024-06-20_13h30.04.274,LearnStrategy,2023.2.3,Win32,59.52380952,6,1,5,0.365740741,-0.090740734,1,0,0,2.0822,Pegmatite_13,6,13,3,7,2.082,-0.107407393,-0.404629672,1,0,0,1.3682,Pegmatite_rect,6,1.368,1,4,0,4,0,1,,,,,,,,,,,,,
595d19b05b278d00018faa06,SCN,2024-06-20_13h30.04.274,LearnStrategy,2023.2.3,Win32,59.52380952,6,1,6,0.547222279,-0.261111153,1,0,0,2.1321,Andesite_07,1,07,2,8,2.132,0.116666653,-0.253703718,1,0,0,1.7858,Diorite_rect,3,1.786,0,5,0,5,0,1,,,,,,,,,,,,,
595d19b05b278d00018faa06,SCN,2024-06-20_13h30.04.274,LearnStrategy,2023.2.3,Win32,59.52380952,6,1,7,0.349074046,-0.259259259,1,0,0,2.621,Diorite_12,3,12,2,7,2.621,0.095370399,-0.247222265,1,0,0,2.9338,Diorite_rect,3,2.934,1,6,0,6,0,1,,,,,,,,,,,,,
595d19b05b278d00018faa06,SCN,2024-06-20_13h30.04.274,LearnStrategy,2023.2.3,Win32,59.52380952,6,1,8,-0.3824074,-0.097222222,1,0,0,2.579,Andesite_05,1,05,3,2,2.579,-0.37037037,-0.246296282,1,0,0,3.9215,Andesite_rect,1,3.922,1,7,0,7,0,1,,,,,,,,,,,,,
595d19b05b278d00018faa06,SCN,2024-06-20_13h30.04.274,LearnStrategy,2023.2.3,Win32,59.52380952,6,1,9,-0.3675926,-0.25,1,0,0,1.8649,Pumice_10,8,10,2,2,1.865,0.335185157,-0.390740783,1,0,0,2.051,Pumice_rect,8,2.051,1,8,0,8,0,1,,,,,,,,,,,,,
595d19b05b278d00018faa06,SCN,2024-06-20_13h30.04.274,LearnStrategy,2023.2.3,Win32,59.52380952,6,1,10,-0.371296282,-0.392592607,1,0,0,2.3839,Obsidian_05,5,05,1,2,2.384,-0.371296282,-0.392592607,1,0,0,1.3251,Obsidian_rect,5,1.325,1,9,0,9,0,1,,,,,,,,,,,,,
595d19b05b278d00018faa06,SCN,2024-06-20_13h30.04.274,LearnStrategy,2023.2.3,Win32,59.52380952,6,1,11,-0.058333291,0.087037016,1,0,0,1.7658,Pegmatite_15,6,15,4,4,1.766,-0.110185199,-0.392592607,1,0,0,1.6602,Pegmatite_rect,6,1.66,1,10,0,10,0,1,,,,,,,,,,,,,
595d19b05b278d00018faa06,SCN,2024-06-20_13h30.04.274,LearnStrategy,2023.2.3,Win32,59.52380952,6,1,12,0.084259245,0.215740734,1,0,0,2.6723,Peridotite_16,7,16,5,5,2.672,0.173148191,-0.395370413,1,0,0,2.2228,Peridotite_rect,7,2.223,1,11,0,11,0,1,,,,,,,,,,,,,
595d19b05b278d00018faa06,SCN,2024-06-20_13h30.04.274,LearnStrategy,2023.2.3,Win32,59.52380952,6,1,13,-0.509259259,0.094444452,1,0,0,3.6989,Diorite_09,3,09,4,1,3.699,0.151851866,-0.261111153,1,0,0,3.3417,Diorite_rect,3,3.342,1,12,0,12,0,1,,,,,,,,,,,,,
595d19b05b278d00018faa06,SCN,2024-06-20_13h30.04.274,LearnStrategy,2023.2.3,Win32,59.52380952,6,1,14,0.540740826,0.072222215,1,0,0,2.2632,Andesite_01,1,01,4,8,2.263,-0.347222222,-0.238888917,1,0,0,2.2434,Andesite_rect,1,2.243,1,13,0,13,0,1,,,,,,,,,,,,,
595d19b05b278d00018faa06,SCN,2024-06-20_13h30.04.274,LearnStrategy,2023.2.3,Win32,59.52380952,6,1,15,0.213888875,-0.085185192,1,0,0,1.9316,Andesite_11,1,11,3,6,1.932,0.162962949,-0.238888917,1,0,0,1.1236,Diorite_rect,3,1.124,0,14,0,14,0,1,,,,,,,,,,,,,
595d19b05b278d00018faa06,SCN,2024-06-20_13h30.04.274,LearnStrategy,2023.2.3,Win32,59.52380952,6,1,16,0.510185242,0.081481474,1,0,0,2.4674,Andesite_01,1,01,4,8,2.467,-0.356481481,-0.262037065,1,0,0,1.5889,Andesite_rect,1,1.589,1,15,0,15,0,1,,,,,,,,,,,,,
595d19b05b278d00018faa06,SCN,2024-06-20_13h30.04.274,LearnStrategy,2023.2.3,Win32,59.52380952,6,2,1,,,,,,,,6,10,,,,,,,,,,,6,11.642,1,,,,,,-0.073148162,-0.417592578,1,0,0,11.6424,Pegmatite_rect,0,0,0,0,1,
595d19b05b278d00018faa06,SCN,2024-06-20_13h30.04.274,LearnStrategy,2023.2.3,Win32,59.52380952,6,2,2,,,,,,,,2,16,,,,,,,,,,,8,4.653,0,,,,,,0.419444473,-0.402777778,1,0,0,4.6532,Pumice_rect,1,0,1,0,1,
595d19b05b278d00018faa06,SCN,2024-06-20_13h30.04.274,LearnStrategy,2023.2.3,Win32,59.52380952,6,2,3,,,,,,,,2,08,,,,,,,,,,,2,2.855,1,,,,,,-0.106481481,-0.250925912,1,0,0,2.8549,Basalt_rect,2,0,2,0,1,
595d19b05b278d00018faa06,SCN,2024-06-20_13h30.04.274,LearnStrategy,2023.2.3,Win32,59.52380952,6,2,4,,,,,,,,3,10,,,,,,,,,,,3,7.477,1,,,,,,0.110185199,-0.256481524,1,0,0,7.4774,Diorite_rect,3,0,3,0,1,
595d19b05b278d00018faa06,SCN,2024-06-20_13h30.04.274,LearnStrategy,2023.2.3,Win32,59.52380952,6,2,5,,,,,,,,5,09,,,,,,,,,,,5,1.537,1,,,,,,-0.338888875,-0.402777778,1,0,0,1.5368,Obsidian_rect,4,0,4,0,1,
595d19b05b278d00018faa06,SCN,2024-06-20_13h30.04.274,LearnStrategy,2023.2.3,Win32,59.52380952,6,2,6,,,,,,,,7,12,,,,,,,,,,,1,2.878,0,,,,,,-0.366666653,-0.260185171,1,0,0,2.8776,Andesite_rect,5,0,5,0,1,
595d19b05b278d00018faa06,SCN,2024-06-20_13h30.04.274,LearnStrategy,2023.2.3,Win32,59.52380952,6,2,7,,,,,,,,3,15,,,,,,,,,,,4,9.605,0,,,,,,0.358333305,-0.25462963,1,0,0,9.6049,Gabbro_rect,6,0,6,0,1,
595d19b05b278d00018faa06,SCN,2024-06-20_13h30.04.274,LearnStrategy,2023.2.3,Win32,59.52380952,6,2,8,,,,,,,,4,13,,,,,,,,,,,4,3.435,1,,,,,,0.368518547,-0.262037065,1,0,0,3.4347,Gabbro_rect,7,0,7,0,1,
595d19b05b278d00018faa06,SCN,2024-06-20_13h30.04.274,LearnStrategy,2023.2.3,Win32,59.52380952,6,2,9,,,,,,,,4,03,,,,,,,,,,,3,3.519,0,,,,,,0.087962963,-0.267592607,1,0,0,3.519,Diorite_rect,8,0,8,0,1,
595d19b05b278d00018faa06,SCN,2024-06-20_13h30.04.274,LearnStrategy,2023.2.3,Win32,59.52380952,6,2,10,,,,,,,,6,08,,,,,,,,,,,6,2.805,1,,,,,,-0.127777735,-0.39907406,1,0,0,2.8053,Pegmatite_rect,9,0,9,0,1,
595d19b05b278d00018faa06,SCN,2024-06-20_13h30.04.274,LearnStrategy,2023.2.3,Win32,59.52380952,6,2,11,,,,,,,,7,08,,,,,,,,,,,1,15.802,0,,,,,,-0.344444452,-0.260185171,1,0,0,15.8019,Andesite_rect,10,0,10,0,1,
595d19b05b278d00018faa06,SCN,2024-06-20_13h30.04.274,LearnStrategy,2023.2.3,Win32,59.52380952,6,2,12,,,,,,,,8,03,,,,,,,,,,,8,4.337,1,,,,,,0.353703675,-0.416666667,1,0,0,4.3367,Pumice_rect,11,0,11,0,1,
595d19b05b278d00018faa06,SCN,2024-06-20_13h30.04.274,LearnStrategy,2023.2.3,Win32,59.52380952,6,2,13,,,,,,,,1,16,,,,,,,,,,,1,3.615,1,,,,,,-0.353703711,-0.259259259,1,0,0,3.6148,Andesite_rect,12,0,12,0,1,
595d19b05b278d00018faa06,SCN,2024-06-20_13h30.04.274,LearnStrategy,2023.2.3,Win32,59.52380952,6,2,14,,,,,,,,1,03,,,,,,,,,,,3,2.455,0,,,,,,0.131481524,-0.267592607,1,0,0,2.4553,Diorite_rect,13,0,13,0,1,
595d19b05b278d00018faa06,SCN,2024-06-20_13h30.04.274,LearnStrategy,2023.2.3,Win32,59.52380952,6,2,15,,,,,,,,8,09,,,,,,,,,,,8,1.627,1,,,,,,0.349074046,-0.40370369,1,0,0,1.6266,Pumice_rect,14,0,14,0,1,
595d19b05b278d00018faa06,SCN,2024-06-20_13h30.04.274,LearnStrategy,2023.2.3,Win32,59.52380952,6,2,16,,,,,,,,5,12,,,,,,,,,,,5,1.45,1,,,,,,-0.357407393,-0.406481496,1,0,0,1.45,Obsidian_rect,15,0,15,0,1,
595d19b05b278d00018faa06,SCN,2024-06-20_13h30.04.274,LearnStrategy,2023.2.3,Win32,59.52380952,7,1,1,-0.233333305,0.38333333,1,0,0,2.7156,Pegmatite_09,6,09,6,3,2.716,-0.122222194,-0.397222236,1,0,0,4.577,Pegmatite_rect,6,4.577,1,0,0,0,0,1,,,,,,,,,,,,,
595d19b05b278d00018faa06,SCN,2024-06-20_13h30.04.274,LearnStrategy,2023.2.3,Win32,59.52380952,7,1,2,-0.52870369,0.375925921,1,0,0,2.1075,Basalt_02,2,02,6,1,2.108,-0.101851852,-0.258333347,1,0,0,1.5914,Basalt_rect,2,1.591,1,1,0,1,0,1,,,,,,,,,,,,,
595d19b05b278d00018faa06,SCN,2024-06-20_13h30.04.274,LearnStrategy,2023.2.3,Win32,59.52380952,7,1,3,-0.37037037,0.392592589,1,0,0,2.1988,Gabbro_08,4,08,6,2,2.199,0.37962963,-0.263888889,1,0,0,4.9098,Gabbro_rect,4,4.91,1,2,0,2,0,1,,,,,,,,,,,,,
595d19b05b278d00018faa06,SCN,2024-06-20_13h30.04.274,LearnStrategy,2023.2.3,Win32,59.52380952,7,1,4,0.414814843,0.224074063,1,0,0,3.1644,Pumice_02,8,02,5,7,3.164,0.412963019,-0.402777778,1,0,0,1.6377,Pumice_rect,8,1.638,1,3,0,3,0,1,,,,,,,,,,,,,
595d19b05b278d00018faa06,SCN,2024-06-20_13h30.04.274,LearnStrategy,2023.2.3,Win32,59.52380952,7,1,5,0.544444473,0.230555552,1,0,0,1.4316,Pumice_08,8,08,5,8,1.432,0.351851852,-0.232407393,1,0,0,4.4424,Gabbro_rect,4,4.442,0,4,0,4,0,1,,,,,,,,,,,,,
595d19b05b278d00018faa06,SCN,2024-06-20_13h30.04.274,LearnStrategy,2023.2.3,Win32,59.52380952,7,1,6,0.397222307,0.234259252,1,0,0,1.5077,Pumice_02,8,02,5,7,1.508,0.424074102,-0.388888889,1,0,0,1.8627,Pumice_rect,8,1.863,1,5,0,5,0,1,,,,,,,,,,,,,
595d19b05b278d00018faa06,SCN,2024-06-20_13h30.04.274,LearnStrategy,2023.2.3,Win32,59.52380952,7,1,7,0.243518547,0.225925922,1,0,0,1.6646,Pegmatite_05,6,05,5,6,1.665,-0.115740741,-0.406481496,1,0,0,2.5544,Pegmatite_rect,6,2.554,1,6,0,6,0,1,,,,,,,,,,,,,
595d19b05b278d00018faa06,SCN,2024-06-20_13h30.04.274,LearnStrategy,2023.2.3,Win32,59.52380952,7,1,8,0.212962963,0.230555552,1,0,0,2.182,Pegmatite_05,6,05,5,6,2.182,-0.152777778,-0.391666695,1,0,0,2.6851,Pegmatite_rect,6,2.685,1,7,0,7,0,1,,,,,,,,,,,,,
595d19b05b278d00018faa06,SCN,2024-06-20_13h30.04.274,LearnStrategy,2023.2.3,Win32,59.52380952,7,1,9,0.087962963,0.217592593,1,0,0,1.3817,Peridotite_16,7,16,5,5,1.382,0.106481481,-0.407407407,1,0,0,2.7766,Peridotite_rect,7,2.777,1,8,0,8,0,1,,,,,,,,,,,,,
595d19b05b278d00018faa06,SCN,2024-06-20_13h30.04.274,LearnStrategy,2023.2.3,Win32,59.52380952,7,1,10,-0.075925898,0.227777781,1,0,0,2.3155,Obsidian_04,5,04,5,4,2.315,-0.356481481,-0.385185171,1,0,0,1.5585,Obsidian_rect,5,1.558,1,9,0,9,0,1,,,,,,,,,,,,,
595d19b05b278d00018faa06,SCN,2024-06-20_13h30.04.274,LearnStrategy,2023.2.3,Win32,59.52380952,7,1,11,-0.24537037,0.244444441,1,0,0,2.1388,Gabbro_15,4,15,5,3,2.139,0.382407436,-0.237963005,1,0,0,6.9726,Gabbro_rect,4,6.973,1,10,0,10,0,1,,,,,,,,,,,,,
595d19b05b278d00018faa06,SCN,2024-06-20_13h30.04.274,LearnStrategy,2023.2.3,Win32,59.52380952,7,1,12,-0.375925912,0.239814811,1,0,0,2.7143,Pumice_05,8,05,5,2,2.714,0.377777806,-0.391666695,1,0,0,4.1431,Pumice_rect,8,4.143,1,11,0,11,0,1,,,,,,,,,,,,,
595d19b05b278d00018faa06,SCN,2024-06-20_13h30.04.274,LearnStrategy,2023.2.3,Win32,59.52380952,7,1,13,-0.552777785,0.255555559,1,0,0,1.7316,Peridotite_05,7,05,5,1,1.732,-0.396296289,-0.236111111,1,0,0,3.0938,Andesite_rect,1,3.094,0,12,0,12,0,1,,,,,,,,,,,,,
595d19b05b278d00018faa06,SCN,2024-06-20_13h30.04.274,LearnStrategy,2023.2.3,Win32,59.52380952,7,1,14,-0.264814801,0.062037044,1,0,0,3.4657,Diorite_06,3,06,4,3,3.466,-0.365740741,-0.247222265,1,0,0,3.2901,Andesite_rect,1,3.29,0,13,0,13,0,1,,,,,,,,,,,,,
595d19b05b278d00018faa06,SCN,2024-06-20_13h30.04.274,LearnStrategy,2023.2.3,Win32,59.52380952,7,1,15,0.387963048,0.074999986,1,0,0,3.2018,Gabbro_09,4,09,4,7,3.202,0.404629601,-0.243518547,1,0,0,6.5769,Gabbro_rect,4,6.577,1,14,0,14,0,1,,,,,,,,,,,,,
595d19b05b278d00018faa06,SCN,2024-06-20_13h30.04.274,LearnStrategy,2023.2.3,Win32,59.52380952,7,1,16,0.525925954,-0.090740734,1,0,0,3.1314,Basalt_05,2,05,3,8,3.131,-0.155555513,-0.247222265,1,0,0,1.6778,Basalt_rect,2,1.678,1,15,0,15,0,1,,,,,,,,,,,,,
595d19b05b278d00018faa06,SCN,2024-06-20_13h30.04.274,LearnStrategy,2023.2.3,Win32,59.52380952,7,2,1,,,,,,,,6,12,,,,,,,,,,,1,14.608,0,,,,,,-0.388888889,-0.251851894,1,0,0,14.6084,Andesite_rect,0,0,0,0,1,
595d19b05b278d00018faa06,SCN,2024-06-20_13h30.04.274,LearnStrategy,2023.2.3,Win32,59.52380952,7,2,2,,,,,,,,5,06,,,,,,,,,,,5,1.854,1,,,,,,-0.375,-0.417592578,1,0,0,1.8543,Obsidian_rect,1,0,1,0,1,
595d19b05b278d00018faa06,SCN,2024-06-20_13h30.04.274,LearnStrategy,2023.2.3,Win32,59.52380952,7,2,3,,,,,,,,4,01,,,,,,,,,,,1,5.307,0,,,,,,-0.324074074,-0.242592635,1,0,0,5.3066,Andesite_rect,2,0,2,0,1,
595d19b05b278d00018faa06,SCN,2024-06-20_13h30.04.274,LearnStrategy,2023.2.3,Win32,59.52380952,7,2,4,,,,,,,,1,02,,,,,,,,,,,4,2.688,0,,,,,,0.353703675,-0.256481524,1,0,0,2.6881,Gabbro_rect,3,0,3,0,1,
595d19b05b278d00018faa06,SCN,2024-06-20_13h30.04.274,LearnStrategy,2023.2.3,Win32,59.52380952,7,2,5,,,,,,,,3,10,,,,,,,,,,,3,2.761,1,,,,,,0.106481481,-0.255555541,1,0,0,2.7608,Diorite_rect,4,0,4,0,1,
595d19b05b278d00018faa06,SCN,2024-06-20_13h30.04.274,LearnStrategy,2023.2.3,Win32,59.52380952,7,2,6,,,,,,,,2,16,,,,,,,,,,,8,6.606,0,,,,,,0.363888917,-0.391666695,1,0,0,6.6055,Pumice_rect,5,0,5,0,1,
595d19b05b278d00018faa06,SCN,2024-06-20_13h30.04.274,LearnStrategy,2023.2.3,Win32,59.52380952,7,2,7,,,,,,,,8,15,,,,,,,,,,,8,4.32,1,,,,,,0.368518547,-0.39444443,1,0,0,4.3204,Pumice_rect,6,0,6,0,1,
595d19b05b278d00018faa06,SCN,2024-06-20_13h30.04.274,LearnStrategy,2023.2.3,Win32,59.52380952,7,2,8,,,,,,,,1,09,,,,,,,,,,,3,7.888,0,,,,,,0.126851894,-0.25462963,1,0,0,7.8884,Diorite_rect,7,0,7,0,1,
595d19b05b278d00018faa06,SCN,2024-06-20_13h30.04.274,LearnStrategy,2023.2.3,Win32,59.52380952,7,2,9,,,,,,,,7,04,,,,,,,,,,,7,3.713,1,,,,,,0.109259288,-0.39444443,1,0,0,3.7126,Peridotite_rect,8,0,8,0,1,
595d19b05b278d00018faa06,SCN,2024-06-20_13h30.04.274,LearnStrategy,2023.2.3,Win32,59.52380952,7,2,10,,,,,,,,6,08,,,,,,,,,,,6,6.049,1,,,,,,-0.17777775,-0.382407436,1,0,0,6.0487,Pegmatite_rect,9,0,9,0,1,
595d19b05b278d00018faa06,SCN,2024-06-20_13h30.04.274,LearnStrategy,2023.2.3,Win32,59.52380952,7,2,11,,,,,,,,5,08,,,,,,,,,,,5,1.738,1,,,,,,-0.355555534,-0.412962949,1,0,0,1.7381,Obsidian_rect,10,0,10,0,1,
595d19b05b278d00018faa06,SCN,2024-06-20_13h30.04.274,LearnStrategy,2023.2.3,Win32,59.52380952,7,2,12,,,,,,,,4,11,,,,,,,,,,,1,9.216,0,,,,,,-0.345370363,-0.262037065,1,0,0,9.2159,Andesite_rect,11,0,11,0,1,
595d19b05b278d00018faa06,SCN,2024-06-20_13h30.04.274,LearnStrategy,2023.2.3,Win32,59.52380952,7,2,13,,,,,,,,2,01,,,,,,,,,,,2,1.496,1,,,,,,-0.108333305,-0.264814801,1,0,0,1.4962,Basalt_rect,12,0,12,0,1,
595d19b05b278d00018faa06,SCN,2024-06-20_13h30.04.274,LearnStrategy,2023.2.3,Win32,59.52380952,7,2,14,,,,,,,,3,15,,,,,,,,,,,4,10.847,0,,,,,,0.406481566,-0.240740741,1,0,0,10.8467,Gabbro_rect,13,0,13,0,1,
595d19b05b278d00018faa06,SCN,2024-06-20_13h30.04.274,LearnStrategy,2023.2.3,Win32,59.52380952,7,2,15,,,,,,,,7,06,,,,,,,,,,,7,2.445,1,,,,,,0.125925912,-0.395370413,1,0,0,2.4445,Peridotite_rect,14,0,14,0,1,
595d19b05b278d00018faa06,SCN,2024-06-20_13h30.04.274,LearnStrategy,2023.2.3,Win32,59.52380952,7,2,16,,,,,,,,8,13,,,,,,,,,,,4,6.026,0,,,,,,0.386111083,-0.251851894,1,0,0,6.0258,Gabbro_rect,15,0,15,0,1,
595d19b05b278d00018faa06,SCN,2024-06-20_13h30.04.274,LearnStrategy,2023.2.3,Win32,59.52380952,8,1,1,-0.231481481,0.235185182,1,0,0,2.674,Gabbro_15,4,15,5,3,2.674,0.40370376,-0.237037023,1,0,0,2.725,Gabbro_rect,4,2.725,1,0,0,0,0,1,,,,,,,,,,,,,
595d19b05b278d00018faa06,SCN,2024-06-20_13h30.04.274,LearnStrategy,2023.2.3,Win32,59.52380952,8,1,2,-0.512962942,0.091666645,1,0,0,2.9418,Diorite_09,3,09,4,1,2.942,-0.39907406,-0.244444459,1,0,0,2.7256,Andesite_rect,1,2.726,0,1,0,1,0,1,,,,,,,,,,,,,
595d19b05b278d00018faa06,SCN,2024-06-20_13h30.04.274,LearnStrategy,2023.2.3,Win32,59.52380952,8,1,3,-0.232407393,-0.264814801,1,0,0,1.5178,Diorite_14,3,14,2,3,1.518,0.121296282,-0.266666695,1,0,0,2.1553,Diorite_rect,3,2.155,1,2,0,2,0,1,,,,,,,,,,,,,
595d19b05b278d00018faa06,SCN,2024-06-20_13h30.04.274,LearnStrategy,2023.2.3,Win32,59.52380952,8,1,4,0.232407393,-0.062037044,1,0,0,1.2825,Andesite_11,1,11,3,6,1.282,0.128703718,-0.25,1,0,0,1.6184,Diorite_rect,3,1.618,0,3,0,3,0,1,,,,,,,,,,,,,
595d19b05b278d00018faa06,SCN,2024-06-20_13h30.04.274,LearnStrategy,2023.2.3,Win32,59.52380952,8,1,5,0.262962977,-0.391666695,1,0,0,2.4142,Diorite_02,3,02,1,6,2.414,-0.352777764,-0.242592635,1,0,0,1.6928,Andesite_rect,1,1.693,0,4,0,4,0,1,,,,,,,,,,,,,
595d19b05b278d00018faa06,SCN,2024-06-20_13h30.04.274,LearnStrategy,2023.2.3,Win32,59.52380952,8,1,6,0.08148151,-0.099074116,1,0,0,1.8982,Peridotite_15,7,15,3,5,1.898,0.150925954,-0.397222236,1,0,0,1.5016,Peridotite_rect,7,1.502,1,5,0,5,0,1,,,,,,,,,,,,,
595d19b05b278d00018faa06,SCN,2024-06-20_13h30.04.274,LearnStrategy,2023.2.3,Win32,59.52380952,8,1,7,0.353703675,-0.39907406,1,0,0,3.336,Pumice_04,8,04,1,7,3.336,0.377777806,-0.380555541,1,0,0,1.3524,Pumice_rect,8,1.352,1,6,0,6,0,1,,,,,,,,,,,,,
595d19b05b278d00018faa06,SCN,2024-06-20_13h30.04.274,LearnStrategy,2023.2.3,Win32,59.52380952,8,1,8,0.524074131,0.084259245,1,0,0,2.7486,Andesite_01,1,01,4,8,2.749,0.361111111,-0.248148176,1,0,0,4.6471,Gabbro_rect,4,4.647,0,7,0,7,0,1,,,,,,,,,,,,,
595d19b05b278d00018faa06,SCN,2024-06-20_13h30.04.274,LearnStrategy,2023.2.3,Win32,59.52380952,8,1,9,-0.388888889,0.218518522,1,0,0,3.0126,Pumice_05,8,05,5,2,3.013,0.338888945,-0.39444443,1,0,0,1.5384,Pumice_rect,8,1.538,1,8,0,8,0,1,,,,,,,,,,,,,
595d19b05b278d00018faa06,SCN,2024-06-20_13h30.04.274,LearnStrategy,2023.2.3,Win32,59.52380952,8,1,10,-0.229629587,0.064814815,1,0,0,2.8146,Diorite_06,3,06,4,3,2.815,-0.369444423,-0.24537037,1,0,0,1.4075,Andesite_rect,1,1.407,0,9,0,9,0,1,,,,,,,,,,,,,
595d19b05b278d00018faa06,SCN,2024-06-20_13h30.04.274,LearnStrategy,2023.2.3,Win32,59.52380952,8,1,11,-0.092592593,-0.25,1,0,0,2.8487,Peridotite_07,7,07,2,4,2.849,-0.341666645,-0.243518547,1,0,0,5.4565,Andesite_rect,1,5.457,0,10,0,10,0,1,,,,,,,,,,,,,
595d19b05b278d00018faa06,SCN,2024-06-20_13h30.04.274,LearnStrategy,2023.2.3,Win32,59.52380952,8,1,12,0.055555556,-0.25,1,0,0,2.087,Gabbro_16,4,16,2,5,2.087,0.357407464,-0.24537037,1,0,0,6.1625,Gabbro_rect,4,6.163,1,11,0,11,0,1,,,,,,,,,,,,,
595d19b05b278d00018faa06,SCN,2024-06-20_13h30.04.274,LearnStrategy,2023.2.3,Win32,59.52380952,8,1,13,-0.219444416,-0.244444459,1,0,0,2.6355,Diorite_14,3,14,2,3,2.636,-0.324074074,-0.250925912,1,0,0,2.997,Andesite_rect,1,2.997,0,12,0,12,0,1,,,,,,,,,,,,,
595d19b05b278d00018faa06,SCN,2024-06-20_13h30.04.274,LearnStrategy,2023.2.3,Win32,59.52380952,8,1,14,-0.363888882,-0.119444459,1,0,0,3.5149,Andesite_05,1,05,3,2,3.515,-0.355555534,-0.236111111,1,0,0,2.3274,Andesite_rect,1,2.327,1,13,0,13,0,1,,,,,,,,,,,,,
595d19b05b278d00018faa06,SCN,2024-06-20_13h30.04.274,LearnStrategy,2023.2.3,Win32,59.52380952,8,1,15,0.251851894,-0.066666674,1,0,0,2.0307,Andesite_11,1,11,3,6,2.031,0.121296282,-0.238888917,1,0,0,1.9765,Diorite_rect,3,1.977,0,14,0,14,0,1,,,,,,,,,,,,,
595d19b05b278d00018faa06,SCN,2024-06-20_13h30.04.274,LearnStrategy,2023.2.3,Win32,59.52380952,8,1,16,-0.523148148,-0.091666681,1,0,0,2.1851,Peridotite_10,7,10,3,1,2.185,0.08148151,-0.37962963,1,0,0,2.8265,Peridotite_rect,7,2.827,1,15,0,15,0,1,,,,,,,,,,,,,
595d19b05b278d00018faa06,SCN,2024-06-20_13h30.04.274,LearnStrategy,2023.2.3,Win32,59.52380952,8,2,1,,,,,,,,1,03,,,,,,,,,,,3,3.159,0,,,,,,0.127777806,-0.233333376,1,0,0,3.1594,Diorite_rect,0,0,0,0,1,
595d19b05b278d00018faa06,SCN,2024-06-20_13h30.04.274,LearnStrategy,2023.2.3,Win32,59.52380952,8,2,2,,,,,,,,6,11,,,,,,,,,,,5,10.463,0,,,,,,-0.349999993,-0.402777778,1,0,0,10.463,Obsidian_rect,1,0,1,0,1,
595d19b05b278d00018faa06,SCN,2024-06-20_13h30.04.274,LearnStrategy,2023.2.3,Win32,59.52380952,8,2,3,,,,,,,,7,14,,,,,,,,,,,4,4.247,0,,,,,,0.417592649,-0.253703718,1,0,0,4.2474,Gabbro_rect,2,0,2,0,1,
595d19b05b278d00018faa06,SCN,2024-06-20_13h30.04.274,LearnStrategy,2023.2.3,Win32,59.52380952,8,2,4,,,,,,,,4,14,,,,,,,,,,,4,12.404,1,,,,,,0.313888974,-0.243518547,1,0,0,12.4044,Gabbro_rect,3,0,3,0,1,
595d19b05b278d00018faa06,SCN,2024-06-20_13h30.04.274,LearnStrategy,2023.2.3,Win32,59.52380952,8,2,5,,,,,,,,5,09,,,,,,,,,,,5,1.323,1,,,,,,-0.377777771,-0.400925954,1,0,0,1.3229,Obsidian_rect,4,0,4,0,1,
595d19b05b278d00018faa06,SCN,2024-06-20_13h30.04.274,LearnStrategy,2023.2.3,Win32,59.52380952,8,2,6,,,,,,,,2,09,,,,,,,,,,,2,1.644,1,,,,,,-0.138888889,-0.252777806,1,0,0,1.6442,Basalt_rect,5,0,5,0,1,
595d19b05b278d00018faa06,SCN,2024-06-20_13h30.04.274,LearnStrategy,2023.2.3,Win32,59.52380952,8,2,7,,,,,,,,7,08,,,,,,,,,,,1,5.01,0,,,,,,-0.349999993,-0.271296325,1,0,0,5.0103,Andesite_rect,6,0,6,0,1,
595d19b05b278d00018faa06,SCN,2024-06-20_13h30.04.274,LearnStrategy,2023.2.3,Win32,59.52380952,8,2,8,,,,,,,,3,11,,,,,,,,,,,3,3.972,1,,,,,,0.077777792,-0.259259259,1,0,0,3.9715,Diorite_rect,7,0,7,0,1,
595d19b05b278d00018faa06,SCN,2024-06-20_13h30.04.274,LearnStrategy,2023.2.3,Win32,59.52380952,8,2,9,,,,,,,,5,12,,,,,,,,,,,5,1.506,1,,,,,,-0.369444423,-0.401851866,1,0,0,1.5058,Obsidian_rect,8,0,8,0,1,
595d19b05b278d00018faa06,SCN,2024-06-20_13h30.04.274,LearnStrategy,2023.2.3,Win32,59.52380952,8,2,10,,,,,,,,6,06,,,,,,,,,,,6,1.778,1,,,,,,-0.133333347,-0.407407407,1,0,0,1.7776,Pegmatite_rect,9,0,9,0,1,
595d19b05b278d00018faa06,SCN,2024-06-20_13h30.04.274,LearnStrategy,2023.2.3,Win32,59.52380952,8,2,11,,,,,,,,3,13,,,,,,,,,,,1,10.83,0,,,,,,-0.348148134,-0.260185171,1,0,0,10.8302,Andesite_rect,10,0,10,0,1,
595d19b05b278d00018faa06,SCN,2024-06-20_13h30.04.274,LearnStrategy,2023.2.3,Win32,59.52380952,8,2,12,,,,,,,,1,10,,,,,,,,,,,1,1.899,1,,,,,,-0.386111118,-0.259259259,1,0,0,1.8991,Andesite_rect,11,0,11,0,1,
595d19b05b278d00018faa06,SCN,2024-06-20_13h30.04.274,LearnStrategy,2023.2.3,Win32,59.52380952,8,2,13,,,,,,,,8,14,,,,,,,,,,,8,1.693,1,,,,,,0.375,-0.384259259,1,0,0,1.6933,Pumice_rect,12,0,12,0,1,
595d19b05b278d00018faa06,SCN,2024-06-20_13h30.04.274,LearnStrategy,2023.2.3,Win32,59.52380952,8,2,14,,,,,,,,4,10,,,,,,,,,,,4,4.344,1,,,,,,0.37962963,-0.252777806,1,0,0,4.344,Gabbro_rect,13,0,13,0,1,
595d19b05b278d00018faa06,SCN,2024-06-20_13h30.04.274,LearnStrategy,2023.2.3,Win32,59.52380952,8,2,15,,,,,,,,2,08,,,,,,,,,,,2,2.337,1,,,,,,-0.112962935,-0.248148176,1,0,0,2.3373,Basalt_rect,14,0,14,0,1,
595d19b05b278d00018faa06,SCN,2024-06-20_13h30.04.274,LearnStrategy,2023.2.3,Win32,59.52380952,8,2,16,,,,,,,,8,09,,,,,,,,,,,8,1.573,1,,,,,,0.368518547,-0.405555584,1,0,0,1.5735,Pumice_rect,15,0,15,0,1,
595d19b05b278d00018faa06,SCN,2024-06-20_13h30.04.274,LearnStrategy,2023.2.3,Win32,59.52380952,9,1,1,-0.23055557,0.074074074,1,0,0,2.5304,Diorite_06,3,06,4,3,2.53,0.123148176,-0.23055557,1,0,0,3.3308,Diorite_rect,3,3.331,1,0,0,0,0,1,,,,,,,,,,,,,
595d19b05b278d00018faa06,SCN,2024-06-20_13h30.04.274,LearnStrategy,2023.2.3,Win32,59.52380952,9,1,2,-0.551851838,0.082407386,1,0,0,1.7478,Diorite_09,3,09,4,1,1.748,0.152777778,-0.238888917,1,0,0,3.0937,Diorite_rect,3,3.094,1,1,0,1,0,1,,,,,,,,,,,,,
595d19b05b278d00018faa06,SCN,2024-06-20_13h30.04.274,LearnStrategy,2023.2.3,Win32,59.52380952,9,1,3,0.236111111,0.236111111,1,0,0,2.7009,Pegmatite_05,6,05,5,6,2.701,-0.126851824,-0.387037065,1,0,0,6.6446,Pegmatite_rect,6,6.645,1,2,0,2,0,1,,,,,,,,,,,,,
595d19b05b278d00018faa06,SCN,2024-06-20_13h30.04.274,LearnStrategy,2023.2.3,Win32,59.52380952,9,1,4,0.235185199,-0.075000021,1,0,0,1.7307,Andesite_11,1,11,3,6,1.731,0.15370369,-0.239814829,1,0,0,1.3858,Diorite_rect,3,1.386,0,3,0,3,0,1,,,,,,,,,,,,,
595d19b05b278d00018faa06,SCN,2024-06-20_13h30.04.274,LearnStrategy,2023.2.3,Win32,59.52380952,9,1,5,-0.520370377,0.092592593,1,0,0,5.483,Diorite_09,3,09,4,1,5.483,0.125,-0.231481481,1,0,0,1.8936,Diorite_rect,3,1.894,1,4,0,4,0,1,,,,,,,,,,,,,
595d19b05b278d00018faa06,SCN,2024-06-20_13h30.04.274,LearnStrategy,2023.2.3,Win32,59.52380952,9,1,6,0.077777792,-0.404629672,1,0,0,1.8144,Pegmatite_03,6,03,1,5,1.814,-0.097222222,-0.381481524,1,0,0,2.0607,Pegmatite_rect,6,2.061,1,5,0,5,0,1,,,,,,,,,,,,,
595d19b05b278d00018faa06,SCN,2024-06-20_13h30.04.274,LearnStrategy,2023.2.3,Win32,59.52380952,9,1,7,0.527777778,-0.10555557,1,0,0,2.6315,Basalt_05,2,05,3,8,2.631,-0.081481439,-0.233333376,1,0,0,1.6588,Basalt_rect,2,1.659,1,6,0,6,0,1,,,,,,,,,,,,,
595d19b05b278d00018faa06,SCN,2024-06-20_13h30.04.274,LearnStrategy,2023.2.3,Win32,59.52380952,9,1,8,0.396296325,0.374074071,1,0,0,2.1633,Peridotite_02,7,02,6,7,2.163,0.168518561,-0.389814801,1,0,0,2.1931,Peridotite_rect,7,2.193,1,7,0,7,0,1,,,,,,,,,,,,,
595d19b05b278d00018faa06,SCN,2024-06-20_13h30.04.274,LearnStrategy,2023.2.3,Win32,59.52380952,9,1,9,0.565740797,0.388888889,1,0,0,1.9836,Andesite_04,1,04,6,8,1.984,0.371296353,-0.236111111,1,0,0,3.8866,Gabbro_rect,4,3.887,0,8,0,8,0,1,,,,,,,,,,,,,
595d19b05b278d00018faa06,SCN,2024-06-20_13h30.04.274,LearnStrategy,2023.2.3,Win32,59.52380952,9,1,10,0.409259231,0.38055555,1,0,0,2.4312,Peridotite_02,7,02,6,7,2.431,0.108333376,-0.382407436,1,0,0,2.0772,Peridotite_rect,7,2.077,1,9,0,9,0,1,,,,,,,,,,,,,
595d19b05b278d00018faa06,SCN,2024-06-20_13h30.04.274,LearnStrategy,2023.2.3,Win32,59.52380952,9,1,11,0.074999986,0.235185182,1,0,0,2.0471,Peridotite_16,7,16,5,5,2.047,0.080555598,-0.382407436,1,0,0,1.7623,Peridotite_rect,7,1.762,1,10,0,10,0,1,,,,,,,,,,,,,
595d19b05b278d00018faa06,SCN,2024-06-20_13h30.04.274,LearnStrategy,2023.2.3,Win32,59.52380952,9,1,12,-0.232407393,0.074999986,1,0,0,2.9655,Diorite_06,3,06,4,3,2.966,-0.363888882,-0.237037023,1,0,0,3.4134,Andesite_rect,1,3.413,0,11,0,11,0,1,,,,,,,,,,,,,
595d19b05b278d00018faa06,SCN,2024-06-20_13h30.04.274,LearnStrategy,2023.2.3,Win32,59.52380952,9,1,13,0.215740769,-0.429629644,1,0,0,2.0981,Diorite_02,3,02,1,6,2.098,-0.392592571,-0.237963005,1,0,0,1.3126,Andesite_rect,1,1.313,0,12,0,12,0,1,,,,,,,,,,,,,
595d19b05b278d00018faa06,SCN,2024-06-20_13h30.04.274,LearnStrategy,2023.2.3,Win32,59.52380952,9,1,14,0.367592564,-0.253703718,1,0,0,1.6566,Diorite_12,3,12,2,7,1.657,-0.386111118,-0.256481524,1,0,0,3.1467,Andesite_rect,1,3.147,0,13,0,13,0,1,,,,,,,,,,,,,
595d19b05b278d00018faa06,SCN,2024-06-20_13h30.04.274,LearnStrategy,2023.2.3,Win32,59.52380952,9,1,15,-0.534259266,0.095370363,1,0,0,2.3334,Diorite_09,3,09,4,1,2.333,0.09629631,-0.25,1,0,0,2.0678,Diorite_rect,3,2.068,1,14,0,14,0,1,,,,,,,,,,,,,
595d19b05b278d00018faa06,SCN,2024-06-20_13h30.04.274,LearnStrategy,2023.2.3,Win32,59.52380952,9,1,16,-0.101851852,-0.431481467,1,0,0,1.7151,Gabbro_05,4,05,1,4,1.715,-0.402777778,-0.247222265,1,0,0,2.6309,Andesite_rect,1,2.631,0,15,0,15,0,1,,,,,,,,,,,,,
595d19b05b278d00018faa06,SCN,2024-06-20_13h30.04.274,LearnStrategy,2023.2.3,Win32,59.52380952,9,2,1,,,,,,,,6,07,,,,,,,,,,,5,7.427,0,,,,,,-0.418518526,-0.39444443,1,0,0,7.4268,Obsidian_rect,0,0,0,0,1,
595d19b05b278d00018faa06,SCN,2024-06-20_13h30.04.274,LearnStrategy,2023.2.3,Win32,59.52380952,9,2,2,,,,,,,,1,14,,,,,,,,,,,1,6.705,1,,,,,,-0.365740741,-0.25,1,0,0,6.705,Andesite_rect,1,0,1,0,1,
595d19b05b278d00018faa06,SCN,2024-06-20_13h30.04.274,LearnStrategy,2023.2.3,Win32,59.52380952,9,2,3,,,,,,,,4,13,,,,,,,,,,,4,9.053,1,,,,,,0.389814871,-0.255555541,1,0,0,9.0533,Gabbro_rect,2,0,2,0,1,
595d19b05b278d00018faa06,SCN,2024-06-20_13h30.04.274,LearnStrategy,2023.2.3,Win32,59.52380952,9,2,4,,,,,,,,7,13,,,,,,,,,,,7,1.783,1,,,,,,0.147222236,-0.40370369,1,0,0,1.7828,Peridotite_rect,3,0,3,0,1,
595d19b05b278d00018faa06,SCN,2024-06-20_13h30.04.274,LearnStrategy,2023.2.3,Win32,59.52380952,9,2,5,,,,,,,,3,16,,,,,,,,,,,3,4.442,1,,,,,,0.097222222,-0.258333347,1,0,0,4.4421,Diorite_rect,4,0,4,0,1,
595d19b05b278d00018faa06,SCN,2024-06-20_13h30.04.274,LearnStrategy,2023.2.3,Win32,59.52380952,9,2,6,,,,,,,,6,10,,,,,,,,,,,6,4.029,1,,,,,,-0.097222222,-0.412037037,1,0,0,4.0293,Pegmatite_rect,5,0,5,0,1,
595d19b05b278d00018faa06,SCN,2024-06-20_13h30.04.274,LearnStrategy,2023.2.3,Win32,59.52380952,9,2,7,,,,,,,,4,03,,,,,,,,,,,3,4.62,0,,,,,,0.123148176,-0.260185171,1,0,0,4.6199,Diorite_rect,6,0,6,0,1,
595d19b05b278d00018faa06,SCN,2024-06-20_13h30.04.274,LearnStrategy,2023.2.3,Win32,59.52380952,9,2,8,,,,,,,,1,16,,,,,,,,,,,1,3.354,1,,,,,,-0.377777771,-0.255555541,1,0,0,3.3537,Andesite_rect,7,0,7,0,1,
595d19b05b278d00018faa06,SCN,2024-06-20_13h30.04.274,LearnStrategy,2023.2.3,Win32,59.52380952,9,2,9,,,,,,,,8,16,,,,,,,,,,,4,12.613,0,,,,,,0.400925954,-0.258333347,1,0,0,12.6128,Gabbro_rect,8,0,8,0,1,
595d19b05b278d00018faa06,SCN,2024-06-20_13h30.04.274,LearnStrategy,2023.2.3,Win32,59.52380952,9,2,10,,,,,,,,2,12,,,,,,,,,,,8,3.145,0,,,,,,0.380555612,-0.406481496,1,0,0,3.1451,Pumice_rect,9,0,9,0,1,
595d19b05b278d00018faa06,SCN,2024-06-20_13h30.04.274,LearnStrategy,2023.2.3,Win32,59.52380952,9,2,11,,,,,,,,3,07,,,,,,,,,,,1,7.776,0,,,,,,-0.335185192,-0.264814801,1,0,0,7.7762,Andesite_rect,10,0,10,0,1,
595d19b05b278d00018faa06,SCN,2024-06-20_13h30.04.274,LearnStrategy,2023.2.3,Win32,59.52380952,9,2,12,,,,,,,,5,14,,,,,,,,,,,5,9.996,1,,,,,,-0.401851831,-0.400000042,1,0,0,9.9957,Obsidian_rect,11,0,11,0,1,
595d19b05b278d00018faa06,SCN,2024-06-20_13h30.04.274,LearnStrategy,2023.2.3,Win32,59.52380952,9,2,13,,,,,,,,2,10,,,,,,,,,,,2,5.831,1,,,,,,-0.118518476,-0.247222265,1,0,0,5.8305,Basalt_rect,12,0,12,0,1,
595d19b05b278d00018faa06,SCN,2024-06-20_13h30.04.274,LearnStrategy,2023.2.3,Win32,59.52380952,9,2,14,,,,,,,,5,02,,,,,,,,,,,5,1.452,1,,,,,,-0.348148134,-0.400000042,1,0,0,1.4517,Obsidian_rect,13,0,13,0,1,
595d19b05b278d00018faa06,SCN,2024-06-20_13h30.04.274,LearnStrategy,2023.2.3,Win32,59.52380952,9,2,15,,,,,,,,7,12,,,,,,,,,,,7,2.01,1,,,,,,0.146296325,-0.400000042,1,0,0,2.0099,Peridotite_rect,14,0,14,0,1,
595d19b05b278d00018faa06,SCN,2024-06-20_13h30.04.274,LearnStrategy,2023.2.3,Win32,59.52380952,9,2,16,,,,,,,,8,03,,,,,,,,,,,8,3.961,1,,,,,,0.374074159,-0.390740783,1,0,0,3.9612,Pumice_rect,15,0,15,0,1,
595d19b05b278d00018faa06,SCN,2024-06-20_13h30.04.274,LearnStrategy,2023.2.3,Win32,59.52380952,,,,,,,,,,,,,,,,,,,,,,,,,,,,,,,,,,,,,,,,,,,0
595d19b05b278d00018faa06,SCN,2024-06-20_13h30.04.274,LearnStrategy,2023.2.3,Win32,59.52380952,,,,,,,,,,,,,,,,,,,,,,,,,,,,,,,,,,,,,,,,,,,
595d19b05b278d00018faa06,SCN,2024-06-20_13h30.04.274,LearnStrategy,2023.2.3,Win32,59.52380952,,,,,,,,,,,5,11,1,1,,,,,,,,,,,,,,,,,,,,,,,,,,,,,
595d19b05b278d00018faa06,SCN,2024-06-20_13h30.04.274,LearnStrategy,2023.2.3,Win32,59.52380952,,,,,,,,,,,5,05,1,2,,,,,,,,,,,,,,,,,,,,,,,,,,,,,
595d19b05b278d00018faa06,SCN,2024-06-20_13h30.04.274,LearnStrategy,2023.2.3,Win32,59.52380952,,,,,,,,,,,5,07,1,3,,,,,,,,,,,,,,,,,,,,,,,,,,,,,
595d19b05b278d00018faa06,SCN,2024-06-20_13h30.04.274,LearnStrategy,2023.2.3,Win32,59.52380952,,,,,,,,,,,4,05,1,4,,,,,,,,,,,,,,,,,,,,,,,,,,,,,
595d19b05b278d00018faa06,SCN,2024-06-20_13h30.04.274,LearnStrategy,2023.2.3,Win32,59.52380952,,,,,,,,,,,6,03,1,5,,,,,,,,,,,,,,,,,,,,,,,,,,,,,
595d19b05b278d00018faa06,SCN,2024-06-20_13h30.04.274,LearnStrategy,2023.2.3,Win32,59.52380952,,,,,,,,,,,3,02,1,6,,,,,,,,,,,,,,,,,,,,,,,,,,,,,
595d19b05b278d00018faa06,SCN,2024-06-20_13h30.04.274,LearnStrategy,2023.2.3,Win32,59.52380952,,,,,,,,,,,8,04,1,7,,,,,,,,,,,,,,,,,,,,,,,,,,,,,
595d19b05b278d00018faa06,SCN,2024-06-20_13h30.04.274,LearnStrategy,2023.2.3,Win32,59.52380952,,,,,,,,,,,5,10,1,8,,,,,,,,,,,,,,,,,,,,,,,,,,,,,
595d19b05b278d00018faa06,SCN,2024-06-20_13h30.04.274,LearnStrategy,2023.2.3,Win32,59.52380952,,,,,,,,,,,2,11,2,1,,,,,,,,,,,,,,,,,,,,,,,,,,,,,
595d19b05b278d00018faa06,SCN,2024-06-20_13h30.04.274,LearnStrategy,2023.2.3,Win32,59.52380952,,,,,,,,,,,8,10,2,2,,,,,,,,,,,,,,,,,,,,,,,,,,,,,
595d19b05b278d00018faa06,SCN,2024-06-20_13h30.04.274,LearnStrategy,2023.2.3,Win32,59.52380952,,,,,,,,,,,3,14,2,3,,,,,,,,,,,,,,,,,,,,,,,,,,,,,
595d19b05b278d00018faa06,SCN,2024-06-20_13h30.04.274,LearnStrategy,2023.2.3,Win32,59.52380952,,,,,,,,,,,7,07,2,4,,,,,,,,,,,,,,,,,,,,,,,,,,,,,
595d19b05b278d00018faa06,SCN,2024-06-20_13h30.04.274,LearnStrategy,2023.2.3,Win32,59.52380952,,,,,,,,,,,4,16,2,5,,,,,,,,,,,,,,,,,,,,,,,,,,,,,
595d19b05b278d00018faa06,SCN,2024-06-20_13h30.04.274,LearnStrategy,2023.2.3,Win32,59.52380952,,,,,,,,,,,4,12,2,6,,,,,,,,,,,,,,,,,,,,,,,,,,,,,
595d19b05b278d00018faa06,SCN,2024-06-20_13h30.04.274,LearnStrategy,2023.2.3,Win32,59.52380952,,,,,,,,,,,3,12,2,7,,,,,,,,,,,,,,,,,,,,,,,,,,,,,
595d19b05b278d00018faa06,SCN,2024-06-20_13h30.04.274,LearnStrategy,2023.2.3,Win32,59.52380952,,,,,,,,,,,1,07,2,8,,,,,,,,,,,,,,,,,,,,,,,,,,,,,
595d19b05b278d00018faa06,SCN,2024-06-20_13h30.04.274,LearnStrategy,2023.2.3,Win32,59.52380952,,,,,,,,,,,7,10,3,1,,,,,,,,,,,,,,,,,,,,,,,,,,,,,
595d19b05b278d00018faa06,SCN,2024-06-20_13h30.04.274,LearnStrategy,2023.2.3,Win32,59.52380952,,,,,,,,,,,1,05,3,2,,,,,,,,,,,,,,,,,,,,,,,,,,,,,
595d19b05b278d00018faa06,SCN,2024-06-20_13h30.04.274,LearnStrategy,2023.2.3,Win32,59.52380952,,,,,,,,,,,2,06,3,3,,,,,,,,,,,,,,,,,,,,,,,,,,,,,
595d19b05b278d00018faa06,SCN,2024-06-20_13h30.04.274,LearnStrategy,2023.2.3,Win32,59.52380952,,,,,,,,,,,1,06,3,4,,,,,,,,,,,,,,,,,,,,,,,,,,,,,
595d19b05b278d00018faa06,SCN,2024-06-20_13h30.04.274,LearnStrategy,2023.2.3,Win32,59.52380952,,,,,,,,,,,7,15,3,5,,,,,,,,,,,,,,,,,,,,,,,,,,,,,
595d19b05b278d00018faa06,SCN,2024-06-20_13h30.04.274,LearnStrategy,2023.2.3,Win32,59.52380952,,,,,,,,,,,1,11,3,6,,,,,,,,,,,,,,,,,,,,,,,,,,,,,
595d19b05b278d00018faa06,SCN,2024-06-20_13h30.04.274,LearnStrategy,2023.2.3,Win32,59.52380952,,,,,,,,,,,6,13,3,7,,,,,,,,,,,,,,,,,,,,,,,,,,,,,
595d19b05b278d00018faa06,SCN,2024-06-20_13h30.04.274,LearnStrategy,2023.2.3,Win32,59.52380952,,,,,,,,,,,2,05,3,8,,,,,,,,,,,,,,,,,,,,,,,,,,,,,
595d19b05b278d00018faa06,SCN,2024-06-20_13h30.04.274,LearnStrategy,2023.2.3,Win32,59.52380952,,,,,,,,,,,3,09,4,1,,,,,,,,,,,,,,,,,,,,,,,,,,,,,
595d19b05b278d00018faa06,SCN,2024-06-20_13h30.04.274,LearnStrategy,2023.2.3,Win32,59.52380952,,,,,,,,,,,5,16,4,2,,,,,,,,,,,,,,,,,,,,,,,,,,,,,
595d19b05b278d00018faa06,SCN,2024-06-20_13h30.04.274,LearnStrategy,2023.2.3,Win32,59.52380952,,,,,,,,,,,3,06,4,3,,,,,,,,,,,,,,,,,,,,,,,,,,,,,
595d19b05b278d00018faa06,SCN,2024-06-20_13h30.04.274,LearnStrategy,2023.2.3,Win32,59.52380952,,,,,,,,,,,6,15,4,4,,,,,,,,,,,,,,,,,,,,,,,,,,,,,
595d19b05b278d00018faa06,SCN,2024-06-20_13h30.04.274,LearnStrategy,2023.2.3,Win32,59.52380952,,,,,,,,,,,2,04,4,5,,,,,,,,,,,,,,,,,,,,,,,,,,,,,
595d19b05b278d00018faa06,SCN,2024-06-20_13h30.04.274,LearnStrategy,2023.2.3,Win32,59.52380952,,,,,,,,,,,6,16,4,6,,,,,,,,,,,,,,,,,,,,,,,,,,,,,
595d19b05b278d00018faa06,SCN,2024-06-20_13h30.04.274,LearnStrategy,2023.2.3,Win32,59.52380952,,,,,,,,,,,4,09,4,7,,,,,,,,,,,,,,,,,,,,,,,,,,,,,
595d19b05b278d00018faa06,SCN,2024-06-20_13h30.04.274,LearnStrategy,2023.2.3,Win32,59.52380952,,,,,,,,,,,1,01,4,8,,,,,,,,,,,,,,,,,,,,,,,,,,,,,
595d19b05b278d00018faa06,SCN,2024-06-20_13h30.04.274,LearnStrategy,2023.2.3,Win32,59.52380952,,,,,,,,,,,7,05,5,1,,,,,,,,,,,,,,,,,,,,,,,,,,,,,
595d19b05b278d00018faa06,SCN,2024-06-20_13h30.04.274,LearnStrategy,2023.2.3,Win32,59.52380952,,,,,,,,,,,8,05,5,2,,,,,,,,,,,,,,,,,,,,,,,,,,,,,
595d19b05b278d00018faa06,SCN,2024-06-20_13h30.04.274,LearnStrategy,2023.2.3,Win32,59.52380952,,,,,,,,,,,4,15,5,3,,,,,,,,,,,,,,,,,,,,,,,,,,,,,
595d19b05b278d00018faa06,SCN,2024-06-20_13h30.04.274,LearnStrategy,2023.2.3,Win32,59.52380952,,,,,,,,,,,5,04,5,4,,,,,,,,,,,,,,,,,,,,,,,,,,,,,
595d19b05b278d00018faa06,SCN,2024-06-20_13h30.04.274,LearnStrategy,2023.2.3,Win32,59.52380952,,,,,,,,,,,7,16,5,5,,,,,,,,,,,,,,,,,,,,,,,,,,,,,
595d19b05b278d00018faa06,SCN,2024-06-20_13h30.04.274,LearnStrategy,2023.2.3,Win32,59.52380952,,,,,,,,,,,6,05,5,6,,,,,,,,,,,,,,,,,,,,,,,,,,,,,
595d19b05b278d00018faa06,SCN,2024-06-20_13h30.04.274,LearnStrategy,2023.2.3,Win32,59.52380952,,,,,,,,,,,8,02,5,7,,,,,,,,,,,,,,,,,,,,,,,,,,,,,
595d19b05b278d00018faa06,SCN,2024-06-20_13h30.04.274,LearnStrategy,2023.2.3,Win32,59.52380952,,,,,,,,,,,8,08,5,8,,,,,,,,,,,,,,,,,,,,,,,,,,,,,
595d19b05b278d00018faa06,SCN,2024-06-20_13h30.04.274,LearnStrategy,2023.2.3,Win32,59.52380952,,,,,,,,,,,2,02,6,1,,,,,,,,,,,,,,,,,,,,,,,,,,,,,
595d19b05b278d00018faa06,SCN,2024-06-20_13h30.04.274,LearnStrategy,2023.2.3,Win32,59.52380952,,,,,,,,,,,4,08,6,2,,,,,,,,,,,,,,,,,,,,,,,,,,,,,
595d19b05b278d00018faa06,SCN,2024-06-20_13h30.04.274,LearnStrategy,2023.2.3,Win32,59.52380952,,,,,,,,,,,6,09,6,3,,,,,,,,,,,,,,,,,,,,,,,,,,,,,
595d19b05b278d00018faa06,SCN,2024-06-20_13h30.04.274,LearnStrategy,2023.2.3,Win32,59.52380952,,,,,,,,,,,2,14,6,4,,,,,,,,,,,,,,,,,,,,,,,,,,,,,
595d19b05b278d00018faa06,SCN,2024-06-20_13h30.04.274,LearnStrategy,2023.2.3,Win32,59.52380952,,,,,,,,,,,8,06,6,5,,,,,,,,,,,,,,,,,,,,,,,,,,,,,
595d19b05b278d00018faa06,SCN,2024-06-20_13h30.04.274,LearnStrategy,2023.2.3,Win32,59.52380952,,,,,,,,,,,3,08,6,6,,,,,,,,,,,,,,,,,,,,,,,,,,,,,
595d19b05b278d00018faa06,SCN,2024-06-20_13h30.04.274,LearnStrategy,2023.2.3,Win32,59.52380952,,,,,,,,,,,7,02,6,7,,,,,,,,,,,,,,,,,,,,,,,,,,,,,
595d19b05b278d00018faa06,SCN,2024-06-20_13h30.04.274,LearnStrategy,2023.2.3,Win32,59.52380952,,,,,,,,,,,1,04,6,8,,,,,,,,,,,,,,,,,,,,,,,,,,,,,