participant,condition,date,expName,psychopyVersion,OS,frameRate,block,phase,trial,learn_mouse.x,learn_mouse.y,learn_mouse.leftButton,learn_mouse.midButton,learn_mouse.rightButton,learn_mouse.time,learn_mouse.clicked_name,cat,token,row,col,t_select,cat_mouse_l.x,cat_mouse_l.y,cat_mouse_l.leftButton,cat_mouse_l.midButton,cat_mouse_l.rightButton,cat_mouse_l.time,cat_mouse_l.clicked_name,resp,t_resp,corr,train_trials.thisRepN,train_trials.thisTrialN,train_trials.thisN,train_trials.thisIndex,train_trials.ran,cat_mouse_t.x,cat_mouse_t.y,cat_mouse_t.leftButton,cat_mouse_t.midButton,cat_mouse_t.rightButton,cat_mouse_t.time,cat_mouse_t.clicked_name,test_trials.thisRepN,test_trials.thisTrialN,test_trials.thisN,test_trials.thisIndex,test_trials.ran,Bonus
59f0f82ce75b450001a699ad,SCN,2024-06-20_12h30.03.817,LearnStrategy,2023.2.3,Win32,60.60606061,,,,,,,,,,,,,,,,,,,,,,,,,,,,,,,,,,,,,,,,,,,
59f0f82ce75b450001a699ad,SCN,2024-06-20_12h30.03.817,LearnStrategy,2023.2.3,Win32,60.60606061,1,1,1,0.212962963,-0.247222265,1,0,0,3.0733,Obsidian_05,5,05,2,6,3.073,-0.362037023,-0.380555541,1,0,0,4.3518,Obsidian_rect,5,4.352,1,0,0,0,0,1,,,,,,,,,,,,,
59f0f82ce75b450001a699ad,SCN,2024-06-20_12h30.03.817,LearnStrategy,2023.2.3,Win32,60.60606061,1,1,2,0.553703732,0.37962963,1,0,0,2.5973,Pegmatite_15,6,15,6,8,2.597,-0.14907406,-0.401851866,1,0,0,4.0424,Pegmatite_rect,6,4.042,1,1,0,1,0,1,,,,,,,,,,,,,
59f0f82ce75b450001a699ad,SCN,2024-06-20_12h30.03.817,LearnStrategy,2023.2.3,Win32,60.60606061,1,1,3,0.574074074,-0.261111153,1,0,0,3.214,Pumice_04,8,04,2,8,3.214,0.350926011,-0.389814801,1,0,0,2.053,Pumice_rect,8,2.053,1,2,0,2,0,1,,,,,,,,,,,,,
59f0f82ce75b450001a699ad,SCN,2024-06-20_12h30.03.817,LearnStrategy,2023.2.3,Win32,60.60606061,1,1,4,-0.412037037,-0.395370413,1,0,0,3.4147,Obsidian_02,5,02,1,2,3.415,-0.392592571,-0.401851866,1,0,0,1.6408,Obsidian_rect,5,1.641,1,3,0,3,0,1,,,,,,,,,,,,,
59f0f82ce75b450001a699ad,SCN,2024-06-20_12h30.03.817,LearnStrategy,2023.2.3,Win32,60.60606061,1,1,5,-0.051851838,0.098148134,1,0,0,3.3981,Diorite_14,3,14,4,4,3.398,0.387037065,-0.244444459,1,0,0,3.8863,Gabbro_rect,4,3.886,0,4,0,4,0,1,,,,,,,,,,,,,
59f0f82ce75b450001a699ad,SCN,2024-06-20_12h30.03.817,LearnStrategy,2023.2.3,Win32,60.60606061,1,1,6,0.382407436,0.074999986,1,0,0,1.9809,Pegmatite_13,6,13,4,7,1.981,0.091666681,-0.395370413,1,0,0,4.5759,Peridotite_rect,7,4.576,0,5,0,5,0,1,,,,,,,,,,,,,
59f0f82ce75b450001a699ad,SCN,2024-06-20_12h30.03.817,LearnStrategy,2023.2.3,Win32,60.60606061,1,1,7,0.064814815,-0.106481481,1,0,0,2.5643,Peridotite_15,7,15,3,5,2.564,0.41851849,-0.253703718,1,0,0,2.7406,Gabbro_rect,4,2.741,0,6,0,6,0,1,,,,,,,,,,,,,
59f0f82ce75b450001a699ad,SCN,2024-06-20_12h30.03.817,LearnStrategy,2023.2.3,Win32,60.60606061,1,1,8,0.570370427,-0.112037023,1,0,0,1.347,Andesite_05,1,05,3,8,1.347,0.437037009,-0.257407436,1,0,0,3.108,Gabbro_rect,4,3.108,0,7,0,7,0,1,,,,,,,,,,,,,
59f0f82ce75b450001a699ad,SCN,2024-06-20_12h30.03.817,LearnStrategy,2023.2.3,Win32,60.60606061,1,1,9,-0.574074074,0.073148127,1,0,0,1.1641,Gabbro_09,4,09,4,1,1.164,-0.15370369,-0.248148176,1,0,0,1.6919,Basalt_rect,2,1.692,0,8,0,8,0,1,,,,,,,,,,,,,
59f0f82ce75b450001a699ad,SCN,2024-06-20_12h30.03.817,LearnStrategy,2023.2.3,Win32,60.60606061,1,1,10,-0.546296296,-0.267592607,1,0,0,2.2987,Diorite_11,3,11,2,1,2.299,0.212037051,-0.256481524,1,0,0,4.842,Diorite_rect,3,4.842,1,9,0,9,0,1,,,,,,,,,,,,,
59f0f82ce75b450001a699ad,SCN,2024-06-20_12h30.03.817,LearnStrategy,2023.2.3,Win32,60.60606061,1,1,11,0.3648149,-0.079629651,1,0,0,1.0644,Diorite_15,3,15,3,7,1.064,0.122222265,-0.236111111,1,0,0,6.0083,Diorite_rect,3,6.008,1,10,0,10,0,1,,,,,,,,,,,,,
59f0f82ce75b450001a699ad,SCN,2024-06-20_12h30.03.817,LearnStrategy,2023.2.3,Win32,60.60606061,1,1,12,-0.572222215,0.406481478,1,0,0,3.1796,Obsidian_07,5,07,6,1,3.18,-0.371296282,-0.387037065,1,0,0,1.7035,Obsidian_rect,5,1.703,1,11,0,11,0,1,,,,,,,,,,,,,
59f0f82ce75b450001a699ad,SCN,2024-06-20_12h30.03.817,LearnStrategy,2023.2.3,Win32,60.60606061,1,1,13,-0.426851838,0.404629628,1,0,0,0.9485,Diorite_10,3,10,6,2,0.948,0.131481524,-0.242592635,1,0,0,1.7259,Diorite_rect,3,1.726,1,12,0,12,0,1,,,,,,,,,,,,,
59f0f82ce75b450001a699ad,SCN,2024-06-20_12h30.03.817,LearnStrategy,2023.2.3,Win32,60.60606061,1,1,14,-0.199074074,0.418518517,1,0,0,0.9144,Basalt_11,2,11,6,3,0.914,-0.175925926,-0.256481524,1,0,0,2.3926,Basalt_rect,2,2.393,1,13,0,13,0,1,,,,,,,,,,,,,
59f0f82ce75b450001a699ad,SCN,2024-06-20_12h30.03.817,LearnStrategy,2023.2.3,Win32,60.60606061,1,1,15,-0.062037009,0.375,1,0,0,1.3968,Basalt_02,2,02,6,4,1.397,0.406481566,-0.263888889,1,0,0,7.9252,Gabbro_rect,4,7.925,0,14,0,14,0,1,,,,,,,,,,,,,
59f0f82ce75b450001a699ad,SCN,2024-06-20_12h30.03.817,LearnStrategy,2023.2.3,Win32,60.60606061,1,1,16,0.082407422,0.408333328,1,0,0,0.6967,Basalt_10,2,10,6,5,0.697,0.369444529,-0.252777806,1,0,0,2.4261,Gabbro_rect,4,2.426,0,15,0,15,0,1,,,,,,,,,,,,,
59f0f82ce75b450001a699ad,SCN,2024-06-20_12h30.03.817,LearnStrategy,2023.2.3,Win32,60.60606061,1,2,1,,,,,,,,2,09,,,,,,,,,,,2,1.809,1,,,,,,-0.084259245,-0.262962977,1,0,0,1.8087,Basalt_rect,0,0,0,0,1,
59f0f82ce75b450001a699ad,SCN,2024-06-20_12h30.03.817,LearnStrategy,2023.2.3,Win32,60.60606061,1,2,2,,,,,,,,7,10,,,,,,,,,,,6,8.026,0,,,,,,-0.15370369,-0.416666667,1,0,0,8.0256,Pegmatite_rect,1,0,1,0,1,
59f0f82ce75b450001a699ad,SCN,2024-06-20_12h30.03.817,LearnStrategy,2023.2.3,Win32,60.60606061,1,2,3,,,,,,,,8,13,,,,,,,,,,,4,3.125,0,,,,,,0.424074102,-0.250925912,1,0,0,3.1254,Gabbro_rect,2,0,2,0,1,
59f0f82ce75b450001a699ad,SCN,2024-06-20_12h30.03.817,LearnStrategy,2023.2.3,Win32,60.60606061,1,2,4,,,,,,,,5,11,,,,,,,,,,,5,1.593,1,,,,,,-0.39444443,-0.391666695,1,0,0,1.5926,Obsidian_rect,3,0,3,0,1,
59f0f82ce75b450001a699ad,SCN,2024-06-20_12h30.03.817,LearnStrategy,2023.2.3,Win32,60.60606061,1,2,5,,,,,,,,3,06,,,,,,,,,,,3,1.227,1,,,,,,0.089814857,-0.259259259,1,0,0,1.2267,Diorite_rect,4,0,4,0,1,
59f0f82ce75b450001a699ad,SCN,2024-06-20_12h30.03.817,LearnStrategy,2023.2.3,Win32,60.60606061,1,2,6,,,,,,,,1,02,,,,,,,,,,,1,3.509,1,,,,,,-0.449074074,-0.234259288,1,0,0,3.5091,Andesite_rect,5,0,5,0,1,
59f0f82ce75b450001a699ad,SCN,2024-06-20_12h30.03.817,LearnStrategy,2023.2.3,Win32,60.60606061,1,2,7,,,,,,,,5,04,,,,,,,,,,,5,1.36,1,,,,,,-0.381481489,-0.396296325,1,0,0,1.3598,Obsidian_rect,6,0,6,0,1,
59f0f82ce75b450001a699ad,SCN,2024-06-20_12h30.03.817,LearnStrategy,2023.2.3,Win32,60.60606061,1,2,8,,,,,,,,8,16,,,,,,,,,,,7,5.709,0,,,,,,0.093518504,-0.386111153,1,0,0,5.7085,Peridotite_rect,7,0,7,0,1,
59f0f82ce75b450001a699ad,SCN,2024-06-20_12h30.03.817,LearnStrategy,2023.2.3,Win32,60.60606061,1,2,9,,,,,,,,1,01,,,,,,,,,,,4,3.626,0,,,,,,0.45648151,-0.237037023,1,0,0,3.6261,Gabbro_rect,8,0,8,0,1,
59f0f82ce75b450001a699ad,SCN,2024-06-20_12h30.03.817,LearnStrategy,2023.2.3,Win32,60.60606061,1,2,10,,,,,,,,3,13,,,,,,,,,,,3,1.193,1,,,,,,0.10555557,-0.267592607,1,0,0,1.1932,Diorite_rect,9,0,9,0,1,
59f0f82ce75b450001a699ad,SCN,2024-06-20_12h30.03.817,LearnStrategy,2023.2.3,Win32,60.60606061,1,2,11,,,,,,,,4,15,,,,,,,,,,,6,1.743,0,,,,,,-0.148148148,-0.393518519,1,0,0,1.7432,Pegmatite_rect,10,0,10,0,1,
59f0f82ce75b450001a699ad,SCN,2024-06-20_12h30.03.817,LearnStrategy,2023.2.3,Win32,60.60606061,1,2,12,,,,,,,,2,14,,,,,,,,,,,4,2.054,0,,,,,,0.376851824,-0.248148176,1,0,0,2.0541,Gabbro_rect,11,0,11,0,1,
59f0f82ce75b450001a699ad,SCN,2024-06-20_12h30.03.817,LearnStrategy,2023.2.3,Win32,60.60606061,1,2,13,,,,,,,,4,16,,,,,,,,,,,4,4.593,1,,,,,,0.429629714,-0.237037023,1,0,0,4.5925,Gabbro_rect,12,0,12,0,1,
59f0f82ce75b450001a699ad,SCN,2024-06-20_12h30.03.817,LearnStrategy,2023.2.3,Win32,60.60606061,1,2,14,,,,,,,,6,12,,,,,,,,,,,6,1.926,1,,,,,,-0.128703718,-0.40370369,1,0,0,1.9262,Pegmatite_rect,13,0,13,0,1,
59f0f82ce75b450001a699ad,SCN,2024-06-20_12h30.03.817,LearnStrategy,2023.2.3,Win32,60.60606061,1,2,15,,,,,,,,7,16,,,,,,,,,,,2,5.97,0,,,,,,-0.138888889,-0.253703718,1,0,0,5.9702,Basalt_rect,14,0,14,0,1,
59f0f82ce75b450001a699ad,SCN,2024-06-20_12h30.03.817,LearnStrategy,2023.2.3,Win32,60.60606061,1,2,16,,,,,,,,6,08,,,,,,,,,,,6,1.609,1,,,,,,-0.130555541,-0.382407436,1,0,0,1.6093,Pegmatite_rect,15,0,15,0,1,
59f0f82ce75b450001a699ad,SCN,2024-06-20_12h30.03.817,LearnStrategy,2023.2.3,Win32,60.60606061,2,1,1,-0.532407407,-0.419444473,1,0,0,2.1319,Pegmatite_03,6,03,1,1,2.132,0.399999972,-0.244444459,1,0,0,2.9092,Gabbro_rect,4,2.909,0,0,0,0,0,1,,,,,,,,,,,,,
59f0f82ce75b450001a699ad,SCN,2024-06-20_12h30.03.817,LearnStrategy,2023.2.3,Win32,60.60606061,2,1,2,-0.424999979,-0.430555556,1,0,0,1.0297,Obsidian_02,5,02,1,2,1.03,-0.376851859,-0.386111153,1,0,0,0.659,Obsidian_rect,5,0.659,1,1,0,1,0,1,,,,,,,,,,,,,
59f0f82ce75b450001a699ad,SCN,2024-06-20_12h30.03.817,LearnStrategy,2023.2.3,Win32,60.60606061,2,1,3,-0.07222218,-0.374074088,1,0,0,1.146,Pumice_05,8,05,1,4,1.146,0.362962935,-0.378703718,1,0,0,1.2419,Pumice_rect,8,1.242,1,2,0,2,0,1,,,,,,,,,,,,,
59f0f82ce75b450001a699ad,SCN,2024-06-20_12h30.03.817,LearnStrategy,2023.2.3,Win32,60.60606061,2,1,4,0.20185188,-0.390740783,1,0,0,1.3823,Peridotite_04,7,04,1,6,1.382,0.332407492,-0.252777806,1,0,0,1.8594,Gabbro_rect,4,1.859,0,3,0,3,0,1,,,,,,,,,,,,,
59f0f82ce75b450001a699ad,SCN,2024-06-20_12h30.03.817,LearnStrategy,2023.2.3,Win32,60.60606061,2,1,5,0.228703746,-0.27870369,1,0,0,2.4826,Obsidian_05,5,05,2,6,2.483,-0.459259245,-0.383333347,1,0,0,0.9243,Obsidian_rect,5,0.924,1,4,0,4,0,1,,,,,,,,,,,,,
59f0f82ce75b450001a699ad,SCN,2024-06-20_12h30.03.817,LearnStrategy,2023.2.3,Win32,60.60606061,2,1,6,0.535185213,0.091666645,1,0,0,1.1652,Andesite_04,1,04,4,8,1.165,0.398148148,-0.248148176,1,0,0,1.5264,Gabbro_rect,4,1.526,0,5,0,5,0,1,,,,,,,,,,,,,
59f0f82ce75b450001a699ad,SCN,2024-06-20_12h30.03.817,LearnStrategy,2023.2.3,Win32,60.60606061,2,1,7,-0.410185178,0.095370363,1,0,0,2.3651,Diorite_16,3,16,4,2,2.365,0.100000028,-0.267592607,1,0,0,1.2092,Diorite_rect,3,1.209,1,6,0,6,0,1,,,,,,,,,,,,,
59f0f82ce75b450001a699ad,SCN,2024-06-20_12h30.03.817,LearnStrategy,2023.2.3,Win32,60.60606061,2,1,8,-0.276851866,0.236111111,1,0,0,3.498,Pumice_09,8,09,5,3,3.498,0.391666695,-0.393518519,1,0,0,0.9699,Pumice_rect,8,0.97,1,7,0,7,0,1,,,,,,,,,,,,,
59f0f82ce75b450001a699ad,SCN,2024-06-20_12h30.03.817,LearnStrategy,2023.2.3,Win32,60.60606061,2,1,9,0.392592677,-0.262962977,1,0,0,3.3646,Andesite_07,1,07,2,7,3.365,0.123148176,-0.248148176,1,0,0,1.7537,Diorite_rect,3,1.754,0,8,0,8,0,1,,,,,,,,,,,,,
59f0f82ce75b450001a699ad,SCN,2024-06-20_12h30.03.817,LearnStrategy,2023.2.3,Win32,60.60606061,2,1,10,0.570370427,-0.125,1,0,0,1.5487,Andesite_05,1,05,3,8,1.549,-0.466666645,-0.25462963,1,0,0,1.5426,Andesite_rect,1,1.543,1,9,0,9,0,1,,,,,,,,,,,,,
59f0f82ce75b450001a699ad,SCN,2024-06-20_12h30.03.817,LearnStrategy,2023.2.3,Win32,60.60606061,2,1,11,0.106481481,0.11296297,1,0,0,2.4806,Basalt_04,2,04,4,5,2.481,0.35555564,-0.266666695,1,0,0,0.7425,Gabbro_rect,4,0.743,0,10,0,10,0,1,,,,,,,,,,,,,
59f0f82ce75b450001a699ad,SCN,2024-06-20_12h30.03.817,LearnStrategy,2023.2.3,Win32,60.60606061,2,1,12,-0.113888847,0.407407407,1,0,0,2.1146,Basalt_02,2,02,6,4,2.115,-0.154629601,-0.253703718,1,0,0,1.5095,Basalt_rect,2,1.51,1,11,0,11,0,1,,,,,,,,,,,,,
59f0f82ce75b450001a699ad,SCN,2024-06-20_12h30.03.817,LearnStrategy,2023.2.3,Win32,60.60606061,2,1,13,-0.058333291,-0.277777778,1,0,0,2.1493,Peridotite_14,7,14,2,4,2.149,0.351851852,-0.255555541,1,0,0,0.726,Gabbro_rect,4,0.726,0,12,0,12,0,1,,,,,,,,,,,,,
59f0f82ce75b450001a699ad,SCN,2024-06-20_12h30.03.817,LearnStrategy,2023.2.3,Win32,60.60606061,2,1,14,0.066666709,-0.385185171,1,0,0,1.3488,Gabbro_12,4,12,1,5,1.349,-0.464814822,-0.251851894,1,0,0,2.2594,Andesite_rect,1,2.259,0,13,0,13,0,1,,,,,,,,,,,,,
59f0f82ce75b450001a699ad,SCN,2024-06-20_12h30.03.817,LearnStrategy,2023.2.3,Win32,60.60606061,2,1,15,0.054629644,-0.357407393,1,0,0,0.8321,Gabbro_12,4,12,1,5,0.832,0.346296381,-0.266666695,1,0,0,2.2588,Gabbro_rect,4,2.259,1,14,0,14,0,1,,,,,,,,,,,,,
59f0f82ce75b450001a699ad,SCN,2024-06-20_12h30.03.817,LearnStrategy,2023.2.3,Win32,60.60606061,2,1,16,-0.27870369,-0.392592607,1,0,0,2.2994,Andesite_14,1,14,1,3,2.299,0.417592649,-0.390740783,1,0,0,2.3589,Pumice_rect,8,2.359,0,15,0,15,0,1,,,,,,,,,,,,,
59f0f82ce75b450001a699ad,SCN,2024-06-20_12h30.03.817,LearnStrategy,2023.2.3,Win32,60.60606061,2,2,1,,,,,,,,3,12,,,,,,,,,,,3,1.843,1,,,,,,0.125,-0.244444459,1,0,0,1.8428,Diorite_rect,0,0,0,0,1,
59f0f82ce75b450001a699ad,SCN,2024-06-20_12h30.03.817,LearnStrategy,2023.2.3,Win32,60.60606061,2,2,2,,,,,,,,4,13,,,,,,,,,,,2,4.177,0,,,,,,-0.205555527,-0.251851894,1,0,0,4.1766,Basalt_rect,1,0,1,0,1,
59f0f82ce75b450001a699ad,SCN,2024-06-20_12h30.03.817,LearnStrategy,2023.2.3,Win32,60.60606061,2,2,3,,,,,,,,2,12,,,,,,,,,,,8,3.704,0,,,,,,0.404629601,-0.382407436,1,0,0,3.7043,Pumice_rect,2,0,2,0,1,
59f0f82ce75b450001a699ad,SCN,2024-06-20_12h30.03.817,LearnStrategy,2023.2.3,Win32,60.60606061,2,2,4,,,,,,,,7,02,,,,,,,,,,,7,1.888,1,,,,,,0.199074074,-0.404629672,1,0,0,1.8876,Peridotite_rect,3,0,3,0,1,
59f0f82ce75b450001a699ad,SCN,2024-06-20_12h30.03.817,LearnStrategy,2023.2.3,Win32,60.60606061,2,2,5,,,,,,,,1,03,,,,,,,,,,,1,3.426,1,,,,,,-0.366666653,-0.243518547,1,0,0,3.4262,Andesite_rect,4,0,4,0,1,
59f0f82ce75b450001a699ad,SCN,2024-06-20_12h30.03.817,LearnStrategy,2023.2.3,Win32,60.60606061,2,2,6,,,,,,,,3,02,,,,,,,,,,,3,1.004,1,,,,,,0.092592593,-0.259259259,1,0,0,1.0042,Diorite_rect,5,0,5,0,1,
59f0f82ce75b450001a699ad,SCN,2024-06-20_12h30.03.817,LearnStrategy,2023.2.3,Win32,60.60606061,2,2,7,,,,,,,,2,01,,,,,,,,,,,2,1.56,1,,,,,,-0.133333347,-0.255555541,1,0,0,1.5596,Basalt_rect,6,0,6,0,1,
59f0f82ce75b450001a699ad,SCN,2024-06-20_12h30.03.817,LearnStrategy,2023.2.3,Win32,60.60606061,2,2,8,,,,,,,,7,13,,,,,,,,,,,7,3.793,1,,,,,,0.124074088,-0.387037065,1,0,0,3.7927,Peridotite_rect,7,0,7,0,1,
59f0f82ce75b450001a699ad,SCN,2024-06-20_12h30.03.817,LearnStrategy,2023.2.3,Win32,60.60606061,2,2,9,,,,,,,,5,08,,,,,,,,,,,5,1.105,1,,,,,,-0.355555534,-0.37962963,1,0,0,1.1047,Obsidian_rect,8,0,8,0,1,
59f0f82ce75b450001a699ad,SCN,2024-06-20_12h30.03.817,LearnStrategy,2023.2.3,Win32,60.60606061,2,2,10,,,,,,,,8,08,,,,,,,,,,,8,1.51,1,,,,,,0.438888974,-0.39444443,1,0,0,1.5095,Pumice_rect,9,0,9,0,1,
59f0f82ce75b450001a699ad,SCN,2024-06-20_12h30.03.817,LearnStrategy,2023.2.3,Win32,60.60606061,2,2,11,,,,,,,,8,15,,,,,,,,,,,8,1.526,1,,,,,,0.405555584,-0.406481496,1,0,0,1.5264,Pumice_rect,10,0,10,0,1,
59f0f82ce75b450001a699ad,SCN,2024-06-20_12h30.03.817,LearnStrategy,2023.2.3,Win32,60.60606061,2,2,12,,,,,,,,5,06,,,,,,,,,,,5,1.476,1,,,,,,-0.356481481,-0.389814801,1,0,0,1.4763,Obsidian_rect,11,0,11,0,1,
59f0f82ce75b450001a699ad,SCN,2024-06-20_12h30.03.817,LearnStrategy,2023.2.3,Win32,60.60606061,2,2,13,,,,,,,,6,07,,,,,,,,,,,6,1.31,1,,,,,,-0.090740698,-0.382407436,1,0,0,1.3101,Pegmatite_rect,12,0,12,0,1,
59f0f82ce75b450001a699ad,SCN,2024-06-20_12h30.03.817,LearnStrategy,2023.2.3,Win32,60.60606061,2,2,14,,,,,,,,6,16,,,,,,,,,,,6,3.409,1,,,,,,-0.133333347,-0.405555584,1,0,0,3.4091,Pegmatite_rect,13,0,13,0,1,
59f0f82ce75b450001a699ad,SCN,2024-06-20_12h30.03.817,LearnStrategy,2023.2.3,Win32,60.60606061,2,2,15,,,,,,,,4,03,,,,,,,,,,,4,2.021,1,,,,,,0.386111083,-0.251851894,1,0,0,2.0209,Gabbro_rect,14,0,14,0,1,
59f0f82ce75b450001a699ad,SCN,2024-06-20_12h30.03.817,LearnStrategy,2023.2.3,Win32,60.60606061,2,2,16,,,,,,,,1,09,,,,,,,,,,,1,2.738,1,,,,,,-0.37037037,-0.241666653,1,0,0,2.7382,Andesite_rect,15,0,15,0,1,
59f0f82ce75b450001a699ad,SCN,2024-06-20_12h30.03.817,LearnStrategy,2023.2.3,Win32,60.60606061,3,1,1,0.10555557,-0.372222265,1,0,0,3.4157,Gabbro_12,4,12,1,5,3.416,0.381481453,-0.253703718,1,0,0,0.7875,Gabbro_rect,4,0.788,1,0,0,0,0,1,,,,,,,,,,,,,
59f0f82ce75b450001a699ad,SCN,2024-06-20_12h30.03.817,LearnStrategy,2023.2.3,Win32,60.60606061,3,1,2,0.064814815,0.078703704,1,0,0,1.7797,Basalt_04,2,04,4,5,1.78,-0.086111069,-0.229629658,1,0,0,0.8423,Basalt_rect,2,0.842,1,1,0,1,0,1,,,,,,,,,,,,,
59f0f82ce75b450001a699ad,SCN,2024-06-20_12h30.03.817,LearnStrategy,2023.2.3,Win32,60.60606061,3,1,3,-0.058333291,-0.25,1,0,0,1.2323,Peridotite_14,7,14,2,4,1.232,0.112963005,-0.390740783,1,0,0,4.3924,Peridotite_rect,7,4.392,1,2,0,2,0,1,,,,,,,,,,,,,
59f0f82ce75b450001a699ad,SCN,2024-06-20_12h30.03.817,LearnStrategy,2023.2.3,Win32,60.60606061,3,1,4,0.562037009,-0.108333376,1,0,0,1.1486,Andesite_05,1,05,3,8,1.149,-0.409259266,-0.257407436,1,0,0,1.3097,Andesite_rect,1,1.31,1,3,0,3,0,1,,,,,,,,,,,,,
59f0f82ce75b450001a699ad,SCN,2024-06-20_12h30.03.817,LearnStrategy,2023.2.3,Win32,60.60606061,3,1,5,-0.522222201,-0.252777806,1,0,0,1.3493,Diorite_11,3,11,2,1,1.349,0.107407393,-0.259259259,1,0,0,0.9586,Diorite_rect,3,0.959,1,4,0,4,0,1,,,,,,,,,,,,,
59f0f82ce75b450001a699ad,SCN,2024-06-20_12h30.03.817,LearnStrategy,2023.2.3,Win32,60.60606061,3,1,6,0.512963048,0.220370363,1,0,0,0.932,Obsidian_16,5,16,5,8,0.932,-0.371296282,-0.400000042,1,0,0,1.3094,Obsidian_rect,5,1.309,1,5,0,5,0,1,,,,,,,,,,,,,
59f0f82ce75b450001a699ad,SCN,2024-06-20_12h30.03.817,LearnStrategy,2023.2.3,Win32,60.60606061,3,1,7,-0.218518504,0.082407386,1,0,0,1.4482,Gabbro_14,4,14,4,3,1.448,-0.121296282,-0.256481524,1,0,0,2.1926,Basalt_rect,2,2.193,0,6,0,6,0,1,,,,,,,,,,,,,
59f0f82ce75b450001a699ad,SCN,2024-06-20_12h30.03.817,LearnStrategy,2023.2.3,Win32,60.60606061,3,1,8,-0.214814787,0.077777757,1,0,0,0.8664,Gabbro_14,4,14,4,3,0.866,0.348148205,-0.228703746,1,0,0,0.8587,Gabbro_rect,4,0.859,1,7,0,7,0,1,,,,,,,,,,,,,
59f0f82ce75b450001a699ad,SCN,2024-06-20_12h30.03.817,LearnStrategy,2023.2.3,Win32,60.60606061,3,1,9,-0.036111125,0.234259252,1,0,0,2.548,Peridotite_06,7,06,5,4,2.548,-0.089814787,-0.393518519,1,0,0,0.8864,Pegmatite_rect,6,0.886,0,8,0,8,0,1,,,,,,,,,,,,,
59f0f82ce75b450001a699ad,SCN,2024-06-20_12h30.03.817,LearnStrategy,2023.2.3,Win32,60.60606061,3,1,10,0.211111139,0.058333326,1,0,0,1.1642,Pegmatite_11,6,11,4,6,1.164,-0.112962935,-0.386111153,1,0,0,0.9589,Pegmatite_rect,6,0.959,1,9,0,9,0,1,,,,,,,,,,,,,
59f0f82ce75b450001a699ad,SCN,2024-06-20_12h30.03.817,LearnStrategy,2023.2.3,Win32,60.60606061,3,1,11,0.381481453,-0.087037051,1,0,0,1.3813,Diorite_15,3,15,3,7,1.381,0.328703704,-0.255555541,1,0,0,1.1757,Gabbro_rect,4,1.176,0,10,0,10,0,1,,,,,,,,,,,,,
59f0f82ce75b450001a699ad,SCN,2024-06-20_12h30.03.817,LearnStrategy,2023.2.3,Win32,60.60606061,3,1,12,0.211111139,-0.431481467,1,0,0,1.5822,Peridotite_04,7,04,1,6,1.582,0.126851894,-0.391666695,1,0,0,1.3259,Peridotite_rect,7,1.326,1,11,0,11,0,1,,,,,,,,,,,,,
59f0f82ce75b450001a699ad,SCN,2024-06-20_12h30.03.817,LearnStrategy,2023.2.3,Win32,60.60606061,3,1,13,-0.240740741,-0.422222208,1,0,0,0.8802,Andesite_14,1,14,1,3,0.88,0.432407379,-0.411111125,1,0,0,0.9599,Pumice_rect,8,0.96,0,12,0,12,0,1,,,,,,,,,,,,,
59f0f82ce75b450001a699ad,SCN,2024-06-20_12h30.03.817,LearnStrategy,2023.2.3,Win32,60.60606061,3,1,14,-0.222222222,-0.407407407,1,0,0,0.7989,Andesite_14,1,14,1,3,0.799,-0.37037037,-0.240740741,1,0,0,2.3756,Andesite_rect,1,2.376,1,13,0,13,0,1,,,,,,,,,,,,,
59f0f82ce75b450001a699ad,SCN,2024-06-20_12h30.03.817,LearnStrategy,2023.2.3,Win32,60.60606061,3,1,15,0.362037094,0.089814822,1,0,0,3.1314,Pegmatite_13,6,13,4,7,3.131,-0.163888861,-0.410185213,1,0,0,0.8863,Pegmatite_rect,6,0.886,1,14,0,14,0,1,,,,,,,,,,,,,
59f0f82ce75b450001a699ad,SCN,2024-06-20_12h30.03.817,LearnStrategy,2023.2.3,Win32,60.60606061,3,1,16,0.240740741,0.391666668,1,0,0,3.4815,Basalt_16,2,16,6,6,3.481,0.35555564,-0.259259259,1,0,0,1.6374,Gabbro_rect,4,1.637,0,15,0,15,0,1,,,,,,,,,,,,,
59f0f82ce75b450001a699ad,SCN,2024-06-20_12h30.03.817,LearnStrategy,2023.2.3,Win32,60.60606061,3,2,1,,,,,,,,5,10,,,,,,,,,,,5,1.226,1,,,,,,-0.397222201,-0.401851866,1,0,0,1.226,Obsidian_rect,0,0,0,0,1,
59f0f82ce75b450001a699ad,SCN,2024-06-20_12h30.03.817,LearnStrategy,2023.2.3,Win32,60.60606061,3,2,2,,,,,,,,3,09,,,,,,,,,,,3,0.993,1,,,,,,0.150000042,-0.238888917,1,0,0,0.9928,Diorite_rect,1,0,1,0,1,
59f0f82ce75b450001a699ad,SCN,2024-06-20_12h30.03.817,LearnStrategy,2023.2.3,Win32,60.60606061,3,2,3,,,,,,,,7,05,,,,,,,,,,,7,4.243,1,,,,,,0.116666653,-0.411111125,1,0,0,4.2429,Peridotite_rect,2,0,2,0,1,
59f0f82ce75b450001a699ad,SCN,2024-06-20_12h30.03.817,LearnStrategy,2023.2.3,Win32,60.60606061,3,2,4,,,,,,,,6,05,,,,,,,,,,,1,3.105,0,,,,,,-0.377777771,-0.241666653,1,0,0,3.1046,Andesite_rect,3,0,3,0,1,
59f0f82ce75b450001a699ad,SCN,2024-06-20_12h30.03.817,LearnStrategy,2023.2.3,Win32,60.60606061,3,2,5,,,,,,,,1,06,,,,,,,,,,,1,3.654,1,,,,,,-0.461111104,-0.259259259,1,0,0,3.6542,Andesite_rect,4,0,4,0,1,
59f0f82ce75b450001a699ad,SCN,2024-06-20_12h30.03.817,LearnStrategy,2023.2.3,Win32,60.60606061,3,2,6,,,,,,,,2,05,,,,,,,,,,,2,1.471,1,,,,,,-0.16851849,-0.262037065,1,0,0,1.4712,Basalt_rect,5,0,5,0,1,
59f0f82ce75b450001a699ad,SCN,2024-06-20_12h30.03.817,LearnStrategy,2023.2.3,Win32,60.60606061,3,2,7,,,,,,,,5,12,,,,,,,,,,,5,1.092,1,,,,,,-0.378703683,-0.396296325,1,0,0,1.0924,Obsidian_rect,6,0,6,0,1,
59f0f82ce75b450001a699ad,SCN,2024-06-20_12h30.03.817,LearnStrategy,2023.2.3,Win32,60.60606061,3,2,8,,,,,,,,6,10,,,,,,,,,,,6,2.677,1,,,,,,-0.108333305,-0.389814801,1,0,0,2.6766,Pegmatite_rect,7,0,7,0,1,
59f0f82ce75b450001a699ad,SCN,2024-06-20_12h30.03.817,LearnStrategy,2023.2.3,Win32,60.60606061,3,2,9,,,,,,,,8,06,,,,,,,,,,,8,1.171,1,,,,,,0.349074046,-0.392592607,1,0,0,1.1709,Pumice_rect,8,0,8,0,1,
59f0f82ce75b450001a699ad,SCN,2024-06-20_12h30.03.817,LearnStrategy,2023.2.3,Win32,60.60606061,3,2,10,,,,,,,,3,08,,,,,,,,,,,3,0.877,1,,,,,,0.15370369,-0.249074088,1,0,0,0.8768,Diorite_rect,9,0,9,0,1,
59f0f82ce75b450001a699ad,SCN,2024-06-20_12h30.03.817,LearnStrategy,2023.2.3,Win32,60.60606061,3,2,11,,,,,,,,4,05,,,,,,,,,,,2,2.443,0,,,,,,-0.079629616,-0.240740741,1,0,0,2.4427,Basalt_rect,10,0,10,0,1,
59f0f82ce75b450001a699ad,SCN,2024-06-20_12h30.03.817,LearnStrategy,2023.2.3,Win32,60.60606061,3,2,12,,,,,,,,7,12,,,,,,,,,,,7,3.337,1,,,,,,0.053703732,-0.397222236,1,0,0,3.3375,Peridotite_rect,11,0,11,0,1,
59f0f82ce75b450001a699ad,SCN,2024-06-20_12h30.03.817,LearnStrategy,2023.2.3,Win32,60.60606061,3,2,13,,,,,,,,4,10,,,,,,,,,,,2,2.593,0,,,,,,-0.045370384,-0.258333347,1,0,0,2.5926,Basalt_rect,12,0,12,0,1,
59f0f82ce75b450001a699ad,SCN,2024-06-20_12h30.03.817,LearnStrategy,2023.2.3,Win32,60.60606061,3,2,14,,,,,,,,8,03,,,,,,,,,,,8,1.588,1,,,,,,0.41851849,-0.393518519,1,0,0,1.588,Pumice_rect,13,0,13,0,1,
59f0f82ce75b450001a699ad,SCN,2024-06-20_12h30.03.817,LearnStrategy,2023.2.3,Win32,60.60606061,3,2,15,,,,,,,,2,08,,,,,,,,,,,2,1.159,1,,,,,,-0.125,-0.236111111,1,0,0,1.1594,Basalt_rect,14,0,14,0,1,
59f0f82ce75b450001a699ad,SCN,2024-06-20_12h30.03.817,LearnStrategy,2023.2.3,Win32,60.60606061,3,2,16,,,,,,,,1,10,,,,,,,,,,,1,2.432,1,,,,,,-0.388888889,-0.249074088,1,0,0,2.4318,Andesite_rect,15,0,15,0,1,
59f0f82ce75b450001a699ad,SCN,2024-06-20_12h30.03.817,LearnStrategy,2023.2.3,Win32,60.60606061,4,1,1,-0.220370328,0.099074081,1,0,0,1.7658,Gabbro_14,4,14,4,3,1.766,0.444444444,-0.249074088,1,0,0,0.7097,Gabbro_rect,4,0.71,1,0,0,0,0,1,,,,,,,,,,,,,
59f0f82ce75b450001a699ad,SCN,2024-06-20_12h30.03.817,LearnStrategy,2023.2.3,Win32,60.60606061,4,1,2,0.051851838,0.087037016,1,0,0,0.8806,Basalt_04,2,04,4,5,0.881,0.398148148,-0.233333376,1,0,0,0.7928,Gabbro_rect,4,0.793,0,1,0,1,0,1,,,,,,,,,,,,,
59f0f82ce75b450001a699ad,SCN,2024-06-20_12h30.03.817,LearnStrategy,2023.2.3,Win32,60.60606061,4,1,3,0.074999986,-0.393518519,1,0,0,0.7491,Gabbro_12,4,12,1,5,0.749,0.385185242,-0.247222265,1,0,0,0.7927,Gabbro_rect,4,0.793,1,2,0,2,0,1,,,,,,,,,,,,,
59f0f82ce75b450001a699ad,SCN,2024-06-20_12h30.03.817,LearnStrategy,2023.2.3,Win32,60.60606061,4,1,4,0.220370399,0.413888887,1,0,0,2.248,Basalt_16,2,16,6,6,2.248,-0.063888903,-0.259259259,1,0,0,1.8595,Basalt_rect,2,1.86,1,3,0,3,0,1,,,,,,,,,,,,,
59f0f82ce75b450001a699ad,SCN,2024-06-20_12h30.03.817,LearnStrategy,2023.2.3,Win32,60.60606061,4,1,5,-0.209259245,0.078703704,1,0,0,2.1991,Gabbro_14,4,14,4,3,2.199,0.339814787,-0.248148176,1,0,0,1.8091,Gabbro_rect,4,1.809,1,4,0,4,0,1,,,,,,,,,,,,,
59f0f82ce75b450001a699ad,SCN,2024-06-20_12h30.03.817,LearnStrategy,2023.2.3,Win32,60.60606061,4,1,6,0.198148162,-0.102777764,1,0,0,4.5144,Pumice_02,8,02,3,6,4.514,0.376851824,-0.404629672,1,0,0,0.9368,Pumice_rect,8,0.937,1,5,0,5,0,1,,,,,,,,,,,,,
59f0f82ce75b450001a699ad,SCN,2024-06-20_12h30.03.817,LearnStrategy,2023.2.3,Win32,60.60606061,4,1,7,-0.590740734,0.413888887,1,0,0,4.482,Obsidian_07,5,07,6,1,4.482,-0.41111109,-0.391666695,1,0,0,2.0533,Obsidian_rect,5,2.053,1,6,0,6,0,1,,,,,,,,,,,,,
59f0f82ce75b450001a699ad,SCN,2024-06-20_12h30.03.817,LearnStrategy,2023.2.3,Win32,60.60606061,4,1,8,-0.124074088,-0.087037051,1,0,0,3.6821,Andesite_11,1,11,3,4,3.682,-0.449074074,-0.243518547,1,0,0,0.7529,Andesite_rect,1,0.753,1,7,0,7,0,1,,,,,,,,,,,,,
59f0f82ce75b450001a699ad,SCN,2024-06-20_12h30.03.817,LearnStrategy,2023.2.3,Win32,60.60606061,4,1,9,0.093518504,-0.10092594,1,0,0,0.5156,Peridotite_15,7,15,3,5,0.516,0.116666653,-0.409259302,1,0,0,1.2427,Peridotite_rect,7,1.243,1,8,0,8,0,1,,,,,,,,,,,,,
59f0f82ce75b450001a699ad,SCN,2024-06-20_12h30.03.817,LearnStrategy,2023.2.3,Win32,60.60606061,4,1,10,0.35555564,-0.26944443,1,0,0,3.3482,Andesite_07,1,07,2,7,3.348,-0.460185192,-0.247222265,1,0,0,0.9091,Andesite_rect,1,0.909,1,9,0,9,0,1,,,,,,,,,,,,,
59f0f82ce75b450001a699ad,SCN,2024-06-20_12h30.03.817,LearnStrategy,2023.2.3,Win32,60.60606061,4,1,11,-0.366666653,0.075925933,1,0,0,1.0662,Diorite_16,3,16,4,2,1.066,0.113888917,-0.234259288,1,0,0,0.7421,Diorite_rect,3,0.742,1,10,0,10,0,1,,,,,,,,,,,,,
59f0f82ce75b450001a699ad,SCN,2024-06-20_12h30.03.817,LearnStrategy,2023.2.3,Win32,60.60606061,4,1,12,0.053703732,0.209259263,1,0,0,0.7154,Andesite_16,1,16,5,5,0.715,-0.426851838,-0.262037065,1,0,0,0.9927,Andesite_rect,1,0.993,1,11,0,11,0,1,,,,,,,,,,,,,
59f0f82ce75b450001a699ad,SCN,2024-06-20_12h30.03.817,LearnStrategy,2023.2.3,Win32,60.60606061,4,1,13,-0.505555541,0.261111101,1,0,0,1.2993,Pegmatite_06,6,06,5,1,1.299,-0.112037023,-0.413888931,1,0,0,1.1418,Pegmatite_rect,6,1.142,1,12,0,12,0,1,,,,,,,,,,,,,
59f0f82ce75b450001a699ad,SCN,2024-06-20_12h30.03.817,LearnStrategy,2023.2.3,Win32,60.60606061,4,1,14,0.381481453,0.263888889,1,0,0,2.0152,Gabbro_01,4,01,5,7,2.015,0.160185213,-0.266666695,1,0,0,2.343,Diorite_rect,3,2.343,0,13,0,13,0,1,,,,,,,,,,,,,
59f0f82ce75b450001a699ad,SCN,2024-06-20_12h30.03.817,LearnStrategy,2023.2.3,Win32,60.60606061,4,1,15,0.421296296,0.26666666,1,0,0,0.9488,Gabbro_01,4,01,5,7,0.949,0.383333418,-0.235185199,1,0,0,1.0431,Gabbro_rect,4,1.043,1,14,0,14,0,1,,,,,,,,,,,,,
59f0f82ce75b450001a699ad,SCN,2024-06-20_12h30.03.817,LearnStrategy,2023.2.3,Win32,60.60606061,4,1,16,-0.288888861,0.084259245,1,0,0,1.3651,Gabbro_14,4,14,4,3,1.365,0.344444416,-0.233333376,1,0,0,2.1424,Gabbro_rect,4,2.142,1,15,0,15,0,1,,,,,,,,,,,,,
59f0f82ce75b450001a699ad,SCN,2024-06-20_12h30.03.817,LearnStrategy,2023.2.3,Win32,60.60606061,4,2,1,,,,,,,,4,03,,,,,,,,,,,3,1.575,0,,,,,,0.102777764,-0.23055557,1,0,0,1.5745,Diorite_rect,0,0,0,0,1,
59f0f82ce75b450001a699ad,SCN,2024-06-20_12h30.03.817,LearnStrategy,2023.2.3,Win32,60.60606061,4,2,2,,,,,,,,5,08,,,,,,,,,,,5,1.076,1,,,,,,-0.430555556,-0.393518519,1,0,0,1.0763,Obsidian_rect,1,0,1,0,1,
59f0f82ce75b450001a699ad,SCN,2024-06-20_12h30.03.817,LearnStrategy,2023.2.3,Win32,60.60606061,4,2,3,,,,,,,,2,08,,,,,,,,,,,2,1.626,1,,,,,,-0.172222208,-0.255555541,1,0,0,1.6265,Basalt_rect,2,0,2,0,1,
59f0f82ce75b450001a699ad,SCN,2024-06-20_12h30.03.817,LearnStrategy,2023.2.3,Win32,60.60606061,4,2,4,,,,,,,,1,01,,,,,,,,,,,1,3.459,1,,,,,,-0.356481481,-0.249074088,1,0,0,3.4594,Andesite_rect,3,0,3,0,1,
59f0f82ce75b450001a699ad,SCN,2024-06-20_12h30.03.817,LearnStrategy,2023.2.3,Win32,60.60606061,4,2,5,,,,,,,,3,13,,,,,,,,,,,3,1.188,1,,,,,,0.104629658,-0.260185171,1,0,0,1.1877,Diorite_rect,4,0,4,0,1,
59f0f82ce75b450001a699ad,SCN,2024-06-20_12h30.03.817,LearnStrategy,2023.2.3,Win32,60.60606061,4,2,6,,,,,,,,5,04,,,,,,,,,,,5,1.077,1,,,,,,-0.402777778,-0.39907406,1,0,0,1.0767,Obsidian_rect,5,0,5,0,1,
59f0f82ce75b450001a699ad,SCN,2024-06-20_12h30.03.817,LearnStrategy,2023.2.3,Win32,60.60606061,4,2,7,,,,,,,,7,13,,,,,,,,,,,7,3.643,1,,,,,,0.089814857,-0.389814801,1,0,0,3.6433,Peridotite_rect,6,0,6,0,1,
59f0f82ce75b450001a699ad,SCN,2024-06-20_12h30.03.817,LearnStrategy,2023.2.3,Win32,60.60606061,4,2,8,,,,,,,,8,16,,,,,,,,,,,8,1.271,1,,,,,,0.366666723,-0.389814801,1,0,0,1.2712,Pumice_rect,7,0,7,0,1,
59f0f82ce75b450001a699ad,SCN,2024-06-20_12h30.03.817,LearnStrategy,2023.2.3,Win32,60.60606061,4,2,9,,,,,,,,7,02,,,,,,,,,,,7,1.843,1,,,,,,0.150925954,-0.388888889,1,0,0,1.8433,Peridotite_rect,8,0,8,0,1,
59f0f82ce75b450001a699ad,SCN,2024-06-20_12h30.03.817,LearnStrategy,2023.2.3,Win32,60.60606061,4,2,10,,,,,,,,4,05,,,,,,,,,,,4,8.093,1,,,,,,0.350000028,-0.246296282,1,0,0,8.0928,Gabbro_rect,9,0,9,0,1,
59f0f82ce75b450001a699ad,SCN,2024-06-20_12h30.03.817,LearnStrategy,2023.2.3,Win32,60.60606061,4,2,11,,,,,,,,8,06,,,,,,,,,,,8,1.137,1,,,,,,0.426851908,-0.417592578,1,0,0,1.1371,Pumice_rect,10,0,10,0,1,
59f0f82ce75b450001a699ad,SCN,2024-06-20_12h30.03.817,LearnStrategy,2023.2.3,Win32,60.60606061,4,2,12,,,,,,,,2,01,,,,,,,,,,,2,1.227,1,,,,,,-0.139814801,-0.238888917,1,0,0,1.2267,Basalt_rect,11,0,11,0,1,
59f0f82ce75b450001a699ad,SCN,2024-06-20_12h30.03.817,LearnStrategy,2023.2.3,Win32,60.60606061,4,2,13,,,,,,,,3,09,,,,,,,,,,,3,0.976,1,,,,,,0.124074088,-0.260185171,1,0,0,0.9761,Diorite_rect,12,0,12,0,1,
59f0f82ce75b450001a699ad,SCN,2024-06-20_12h30.03.817,LearnStrategy,2023.2.3,Win32,60.60606061,4,2,14,,,,,,,,1,03,,,,,,,,,,,1,1.093,1,,,,,,-0.459259245,-0.260185171,1,0,0,1.0933,Andesite_rect,13,0,13,0,1,
59f0f82ce75b450001a699ad,SCN,2024-06-20_12h30.03.817,LearnStrategy,2023.2.3,Win32,60.60606061,4,2,15,,,,,,,,6,05,,,,,,,,,,,1,5.543,0,,,,,,-0.341666645,-0.246296282,1,0,0,5.5429,Andesite_rect,14,0,14,0,1,
59f0f82ce75b450001a699ad,SCN,2024-06-20_12h30.03.817,LearnStrategy,2023.2.3,Win32,60.60606061,4,2,16,,,,,,,,6,12,,,,,,,,,,,3,4.854,0,,,,,,0.142592607,-0.259259259,1,0,0,4.8541,Diorite_rect,15,0,15,0,1,
59f0f82ce75b450001a699ad,SCN,2024-06-20_12h30.03.817,LearnStrategy,2023.2.3,Win32,60.60606061,5,1,1,0.277777778,0.2537037,1,0,0,2.4491,Peridotite_07,7,07,5,6,2.449,0.328703704,-0.249074088,1,0,0,0.9592,Gabbro_rect,4,0.959,0,0,0,0,0,1,,,,,,,,,,,,,
59f0f82ce75b450001a699ad,SCN,2024-06-20_12h30.03.817,LearnStrategy,2023.2.3,Win32,60.60606061,5,1,2,0.409259231,0.269444448,1,0,0,0.7145,Gabbro_01,4,01,5,7,0.715,0.367592564,-0.23055557,1,0,0,1.0424,Gabbro_rect,4,1.042,1,1,0,1,0,1,,,,,,,,,,,,,
59f0f82ce75b450001a699ad,SCN,2024-06-20_12h30.03.817,LearnStrategy,2023.2.3,Win32,60.60606061,5,1,3,0.541666667,0.1175926,1,0,0,0.6988,Andesite_04,1,04,4,8,0.699,-0.368518511,-0.241666653,1,0,0,2.3927,Andesite_rect,1,2.393,1,2,0,2,0,1,,,,,,,,,,,,,
59f0f82ce75b450001a699ad,SCN,2024-06-20_12h30.03.817,LearnStrategy,2023.2.3,Win32,60.60606061,5,1,4,-0.19259255,0.071296303,1,0,0,0.6161,Gabbro_14,4,14,4,3,0.616,0.387963048,-0.265740783,1,0,0,0.9423,Gabbro_rect,4,0.942,1,3,0,3,0,1,,,,,,,,,,,,,
59f0f82ce75b450001a699ad,SCN,2024-06-20_12h30.03.817,LearnStrategy,2023.2.3,Win32,60.60606061,5,1,5,-0.114814829,-0.213888875,1,0,0,0.599,Peridotite_14,7,14,2,4,0.599,0.347222222,-0.257407436,1,0,0,5.3261,Gabbro_rect,4,5.326,0,4,0,4,0,1,,,,,,,,,,,,,
59f0f82ce75b450001a699ad,SCN,2024-06-20_12h30.03.817,LearnStrategy,2023.2.3,Win32,60.60606061,5,1,6,-0.567592586,-0.281481496,1,0,0,0.8971,Diorite_11,3,11,2,1,0.897,0.137962977,-0.261111153,1,0,0,0.8095,Diorite_rect,3,0.81,1,5,0,5,0,1,,,,,,,,,,,,,
59f0f82ce75b450001a699ad,SCN,2024-06-20_12h30.03.817,LearnStrategy,2023.2.3,Win32,60.60606061,5,1,7,-0.588888875,-0.097222222,1,0,0,0.7485,Gabbro_11,4,11,3,1,0.749,-0.180555556,-0.265740783,1,0,0,1.0908,Basalt_rect,2,1.091,0,6,0,6,0,1,,,,,,,,,,,,,
59f0f82ce75b450001a699ad,SCN,2024-06-20_12h30.03.817,LearnStrategy,2023.2.3,Win32,60.60606061,5,1,8,-0.544444437,-0.104629658,1,0,0,0.6823,Gabbro_11,4,11,3,1,0.682,0.387963048,-0.237963005,1,0,0,1.0264,Gabbro_rect,4,1.026,1,7,0,7,0,1,,,,,,,,,,,,,
59f0f82ce75b450001a699ad,SCN,2024-06-20_12h30.03.817,LearnStrategy,2023.2.3,Win32,60.60606061,5,1,9,-0.549074067,-0.39444443,1,0,0,1.2321,Pegmatite_03,6,03,1,1,1.232,0.097222222,-0.406481496,1,0,0,2.5759,Peridotite_rect,7,2.576,0,8,0,8,0,1,,,,,,,,,,,,,
59f0f82ce75b450001a699ad,SCN,2024-06-20_12h30.03.817,LearnStrategy,2023.2.3,Win32,60.60606061,5,1,10,0.047222208,-0.075925933,1,0,0,0.8989,Peridotite_15,7,15,3,5,0.899,0.130555541,-0.395370413,1,0,0,1.7589,Peridotite_rect,7,1.759,1,9,0,9,0,1,,,,,,,,,,,,,
59f0f82ce75b450001a699ad,SCN,2024-06-20_12h30.03.817,LearnStrategy,2023.2.3,Win32,60.60606061,5,1,11,0.229629658,0.060185185,1,0,0,1.215,Pegmatite_11,6,11,4,6,1.215,-0.089814787,-0.410185213,1,0,0,1.0928,Pegmatite_rect,6,1.093,1,10,0,10,0,1,,,,,,,,,,,,,
59f0f82ce75b450001a699ad,SCN,2024-06-20_12h30.03.817,LearnStrategy,2023.2.3,Win32,60.60606061,5,1,12,0.352777834,0.070370356,1,0,0,1.0655,Pegmatite_13,6,13,4,7,1.066,-0.079629616,-0.413888931,1,0,0,0.7757,Pegmatite_rect,6,0.776,1,11,0,11,0,1,,,,,,,,,,,,,
59f0f82ce75b450001a699ad,SCN,2024-06-20_12h30.03.817,LearnStrategy,2023.2.3,Win32,60.60606061,5,1,13,-0.518518519,0.232407411,1,0,0,1.1469,Pegmatite_06,6,06,5,1,1.147,-0.121296282,-0.37962963,1,0,0,1.5263,Pegmatite_rect,6,1.526,1,12,0,12,0,1,,,,,,,,,,,,,
59f0f82ce75b450001a699ad,SCN,2024-06-20_12h30.03.817,LearnStrategy,2023.2.3,Win32,60.60606061,5,1,14,-0.238888847,0.249074071,1,0,0,1.9657,Pumice_09,8,09,5,3,1.966,0.411111196,-0.382407436,1,0,0,0.9589,Pumice_rect,8,0.959,1,13,0,13,0,1,,,,,,,,,,,,,
59f0f82ce75b450001a699ad,SCN,2024-06-20_12h30.03.817,LearnStrategy,2023.2.3,Win32,60.60606061,5,1,15,0.540740826,0.087037016,1,0,0,1.4318,Andesite_04,1,04,4,8,1.432,0.407407407,-0.247222265,1,0,0,0.9756,Gabbro_rect,4,0.976,0,14,0,14,0,1,,,,,,,,,,,,,
59f0f82ce75b450001a699ad,SCN,2024-06-20_12h30.03.817,LearnStrategy,2023.2.3,Win32,60.60606061,5,1,16,0.580555527,-0.275925954,1,0,0,0.8491,Pumice_04,8,04,2,8,0.849,0.363888917,-0.380555541,1,0,0,1.3755,Pumice_rect,8,1.375,1,15,0,15,0,1,,,,,,,,,,,,,
59f0f82ce75b450001a699ad,SCN,2024-06-20_12h30.03.817,LearnStrategy,2023.2.3,Win32,60.60606061,5,2,1,,,,,,,,4,13,,,,,,,,,,,2,8.091,0,,,,,,-0.097222222,-0.237963005,1,0,0,8.0914,Basalt_rect,0,0,0,0,1,
59f0f82ce75b450001a699ad,SCN,2024-06-20_12h30.03.817,LearnStrategy,2023.2.3,Win32,60.60606061,5,2,2,,,,,,,,4,16,,,,,,,,,,,2,2.57,0,,,,,,-0.103703675,-0.24537037,1,0,0,2.5703,Basalt_rect,1,0,1,0,1,
59f0f82ce75b450001a699ad,SCN,2024-06-20_12h30.03.817,LearnStrategy,2023.2.3,Win32,60.60606061,5,2,3,,,,,,,,1,09,,,,,,,,,,,1,0.86,1,,,,,,-0.378703683,-0.242592635,1,0,0,0.8597,Andesite_rect,2,0,2,0,1,
59f0f82ce75b450001a699ad,SCN,2024-06-20_12h30.03.817,LearnStrategy,2023.2.3,Win32,60.60606061,5,2,4,,,,,,,,2,12,,,,,,,,,,,8,0.96,0,,,,,,0.396296325,-0.408333319,1,0,0,0.9601,Pumice_rect,3,0,3,0,1,
59f0f82ce75b450001a699ad,SCN,2024-06-20_12h30.03.817,LearnStrategy,2023.2.3,Win32,60.60606061,5,2,5,,,,,,,,3,06,,,,,,,,,,,3,0.992,1,,,,,,0.172222208,-0.263888889,1,0,0,0.9922,Diorite_rect,4,0,4,0,1,
59f0f82ce75b450001a699ad,SCN,2024-06-20_12h30.03.817,LearnStrategy,2023.2.3,Win32,60.60606061,5,2,6,,,,,,,,1,06,,,,,,,,,,,1,1.527,1,,,,,,-0.37962963,-0.249074088,1,0,0,1.5266,Andesite_rect,5,0,5,0,1,
59f0f82ce75b450001a699ad,SCN,2024-06-20_12h30.03.817,LearnStrategy,2023.2.3,Win32,60.60606061,5,2,7,,,,,,,,8,03,,,,,,,,,,,8,0.96,1,,,,,,0.460185157,-0.412037037,1,0,0,0.9599,Pumice_rect,6,0,6,0,1,
59f0f82ce75b450001a699ad,SCN,2024-06-20_12h30.03.817,LearnStrategy,2023.2.3,Win32,60.60606061,5,2,8,,,,,,,,7,12,,,,,,,,,,,3,5.56,0,,,,,,0.12962963,-0.250925912,1,0,0,5.5602,Diorite_rect,7,0,7,0,1,
59f0f82ce75b450001a699ad,SCN,2024-06-20_12h30.03.817,LearnStrategy,2023.2.3,Win32,60.60606061,5,2,9,,,,,,,,3,02,,,,,,,,,,,3,1.487,1,,,,,,0.154629672,-0.234259288,1,0,0,1.4872,Diorite_rect,8,0,8,0,1,
59f0f82ce75b450001a699ad,SCN,2024-06-20_12h30.03.817,LearnStrategy,2023.2.3,Win32,60.60606061,5,2,10,,,,,,,,7,16,,,,,,,,,,,4,2.576,0,,,,,,0.368518547,-0.237963005,1,0,0,2.5759,Gabbro_rect,9,0,9,0,1,
59f0f82ce75b450001a699ad,SCN,2024-06-20_12h30.03.817,LearnStrategy,2023.2.3,Win32,60.60606061,5,2,11,,,,,,,,6,07,,,,,,,,,,,6,1.156,1,,,,,,-0.123148106,-0.396296325,1,0,0,1.1559,Pegmatite_rect,10,0,10,0,1,
59f0f82ce75b450001a699ad,SCN,2024-06-20_12h30.03.817,LearnStrategy,2023.2.3,Win32,60.60606061,5,2,12,,,,,,,,8,08,,,,,,,,,,,8,1.109,1,,,,,,0.350926011,-0.390740783,1,0,0,1.1094,Pumice_rect,11,0,11,0,1,
59f0f82ce75b450001a699ad,SCN,2024-06-20_12h30.03.817,LearnStrategy,2023.2.3,Win32,60.60606061,5,2,13,,,,,,,,2,09,,,,,,,,,,,2,1.126,1,,,,,,-0.057407379,-0.25462963,1,0,0,1.1262,Basalt_rect,12,0,12,0,1,
59f0f82ce75b450001a699ad,SCN,2024-06-20_12h30.03.817,LearnStrategy,2023.2.3,Win32,60.60606061,5,2,14,,,,,,,,6,08,,,,,,,,,,,6,2.143,1,,,,,,-0.107407393,-0.390740783,1,0,0,2.1427,Pegmatite_rect,13,0,13,0,1,
59f0f82ce75b450001a699ad,SCN,2024-06-20_12h30.03.817,LearnStrategy,2023.2.3,Win32,60.60606061,5,2,15,,,,,,,,5,11,,,,,,,,,,,5,0.959,1,,,,,,-0.37962963,-0.389814801,1,0,0,0.9592,Obsidian_rect,14,0,14,0,1,
59f0f82ce75b450001a699ad,SCN,2024-06-20_12h30.03.817,LearnStrategy,2023.2.3,Win32,60.60606061,5,2,16,,,,,,,,5,12,,,,,,,,,,,5,0.776,1,,,,,,-0.37962963,-0.390740783,1,0,0,0.7761,Obsidian_rect,15,0,15,0,1,
59f0f82ce75b450001a699ad,SCN,2024-06-20_12h30.03.817,LearnStrategy,2023.2.3,Win32,60.60606061,6,1,1,-0.562037044,0.097222222,1,0,0,3.6814,Gabbro_09,4,09,4,1,3.681,-0.149999972,-0.26944443,1,0,0,3.7535,Basalt_rect,2,3.754,0,0,0,0,0,1,,,,,,,,,,,,,
59f0f82ce75b450001a699ad,SCN,2024-06-20_12h30.03.817,LearnStrategy,2023.2.3,Win32,60.60606061,6,1,2,0.056481467,-0.413888931,1,0,0,7.4478,Gabbro_12,4,12,1,5,7.448,0.373148176,-0.25462963,1,0,0,1.5196,Gabbro_rect,4,1.52,1,1,0,1,0,1,,,,,,,,,,,,,
59f0f82ce75b450001a699ad,SCN,2024-06-20_12h30.03.817,LearnStrategy,2023.2.3,Win32,60.60606061,6,1,3,-0.284259231,0.086111104,1,0,0,0.6119,Gabbro_14,4,14,4,3,0.612,0.161111125,-0.257407436,1,0,0,0.6422,Diorite_rect,3,0.642,0,2,0,2,0,1,,,,,,,,,,,,,
59f0f82ce75b450001a699ad,SCN,2024-06-20_12h30.03.817,LearnStrategy,2023.2.3,Win32,60.60606061,6,1,4,0.381481453,0.229629623,1,0,0,0.6481,Gabbro_01,4,01,5,7,0.648,0.396296325,-0.238888917,1,0,0,0.5919,Gabbro_rect,4,0.592,1,3,0,3,0,1,,,,,,,,,,,,,
59f0f82ce75b450001a699ad,SCN,2024-06-20_12h30.03.817,LearnStrategy,2023.2.3,Win32,60.60606061,6,1,5,-0.271296254,0.094444452,1,0,0,0.8971,Gabbro_14,4,14,4,3,0.897,0.095370399,-0.232407393,1,0,0,0.5761,Diorite_rect,3,0.576,0,4,0,4,0,1,,,,,,,,,,,,,
59f0f82ce75b450001a699ad,SCN,2024-06-20_12h30.03.817,LearnStrategy,2023.2.3,Win32,60.60606061,6,1,6,-0.250925912,0.082407386,1,0,0,0.5473,Gabbro_14,4,14,4,3,0.547,0.389814871,-0.248148176,1,0,0,0.6427,Gabbro_rect,4,0.643,1,5,0,5,0,1,,,,,,,,,,,,,
59f0f82ce75b450001a699ad,SCN,2024-06-20_12h30.03.817,LearnStrategy,2023.2.3,Win32,60.60606061,6,1,7,-0.566666674,-0.059259273,1,0,0,1.181,Gabbro_11,4,11,3,1,1.181,0.323148233,-0.252777806,1,0,0,1.1762,Gabbro_rect,4,1.176,1,6,0,6,0,1,,,,,,,,,,,,,
59f0f82ce75b450001a699ad,SCN,2024-06-20_12h30.03.817,LearnStrategy,2023.2.3,Win32,60.60606061,6,1,8,-0.545370349,-0.280555584,1,0,0,0.9977,Diorite_11,3,11,2,1,0.998,0.172222208,-0.236111111,1,0,0,0.5596,Diorite_rect,3,0.56,1,7,0,7,0,1,,,,,,,,,,,,,
59f0f82ce75b450001a699ad,SCN,2024-06-20_12h30.03.817,LearnStrategy,2023.2.3,Win32,60.60606061,6,1,9,0.060185185,-0.067592586,1,0,0,0.931,Peridotite_15,7,15,3,5,0.931,0.160185213,-0.396296325,1,0,0,0.809,Peridotite_rect,7,0.809,1,8,0,8,0,1,,,,,,,,,,,,,
59f0f82ce75b450001a699ad,SCN,2024-06-20_12h30.03.817,LearnStrategy,2023.2.3,Win32,60.60606061,6,1,10,-0.114814829,0.24166667,1,0,0,1.0471,Peridotite_06,7,06,5,4,1.047,0.140740783,-0.415740755,1,0,0,1.2766,Peridotite_rect,7,1.277,1,9,0,9,0,1,,,,,,,,,,,,,
59f0f82ce75b450001a699ad,SCN,2024-06-20_12h30.03.817,LearnStrategy,2023.2.3,Win32,60.60606061,6,1,11,0.260185171,-0.082407422,1,0,0,0.981,Pumice_02,8,02,3,6,0.981,0.361111111,-0.412037037,1,0,0,1.0622,Pumice_rect,8,1.062,1,10,0,10,0,1,,,,,,,,,,,,,
59f0f82ce75b450001a699ad,SCN,2024-06-20_12h30.03.817,LearnStrategy,2023.2.3,Win32,60.60606061,6,1,12,0.541666667,0.101851852,1,0,0,1.064,Andesite_04,1,04,4,8,1.064,-0.371296282,-0.250925912,1,0,0,1.3928,Andesite_rect,1,1.393,1,11,0,11,0,1,,,,,,,,,,,,,
59f0f82ce75b450001a699ad,SCN,2024-06-20_12h30.03.817,LearnStrategy,2023.2.3,Win32,60.60606061,6,1,13,-0.249074088,0.235185182,1,0,0,0.5644,Pumice_09,8,09,5,3,0.564,0.3648149,-0.382407436,1,0,0,1.1263,Pumice_rect,8,1.126,1,12,0,12,0,1,,,,,,,,,,,,,
59f0f82ce75b450001a699ad,SCN,2024-06-20_12h30.03.817,LearnStrategy,2023.2.3,Win32,60.60606061,6,1,14,-0.044444402,0.395370369,1,0,0,0.7643,Basalt_02,2,02,6,4,0.764,-0.200925898,-0.264814801,1,0,0,1.2592,Basalt_rect,2,1.259,1,13,0,13,0,1,,,,,,,,,,,,,
59f0f82ce75b450001a699ad,SCN,2024-06-20_12h30.03.817,LearnStrategy,2023.2.3,Win32,60.60606061,6,1,15,0.073148162,-0.395370413,1,0,0,1.1473,Gabbro_12,4,12,1,5,1.147,0.349074046,-0.255555541,1,0,0,1.3927,Gabbro_rect,4,1.393,1,14,0,14,0,1,,,,,,,,,,,,,
59f0f82ce75b450001a699ad,SCN,2024-06-20_12h30.03.817,LearnStrategy,2023.2.3,Win32,60.60606061,6,1,16,-0.057407379,0.082407386,1,0,0,0.9475,Diorite_14,3,14,4,4,0.947,0.15370369,-0.234259288,1,0,0,0.6596,Diorite_rect,3,0.66,1,15,0,15,0,1,,,,,,,,,,,,,
59f0f82ce75b450001a699ad,SCN,2024-06-20_12h30.03.817,LearnStrategy,2023.2.3,Win32,60.60606061,6,2,1,,,,,,,,3,12,,,,,,,,,,,3,1.176,1,,,,,,0.118518547,-0.25462963,1,0,0,1.1759,Diorite_rect,0,0,0,0,1,
59f0f82ce75b450001a699ad,SCN,2024-06-20_12h30.03.817,LearnStrategy,2023.2.3,Win32,60.60606061,6,2,2,,,,,,,,5,06,,,,,,,,,,,5,1.126,1,,,,,,-0.381481489,-0.406481496,1,0,0,1.1261,Obsidian_rect,1,0,1,0,1,
59f0f82ce75b450001a699ad,SCN,2024-06-20_12h30.03.817,LearnStrategy,2023.2.3,Win32,60.60606061,6,2,3,,,,,,,,8,15,,,,,,,,,,,8,1.126,1,,,,,,0.413888861,-0.397222236,1,0,0,1.1264,Pumice_rect,2,0,2,0,1,
59f0f82ce75b450001a699ad,SCN,2024-06-20_12h30.03.817,LearnStrategy,2023.2.3,Win32,60.60606061,6,2,4,,,,,,,,6,10,,,,,,,,,,,7,5.143,0,,,,,,0.079629616,-0.406481496,1,0,0,5.1426,Peridotite_rect,3,0,3,0,1,
59f0f82ce75b450001a699ad,SCN,2024-06-20_12h30.03.817,LearnStrategy,2023.2.3,Win32,60.60606061,6,2,5,,,,,,,,7,05,,,,,,,,,,,7,1.455,1,,,,,,0.077777792,-0.404629672,1,0,0,1.4545,Peridotite_rect,4,0,4,0,1,
59f0f82ce75b450001a699ad,SCN,2024-06-20_12h30.03.817,LearnStrategy,2023.2.3,Win32,60.60606061,6,2,6,,,,,,,,1,02,,,,,,,,,,,1,1.576,1,,,,,,-0.357407393,-0.233333376,1,0,0,1.5759,Andesite_rect,5,0,5,0,1,
59f0f82ce75b450001a699ad,SCN,2024-06-20_12h30.03.817,LearnStrategy,2023.2.3,Win32,60.60606061,6,2,7,,,,,,,,4,15,,,,,,,,,,,4,5.359,1,,,,,,0.402777778,-0.244444459,1,0,0,5.3589,Gabbro_rect,6,0,6,0,1,
59f0f82ce75b450001a699ad,SCN,2024-06-20_12h30.03.817,LearnStrategy,2023.2.3,Win32,60.60606061,6,2,8,,,,,,,,8,13,,,,,,,,,,,8,1.088,1,,,,,,0.368518547,-0.385185171,1,0,0,1.0876,Pumice_rect,7,0,7,0,1,
59f0f82ce75b450001a699ad,SCN,2024-06-20_12h30.03.817,LearnStrategy,2023.2.3,Win32,60.60606061,6,2,9,,,,,,,,1,10,,,,,,,,,,,1,1.909,1,,,,,,-0.395370377,-0.256481524,1,0,0,1.9092,Andesite_rect,8,0,8,0,1,
59f0f82ce75b450001a699ad,SCN,2024-06-20_12h30.03.817,LearnStrategy,2023.2.3,Win32,60.60606061,6,2,10,,,,,,,,2,14,,,,,,,,,,,2,1.775,1,,,,,,-0.080555527,-0.261111153,1,0,0,1.7754,Basalt_rect,9,0,9,0,1,
59f0f82ce75b450001a699ad,SCN,2024-06-20_12h30.03.817,LearnStrategy,2023.2.3,Win32,60.60606061,6,2,11,,,,,,,,2,05,,,,,,,,,,,2,2.193,1,,,,,,-0.147222236,-0.25,1,0,0,2.1928,Basalt_rect,10,0,10,0,1,
59f0f82ce75b450001a699ad,SCN,2024-06-20_12h30.03.817,LearnStrategy,2023.2.3,Win32,60.60606061,6,2,12,,,,,,,,4,10,,,,,,,,,,,4,6.976,1,,,,,,0.385185242,-0.238888917,1,0,0,6.9759,Gabbro_rect,11,0,11,0,1,
59f0f82ce75b450001a699ad,SCN,2024-06-20_12h30.03.817,LearnStrategy,2023.2.3,Win32,60.60606061,6,2,13,,,,,,,,6,16,,,,,,,,,,,3,3.336,0,,,,,,0.156481496,-0.24537037,1,0,0,3.3359,Diorite_rect,12,0,12,0,1,
59f0f82ce75b450001a699ad,SCN,2024-06-20_12h30.03.817,LearnStrategy,2023.2.3,Win32,60.60606061,6,2,14,,,,,,,,5,10,,,,,,,,,,,5,1.096,1,,,,,,-0.419444437,-0.392592607,1,0,0,1.0956,Obsidian_rect,13,0,13,0,1,
59f0f82ce75b450001a699ad,SCN,2024-06-20_12h30.03.817,LearnStrategy,2023.2.3,Win32,60.60606061,6,2,15,,,,,,,,7,10,,,,,,,,,,,7,1.377,1,,,,,,0.136111153,-0.39907406,1,0,0,1.3766,Peridotite_rect,14,0,14,0,1,
59f0f82ce75b450001a699ad,SCN,2024-06-20_12h30.03.817,LearnStrategy,2023.2.3,Win32,60.60606061,6,2,16,,,,,,,,3,08,,,,,,,,,,,3,0.859,1,,,,,,0.090740769,-0.237963005,1,0,0,0.8594,Diorite_rect,15,0,15,0,1,
59f0f82ce75b450001a699ad,SCN,2024-06-20_12h30.03.817,LearnStrategy,2023.2.3,Win32,60.60606061,7,1,1,0.220370399,0.082407386,1,0,0,0.9154,Pegmatite_11,6,11,4,6,0.915,-0.138888889,-0.40370369,1,0,0,0.8759,Pegmatite_rect,6,0.876,1,0,0,0,0,1,,,,,,,,,,,,,
59f0f82ce75b450001a699ad,SCN,2024-06-20_12h30.03.817,LearnStrategy,2023.2.3,Win32,60.60606061,7,1,2,0.422222279,0.079629616,1,0,0,0.7477,Pegmatite_13,6,13,4,7,0.748,-0.140740712,-0.412037037,1,0,0,0.8598,Pegmatite_rect,6,0.86,1,1,0,1,0,1,,,,,,,,,,,,,
59f0f82ce75b450001a699ad,SCN,2024-06-20_12h30.03.817,LearnStrategy,2023.2.3,Win32,60.60606061,7,1,3,-0.506481489,0.236111111,1,0,0,1.0642,Pegmatite_06,6,06,5,1,1.064,-0.179629644,-0.382407436,1,0,0,1.1256,Pegmatite_rect,6,1.126,1,2,0,2,0,1,,,,,,,,,,,,,
59f0f82ce75b450001a699ad,SCN,2024-06-20_12h30.03.817,LearnStrategy,2023.2.3,Win32,60.60606061,7,1,4,0.253703718,-0.257407436,1,0,0,1.0643,Obsidian_05,5,05,2,6,1.064,0.179629644,-0.240740741,1,0,0,0.5094,Diorite_rect,3,0.509,0,3,0,3,0,1,,,,,,,,,,,,,
59f0f82ce75b450001a699ad,SCN,2024-06-20_12h30.03.817,LearnStrategy,2023.2.3,Win32,60.60606061,7,1,5,0.117592635,-0.118518547,1,0,0,0.6811,Peridotite_15,7,15,3,5,0.681,0.146296325,-0.412037037,1,0,0,1.2925,Peridotite_rect,7,1.293,1,4,0,4,0,1,,,,,,,,,,,,,
59f0f82ce75b450001a699ad,SCN,2024-06-20_12h30.03.817,LearnStrategy,2023.2.3,Win32,60.60606061,7,1,6,0.555555556,-0.262037065,1,0,0,0.9816,Pumice_04,8,04,2,8,0.982,0.425000085,-0.393518519,1,0,0,0.4597,Pumice_rect,8,0.46,1,5,0,5,0,1,,,,,,,,,,,,,
59f0f82ce75b450001a699ad,SCN,2024-06-20_12h30.03.817,LearnStrategy,2023.2.3,Win32,60.60606061,7,1,7,0.536111196,0.066666674,1,0,0,0.8143,Andesite_04,1,04,4,8,0.814,-0.3824074,-0.250925912,1,0,0,2.4927,Andesite_rect,1,2.493,1,6,0,6,0,1,,,,,,,,,,,,,
59f0f82ce75b450001a699ad,SCN,2024-06-20_12h30.03.817,LearnStrategy,2023.2.3,Win32,60.60606061,7,1,8,-0.444444444,-0.275000042,1,0,0,0.8809,Pumice_14,8,14,2,2,0.881,0.37962963,-0.412962949,1,0,0,1.6086,Pumice_rect,8,1.609,1,7,0,7,0,1,,,,,,,,,,,,,
59f0f82ce75b450001a699ad,SCN,2024-06-20_12h30.03.817,LearnStrategy,2023.2.3,Win32,60.60606061,7,1,9,-0.372222229,-0.424074102,1,0,0,1.0307,Obsidian_02,5,02,1,2,1.031,-0.368518511,-0.410185213,1,0,0,0.9089,Obsidian_rect,5,0.909,1,8,0,8,0,1,,,,,,,,,,,,,
59f0f82ce75b450001a699ad,SCN,2024-06-20_12h30.03.817,LearnStrategy,2023.2.3,Win32,60.60606061,7,1,10,-0.511111118,-0.409259302,1,0,0,0.8479,Pegmatite_03,6,03,1,1,0.848,-0.073148162,-0.386111153,1,0,0,1.1094,Pegmatite_rect,6,1.109,1,9,0,9,0,1,,,,,,,,,,,,,
59f0f82ce75b450001a699ad,SCN,2024-06-20_12h30.03.817,LearnStrategy,2023.2.3,Win32,60.60606061,7,1,11,-0.348148134,0.098148134,1,0,0,0.8637,Diorite_16,3,16,4,2,0.864,0.128703718,-0.249074088,1,0,0,2.4094,Diorite_rect,3,2.409,1,10,0,10,0,1,,,,,,,,,,,,,
59f0f82ce75b450001a699ad,SCN,2024-06-20_12h30.03.817,LearnStrategy,2023.2.3,Win32,60.60606061,7,1,12,-0.071296268,0.236111111,1,0,0,0.8809,Peridotite_06,7,06,5,4,0.881,-0.068518533,-0.382407436,1,0,0,1.1591,Pegmatite_rect,6,1.159,0,11,0,11,0,1,,,,,,,,,,,,,
59f0f82ce75b450001a699ad,SCN,2024-06-20_12h30.03.817,LearnStrategy,2023.2.3,Win32,60.60606061,7,1,13,-0.070370356,0.083333333,1,0,0,0.697,Diorite_14,3,14,4,4,0.697,0.125,-0.244444459,1,0,0,0.693,Diorite_rect,3,0.693,1,12,0,12,0,1,,,,,,,,,,,,,
59f0f82ce75b450001a699ad,SCN,2024-06-20_12h30.03.817,LearnStrategy,2023.2.3,Win32,60.60606061,7,1,14,0.199999986,-0.214814857,1,0,0,0.6638,Obsidian_05,5,05,2,6,0.664,-0.412037037,-0.418518561,1,0,0,1.193,Obsidian_rect,5,1.193,1,13,0,13,0,1,,,,,,,,,,,,,
59f0f82ce75b450001a699ad,SCN,2024-06-20_12h30.03.817,LearnStrategy,2023.2.3,Win32,60.60606061,7,1,15,0.032407407,0.067592586,1,0,0,0.7641,Basalt_04,2,04,4,5,0.764,-0.088888875,-0.233333376,1,0,0,1.6093,Basalt_rect,2,1.609,1,14,0,14,0,1,,,,,,,,,,,,,
59f0f82ce75b450001a699ad,SCN,2024-06-20_12h30.03.817,LearnStrategy,2023.2.3,Win32,60.60606061,7,1,16,-0.434259238,0.106481481,1,0,0,0.5474,Diorite_16,3,16,4,2,0.547,0.175925926,-0.242592635,1,0,0,0.8754,Diorite_rect,3,0.875,1,15,0,15,0,1,,,,,,,,,,,,,
59f0f82ce75b450001a699ad,SCN,2024-06-20_12h30.03.817,LearnStrategy,2023.2.3,Win32,60.60606061,7,2,1,,,,,,,,5,10,,,,,,,,,,,5,1.076,1,,,,,,-0.397222201,-0.402777778,1,0,0,1.0756,Obsidian_rect,0,0,0,0,1,
59f0f82ce75b450001a699ad,SCN,2024-06-20_12h30.03.817,LearnStrategy,2023.2.3,Win32,60.60606061,7,2,2,,,,,,,,5,11,,,,,,,,,,,5,0.86,1,,,,,,-0.413888896,-0.414814843,1,0,0,0.8597,Obsidian_rect,1,0,1,0,1,
59f0f82ce75b450001a699ad,SCN,2024-06-20_12h30.03.817,LearnStrategy,2023.2.3,Win32,60.60606061,7,2,3,,,,,,,,1,01,,,,,,,,,,,3,1.91,0,,,,,,0.186111097,-0.249074088,1,0,0,1.9099,Diorite_rect,2,0,2,0,1,
59f0f82ce75b450001a699ad,SCN,2024-06-20_12h30.03.817,LearnStrategy,2023.2.3,Win32,60.60606061,7,2,4,,,,,,,,6,08,,,,,,,,,,,6,1.193,1,,,,,,-0.103703675,-0.391666695,1,0,0,1.1926,Pegmatite_rect,3,0,3,0,1,
59f0f82ce75b450001a699ad,SCN,2024-06-20_12h30.03.817,LearnStrategy,2023.2.3,Win32,60.60606061,7,2,5,,,,,,,,3,06,,,,,,,,,,,3,1.193,1,,,,,,0.235185199,-0.270370413,1,0,0,1.1934,Diorite_rect,4,0,4,0,1,
59f0f82ce75b450001a699ad,SCN,2024-06-20_12h30.03.817,LearnStrategy,2023.2.3,Win32,60.60606061,7,2,6,,,,,,,,8,15,,,,,,,,,,,8,1.126,1,,,,,,0.411111196,-0.39907406,1,0,0,1.1262,Pumice_rect,5,0,5,0,1,
59f0f82ce75b450001a699ad,SCN,2024-06-20_12h30.03.817,LearnStrategy,2023.2.3,Win32,60.60606061,7,2,7,,,,,,,,2,09,,,,,,,,,,,2,1.409,1,,,,,,-0.161111125,-0.231481481,1,0,0,1.4085,Basalt_rect,6,0,6,0,1,
59f0f82ce75b450001a699ad,SCN,2024-06-20_12h30.03.817,LearnStrategy,2023.2.3,Win32,60.60606061,7,2,8,,,,,,,,4,03,,,,,,,,,,,3,1.893,0,,,,,,0.123148176,-0.240740741,1,0,0,1.8927,Diorite_rect,7,0,7,0,1,
59f0f82ce75b450001a699ad,SCN,2024-06-20_12h30.03.817,LearnStrategy,2023.2.3,Win32,60.60606061,7,2,9,,,,,,,,7,13,,,,,,,,,,,7,5.443,1,,,,,,0.162962949,-0.407407407,1,0,0,5.4428,Peridotite_rect,8,0,8,0,1,
59f0f82ce75b450001a699ad,SCN,2024-06-20_12h30.03.817,LearnStrategy,2023.2.3,Win32,60.60606061,7,2,10,,,,,,,,3,08,,,,,,,,,,,3,0.771,1,,,,,,0.137037065,-0.229629658,1,0,0,0.7706,Diorite_rect,9,0,9,0,1,
59f0f82ce75b450001a699ad,SCN,2024-06-20_12h30.03.817,LearnStrategy,2023.2.3,Win32,60.60606061,7,2,11,,,,,,,,2,08,,,,,,,,,,,2,0.993,1,,,,,,-0.137036995,-0.25,1,0,0,0.9929,Basalt_rect,10,0,10,0,1,
59f0f82ce75b450001a699ad,SCN,2024-06-20_12h30.03.817,LearnStrategy,2023.2.3,Win32,60.60606061,7,2,12,,,,,,,,1,03,,,,,,,,,,,1,1.876,1,,,,,,-0.37962963,-0.242592635,1,0,0,1.8757,Andesite_rect,11,0,11,0,1,
59f0f82ce75b450001a699ad,SCN,2024-06-20_12h30.03.817,LearnStrategy,2023.2.3,Win32,60.60606061,7,2,13,,,,,,,,6,07,,,,,,,,,,,6,1.038,1,,,,,,-0.062962921,-0.413888931,1,0,0,1.0375,Pegmatite_rect,12,0,12,0,1,
59f0f82ce75b450001a699ad,SCN,2024-06-20_12h30.03.817,LearnStrategy,2023.2.3,Win32,60.60606061,7,2,14,,,,,,,,4,05,,,,,,,,,,,4,2.176,1,,,,,,0.382407436,-0.248148176,1,0,0,2.1757,Gabbro_rect,13,0,13,0,1,
59f0f82ce75b450001a699ad,SCN,2024-06-20_12h30.03.817,LearnStrategy,2023.2.3,Win32,60.60606061,7,2,15,,,,,,,,7,10,,,,,,,,,,,7,1.237,1,,,,,,0.098148134,-0.390740783,1,0,0,1.2368,Peridotite_rect,14,0,14,0,1,
59f0f82ce75b450001a699ad,SCN,2024-06-20_12h30.03.817,LearnStrategy,2023.2.3,Win32,60.60606061,7,2,16,,,,,,,,8,03,,,,,,,,,,,8,1.126,1,,,,,,0.349074046,-0.400925954,1,0,0,1.1262,Pumice_rect,15,0,15,0,1,
59f0f82ce75b450001a699ad,SCN,2024-06-20_12h30.03.817,LearnStrategy,2023.2.3,Win32,60.60606061,8,1,1,0.073148162,0.082407386,1,0,0,2.13,Basalt_04,2,04,4,5,2.13,-0.137962977,-0.246296282,1,0,0,1.0259,Basalt_rect,2,1.026,1,0,0,0,0,1,,,,,,,,,,,,,
59f0f82ce75b450001a699ad,SCN,2024-06-20_12h30.03.817,LearnStrategy,2023.2.3,Win32,60.60606061,8,1,2,-0.200925898,0.10833334,1,0,0,0.7141,Gabbro_14,4,14,4,3,0.714,0.455555527,-0.257407436,1,0,0,1.4094,Gabbro_rect,4,1.409,1,1,0,1,0,1,,,,,,,,,,,,,
59f0f82ce75b450001a699ad,SCN,2024-06-20_12h30.03.817,LearnStrategy,2023.2.3,Win32,60.60606061,8,1,3,0.386111083,0.264814818,1,0,0,0.6302,Gabbro_01,4,01,5,7,0.63,0.412963019,-0.232407393,1,0,0,0.6261,Gabbro_rect,4,0.626,1,2,0,2,0,1,,,,,,,,,,,,,
59f0f82ce75b450001a699ad,SCN,2024-06-20_12h30.03.817,LearnStrategy,2023.2.3,Win32,60.60606061,8,1,4,0.233333376,0.248148141,1,0,0,0.9972,Peridotite_07,7,07,5,6,0.997,0.139814801,-0.397222236,1,0,0,1.2085,Peridotite_rect,7,1.208,1,3,0,3,0,1,,,,,,,,,,,,,
59f0f82ce75b450001a699ad,SCN,2024-06-20_12h30.03.817,LearnStrategy,2023.2.3,Win32,60.60606061,8,1,5,-0.375925912,0.274999989,1,0,0,0.7642,Basalt_06,2,06,5,2,0.764,-0.180555556,-0.261111153,1,0,0,1.1427,Basalt_rect,2,1.143,1,4,0,4,0,1,,,,,,,,,,,,,
59f0f82ce75b450001a699ad,SCN,2024-06-20_12h30.03.817,LearnStrategy,2023.2.3,Win32,60.60606061,8,1,6,0.055555556,-0.123148176,1,0,0,0.5806,Peridotite_15,7,15,3,5,0.581,0.150000042,-0.400925954,1,0,0,1.0594,Peridotite_rect,7,1.059,1,5,0,5,0,1,,,,,,,,,,,,,
59f0f82ce75b450001a699ad,SCN,2024-06-20_12h30.03.817,LearnStrategy,2023.2.3,Win32,60.60606061,8,1,7,-0.53148146,-0.276851866,1,0,0,1.0141,Diorite_11,3,11,2,1,1.014,0.14444443,-0.268518519,1,0,0,0.6597,Diorite_rect,3,0.66,1,6,0,6,0,1,,,,,,,,,,,,,
59f0f82ce75b450001a699ad,SCN,2024-06-20_12h30.03.817,LearnStrategy,2023.2.3,Win32,60.60606061,8,1,8,-0.387962942,-0.301851838,1,0,0,1.0139,Pumice_14,8,14,2,2,1.014,0.374074159,-0.408333319,1,0,0,1.4428,Pumice_rect,8,1.443,1,7,0,7,0,1,,,,,,,,,,,,,
59f0f82ce75b450001a699ad,SCN,2024-06-20_12h30.03.817,LearnStrategy,2023.2.3,Win32,60.60606061,8,1,9,0.556481538,-0.219444487,1,0,0,1.4308,Pumice_04,8,04,2,8,1.431,0.458333333,-0.37962963,1,0,0,0.6597,Pumice_rect,8,0.66,1,8,0,8,0,1,,,,,,,,,,,,,
59f0f82ce75b450001a699ad,SCN,2024-06-20_12h30.03.817,LearnStrategy,2023.2.3,Win32,60.60606061,8,1,10,0.561111168,-0.116666653,1,0,0,0.6479,Andesite_05,1,05,3,8,0.648,-0.423148155,-0.262962977,1,0,0,1.6586,Andesite_rect,1,1.659,1,9,0,9,0,1,,,,,,,,,,,,,
59f0f82ce75b450001a699ad,SCN,2024-06-20_12h30.03.817,LearnStrategy,2023.2.3,Win32,60.60606061,8,1,11,-0.226851852,-0.415740755,1,0,0,0.8973,Andesite_14,1,14,1,3,0.897,-0.138888889,-0.397222236,1,0,0,3.2426,Pegmatite_rect,6,3.243,0,10,0,10,0,1,,,,,,,,,,,,,
59f0f82ce75b450001a699ad,SCN,2024-06-20_12h30.03.817,LearnStrategy,2023.2.3,Win32,60.60606061,8,1,12,-0.207407422,-0.417592578,1,0,0,0.8136,Andesite_14,1,14,1,3,0.814,-0.342592593,-0.249074088,1,0,0,0.8265,Andesite_rect,1,0.827,1,11,0,11,0,1,,,,,,,,,,,,,
59f0f82ce75b450001a699ad,SCN,2024-06-20_12h30.03.817,LearnStrategy,2023.2.3,Win32,60.60606061,8,1,13,-0.424999979,-0.420370384,1,0,0,1.3638,Obsidian_02,5,02,1,2,1.364,-0.412037037,-0.400000042,1,0,0,0.4428,Obsidian_rect,5,0.443,1,12,0,12,0,1,,,,,,,,,,,,,
59f0f82ce75b450001a699ad,SCN,2024-06-20_12h30.03.817,LearnStrategy,2023.2.3,Win32,60.60606061,8,1,14,-0.237962935,-0.287962949,1,0,0,0.6806,Obsidian_14,5,14,2,3,0.681,-0.430555556,-0.39907406,1,0,0,0.8761,Obsidian_rect,5,0.876,1,13,0,13,0,1,,,,,,,,,,,,,
59f0f82ce75b450001a699ad,SCN,2024-06-20_12h30.03.817,LearnStrategy,2023.2.3,Win32,60.60606061,8,1,15,-0.241666653,-0.109259288,1,0,0,0.6977,Obsidian_09,5,09,3,3,0.698,-0.351851852,-0.389814801,1,0,0,0.8095,Obsidian_rect,5,0.809,1,14,0,14,0,1,,,,,,,,,,,,,
59f0f82ce75b450001a699ad,SCN,2024-06-20_12h30.03.817,LearnStrategy,2023.2.3,Win32,60.60606061,8,1,16,-0.064814815,0.095370363,1,0,0,0.7817,Diorite_14,3,14,4,4,0.782,0.136111153,-0.267592607,1,0,0,1.0589,Diorite_rect,3,1.059,1,15,0,15,0,1,,,,,,,,,,,,,
59f0f82ce75b450001a699ad,SCN,2024-06-20_12h30.03.817,LearnStrategy,2023.2.3,Win32,60.60606061,8,2,1,,,,,,,,3,02,,,,,,,,,,,3,1.526,1,,,,,,0.09629631,-0.261111153,1,0,0,1.5263,Diorite_rect,0,0,0,0,1,
59f0f82ce75b450001a699ad,SCN,2024-06-20_12h30.03.817,LearnStrategy,2023.2.3,Win32,60.60606061,8,2,2,,,,,,,,4,13,,,,,,,,,,,4,1.359,1,,,,,,0.387037065,-0.257407436,1,0,0,1.3594,Gabbro_rect,1,0,1,0,1,
59f0f82ce75b450001a699ad,SCN,2024-06-20_12h30.03.817,LearnStrategy,2023.2.3,Win32,60.60606061,8,2,3,,,,,,,,8,13,,,,,,,,,,,8,1.056,1,,,,,,0.392592677,-0.385185171,1,0,0,1.0558,Pumice_rect,2,0,2,0,1,
59f0f82ce75b450001a699ad,SCN,2024-06-20_12h30.03.817,LearnStrategy,2023.2.3,Win32,60.60606061,8,2,4,,,,,,,,5,08,,,,,,,,,,,5,0.996,1,,,,,,-0.383333312,-0.39907406,1,0,0,0.9957,Obsidian_rect,3,0,3,0,1,
59f0f82ce75b450001a699ad,SCN,2024-06-20_12h30.03.817,LearnStrategy,2023.2.3,Win32,60.60606061,8,2,5,,,,,,,,5,12,,,,,,,,,,,5,0.643,1,,,,,,-0.384259259,-0.39907406,1,0,0,0.6433,Obsidian_rect,4,0,4,0,1,
59f0f82ce75b450001a699ad,SCN,2024-06-20_12h30.03.817,LearnStrategy,2023.2.3,Win32,60.60606061,8,2,6,,,,,,,,6,10,,,,,,,,,,,6,2.276,1,,,,,,-0.135185171,-0.414814843,1,0,0,2.2764,Pegmatite_rect,5,0,5,0,1,
59f0f82ce75b450001a699ad,SCN,2024-06-20_12h30.03.817,LearnStrategy,2023.2.3,Win32,60.60606061,8,2,7,,,,,,,,1,10,,,,,,,,,,,1,2.41,1,,,,,,-0.428703697,-0.246296282,1,0,0,2.4101,Andesite_rect,6,0,6,0,1,
59f0f82ce75b450001a699ad,SCN,2024-06-20_12h30.03.817,LearnStrategy,2023.2.3,Win32,60.60606061,8,2,8,,,,,,,,4,16,,,,,,,,,,,2,0.91,0,,,,,,-0.087037051,-0.260185171,1,0,0,0.9099,Basalt_rect,7,0,7,0,1,
59f0f82ce75b450001a699ad,SCN,2024-06-20_12h30.03.817,LearnStrategy,2023.2.3,Win32,60.60606061,8,2,9,,,,,,,,2,12,,,,,,,,,,,2,1.343,1,,,,,,-0.085185157,-0.259259259,1,0,0,1.3427,Basalt_rect,8,0,8,0,1,
59f0f82ce75b450001a699ad,SCN,2024-06-20_12h30.03.817,LearnStrategy,2023.2.3,Win32,60.60606061,8,2,10,,,,,,,,7,16,,,,,,,,,,,4,1.66,0,,,,,,0.363888917,-0.270370413,1,0,0,1.6597,Gabbro_rect,9,0,9,0,1,
59f0f82ce75b450001a699ad,SCN,2024-06-20_12h30.03.817,LearnStrategy,2023.2.3,Win32,60.60606061,8,2,11,,,,,,,,3,12,,,,,,,,,,,3,0.893,1,,,,,,0.101851852,-0.255555541,1,0,0,0.8934,Diorite_rect,10,0,10,0,1,
59f0f82ce75b450001a699ad,SCN,2024-06-20_12h30.03.817,LearnStrategy,2023.2.3,Win32,60.60606061,8,2,12,,,,,,,,7,05,,,,,,,,,,,7,1.009,1,,,,,,0.159259302,-0.39444443,1,0,0,1.0094,Peridotite_rect,11,0,11,0,1,
59f0f82ce75b450001a699ad,SCN,2024-06-20_12h30.03.817,LearnStrategy,2023.2.3,Win32,60.60606061,8,2,13,,,,,,,,6,16,,,,,,,,,,,3,3.11,0,,,,,,0.147222236,-0.236111111,1,0,0,3.11,Diorite_rect,12,0,12,0,1,
59f0f82ce75b450001a699ad,SCN,2024-06-20_12h30.03.817,LearnStrategy,2023.2.3,Win32,60.60606061,8,2,14,,,,,,,,8,16,,,,,,,,,,,8,1.093,1,,,,,,0.458333333,-0.396296325,1,0,0,1.0931,Pumice_rect,13,0,13,0,1,
59f0f82ce75b450001a699ad,SCN,2024-06-20_12h30.03.817,LearnStrategy,2023.2.3,Win32,60.60606061,8,2,15,,,,,,,,1,02,,,,,,,,,,,1,1.326,1,,,,,,-0.398148148,-0.233333376,1,0,0,1.3264,Andesite_rect,14,0,14,0,1,
59f0f82ce75b450001a699ad,SCN,2024-06-20_12h30.03.817,LearnStrategy,2023.2.3,Win32,60.60606061,8,2,16,,,,,,,,2,05,,,,,,,,,,,2,0.826,1,,,,,,-0.066666638,-0.259259259,1,0,0,0.826,Basalt_rect,15,0,15,0,1,
59f0f82ce75b450001a699ad,SCN,2024-06-20_12h30.03.817,LearnStrategy,2023.2.3,Win32,60.60606061,9,1,1,-0.237037023,-0.408333319,1,0,0,2.765,Andesite_14,1,14,1,3,2.765,-0.373148141,-0.258333347,1,0,0,1.9586,Andesite_rect,1,1.959,1,0,0,0,0,1,,,,,,,,,,,,,
59f0f82ce75b450001a699ad,SCN,2024-06-20_12h30.03.817,LearnStrategy,2023.2.3,Win32,60.60606061,9,1,2,-0.240740741,0.25833333,1,0,0,1.2157,Pumice_09,8,09,5,3,1.216,0.343518575,-0.418518561,1,0,0,0.8093,Pumice_rect,8,0.809,1,1,0,1,0,1,,,,,,,,,,,,,
59f0f82ce75b450001a699ad,SCN,2024-06-20_12h30.03.817,LearnStrategy,2023.2.3,Win32,60.60606061,9,1,3,0.079629616,0.053703697,1,0,0,0.5317,Basalt_04,2,04,4,5,0.532,-0.174074032,-0.240740741,1,0,0,0.8923,Basalt_rect,2,0.892,1,2,0,2,0,1,,,,,,,,,,,,,
59f0f82ce75b450001a699ad,SCN,2024-06-20_12h30.03.817,LearnStrategy,2023.2.3,Win32,60.60606061,9,1,4,0.546296296,0.26203703,1,0,0,0.7981,Obsidian_16,5,16,5,8,0.798,-0.363888882,-0.398148148,1,0,0,0.8762,Obsidian_rect,5,0.876,1,3,0,3,0,1,,,,,,,,,,,,,
59f0f82ce75b450001a699ad,SCN,2024-06-20_12h30.03.817,LearnStrategy,2023.2.3,Win32,60.60606061,9,1,5,0.359259288,0.363888891,1,0,0,0.9992,Pegmatite_09,6,09,6,7,0.999,-0.131481453,-0.419444473,1,0,0,1.8928,Pegmatite_rect,6,1.893,1,4,0,4,0,1,,,,,,,,,,,,,
59f0f82ce75b450001a699ad,SCN,2024-06-20_12h30.03.817,LearnStrategy,2023.2.3,Win32,60.60606061,9,1,6,0.436111168,0.453703704,1,0,0,1.0821,Pegmatite_09,6,09,6,7,1.082,-0.069444444,-0.411111125,1,0,0,1.1932,Pegmatite_rect,6,1.193,1,5,0,5,0,1,,,,,,,,,,,,,
59f0f82ce75b450001a699ad,SCN,2024-06-20_12h30.03.817,LearnStrategy,2023.2.3,Win32,60.60606061,9,1,7,0.234259288,0.419444446,1,0,0,0.8489,Basalt_16,2,16,6,6,0.849,0.383333418,-0.261111153,1,0,0,1.3596,Gabbro_rect,4,1.36,0,6,0,6,0,1,,,,,,,,,,,,,
59f0f82ce75b450001a699ad,SCN,2024-06-20_12h30.03.817,LearnStrategy,2023.2.3,Win32,60.60606061,9,1,8,0.559259344,0.428703701,1,0,0,0.7475,Pegmatite_15,6,15,6,8,0.748,-0.080555527,-0.412037037,1,0,0,1.2586,Pegmatite_rect,6,1.259,1,7,0,7,0,1,,,,,,,,,,,,,
59f0f82ce75b450001a699ad,SCN,2024-06-20_12h30.03.817,LearnStrategy,2023.2.3,Win32,60.60606061,9,1,9,0.373148176,0.060185185,1,0,0,1.1828,Pegmatite_13,6,13,4,7,1.183,-0.099074046,-0.39907406,1,0,0,1.5591,Pegmatite_rect,6,1.559,1,8,0,8,0,1,,,,,,,,,,,,,
59f0f82ce75b450001a699ad,SCN,2024-06-20_12h30.03.817,LearnStrategy,2023.2.3,Win32,60.60606061,9,1,10,0.527777778,0.086111104,1,0,0,0.7488,Andesite_04,1,04,4,8,0.749,-0.372222229,-0.247222265,1,0,0,1.1425,Andesite_rect,1,1.142,1,9,0,9,0,1,,,,,,,,,,,,,
59f0f82ce75b450001a699ad,SCN,2024-06-20_12h30.03.817,LearnStrategy,2023.2.3,Win32,60.60606061,9,1,11,0.337962963,-0.44722225,1,0,0,0.648,Pumice_10,8,10,1,7,0.648,0.372222194,-0.407407407,1,0,0,1.1767,Pumice_rect,8,1.177,1,10,0,10,0,1,,,,,,,,,,,,,
59f0f82ce75b450001a699ad,SCN,2024-06-20_12h30.03.817,LearnStrategy,2023.2.3,Win32,60.60606061,9,1,12,0.060185185,-0.386111153,1,0,0,0.5985,Gabbro_12,4,12,1,5,0.598,0.336111139,-0.25,1,0,0,0.6426,Gabbro_rect,4,0.643,1,11,0,11,0,1,,,,,,,,,,,,,
59f0f82ce75b450001a699ad,SCN,2024-06-20_12h30.03.817,LearnStrategy,2023.2.3,Win32,60.60606061,9,1,13,-0.077777792,-0.428703732,1,0,0,0.632,Pumice_05,8,05,1,4,0.632,0.395370342,-0.383333347,1,0,0,0.8094,Pumice_rect,8,0.809,1,12,0,12,0,1,,,,,,,,,,,,,
59f0f82ce75b450001a699ad,SCN,2024-06-20_12h30.03.817,LearnStrategy,2023.2.3,Win32,60.60606061,9,1,14,-0.224074046,-0.252777806,1,0,0,2.7817,Obsidian_14,5,14,2,3,2.782,-0.349999993,-0.381481524,1,0,0,0.4759,Obsidian_rect,5,0.476,1,13,0,13,0,1,,,,,,,,,,,,,
59f0f82ce75b450001a699ad,SCN,2024-06-20_12h30.03.817,LearnStrategy,2023.2.3,Win32,60.60606061,9,1,15,0.22129631,-0.255555541,1,0,0,3.032,Obsidian_05,5,05,2,6,3.032,-0.41111109,-0.39444443,1,0,0,0.8373,Obsidian_rect,5,0.837,1,14,0,14,0,1,,,,,,,,,,,,,
59f0f82ce75b450001a699ad,SCN,2024-06-20_12h30.03.817,LearnStrategy,2023.2.3,Win32,60.60606061,9,1,16,0.227777764,0.092592593,1,0,0,1.349,Pegmatite_11,6,11,4,6,1.349,-0.113888847,-0.419444473,1,0,0,0.7756,Pegmatite_rect,6,0.776,1,15,0,15,0,1,,,,,,,,,,,,,
59f0f82ce75b450001a699ad,SCN,2024-06-20_12h30.03.817,LearnStrategy,2023.2.3,Win32,60.60606061,9,2,1,,,,,,,,5,04,,,,,,,,,,,5,1.01,1,,,,,,-0.393518519,-0.407407407,1,0,0,1.0098,Obsidian_rect,0,0,0,0,1,
59f0f82ce75b450001a699ad,SCN,2024-06-20_12h30.03.817,LearnStrategy,2023.2.3,Win32,60.60606061,9,2,2,,,,,,,,8,06,,,,,,,,,,,8,1.059,1,,,,,,0.419444473,-0.380555541,1,0,0,1.0591,Pumice_rect,1,0,1,0,1,
59f0f82ce75b450001a699ad,SCN,2024-06-20_12h30.03.817,LearnStrategy,2023.2.3,Win32,60.60606061,9,2,3,,,,,,,,2,01,,,,,,,,,,,2,2.51,1,,,,,,-0.133333347,-0.247222265,1,0,0,2.5102,Basalt_rect,2,0,2,0,1,
59f0f82ce75b450001a699ad,SCN,2024-06-20_12h30.03.817,LearnStrategy,2023.2.3,Win32,60.60606061,9,2,4,,,,,,,,7,12,,,,,,,,,,,7,3.171,1,,,,,,0.097222222,-0.387962977,1,0,0,3.1709,Peridotite_rect,3,0,3,0,1,
59f0f82ce75b450001a699ad,SCN,2024-06-20_12h30.03.817,LearnStrategy,2023.2.3,Win32,60.60606061,9,2,5,,,,,,,,8,08,,,,,,,,,,,8,1.005,1,,,,,,0.36018527,-0.384259259,1,0,0,1.0049,Pumice_rect,4,0,4,0,1,
59f0f82ce75b450001a699ad,SCN,2024-06-20_12h30.03.817,LearnStrategy,2023.2.3,Win32,60.60606061,9,2,6,,,,,,,,6,05,,,,,,,,,,,6,1.86,1,,,,,,-0.151851866,-0.390740783,1,0,0,1.8597,Pegmatite_rect,5,0,5,0,1,
59f0f82ce75b450001a699ad,SCN,2024-06-20_12h30.03.817,LearnStrategy,2023.2.3,Win32,60.60606061,9,2,7,,,,,,,,5,06,,,,,,,,,,,5,0.955,1,,,,,,-0.349074081,-0.390740783,1,0,0,0.9548,Obsidian_rect,6,0,6,0,1,
59f0f82ce75b450001a699ad,SCN,2024-06-20_12h30.03.817,LearnStrategy,2023.2.3,Win32,60.60606061,9,2,8,,,,,,,,6,12,,,,,,,,,,,6,1.11,1,,,,,,-0.133333347,-0.39444443,1,0,0,1.1102,Pegmatite_rect,7,0,7,0,1,
59f0f82ce75b450001a699ad,SCN,2024-06-20_12h30.03.817,LearnStrategy,2023.2.3,Win32,60.60606061,9,2,9,,,,,,,,4,15,,,,,,,,,,,4,4.093,1,,,,,,0.417592649,-0.253703718,1,0,0,4.0933,Gabbro_rect,8,0,8,0,1,
59f0f82ce75b450001a699ad,SCN,2024-06-20_12h30.03.817,LearnStrategy,2023.2.3,Win32,60.60606061,9,2,10,,,,,,,,1,06,,,,,,,,,,,1,1.306,1,,,,,,-0.374074053,-0.240740741,1,0,0,1.3065,Andesite_rect,9,0,9,0,1,
59f0f82ce75b450001a699ad,SCN,2024-06-20_12h30.03.817,LearnStrategy,2023.2.3,Win32,60.60606061,9,2,11,,,,,,,,1,09,,,,,,,,,,,1,1.91,1,,,,,,-0.3675926,-0.243518547,1,0,0,1.9096,Andesite_rect,10,0,10,0,1,
59f0f82ce75b450001a699ad,SCN,2024-06-20_12h30.03.817,LearnStrategy,2023.2.3,Win32,60.60606061,9,2,12,,,,,,,,2,14,,,,,,,,,,,8,2.887,0,,,,,,0.405555584,-0.396296325,1,0,0,2.8866,Pumice_rect,11,0,11,0,1,
59f0f82ce75b450001a699ad,SCN,2024-06-20_12h30.03.817,LearnStrategy,2023.2.3,Win32,60.60606061,9,2,13,,,,,,,,7,02,,,,,,,,,,,7,1.01,1,,,,,,0.104629658,-0.387037065,1,0,0,1.0097,Peridotite_rect,12,0,12,0,1,
59f0f82ce75b450001a699ad,SCN,2024-06-20_12h30.03.817,LearnStrategy,2023.2.3,Win32,60.60606061,9,2,14,,,,,,,,3,13,,,,,,,,,,,3,1.176,1,,,,,,0.115740741,-0.25462963,1,0,0,1.1763,Diorite_rect,13,0,13,0,1,
59f0f82ce75b450001a699ad,SCN,2024-06-20_12h30.03.817,LearnStrategy,2023.2.3,Win32,60.60606061,9,2,15,,,,,,,,3,09,,,,,,,,,,,3,0.76,1,,,,,,0.112963005,-0.253703718,1,0,0,0.7605,Diorite_rect,14,0,14,0,1,
59f0f82ce75b450001a699ad,SCN,2024-06-20_12h30.03.817,LearnStrategy,2023.2.3,Win32,60.60606061,9,2,16,,,,,,,,4,10,,,,,,,,,,,4,4.227,1,,,,,,0.384259259,-0.256481524,1,0,0,4.2266,Gabbro_rect,15,0,15,0,1,
59f0f82ce75b450001a699ad,SCN,2024-06-20_12h30.03.817,LearnStrategy,2023.2.3,Win32,60.60606061,,,,,,,,,,,,,,,,,,,,,,,,,,,,,,,,,,,,,,,,,,,1
59f0f82ce75b450001a699ad,SCN,2024-06-20_12h30.03.817,LearnStrategy,2023.2.3,Win32,60.60606061,,,,,,,,,,,,,,,,,,,,,,,,,,,,,,,,,,,,,,,,,,,
59f0f82ce75b450001a699ad,SCN,2024-06-20_12h30.03.817,LearnStrategy,2023.2.3,Win32,60.60606061,,,,,,,,,,,6,03,1,1,,,,,,,,,,,,,,,,,,,,,,,,,,,,,
59f0f82ce75b450001a699ad,SCN,2024-06-20_12h30.03.817,LearnStrategy,2023.2.3,Win32,60.60606061,,,,,,,,,,,5,02,1,2,,,,,,,,,,,,,,,,,,,,,,,,,,,,,
59f0f82ce75b450001a699ad,SCN,2024-06-20_12h30.03.817,LearnStrategy,2023.2.3,Win32,60.60606061,,,,,,,,,,,1,14,1,3,,,,,,,,,,,,,,,,,,,,,,,,,,,,,
59f0f82ce75b450001a699ad,SCN,2024-06-20_12h30.03.817,LearnStrategy,2023.2.3,Win32,60.60606061,,,,,,,,,,,8,05,1,4,,,,,,,,,,,,,,,,,,,,,,,,,,,,,
59f0f82ce75b450001a699ad,SCN,2024-06-20_12h30.03.817,LearnStrategy,2023.2.3,Win32,60.60606061,,,,,,,,,,,4,12,1,5,,,,,,,,,,,,,,,,,,,,,,,,,,,,,
59f0f82ce75b450001a699ad,SCN,2024-06-20_12h30.03.817,LearnStrategy,2023.2.3,Win32,60.60606061,,,,,,,,,,,7,04,1,6,,,,,,,,,,,,,,,,,,,,,,,,,,,,,
59f0f82ce75b450001a699ad,SCN,2024-06-20_12h30.03.817,LearnStrategy,2023.2.3,Win32,60.60606061,,,,,,,,,,,8,10,1,7,,,,,,,,,,,,,,,,,,,,,,,,,,,,,
59f0f82ce75b450001a699ad,SCN,2024-06-20_12h30.03.817,LearnStrategy,2023.2.3,Win32,60.60606061,,,,,,,,,,,7,08,1,8,,,,,,,,,,,,,,,,,,,,,,,,,,,,,
59f0f82ce75b450001a699ad,SCN,2024-06-20_12h30.03.817,LearnStrategy,2023.2.3,Win32,60.60606061,,,,,,,,,,,3,11,2,1,,,,,,,,,,,,,,,,,,,,,,,,,,,,,
59f0f82ce75b450001a699ad,SCN,2024-06-20_12h30.03.817,LearnStrategy,2023.2.3,Win32,60.60606061,,,,,,,,,,,8,14,2,2,,,,,,,,,,,,,,,,,,,,,,,,,,,,,
59f0f82ce75b450001a699ad,SCN,2024-06-20_12h30.03.817,LearnStrategy,2023.2.3,Win32,60.60606061,,,,,,,,,,,5,14,2,3,,,,,,,,,,,,,,,,,,,,,,,,,,,,,
59f0f82ce75b450001a699ad,SCN,2024-06-20_12h30.03.817,LearnStrategy,2023.2.3,Win32,60.60606061,,,,,,,,,,,7,14,2,4,,,,,,,,,,,,,,,,,,,,,,,,,,,,,
59f0f82ce75b450001a699ad,SCN,2024-06-20_12h30.03.817,LearnStrategy,2023.2.3,Win32,60.60606061,,,,,,,,,,,4,08,2,5,,,,,,,,,,,,,,,,,,,,,,,,,,,,,
59f0f82ce75b450001a699ad,SCN,2024-06-20_12h30.03.817,LearnStrategy,2023.2.3,Win32,60.60606061,,,,,,,,,,,5,05,2,6,,,,,,,,,,,,,,,,,,,,,,,,,,,,,
59f0f82ce75b450001a699ad,SCN,2024-06-20_12h30.03.817,LearnStrategy,2023.2.3,Win32,60.60606061,,,,,,,,,,,1,07,2,7,,,,,,,,,,,,,,,,,,,,,,,,,,,,,
59f0f82ce75b450001a699ad,SCN,2024-06-20_12h30.03.817,LearnStrategy,2023.2.3,Win32,60.60606061,,,,,,,,,,,8,04,2,8,,,,,,,,,,,,,,,,,,,,,,,,,,,,,
59f0f82ce75b450001a699ad,SCN,2024-06-20_12h30.03.817,LearnStrategy,2023.2.3,Win32,60.60606061,,,,,,,,,,,4,11,3,1,,,,,,,,,,,,,,,,,,,,,,,,,,,,,
59f0f82ce75b450001a699ad,SCN,2024-06-20_12h30.03.817,LearnStrategy,2023.2.3,Win32,60.60606061,,,,,,,,,,,3,07,3,2,,,,,,,,,,,,,,,,,,,,,,,,,,,,,
59f0f82ce75b450001a699ad,SCN,2024-06-20_12h30.03.817,LearnStrategy,2023.2.3,Win32,60.60606061,,,,,,,,,,,5,09,3,3,,,,,,,,,,,,,,,,,,,,,,,,,,,,,
59f0f82ce75b450001a699ad,SCN,2024-06-20_12h30.03.817,LearnStrategy,2023.2.3,Win32,60.60606061,,,,,,,,,,,1,11,3,4,,,,,,,,,,,,,,,,,,,,,,,,,,,,,
59f0f82ce75b450001a699ad,SCN,2024-06-20_12h30.03.817,LearnStrategy,2023.2.3,Win32,60.60606061,,,,,,,,,,,7,15,3,5,,,,,,,,,,,,,,,,,,,,,,,,,,,,,
59f0f82ce75b450001a699ad,SCN,2024-06-20_12h30.03.817,LearnStrategy,2023.2.3,Win32,60.60606061,,,,,,,,,,,8,02,3,6,,,,,,,,,,,,,,,,,,,,,,,,,,,,,
59f0f82ce75b450001a699ad,SCN,2024-06-20_12h30.03.817,LearnStrategy,2023.2.3,Win32,60.60606061,,,,,,,,,,,3,15,3,7,,,,,,,,,,,,,,,,,,,,,,,,,,,,,
59f0f82ce75b450001a699ad,SCN,2024-06-20_12h30.03.817,LearnStrategy,2023.2.3,Win32,60.60606061,,,,,,,,,,,1,05,3,8,,,,,,,,,,,,,,,,,,,,,,,,,,,,,
59f0f82ce75b450001a699ad,SCN,2024-06-20_12h30.03.817,LearnStrategy,2023.2.3,Win32,60.60606061,,,,,,,,,,,4,09,4,1,,,,,,,,,,,,,,,,,,,,,,,,,,,,,
59f0f82ce75b450001a699ad,SCN,2024-06-20_12h30.03.817,LearnStrategy,2023.2.3,Win32,60.60606061,,,,,,,,,,,3,16,4,2,,,,,,,,,,,,,,,,,,,,,,,,,,,,,
59f0f82ce75b450001a699ad,SCN,2024-06-20_12h30.03.817,LearnStrategy,2023.2.3,Win32,60.60606061,,,,,,,,,,,4,14,4,3,,,,,,,,,,,,,,,,,,,,,,,,,,,,,
59f0f82ce75b450001a699ad,SCN,2024-06-20_12h30.03.817,LearnStrategy,2023.2.3,Win32,60.60606061,,,,,,,,,,,3,14,4,4,,,,,,,,,,,,,,,,,,,,,,,,,,,,,
59f0f82ce75b450001a699ad,SCN,2024-06-20_12h30.03.817,LearnStrategy,2023.2.3,Win32,60.60606061,,,,,,,,,,,2,04,4,5,,,,,,,,,,,,,,,,,,,,,,,,,,,,,
59f0f82ce75b450001a699ad,SCN,2024-06-20_12h30.03.817,LearnStrategy,2023.2.3,Win32,60.60606061,,,,,,,,,,,6,11,4,6,,,,,,,,,,,,,,,,,,,,,,,,,,,,,
59f0f82ce75b450001a699ad,SCN,2024-06-20_12h30.03.817,LearnStrategy,2023.2.3,Win32,60.60606061,,,,,,,,,,,6,13,4,7,,,,,,,,,,,,,,,,,,,,,,,,,,,,,
59f0f82ce75b450001a699ad,SCN,2024-06-20_12h30.03.817,LearnStrategy,2023.2.3,Win32,60.60606061,,,,,,,,,,,1,04,4,8,,,,,,,,,,,,,,,,,,,,,,,,,,,,,
59f0f82ce75b450001a699ad,SCN,2024-06-20_12h30.03.817,LearnStrategy,2023.2.3,Win32,60.60606061,,,,,,,,,,,6,06,5,1,,,,,,,,,,,,,,,,,,,,,,,,,,,,,
59f0f82ce75b450001a699ad,SCN,2024-06-20_12h30.03.817,LearnStrategy,2023.2.3,Win32,60.60606061,,,,,,,,,,,2,06,5,2,,,,,,,,,,,,,,,,,,,,,,,,,,,,,
59f0f82ce75b450001a699ad,SCN,2024-06-20_12h30.03.817,LearnStrategy,2023.2.3,Win32,60.60606061,,,,,,,,,,,8,09,5,3,,,,,,,,,,,,,,,,,,,,,,,,,,,,,
59f0f82ce75b450001a699ad,SCN,2024-06-20_12h30.03.817,LearnStrategy,2023.2.3,Win32,60.60606061,,,,,,,,,,,7,06,5,4,,,,,,,,,,,,,,,,,,,,,,,,,,,,,
59f0f82ce75b450001a699ad,SCN,2024-06-20_12h30.03.817,LearnStrategy,2023.2.3,Win32,60.60606061,,,,,,,,,,,1,16,5,5,,,,,,,,,,,,,,,,,,,,,,,,,,,,,
59f0f82ce75b450001a699ad,SCN,2024-06-20_12h30.03.817,LearnStrategy,2023.2.3,Win32,60.60606061,,,,,,,,,,,7,07,5,6,,,,,,,,,,,,,,,,,,,,,,,,,,,,,
59f0f82ce75b450001a699ad,SCN,2024-06-20_12h30.03.817,LearnStrategy,2023.2.3,Win32,60.60606061,,,,,,,,,,,4,01,5,7,,,,,,,,,,,,,,,,,,,,,,,,,,,,,
59f0f82ce75b450001a699ad,SCN,2024-06-20_12h30.03.817,LearnStrategy,2023.2.3,Win32,60.60606061,,,,,,,,,,,5,16,5,8,,,,,,,,,,,,,,,,,,,,,,,,,,,,,
59f0f82ce75b450001a699ad,SCN,2024-06-20_12h30.03.817,LearnStrategy,2023.2.3,Win32,60.60606061,,,,,,,,,,,5,07,6,1,,,,,,,,,,,,,,,,,,,,,,,,,,,,,
59f0f82ce75b450001a699ad,SCN,2024-06-20_12h30.03.817,LearnStrategy,2023.2.3,Win32,60.60606061,,,,,,,,,,,3,10,6,2,,,,,,,,,,,,,,,,,,,,,,,,,,,,,
59f0f82ce75b450001a699ad,SCN,2024-06-20_12h30.03.817,LearnStrategy,2023.2.3,Win32,60.60606061,,,,,,,,,,,2,11,6,3,,,,,,,,,,,,,,,,,,,,,,,,,,,,,
59f0f82ce75b450001a699ad,SCN,2024-06-20_12h30.03.817,LearnStrategy,2023.2.3,Win32,60.60606061,,,,,,,,,,,2,02,6,4,,,,,,,,,,,,,,,,,,,,,,,,,,,,,
59f0f82ce75b450001a699ad,SCN,2024-06-20_12h30.03.817,LearnStrategy,2023.2.3,Win32,60.60606061,,,,,,,,,,,2,10,6,5,,,,,,,,,,,,,,,,,,,,,,,,,,,,,
59f0f82ce75b450001a699ad,SCN,2024-06-20_12h30.03.817,LearnStrategy,2023.2.3,Win32,60.60606061,,,,,,,,,,,2,16,6,6,,,,,,,,,,,,,,,,,,,,,,,,,,,,,
59f0f82ce75b450001a699ad,SCN,2024-06-20_12h30.03.817,LearnStrategy,2023.2.3,Win32,60.60606061,,,,,,,,,,,6,09,6,7,,,,,,,,,,,,,,,,,,,,,,,,,,,,,
59f0f82ce75b450001a699ad,SCN,2024-06-20_12h30.03.817,LearnStrategy,2023.2.3,Win32,60.60606061,,,,,,,,,,,6,15,6,8,,,,,,,,,,,,,,,,,,,,,,,,,,,,,