participant,condition,date,expName,psychopyVersion,OS,frameRate,block,phase,trial,learn_mouse_2.x,learn_mouse_2.y,learn_mouse_2.leftButton,learn_mouse_2.midButton,learn_mouse_2.rightButton,learn_mouse_2.time,learn_mouse_2.clicked_name,cat,token,row,col,t_select,cat_mouse_l.x,cat_mouse_l.y,cat_mouse_l.leftButton,cat_mouse_l.midButton,cat_mouse_l.rightButton,cat_mouse_l.time,cat_mouse_l.clicked_name,resp,t_resp,corr,train_trials.thisRepN,train_trials.thisTrialN,train_trials.thisN,train_trials.thisIndex,train_trials.ran,cat_mouse_t.x,cat_mouse_t.y,cat_mouse_t.leftButton,cat_mouse_t.midButton,cat_mouse_t.rightButton,cat_mouse_t.time,cat_mouse_t.clicked_name,test_trials.thisRepN,test_trials.thisTrialN,test_trials.thisN,test_trials.thisIndex,test_trials.ran,Bonus
59f226a9d6380600018b2923,TCR,2024-06-11_10h11.28.648,LearnStrategy,2023.2.3,Win32,58.82352941,,,,,,,,,,,,,,,,,,,,,,,,,,,,,,,,,,,,,,,,,,,
59f226a9d6380600018b2923,TCR,2024-06-11_10h11.28.648,LearnStrategy,2023.2.3,Win32,58.82352941,1,1,1,0.100833321,-0.014166673,1,0,0,5.1078,rock_grid_rect_2,3,02,-1,-1,5.108,0.384166718,-0.400833321,1,0,0,13.605,Pumice_rect,8,13.605,0,0,0,0,0,1,,,,,,,,,,,,,
59f226a9d6380600018b2923,TCR,2024-06-11_10h11.28.648,LearnStrategy,2023.2.3,Win32,58.82352941,1,1,2,0.070833333,-0.00583334,1,0,0,2.0903,rock_grid_rect_2,8,08,-1,-1,2.09,-0.214166641,-0.2375,1,0,0,5.9609,Basalt_rect,2,5.961,0,1,0,1,0,1,,,,,,,,,,,,,
59f226a9d6380600018b2923,TCR,2024-06-11_10h11.28.648,LearnStrategy,2023.2.3,Win32,58.82352941,1,1,3,-0.005833308,-0.014166673,1,0,0,1.2584,rock_grid_rect_2,3,12,-1,-1,1.258,-0.203333346,-0.255833371,1,0,0,6.6449,Basalt_rect,2,6.645,0,2,0,2,0,1,,,,,,,,,,,,,
59f226a9d6380600018b2923,TCR,2024-06-11_10h11.28.648,LearnStrategy,2023.2.3,Win32,58.82352941,1,1,4,0.018333371,-0.002499994,1,0,0,1.1425,rock_grid_rect_2,1,04,-1,-1,1.142,-0.414999994,-0.391666667,1,0,0,4.8949,Obsidian_rect,5,4.895,0,3,0,3,0,1,,,,,,,,,,,,,
59f226a9d6380600018b2923,TCR,2024-06-11_10h11.28.648,LearnStrategy,2023.2.3,Win32,58.82352941,1,1,5,-0.047499975,0.003333314,1,0,0,1.0315,rock_grid_rect_2,6,12,-1,-1,1.031,-0.157500013,-0.382500013,1,0,0,4.7125,Pegmatite_rect,6,4.712,1,4,0,4,0,1,,,,,,,,,,,,,
59f226a9d6380600018b2923,TCR,2024-06-11_10h11.28.648,LearnStrategy,2023.2.3,Win32,58.82352941,1,1,6,-0.050833321,-0.009166686,1,0,0,1.2082,rock_grid_rect_2,5,06,-1,-1,1.208,0.384999975,-0.236666679,1,0,0,5.8109,Gabbro_rect,4,5.811,0,5,0,5,0,1,,,,,,,,,,,,,
59f226a9d6380600018b2923,TCR,2024-06-11_10h11.28.648,LearnStrategy,2023.2.3,Win32,58.82352941,1,1,7,0.020000013,-0.007500013,1,0,0,1.0906,rock_grid_rect_2,8,09,-1,-1,1.091,0.306666692,-0.395833333,1,0,0,3.1112,Pumice_rect,8,3.111,1,6,0,6,0,1,,,,,,,,,,,,,
59f226a9d6380600018b2923,TCR,2024-06-11_10h11.28.648,LearnStrategy,2023.2.3,Win32,58.82352941,1,1,8,0.082500013,0.009166654,1,0,0,1.3241,rock_grid_rect_2,7,15,-1,-1,1.324,-0.384166654,-0.249166679,1,0,0,3.5951,Andesite_rect,1,3.595,0,7,0,7,0,1,,,,,,,,,,,,,
59f226a9d6380600018b2923,TCR,2024-06-11_10h11.28.648,LearnStrategy,2023.2.3,Win32,58.82352941,1,1,9,-0.070833333,0.001666673,1,0,0,1.0093,rock_grid_rect_2,4,15,-1,-1,1.009,-0.184999975,-0.235000038,1,0,0,3.1776,Basalt_rect,2,3.178,0,8,0,8,0,1,,,,,,,,,,,,,
59f226a9d6380600018b2923,TCR,2024-06-11_10h11.28.648,LearnStrategy,2023.2.3,Win32,58.82352941,1,1,10,-0.011666679,-0.010833327,1,0,0,1.0444,rock_grid_rect_2,7,16,-1,-1,1.044,-0.175833321,-0.385000038,1,0,0,3.7301,Pegmatite_rect,6,3.73,0,9,0,9,0,1,,,,,,,,,,,,,
59f226a9d6380600018b2923,TCR,2024-06-11_10h11.28.648,LearnStrategy,2023.2.3,Win32,58.82352941,1,1,11,0.010833359,0.000833321,1,0,0,1.3777,rock_grid_rect_2,1,14,-1,-1,1.378,-0.191666667,-0.261666679,1,0,0,6.2117,Basalt_rect,2,6.212,0,10,0,10,0,1,,,,,,,,,,,,,
59f226a9d6380600018b2923,TCR,2024-06-11_10h11.28.648,LearnStrategy,2023.2.3,Win32,58.82352941,1,1,12,-0.063333321,-0.001666673,1,0,0,0.9969,rock_grid_rect_2,2,09,-1,-1,0.997,-0.175833321,-0.4,1,0,0,49.2873,Pegmatite_rect,6,49.287,0,11,0,11,0,1,,,,,,,,,,,,,
59f226a9d6380600018b2923,TCR,2024-06-11_10h11.28.648,LearnStrategy,2023.2.3,Win32,58.82352941,1,1,13,-0.118333308,0,1,0,0,1.0143,rock_grid_rect_2,2,12,-1,-1,1.014,0.334999975,-0.380833371,1,0,0,1.9268,Pumice_rect,8,1.927,0,12,0,12,0,1,,,,,,,,,,,,,
59f226a9d6380600018b2923,TCR,2024-06-11_10h11.28.648,LearnStrategy,2023.2.3,Win32,58.82352941,1,1,14,0.013333321,-0.007500013,1,0,0,1.2657,rock_grid_rect_2,5,16,-1,-1,1.266,-0.40583334,-0.407500013,1,0,0,5.1973,Obsidian_rect,5,5.197,1,13,0,13,0,1,,,,,,,,,,,,,
59f226a9d6380600018b2923,TCR,2024-06-11_10h11.28.648,LearnStrategy,2023.2.3,Win32,58.82352941,1,1,15,-0.020000013,-0.010000006,1,0,0,1.1307,rock_grid_rect_2,6,09,-1,-1,1.131,-0.421666654,-0.232500013,1,0,0,4.1136,Andesite_rect,1,4.114,0,14,0,14,0,1,,,,,,,,,,,,,
59f226a9d6380600018b2923,TCR,2024-06-11_10h11.28.648,LearnStrategy,2023.2.3,Win32,58.82352941,1,1,16,-0.002499962,-0.013333352,1,0,0,1.0211,rock_grid_rect_2,4,12,-1,-1,1.021,-0.154999987,-0.252500025,1,0,0,2.6422,Basalt_rect,2,2.642,0,15,0,15,0,1,,,,,,,,,,,,,
59f226a9d6380600018b2923,TCR,2024-06-11_10h11.28.648,LearnStrategy,2023.2.3,Win32,58.82352941,1,2,1,,,,,,,,8,13,,,,,,,,,,,7,37.189,0,,,,,,0.089166705,-0.400833321,1,0,0,37.1891,Peridotite_rect,0,0,0,0,1,
59f226a9d6380600018b2923,TCR,2024-06-11_10h11.28.648,LearnStrategy,2023.2.3,Win32,58.82352941,1,2,2,,,,,,,,3,15,,,,,,,,,,,3,9.341,1,,,,,,0.1125,-0.245833333,1,0,0,9.3406,Diorite_rect,1,0,1,0,1,
59f226a9d6380600018b2923,TCR,2024-06-11_10h11.28.648,LearnStrategy,2023.2.3,Win32,58.82352941,1,2,3,,,,,,,,2,04,,,,,,,,,,,2,4.395,1,,,,,,-0.107500013,-0.228333346,1,0,0,4.3953,Basalt_rect,2,0,2,0,1,
59f226a9d6380600018b2923,TCR,2024-06-11_10h11.28.648,LearnStrategy,2023.2.3,Win32,58.82352941,1,2,4,,,,,,,,4,03,,,,,,,,,,,3,7.912,0,,,,,,0.146666654,-0.229999987,1,0,0,7.9124,Diorite_rect,3,0,3,0,1,
59f226a9d6380600018b2923,TCR,2024-06-11_10h11.28.648,LearnStrategy,2023.2.3,Win32,58.82352941,1,2,5,,,,,,,,5,07,,,,,,,,,,,5,6.194,1,,,,,,-0.367499987,-0.399166679,1,0,0,6.1936,Obsidian_rect,4,0,4,0,1,
59f226a9d6380600018b2923,TCR,2024-06-11_10h11.28.648,LearnStrategy,2023.2.3,Win32,58.82352941,1,2,6,,,,,,,,6,07,,,,,,,,,,,6,10.626,1,,,,,,-0.126666641,-0.402500025,1,0,0,10.6256,Pegmatite_rect,5,0,5,0,1,
59f226a9d6380600018b2923,TCR,2024-06-11_10h11.28.648,LearnStrategy,2023.2.3,Win32,58.82352941,1,2,7,,,,,,,,7,08,,,,,,,,,,,7,7.858,1,,,,,,0.128333346,-0.395000013,1,0,0,7.8582,Peridotite_rect,6,0,6,0,1,
59f226a9d6380600018b2923,TCR,2024-06-11_10h11.28.648,LearnStrategy,2023.2.3,Win32,58.82352941,1,2,8,,,,,,,,5,08,,,,,,,,,,,5,8.973,1,,,,,,-0.350833321,-0.395833333,1,0,0,8.973,Obsidian_rect,7,0,7,0,1,
59f226a9d6380600018b2923,TCR,2024-06-11_10h11.28.648,LearnStrategy,2023.2.3,Win32,58.82352941,1,2,9,,,,,,,,4,01,,,,,,,,,,,6,15.442,0,,,,,,-0.166666667,-0.379166667,1,0,0,15.4421,Pegmatite_rect,8,0,8,0,1,
59f226a9d6380600018b2923,TCR,2024-06-11_10h11.28.648,LearnStrategy,2023.2.3,Win32,58.82352941,1,2,10,,,,,,,,7,14,,,,,,,,,,,1,15.127,0,,,,,,-0.350833321,-0.248333359,1,0,0,15.127,Andesite_rect,9,0,9,0,1,
59f226a9d6380600018b2923,TCR,2024-06-11_10h11.28.648,LearnStrategy,2023.2.3,Win32,58.82352941,1,2,11,,,,,,,,1,16,,,,,,,,,,,1,10.71,1,,,,,,-0.36916666,-0.244166692,1,0,0,10.7098,Andesite_rect,10,0,10,0,1,
59f226a9d6380600018b2923,TCR,2024-06-11_10h11.28.648,LearnStrategy,2023.2.3,Win32,58.82352941,1,2,12,,,,,,,,1,10,,,,,,,,,,,3,13.127,0,,,,,,0.139166705,-0.235000038,1,0,0,13.1271,Diorite_rect,11,0,11,0,1,
59f226a9d6380600018b2923,TCR,2024-06-11_10h11.28.648,LearnStrategy,2023.2.3,Win32,58.82352941,1,2,13,,,,,,,,3,07,,,,,,,,,,,6,11.596,0,,,,,,-0.116666667,-0.402500025,1,0,0,11.5961,Pegmatite_rect,12,0,12,0,1,
59f226a9d6380600018b2923,TCR,2024-06-11_10h11.28.648,LearnStrategy,2023.2.3,Win32,58.82352941,1,2,14,,,,,,,,2,06,,,,,,,,,,,2,6.445,1,,,,,,-0.1,-0.236666679,1,0,0,6.4447,Basalt_rect,13,0,13,0,1,
59f226a9d6380600018b2923,TCR,2024-06-11_10h11.28.648,LearnStrategy,2023.2.3,Win32,58.82352941,1,2,15,,,,,,,,8,04,,,,,,,,,,,8,8.477,1,,,,,,0.393333308,-0.421666654,1,0,0,8.4767,Pumice_rect,14,0,14,0,1,
59f226a9d6380600018b2923,TCR,2024-06-11_10h11.28.648,LearnStrategy,2023.2.3,Win32,58.82352941,1,2,16,,,,,,,,6,03,,,,,,,,,,,6,4.96,1,,,,,,-0.084166654,-0.391666667,1,0,0,4.96,Pegmatite_rect,15,0,15,0,1,
59f226a9d6380600018b2923,TCR,2024-06-11_10h11.28.648,LearnStrategy,2023.2.3,Win32,58.82352941,2,1,1,0.040833346,0.008333333,1,0,0,5.7141,rock_grid_rect_2,6,09,-1,-1,5.714,-0.131666629,-0.3875,1,0,0,5.7933,Pegmatite_rect,6,5.793,1,0,0,0,0,1,,,,,,,,,,,,,
59f226a9d6380600018b2923,TCR,2024-06-11_10h11.28.648,LearnStrategy,2023.2.3,Win32,58.82352941,2,1,2,0.006666692,-0.020000013,1,0,0,1.608,rock_grid_rect_2,1,02,-1,-1,1.608,0.352500025,-0.229999987,1,0,0,15.4607,Gabbro_rect,4,15.461,0,1,0,1,0,1,,,,,,,,,,,,,
59f226a9d6380600018b2923,TCR,2024-06-11_10h11.28.648,LearnStrategy,2023.2.3,Win32,58.82352941,2,1,3,0.1625,0,1,0,0,1.1752,rock_grid_rect_2,4,09,-1,-1,1.175,-0.109999975,-0.2375,1,0,0,4.2167,Basalt_rect,2,4.217,0,2,0,2,0,1,,,,,,,,,,,,,
59f226a9d6380600018b2923,TCR,2024-06-11_10h11.28.648,LearnStrategy,2023.2.3,Win32,58.82352941,2,1,4,-0.023333295,0.001666673,1,0,0,1.2642,rock_grid_rect_2,4,05,-1,-1,1.264,0.098333359,-0.379999987,1,0,0,12.6769,Peridotite_rect,7,12.677,0,3,0,3,0,1,,,,,,,,,,,,,
59f226a9d6380600018b2923,TCR,2024-06-11_10h11.28.648,LearnStrategy,2023.2.3,Win32,58.82352941,2,1,5,0.120833333,-0.002499994,1,0,0,1.2422,rock_grid_rect_2,1,04,-1,-1,1.242,-0.111666679,-0.245833333,1,0,0,2.4625,Basalt_rect,2,2.463,0,4,0,4,0,1,,,,,,,,,,,,,
59f226a9d6380600018b2923,TCR,2024-06-11_10h11.28.648,LearnStrategy,2023.2.3,Win32,58.82352941,2,1,6,-0.025833321,-0.005000019,1,0,0,1.3612,rock_grid_rect_2,1,11,-1,-1,1.361,-0.149166679,-0.240000025,1,0,0,16.7122,Basalt_rect,2,16.712,0,5,0,5,0,1,,,,,,,,,,,,,
59f226a9d6380600018b2923,TCR,2024-06-11_10h11.28.648,LearnStrategy,2023.2.3,Win32,58.82352941,2,1,7,0.098333359,0,1,0,0,0.9424,rock_grid_rect_2,3,13,-1,-1,0.942,0.370833333,-0.25,1,0,0,20.3771,Gabbro_rect,4,20.377,0,6,0,6,0,1,,,,,,,,,,,,,
59f226a9d6380600018b2923,TCR,2024-06-11_10h11.28.648,LearnStrategy,2023.2.3,Win32,58.82352941,2,1,8,0.143333371,-0.01916666,1,0,0,1.0765,rock_grid_rect_2,3,13,-1,-1,1.077,0.093333371,-0.232500013,1,0,0,6.6942,Diorite_rect,3,6.694,1,7,0,7,0,1,,,,,,,,,,,,,
59f226a9d6380600018b2923,TCR,2024-06-11_10h11.28.648,LearnStrategy,2023.2.3,Win32,58.82352941,2,1,9,0.135000038,-0.002499994,1,0,0,1.0581,rock_grid_rect_2,3,10,-1,-1,1.058,0.132500013,-0.394166692,1,0,0,10.81,Peridotite_rect,7,10.81,0,8,0,8,0,1,,,,,,,,,,,,,
59f226a9d6380600018b2923,TCR,2024-06-11_10h11.28.648,LearnStrategy,2023.2.3,Win32,58.82352941,2,1,10,0.120833333,0.000833321,1,0,0,1.1581,rock_grid_rect_2,7,10,-1,-1,1.158,-0.098333295,-0.397500038,1,0,0,13.9952,Pegmatite_rect,6,13.995,0,9,0,9,0,1,,,,,,,,,,,,,
59f226a9d6380600018b2923,TCR,2024-06-11_10h11.28.648,LearnStrategy,2023.2.3,Win32,58.82352941,2,1,11,0.0125,-0.005000019,1,0,0,1.1248,rock_grid_rect_2,8,10,-1,-1,1.125,0.367500051,-0.397500038,1,0,0,2.5792,Pumice_rect,8,2.579,1,10,0,10,0,1,,,,,,,,,,,,,
59f226a9d6380600018b2923,TCR,2024-06-11_10h11.28.648,LearnStrategy,2023.2.3,Win32,58.82352941,2,1,12,0.044166692,0.008333333,1,0,0,0.9987,rock_grid_rect_2,4,05,-1,-1,0.999,-0.132500013,-0.395833333,1,0,0,1.9291,Pegmatite_rect,6,1.929,0,11,0,11,0,1,,,,,,,,,,,,,
59f226a9d6380600018b2923,TCR,2024-06-11_10h11.28.648,LearnStrategy,2023.2.3,Win32,58.82352941,2,1,13,0.086666679,-0.009166686,1,0,0,1.0972,rock_grid_rect_2,7,15,-1,-1,1.097,-0.134166654,-0.393333371,1,0,0,2.1781,Pegmatite_rect,6,2.178,0,12,0,12,0,1,,,,,,,,,,,,,
59f226a9d6380600018b2923,TCR,2024-06-11_10h11.28.648,LearnStrategy,2023.2.3,Win32,58.82352941,2,1,14,0.139166705,0.000833321,1,0,0,1.1303,rock_grid_rect_2,7,06,-1,-1,1.13,-0.38083334,-0.390000025,1,0,0,15.4426,Obsidian_rect,5,15.443,0,13,0,13,0,1,,,,,,,,,,,,,
59f226a9d6380600018b2923,TCR,2024-06-11_10h11.28.648,LearnStrategy,2023.2.3,Win32,58.82352941,2,1,15,0.095833333,0.004166667,1,0,0,1.0141,rock_grid_rect_2,4,09,-1,-1,1.014,-0.101666641,-0.251666705,1,0,0,4.5286,Basalt_rect,2,4.529,0,14,0,14,0,1,,,,,,,,,,,,,
59f226a9d6380600018b2923,TCR,2024-06-11_10h11.28.648,LearnStrategy,2023.2.3,Win32,58.82352941,2,1,16,0.111666679,-0.00666666,1,0,0,1.1487,rock_grid_rect_2,8,08,-1,-1,1.149,0.368333308,-0.388333321,1,0,0,1.1648,Pumice_rect,8,1.165,1,15,0,15,0,1,,,,,,,,,,,,,
59f226a9d6380600018b2923,TCR,2024-06-11_10h11.28.648,LearnStrategy,2023.2.3,Win32,58.82352941,2,2,1,,,,,,,,3,09,,,,,,,,,,,1,13.241,0,,,,,,-0.4125,-0.253333346,1,0,0,13.2406,Andesite_rect,0,0,0,0,1,
59f226a9d6380600018b2923,TCR,2024-06-11_10h11.28.648,LearnStrategy,2023.2.3,Win32,58.82352941,2,2,2,,,,,,,,4,10,,,,,,,,,,,2,2.959,0,,,,,,-0.102499962,-0.236666679,1,0,0,2.9593,Basalt_rect,1,0,1,0,1,
59f226a9d6380600018b2923,TCR,2024-06-11_10h11.28.648,LearnStrategy,2023.2.3,Win32,58.82352941,2,2,3,,,,,,,,2,08,,,,,,,,,,,2,1.526,1,,,,,,-0.075833321,-0.255833371,1,0,0,1.5261,Basalt_rect,2,0,2,0,1,
59f226a9d6380600018b2923,TCR,2024-06-11_10h11.28.648,LearnStrategy,2023.2.3,Win32,58.82352941,2,2,4,,,,,,,,1,06,,,,,,,,,,,3,3.745,0,,,,,,0.127500025,-0.248333359,1,0,0,3.7449,Diorite_rect,3,0,3,0,1,
59f226a9d6380600018b2923,TCR,2024-06-11_10h11.28.648,LearnStrategy,2023.2.3,Win32,58.82352941,2,2,5,,,,,,,,2,11,,,,,,,,,,,8,1.277,0,,,,,,0.334999975,-0.397500038,1,0,0,1.2769,Pumice_rect,4,0,4,0,1,
59f226a9d6380600018b2923,TCR,2024-06-11_10h11.28.648,LearnStrategy,2023.2.3,Win32,58.82352941,2,2,6,,,,,,,,8,02,,,,,,,,,,,8,1.978,1,,,,,,0.36583341,-0.409166654,1,0,0,1.978,Pumice_rect,5,0,5,0,1,
59f226a9d6380600018b2923,TCR,2024-06-11_10h11.28.648,LearnStrategy,2023.2.3,Win32,58.82352941,2,2,7,,,,,,,,7,12,,,,,,,,,,,6,1.627,0,,,,,,-0.126666641,-0.395000013,1,0,0,1.6267,Pegmatite_rect,6,0,6,0,1,
59f226a9d6380600018b2923,TCR,2024-06-11_10h11.28.648,LearnStrategy,2023.2.3,Win32,58.82352941,2,2,8,,,,,,,,3,16,,,,,,,,,,,3,11.506,1,,,,,,0.117499987,-0.231666692,1,0,0,11.5057,Diorite_rect,7,0,7,0,1,
59f226a9d6380600018b2923,TCR,2024-06-11_10h11.28.648,LearnStrategy,2023.2.3,Win32,58.82352941,2,2,9,,,,,,,,4,13,,,,,,,,,,,4,7.919,1,,,,,,0.359166718,-0.254166667,1,0,0,7.9186,Gabbro_rect,8,0,8,0,1,
59f226a9d6380600018b2923,TCR,2024-06-11_10h11.28.648,LearnStrategy,2023.2.3,Win32,58.82352941,2,2,10,,,,,,,,6,06,,,,,,,,,,,6,1.737,1,,,,,,-0.114166641,-0.394166692,1,0,0,1.7368,Pegmatite_rect,9,0,9,0,1,
59f226a9d6380600018b2923,TCR,2024-06-11_10h11.28.648,LearnStrategy,2023.2.3,Win32,58.82352941,2,2,11,,,,,,,,8,14,,,,,,,,,,,8,1.086,1,,,,,,0.344166692,-0.404166667,1,0,0,1.0856,Pumice_rect,10,0,10,0,1,
59f226a9d6380600018b2923,TCR,2024-06-11_10h11.28.648,LearnStrategy,2023.2.3,Win32,58.82352941,2,2,12,,,,,,,,5,11,,,,,,,,,,,5,1.781,1,,,,,,-0.379999987,-0.398333359,1,0,0,1.7813,Obsidian_rect,11,0,11,0,1,
59f226a9d6380600018b2923,TCR,2024-06-11_10h11.28.648,LearnStrategy,2023.2.3,Win32,58.82352941,2,2,13,,,,,,,,1,05,,,,,,,,,,,7,8.484,0,,,,,,0.082500013,-0.393333371,1,0,0,8.4844,Peridotite_rect,12,0,12,0,1,
59f226a9d6380600018b2923,TCR,2024-06-11_10h11.28.648,LearnStrategy,2023.2.3,Win32,58.82352941,2,2,14,,,,,,,,6,15,,,,,,,,,,,3,13.699,0,,,,,,0.113333321,-0.242499987,1,0,0,13.6987,Diorite_rect,13,0,13,0,1,
59f226a9d6380600018b2923,TCR,2024-06-11_10h11.28.648,LearnStrategy,2023.2.3,Win32,58.82352941,2,2,15,,,,,,,,5,04,,,,,,,,,,,5,3.885,1,,,,,,-0.33166666,-0.390000025,1,0,0,3.885,Obsidian_rect,14,0,14,0,1,
59f226a9d6380600018b2923,TCR,2024-06-11_10h11.28.648,LearnStrategy,2023.2.3,Win32,58.82352941,2,2,16,,,,,,,,7,05,,,,,,,,,,,4,2.885,0,,,,,,0.352500025,-0.264166705,1,0,0,2.8847,Gabbro_rect,15,0,15,0,1,
59f226a9d6380600018b2923,TCR,2024-06-11_10h11.28.648,LearnStrategy,2023.2.3,Win32,58.82352941,3,1,1,0.110000038,-0.020833333,1,0,0,1.0985,rock_grid_rect_2,6,08,-1,-1,1.098,-0.132500013,-0.393333371,1,0,0,6.231,Pegmatite_rect,6,6.231,1,0,0,0,0,1,,,,,,,,,,,,,
59f226a9d6380600018b2923,TCR,2024-06-11_10h11.28.648,LearnStrategy,2023.2.3,Win32,58.82352941,3,1,2,0.055833371,-0.00666666,1,0,0,1.3482,rock_grid_rect_2,2,09,-1,-1,1.348,-0.143333308,-0.240833346,1,0,0,2.1479,Basalt_rect,2,2.148,1,1,0,1,0,1,,,,,,,,,,,,,
59f226a9d6380600018b2923,TCR,2024-06-11_10h11.28.648,LearnStrategy,2023.2.3,Win32,58.82352941,3,1,3,0.084166654,0.009166654,1,0,0,1.1814,rock_grid_rect_2,1,11,-1,-1,1.181,-0.344999981,-0.245000013,1,0,0,6.4441,Andesite_rect,1,6.444,1,2,0,2,0,1,,,,,,,,,,,,,
59f226a9d6380600018b2923,TCR,2024-06-11_10h11.28.648,LearnStrategy,2023.2.3,Win32,58.82352941,3,1,4,0.004999987,-0.017500019,1,0,0,1.0926,rock_grid_rect_2,7,16,-1,-1,1.093,0.094166692,-0.386666679,1,0,0,9.0606,Peridotite_rect,7,9.061,1,3,0,3,0,1,,,,,,,,,,,,,
59f226a9d6380600018b2923,TCR,2024-06-11_10h11.28.648,LearnStrategy,2023.2.3,Win32,58.82352941,3,1,5,0.134166654,-0.023333327,1,0,0,1.0311,rock_grid_rect_2,6,16,-1,-1,1.031,0.356666692,-0.247500038,1,0,0,7.0288,Gabbro_rect,4,7.029,0,4,0,4,0,1,,,,,,,,,,,,,
59f226a9d6380600018b2923,TCR,2024-06-11_10h11.28.648,LearnStrategy,2023.2.3,Win32,58.82352941,3,1,6,0.033333333,0.003333314,1,0,0,1.0655,rock_grid_rect_2,4,05,-1,-1,1.065,0.374166743,-0.236666679,1,0,0,7.2283,Gabbro_rect,4,7.228,1,5,0,5,0,1,,,,,,,,,,,,,
59f226a9d6380600018b2923,TCR,2024-06-11_10h11.28.648,LearnStrategy,2023.2.3,Win32,58.82352941,3,1,7,0.029166667,0.014166673,1,0,0,2.6807,rock_grid_rect_2,1,11,-1,-1,2.681,-0.338333321,-0.25,1,0,0,4.247,Andesite_rect,1,4.247,1,6,0,6,0,1,,,,,,,,,,,,,
59f226a9d6380600018b2923,TCR,2024-06-11_10h11.28.648,LearnStrategy,2023.2.3,Win32,58.82352941,3,1,8,0.020833333,-0.007500013,1,0,0,1.0994,rock_grid_rect_2,1,04,-1,-1,1.099,-0.3375,-0.232500013,1,0,0,4.2274,Andesite_rect,1,4.227,1,7,0,7,0,1,,,,,,,,,,,,,
59f226a9d6380600018b2923,TCR,2024-06-11_10h11.28.648,LearnStrategy,2023.2.3,Win32,58.82352941,3,1,9,0.065833346,-0.020833333,1,0,0,0.9973,rock_grid_rect_2,4,11,-1,-1,0.997,-0.109166654,-0.236666679,1,0,0,12.079,Basalt_rect,2,12.079,0,8,0,8,0,1,,,,,,,,,,,,,
59f226a9d6380600018b2923,TCR,2024-06-11_10h11.28.648,LearnStrategy,2023.2.3,Win32,58.82352941,3,1,10,0.055833371,-0.005000019,1,0,0,1.0982,rock_grid_rect_2,4,09,-1,-1,1.098,0.359166718,-0.233333333,1,0,0,5.0781,Gabbro_rect,4,5.078,1,9,0,9,0,1,,,,,,,,,,,,,
59f226a9d6380600018b2923,TCR,2024-06-11_10h11.28.648,LearnStrategy,2023.2.3,Win32,58.82352941,3,1,11,0.102500025,0.007499981,1,0,0,0.9987,rock_grid_rect_2,8,10,-1,-1,0.999,0.325,-0.409166654,1,0,0,2.344,Pumice_rect,8,2.344,1,10,0,10,0,1,,,,,,,,,,,,,
59f226a9d6380600018b2923,TCR,2024-06-11_10h11.28.648,LearnStrategy,2023.2.3,Win32,58.82352941,3,1,12,0.088333321,-0.009166686,1,0,0,1.1483,rock_grid_rect_2,7,07,-1,-1,1.148,0.075,-0.4125,1,0,0,10.7272,Peridotite_rect,7,10.727,1,11,0,11,0,1,,,,,,,,,,,,,
59f226a9d6380600018b2923,TCR,2024-06-11_10h11.28.648,LearnStrategy,2023.2.3,Win32,58.82352941,3,1,13,0.034166654,0.013333321,1,0,0,1.0143,rock_grid_rect_2,7,15,-1,-1,1.014,0.092499987,-0.411666679,1,0,0,8.2954,Peridotite_rect,7,8.295,1,12,0,12,0,1,,,,,,,,,,,,,
59f226a9d6380600018b2923,TCR,2024-06-11_10h11.28.648,LearnStrategy,2023.2.3,Win32,58.82352941,3,1,14,0.045833333,-0.009166686,1,0,0,1.6814,rock_grid_rect_2,1,02,-1,-1,1.681,-0.364999994,-0.252500025,1,0,0,12.728,Andesite_rect,1,12.728,1,13,0,13,0,1,,,,,,,,,,,,,
59f226a9d6380600018b2923,TCR,2024-06-11_10h11.28.648,LearnStrategy,2023.2.3,Win32,58.82352941,3,1,15,0.078333346,0,1,0,0,1.0325,rock_grid_rect_2,3,14,-1,-1,1.033,-0.104999987,-0.3875,1,0,0,8.6442,Pegmatite_rect,6,8.644,0,14,0,14,0,1,,,,,,,,,,,,,
59f226a9d6380600018b2923,TCR,2024-06-11_10h11.28.648,LearnStrategy,2023.2.3,Win32,58.82352941,3,1,16,0.05,-0.010000006,1,0,0,1.032,rock_grid_rect_2,3,13,-1,-1,1.032,0.095833333,-0.245833333,1,0,0,4.8954,Diorite_rect,3,4.895,1,15,0,15,0,1,,,,,,,,,,,,,
59f226a9d6380600018b2923,TCR,2024-06-11_10h11.28.648,LearnStrategy,2023.2.3,Win32,58.82352941,3,2,1,,,,,,,,8,05,,,,,,,,,,,8,1.993,1,,,,,,0.384166718,-0.392499987,1,0,0,1.9927,Pumice_rect,0,0,0,0,1,
59f226a9d6380600018b2923,TCR,2024-06-11_10h11.28.648,LearnStrategy,2023.2.3,Win32,58.82352941,3,2,2,,,,,,,,4,08,,,,,,,,,,,4,8.592,1,,,,,,0.418333308,-0.252500025,1,0,0,8.5925,Gabbro_rect,1,0,1,0,1,
59f226a9d6380600018b2923,TCR,2024-06-11_10h11.28.648,LearnStrategy,2023.2.3,Win32,58.82352941,3,2,3,,,,,,,,5,14,,,,,,,,,,,5,1.811,1,,,,,,-0.378333314,-0.384166654,1,0,0,1.8106,Obsidian_rect,2,0,2,0,1,
59f226a9d6380600018b2923,TCR,2024-06-11_10h11.28.648,LearnStrategy,2023.2.3,Win32,58.82352941,3,2,4,,,,,,,,7,02,,,,,,,,,,,1,10.859,0,,,,,,-0.379166667,-0.250833321,1,0,0,10.8591,Andesite_rect,3,0,3,0,1,
59f226a9d6380600018b2923,TCR,2024-06-11_10h11.28.648,LearnStrategy,2023.2.3,Win32,58.82352941,3,2,5,,,,,,,,5,12,,,,,,,,,,,5,1.529,1,,,,,,-0.379166667,-0.385833359,1,0,0,1.5287,Obsidian_rect,4,0,4,0,1,
59f226a9d6380600018b2923,TCR,2024-06-11_10h11.28.648,LearnStrategy,2023.2.3,Win32,58.82352941,3,2,6,,,,,,,,3,08,,,,,,,,,,,6,10.379,0,,,,,,-0.134999975,-0.404166667,1,0,0,10.379,Pegmatite_rect,5,0,5,0,1,
59f226a9d6380600018b2923,TCR,2024-06-11_10h11.28.648,LearnStrategy,2023.2.3,Win32,58.82352941,3,2,7,,,,,,,,6,10,,,,,,,,,,,6,6.995,1,,,,,,-0.134166654,-0.418333371,1,0,0,6.9948,Pegmatite_rect,6,0,6,0,1,
59f226a9d6380600018b2923,TCR,2024-06-11_10h11.28.648,LearnStrategy,2023.2.3,Win32,58.82352941,3,2,8,,,,,,,,6,05,,,,,,,,,,,4,12.257,0,,,,,,0.368333308,-0.248333359,1,0,0,12.2574,Gabbro_rect,7,0,7,0,1,
59f226a9d6380600018b2923,TCR,2024-06-11_10h11.28.648,LearnStrategy,2023.2.3,Win32,58.82352941,3,2,9,,,,,,,,8,06,,,,,,,,,,,8,1.078,1,,,,,,0.361666743,-0.395000013,1,0,0,1.0782,Pumice_rect,8,0,8,0,1,
59f226a9d6380600018b2923,TCR,2024-06-11_10h11.28.648,LearnStrategy,2023.2.3,Win32,58.82352941,3,2,10,,,,,,,,3,11,,,,,,,,,,,3,6.395,1,,,,,,0.105833371,-0.231666692,1,0,0,6.3954,Diorite_rect,9,0,9,0,1,
59f226a9d6380600018b2923,TCR,2024-06-11_10h11.28.648,LearnStrategy,2023.2.3,Win32,58.82352941,3,2,11,,,,,,,,7,13,,,,,,,,,,,6,9.511,0,,,,,,-0.125833321,-0.409166654,1,0,0,9.5108,Pegmatite_rect,10,0,10,0,1,
59f226a9d6380600018b2923,TCR,2024-06-11_10h11.28.648,LearnStrategy,2023.2.3,Win32,58.82352941,3,2,12,,,,,,,,2,05,,,,,,,,,,,2,1.61,1,,,,,,-0.104999987,-0.243333371,1,0,0,1.6098,Basalt_rect,11,0,11,0,1,
59f226a9d6380600018b2923,TCR,2024-06-11_10h11.28.648,LearnStrategy,2023.2.3,Win32,58.82352941,3,2,13,,,,,,,,1,01,,,,,,,,,,,3,14.094,0,,,,,,0.122500038,-0.25,1,0,0,14.0938,Diorite_rect,12,0,12,0,1,
59f226a9d6380600018b2923,TCR,2024-06-11_10h11.28.648,LearnStrategy,2023.2.3,Win32,58.82352941,3,2,14,,,,,,,,4,14,,,,,,,,,,,4,4.36,1,,,,,,0.344166692,-0.240833346,1,0,0,4.3602,Gabbro_rect,13,0,13,0,1,
59f226a9d6380600018b2923,TCR,2024-06-11_10h11.28.648,LearnStrategy,2023.2.3,Win32,58.82352941,3,2,15,,,,,,,,1,03,,,,,,,,,,,1,7.844,1,,,,,,-0.360833327,-0.235833359,1,0,0,7.844,Andesite_rect,14,0,14,0,1,
59f226a9d6380600018b2923,TCR,2024-06-11_10h11.28.648,LearnStrategy,2023.2.3,Win32,58.82352941,3,2,16,,,,,,,,2,16,,,,,,,,,,,2,3.06,1,,,,,,-0.125833321,-0.243333371,1,0,0,3.0604,Basalt_rect,15,0,15,0,1,
59f226a9d6380600018b2923,TCR,2024-06-11_10h11.28.648,LearnStrategy,2023.2.3,Win32,58.82352941,4,1,1,0.095833333,-0.024166679,1,0,0,2.9978,rock_grid_rect_2,6,09,-1,-1,2.998,-0.155833308,-0.4125,1,0,0,7.3944,Pegmatite_rect,6,7.394,1,0,0,0,0,1,,,,,,,,,,,,,
59f226a9d6380600018b2923,TCR,2024-06-11_10h11.28.648,LearnStrategy,2023.2.3,Win32,58.82352941,4,1,2,0.070000013,0.00666666,1,0,0,1.1986,rock_grid_rect_2,1,14,-1,-1,1.199,-0.40583334,-0.248333359,1,0,0,8.7442,Andesite_rect,1,8.744,1,1,0,1,0,1,,,,,,,,,,,,,
59f226a9d6380600018b2923,TCR,2024-06-11_10h11.28.648,LearnStrategy,2023.2.3,Win32,58.82352941,4,1,3,-0.007500013,-0.015833346,1,0,0,1.0147,rock_grid_rect_2,6,09,-1,-1,1.015,-0.086666679,-0.381666692,1,0,0,4.9261,Pegmatite_rect,6,4.926,1,2,0,2,0,1,,,,,,,,,,,,,
59f226a9d6380600018b2923,TCR,2024-06-11_10h11.28.648,LearnStrategy,2023.2.3,Win32,58.82352941,4,1,4,0.021666654,-0.009166686,1,0,0,1.0993,rock_grid_rect_2,7,06,-1,-1,1.099,0.120000013,-0.235833359,1,0,0,14.7096,Diorite_rect,3,14.71,0,3,0,3,0,1,,,,,,,,,,,,,
59f226a9d6380600018b2923,TCR,2024-06-11_10h11.28.648,LearnStrategy,2023.2.3,Win32,58.82352941,4,1,5,0.1375,-0.014999994,1,0,0,1.1421,rock_grid_rect_2,8,15,-1,-1,1.142,0.388333384,-0.407500013,1,0,0,2.4445,Pumice_rect,8,2.445,1,4,0,4,0,1,,,,,,,,,,,,,
59f226a9d6380600018b2923,TCR,2024-06-11_10h11.28.648,LearnStrategy,2023.2.3,Win32,58.82352941,4,1,6,0.093333371,-0.014999994,1,0,0,1.0643,rock_grid_rect_2,3,02,-1,-1,1.064,0.122500038,-0.229166667,1,0,0,9.1779,Diorite_rect,3,9.178,1,5,0,5,0,1,,,,,,,,,,,,,
59f226a9d6380600018b2923,TCR,2024-06-11_10h11.28.648,LearnStrategy,2023.2.3,Win32,58.82352941,4,1,7,0.125,-0.01833334,1,0,0,1.016,rock_grid_rect_2,4,05,-1,-1,1.016,0.348333359,-0.233333333,1,0,0,6.3945,Gabbro_rect,4,6.395,1,6,0,6,0,1,,,,,,,,,,,,,
59f226a9d6380600018b2923,TCR,2024-06-11_10h11.28.648,LearnStrategy,2023.2.3,Win32,58.82352941,4,1,8,0.040000025,0.002499994,1,0,0,1.0306,rock_grid_rect_2,1,11,-1,-1,1.031,-0.329999987,-0.240833346,1,0,0,5.2611,Andesite_rect,1,5.261,1,7,0,7,0,1,,,,,,,,,,,,,
59f226a9d6380600018b2923,TCR,2024-06-11_10h11.28.648,LearnStrategy,2023.2.3,Win32,58.82352941,4,1,9,0.015833346,-0.007500013,1,0,0,0.9817,rock_grid_rect_2,4,05,-1,-1,0.982,0.400833384,-0.242499987,1,0,0,5.093,Gabbro_rect,4,5.093,1,8,0,8,0,1,,,,,,,,,,,,,
59f226a9d6380600018b2923,TCR,2024-06-11_10h11.28.648,LearnStrategy,2023.2.3,Win32,58.82352941,4,1,10,-0.004999987,-0.005000019,1,0,0,0.9317,rock_grid_rect_2,3,06,-1,-1,0.932,0.110833359,-0.255833371,1,0,0,8.7112,Diorite_rect,3,8.711,1,9,0,9,0,1,,,,,,,,,,,,,
59f226a9d6380600018b2923,TCR,2024-06-11_10h11.28.648,LearnStrategy,2023.2.3,Win32,58.82352941,4,1,11,0.054999987,0.00666666,1,0,0,0.9815,rock_grid_rect_2,7,10,-1,-1,0.981,0.142499987,-0.4,1,0,0,7.2124,Peridotite_rect,7,7.212,1,10,0,10,0,1,,,,,,,,,,,,,
59f226a9d6380600018b2923,TCR,2024-06-11_10h11.28.648,LearnStrategy,2023.2.3,Win32,58.82352941,4,1,12,0.05,-0.021666686,1,0,0,1.1479,rock_grid_rect_2,1,02,-1,-1,1.148,-0.39333334,-0.250833321,1,0,0,12.2774,Andesite_rect,1,12.277,1,11,0,11,0,1,,,,,,,,,,,,,
59f226a9d6380600018b2923,TCR,2024-06-11_10h11.28.648,LearnStrategy,2023.2.3,Win32,58.82352941,4,1,13,0.028333346,-0.00666666,1,0,0,0.9481,rock_grid_rect_2,2,14,-1,-1,0.948,0.422499975,-0.251666705,1,0,0,10.9956,Gabbro_rect,4,10.996,0,12,0,12,0,1,,,,,,,,,,,,,
59f226a9d6380600018b2923,TCR,2024-06-11_10h11.28.648,LearnStrategy,2023.2.3,Win32,58.82352941,4,1,14,0.060833359,0.00666666,1,0,0,1.691,rock_grid_rect_2,7,04,-1,-1,1.691,-0.170000013,-0.244166692,1,0,0,8.1114,Basalt_rect,2,8.111,0,13,0,13,0,1,,,,,,,,,,,,,
59f226a9d6380600018b2923,TCR,2024-06-11_10h11.28.648,LearnStrategy,2023.2.3,Win32,58.82352941,4,1,15,0.003333346,0.008333333,1,0,0,1.8294,rock_grid_rect_2,7,07,-1,-1,1.829,0.110000038,-0.402500025,1,0,0,16.11,Peridotite_rect,7,16.11,1,14,0,14,0,1,,,,,,,,,,,,,
59f226a9d6380600018b2923,TCR,2024-06-11_10h11.28.648,LearnStrategy,2023.2.3,Win32,58.82352941,4,1,16,0.016666667,0.013333321,1,0,0,1.5473,rock_grid_rect_2,3,02,-1,-1,1.547,0.148333359,-0.240000025,1,0,0,4.8454,Diorite_rect,3,4.845,1,15,0,15,0,1,,,,,,,,,,,,,
59f226a9d6380600018b2923,TCR,2024-06-11_10h11.28.648,LearnStrategy,2023.2.3,Win32,58.82352941,4,2,1,,,,,,,,4,10,,,,,,,,,,,2,7.408,0,,,,,,-0.191666667,-0.253333346,1,0,0,7.4077,Basalt_rect,0,0,0,0,1,
59f226a9d6380600018b2923,TCR,2024-06-11_10h11.28.648,LearnStrategy,2023.2.3,Win32,58.82352941,4,2,2,,,,,,,,7,08,,,,,,,,,,,7,5.228,1,,,,,,0.125833321,-0.407500013,1,0,0,5.2279,Peridotite_rect,1,0,1,0,1,
59f226a9d6380600018b2923,TCR,2024-06-11_10h11.28.648,LearnStrategy,2023.2.3,Win32,58.82352941,4,2,3,,,,,,,,3,08,,,,,,,,,,,7,6.028,0,,,,,,0.194166692,-0.4,1,0,0,6.0281,Peridotite_rect,2,0,2,0,1,
59f226a9d6380600018b2923,TCR,2024-06-11_10h11.28.648,LearnStrategy,2023.2.3,Win32,58.82352941,4,2,4,,,,,,,,6,06,,,,,,,,,,,6,8.096,1,,,,,,-0.095000013,-0.380833371,1,0,0,8.0956,Pegmatite_rect,3,0,3,0,1,
59f226a9d6380600018b2923,TCR,2024-06-11_10h11.28.648,LearnStrategy,2023.2.3,Win32,58.82352941,4,2,5,,,,,,,,8,02,,,,,,,,,,,8,1.909,1,,,,,,0.363333384,-0.400833321,1,0,0,1.9093,Pumice_rect,4,0,4,0,1,
59f226a9d6380600018b2923,TCR,2024-06-11_10h11.28.648,LearnStrategy,2023.2.3,Win32,58.82352941,4,2,6,,,,,,,,4,14,,,,,,,,,,,2,4.429,0,,,,,,-0.141666667,-0.228333346,1,0,0,4.4293,Basalt_rect,5,0,5,0,1,
59f226a9d6380600018b2923,TCR,2024-06-11_10h11.28.648,LearnStrategy,2023.2.3,Win32,58.82352941,4,2,7,,,,,,,,1,05,,,,,,,,,,,3,10.558,0,,,,,,0.129166667,-0.260833359,1,0,0,10.5581,Diorite_rect,6,0,6,0,1,
59f226a9d6380600018b2923,TCR,2024-06-11_10h11.28.648,LearnStrategy,2023.2.3,Win32,58.82352941,4,2,8,,,,,,,,6,05,,,,,,,,,,,3,4.412,0,,,,,,0.130833371,-0.260833359,1,0,0,4.4125,Diorite_rect,7,0,7,0,1,
59f226a9d6380600018b2923,TCR,2024-06-11_10h11.28.648,LearnStrategy,2023.2.3,Win32,58.82352941,4,2,9,,,,,,,,2,16,,,,,,,,,,,2,7.628,1,,,,,,-0.114999962,-0.233333333,1,0,0,7.628,Basalt_rect,8,0,8,0,1,
59f226a9d6380600018b2923,TCR,2024-06-11_10h11.28.648,LearnStrategy,2023.2.3,Win32,58.82352941,4,2,10,,,,,,,,5,04,,,,,,,,,,,5,1.478,1,,,,,,-0.344999981,-0.410000038,1,0,0,1.4778,Obsidian_rect,9,0,9,0,1,
59f226a9d6380600018b2923,TCR,2024-06-11_10h11.28.648,LearnStrategy,2023.2.3,Win32,58.82352941,4,2,11,,,,,,,,3,07,,,,,,,,,,,3,4.861,1,,,,,,0.086666679,-0.246666654,1,0,0,4.8607,Diorite_rect,10,0,10,0,1,
59f226a9d6380600018b2923,TCR,2024-06-11_10h11.28.648,LearnStrategy,2023.2.3,Win32,58.82352941,4,2,12,,,,,,,,2,11,,,,,,,,,,,2,3.429,1,,,,,,-0.092499987,-0.247500038,1,0,0,3.4295,Basalt_rect,11,0,11,0,1,
59f226a9d6380600018b2923,TCR,2024-06-11_10h11.28.648,LearnStrategy,2023.2.3,Win32,58.82352941,4,2,13,,,,,,,,8,05,,,,,,,,,,,8,1.278,1,,,,,,0.324166743,-0.399166679,1,0,0,1.2778,Pumice_rect,12,0,12,0,1,
59f226a9d6380600018b2923,TCR,2024-06-11_10h11.28.648,LearnStrategy,2023.2.3,Win32,58.82352941,4,2,14,,,,,,,,7,05,,,,,,,,,,,7,5.896,1,,,,,,0.111666679,-0.410833359,1,0,0,5.8961,Peridotite_rect,13,0,13,0,1,
59f226a9d6380600018b2923,TCR,2024-06-11_10h11.28.648,LearnStrategy,2023.2.3,Win32,58.82352941,4,2,15,,,,,,,,1,16,,,,,,,,,,,4,8.56,0,,,,,,0.445833333,-0.239166705,1,0,0,8.5603,Gabbro_rect,14,0,14,0,1,
59f226a9d6380600018b2923,TCR,2024-06-11_10h11.28.648,LearnStrategy,2023.2.3,Win32,58.82352941,4,2,16,,,,,,,,5,14,,,,,,,,,,,5,1.928,1,,,,,,-0.372500006,-0.409166654,1,0,0,1.9275,Obsidian_rect,15,0,15,0,1,
59f226a9d6380600018b2923,TCR,2024-06-11_10h11.28.648,LearnStrategy,2023.2.3,Win32,58.82352941,5,1,1,-0.036666679,-0.001666673,1,0,0,1.0482,rock_grid_rect_2,3,12,-1,-1,1.048,0.108333333,-0.232500013,1,0,0,8.6111,Diorite_rect,3,8.611,1,0,0,0,0,1,,,,,,,,,,,,,
59f226a9d6380600018b2923,TCR,2024-06-11_10h11.28.648,LearnStrategy,2023.2.3,Win32,58.82352941,5,1,2,0.043333371,-0.00583334,1,0,0,1.0311,rock_grid_rect_2,1,14,-1,-1,1.031,-0.074166679,-0.247500038,1,0,0,3.2112,Basalt_rect,2,3.211,0,1,0,1,0,1,,,,,,,,,,,,,
59f226a9d6380600018b2923,TCR,2024-06-11_10h11.28.648,LearnStrategy,2023.2.3,Win32,58.82352941,5,1,3,0.040833346,-0.01916666,1,0,0,1.1151,rock_grid_rect_2,4,11,-1,-1,1.115,-0.111666679,-0.249166679,1,0,0,1.4114,Basalt_rect,2,1.411,0,2,0,2,0,1,,,,,,,,,,,,,
59f226a9d6380600018b2923,TCR,2024-06-11_10h11.28.648,LearnStrategy,2023.2.3,Win32,58.82352941,5,1,4,0.005833371,-0.014999994,1,0,0,1.3815,rock_grid_rect_2,4,12,-1,-1,1.381,0.37833341,-0.268333371,1,0,0,8.8277,Gabbro_rect,4,8.828,1,3,0,3,0,1,,,,,,,,,,,,,
59f226a9d6380600018b2923,TCR,2024-06-11_10h11.28.648,LearnStrategy,2023.2.3,Win32,58.82352941,5,1,5,0.015000025,0.004999987,1,0,0,1.0486,rock_grid_rect_2,4,16,-1,-1,1.049,-0.134999975,-0.240833346,1,0,0,4.7455,Basalt_rect,2,4.745,0,4,0,4,0,1,,,,,,,,,,,,,
59f226a9d6380600018b2923,TCR,2024-06-11_10h11.28.648,LearnStrategy,2023.2.3,Win32,58.82352941,5,1,6,0.0375,-0.01833334,1,0,0,1.065,rock_grid_rect_2,6,09,-1,-1,1.065,-0.069166629,-0.420000013,1,0,0,4.5351,Pegmatite_rect,6,4.535,1,5,0,5,0,1,,,,,,,,,,,,,
59f226a9d6380600018b2923,TCR,2024-06-11_10h11.28.648,LearnStrategy,2023.2.3,Win32,58.82352941,5,1,7,0.055833371,-0.010000006,1,0,0,1.0655,rock_grid_rect_2,1,09,-1,-1,1.065,-0.144166629,-0.256666692,1,0,0,6.8439,Basalt_rect,2,6.844,0,6,0,6,0,1,,,,,,,,,,,,,
59f226a9d6380600018b2923,TCR,2024-06-11_10h11.28.648,LearnStrategy,2023.2.3,Win32,58.82352941,5,1,8,0.040000025,-0.00583334,1,0,0,0.9983,rock_grid_rect_2,6,16,-1,-1,0.998,0.157500013,-0.250833321,1,0,0,8.9771,Diorite_rect,3,8.977,0,7,0,7,0,1,,,,,,,,,,,,,
59f226a9d6380600018b2923,TCR,2024-06-11_10h11.28.648,LearnStrategy,2023.2.3,Win32,58.82352941,5,1,9,0.036666679,0.008333333,1,0,0,1.1475,rock_grid_rect_2,2,10,-1,-1,1.148,0.351666641,-0.245000013,1,0,0,7.9457,Gabbro_rect,4,7.946,0,8,0,8,0,1,,,,,,,,,,,,,
59f226a9d6380600018b2923,TCR,2024-06-11_10h11.28.648,LearnStrategy,2023.2.3,Win32,58.82352941,5,1,10,0.043333371,-0.002499994,1,0,0,1.0661,rock_grid_rect_2,8,10,-1,-1,1.066,0.361666743,-0.400833321,1,0,0,1.2951,Pumice_rect,8,1.295,1,9,0,9,0,1,,,,,,,,,,,,,
59f226a9d6380600018b2923,TCR,2024-06-11_10h11.28.648,LearnStrategy,2023.2.3,Win32,58.82352941,5,1,11,0.079166667,0.010833327,1,0,0,1.0483,rock_grid_rect_2,1,04,-1,-1,1.048,-0.140833346,-0.239166705,1,0,0,2.9132,Basalt_rect,2,2.913,0,10,0,10,0,1,,,,,,,,,,,,,
59f226a9d6380600018b2923,TCR,2024-06-11_10h11.28.648,LearnStrategy,2023.2.3,Win32,58.82352941,5,1,12,0.038333321,-0.002499994,1,0,0,1.0985,rock_grid_rect_2,1,09,-1,-1,1.099,-0.324166648,-0.271666654,1,0,0,13.328,Andesite_rect,1,13.328,1,11,0,11,0,1,,,,,,,,,,,,,
59f226a9d6380600018b2923,TCR,2024-06-11_10h11.28.648,LearnStrategy,2023.2.3,Win32,58.82352941,5,1,13,0.138333321,0,1,0,0,3.4144,rock_grid_rect_2,7,06,-1,-1,3.414,0.082500013,-0.390000025,1,0,0,8.5611,Peridotite_rect,7,8.561,1,12,0,12,0,1,,,,,,,,,,,,,
59f226a9d6380600018b2923,TCR,2024-06-11_10h11.28.648,LearnStrategy,2023.2.3,Win32,58.82352941,5,1,14,0.042499987,-0.00666666,1,0,0,1.2146,rock_grid_rect_2,7,06,-1,-1,1.215,0.1,-0.385000038,1,0,0,1.5443,Peridotite_rect,7,1.544,1,13,0,13,0,1,,,,,,,,,,,,,
59f226a9d6380600018b2923,TCR,2024-06-11_10h11.28.648,LearnStrategy,2023.2.3,Win32,58.82352941,5,1,15,0.055833371,-0.015833346,1,0,0,0.9989,rock_grid_rect_2,3,13,-1,-1,0.999,0.129999987,-0.243333371,1,0,0,10.694,Diorite_rect,3,10.694,1,14,0,14,0,1,,,,,,,,,,,,,
59f226a9d6380600018b2923,TCR,2024-06-11_10h11.28.648,LearnStrategy,2023.2.3,Win32,58.82352941,5,1,16,0.005833371,-0.002499994,1,0,0,0.9821,rock_grid_rect_2,3,14,-1,-1,0.982,0.314166641,-0.255833371,1,0,0,8.1444,Gabbro_rect,4,8.144,0,15,0,15,0,1,,,,,,,,,,,,,
59f226a9d6380600018b2923,TCR,2024-06-11_10h11.28.648,LearnStrategy,2023.2.3,Win32,58.82352941,5,2,1,,,,,,,,6,10,,,,,,,,,,,6,5.778,1,,,,,,-0.131666629,-0.402500025,1,0,0,5.7782,Pegmatite_rect,0,0,0,0,1,
59f226a9d6380600018b2923,TCR,2024-06-11_10h11.28.648,LearnStrategy,2023.2.3,Win32,58.82352941,5,2,2,,,,,,,,4,08,,,,,,,,,,,4,6.109,1,,,,,,0.380000051,-0.249166679,1,0,0,6.109,Gabbro_rect,1,0,1,0,1,
59f226a9d6380600018b2923,TCR,2024-06-11_10h11.28.648,LearnStrategy,2023.2.3,Win32,58.82352941,5,2,3,,,,,,,,3,09,,,,,,,,,,,3,1.227,1,,,,,,0.115000025,-0.245833333,1,0,0,1.2267,Diorite_rect,2,0,2,0,1,
59f226a9d6380600018b2923,TCR,2024-06-11_10h11.28.648,LearnStrategy,2023.2.3,Win32,58.82352941,5,2,4,,,,,,,,4,01,,,,,,,,,,,4,5.029,1,,,,,,0.304166667,-0.246666654,1,0,0,5.029,Gabbro_rect,3,0,3,0,1,
59f226a9d6380600018b2923,TCR,2024-06-11_10h11.28.648,LearnStrategy,2023.2.3,Win32,58.82352941,5,2,5,,,,,,,,1,10,,,,,,,,,,,2,1.576,0,,,,,,-0.095000013,-0.25,1,0,0,1.576,Basalt_rect,4,0,4,0,1,
59f226a9d6380600018b2923,TCR,2024-06-11_10h11.28.648,LearnStrategy,2023.2.3,Win32,58.82352941,5,2,6,,,,,,,,2,04,,,,,,,,,,,2,2.175,1,,,,,,-0.084999975,-0.229166667,1,0,0,2.1746,Basalt_rect,5,0,5,0,1,
59f226a9d6380600018b2923,TCR,2024-06-11_10h11.28.648,LearnStrategy,2023.2.3,Win32,58.82352941,5,2,7,,,,,,,,7,12,,,,,,,,,,,7,17.643,1,,,,,,0.1125,-0.391666667,1,0,0,17.6432,Peridotite_rect,6,0,6,0,1,
59f226a9d6380600018b2923,TCR,2024-06-11_10h11.28.648,LearnStrategy,2023.2.3,Win32,58.82352941,5,2,8,,,,,,,,2,05,,,,,,,,,,,2,1.095,1,,,,,,-0.111666679,-0.228333346,1,0,0,1.0951,Basalt_rect,7,0,7,0,1,
59f226a9d6380600018b2923,TCR,2024-06-11_10h11.28.648,LearnStrategy,2023.2.3,Win32,58.82352941,5,2,9,,,,,,,,8,14,,,,,,,,,,,8,1.862,1,,,,,,0.336666743,-0.400833321,1,0,0,1.8625,Pumice_rect,8,0,8,0,1,
59f226a9d6380600018b2923,TCR,2024-06-11_10h11.28.648,LearnStrategy,2023.2.3,Win32,58.82352941,5,2,10,,,,,,,,6,07,,,,,,,,,,,5,1.478,0,,,,,,-0.34416666,-0.400833321,1,0,0,1.4782,Obsidian_rect,9,0,9,0,1,
59f226a9d6380600018b2923,TCR,2024-06-11_10h11.28.648,LearnStrategy,2023.2.3,Win32,58.82352941,5,2,11,,,,,,,,1,03,,,,,,,,,,,2,1.914,0,,,,,,-0.079166667,-0.245000013,1,0,0,1.9137,Basalt_rect,10,0,10,0,1,
59f226a9d6380600018b2923,TCR,2024-06-11_10h11.28.648,LearnStrategy,2023.2.3,Win32,58.82352941,5,2,12,,,,,,,,3,16,,,,,,,,,,,3,10.843,1,,,,,,0.148333359,-0.245833333,1,0,0,10.8435,Diorite_rect,11,0,11,0,1,
59f226a9d6380600018b2923,TCR,2024-06-11_10h11.28.648,LearnStrategy,2023.2.3,Win32,58.82352941,5,2,13,,,,,,,,8,06,,,,,,,,,,,8,1.827,1,,,,,,0.377500025,-0.416666667,1,0,0,1.827,Pumice_rect,12,0,12,0,1,
59f226a9d6380600018b2923,TCR,2024-06-11_10h11.28.648,LearnStrategy,2023.2.3,Win32,58.82352941,5,2,14,,,,,,,,5,08,,,,,,,,,,,5,2.028,1,,,,,,-0.4,-0.403333346,1,0,0,2.0276,Obsidian_rect,13,0,13,0,1,
59f226a9d6380600018b2923,TCR,2024-06-11_10h11.28.648,LearnStrategy,2023.2.3,Win32,58.82352941,5,2,15,,,,,,,,5,11,,,,,,,,,,,5,1.128,1,,,,,,-0.399166648,-0.416666667,1,0,0,1.1276,Obsidian_rect,14,0,14,0,1,
59f226a9d6380600018b2923,TCR,2024-06-11_10h11.28.648,LearnStrategy,2023.2.3,Win32,58.82352941,5,2,16,,,,,,,,7,13,,,,,,,,,,,7,2.241,1,,,,,,0.065833346,-0.402500025,1,0,0,2.2413,Peridotite_rect,15,0,15,0,1,
59f226a9d6380600018b2923,TCR,2024-06-11_10h11.28.648,LearnStrategy,2023.2.3,Win32,58.82352941,6,1,1,0.000833321,-0.010833327,1,0,0,1.2992,rock_grid_rect_2,7,16,-1,-1,1.299,0.175833321,-0.421666654,1,0,0,12.3782,Peridotite_rect,7,12.378,1,0,0,0,0,1,,,,,,,,,,,,,
59f226a9d6380600018b2923,TCR,2024-06-11_10h11.28.648,LearnStrategy,2023.2.3,Win32,58.82352941,6,1,2,0.035833359,0.010833327,1,0,0,0.9977,rock_grid_rect_2,6,13,-1,-1,0.998,0.095000013,-0.248333359,1,0,0,3.2111,Diorite_rect,3,3.211,0,1,0,1,0,1,,,,,,,,,,,,,
59f226a9d6380600018b2923,TCR,2024-06-11_10h11.28.648,LearnStrategy,2023.2.3,Win32,58.82352941,6,1,3,0.025833321,-0.011666679,1,0,0,1.0815,rock_grid_rect_2,7,10,-1,-1,1.082,0.395000076,-0.25,1,0,0,11.7785,Gabbro_rect,4,11.778,0,2,0,2,0,1,,,,,,,,,,,,,
59f226a9d6380600018b2923,TCR,2024-06-11_10h11.28.648,LearnStrategy,2023.2.3,Win32,58.82352941,6,1,4,0.0375,-0.010000006,1,0,0,1.3485,rock_grid_rect_2,4,11,-1,-1,1.349,-0.136666679,-0.25,1,0,0,1.2779,Basalt_rect,2,1.278,0,3,0,3,0,1,,,,,,,,,,,,,
59f226a9d6380600018b2923,TCR,2024-06-11_10h11.28.648,LearnStrategy,2023.2.3,Win32,58.82352941,6,1,5,0.049166679,-0.025,1,0,0,1.1323,rock_grid_rect_2,1,14,-1,-1,1.132,0.152500025,-0.265000025,1,0,0,3.8455,Diorite_rect,3,3.845,0,4,0,4,0,1,,,,,,,,,,,,,
59f226a9d6380600018b2923,TCR,2024-06-11_10h11.28.648,LearnStrategy,2023.2.3,Win32,58.82352941,6,1,6,0.015833346,-0.00583334,1,0,0,1.0653,rock_grid_rect_2,1,04,-1,-1,1.065,-0.354166667,-0.241666667,1,0,0,4.2789,Andesite_rect,1,4.279,1,5,0,5,0,1,,,,,,,,,,,,,
59f226a9d6380600018b2923,TCR,2024-06-11_10h11.28.648,LearnStrategy,2023.2.3,Win32,58.82352941,6,1,7,0.049166679,0.001666673,1,0,0,1.0316,rock_grid_rect_2,8,08,-1,-1,1.032,0.358333333,-0.3875,1,0,0,1.4301,Pumice_rect,8,1.43,1,6,0,6,0,1,,,,,,,,,,,,,
59f226a9d6380600018b2923,TCR,2024-06-11_10h11.28.648,LearnStrategy,2023.2.3,Win32,58.82352941,6,1,8,0.048333359,-0.004166667,1,0,0,1.0821,rock_grid_rect_2,6,08,-1,-1,1.082,-0.384166654,-0.420833333,1,0,0,1.4125,Obsidian_rect,5,1.413,0,7,0,7,0,1,,,,,,,,,,,,,
59f226a9d6380600018b2923,TCR,2024-06-11_10h11.28.648,LearnStrategy,2023.2.3,Win32,58.82352941,6,1,9,0.018333371,-0.007500013,1,0,0,0.9986,rock_grid_rect_2,3,06,-1,-1,0.999,0.169166692,-0.235833359,1,0,0,7.0109,Diorite_rect,3,7.011,1,8,0,8,0,1,,,,,,,,,,,,,
59f226a9d6380600018b2923,TCR,2024-06-11_10h11.28.648,LearnStrategy,2023.2.3,Win32,58.82352941,6,1,10,0.040000025,0.007499981,1,0,0,1.0312,rock_grid_rect_2,6,09,-1,-1,1.031,-0.166666667,-0.407500013,1,0,0,4.0127,Pegmatite_rect,6,4.013,1,9,0,9,0,1,,,,,,,,,,,,,
59f226a9d6380600018b2923,TCR,2024-06-11_10h11.28.648,LearnStrategy,2023.2.3,Win32,58.82352941,6,1,11,0.024166679,0.016666667,1,0,0,1.0648,rock_grid_rect_2,1,11,-1,-1,1.065,-0.165833346,-0.251666705,1,0,0,6.3279,Basalt_rect,2,6.328,0,10,0,10,0,1,,,,,,,,,,,,,
59f226a9d6380600018b2923,TCR,2024-06-11_10h11.28.648,LearnStrategy,2023.2.3,Win32,58.82352941,6,1,12,-0.009999975,-0.024166679,1,0,0,0.9978,rock_grid_rect_2,3,06,-1,-1,0.998,-0.392499987,-0.244166692,1,0,0,8.3114,Andesite_rect,1,8.311,0,11,0,11,0,1,,,,,,,,,,,,,
59f226a9d6380600018b2923,TCR,2024-06-11_10h11.28.648,LearnStrategy,2023.2.3,Win32,58.82352941,6,1,13,-0.022499975,-0.004166667,1,0,0,0.9157,rock_grid_rect_2,5,02,-1,-1,0.916,-0.34416666,-0.379166667,1,0,0,1.9114,Obsidian_rect,5,1.911,1,12,0,12,0,1,,,,,,,,,,,,,
59f226a9d6380600018b2923,TCR,2024-06-11_10h11.28.648,LearnStrategy,2023.2.3,Win32,58.82352941,6,1,14,-0.020000013,-0.004166667,1,0,0,1.1493,rock_grid_rect_2,4,09,-1,-1,1.149,0.135833359,-0.413333321,1,0,0,8.2939,Peridotite_rect,7,8.294,0,13,0,13,0,1,,,,,,,,,,,,,
59f226a9d6380600018b2923,TCR,2024-06-11_10h11.28.648,LearnStrategy,2023.2.3,Win32,58.82352941,6,1,15,0.020000013,-0.008333333,1,0,0,0.9821,rock_grid_rect_2,1,02,-1,-1,0.982,-0.435000006,-0.240000025,1,0,0,4.8784,Andesite_rect,1,4.878,1,14,0,14,0,1,,,,,,,,,,,,,
59f226a9d6380600018b2923,TCR,2024-06-11_10h11.28.648,LearnStrategy,2023.2.3,Win32,58.82352941,6,1,16,-0.020833333,-0.017500019,1,0,0,0.9645,rock_grid_rect_2,2,10,-1,-1,0.965,-0.15,-0.260833359,1,0,0,7.3611,Basalt_rect,2,7.361,1,15,0,15,0,1,,,,,,,,,,,,,
59f226a9d6380600018b2923,TCR,2024-06-11_10h11.28.648,LearnStrategy,2023.2.3,Win32,58.82352941,6,2,1,,,,,,,,2,08,,,,,,,,,,,2,1.863,1,,,,,,-0.094166629,-0.242499987,1,0,0,1.8628,Basalt_rect,0,0,0,0,1,
59f226a9d6380600018b2923,TCR,2024-06-11_10h11.28.648,LearnStrategy,2023.2.3,Win32,58.82352941,6,2,2,,,,,,,,5,12,,,,,,,,,,,5,1.16,1,,,,,,-0.361666648,-0.406666692,1,0,0,1.1602,Obsidian_rect,1,0,1,0,1,
59f226a9d6380600018b2923,TCR,2024-06-11_10h11.28.648,LearnStrategy,2023.2.3,Win32,58.82352941,6,2,3,,,,,,,,5,07,,,,,,,,,,,5,2.028,1,,,,,,-0.370833333,-0.406666692,1,0,0,2.0276,Obsidian_rect,2,0,2,0,1,
59f226a9d6380600018b2923,TCR,2024-06-11_10h11.28.648,LearnStrategy,2023.2.3,Win32,58.82352941,6,2,4,,,,,,,,6,03,,,,,,,,,,,6,3.509,1,,,,,,-0.113333321,-0.395000013,1,0,0,3.5093,Pegmatite_rect,3,0,3,0,1,
59f226a9d6380600018b2923,TCR,2024-06-11_10h11.28.648,LearnStrategy,2023.2.3,Win32,58.82352941,6,2,5,,,,,,,,3,11,,,,,,,,,,,1,9.227,0,,,,,,-0.339166673,-0.260833359,1,0,0,9.2275,Andesite_rect,4,0,4,0,1,
59f226a9d6380600018b2923,TCR,2024-06-11_10h11.28.648,LearnStrategy,2023.2.3,Win32,58.82352941,6,2,6,,,,,,,,8,04,,,,,,,,,,,8,1.247,1,,,,,,0.355833308,-0.421666654,1,0,0,1.2466,Pumice_rect,5,0,5,0,1,
59f226a9d6380600018b2923,TCR,2024-06-11_10h11.28.648,LearnStrategy,2023.2.3,Win32,58.82352941,6,2,7,,,,,,,,6,15,,,,,,,,,,,3,9.096,0,,,,,,0.110000038,-0.261666679,1,0,0,9.0959,Diorite_rect,6,0,6,0,1,
59f226a9d6380600018b2923,TCR,2024-06-11_10h11.28.648,LearnStrategy,2023.2.3,Win32,58.82352941,6,2,8,,,,,,,,7,14,,,,,,,,,,,7,7.443,1,,,,,,0.119166692,-0.4,1,0,0,7.4431,Peridotite_rect,7,0,7,0,1,
59f226a9d6380600018b2923,TCR,2024-06-11_10h11.28.648,LearnStrategy,2023.2.3,Win32,58.82352941,6,2,9,,,,,,,,7,02,,,,,,,,,,,7,2.228,1,,,,,,0.086666679,-0.390000025,1,0,0,2.2278,Peridotite_rect,8,0,8,0,1,
59f226a9d6380600018b2923,TCR,2024-06-11_10h11.28.648,LearnStrategy,2023.2.3,Win32,58.82352941,6,2,10,,,,,,,,3,15,,,,,,,,,,,1,4.044,0,,,,,,-0.31833334,-0.244166692,1,0,0,4.0438,Andesite_rect,9,0,9,0,1,
59f226a9d6380600018b2923,TCR,2024-06-11_10h11.28.648,LearnStrategy,2023.2.3,Win32,58.82352941,6,2,11,,,,,,,,4,13,,,,,,,,,,,4,4.561,1,,,,,,0.358333333,-0.257500013,1,0,0,4.5606,Gabbro_rect,10,0,10,0,1,
59f226a9d6380600018b2923,TCR,2024-06-11_10h11.28.648,LearnStrategy,2023.2.3,Win32,58.82352941,6,2,12,,,,,,,,1,06,,,,,,,,,,,1,9.945,1,,,,,,-0.4125,-0.231666692,1,0,0,9.9449,Andesite_rect,11,0,11,0,1,
59f226a9d6380600018b2923,TCR,2024-06-11_10h11.28.648,LearnStrategy,2023.2.3,Win32,58.82352941,6,2,13,,,,,,,,4,03,,,,,,,,,,,1,1.478,0,,,,,,-0.395833333,-0.242499987,1,0,0,1.4782,Andesite_rect,12,0,12,0,1,
59f226a9d6380600018b2923,TCR,2024-06-11_10h11.28.648,LearnStrategy,2023.2.3,Win32,58.82352941,6,2,14,,,,,,,,2,06,,,,,,,,,,,2,1.178,1,,,,,,-0.160833295,-0.240000025,1,0,0,1.1778,Basalt_rect,13,0,13,0,1,
59f226a9d6380600018b2923,TCR,2024-06-11_10h11.28.648,LearnStrategy,2023.2.3,Win32,58.82352941,6,2,15,,,,,,,,1,01,,,,,,,,,,,1,10.307,1,,,,,,-0.429166667,-0.235833359,1,0,0,10.3073,Andesite_rect,14,0,14,0,1,
59f226a9d6380600018b2923,TCR,2024-06-11_10h11.28.648,LearnStrategy,2023.2.3,Win32,58.82352941,6,2,16,,,,,,,,8,13,,,,,,,,,,,8,1.863,1,,,,,,0.405000051,-0.394166692,1,0,0,1.8629,Pumice_rect,15,0,15,0,1,
59f226a9d6380600018b2923,TCR,2024-06-11_10h11.28.648,LearnStrategy,2023.2.3,Win32,58.82352941,7,1,1,0.065000025,0.004166667,1,0,0,2.8367,rock_grid_rect_2,7,15,-1,-1,2.837,0.120833333,-0.408333333,1,0,0,8.6464,Peridotite_rect,7,8.646,1,0,0,0,0,1,,,,,,,,,,,,,
59f226a9d6380600018b2923,TCR,2024-06-11_10h11.28.648,LearnStrategy,2023.2.3,Win32,58.82352941,7,1,2,0.004166667,-0.009166686,1,0,0,1.0055,rock_grid_rect_2,1,11,-1,-1,1.005,-0.391666667,-0.236666679,1,0,0,9.778,Andesite_rect,1,9.778,1,1,0,1,0,1,,,,,,,,,,,,,
59f226a9d6380600018b2923,TCR,2024-06-11_10h11.28.648,LearnStrategy,2023.2.3,Win32,58.82352941,7,1,3,0.014166705,-0.010833327,1,0,0,1.0653,rock_grid_rect_2,6,11,-1,-1,1.065,-0.329166667,-0.390000025,1,0,0,2.9941,Obsidian_rect,5,2.994,0,2,0,2,0,1,,,,,,,,,,,,,
59f226a9d6380600018b2923,TCR,2024-06-11_10h11.28.648,LearnStrategy,2023.2.3,Win32,58.82352941,7,1,4,0.009166654,-0.010833327,1,0,0,0.9981,rock_grid_rect_2,3,02,-1,-1,0.998,0.079166667,-0.252500025,1,0,0,4.83,Diorite_rect,3,4.83,1,3,0,3,0,1,,,,,,,,,,,,,
59f226a9d6380600018b2923,TCR,2024-06-11_10h11.28.648,LearnStrategy,2023.2.3,Win32,58.82352941,7,1,5,-0.019166629,-0.002499994,1,0,0,1.0486,rock_grid_rect_2,6,08,-1,-1,1.049,0.136666679,-0.420000013,1,0,0,10.9451,Peridotite_rect,7,10.945,0,4,0,4,0,1,,,,,,,,,,,,,
59f226a9d6380600018b2923,TCR,2024-06-11_10h11.28.648,LearnStrategy,2023.2.3,Win32,58.82352941,7,1,6,0.043333371,-0.010833327,1,0,0,1.199,rock_grid_rect_2,3,06,-1,-1,1.199,0.104166667,-0.249166679,1,0,0,5.2948,Diorite_rect,3,5.295,1,5,0,5,0,1,,,,,,,,,,,,,
59f226a9d6380600018b2923,TCR,2024-06-11_10h11.28.648,LearnStrategy,2023.2.3,Win32,58.82352941,7,1,7,-0.008333333,-0.001666673,1,0,0,0.9816,rock_grid_rect_2,8,08,-1,-1,0.982,0.354166667,-0.384166654,1,0,0,1.4439,Pumice_rect,8,1.444,1,6,0,6,0,1,,,,,,,,,,,,,
59f226a9d6380600018b2923,TCR,2024-06-11_10h11.28.648,LearnStrategy,2023.2.3,Win32,58.82352941,7,1,8,-0.004999987,-0.009166686,1,0,0,1.2155,rock_grid_rect_2,4,15,-1,-1,1.216,0.135000038,-0.240833346,1,0,0,5.8108,Diorite_rect,3,5.811,0,7,0,7,0,1,,,,,,,,,,,,,
59f226a9d6380600018b2923,TCR,2024-06-11_10h11.28.648,LearnStrategy,2023.2.3,Win32,58.82352941,7,1,9,0.0375,-0.022500006,1,0,0,1.1821,rock_grid_rect_2,4,05,-1,-1,1.182,0.101666705,-0.384166654,1,0,0,5.3279,Peridotite_rect,7,5.328,0,8,0,8,0,1,,,,,,,,,,,,,
59f226a9d6380600018b2923,TCR,2024-06-11_10h11.28.648,LearnStrategy,2023.2.3,Win32,58.82352941,7,1,10,0.081666692,-0.00583334,1,0,0,1.0323,rock_grid_rect_2,3,14,-1,-1,1.032,-0.365833314,-0.254999987,1,0,0,5.53,Andesite_rect,1,5.53,0,9,0,9,0,1,,,,,,,,,,,,,
59f226a9d6380600018b2923,TCR,2024-06-11_10h11.28.648,LearnStrategy,2023.2.3,Win32,58.82352941,7,1,11,0.024166679,-0.01833334,1,0,0,0.9478,rock_grid_rect_2,6,13,-1,-1,0.948,0.347499975,-0.257500013,1,0,0,3.9788,Gabbro_rect,4,3.979,0,10,0,10,0,1,,,,,,,,,,,,,
59f226a9d6380600018b2923,TCR,2024-06-11_10h11.28.648,LearnStrategy,2023.2.3,Win32,58.82352941,7,1,12,0.029999987,-0.004166667,1,0,0,1.0319,rock_grid_rect_2,3,06,-1,-1,1.032,0.336666743,-0.254166667,1,0,0,4.2953,Gabbro_rect,4,4.295,0,11,0,11,0,1,,,,,,,,,,,,,
59f226a9d6380600018b2923,TCR,2024-06-11_10h11.28.648,LearnStrategy,2023.2.3,Win32,58.82352941,7,1,13,0.010000038,0.016666667,1,0,0,0.8986,rock_grid_rect_2,2,01,-1,-1,0.899,-0.120000013,-0.256666692,1,0,0,1.1116,Basalt_rect,2,1.112,1,12,0,12,0,1,,,,,,,,,,,,,
59f226a9d6380600018b2923,TCR,2024-06-11_10h11.28.648,LearnStrategy,2023.2.3,Win32,58.82352941,7,1,14,0.034166654,-0.011666679,1,0,0,0.9657,rock_grid_rect_2,4,05,-1,-1,0.966,0.373333359,-0.257500013,1,0,0,6.747,Gabbro_rect,4,6.747,1,13,0,13,0,1,,,,,,,,,,,,,
59f226a9d6380600018b2923,TCR,2024-06-11_10h11.28.648,LearnStrategy,2023.2.3,Win32,58.82352941,7,1,15,0.030833371,0.004166667,1,0,0,1.0953,rock_grid_rect_2,1,14,-1,-1,1.095,-0.373333327,-0.235000038,1,0,0,4.1628,Andesite_rect,1,4.163,1,14,0,14,0,1,,,,,,,,,,,,,
59f226a9d6380600018b2923,TCR,2024-06-11_10h11.28.648,LearnStrategy,2023.2.3,Win32,58.82352941,7,1,16,0.000833321,-0.015833346,1,0,0,0.9153,rock_grid_rect_2,5,02,-1,-1,0.915,-0.384166654,-0.394166692,1,0,0,1.8115,Obsidian_rect,5,1.812,1,15,0,15,0,1,,,,,,,,,,,,,
59f226a9d6380600018b2923,TCR,2024-06-11_10h11.28.648,LearnStrategy,2023.2.3,Win32,58.82352941,7,2,1,,,,,,,,6,03,,,,,,,,,,,6,11.108,1,,,,,,-0.089999962,-0.418333371,1,0,0,11.1082,Pegmatite_rect,0,0,0,0,1,
59f226a9d6380600018b2923,TCR,2024-06-11_10h11.28.648,LearnStrategy,2023.2.3,Win32,58.82352941,7,2,2,,,,,,,,2,04,,,,,,,,,,,2,1.346,1,,,,,,-0.089166641,-0.242499987,1,0,0,1.3464,Basalt_rect,1,0,1,0,1,
59f226a9d6380600018b2923,TCR,2024-06-11_10h11.28.648,LearnStrategy,2023.2.3,Win32,58.82352941,7,2,3,,,,,,,,6,15,,,,,,,,,,,3,5.261,0,,,,,,0.1125,-0.254166667,1,0,0,5.2606,Diorite_rect,2,0,2,0,1,
59f226a9d6380600018b2923,TCR,2024-06-11_10h11.28.648,LearnStrategy,2023.2.3,Win32,58.82352941,7,2,4,,,,,,,,7,14,,,,,,,,,,,3,12.344,0,,,,,,0.109166654,-0.254166667,1,0,0,12.3438,Diorite_rect,3,0,3,0,1,
59f226a9d6380600018b2923,TCR,2024-06-11_10h11.28.648,LearnStrategy,2023.2.3,Win32,58.82352941,7,2,5,,,,,,,,5,08,,,,,,,,,,,5,1.162,1,,,,,,-0.409166654,-0.408333333,1,0,0,1.1617,Obsidian_rect,4,0,4,0,1,
59f226a9d6380600018b2923,TCR,2024-06-11_10h11.28.648,LearnStrategy,2023.2.3,Win32,58.82352941,7,2,6,,,,,,,,7,05,,,,,,,,,,,4,2.611,0,,,,,,0.366666667,-0.258333333,1,0,0,2.6115,Gabbro_rect,5,0,5,0,1,
59f226a9d6380600018b2923,TCR,2024-06-11_10h11.28.648,LearnStrategy,2023.2.3,Win32,58.82352941,7,2,7,,,,,,,,1,06,,,,,,,,,,,3,5.51,0,,,,,,0.136666679,-0.235833359,1,0,0,5.5098,Diorite_rect,6,0,6,0,1,
59f226a9d6380600018b2923,TCR,2024-06-11_10h11.28.648,LearnStrategy,2023.2.3,Win32,58.82352941,7,2,8,,,,,,,,5,07,,,,,,,,,,,5,1.227,1,,,,,,-0.433333333,-0.395000013,1,0,0,1.2274,Obsidian_rect,7,0,7,0,1,
59f226a9d6380600018b2923,TCR,2024-06-11_10h11.28.648,LearnStrategy,2023.2.3,Win32,58.82352941,7,2,9,,,,,,,,8,04,,,,,,,,,,,8,1.96,1,,,,,,0.379166667,-0.419166692,1,0,0,1.96,Pumice_rect,8,0,8,0,1,
59f226a9d6380600018b2923,TCR,2024-06-11_10h11.28.648,LearnStrategy,2023.2.3,Win32,58.82352941,7,2,10,,,,,,,,3,09,,,,,,,,,,,1,2.395,0,,,,,,-0.439999994,-0.245000013,1,0,0,2.395,Andesite_rect,9,0,9,0,1,
59f226a9d6380600018b2923,TCR,2024-06-11_10h11.28.648,LearnStrategy,2023.2.3,Win32,58.82352941,7,2,11,,,,,,,,3,16,,,,,,,,,,,1,5.213,0,,,,,,-0.424166648,-0.250833321,1,0,0,5.2131,Andesite_rect,10,0,10,0,1,
59f226a9d6380600018b2923,TCR,2024-06-11_10h11.28.648,LearnStrategy,2023.2.3,Win32,58.82352941,7,2,12,,,,,,,,4,14,,,,,,,,,,,4,3.16,1,,,,,,0.389166641,-0.25,1,0,0,3.1605,Gabbro_rect,11,0,11,0,1,
59f226a9d6380600018b2923,TCR,2024-06-11_10h11.28.648,LearnStrategy,2023.2.3,Win32,58.82352941,7,2,13,,,,,,,,1,10,,,,,,,,,,,1,5.76,1,,,,,,-0.3375,-0.243333371,1,0,0,5.7599,Andesite_rect,12,0,12,0,1,
59f226a9d6380600018b2923,TCR,2024-06-11_10h11.28.648,LearnStrategy,2023.2.3,Win32,58.82352941,7,2,14,,,,,,,,4,08,,,,,,,,,,,4,2.728,1,,,,,,0.404166667,-0.254999987,1,0,0,2.728,Gabbro_rect,13,0,13,0,1,
59f226a9d6380600018b2923,TCR,2024-06-11_10h11.28.648,LearnStrategy,2023.2.3,Win32,58.82352941,7,2,15,,,,,,,,2,06,,,,,,,,,,,2,1.141,1,,,,,,-0.129166667,-0.229166667,1,0,0,1.1408,Basalt_rect,14,0,14,0,1,
59f226a9d6380600018b2923,TCR,2024-06-11_10h11.28.648,LearnStrategy,2023.2.3,Win32,58.82352941,7,2,16,,,,,,,,8,05,,,,,,,,,,,8,1.19,1,,,,,,0.392500051,-0.392499987,1,0,0,1.1902,Pumice_rect,15,0,15,0,1,
59f226a9d6380600018b2923,TCR,2024-06-11_10h11.28.648,LearnStrategy,2023.2.3,Win32,58.82352941,8,1,1,0.061666679,-0.017500019,1,0,0,1.5139,rock_grid_rect_2,7,15,-1,-1,1.514,0.124166679,-0.392499987,1,0,0,6.4872,Peridotite_rect,7,6.487,1,0,0,0,0,1,,,,,,,,,,,,,
59f226a9d6380600018b2923,TCR,2024-06-11_10h11.28.648,LearnStrategy,2023.2.3,Win32,58.82352941,8,1,2,0.030833371,-0.0125,1,0,0,0.9982,rock_grid_rect_2,8,08,-1,-1,0.998,0.37833341,-0.392499987,1,0,0,1.8023,Pumice_rect,8,1.802,1,1,0,1,0,1,,,,,,,,,,,,,
59f226a9d6380600018b2923,TCR,2024-06-11_10h11.28.648,LearnStrategy,2023.2.3,Win32,58.82352941,8,1,3,0.085000038,-0.005000019,1,0,0,1.1381,rock_grid_rect_2,7,07,-1,-1,1.138,0.146666654,-0.420000013,1,0,0,6.6697,Peridotite_rect,7,6.67,1,2,0,2,0,1,,,,,,,,,,,,,
59f226a9d6380600018b2923,TCR,2024-06-11_10h11.28.648,LearnStrategy,2023.2.3,Win32,58.82352941,8,1,4,-0.001666641,0,1,0,0,0.8645,rock_grid_rect_2,4,16,-1,-1,0.865,-0.104166667,-0.261666679,1,0,0,5.6956,Basalt_rect,2,5.696,0,3,0,3,0,1,,,,,,,,,,,,,
59f226a9d6380600018b2923,TCR,2024-06-11_10h11.28.648,LearnStrategy,2023.2.3,Win32,58.82352941,8,1,5,0.073333359,0.003333314,1,0,0,1.1157,rock_grid_rect_2,3,13,-1,-1,1.116,0.131666692,-0.266666667,1,0,0,3.3604,Diorite_rect,3,3.36,1,4,0,4,0,1,,,,,,,,,,,,,
59f226a9d6380600018b2923,TCR,2024-06-11_10h11.28.648,LearnStrategy,2023.2.3,Win32,58.82352941,8,1,6,0.034166654,-0.025,1,0,0,0.8647,rock_grid_rect_2,3,06,-1,-1,0.865,0.071666654,-0.240833346,1,0,0,2.9298,Diorite_rect,3,2.93,1,5,0,5,0,1,,,,,,,,,,,,,
59f226a9d6380600018b2923,TCR,2024-06-11_10h11.28.648,LearnStrategy,2023.2.3,Win32,58.82352941,8,1,7,0.006666692,-0.020000013,1,0,0,1.9151,rock_grid_rect_2,5,09,-1,-1,1.915,-0.376666673,-0.388333321,1,0,0,1.2107,Obsidian_rect,5,1.211,1,6,0,6,0,1,,,,,,,,,,,,,
59f226a9d6380600018b2923,TCR,2024-06-11_10h11.28.648,LearnStrategy,2023.2.3,Win32,58.82352941,8,1,8,0.051666705,0.000833321,1,0,0,0.9155,rock_grid_rect_2,1,04,-1,-1,0.916,-0.339166673,-0.261666679,1,0,0,2.5624,Andesite_rect,1,2.562,1,7,0,7,0,1,,,,,,,,,,,,,
59f226a9d6380600018b2923,TCR,2024-06-11_10h11.28.648,LearnStrategy,2023.2.3,Win32,58.82352941,8,1,9,0.018333371,-0.003333346,1,0,0,0.8479,rock_grid_rect_2,3,10,-1,-1,0.848,0.086666679,-0.416666667,1,0,0,13.9776,Peridotite_rect,7,13.978,0,8,0,8,0,1,,,,,,,,,,,,,
59f226a9d6380600018b2923,TCR,2024-06-11_10h11.28.648,LearnStrategy,2023.2.3,Win32,58.82352941,8,1,10,0.041666667,-0.002499994,1,0,0,0.8983,rock_grid_rect_2,3,10,-1,-1,0.898,0.044166692,-0.247500038,1,0,0,4.7285,Diorite_rect,3,4.729,1,9,0,9,0,1,,,,,,,,,,,,,
59f226a9d6380600018b2923,TCR,2024-06-11_10h11.28.648,LearnStrategy,2023.2.3,Win32,58.82352941,8,1,11,0.078333346,-0.013333352,1,0,0,4.0111,rock_grid_rect_2,7,04,-1,-1,4.011,0.110000038,-0.242499987,1,0,0,4.2606,Diorite_rect,3,4.261,0,10,0,10,0,1,,,,,,,,,,,,,
59f226a9d6380600018b2923,TCR,2024-06-11_10h11.28.648,LearnStrategy,2023.2.3,Win32,58.82352941,8,1,12,-0.090833346,-0.022500006,1,0,0,1.3254,rock_grid_rect_2,6,16,-1,-1,1.325,0.300833384,-0.243333371,1,0,0,8.4635,Gabbro_rect,4,8.463,0,11,0,11,0,1,,,,,,,,,,,,,
59f226a9d6380600018b2923,TCR,2024-06-11_10h11.28.648,LearnStrategy,2023.2.3,Win32,58.82352941,8,1,13,0.021666654,0.010000006,1,0,0,1.0426,rock_grid_rect_2,4,12,-1,-1,1.043,-0.383333333,-0.240833346,1,0,0,3.5642,Andesite_rect,1,3.564,0,12,0,12,0,1,,,,,,,,,,,,,
59f226a9d6380600018b2923,TCR,2024-06-11_10h11.28.648,LearnStrategy,2023.2.3,Win32,58.82352941,8,1,14,-0.107500013,0.007499981,1,0,0,1.6736,rock_grid_rect_2,6,13,-1,-1,1.674,-0.117499987,-0.390833346,1,0,0,6.3953,Pegmatite_rect,6,6.395,1,13,0,13,0,1,,,,,,,,,,,,,
59f226a9d6380600018b2923,TCR,2024-06-11_10h11.28.648,LearnStrategy,2023.2.3,Win32,58.82352941,8,1,15,-0.004999987,0.009166654,1,0,0,0.882,rock_grid_rect_2,6,09,-1,-1,0.882,-0.120833333,-0.417499987,1,0,0,4.9286,Pegmatite_rect,6,4.929,1,14,0,14,0,1,,,,,,,,,,,,,
59f226a9d6380600018b2923,TCR,2024-06-11_10h11.28.648,LearnStrategy,2023.2.3,Win32,58.82352941,8,1,16,0.045000013,-0.004166667,1,0,0,0.948,rock_grid_rect_2,1,02,-1,-1,0.948,0.085000038,-0.234166654,1,0,0,8.2625,Diorite_rect,3,8.262,0,15,0,15,0,1,,,,,,,,,,,,,
59f226a9d6380600018b2923,TCR,2024-06-11_10h11.28.648,LearnStrategy,2023.2.3,Win32,58.82352941,8,2,1,,,,,,,,3,07,,,,,,,,,,,3,6.241,1,,,,,,0.1,-0.245000013,1,0,0,6.2413,Diorite_rect,0,0,0,0,1,
59f226a9d6380600018b2923,TCR,2024-06-11_10h11.28.648,LearnStrategy,2023.2.3,Win32,58.82352941,8,2,2,,,,,,,,3,08,,,,,,,,,,,3,9.896,1,,,,,,0.116666667,-0.250833321,1,0,0,9.896,Diorite_rect,1,0,1,0,1,
59f226a9d6380600018b2923,TCR,2024-06-11_10h11.28.648,LearnStrategy,2023.2.3,Win32,58.82352941,8,2,3,,,,,,,,6,07,,,,,,,,,,,5,7.994,0,,,,,,-0.360833327,-0.400833321,1,0,0,7.9941,Obsidian_rect,2,0,2,0,1,
59f226a9d6380600018b2923,TCR,2024-06-11_10h11.28.648,LearnStrategy,2023.2.3,Win32,58.82352941,8,2,4,,,,,,,,2,08,,,,,,,,,,,2,1.027,1,,,,,,-0.167499987,-0.229166667,1,0,0,1.0266,Basalt_rect,3,0,3,0,1,
59f226a9d6380600018b2923,TCR,2024-06-11_10h11.28.648,LearnStrategy,2023.2.3,Win32,58.82352941,8,2,5,,,,,,,,8,06,,,,,,,,,,,8,1.261,1,,,,,,0.375833384,-0.404999987,1,0,0,1.2613,Pumice_rect,4,0,4,0,1,
59f226a9d6380600018b2923,TCR,2024-06-11_10h11.28.648,LearnStrategy,2023.2.3,Win32,58.82352941,8,2,6,,,,,,,,6,10,,,,,,,,,,,6,2.643,1,,,,,,-0.139999962,-0.400833321,1,0,0,2.6427,Pegmatite_rect,5,0,5,0,1,
59f226a9d6380600018b2923,TCR,2024-06-11_10h11.28.648,LearnStrategy,2023.2.3,Win32,58.82352941,8,2,7,,,,,,,,1,16,,,,,,,,,,,3,5.527,0,,,,,,0.163333321,-0.236666679,1,0,0,5.5272,Diorite_rect,6,0,6,0,1,
59f226a9d6380600018b2923,TCR,2024-06-11_10h11.28.648,LearnStrategy,2023.2.3,Win32,58.82352941,8,2,8,,,,,,,,8,13,,,,,,,,,,,1,5.995,0,,,,,,-0.383333333,-0.2375,1,0,0,5.9947,Andesite_rect,7,0,7,0,1,
59f226a9d6380600018b2923,TCR,2024-06-11_10h11.28.648,LearnStrategy,2023.2.3,Win32,58.82352941,8,2,9,,,,,,,,4,01,,,,,,,,,,,4,9.144,1,,,,,,0.456666692,-0.2625,1,0,0,9.1442,Gabbro_rect,8,0,8,0,1,
59f226a9d6380600018b2923,TCR,2024-06-11_10h11.28.648,LearnStrategy,2023.2.3,Win32,58.82352941,8,2,10,,,,,,,,5,11,,,,,,,,,,,5,1.154,1,,,,,,-0.409166654,-0.410000038,1,0,0,1.1535,Obsidian_rect,9,0,9,0,1,
59f226a9d6380600018b2923,TCR,2024-06-11_10h11.28.648,LearnStrategy,2023.2.3,Win32,58.82352941,8,2,11,,,,,,,,7,12,,,,,,,,,,,7,6.496,1,,,,,,0.099166679,-0.393333371,1,0,0,6.4959,Peridotite_rect,10,0,10,0,1,
59f226a9d6380600018b2923,TCR,2024-06-11_10h11.28.648,LearnStrategy,2023.2.3,Win32,58.82352941,8,2,12,,,,,,,,4,03,,,,,,,,,,,4,5.627,1,,,,,,0.399166743,-0.2375,1,0,0,5.6272,Gabbro_rect,11,0,11,0,1,
59f226a9d6380600018b2923,TCR,2024-06-11_10h11.28.648,LearnStrategy,2023.2.3,Win32,58.82352941,8,2,13,,,,,,,,2,11,,,,,,,,,,,2,8.227,1,,,,,,-0.104999987,-0.246666654,1,0,0,8.2273,Basalt_rect,12,0,12,0,1,
59f226a9d6380600018b2923,TCR,2024-06-11_10h11.28.648,LearnStrategy,2023.2.3,Win32,58.82352941,8,2,14,,,,,,,,7,08,,,,,,,,,,,7,5.946,1,,,,,,0.167499987,-0.409166654,1,0,0,5.9462,Peridotite_rect,13,0,13,0,1,
59f226a9d6380600018b2923,TCR,2024-06-11_10h11.28.648,LearnStrategy,2023.2.3,Win32,58.82352941,8,2,15,,,,,,,,5,04,,,,,,,,,,,5,1.946,1,,,,,,-0.43166666,-0.414166705,1,0,0,1.9462,Obsidian_rect,14,0,14,0,1,
59f226a9d6380600018b2923,TCR,2024-06-11_10h11.28.648,LearnStrategy,2023.2.3,Win32,58.82352941,8,2,16,,,,,,,,1,03,,,,,,,,,,,1,10.795,1,,,,,,-0.415833314,-0.261666679,1,0,0,10.7952,Andesite_rect,15,0,15,0,1,
59f226a9d6380600018b2923,TCR,2024-06-11_10h11.28.648,LearnStrategy,2023.2.3,Win32,58.82352941,9,1,1,-0.054166667,-0.007500013,1,0,0,1.1982,rock_grid_rect_2,7,16,-1,-1,1.198,0.114166705,-0.420833333,1,0,0,6.6103,Peridotite_rect,7,6.61,1,0,0,0,0,1,,,,,,,,,,,,,
59f226a9d6380600018b2923,TCR,2024-06-11_10h11.28.648,LearnStrategy,2023.2.3,Win32,58.82352941,9,1,2,0.015000025,0.001666673,1,0,0,0.9322,rock_grid_rect_2,8,08,-1,-1,0.932,0.405833308,-0.390000025,1,0,0,1.1795,Pumice_rect,8,1.18,1,1,0,1,0,1,,,,,,,,,,,,,
59f226a9d6380600018b2923,TCR,2024-06-11_10h11.28.648,LearnStrategy,2023.2.3,Win32,58.82352941,9,1,3,0.079999987,-0.008333333,1,0,0,1.2324,rock_grid_rect_2,5,02,-1,-1,1.232,-0.404166667,-0.390000025,1,0,0,1.3743,Obsidian_rect,5,1.374,1,2,0,2,0,1,,,,,,,,,,,,,
59f226a9d6380600018b2923,TCR,2024-06-11_10h11.28.648,LearnStrategy,2023.2.3,Win32,58.82352941,9,1,4,0.015833346,-0.010833327,1,0,0,1.0485,rock_grid_rect_2,2,02,-1,-1,1.048,-0.102499962,-0.229166667,1,0,0,1.8613,Basalt_rect,2,1.861,1,3,0,3,0,1,,,,,,,,,,,,,
59f226a9d6380600018b2923,TCR,2024-06-11_10h11.28.648,LearnStrategy,2023.2.3,Win32,58.82352941,9,1,5,0.029166667,-0.017500019,1,0,0,1.1315,rock_grid_rect_2,1,11,-1,-1,1.131,-0.340833314,-0.235833359,1,0,0,9.2294,Andesite_rect,1,9.229,1,4,0,4,0,1,,,,,,,,,,,,,
59f226a9d6380600018b2923,TCR,2024-06-11_10h11.28.648,LearnStrategy,2023.2.3,Win32,58.82352941,9,1,6,0.003333346,0.004999987,1,0,0,0.848,rock_grid_rect_2,7,04,-1,-1,0.848,0.143333371,-0.399166679,1,0,0,3.6125,Peridotite_rect,7,3.613,1,5,0,5,0,1,,,,,,,,,,,,,
59f226a9d6380600018b2923,TCR,2024-06-11_10h11.28.648,LearnStrategy,2023.2.3,Win32,58.82352941,9,1,7,0.010000038,-0.000833352,1,0,0,1.1485,rock_grid_rect_2,1,02,-1,-1,1.149,0.382500076,-0.235833359,1,0,0,7.2277,Gabbro_rect,4,7.228,0,6,0,6,0,1,,,,,,,,,,,,,
59f226a9d6380600018b2923,TCR,2024-06-11_10h11.28.648,LearnStrategy,2023.2.3,Win32,58.82352941,9,1,8,-0.021666654,0.001666673,1,0,0,0.9985,rock_grid_rect_2,6,13,-1,-1,0.998,-0.085833295,-0.4125,1,0,0,12.5436,Pegmatite_rect,6,12.544,1,7,0,7,0,1,,,,,,,,,,,,,
59f226a9d6380600018b2923,TCR,2024-06-11_10h11.28.648,LearnStrategy,2023.2.3,Win32,58.82352941,9,1,9,0.0125,-0.011666679,1,0,0,0.948,rock_grid_rect_2,6,16,-1,-1,0.948,-0.125833321,-0.378333346,1,0,0,1.6774,Pegmatite_rect,6,1.677,1,8,0,8,0,1,,,,,,,,,,,,,
59f226a9d6380600018b2923,TCR,2024-06-11_10h11.28.648,LearnStrategy,2023.2.3,Win32,58.82352941,9,1,10,-0.024166679,-0.000833352,1,0,0,0.9822,rock_grid_rect_2,3,14,-1,-1,0.982,0.086666679,-0.258333333,1,0,0,3.4787,Diorite_rect,3,3.479,1,9,0,9,0,1,,,,,,,,,,,,,
59f226a9d6380600018b2923,TCR,2024-06-11_10h11.28.648,LearnStrategy,2023.2.3,Win32,58.82352941,9,1,11,0.010000038,-0.011666679,1,0,0,0.9812,rock_grid_rect_2,3,06,-1,-1,0.981,0.149166679,-0.253333346,1,0,0,1.6955,Diorite_rect,3,1.696,1,10,0,10,0,1,,,,,,,,,,,,,
59f226a9d6380600018b2923,TCR,2024-06-11_10h11.28.648,LearnStrategy,2023.2.3,Win32,58.82352941,9,1,12,0.027500025,-0.016666667,1,0,0,0.8819,rock_grid_rect_2,1,14,-1,-1,0.882,-0.076666641,-0.395000013,1,0,0,5.595,Pegmatite_rect,6,5.595,0,11,0,11,0,1,,,,,,,,,,,,,
59f226a9d6380600018b2923,TCR,2024-06-11_10h11.28.648,LearnStrategy,2023.2.3,Win32,58.82352941,9,1,13,0.101666705,-0.002499994,1,0,0,0.8975,rock_grid_rect_2,3,02,-1,-1,0.898,0.145833333,-0.265833346,1,0,0,5.402,Diorite_rect,3,5.402,1,12,0,12,0,1,,,,,,,,,,,,,
59f226a9d6380600018b2923,TCR,2024-06-11_10h11.28.648,LearnStrategy,2023.2.3,Win32,58.82352941,9,1,14,0.020000013,-0.011666679,1,0,0,1.0307,rock_grid_rect_2,8,15,-1,-1,1.031,0.374166743,-0.420833333,1,0,0,2.7518,Pumice_rect,8,2.752,1,13,0,13,0,1,,,,,,,,,,,,,
59f226a9d6380600018b2923,TCR,2024-06-11_10h11.28.648,LearnStrategy,2023.2.3,Win32,58.82352941,9,1,15,0.053333346,-0.005000019,1,0,0,0.8985,rock_grid_rect_2,6,13,-1,-1,0.899,-0.107500013,-0.395000013,1,0,0,3.4216,Pegmatite_rect,6,3.422,1,14,0,14,0,1,,,,,,,,,,,,,
59f226a9d6380600018b2923,TCR,2024-06-11_10h11.28.648,LearnStrategy,2023.2.3,Win32,58.82352941,9,1,16,0.008333333,-0.014999994,1,0,0,1.0318,rock_grid_rect_2,4,09,-1,-1,1.032,0.372499975,-0.242499987,1,0,0,4.4858,Gabbro_rect,4,4.486,1,15,0,15,0,1,,,,,,,,,,,,,
59f226a9d6380600018b2923,TCR,2024-06-11_10h11.28.648,LearnStrategy,2023.2.3,Win32,58.82352941,9,2,1,,,,,,,,7,02,,,,,,,,,,,7,4.235,1,,,,,,0.095833333,-0.388333321,1,0,0,4.2354,Peridotite_rect,0,0,0,0,1,
59f226a9d6380600018b2923,TCR,2024-06-11_10h11.28.648,LearnStrategy,2023.2.3,Win32,58.82352941,9,2,2,,,,,,,,3,11,,,,,,,,,,,3,5.32,1,,,,,,0.176666705,-0.242499987,1,0,0,5.3201,Diorite_rect,1,0,1,0,1,
59f226a9d6380600018b2923,TCR,2024-06-11_10h11.28.648,LearnStrategy,2023.2.3,Win32,58.82352941,9,2,3,,,,,,,,4,13,,,,,,,,,,,2,7.334,0,,,,,,-0.138333321,-0.242499987,1,0,0,7.3344,Basalt_rect,2,0,2,0,1,
59f226a9d6380600018b2923,TCR,2024-06-11_10h11.28.648,LearnStrategy,2023.2.3,Win32,58.82352941,9,2,4,,,,,,,,2,05,,,,,,,,,,,2,1.119,1,,,,,,-0.132500013,-0.239166705,1,0,0,1.1195,Basalt_rect,3,0,3,0,1,
59f226a9d6380600018b2923,TCR,2024-06-11_10h11.28.648,LearnStrategy,2023.2.3,Win32,58.82352941,9,2,5,,,,,,,,7,13,,,,,,,,,,,7,6.131,1,,,,,,0.107500013,-0.389166705,1,0,0,6.1305,Peridotite_rect,4,0,4,0,1,
59f226a9d6380600018b2923,TCR,2024-06-11_10h11.28.648,LearnStrategy,2023.2.3,Win32,58.82352941,9,2,6,,,,,,,,1,01,,,,,,,,,,,1,2.53,1,,,,,,-0.401666673,-0.249166679,1,0,0,2.53,Andesite_rect,5,0,5,0,1,
59f226a9d6380600018b2923,TCR,2024-06-11_10h11.28.648,LearnStrategy,2023.2.3,Win32,58.82352941,9,2,7,,,,,,,,3,15,,,,,,,,,,,3,7.513,1,,,,,,0.104166667,-0.245833333,1,0,0,7.5127,Diorite_rect,6,0,6,0,1,
59f226a9d6380600018b2923,TCR,2024-06-11_10h11.28.648,LearnStrategy,2023.2.3,Win32,58.82352941,9,2,8,,,,,,,,4,10,,,,,,,,,,,4,3.377,1,,,,,,0.390000025,-0.240833346,1,0,0,3.377,Gabbro_rect,7,0,7,0,1,
59f226a9d6380600018b2923,TCR,2024-06-11_10h11.28.648,LearnStrategy,2023.2.3,Win32,58.82352941,9,2,9,,,,,,,,2,16,,,,,,,,,,,4,4.861,0,,,,,,0.37833341,-0.235833359,1,0,0,4.8606,Gabbro_rect,8,0,8,0,1,
59f226a9d6380600018b2923,TCR,2024-06-11_10h11.28.648,LearnStrategy,2023.2.3,Win32,58.82352941,9,2,10,,,,,,,,8,14,,,,,,,,,,,8,1.343,1,,,,,,0.333333333,-0.420833333,1,0,0,1.3432,Pumice_rect,9,0,9,0,1,
59f226a9d6380600018b2923,TCR,2024-06-11_10h11.28.648,LearnStrategy,2023.2.3,Win32,58.82352941,9,2,11,,,,,,,,6,06,,,,,,,,,,,6,4.32,1,,,,,,-0.1625,-0.381666692,1,0,0,4.3203,Pegmatite_rect,10,0,10,0,1,
59f226a9d6380600018b2923,TCR,2024-06-11_10h11.28.648,LearnStrategy,2023.2.3,Win32,58.82352941,9,2,12,,,,,,,,5,14,,,,,,,,,,,5,1.163,1,,,,,,-0.417499987,-0.385833359,1,0,0,1.1634,Obsidian_rect,11,0,11,0,1,
59f226a9d6380600018b2923,TCR,2024-06-11_10h11.28.648,LearnStrategy,2023.2.3,Win32,58.82352941,9,2,13,,,,,,,,6,05,,,,,,,,,,,6,6.844,1,,,,,,-0.074166679,-0.395000013,1,0,0,6.8437,Pegmatite_rect,12,0,12,0,1,
59f226a9d6380600018b2923,TCR,2024-06-11_10h11.28.648,LearnStrategy,2023.2.3,Win32,58.82352941,9,2,14,,,,,,,,8,02,,,,,,,,,,,8,1.163,1,,,,,,0.356666692,-0.395000013,1,0,0,1.1633,Pumice_rect,13,0,13,0,1,
59f226a9d6380600018b2923,TCR,2024-06-11_10h11.28.648,LearnStrategy,2023.2.3,Win32,58.82352941,9,2,15,,,,,,,,1,05,,,,,,,,,,,4,7.026,0,,,,,,0.413333384,-0.246666654,1,0,0,7.0264,Gabbro_rect,14,0,14,0,1,
59f226a9d6380600018b2923,TCR,2024-06-11_10h11.28.648,LearnStrategy,2023.2.3,Win32,58.82352941,9,2,16,,,,,,,,5,12,,,,,,,,,,,5,1.095,1,,,,,,-0.45666666,-0.419166692,1,0,0,1.0949,Obsidian_rect,15,0,15,0,1,
59f226a9d6380600018b2923,TCR,2024-06-11_10h11.28.648,LearnStrategy,2023.2.3,Win32,58.82352941,,,,,,,,,,,,,,,,,,,,,,,,,,,,,,,,,,,,,,,,,,,1
59f226a9d6380600018b2923,TCR,2024-06-11_10h11.28.648,LearnStrategy,2023.2.3,Win32,58.82352941,,,,,,,,,,,,,,,,,,,,,,,,,,,,,,,,,,,,,,,,,,,
59f226a9d6380600018b2923,TCR,2024-06-11_10h11.28.648,LearnStrategy,2023.2.3,Win32,58.82352941,,,,,,,,,,,8,09,1,1,,,,,,,,,,,,,,,,,,,,,,,,,,,,,
59f226a9d6380600018b2923,TCR,2024-06-11_10h11.28.648,LearnStrategy,2023.2.3,Win32,58.82352941,,,,,,,,,,,5,10,1,2,,,,,,,,,,,,,,,,,,,,,,,,,,,,,
59f226a9d6380600018b2923,TCR,2024-06-11_10h11.28.648,LearnStrategy,2023.2.3,Win32,58.82352941,,,,,,,,,,,4,05,1,3,,,,,,,,,,,,,,,,,,,,,,,,,,,,,
59f226a9d6380600018b2923,TCR,2024-06-11_10h11.28.648,LearnStrategy,2023.2.3,Win32,58.82352941,,,,,,,,,,,1,07,1,4,,,,,,,,,,,,,,,,,,,,,,,,,,,,,
59f226a9d6380600018b2923,TCR,2024-06-11_10h11.28.648,LearnStrategy,2023.2.3,Win32,58.82352941,,,,,,,,,,,2,12,1,5,,,,,,,,,,,,,,,,,,,,,,,,,,,,,
59f226a9d6380600018b2923,TCR,2024-06-11_10h11.28.648,LearnStrategy,2023.2.3,Win32,58.82352941,,,,,,,,,,,5,05,1,6,,,,,,,,,,,,,,,,,,,,,,,,,,,,,
59f226a9d6380600018b2923,TCR,2024-06-11_10h11.28.648,LearnStrategy,2023.2.3,Win32,58.82352941,,,,,,,,,,,6,16,1,7,,,,,,,,,,,,,,,,,,,,,,,,,,,,,
59f226a9d6380600018b2923,TCR,2024-06-11_10h11.28.648,LearnStrategy,2023.2.3,Win32,58.82352941,,,,,,,,,,,1,14,1,8,,,,,,,,,,,,,,,,,,,,,,,,,,,,,
59f226a9d6380600018b2923,TCR,2024-06-11_10h11.28.648,LearnStrategy,2023.2.3,Win32,58.82352941,,,,,,,,,,,3,13,2,1,,,,,,,,,,,,,,,,,,,,,,,,,,,,,
59f226a9d6380600018b2923,TCR,2024-06-11_10h11.28.648,LearnStrategy,2023.2.3,Win32,58.82352941,,,,,,,,,,,7,16,2,2,,,,,,,,,,,,,,,,,,,,,,,,,,,,,
59f226a9d6380600018b2923,TCR,2024-06-11_10h11.28.648,LearnStrategy,2023.2.3,Win32,58.82352941,,,,,,,,,,,3,02,2,3,,,,,,,,,,,,,,,,,,,,,,,,,,,,,
59f226a9d6380600018b2923,TCR,2024-06-11_10h11.28.648,LearnStrategy,2023.2.3,Win32,58.82352941,,,,,,,,,,,2,09,2,4,,,,,,,,,,,,,,,,,,,,,,,,,,,,,
59f226a9d6380600018b2923,TCR,2024-06-11_10h11.28.648,LearnStrategy,2023.2.3,Win32,58.82352941,,,,,,,,,,,8,16,2,5,,,,,,,,,,,,,,,,,,,,,,,,,,,,,
59f226a9d6380600018b2923,TCR,2024-06-11_10h11.28.648,LearnStrategy,2023.2.3,Win32,58.82352941,,,,,,,,,,,7,06,2,6,,,,,,,,,,,,,,,,,,,,,,,,,,,,,
59f226a9d6380600018b2923,TCR,2024-06-11_10h11.28.648,LearnStrategy,2023.2.3,Win32,58.82352941,,,,,,,,,,,8,08,2,7,,,,,,,,,,,,,,,,,,,,,,,,,,,,,
59f226a9d6380600018b2923,TCR,2024-06-11_10h11.28.648,LearnStrategy,2023.2.3,Win32,58.82352941,,,,,,,,,,,4,11,2,8,,,,,,,,,,,,,,,,,,,,,,,,,,,,,
59f226a9d6380600018b2923,TCR,2024-06-11_10h11.28.648,LearnStrategy,2023.2.3,Win32,58.82352941,,,,,,,,,,,2,10,3,1,,,,,,,,,,,,,,,,,,,,,,,,,,,,,
59f226a9d6380600018b2923,TCR,2024-06-11_10h11.28.648,LearnStrategy,2023.2.3,Win32,58.82352941,,,,,,,,,,,6,11,3,2,,,,,,,,,,,,,,,,,,,,,,,,,,,,,
59f226a9d6380600018b2923,TCR,2024-06-11_10h11.28.648,LearnStrategy,2023.2.3,Win32,58.82352941,,,,,,,,,,,8,15,3,3,,,,,,,,,,,,,,,,,,,,,,,,,,,,,
59f226a9d6380600018b2923,TCR,2024-06-11_10h11.28.648,LearnStrategy,2023.2.3,Win32,58.82352941,,,,,,,,,,,5,06,3,4,,,,,,,,,,,,,,,,,,,,,,,,,,,,,
59f226a9d6380600018b2923,TCR,2024-06-11_10h11.28.648,LearnStrategy,2023.2.3,Win32,58.82352941,,,,,,,,,,,7,04,3,5,,,,,,,,,,,,,,,,,,,,,,,,,,,,,
59f226a9d6380600018b2923,TCR,2024-06-11_10h11.28.648,LearnStrategy,2023.2.3,Win32,58.82352941,,,,,,,,,,,1,02,3,6,,,,,,,,,,,,,,,,,,,,,,,,,,,,,
59f226a9d6380600018b2923,TCR,2024-06-11_10h11.28.648,LearnStrategy,2023.2.3,Win32,58.82352941,,,,,,,,,,,2,01,3,7,,,,,,,,,,,,,,,,,,,,,,,,,,,,,
59f226a9d6380600018b2923,TCR,2024-06-11_10h11.28.648,LearnStrategy,2023.2.3,Win32,58.82352941,,,,,,,,,,,7,10,3,8,,,,,,,,,,,,,,,,,,,,,,,,,,,,,
59f226a9d6380600018b2923,TCR,2024-06-11_10h11.28.648,LearnStrategy,2023.2.3,Win32,58.82352941,,,,,,,,,,,1,11,4,1,,,,,,,,,,,,,,,,,,,,,,,,,,,,,
59f226a9d6380600018b2923,TCR,2024-06-11_10h11.28.648,LearnStrategy,2023.2.3,Win32,58.82352941,,,,,,,,,,,2,14,4,2,,,,,,,,,,,,,,,,,,,,,,,,,,,,,
59f226a9d6380600018b2923,TCR,2024-06-11_10h11.28.648,LearnStrategy,2023.2.3,Win32,58.82352941,,,,,,,,,,,6,12,4,3,,,,,,,,,,,,,,,,,,,,,,,,,,,,,
59f226a9d6380600018b2923,TCR,2024-06-11_10h11.28.648,LearnStrategy,2023.2.3,Win32,58.82352941,,,,,,,,,,,3,06,4,4,,,,,,,,,,,,,,,,,,,,,,,,,,,,,
59f226a9d6380600018b2923,TCR,2024-06-11_10h11.28.648,LearnStrategy,2023.2.3,Win32,58.82352941,,,,,,,,,,,1,09,4,5,,,,,,,,,,,,,,,,,,,,,,,,,,,,,
59f226a9d6380600018b2923,TCR,2024-06-11_10h11.28.648,LearnStrategy,2023.2.3,Win32,58.82352941,,,,,,,,,,,8,03,4,6,,,,,,,,,,,,,,,,,,,,,,,,,,,,,
59f226a9d6380600018b2923,TCR,2024-06-11_10h11.28.648,LearnStrategy,2023.2.3,Win32,58.82352941,,,,,,,,,,,3,10,4,7,,,,,,,,,,,,,,,,,,,,,,,,,,,,,
59f226a9d6380600018b2923,TCR,2024-06-11_10h11.28.648,LearnStrategy,2023.2.3,Win32,58.82352941,,,,,,,,,,,4,15,4,8,,,,,,,,,,,,,,,,,,,,,,,,,,,,,
59f226a9d6380600018b2923,TCR,2024-06-11_10h11.28.648,LearnStrategy,2023.2.3,Win32,58.82352941,,,,,,,,,,,2,02,5,1,,,,,,,,,,,,,,,,,,,,,,,,,,,,,
59f226a9d6380600018b2923,TCR,2024-06-11_10h11.28.648,LearnStrategy,2023.2.3,Win32,58.82352941,,,,,,,,,,,4,16,5,2,,,,,,,,,,,,,,,,,,,,,,,,,,,,,
59f226a9d6380600018b2923,TCR,2024-06-11_10h11.28.648,LearnStrategy,2023.2.3,Win32,58.82352941,,,,,,,,,,,3,12,5,3,,,,,,,,,,,,,,,,,,,,,,,,,,,,,
59f226a9d6380600018b2923,TCR,2024-06-11_10h11.28.648,LearnStrategy,2023.2.3,Win32,58.82352941,,,,,,,,,,,6,09,5,4,,,,,,,,,,,,,,,,,,,,,,,,,,,,,
59f226a9d6380600018b2923,TCR,2024-06-11_10h11.28.648,LearnStrategy,2023.2.3,Win32,58.82352941,,,,,,,,,,,1,04,5,5,,,,,,,,,,,,,,,,,,,,,,,,,,,,,
59f226a9d6380600018b2923,TCR,2024-06-11_10h11.28.648,LearnStrategy,2023.2.3,Win32,58.82352941,,,,,,,,,,,5,02,5,6,,,,,,,,,,,,,,,,,,,,,,,,,,,,,
59f226a9d6380600018b2923,TCR,2024-06-11_10h11.28.648,LearnStrategy,2023.2.3,Win32,58.82352941,,,,,,,,,,,7,07,5,7,,,,,,,,,,,,,,,,,,,,,,,,,,,,,
59f226a9d6380600018b2923,TCR,2024-06-11_10h11.28.648,LearnStrategy,2023.2.3,Win32,58.82352941,,,,,,,,,,,5,09,5,8,,,,,,,,,,,,,,,,,,,,,,,,,,,,,
59f226a9d6380600018b2923,TCR,2024-06-11_10h11.28.648,LearnStrategy,2023.2.3,Win32,58.82352941,,,,,,,,,,,5,16,6,1,,,,,,,,,,,,,,,,,,,,,,,,,,,,,
59f226a9d6380600018b2923,TCR,2024-06-11_10h11.28.648,LearnStrategy,2023.2.3,Win32,58.82352941,,,,,,,,,,,4,09,6,2,,,,,,,,,,,,,,,,,,,,,,,,,,,,,
59f226a9d6380600018b2923,TCR,2024-06-11_10h11.28.648,LearnStrategy,2023.2.3,Win32,58.82352941,,,,,,,,,,,8,10,6,3,,,,,,,,,,,,,,,,,,,,,,,,,,,,,
59f226a9d6380600018b2923,TCR,2024-06-11_10h11.28.648,LearnStrategy,2023.2.3,Win32,58.82352941,,,,,,,,,,,4,12,6,4,,,,,,,,,,,,,,,,,,,,,,,,,,,,,
59f226a9d6380600018b2923,TCR,2024-06-11_10h11.28.648,LearnStrategy,2023.2.3,Win32,58.82352941,,,,,,,,,,,6,13,6,5,,,,,,,,,,,,,,,,,,,,,,,,,,,,,
59f226a9d6380600018b2923,TCR,2024-06-11_10h11.28.648,LearnStrategy,2023.2.3,Win32,58.82352941,,,,,,,,,,,6,08,6,6,,,,,,,,,,,,,,,,,,,,,,,,,,,,,
59f226a9d6380600018b2923,TCR,2024-06-11_10h11.28.648,LearnStrategy,2023.2.3,Win32,58.82352941,,,,,,,,,,,7,15,6,7,,,,,,,,,,,,,,,,,,,,,,,,,,,,,
59f226a9d6380600018b2923,TCR,2024-06-11_10h11.28.648,LearnStrategy,2023.2.3,Win32,58.82352941,,,,,,,,,,,3,14,6,8,,,,,,,,,,,,,,,,,,,,,,,,,,,,,