participant,condition,date,expName,psychopyVersion,OS,frameRate,block,phase,trial,learn_mouse_2.x,learn_mouse_2.y,learn_mouse_2.leftButton,learn_mouse_2.midButton,learn_mouse_2.rightButton,learn_mouse_2.time,learn_mouse_2.clicked_name,cat,token,row,col,t_select,cat_mouse_l.x,cat_mouse_l.y,cat_mouse_l.leftButton,cat_mouse_l.midButton,cat_mouse_l.rightButton,cat_mouse_l.time,cat_mouse_l.clicked_name,resp,t_resp,corr,train_trials.thisRepN,train_trials.thisTrialN,train_trials.thisN,train_trials.thisIndex,train_trials.ran,cat_mouse_t.x,cat_mouse_t.y,cat_mouse_t.leftButton,cat_mouse_t.midButton,cat_mouse_t.rightButton,cat_mouse_t.time,cat_mouse_t.clicked_name,test_trials.thisRepN,test_trials.thisTrialN,test_trials.thisN,test_trials.thisIndex,test_trials.ran
5a3012083eff6600016f259c,TCR,2024-06-10_14h57.54.798,LearnStrategy,2023.2.3,Win32,12.01923077,,,,,,,,,,,,,,,,,,,,,,,,,,,,,,,,,,,,,,,,,,
5a3012083eff6600016f259c,TCR,2024-06-10_14h57.54.798,LearnStrategy,2023.2.3,Win32,12.01923077,1,1,1,0.084259259,-0.00462963,1,0,0,9.8196,rock_grid_rect_2,1,14,-1,-1,9.82,-0.110185185,-0.249074074,1,0,0,22.8988,Basalt_rect,2,22.899,0,0,0,0,0,1,,,,,,,,,,,,
5a3012083eff6600016f259c,TCR,2024-06-10_14h57.54.798,LearnStrategy,2023.2.3,Win32,12.01923077,1,1,2,0.027777778,-0.00462963,1,0,0,1.3423,rock_grid_rect_2,3,06,-1,-1,1.342,0.136111111,-0.244444444,1,0,0,10.37,Diorite_rect,3,10.37,1,1,0,1,0,1,,,,,,,,,,,,
5a3012083eff6600016f259c,TCR,2024-06-10_14h57.54.798,LearnStrategy,2023.2.3,Win32,12.01923077,1,1,3,-0.011111111,0.002777778,1,0,0,1.35,rock_grid_rect_2,3,11,-1,-1,1.35,0.124074074,-0.401851852,1,0,0,5.7963,Peridotite_rect,7,5.796,0,2,0,2,0,1,,,,,,,,,,,,
5a3012083eff6600016f259c,TCR,2024-06-10_14h57.54.798,LearnStrategy,2023.2.3,Win32,12.01923077,1,1,4,-0.011111111,-0.007407407,1,0,0,1.6005,rock_grid_rect_2,2,11,-1,-1,1.601,0.391666667,-0.405555556,1,0,0,4.4522,Pumice_rect,8,4.452,0,3,0,3,0,1,,,,,,,,,,,,
5a3012083eff6600016f259c,TCR,2024-06-10_14h57.54.798,LearnStrategy,2023.2.3,Win32,12.01923077,1,1,5,-0.019444444,0.001851852,1,0,0,2.6591,rock_grid_rect_2,2,14,-1,-1,2.659,-0.4,-0.39537037,1,0,0,10.3065,Obsidian_rect,5,10.307,0,4,0,4,0,1,,,,,,,,,,,,
5a3012083eff6600016f259c,TCR,2024-06-10_14h57.54.798,LearnStrategy,2023.2.3,Win32,12.01923077,1,1,6,0.032407407,-0.010185185,1,0,0,1.0666,rock_grid_rect_2,8,16,-1,-1,1.067,-0.151851852,-0.252777778,1,0,0,3.6385,Basalt_rect,2,3.639,0,5,0,5,0,1,,,,,,,,,,,,
5a3012083eff6600016f259c,TCR,2024-06-10_14h57.54.798,LearnStrategy,2023.2.3,Win32,12.01923077,1,1,7,-0.010185185,0.014814815,1,0,0,1.3515,rock_grid_rect_2,7,13,-1,-1,1.352,0.111111111,-0.399074074,1,0,0,3.2259,Peridotite_rect,7,3.226,1,6,0,6,0,1,,,,,,,,,,,,
5a3012083eff6600016f259c,TCR,2024-06-10_14h57.54.798,LearnStrategy,2023.2.3,Win32,12.01923077,1,1,8,0.07037037,-0.007407407,1,0,0,0.9008,rock_grid_rect_2,5,07,-1,-1,0.901,-0.393518519,-0.401851852,1,0,0,5.5006,Obsidian_rect,5,5.501,1,7,0,7,0,1,,,,,,,,,,,,
5a3012083eff6600016f259c,TCR,2024-06-10_14h57.54.798,LearnStrategy,2023.2.3,Win32,12.01923077,1,1,9,0.050925926,0.002777778,1,0,0,0.9324,rock_grid_rect_2,8,13,-1,-1,0.932,-0.137037037,-0.40462963,1,0,0,9.2849,Pegmatite_rect,6,9.285,0,8,0,8,0,1,,,,,,,,,,,,
5a3012083eff6600016f259c,TCR,2024-06-10_14h57.54.798,LearnStrategy,2023.2.3,Win32,12.01923077,1,1,10,-0.015740741,0,1,0,0,0.9179,rock_grid_rect_2,4,14,-1,-1,0.918,-0.385185185,-0.247222222,1,0,0,4.9405,Andesite_rect,1,4.94,0,9,0,9,0,1,,,,,,,,,,,,
5a3012083eff6600016f259c,TCR,2024-06-10_14h57.54.798,LearnStrategy,2023.2.3,Win32,12.01923077,1,1,11,0.012962963,-0.012962963,1,0,0,1.2269,rock_grid_rect_2,6,07,-1,-1,1.227,-0.149074074,-0.391666667,1,0,0,5.4419,Pegmatite_rect,6,5.442,1,10,0,10,0,1,,,,,,,,,,,,
5a3012083eff6600016f259c,TCR,2024-06-10_14h57.54.798,LearnStrategy,2023.2.3,Win32,12.01923077,1,1,12,-0.036111111,0.001851852,1,0,0,1.0618,rock_grid_rect_2,5,05,-1,-1,1.062,-0.422222222,-0.401851852,1,0,0,3.5579,Obsidian_rect,5,3.558,1,11,0,11,0,1,,,,,,,,,,,,
5a3012083eff6600016f259c,TCR,2024-06-10_14h57.54.798,LearnStrategy,2023.2.3,Win32,12.01923077,1,1,13,-0.003703704,-0.006481481,1,0,0,0.9398,rock_grid_rect_2,1,02,-1,-1,0.94,-0.106481481,-0.399074074,1,0,0,5.7302,Pegmatite_rect,6,5.73,0,12,0,12,0,1,,,,,,,,,,,,
5a3012083eff6600016f259c,TCR,2024-06-10_14h57.54.798,LearnStrategy,2023.2.3,Win32,12.01923077,1,1,14,0.050925926,0.003703704,1,0,0,0.9497,rock_grid_rect_2,4,12,-1,-1,0.95,-0.162962963,-0.253703704,1,0,0,5.7506,Basalt_rect,2,5.751,0,13,0,13,0,1,,,,,,,,,,,,
5a3012083eff6600016f259c,TCR,2024-06-10_14h57.54.798,LearnStrategy,2023.2.3,Win32,12.01923077,1,1,15,0.057407407,-0.024074074,1,0,0,0.9274,rock_grid_rect_2,6,05,-1,-1,0.927,-0.391666667,-0.414814815,1,0,0,8.9289,Obsidian_rect,5,8.929,0,14,0,14,0,1,,,,,,,,,,,,
5a3012083eff6600016f259c,TCR,2024-06-10_14h57.54.798,LearnStrategy,2023.2.3,Win32,12.01923077,1,1,16,0.07037037,-0.012037037,1,0,0,1.5743,rock_grid_rect_2,7,02,-1,-1,1.574,-0.123148148,-0.39537037,1,0,0,4.9757,Pegmatite_rect,6,4.976,0,15,0,15,0,1,,,,,,,,,,,,
5a3012083eff6600016f259c,TCR,2024-06-10_14h57.54.798,LearnStrategy,2023.2.3,Win32,12.01923077,1,2,1,,,,,,,,1,05,,,,,,,,,,,4,12.255,0,,,,,,0.425925926,-0.244444444,1,0,0,12.2548,Gabbro_rect,0,0,0,0,1
5a3012083eff6600016f259c,TCR,2024-06-10_14h57.54.798,LearnStrategy,2023.2.3,Win32,12.01923077,1,2,2,,,,,,,,3,02,,,,,,,,,,,5,7.897,0,,,,,,-0.380555556,-0.406481481,1,0,0,7.8965,Obsidian_rect,1,0,1,0,1
5a3012083eff6600016f259c,TCR,2024-06-10_14h57.54.798,LearnStrategy,2023.2.3,Win32,12.01923077,1,2,3,,,,,,,,1,10,,,,,,,,,,,1,6.598,1,,,,,,-0.387962963,-0.259259259,1,0,0,6.5977,Andesite_rect,2,0,2,0,1
5a3012083eff6600016f259c,TCR,2024-06-10_14h57.54.798,LearnStrategy,2023.2.3,Win32,12.01923077,1,2,4,,,,,,,,2,04,,,,,,,,,,,2,10.195,1,,,,,,-0.146296296,-0.236111111,1,0,0,10.1951,Basalt_rect,3,0,3,0,1
5a3012083eff6600016f259c,TCR,2024-06-10_14h57.54.798,LearnStrategy,2023.2.3,Win32,12.01923077,1,2,5,,,,,,,,8,09,,,,,,,,,,,8,2.921,1,,,,,,0.397222222,-0.407407407,1,0,0,2.9214,Pumice_rect,4,0,4,0,1
5a3012083eff6600016f259c,TCR,2024-06-10_14h57.54.798,LearnStrategy,2023.2.3,Win32,12.01923077,1,2,6,,,,,,,,7,12,,,,,,,,,,,7,5.53,1,,,,,,0.126851852,-0.412962963,1,0,0,5.5302,Peridotite_rect,5,0,5,0,1
5a3012083eff6600016f259c,TCR,2024-06-10_14h57.54.798,LearnStrategy,2023.2.3,Win32,12.01923077,1,2,7,,,,,,,,7,16,,,,,,,,,,,4,8.121,0,,,,,,0.405555556,-0.24537037,1,0,0,8.1209,Gabbro_rect,6,0,6,0,1
5a3012083eff6600016f259c,TCR,2024-06-10_14h57.54.798,LearnStrategy,2023.2.3,Win32,12.01923077,1,2,8,,,,,,,,6,16,,,,,,,,,,,6,2.683,1,,,,,,-0.126851852,-0.40462963,1,0,0,2.6833,Pegmatite_rect,7,0,7,0,1
5a3012083eff6600016f259c,TCR,2024-06-10_14h57.54.798,LearnStrategy,2023.2.3,Win32,12.01923077,1,2,9,,,,,,,,3,12,,,,,,,,,,,7,3.045,0,,,,,,0.144444444,-0.40462963,1,0,0,3.0453,Peridotite_rect,8,0,8,0,1
5a3012083eff6600016f259c,TCR,2024-06-10_14h57.54.798,LearnStrategy,2023.2.3,Win32,12.01923077,1,2,10,,,,,,,,6,11,,,,,,,,,,,6,12.706,1,,,,,,-0.137037037,-0.401851852,1,0,0,12.7057,Pegmatite_rect,9,0,9,0,1
5a3012083eff6600016f259c,TCR,2024-06-10_14h57.54.798,LearnStrategy,2023.2.3,Win32,12.01923077,1,2,11,,,,,,,,4,01,,,,,,,,,,,2,2.426,0,,,,,,-0.15,-0.257407407,1,0,0,2.4264,Basalt_rect,10,0,10,0,1
5a3012083eff6600016f259c,TCR,2024-06-10_14h57.54.798,LearnStrategy,2023.2.3,Win32,12.01923077,1,2,12,,,,,,,,5,10,,,,,,,,,,,5,1.859,1,,,,,,-0.398148148,-0.397222222,1,0,0,1.859,Obsidian_rect,11,0,11,0,1
5a3012083eff6600016f259c,TCR,2024-06-10_14h57.54.798,LearnStrategy,2023.2.3,Win32,12.01923077,1,2,13,,,,,,,,2,08,,,,,,,,,,,2,7.843,1,,,,,,-0.15,-0.257407407,1,0,0,7.8425,Basalt_rect,12,0,12,0,1
5a3012083eff6600016f259c,TCR,2024-06-10_14h57.54.798,LearnStrategy,2023.2.3,Win32,12.01923077,1,2,14,,,,,,,,8,08,,,,,,,,,,,8,2.225,1,,,,,,0.392592593,-0.4,1,0,0,2.2248,Pumice_rect,13,0,13,0,1
5a3012083eff6600016f259c,TCR,2024-06-10_14h57.54.798,LearnStrategy,2023.2.3,Win32,12.01923077,1,2,15,,,,,,,,4,10,,,,,,,,,,,3,6.149,0,,,,,,0.123148148,-0.253703704,1,0,0,6.1494,Diorite_rect,14,0,14,0,1
5a3012083eff6600016f259c,TCR,2024-06-10_14h57.54.798,LearnStrategy,2023.2.3,Win32,12.01923077,1,2,16,,,,,,,,5,16,,,,,,,,,,,5,2.041,1,,,,,,-0.388888889,-0.403703704,1,0,0,2.0408,Obsidian_rect,15,0,15,0,1
5a3012083eff6600016f259c,TCR,2024-06-10_14h57.54.798,LearnStrategy,2023.2.3,Win32,12.01923077,2,1,1,-0.041666667,0.003703704,1,0,0,1.3139,rock_grid_rect_2,2,10,-1,-1,1.314,-0.153703704,-0.258333333,1,0,0,3.06,Basalt_rect,2,3.06,1,0,0,0,0,1,,,,,,,,,,,,
5a3012083eff6600016f259c,TCR,2024-06-10_14h57.54.798,LearnStrategy,2023.2.3,Win32,12.01923077,2,1,2,-0.012037037,-0.005555556,1,0,0,1.1987,rock_grid_rect_2,3,11,-1,-1,1.199,-0.165740741,-0.4,1,0,0,6.0234,Pegmatite_rect,6,6.023,0,1,0,1,0,1,,,,,,,,,,,,
5a3012083eff6600016f259c,TCR,2024-06-10_14h57.54.798,LearnStrategy,2023.2.3,Win32,12.01923077,2,1,3,0.042592593,-0.005555556,1,0,0,0.9363,rock_grid_rect_2,3,11,-1,-1,0.936,0.114814815,-0.252777778,1,0,0,1.2431,Diorite_rect,3,1.243,1,2,0,2,0,1,,,,,,,,,,,,
5a3012083eff6600016f259c,TCR,2024-06-10_14h57.54.798,LearnStrategy,2023.2.3,Win32,12.01923077,2,1,4,0.073148148,0.007407407,1,0,0,0.9306,rock_grid_rect_2,4,08,-1,-1,0.931,0.424074074,-0.251851852,1,0,0,5.912,Gabbro_rect,4,5.912,1,3,0,3,0,1,,,,,,,,,,,,
5a3012083eff6600016f259c,TCR,2024-06-10_14h57.54.798,LearnStrategy,2023.2.3,Win32,12.01923077,2,1,5,-0.012037037,0.001851852,1,0,0,0.9422,rock_grid_rect_2,4,08,-1,-1,0.942,0.415740741,-0.25462963,1,0,0,4.0436,Gabbro_rect,4,4.044,1,4,0,4,0,1,,,,,,,,,,,,
5a3012083eff6600016f259c,TCR,2024-06-10_14h57.54.798,LearnStrategy,2023.2.3,Win32,12.01923077,2,1,6,0.027777778,0.016666667,1,0,0,3.2137,rock_grid_rect_2,4,09,-1,-1,3.214,-0.146296296,-0.251851852,1,0,0,5.2716,Basalt_rect,2,5.272,0,5,0,5,0,1,,,,,,,,,,,,
5a3012083eff6600016f259c,TCR,2024-06-10_14h57.54.798,LearnStrategy,2023.2.3,Win32,12.01923077,2,1,7,0.047222222,-0.014814815,1,0,0,1.0683,rock_grid_rect_2,1,14,-1,-1,1.068,-0.138888889,-0.405555556,1,0,0,4.1609,Pegmatite_rect,6,4.161,0,6,0,6,0,1,,,,,,,,,,,,
5a3012083eff6600016f259c,TCR,2024-06-10_14h57.54.798,LearnStrategy,2023.2.3,Win32,12.01923077,2,1,8,0.043518519,-0.000925926,1,0,0,0.9356,rock_grid_rect_2,7,15,-1,-1,0.936,0.114814815,-0.4,1,0,0,2.8916,Peridotite_rect,7,2.892,1,7,0,7,0,1,,,,,,,,,,,,
5a3012083eff6600016f259c,TCR,2024-06-10_14h57.54.798,LearnStrategy,2023.2.3,Win32,12.01923077,2,1,9,0.061111111,0.009259259,1,0,0,0.9462,rock_grid_rect_2,4,16,-1,-1,0.946,-0.128703704,-0.257407407,1,0,0,5.8238,Basalt_rect,2,5.824,0,8,0,8,0,1,,,,,,,,,,,,
5a3012083eff6600016f259c,TCR,2024-06-10_14h57.54.798,LearnStrategy,2023.2.3,Win32,12.01923077,2,1,10,0.077777778,-0.02037037,1,0,0,1.7203,rock_grid_rect_2,3,14,-1,-1,1.72,-0.360185185,-0.259259259,1,0,0,5.7001,Andesite_rect,1,5.7,0,9,0,9,0,1,,,,,,,,,,,,
5a3012083eff6600016f259c,TCR,2024-06-10_14h57.54.798,LearnStrategy,2023.2.3,Win32,12.01923077,2,1,11,-0.00462963,-0.005555556,1,0,0,0.9127,rock_grid_rect_2,7,13,-1,-1,0.913,0.130555556,-0.406481481,1,0,0,2.0372,Peridotite_rect,7,2.037,1,10,0,10,0,1,,,,,,,,,,,,
5a3012083eff6600016f259c,TCR,2024-06-10_14h57.54.798,LearnStrategy,2023.2.3,Win32,12.01923077,2,1,12,0.089814815,-0.005555556,1,0,0,0.6761,rock_grid_rect_2,3,06,-1,-1,0.676,0.136111111,-0.248148148,1,0,0,3.5827,Diorite_rect,3,3.583,1,11,0,11,0,1,,,,,,,,,,,,
5a3012083eff6600016f259c,TCR,2024-06-10_14h57.54.798,LearnStrategy,2023.2.3,Win32,12.01923077,2,1,13,0.040740741,0.012962963,1,0,0,0.8032,rock_grid_rect_2,4,14,-1,-1,0.803,0.410185185,-0.246296296,1,0,0,7.3412,Gabbro_rect,4,7.341,1,12,0,12,0,1,,,,,,,,,,,,
5a3012083eff6600016f259c,TCR,2024-06-10_14h57.54.798,LearnStrategy,2023.2.3,Win32,12.01923077,2,1,14,-0.02037037,-0.00462963,1,0,0,1.0629,rock_grid_rect_2,7,05,-1,-1,1.063,0.098148148,-0.400925926,1,0,0,2.1507,Peridotite_rect,7,2.151,1,13,0,13,0,1,,,,,,,,,,,,
5a3012083eff6600016f259c,TCR,2024-06-10_14h57.54.798,LearnStrategy,2023.2.3,Win32,12.01923077,2,1,15,0.039814815,-0.002777778,1,0,0,1.7089,rock_grid_rect_2,1,02,-1,-1,1.709,-0.384259259,-0.237037037,1,0,0,2.0088,Andesite_rect,1,2.009,1,14,0,14,0,1,,,,,,,,,,,,
5a3012083eff6600016f259c,TCR,2024-06-10_14h57.54.798,LearnStrategy,2023.2.3,Win32,12.01923077,2,1,16,0.012037037,-0.022222222,1,0,0,0.796,rock_grid_rect_2,5,12,-1,-1,0.796,-0.383333333,-0.414814815,1,0,0,1.6341,Obsidian_rect,5,1.634,1,15,0,15,0,1,,,,,,,,,,,,
5a3012083eff6600016f259c,TCR,2024-06-10_14h57.54.798,LearnStrategy,2023.2.3,Win32,12.01923077,2,2,1,,,,,,,,5,08,,,,,,,,,,,5,3.69,1,,,,,,-0.358333333,-0.394444444,1,0,0,3.6896,Obsidian_rect,0,0,0,0,1
5a3012083eff6600016f259c,TCR,2024-06-10_14h57.54.798,LearnStrategy,2023.2.3,Win32,12.01923077,2,2,2,,,,,,,,1,06,,,,,,,,,,,4,8.859,0,,,,,,0.350925926,-0.24537037,1,0,0,8.8587,Gabbro_rect,1,0,1,0,1
5a3012083eff6600016f259c,TCR,2024-06-10_14h57.54.798,LearnStrategy,2023.2.3,Win32,12.01923077,2,2,3,,,,,,,,5,06,,,,,,,,,,,5,1.516,1,,,,,,-0.403703704,-0.398148148,1,0,0,1.5162,Obsidian_rect,2,0,2,0,1
5a3012083eff6600016f259c,TCR,2024-06-10_14h57.54.798,LearnStrategy,2023.2.3,Win32,12.01923077,2,2,4,,,,,,,,7,08,,,,,,,,,,,7,1.393,1,,,,,,0.137037037,-0.414814815,1,0,0,1.3929,Peridotite_rect,3,0,3,0,1
5a3012083eff6600016f259c,TCR,2024-06-10_14h57.54.798,LearnStrategy,2023.2.3,Win32,12.01923077,2,2,5,,,,,,,,3,10,,,,,,,,,,,3,2.574,1,,,,,,0.110185185,-0.258333333,1,0,0,2.5738,Diorite_rect,4,0,4,0,1
5a3012083eff6600016f259c,TCR,2024-06-10_14h57.54.798,LearnStrategy,2023.2.3,Win32,12.01923077,2,2,6,,,,,,,,8,06,,,,,,,,,,,8,1.525,1,,,,,,0.403703704,-0.398148148,1,0,0,1.5247,Pumice_rect,5,0,5,0,1
5a3012083eff6600016f259c,TCR,2024-06-10_14h57.54.798,LearnStrategy,2023.2.3,Win32,12.01923077,2,2,7,,,,,,,,7,14,,,,,,,,,,,6,6.398,0,,,,,,-0.151851852,-0.406481481,1,0,0,6.3982,Pegmatite_rect,6,0,6,0,1
5a3012083eff6600016f259c,TCR,2024-06-10_14h57.54.798,LearnStrategy,2023.2.3,Win32,12.01923077,2,2,8,,,,,,,,2,16,,,,,,,,,,,4,3.716,0,,,,,,0.417592593,-0.252777778,1,0,0,3.716,Gabbro_rect,7,0,7,0,1
5a3012083eff6600016f259c,TCR,2024-06-10_14h57.54.798,LearnStrategy,2023.2.3,Win32,12.01923077,2,2,9,,,,,,,,8,14,,,,,,,,,,,8,1.972,1,,,,,,0.406481481,-0.396296296,1,0,0,1.972,Pumice_rect,8,0,8,0,1
5a3012083eff6600016f259c,TCR,2024-06-10_14h57.54.798,LearnStrategy,2023.2.3,Win32,12.01923077,2,2,10,,,,,,,,6,15,,,,,,,,,,,6,3.154,1,,,,,,-0.125925926,-0.399074074,1,0,0,3.1543,Pegmatite_rect,9,0,9,0,1
5a3012083eff6600016f259c,TCR,2024-06-10_14h57.54.798,LearnStrategy,2023.2.3,Win32,12.01923077,2,2,11,,,,,,,,4,05,,,,,,,,,,,4,2.289,1,,,,,,0.400925926,-0.250925926,1,0,0,2.2895,Gabbro_rect,10,0,10,0,1
5a3012083eff6600016f259c,TCR,2024-06-10_14h57.54.798,LearnStrategy,2023.2.3,Win32,12.01923077,2,2,12,,,,,,,,4,03,,,,,,,,,,,3,3.128,0,,,,,,0.127777778,-0.251851852,1,0,0,3.1282,Diorite_rect,11,0,11,0,1
5a3012083eff6600016f259c,TCR,2024-06-10_14h57.54.798,LearnStrategy,2023.2.3,Win32,12.01923077,2,2,13,,,,,,,,1,11,,,,,,,,,,,1,3.669,1,,,,,,-0.391666667,-0.25462963,1,0,0,3.6691,Andesite_rect,12,0,12,0,1
5a3012083eff6600016f259c,TCR,2024-06-10_14h57.54.798,LearnStrategy,2023.2.3,Win32,12.01923077,2,2,14,,,,,,,,3,15,,,,,,,,,,,3,1.994,1,,,,,,0.155555556,-0.250925926,1,0,0,1.9942,Diorite_rect,13,0,13,0,1
5a3012083eff6600016f259c,TCR,2024-06-10_14h57.54.798,LearnStrategy,2023.2.3,Win32,12.01923077,2,2,15,,,,,,,,2,12,,,,,,,,,,,2,4.383,1,,,,,,-0.131481481,-0.255555556,1,0,0,4.3832,Basalt_rect,14,0,14,0,1
5a3012083eff6600016f259c,TCR,2024-06-10_14h57.54.798,LearnStrategy,2023.2.3,Win32,12.01923077,2,2,16,,,,,,,,6,13,,,,,,,,,,,6,6.696,1,,,,,,-0.148148148,-0.409259259,1,0,0,6.6961,Pegmatite_rect,15,0,15,0,1
5a3012083eff6600016f259c,TCR,2024-06-10_14h57.54.798,LearnStrategy,2023.2.3,Win32,12.01923077,3,1,1,-0.039814815,-0.009259259,1,0,0,0.9168,rock_grid_rect_2,4,08,-1,-1,0.917,0.393518519,-0.246296296,1,0,0,2.3578,Gabbro_rect,4,2.358,1,0,0,0,0,1,,,,,,,,,,,,
5a3012083eff6600016f259c,TCR,2024-06-10_14h57.54.798,LearnStrategy,2023.2.3,Win32,12.01923077,3,1,2,-0.046296296,-0.014814815,1,0,0,2.2494,rock_grid_rect_2,2,11,-1,-1,2.249,-0.151851852,-0.253703704,1,0,0,3.1903,Basalt_rect,2,3.19,1,1,0,1,0,1,,,,,,,,,,,,
5a3012083eff6600016f259c,TCR,2024-06-10_14h57.54.798,LearnStrategy,2023.2.3,Win32,12.01923077,3,1,3,0.034259259,0.006481481,1,0,0,0.9395,rock_grid_rect_2,8,03,-1,-1,0.939,0.396296296,-0.407407407,1,0,0,2.3206,Pumice_rect,8,2.321,1,2,0,2,0,1,,,,,,,,,,,,
5a3012083eff6600016f259c,TCR,2024-06-10_14h57.54.798,LearnStrategy,2023.2.3,Win32,12.01923077,3,1,4,0,-0.006481481,1,0,0,0.8038,rock_grid_rect_2,5,02,-1,-1,0.804,-0.382407407,-0.401851852,1,0,0,2.0334,Obsidian_rect,5,2.033,1,3,0,3,0,1,,,,,,,,,,,,
5a3012083eff6600016f259c,TCR,2024-06-10_14h57.54.798,LearnStrategy,2023.2.3,Win32,12.01923077,3,1,5,0.106481481,0.003703704,1,0,0,0.9515,rock_grid_rect_2,7,07,-1,-1,0.952,0.078703704,-0.415740741,1,0,0,1.4459,Peridotite_rect,7,1.446,1,4,0,4,0,1,,,,,,,,,,,,
5a3012083eff6600016f259c,TCR,2024-06-10_14h57.54.798,LearnStrategy,2023.2.3,Win32,12.01923077,3,1,6,-0.007407407,-0.003703704,1,0,0,2.1568,rock_grid_rect_2,3,06,-1,-1,2.157,0.168518519,-0.247222222,1,0,0,3.7059,Diorite_rect,3,3.706,1,5,0,5,0,1,,,,,,,,,,,,
5a3012083eff6600016f259c,TCR,2024-06-10_14h57.54.798,LearnStrategy,2023.2.3,Win32,12.01923077,3,1,7,0.038888889,0.010185185,1,0,0,1.0639,rock_grid_rect_2,4,08,-1,-1,1.064,0.417592593,-0.246296296,1,0,0,2.959,Gabbro_rect,4,2.959,1,6,0,6,0,1,,,,,,,,,,,,
5a3012083eff6600016f259c,TCR,2024-06-10_14h57.54.798,LearnStrategy,2023.2.3,Win32,12.01923077,3,1,8,-0.009259259,0.000925926,1,0,0,3.9966,rock_grid_rect_2,2,11,-1,-1,3.997,-0.12962963,-0.265740741,1,0,0,4.1976,Basalt_rect,2,4.198,1,7,0,7,0,1,,,,,,,,,,,,
5a3012083eff6600016f259c,TCR,2024-06-10_14h57.54.798,LearnStrategy,2023.2.3,Win32,12.01923077,3,1,9,0.048148148,-0.006481481,1,0,0,3.142,rock_grid_rect_2,7,10,-1,-1,3.142,0.118518519,-0.417592593,1,0,0,1.5175,Peridotite_rect,7,1.518,1,8,0,8,0,1,,,,,,,,,,,,
5a3012083eff6600016f259c,TCR,2024-06-10_14h57.54.798,LearnStrategy,2023.2.3,Win32,12.01923077,3,1,10,-0.022222222,0.007407407,1,0,0,1.8694,rock_grid_rect_2,4,11,-1,-1,1.869,0.397222222,-0.243518519,1,0,0,7.2179,Gabbro_rect,4,7.218,1,9,0,9,0,1,,,,,,,,,,,,
5a3012083eff6600016f259c,TCR,2024-06-10_14h57.54.798,LearnStrategy,2023.2.3,Win32,12.01923077,3,1,11,0.042592593,-0.012962963,1,0,0,1.9817,rock_grid_rect_2,1,02,-1,-1,1.982,-0.126851852,-0.40462963,1,0,0,5.0158,Pegmatite_rect,6,5.016,0,10,0,10,0,1,,,,,,,,,,,,
5a3012083eff6600016f259c,TCR,2024-06-10_14h57.54.798,LearnStrategy,2023.2.3,Win32,12.01923077,3,1,12,0.031481481,-0.002777778,1,0,0,0.9304,rock_grid_rect_2,3,07,-1,-1,0.93,0.139814815,-0.246296296,1,0,0,3.3129,Diorite_rect,3,3.313,1,11,0,11,0,1,,,,,,,,,,,,
5a3012083eff6600016f259c,TCR,2024-06-10_14h57.54.798,LearnStrategy,2023.2.3,Win32,12.01923077,3,1,13,0.001851852,-0.021296296,1,0,0,2.1203,rock_grid_rect_2,4,16,-1,-1,2.12,0.421296296,-0.257407407,1,0,0,5.0253,Gabbro_rect,4,5.025,1,12,0,12,0,1,,,,,,,,,,,,
5a3012083eff6600016f259c,TCR,2024-06-10_14h57.54.798,LearnStrategy,2023.2.3,Win32,12.01923077,3,1,14,0.12037037,-0.006481481,1,0,0,3.0176,rock_grid_rect_2,6,07,-1,-1,3.018,-0.401851852,-0.239814815,1,0,0,9.0843,Andesite_rect,1,9.084,0,13,0,13,0,1,,,,,,,,,,,,
5a3012083eff6600016f259c,TCR,2024-06-10_14h57.54.798,LearnStrategy,2023.2.3,Win32,12.01923077,3,1,15,0.019444444,-0.007407407,1,0,0,0.9353,rock_grid_rect_2,7,05,-1,-1,0.935,0.142592593,-0.394444444,1,0,0,1.6153,Peridotite_rect,7,1.615,1,14,0,14,0,1,,,,,,,,,,,,
5a3012083eff6600016f259c,TCR,2024-06-10_14h57.54.798,LearnStrategy,2023.2.3,Win32,12.01923077,3,1,16,0.027777778,-0.014814815,1,0,0,0.8698,rock_grid_rect_2,1,04,-1,-1,0.87,-0.419444444,-0.25462963,1,0,0,13.6256,Andesite_rect,1,13.626,1,15,0,15,0,1,,,,,,,,,,,,
5a3012083eff6600016f259c,TCR,2024-06-10_14h57.54.798,LearnStrategy,2023.2.3,Win32,12.01923077,3,2,1,,,,,,,,3,09,,,,,,,,,,,3,1.987,1,,,,,,0.121296296,-0.24537037,1,0,0,1.9868,Diorite_rect,0,0,0,0,1
5a3012083eff6600016f259c,TCR,2024-06-10_14h57.54.798,LearnStrategy,2023.2.3,Win32,12.01923077,3,2,2,,,,,,,,4,15,,,,,,,,,,,4,8.536,1,,,,,,0.401851852,-0.25462963,1,0,0,8.5356,Gabbro_rect,1,0,1,0,1
5a3012083eff6600016f259c,TCR,2024-06-10_14h57.54.798,LearnStrategy,2023.2.3,Win32,12.01923077,3,2,3,,,,,,,,7,06,,,,,,,,,,,7,2.446,1,,,,,,0.141666667,-0.399074074,1,0,0,2.4458,Peridotite_rect,2,0,2,0,1
5a3012083eff6600016f259c,TCR,2024-06-10_14h57.54.798,LearnStrategy,2023.2.3,Win32,12.01923077,3,2,4,,,,,,,,5,11,,,,,,,,,,,5,1.564,1,,,,,,-0.389814815,-0.394444444,1,0,0,1.5643,Obsidian_rect,3,0,3,0,1
5a3012083eff6600016f259c,TCR,2024-06-10_14h57.54.798,LearnStrategy,2023.2.3,Win32,12.01923077,3,2,5,,,,,,,,4,13,,,,,,,,,,,4,5.09,1,,,,,,0.397222222,-0.249074074,1,0,0,5.09,Gabbro_rect,4,0,4,0,1
5a3012083eff6600016f259c,TCR,2024-06-10_14h57.54.798,LearnStrategy,2023.2.3,Win32,12.01923077,3,2,6,,,,,,,,1,01,,,,,,,,,,,1,6.288,1,,,,,,-0.421296296,-0.264814815,1,0,0,6.2883,Andesite_rect,5,0,5,0,1
5a3012083eff6600016f259c,TCR,2024-06-10_14h57.54.798,LearnStrategy,2023.2.3,Win32,12.01923077,3,2,7,,,,,,,,2,02,,,,,,,,,,,2,1.829,1,,,,,,-0.146296296,-0.249074074,1,0,0,1.8288,Basalt_rect,6,0,6,0,1
5a3012083eff6600016f259c,TCR,2024-06-10_14h57.54.798,LearnStrategy,2023.2.3,Win32,12.01923077,3,2,8,,,,,,,,1,03,,,,,,,,,,,2,8.117,0,,,,,,-0.097222222,-0.250925926,1,0,0,8.1166,Basalt_rect,7,0,7,0,1
5a3012083eff6600016f259c,TCR,2024-06-10_14h57.54.798,LearnStrategy,2023.2.3,Win32,12.01923077,3,2,9,,,,,,,,6,09,,,,,,,,,,,6,6.06,1,,,,,,-0.111111111,-0.40462963,1,0,0,6.0597,Pegmatite_rect,8,0,8,0,1
5a3012083eff6600016f259c,TCR,2024-06-10_14h57.54.798,LearnStrategy,2023.2.3,Win32,12.01923077,3,2,10,,,,,,,,7,04,,,,,,,,,,,1,11.47,0,,,,,,-0.365740741,-0.248148148,1,0,0,11.4703,Andesite_rect,9,0,9,0,1
5a3012083eff6600016f259c,TCR,2024-06-10_14h57.54.798,LearnStrategy,2023.2.3,Win32,12.01923077,3,2,11,,,,,,,,3,13,,,,,,,,,,,3,1.409,1,,,,,,0.131481481,-0.257407407,1,0,0,1.4088,Diorite_rect,10,0,10,0,1
5a3012083eff6600016f259c,TCR,2024-06-10_14h57.54.798,LearnStrategy,2023.2.3,Win32,12.01923077,3,2,12,,,,,,,,8,15,,,,,,,,,,,8,2.053,1,,,,,,0.400925926,-0.403703704,1,0,0,2.0528,Pumice_rect,11,0,11,0,1
5a3012083eff6600016f259c,TCR,2024-06-10_14h57.54.798,LearnStrategy,2023.2.3,Win32,12.01923077,3,2,13,,,,,,,,5,09,,,,,,,,,,,5,2.057,1,,,,,,-0.391666667,-0.408333333,1,0,0,2.057,Obsidian_rect,12,0,12,0,1
5a3012083eff6600016f259c,TCR,2024-06-10_14h57.54.798,LearnStrategy,2023.2.3,Win32,12.01923077,3,2,14,,,,,,,,8,02,,,,,,,,,,,8,2.781,1,,,,,,0.425925926,-0.393518519,1,0,0,2.781,Pumice_rect,13,0,13,0,1
5a3012083eff6600016f259c,TCR,2024-06-10_14h57.54.798,LearnStrategy,2023.2.3,Win32,12.01923077,3,2,15,,,,,,,,6,03,,,,,,,,,,,7,2.329,0,,,,,,0.137037037,-0.399074074,1,0,0,2.3294,Peridotite_rect,14,0,14,0,1
5a3012083eff6600016f259c,TCR,2024-06-10_14h57.54.798,LearnStrategy,2023.2.3,Win32,12.01923077,3,2,16,,,,,,,,2,01,,,,,,,,,,,2,2.607,1,,,,,,-0.139814815,-0.244444444,1,0,0,2.607,Basalt_rect,15,0,15,0,1
5a3012083eff6600016f259c,TCR,2024-06-10_14h57.54.798,LearnStrategy,2023.2.3,Win32,12.01923077,4,1,1,-0.010185185,0,1,0,0,1.309,rock_grid_rect_2,3,08,-1,-1,1.309,0.135185185,-0.248148148,1,0,0,2.882,Diorite_rect,3,2.882,1,0,0,0,0,1,,,,,,,,,,,,
5a3012083eff6600016f259c,TCR,2024-06-10_14h57.54.798,LearnStrategy,2023.2.3,Win32,12.01923077,4,1,2,-0.013888889,-0.007407407,1,0,0,0.9387,rock_grid_rect_2,7,13,-1,-1,0.939,0.15,-0.394444444,1,0,0,1.6436,Peridotite_rect,7,1.644,1,1,0,1,0,1,,,,,,,,,,,,
5a3012083eff6600016f259c,TCR,2024-06-10_14h57.54.798,LearnStrategy,2023.2.3,Win32,12.01923077,4,1,3,0.046296296,0.017592593,1,0,0,0.8126,rock_grid_rect_2,3,08,-1,-1,0.813,0.100925926,-0.249074074,1,0,0,1.3926,Diorite_rect,3,1.393,1,2,0,2,0,1,,,,,,,,,,,,
5a3012083eff6600016f259c,TCR,2024-06-10_14h57.54.798,LearnStrategy,2023.2.3,Win32,12.01923077,4,1,4,0.011111111,-0.013888889,1,0,0,1.7511,rock_grid_rect_2,7,05,-1,-1,1.751,0.133333333,-0.4,1,0,0,2.1837,Peridotite_rect,7,2.184,1,3,0,3,0,1,,,,,,,,,,,,
5a3012083eff6600016f259c,TCR,2024-06-10_14h57.54.798,LearnStrategy,2023.2.3,Win32,12.01923077,4,1,5,0.048148148,-0.025,1,0,0,1.4707,rock_grid_rect_2,2,06,-1,-1,1.471,-0.14537037,-0.250925926,1,0,0,1.492,Basalt_rect,2,1.492,1,4,0,4,0,1,,,,,,,,,,,,
5a3012083eff6600016f259c,TCR,2024-06-10_14h57.54.798,LearnStrategy,2023.2.3,Win32,12.01923077,4,1,6,0.016666667,0,1,0,0,1.3152,rock_grid_rect_2,5,14,-1,-1,1.315,-0.384259259,-0.399074074,1,0,0,1.498,Obsidian_rect,5,1.498,1,5,0,5,0,1,,,,,,,,,,,,
5a3012083eff6600016f259c,TCR,2024-06-10_14h57.54.798,LearnStrategy,2023.2.3,Win32,12.01923077,4,1,7,-0.032407407,-0.001851852,1,0,0,1.8273,rock_grid_rect_2,1,02,-1,-1,1.827,-0.397222222,-0.25462963,1,0,0,2.1645,Andesite_rect,1,2.165,1,6,0,6,0,1,,,,,,,,,,,,
5a3012083eff6600016f259c,TCR,2024-06-10_14h57.54.798,LearnStrategy,2023.2.3,Win32,12.01923077,4,1,8,0.012962963,-0.012037037,1,0,0,0.7897,rock_grid_rect_2,4,11,-1,-1,0.79,0.416666667,-0.242592593,1,0,0,7.3128,Gabbro_rect,4,7.313,1,7,0,7,0,1,,,,,,,,,,,,
5a3012083eff6600016f259c,TCR,2024-06-10_14h57.54.798,LearnStrategy,2023.2.3,Win32,12.01923077,4,1,9,0.081481481,-0.000925926,1,0,0,0.9294,rock_grid_rect_2,6,06,-1,-1,0.929,-0.133333333,-0.40462963,1,0,0,5.157,Pegmatite_rect,6,5.157,1,8,0,8,0,1,,,,,,,,,,,,
5a3012083eff6600016f259c,TCR,2024-06-10_14h57.54.798,LearnStrategy,2023.2.3,Win32,12.01923077,4,1,10,0.062962963,-0.010185185,1,0,0,1.1903,rock_grid_rect_2,4,08,-1,-1,1.19,0.385185185,-0.247222222,1,0,0,1.6751,Gabbro_rect,4,1.675,1,9,0,9,0,1,,,,,,,,,,,,
5a3012083eff6600016f259c,TCR,2024-06-10_14h57.54.798,LearnStrategy,2023.2.3,Win32,12.01923077,4,1,11,0.050925926,-0.003703704,1,0,0,1.0646,rock_grid_rect_2,4,16,-1,-1,1.065,0.412962963,-0.251851852,1,0,0,1.7791,Gabbro_rect,4,1.779,1,10,0,10,0,1,,,,,,,,,,,,
5a3012083eff6600016f259c,TCR,2024-06-10_14h57.54.798,LearnStrategy,2023.2.3,Win32,12.01923077,4,1,12,-0.124074074,-0.00462963,1,0,0,3.0165,rock_grid_rect_2,7,13,-1,-1,3.016,0.117592593,-0.4,1,0,0,1.3641,Peridotite_rect,7,1.364,1,11,0,11,0,1,,,,,,,,,,,,
5a3012083eff6600016f259c,TCR,2024-06-10_14h57.54.798,LearnStrategy,2023.2.3,Win32,12.01923077,4,1,13,-0.041666667,-0.009259259,1,0,0,0.9411,rock_grid_rect_2,2,10,-1,-1,0.941,-0.149074074,-0.244444444,1,0,0,1.5363,Basalt_rect,2,1.536,1,12,0,12,0,1,,,,,,,,,,,,
5a3012083eff6600016f259c,TCR,2024-06-10_14h57.54.798,LearnStrategy,2023.2.3,Win32,12.01923077,4,1,14,-0.009259259,-0.02037037,1,0,0,1.1759,rock_grid_rect_2,1,02,-1,-1,1.176,-0.356481481,-0.248148148,1,0,0,1.892,Andesite_rect,1,1.892,1,13,0,13,0,1,,,,,,,,,,,,
5a3012083eff6600016f259c,TCR,2024-06-10_14h57.54.798,LearnStrategy,2023.2.3,Win32,12.01923077,4,1,15,-0.031481481,-0.016666667,1,0,0,1.6178,rock_grid_rect_2,8,13,-1,-1,1.618,0.372222222,-0.399074074,1,0,0,2.0232,Pumice_rect,8,2.023,1,14,0,14,0,1,,,,,,,,,,,,
5a3012083eff6600016f259c,TCR,2024-06-10_14h57.54.798,LearnStrategy,2023.2.3,Win32,12.01923077,4,1,16,-0.024074074,-0.010185185,1,0,0,1.0831,rock_grid_rect_2,6,10,-1,-1,1.083,-0.107407407,-0.410185185,1,0,0,2.4666,Pegmatite_rect,6,2.467,1,15,0,15,0,1,,,,,,,,,,,,
5a3012083eff6600016f259c,TCR,2024-06-10_14h57.54.798,LearnStrategy,2023.2.3,Win32,12.01923077,4,2,1,,,,,,,,4,10,,,,,,,,,,,4,3.284,1,,,,,,0.394444444,-0.246296296,1,0,0,3.2836,Gabbro_rect,0,0,0,0,1
5a3012083eff6600016f259c,TCR,2024-06-10_14h57.54.798,LearnStrategy,2023.2.3,Win32,12.01923077,4,2,2,,,,,,,,6,03,,,,,,,,,,,7,6.503,0,,,,,,0.124074074,-0.408333333,1,0,0,6.5028,Peridotite_rect,1,0,1,0,1
5a3012083eff6600016f259c,TCR,2024-06-10_14h57.54.798,LearnStrategy,2023.2.3,Win32,12.01923077,4,2,3,,,,,,,,1,01,,,,,,,,,,,1,4.09,1,,,,,,-0.387037037,-0.260185185,1,0,0,4.0898,Andesite_rect,2,0,2,0,1
5a3012083eff6600016f259c,TCR,2024-06-10_14h57.54.798,LearnStrategy,2023.2.3,Win32,12.01923077,4,2,4,,,,,,,,7,14,,,,,,,,,,,1,9.045,0,,,,,,-0.403703704,-0.246296296,1,0,0,9.0451,Andesite_rect,3,0,3,0,1
5a3012083eff6600016f259c,TCR,2024-06-10_14h57.54.798,LearnStrategy,2023.2.3,Win32,12.01923077,4,2,5,,,,,,,,3,02,,,,,,,,,,,3,1.392,1,,,,,,0.132407407,-0.248148148,1,0,0,1.3917,Diorite_rect,4,0,4,0,1
5a3012083eff6600016f259c,TCR,2024-06-10_14h57.54.798,LearnStrategy,2023.2.3,Win32,12.01923077,4,2,6,,,,,,,,2,12,,,,,,,,,,,2,2.68,1,,,,,,-0.106481481,-0.249074074,1,0,0,2.6805,Basalt_rect,5,0,5,0,1
5a3012083eff6600016f259c,TCR,2024-06-10_14h57.54.798,LearnStrategy,2023.2.3,Win32,12.01923077,4,2,7,,,,,,,,2,02,,,,,,,,,,,2,3.677,1,,,,,,-0.142592593,-0.244444444,1,0,0,3.6771,Basalt_rect,6,0,6,0,1
5a3012083eff6600016f259c,TCR,2024-06-10_14h57.54.798,LearnStrategy,2023.2.3,Win32,12.01923077,4,2,8,,,,,,,,4,01,,,,,,,,,,,4,1.735,1,,,,,,0.406481481,-0.247222222,1,0,0,1.7353,Gabbro_rect,7,0,7,0,1
5a3012083eff6600016f259c,TCR,2024-06-10_14h57.54.798,LearnStrategy,2023.2.3,Win32,12.01923077,4,2,9,,,,,,,,8,14,,,,,,,,,,,8,1.673,1,,,,,,0.399074074,-0.406481481,1,0,0,1.6731,Pumice_rect,8,0,8,0,1
5a3012083eff6600016f259c,TCR,2024-06-10_14h57.54.798,LearnStrategy,2023.2.3,Win32,12.01923077,4,2,10,,,,,,,,5,11,,,,,,,,,,,5,1.726,1,,,,,,-0.386111111,-0.392592593,1,0,0,1.7258,Obsidian_rect,9,0,9,0,1
5a3012083eff6600016f259c,TCR,2024-06-10_14h57.54.798,LearnStrategy,2023.2.3,Win32,12.01923077,4,2,11,,,,,,,,1,11,,,,,,,,,,,1,6.579,1,,,,,,-0.380555556,-0.248148148,1,0,0,6.5787,Andesite_rect,10,0,10,0,1
5a3012083eff6600016f259c,TCR,2024-06-10_14h57.54.798,LearnStrategy,2023.2.3,Win32,12.01923077,4,2,12,,,,,,,,8,15,,,,,,,,,,,8,1.513,1,,,,,,0.40462963,-0.400925926,1,0,0,1.5128,Pumice_rect,11,0,11,0,1
5a3012083eff6600016f259c,TCR,2024-06-10_14h57.54.798,LearnStrategy,2023.2.3,Win32,12.01923077,4,2,13,,,,,,,,3,15,,,,,,,,,,,3,2.02,1,,,,,,0.143518519,-0.260185185,1,0,0,2.0202,Diorite_rect,12,0,12,0,1
5a3012083eff6600016f259c,TCR,2024-06-10_14h57.54.798,LearnStrategy,2023.2.3,Win32,12.01923077,4,2,14,,,,,,,,6,13,,,,,,,,,,,6,4.385,1,,,,,,-0.151851852,-0.417592593,1,0,0,4.3848,Pegmatite_rect,13,0,13,0,1
5a3012083eff6600016f259c,TCR,2024-06-10_14h57.54.798,LearnStrategy,2023.2.3,Win32,12.01923077,4,2,15,,,,,,,,5,16,,,,,,,,,,,5,1.509,1,,,,,,-0.388888889,-0.405555556,1,0,0,1.5086,Obsidian_rect,14,0,14,0,1
5a3012083eff6600016f259c,TCR,2024-06-10_14h57.54.798,LearnStrategy,2023.2.3,Win32,12.01923077,4,2,16,,,,,,,,7,06,,,,,,,,,,,7,2.883,1,,,,,,0.114814815,-0.409259259,1,0,0,2.8834,Peridotite_rect,15,0,15,0,1
5a3012083eff6600016f259c,TCR,2024-06-10_14h57.54.798,LearnStrategy,2023.2.3,Win32,12.01923077,5,1,1,-0.036111111,-0.009259259,1,0,0,17.4361,rock_grid_rect_2,1,09,-1,-1,17.436,-0.439814815,-0.248148148,1,0,0,3.8641,Andesite_rect,1,3.864,1,0,0,0,0,1,,,,,,,,,,,,
5a3012083eff6600016f259c,TCR,2024-06-10_14h57.54.798,LearnStrategy,2023.2.3,Win32,12.01923077,5,1,2,0.022222222,0.018518519,1,0,0,1.5744,rock_grid_rect_2,5,07,-1,-1,1.574,-0.378703704,-0.392592593,1,0,0,1.2807,Obsidian_rect,5,1.281,1,1,0,1,0,1,,,,,,,,,,,,
5a3012083eff6600016f259c,TCR,2024-06-10_14h57.54.798,LearnStrategy,2023.2.3,Win32,12.01923077,5,1,3,0.035185185,-0.000925926,1,0,0,0.8089,rock_grid_rect_2,6,07,-1,-1,0.809,-0.14537037,-0.403703704,1,0,0,1.7774,Pegmatite_rect,6,1.777,1,2,0,2,0,1,,,,,,,,,,,,
5a3012083eff6600016f259c,TCR,2024-06-10_14h57.54.798,LearnStrategy,2023.2.3,Win32,12.01923077,5,1,4,0.126851852,-0.011111111,1,0,0,1.068,rock_grid_rect_2,3,07,-1,-1,1.068,0.064814815,-0.25,1,0,0,2.0014,Diorite_rect,3,2.001,1,3,0,3,0,1,,,,,,,,,,,,
5a3012083eff6600016f259c,TCR,2024-06-10_14h57.54.798,LearnStrategy,2023.2.3,Win32,12.01923077,5,1,5,0.031481481,-0.003703704,1,0,0,1.1902,rock_grid_rect_2,8,04,-1,-1,1.19,0.351851852,-0.407407407,1,0,0,1.2325,Pumice_rect,8,1.233,1,4,0,4,0,1,,,,,,,,,,,,
5a3012083eff6600016f259c,TCR,2024-06-10_14h57.54.798,LearnStrategy,2023.2.3,Win32,12.01923077,5,1,6,-0.138888889,-0.012962963,1,0,0,2.1286,rock_grid_rect_2,7,07,-1,-1,2.129,0.14537037,-0.384259259,1,0,0,1.4252,Peridotite_rect,7,1.425,1,5,0,5,0,1,,,,,,,,,,,,
5a3012083eff6600016f259c,TCR,2024-06-10_14h57.54.798,LearnStrategy,2023.2.3,Win32,12.01923077,5,1,7,0.012037037,0,1,0,0,2.9196,rock_grid_rect_2,1,04,-1,-1,2.92,-0.415740741,-0.263888889,1,0,0,2.8438,Andesite_rect,1,2.844,1,6,0,6,0,1,,,,,,,,,,,,
5a3012083eff6600016f259c,TCR,2024-06-10_14h57.54.798,LearnStrategy,2023.2.3,Win32,12.01923077,5,1,8,0.051851852,-0.002777778,1,0,0,0.929,rock_grid_rect_2,2,14,-1,-1,0.929,0.397222222,-0.24537037,1,0,0,5.3935,Gabbro_rect,4,5.394,0,7,0,7,0,1,,,,,,,,,,,,
5a3012083eff6600016f259c,TCR,2024-06-10_14h57.54.798,LearnStrategy,2023.2.3,Win32,12.01923077,5,1,9,-0.011111111,-0.02037037,1,0,0,1.9745,rock_grid_rect_2,7,07,-1,-1,1.975,0.110185185,-0.39537037,1,0,0,3.5597,Peridotite_rect,7,3.56,1,8,0,8,0,1,,,,,,,,,,,,
5a3012083eff6600016f259c,TCR,2024-06-10_14h57.54.798,LearnStrategy,2023.2.3,Win32,12.01923077,5,1,10,-0.013888889,-0.010185185,1,0,0,1.0703,rock_grid_rect_2,1,07,-1,-1,1.07,-0.385185185,-0.253703704,1,0,0,3.4744,Andesite_rect,1,3.474,1,9,0,9,0,1,,,,,,,,,,,,
5a3012083eff6600016f259c,TCR,2024-06-10_14h57.54.798,LearnStrategy,2023.2.3,Win32,12.01923077,5,1,11,0.04537037,-0.019444444,1,0,0,1.1765,rock_grid_rect_2,7,05,-1,-1,1.177,0.148148148,-0.402777778,1,0,0,3.4349,Peridotite_rect,7,3.435,1,10,0,10,0,1,,,,,,,,,,,,
5a3012083eff6600016f259c,TCR,2024-06-10_14h57.54.798,LearnStrategy,2023.2.3,Win32,12.01923077,5,1,12,0.005555556,0.002777778,1,0,0,2.2296,rock_grid_rect_2,4,08,-1,-1,2.23,0.428703704,-0.243518519,1,0,0,2.5325,Gabbro_rect,4,2.533,1,11,0,11,0,1,,,,,,,,,,,,
5a3012083eff6600016f259c,TCR,2024-06-10_14h57.54.798,LearnStrategy,2023.2.3,Win32,12.01923077,5,1,13,-0.037037037,0.007407407,1,0,0,2.1452,rock_grid_rect_2,4,14,-1,-1,2.145,0.367592593,-0.250925926,1,0,0,2.5755,Gabbro_rect,4,2.576,1,12,0,12,0,1,,,,,,,,,,,,
5a3012083eff6600016f259c,TCR,2024-06-10_14h57.54.798,LearnStrategy,2023.2.3,Win32,12.01923077,5,1,14,0.030555556,0,1,0,0,1.0389,rock_grid_rect_2,6,08,-1,-1,1.039,-0.149074074,-0.409259259,1,0,0,1.6218,Pegmatite_rect,6,1.622,1,13,0,13,0,1,,,,,,,,,,,,
5a3012083eff6600016f259c,TCR,2024-06-10_14h57.54.798,LearnStrategy,2023.2.3,Win32,12.01923077,5,1,15,-0.021296296,0.012037037,1,0,0,3.147,rock_grid_rect_2,6,12,-1,-1,3.147,0.102777778,-0.244444444,1,0,0,4.2619,Diorite_rect,3,4.262,0,14,0,14,0,1,,,,,,,,,,,,
5a3012083eff6600016f259c,TCR,2024-06-10_14h57.54.798,LearnStrategy,2023.2.3,Win32,12.01923077,5,1,16,0.016666667,-0.014814815,1,0,0,2.1999,rock_grid_rect_2,7,10,-1,-1,2.2,0.137962963,-0.417592593,1,0,0,1.6629,Peridotite_rect,7,1.663,1,15,0,15,0,1,,,,,,,,,,,,
5a3012083eff6600016f259c,TCR,2024-06-10_14h57.54.798,LearnStrategy,2023.2.3,Win32,12.01923077,5,2,1,,,,,,,,1,03,,,,,,,,,,,1,2.834,1,,,,,,-0.372222222,-0.253703704,1,0,0,2.8338,Andesite_rect,0,0,0,0,1
5a3012083eff6600016f259c,TCR,2024-06-10_14h57.54.798,LearnStrategy,2023.2.3,Win32,12.01923077,5,2,2,,,,,,,,6,11,,,,,,,,,,,6,2.078,1,,,,,,-0.136111111,-0.39537037,1,0,0,2.0781,Pegmatite_rect,1,0,1,0,1
5a3012083eff6600016f259c,TCR,2024-06-10_14h57.54.798,LearnStrategy,2023.2.3,Win32,12.01923077,5,2,3,,,,,,,,8,08,,,,,,,,,,,8,1.697,1,,,,,,0.375,-0.393518519,1,0,0,1.6971,Pumice_rect,2,0,2,0,1
5a3012083eff6600016f259c,TCR,2024-06-10_14h57.54.798,LearnStrategy,2023.2.3,Win32,12.01923077,5,2,4,,,,,,,,7,16,,,,,,,,,,,7,5.384,1,,,,,,0.139814815,-0.387037037,1,0,0,5.3843,Peridotite_rect,3,0,3,0,1
5a3012083eff6600016f259c,TCR,2024-06-10_14h57.54.798,LearnStrategy,2023.2.3,Win32,12.01923077,5,2,5,,,,,,,,3,10,,,,,,,,,,,3,3.542,1,,,,,,0.109259259,-0.257407407,1,0,0,3.5424,Diorite_rect,4,0,4,0,1
5a3012083eff6600016f259c,TCR,2024-06-10_14h57.54.798,LearnStrategy,2023.2.3,Win32,12.01923077,5,2,6,,,,,,,,1,10,,,,,,,,,,,1,7.705,1,,,,,,-0.362962963,-0.264814815,1,0,0,7.7052,Andesite_rect,5,0,5,0,1
5a3012083eff6600016f259c,TCR,2024-06-10_14h57.54.798,LearnStrategy,2023.2.3,Win32,12.01923077,5,2,7,,,,,,,,8,09,,,,,,,,,,,8,42.062,1,,,,,,0.432407407,-0.392592593,1,0,0,42.0617,Pumice_rect,6,0,6,0,1
5a3012083eff6600016f259c,TCR,2024-06-10_14h57.54.798,LearnStrategy,2023.2.3,Win32,12.01923077,5,2,8,,,,,,,,3,09,,,,,,,,,,,3,1.867,1,,,,,,0.125,-0.262037037,1,0,0,1.867,Diorite_rect,7,0,7,0,1
5a3012083eff6600016f259c,TCR,2024-06-10_14h57.54.798,LearnStrategy,2023.2.3,Win32,12.01923077,5,2,9,,,,,,,,7,12,,,,,,,,,,,3,2.648,0,,,,,,0.118518519,-0.250925926,1,0,0,2.6479,Diorite_rect,8,0,8,0,1
5a3012083eff6600016f259c,TCR,2024-06-10_14h57.54.798,LearnStrategy,2023.2.3,Win32,12.01923077,5,2,10,,,,,,,,4,13,,,,,,,,,,,1,3.284,0,,,,,,-0.385185185,-0.256481481,1,0,0,3.2841,Andesite_rect,9,0,9,0,1
5a3012083eff6600016f259c,TCR,2024-06-10_14h57.54.798,LearnStrategy,2023.2.3,Win32,12.01923077,5,2,11,,,,,,,,2,04,,,,,,,,,,,2,1.366,1,,,,,,-0.144444444,-0.248148148,1,0,0,1.3663,Basalt_rect,10,0,10,0,1
5a3012083eff6600016f259c,TCR,2024-06-10_14h57.54.798,LearnStrategy,2023.2.3,Win32,12.01923077,5,2,12,,,,,,,,6,09,,,,,,,,,,,6,1.838,1,,,,,,-0.155555556,-0.40462963,1,0,0,1.8376,Pegmatite_rect,11,0,11,0,1
5a3012083eff6600016f259c,TCR,2024-06-10_14h57.54.798,LearnStrategy,2023.2.3,Win32,12.01923077,5,2,13,,,,,,,,4,15,,,,,,,,,,,1,1.542,0,,,,,,-0.409259259,-0.256481481,1,0,0,1.5416,Andesite_rect,12,0,12,0,1
5a3012083eff6600016f259c,TCR,2024-06-10_14h57.54.798,LearnStrategy,2023.2.3,Win32,12.01923077,5,2,14,,,,,,,,5,09,,,,,,,,,,,5,2.294,1,,,,,,-0.355555556,-0.394444444,1,0,0,2.2943,Obsidian_rect,13,0,13,0,1
5a3012083eff6600016f259c,TCR,2024-06-10_14h57.54.798,LearnStrategy,2023.2.3,Win32,12.01923077,5,2,15,,,,,,,,2,08,,,,,,,,,,,2,3.606,1,,,,,,-0.137962963,-0.25,1,0,0,3.6056,Basalt_rect,14,0,14,0,1
5a3012083eff6600016f259c,TCR,2024-06-10_14h57.54.798,LearnStrategy,2023.2.3,Win32,12.01923077,5,2,16,,,,,,,,5,10,,,,,,,,,,,5,2.214,1,,,,,,-0.399074074,-0.402777778,1,0,0,2.2136,Obsidian_rect,15,0,15,0,1
5a3012083eff6600016f259c,TCR,2024-06-10_14h57.54.798,LearnStrategy,2023.2.3,Win32,12.01923077,6,1,1,0.026851852,-0.006481481,1,0,0,0.9231,rock_grid_rect_2,1,02,-1,-1,0.923,-0.34537037,-0.246296296,1,0,0,3.4293,Andesite_rect,1,3.429,1,0,0,0,0,1,,,,,,,,,,,,
5a3012083eff6600016f259c,TCR,2024-06-10_14h57.54.798,LearnStrategy,2023.2.3,Win32,12.01923077,6,1,2,0.067592593,0.007407407,1,0,0,0.9351,rock_grid_rect_2,4,11,-1,-1,0.935,0.408333333,-0.256481481,1,0,0,1.3163,Gabbro_rect,4,1.316,1,1,0,1,0,1,,,,,,,,,,,,
5a3012083eff6600016f259c,TCR,2024-06-10_14h57.54.798,LearnStrategy,2023.2.3,Win32,12.01923077,6,1,3,0,-0.003703704,1,0,0,0.927,rock_grid_rect_2,7,02,-1,-1,0.927,0.150925926,-0.413888889,1,0,0,3.053,Peridotite_rect,7,3.053,1,2,0,2,0,1,,,,,,,,,,,,
5a3012083eff6600016f259c,TCR,2024-06-10_14h57.54.798,LearnStrategy,2023.2.3,Win32,12.01923077,6,1,4,0.003703704,-0.008333333,1,0,0,10.7369,rock_grid_rect_2,8,16,-1,-1,10.737,0.403703704,-0.412962963,1,0,0,1.8487,Pumice_rect,8,1.849,1,3,0,3,0,1,,,,,,,,,,,,
5a3012083eff6600016f259c,TCR,2024-06-10_14h57.54.798,LearnStrategy,2023.2.3,Win32,12.01923077,6,1,5,0.028703704,-0.005555556,1,0,0,0.9397,rock_grid_rect_2,4,16,-1,-1,0.94,0.424074074,-0.256481481,1,0,0,2.2271,Gabbro_rect,4,2.227,1,4,0,4,0,1,,,,,,,,,,,,
5a3012083eff6600016f259c,TCR,2024-06-10_14h57.54.798,LearnStrategy,2023.2.3,Win32,12.01923077,6,1,6,-0.008333333,0.006481481,1,0,0,0.9137,rock_grid_rect_2,7,07,-1,-1,0.914,0.112962963,-0.402777778,1,0,0,1.862,Peridotite_rect,7,1.862,1,5,0,5,0,1,,,,,,,,,,,,
5a3012083eff6600016f259c,TCR,2024-06-10_14h57.54.798,LearnStrategy,2023.2.3,Win32,12.01923077,6,1,7,0.032407407,-0.00462963,1,0,0,0.8259,rock_grid_rect_2,7,13,-1,-1,0.826,0.114814815,-0.403703704,1,0,0,1.3517,Peridotite_rect,7,1.352,1,6,0,6,0,1,,,,,,,,,,,,
5a3012083eff6600016f259c,TCR,2024-06-10_14h57.54.798,LearnStrategy,2023.2.3,Win32,12.01923077,6,1,8,0.021296296,-0.006481481,1,0,0,1.0613,rock_grid_rect_2,3,06,-1,-1,1.061,0.099074074,-0.253703704,1,0,0,1.5376,Diorite_rect,3,1.538,1,7,0,7,0,1,,,,,,,,,,,,
5a3012083eff6600016f259c,TCR,2024-06-10_14h57.54.798,LearnStrategy,2023.2.3,Win32,12.01923077,6,1,9,0.016666667,-0.009259259,1,0,0,2.7374,rock_grid_rect_2,2,14,-1,-1,2.737,-0.112962963,-0.25462963,1,0,0,2.6529,Basalt_rect,2,2.653,1,8,0,8,0,1,,,,,,,,,,,,
5a3012083eff6600016f259c,TCR,2024-06-10_14h57.54.798,LearnStrategy,2023.2.3,Win32,12.01923077,6,1,10,0.010185185,-0.007407407,1,0,0,1.1808,rock_grid_rect_2,5,05,-1,-1,1.181,-0.396296296,-0.406481481,1,0,0,3.0379,Obsidian_rect,5,3.038,1,9,0,9,0,1,,,,,,,,,,,,
5a3012083eff6600016f259c,TCR,2024-06-10_14h57.54.798,LearnStrategy,2023.2.3,Win32,12.01923077,6,1,11,0.094444444,-0.010185185,1,0,0,0.9275,rock_grid_rect_2,6,07,-1,-1,0.928,-0.169444444,-0.40462963,1,0,0,2.7394,Pegmatite_rect,6,2.739,1,10,0,10,0,1,,,,,,,,,,,,
5a3012083eff6600016f259c,TCR,2024-06-10_14h57.54.798,LearnStrategy,2023.2.3,Win32,12.01923077,6,1,12,0.042592593,0.010185185,1,0,0,0.8028,rock_grid_rect_2,4,11,-1,-1,0.803,0.35462963,-0.236111111,1,0,0,3.4243,Gabbro_rect,4,3.424,1,11,0,11,0,1,,,,,,,,,,,,
5a3012083eff6600016f259c,TCR,2024-06-10_14h57.54.798,LearnStrategy,2023.2.3,Win32,12.01923077,6,1,13,0.019444444,-0.007407407,1,0,0,1.9283,rock_grid_rect_2,6,07,-1,-1,1.928,-0.153703704,-0.413888889,1,0,0,1.5169,Pegmatite_rect,6,1.517,1,12,0,12,0,1,,,,,,,,,,,,
5a3012083eff6600016f259c,TCR,2024-06-10_14h57.54.798,LearnStrategy,2023.2.3,Win32,12.01923077,6,1,14,0.025,-0.011111111,1,0,0,0.9153,rock_grid_rect_2,4,08,-1,-1,0.915,0.369444444,-0.256481481,1,0,0,1.5675,Gabbro_rect,4,1.568,1,13,0,13,0,1,,,,,,,,,,,,
5a3012083eff6600016f259c,TCR,2024-06-10_14h57.54.798,LearnStrategy,2023.2.3,Win32,12.01923077,6,1,15,-0.028703704,-0.010185185,1,0,0,0.9186,rock_grid_rect_2,1,07,-1,-1,0.919,-0.414814815,-0.24537037,1,0,0,2.3877,Andesite_rect,1,2.388,1,14,0,14,0,1,,,,,,,,,,,,
5a3012083eff6600016f259c,TCR,2024-06-10_14h57.54.798,LearnStrategy,2023.2.3,Win32,12.01923077,6,1,16,-0.008333333,-0.008333333,1,0,0,0.9072,rock_grid_rect_2,7,10,-1,-1,0.907,0.127777778,-0.392592593,1,0,0,1.6804,Peridotite_rect,7,1.68,1,15,0,15,0,1,,,,,,,,,,,,
5a3012083eff6600016f259c,TCR,2024-06-10_14h57.54.798,LearnStrategy,2023.2.3,Win32,12.01923077,6,2,1,,,,,,,,4,05,,,,,,,,,,,4,6.786,1,,,,,,0.390740741,-0.255555556,1,0,0,6.7861,Gabbro_rect,0,0,0,0,1
5a3012083eff6600016f259c,TCR,2024-06-10_14h57.54.798,LearnStrategy,2023.2.3,Win32,12.01923077,6,2,2,,,,,,,,7,08,,,,,,,,,,,7,2.387,1,,,,,,0.118518519,-0.397222222,1,0,0,2.3873,Peridotite_rect,1,0,1,0,1
5a3012083eff6600016f259c,TCR,2024-06-10_14h57.54.798,LearnStrategy,2023.2.3,Win32,12.01923077,6,2,3,,,,,,,,5,08,,,,,,,,,,,5,1.582,1,,,,,,-0.4,-0.406481481,1,0,0,1.5815,Obsidian_rect,2,0,2,0,1
5a3012083eff6600016f259c,TCR,2024-06-10_14h57.54.798,LearnStrategy,2023.2.3,Win32,12.01923077,6,2,4,,,,,,,,8,06,,,,,,,,,,,8,1.528,1,,,,,,0.391666667,-0.409259259,1,0,0,1.5276,Pumice_rect,3,0,3,0,1
5a3012083eff6600016f259c,TCR,2024-06-10_14h57.54.798,LearnStrategy,2023.2.3,Win32,12.01923077,6,2,5,,,,,,,,2,16,,,,,,,,,,,4,3.881,0,,,,,,0.390740741,-0.24537037,1,0,0,3.8808,Gabbro_rect,4,0,4,0,1
5a3012083eff6600016f259c,TCR,2024-06-10_14h57.54.798,LearnStrategy,2023.2.3,Win32,12.01923077,6,2,6,,,,,,,,4,03,,,,,,,,,,,1,2.848,0,,,,,,-0.387962963,-0.256481481,1,0,0,2.8475,Andesite_rect,5,0,5,0,1
5a3012083eff6600016f259c,TCR,2024-06-10_14h57.54.798,LearnStrategy,2023.2.3,Win32,12.01923077,6,2,7,,,,,,,,8,02,,,,,,,,,,,8,1.809,1,,,,,,0.412962963,-0.416666667,1,0,0,1.8088,Pumice_rect,6,0,6,0,1
5a3012083eff6600016f259c,TCR,2024-06-10_14h57.54.798,LearnStrategy,2023.2.3,Win32,12.01923077,6,2,8,,,,,,,,3,13,,,,,,,,,,,3,3.914,1,,,,,,0.135185185,-0.247222222,1,0,0,3.9141,Diorite_rect,7,0,7,0,1
5a3012083eff6600016f259c,TCR,2024-06-10_14h57.54.798,LearnStrategy,2023.2.3,Win32,12.01923077,6,2,9,,,,,,,,5,06,,,,,,,,,,,5,1.655,1,,,,,,-0.42037037,-0.401851852,1,0,0,1.6549,Obsidian_rect,8,0,8,0,1
5a3012083eff6600016f259c,TCR,2024-06-10_14h57.54.798,LearnStrategy,2023.2.3,Win32,12.01923077,6,2,10,,,,,,,,1,05,,,,,,,,,,,1,1.658,1,,,,,,-0.400925926,-0.25,1,0,0,1.6584,Andesite_rect,9,0,9,0,1
5a3012083eff6600016f259c,TCR,2024-06-10_14h57.54.798,LearnStrategy,2023.2.3,Win32,12.01923077,6,2,11,,,,,,,,6,15,,,,,,,,,,,6,1.587,1,,,,,,-0.147222222,-0.391666667,1,0,0,1.5869,Pegmatite_rect,10,0,10,0,1
5a3012083eff6600016f259c,TCR,2024-06-10_14h57.54.798,LearnStrategy,2023.2.3,Win32,12.01923077,6,2,12,,,,,,,,7,04,,,,,,,,,,,1,8.891,0,,,,,,-0.410185185,-0.259259259,1,0,0,8.8911,Andesite_rect,11,0,11,0,1
5a3012083eff6600016f259c,TCR,2024-06-10_14h57.54.798,LearnStrategy,2023.2.3,Win32,12.01923077,6,2,13,,,,,,,,1,06,,,,,,,,,,,1,6.188,1,,,,,,-0.381481481,-0.246296296,1,0,0,6.1884,Andesite_rect,12,0,12,0,1
5a3012083eff6600016f259c,TCR,2024-06-10_14h57.54.798,LearnStrategy,2023.2.3,Win32,12.01923077,6,2,14,,,,,,,,3,12,,,,,,,,,,,3,2.449,1,,,,,,0.137037037,-0.25462963,1,0,0,2.4489,Diorite_rect,13,0,13,0,1
5a3012083eff6600016f259c,TCR,2024-06-10_14h57.54.798,LearnStrategy,2023.2.3,Win32,12.01923077,6,2,15,,,,,,,,6,16,,,,,,,,,,,6,1.541,1,,,,,,-0.157407407,-0.407407407,1,0,0,1.5406,Pegmatite_rect,14,0,14,0,1
5a3012083eff6600016f259c,TCR,2024-06-10_14h57.54.798,LearnStrategy,2023.2.3,Win32,12.01923077,6,2,16,,,,,,,,2,01,,,,,,,,,,,2,1.386,1,,,,,,-0.151851852,-0.262037037,1,0,0,1.386,Basalt_rect,15,0,15,0,1
5a3012083eff6600016f259c,TCR,2024-06-10_14h57.54.798,LearnStrategy,2023.2.3,Win32,12.01923077,7,1,1,0.040740741,0.008333333,1,0,0,1.7616,rock_grid_rect_2,3,06,-1,-1,1.762,0.160185185,-0.259259259,1,0,0,2.2193,Diorite_rect,3,2.219,1,0,0,0,0,1,,,,,,,,,,,,
5a3012083eff6600016f259c,TCR,2024-06-10_14h57.54.798,LearnStrategy,2023.2.3,Win32,12.01923077,7,1,2,0.000925926,-0.003703704,1,0,0,0.9175,rock_grid_rect_2,7,10,-1,-1,0.918,0.147222222,-0.40462963,1,0,0,1.2709,Peridotite_rect,7,1.271,1,1,0,1,0,1,,,,,,,,,,,,
5a3012083eff6600016f259c,TCR,2024-06-10_14h57.54.798,LearnStrategy,2023.2.3,Win32,12.01923077,7,1,3,0.061111111,0.015740741,1,0,0,1.0412,rock_grid_rect_2,7,05,-1,-1,1.041,0.131481481,-0.399074074,1,0,0,1.9281,Peridotite_rect,7,1.928,1,2,0,2,0,1,,,,,,,,,,,,
5a3012083eff6600016f259c,TCR,2024-06-10_14h57.54.798,LearnStrategy,2023.2.3,Win32,12.01923077,7,1,4,0.081481481,-0.005555556,1,0,0,1.6239,rock_grid_rect_2,7,02,-1,-1,1.624,0.118518519,-0.403703704,1,0,0,1.84,Peridotite_rect,7,1.84,1,3,0,3,0,1,,,,,,,,,,,,
5a3012083eff6600016f259c,TCR,2024-06-10_14h57.54.798,LearnStrategy,2023.2.3,Win32,12.01923077,7,1,5,0.011111111,0.001851852,1,0,0,1.0187,rock_grid_rect_2,4,16,-1,-1,1.019,0.413888889,-0.25,1,0,0,1.918,Gabbro_rect,4,1.918,1,4,0,4,0,1,,,,,,,,,,,,
5a3012083eff6600016f259c,TCR,2024-06-10_14h57.54.798,LearnStrategy,2023.2.3,Win32,12.01923077,7,1,6,-0.02037037,0.002777778,1,0,0,0.8967,rock_grid_rect_2,2,11,-1,-1,0.897,-0.144444444,-0.266666667,1,0,0,3.0879,Basalt_rect,2,3.088,1,5,0,5,0,1,,,,,,,,,,,,
5a3012083eff6600016f259c,TCR,2024-06-10_14h57.54.798,LearnStrategy,2023.2.3,Win32,12.01923077,7,1,7,-0.052777778,-0.000925926,1,0,0,1.6229,rock_grid_rect_2,1,02,-1,-1,1.623,-0.396296296,-0.249074074,1,0,0,3.6336,Andesite_rect,1,3.634,1,6,0,6,0,1,,,,,,,,,,,,
5a3012083eff6600016f259c,TCR,2024-06-10_14h57.54.798,LearnStrategy,2023.2.3,Win32,12.01923077,7,1,8,-0.023148148,0.023148148,1,0,0,0.8046,rock_grid_rect_2,1,16,-1,-1,0.805,-0.365740741,-0.263888889,1,0,0,4.9118,Andesite_rect,1,4.912,1,7,0,7,0,1,,,,,,,,,,,,
5a3012083eff6600016f259c,TCR,2024-06-10_14h57.54.798,LearnStrategy,2023.2.3,Win32,12.01923077,7,1,9,0.072222222,0.000925926,1,0,0,1.1103,rock_grid_rect_2,4,08,-1,-1,1.11,0.394444444,-0.263888889,1,0,0,1.6956,Gabbro_rect,4,1.696,1,8,0,8,0,1,,,,,,,,,,,,
5a3012083eff6600016f259c,TCR,2024-06-10_14h57.54.798,LearnStrategy,2023.2.3,Win32,12.01923077,7,1,10,0.011111111,-0.017592593,1,0,0,0.9457,rock_grid_rect_2,4,14,-1,-1,0.946,0.400925926,-0.262037037,1,0,0,1.7425,Gabbro_rect,4,1.742,1,9,0,9,0,1,,,,,,,,,,,,
5a3012083eff6600016f259c,TCR,2024-06-10_14h57.54.798,LearnStrategy,2023.2.3,Win32,12.01923077,7,1,11,-0.003703704,0.002777778,1,0,0,0.9503,rock_grid_rect_2,4,11,-1,-1,0.95,0.385185185,-0.25462963,1,0,0,1.8304,Gabbro_rect,4,1.83,1,10,0,10,0,1,,,,,,,,,,,,
5a3012083eff6600016f259c,TCR,2024-06-10_14h57.54.798,LearnStrategy,2023.2.3,Win32,12.01923077,7,1,12,-0.066666667,-0.019444444,1,0,0,0.9083,rock_grid_rect_2,2,06,-1,-1,0.908,-0.118518519,-0.260185185,1,0,0,1.9318,Basalt_rect,2,1.932,1,11,0,11,0,1,,,,,,,,,,,,
5a3012083eff6600016f259c,TCR,2024-06-10_14h57.54.798,LearnStrategy,2023.2.3,Win32,12.01923077,7,1,13,0.012962963,-0.013888889,1,0,0,1.8531,rock_grid_rect_2,8,04,-1,-1,1.853,0.383333333,-0.401851852,1,0,0,2.8406,Pumice_rect,8,2.841,1,12,0,12,0,1,,,,,,,,,,,,
5a3012083eff6600016f259c,TCR,2024-06-10_14h57.54.798,LearnStrategy,2023.2.3,Win32,12.01923077,7,1,14,-0.035185185,-0.001851852,1,0,0,1.2024,rock_grid_rect_2,5,07,-1,-1,1.202,-0.374074074,-0.412037037,1,0,0,1.136,Obsidian_rect,5,1.136,1,13,0,13,0,1,,,,,,,,,,,,
5a3012083eff6600016f259c,TCR,2024-06-10_14h57.54.798,LearnStrategy,2023.2.3,Win32,12.01923077,7,1,15,0.015740741,-0.001851852,1,0,0,0.9284,rock_grid_rect_2,7,07,-1,-1,0.928,0.099074074,-0.412962963,1,0,0,1.4483,Peridotite_rect,7,1.448,1,14,0,14,0,1,,,,,,,,,,,,
5a3012083eff6600016f259c,TCR,2024-06-10_14h57.54.798,LearnStrategy,2023.2.3,Win32,12.01923077,7,1,16,0.02962963,0.009259259,1,0,0,0.9349,rock_grid_rect_2,6,08,-1,-1,0.935,-0.099074074,-0.4,1,0,0,3.9522,Pegmatite_rect,6,3.952,1,15,0,15,0,1,,,,,,,,,,,,
5a3012083eff6600016f259c,TCR,2024-06-10_14h57.54.798,LearnStrategy,2023.2.3,Win32,12.01923077,7,2,1,,,,,,,,5,11,,,,,,,,,,,5,1.959,1,,,,,,-0.396296296,-0.403703704,1,0,0,1.959,Obsidian_rect,0,0,0,0,1
5a3012083eff6600016f259c,TCR,2024-06-10_14h57.54.798,LearnStrategy,2023.2.3,Win32,12.01923077,7,2,2,,,,,,,,5,16,,,,,,,,,,,5,2.994,1,,,,,,-0.428703704,-0.398148148,1,0,0,2.9935,Obsidian_rect,1,0,1,0,1
5a3012083eff6600016f259c,TCR,2024-06-10_14h57.54.798,LearnStrategy,2023.2.3,Win32,12.01923077,7,2,3,,,,,,,,2,02,,,,,,,,,,,2,1.575,1,,,,,,-0.15,-0.264814815,1,0,0,1.5749,Basalt_rect,2,0,2,0,1
5a3012083eff6600016f259c,TCR,2024-06-10_14h57.54.798,LearnStrategy,2023.2.3,Win32,12.01923077,7,2,4,,,,,,,,6,11,,,,,,,,,,,6,1.502,1,,,,,,-0.15462963,-0.417592593,1,0,0,1.5016,Pegmatite_rect,3,0,3,0,1
5a3012083eff6600016f259c,TCR,2024-06-10_14h57.54.798,LearnStrategy,2023.2.3,Win32,12.01923077,7,2,5,,,,,,,,3,12,,,,,,,,,,,3,1.351,1,,,,,,0.111111111,-0.251851852,1,0,0,1.3507,Diorite_rect,4,0,4,0,1
5a3012083eff6600016f259c,TCR,2024-06-10_14h57.54.798,LearnStrategy,2023.2.3,Win32,12.01923077,7,2,6,,,,,,,,8,08,,,,,,,,,,,8,1.666,1,,,,,,0.396296296,-0.399074074,1,0,0,1.666,Pumice_rect,5,0,5,0,1
5a3012083eff6600016f259c,TCR,2024-06-10_14h57.54.798,LearnStrategy,2023.2.3,Win32,12.01923077,7,2,7,,,,,,,,4,13,,,,,,,,,,,1,1.974,0,,,,,,-0.375925926,-0.252777778,1,0,0,1.9743,Andesite_rect,6,0,6,0,1
5a3012083eff6600016f259c,TCR,2024-06-10_14h57.54.798,LearnStrategy,2023.2.3,Win32,12.01923077,7,2,8,,,,,,,,2,16,,,,,,,,,,,4,1.545,0,,,,,,0.396296296,-0.256481481,1,0,0,1.5446,Gabbro_rect,7,0,7,0,1
5a3012083eff6600016f259c,TCR,2024-06-10_14h57.54.798,LearnStrategy,2023.2.3,Win32,12.01923077,7,2,9,,,,,,,,6,15,,,,,,,,,,,6,1.426,1,,,,,,-0.146296296,-0.406481481,1,0,0,1.4256,Pegmatite_rect,8,0,8,0,1
5a3012083eff6600016f259c,TCR,2024-06-10_14h57.54.798,LearnStrategy,2023.2.3,Win32,12.01923077,7,2,10,,,,,,,,7,04,,,,,,,,,,,3,11.272,0,,,,,,0.092592593,-0.25462963,1,0,0,11.2721,Diorite_rect,9,0,9,0,1
5a3012083eff6600016f259c,TCR,2024-06-10_14h57.54.798,LearnStrategy,2023.2.3,Win32,12.01923077,7,2,11,,,,,,,,7,14,,,,,,,,,,,3,3.658,0,,,,,,0.112037037,-0.263888889,1,0,0,3.6576,Diorite_rect,10,0,10,0,1
5a3012083eff6600016f259c,TCR,2024-06-10_14h57.54.798,LearnStrategy,2023.2.3,Win32,12.01923077,7,2,12,,,,,,,,3,13,,,,,,,,,,,3,1.265,1,,,,,,0.113888889,-0.260185185,1,0,0,1.265,Diorite_rect,11,0,11,0,1
5a3012083eff6600016f259c,TCR,2024-06-10_14h57.54.798,LearnStrategy,2023.2.3,Win32,12.01923077,7,2,13,,,,,,,,1,06,,,,,,,,,,,1,2.954,1,,,,,,-0.391666667,-0.253703704,1,0,0,2.9544,Andesite_rect,12,0,12,0,1
5a3012083eff6600016f259c,TCR,2024-06-10_14h57.54.798,LearnStrategy,2023.2.3,Win32,12.01923077,7,2,14,,,,,,,,8,02,,,,,,,,,,,8,1.66,1,,,,,,0.398148148,-0.410185185,1,0,0,1.6598,Pumice_rect,13,0,13,0,1
5a3012083eff6600016f259c,TCR,2024-06-10_14h57.54.798,LearnStrategy,2023.2.3,Win32,12.01923077,7,2,15,,,,,,,,1,11,,,,,,,,,,,1,4.228,1,,,,,,-0.414814815,-0.238888889,1,0,0,4.2277,Andesite_rect,14,0,14,0,1
5a3012083eff6600016f259c,TCR,2024-06-10_14h57.54.798,LearnStrategy,2023.2.3,Win32,12.01923077,7,2,16,,,,,,,,4,01,,,,,,,,,,,4,3.725,1,,,,,,0.424074074,-0.248148148,1,0,0,3.7245,Gabbro_rect,15,0,15,0,1
5a3012083eff6600016f259c,TCR,2024-06-10_14h57.54.798,LearnStrategy,2023.2.3,Win32,12.01923077,8,1,1,0,0.012962963,1,0,0,1.9586,rock_grid_rect_2,4,09,-1,-1,1.959,-0.133333333,-0.258333333,1,0,0,5.3029,Basalt_rect,2,5.303,0,0,0,0,0,1,,,,,,,,,,,,
5a3012083eff6600016f259c,TCR,2024-06-10_14h57.54.798,LearnStrategy,2023.2.3,Win32,12.01923077,8,1,2,0.005555556,-0.009259259,1,0,0,0.9144,rock_grid_rect_2,2,09,-1,-1,0.914,-0.109259259,-0.243518519,1,0,0,1.2598,Basalt_rect,2,1.26,1,1,0,1,0,1,,,,,,,,,,,,
5a3012083eff6600016f259c,TCR,2024-06-10_14h57.54.798,LearnStrategy,2023.2.3,Win32,12.01923077,8,1,3,-0.003703704,0.001851852,1,0,0,2.5114,rock_grid_rect_2,2,06,-1,-1,2.511,-0.14537037,-0.247222222,1,0,0,1.355,Basalt_rect,2,1.355,1,2,0,2,0,1,,,,,,,,,,,,
5a3012083eff6600016f259c,TCR,2024-06-10_14h57.54.798,LearnStrategy,2023.2.3,Win32,12.01923077,8,1,4,0.053703704,-0.013888889,1,0,0,0.9005,rock_grid_rect_2,3,14,-1,-1,0.901,0.126851852,-0.25,1,0,0,1.8132,Diorite_rect,3,1.813,1,3,0,3,0,1,,,,,,,,,,,,
5a3012083eff6600016f259c,TCR,2024-06-10_14h57.54.798,LearnStrategy,2023.2.3,Win32,12.01923077,8,1,5,0.056481481,0.006481481,1,0,0,0.9193,rock_grid_rect_2,7,13,-1,-1,0.919,0.139814815,-0.393518519,1,0,0,1.6291,Peridotite_rect,7,1.629,1,4,0,4,0,1,,,,,,,,,,,,
5a3012083eff6600016f259c,TCR,2024-06-10_14h57.54.798,LearnStrategy,2023.2.3,Win32,12.01923077,8,1,6,-0.038888889,-0.006481481,1,0,0,0.816,rock_grid_rect_2,4,16,-1,-1,0.816,0.367592593,-0.255555556,1,0,0,2.4732,Gabbro_rect,4,2.473,1,5,0,5,0,1,,,,,,,,,,,,
5a3012083eff6600016f259c,TCR,2024-06-10_14h57.54.798,LearnStrategy,2023.2.3,Win32,12.01923077,8,1,7,-0.027777778,0,1,0,0,1.0387,rock_grid_rect_2,2,14,-1,-1,1.039,-0.122222222,-0.248148148,1,0,0,5.8962,Basalt_rect,2,5.896,1,6,0,6,0,1,,,,,,,,,,,,
5a3012083eff6600016f259c,TCR,2024-06-10_14h57.54.798,LearnStrategy,2023.2.3,Win32,12.01923077,8,1,8,0.032407407,0.006481481,1,0,0,2.7995,rock_grid_rect_2,7,07,-1,-1,2.8,0.135185185,-0.401851852,1,0,0,1.2702,Peridotite_rect,7,1.27,1,7,0,7,0,1,,,,,,,,,,,,
5a3012083eff6600016f259c,TCR,2024-06-10_14h57.54.798,LearnStrategy,2023.2.3,Win32,12.01923077,8,1,9,0.047222222,0.014814815,1,0,0,1.037,rock_grid_rect_2,8,13,-1,-1,1.037,-0.123148148,-0.257407407,1,0,0,7.2876,Basalt_rect,2,7.288,0,8,0,8,0,1,,,,,,,,,,,,
5a3012083eff6600016f259c,TCR,2024-06-10_14h57.54.798,LearnStrategy,2023.2.3,Win32,12.01923077,8,1,10,0.030555556,0.003703704,1,0,0,1.0388,rock_grid_rect_2,6,12,-1,-1,1.039,-0.164814815,-0.409259259,1,0,0,2.0098,Pegmatite_rect,6,2.01,1,9,0,9,0,1,,,,,,,,,,,,
5a3012083eff6600016f259c,TCR,2024-06-10_14h57.54.798,LearnStrategy,2023.2.3,Win32,12.01923077,8,1,11,0.077777778,0.012962963,1,0,0,1.1859,rock_grid_rect_2,7,10,-1,-1,1.186,0.137962963,-0.4,1,0,0,1.2646,Peridotite_rect,7,1.265,1,10,0,10,0,1,,,,,,,,,,,,
5a3012083eff6600016f259c,TCR,2024-06-10_14h57.54.798,LearnStrategy,2023.2.3,Win32,12.01923077,8,1,12,0.042592593,0.00462963,1,0,0,0.9143,rock_grid_rect_2,7,15,-1,-1,0.914,0.137037037,-0.40462963,1,0,0,1.1114,Peridotite_rect,7,1.111,1,11,0,11,0,1,,,,,,,,,,,,
5a3012083eff6600016f259c,TCR,2024-06-10_14h57.54.798,LearnStrategy,2023.2.3,Win32,12.01923077,8,1,13,0.02037037,-0.00462963,1,0,0,0.8211,rock_grid_rect_2,5,04,-1,-1,0.821,-0.405555556,-0.410185185,1,0,0,1.9158,Obsidian_rect,5,1.916,1,12,0,12,0,1,,,,,,,,,,,,
5a3012083eff6600016f259c,TCR,2024-06-10_14h57.54.798,LearnStrategy,2023.2.3,Win32,12.01923077,8,1,14,0.02037037,-0.003703704,1,0,0,0.9342,rock_grid_rect_2,7,15,-1,-1,0.934,0.12037037,-0.406481481,1,0,0,1.251,Peridotite_rect,7,1.251,1,13,0,13,0,1,,,,,,,,,,,,
5a3012083eff6600016f259c,TCR,2024-06-10_14h57.54.798,LearnStrategy,2023.2.3,Win32,12.01923077,8,1,15,0.034259259,-0.00462963,1,0,0,0.9152,rock_grid_rect_2,4,11,-1,-1,0.915,0.408333333,-0.251851852,1,0,0,2.0765,Gabbro_rect,4,2.077,1,14,0,14,0,1,,,,,,,,,,,,
5a3012083eff6600016f259c,TCR,2024-06-10_14h57.54.798,LearnStrategy,2023.2.3,Win32,12.01923077,8,1,16,0.008333333,0.005555556,1,0,0,0.9205,rock_grid_rect_2,4,09,-1,-1,0.92,0.387037037,-0.255555556,1,0,0,2.8786,Gabbro_rect,4,2.879,1,15,0,15,0,1,,,,,,,,,,,,
5a3012083eff6600016f259c,TCR,2024-06-10_14h57.54.798,LearnStrategy,2023.2.3,Win32,12.01923077,8,2,1,,,,,,,,2,12,,,,,,,,,,,2,4.521,1,,,,,,-0.12962963,-0.249074074,1,0,0,4.5211,Basalt_rect,0,0,0,0,1
5a3012083eff6600016f259c,TCR,2024-06-10_14h57.54.798,LearnStrategy,2023.2.3,Win32,12.01923077,8,2,2,,,,,,,,7,16,,,,,,,,,,,4,5.535,0,,,,,,0.412962963,-0.253703704,1,0,0,5.5349,Gabbro_rect,1,0,1,0,1
5a3012083eff6600016f259c,TCR,2024-06-10_14h57.54.798,LearnStrategy,2023.2.3,Win32,12.01923077,8,2,3,,,,,,,,3,15,,,,,,,,,,,3,1.269,1,,,,,,0.12037037,-0.247222222,1,0,0,1.2689,Diorite_rect,2,0,2,0,1
5a3012083eff6600016f259c,TCR,2024-06-10_14h57.54.798,LearnStrategy,2023.2.3,Win32,12.01923077,8,2,4,,,,,,,,4,10,,,,,,,,,,,4,1.422,1,,,,,,0.396296296,-0.244444444,1,0,0,1.4224,Gabbro_rect,3,0,3,0,1
5a3012083eff6600016f259c,TCR,2024-06-10_14h57.54.798,LearnStrategy,2023.2.3,Win32,12.01923077,8,2,5,,,,,,,,7,06,,,,,,,,,,,6,2.476,0,,,,,,-0.161111111,-0.40462963,1,0,0,2.4757,Pegmatite_rect,4,0,4,0,1
5a3012083eff6600016f259c,TCR,2024-06-10_14h57.54.798,LearnStrategy,2023.2.3,Win32,12.01923077,8,2,6,,,,,,,,1,05,,,,,,,,,,,1,3.27,1,,,,,,-0.399074074,-0.241666667,1,0,0,3.2696,Andesite_rect,5,0,5,0,1
5a3012083eff6600016f259c,TCR,2024-06-10_14h57.54.798,LearnStrategy,2023.2.3,Win32,12.01923077,8,2,7,,,,,,,,6,13,,,,,,,,,,,6,1.605,1,,,,,,-0.150925926,-0.403703704,1,0,0,1.6054,Pegmatite_rect,6,0,6,0,1
5a3012083eff6600016f259c,TCR,2024-06-10_14h57.54.798,LearnStrategy,2023.2.3,Win32,12.01923077,8,2,8,,,,,,,,6,03,,,,,,,,,,,7,4.283,0,,,,,,0.140740741,-0.40462963,1,0,0,4.2826,Peridotite_rect,7,0,7,0,1
5a3012083eff6600016f259c,TCR,2024-06-10_14h57.54.798,LearnStrategy,2023.2.3,Win32,12.01923077,8,2,9,,,,,,,,4,03,,,,,,,,,,,4,2.821,1,,,,,,0.394444444,-0.255555556,1,0,0,2.8213,Gabbro_rect,8,0,8,0,1
5a3012083eff6600016f259c,TCR,2024-06-10_14h57.54.798,LearnStrategy,2023.2.3,Win32,12.01923077,8,2,10,,,,,,,,5,06,,,,,,,,,,,5,1.539,1,,,,,,-0.412962963,-0.39537037,1,0,0,1.5388,Obsidian_rect,9,0,9,0,1
5a3012083eff6600016f259c,TCR,2024-06-10_14h57.54.798,LearnStrategy,2023.2.3,Win32,12.01923077,8,2,11,,,,,,,,8,14,,,,,,,,,,,8,1.561,1,,,,,,0.392592593,-0.398148148,1,0,0,1.5614,Pumice_rect,10,0,10,0,1
5a3012083eff6600016f259c,TCR,2024-06-10_14h57.54.798,LearnStrategy,2023.2.3,Win32,12.01923077,8,2,12,,,,,,,,1,03,,,,,,,,,,,1,1.568,1,,,,,,-0.386111111,-0.256481481,1,0,0,1.5677,Andesite_rect,11,0,11,0,1
5a3012083eff6600016f259c,TCR,2024-06-10_14h57.54.798,LearnStrategy,2023.2.3,Win32,12.01923077,8,2,13,,,,,,,,3,02,,,,,,,,,,,3,1.571,1,,,,,,0.15462963,-0.258333333,1,0,0,1.5707,Diorite_rect,12,0,12,0,1
5a3012083eff6600016f259c,TCR,2024-06-10_14h57.54.798,LearnStrategy,2023.2.3,Win32,12.01923077,8,2,14,,,,,,,,8,09,,,,,,,,,,,8,1.383,1,,,,,,0.413888889,-0.403703704,1,0,0,1.3835,Pumice_rect,13,0,13,0,1
5a3012083eff6600016f259c,TCR,2024-06-10_14h57.54.798,LearnStrategy,2023.2.3,Win32,12.01923077,8,2,15,,,,,,,,2,08,,,,,,,,,,,2,1.496,1,,,,,,-0.150925926,-0.25462963,1,0,0,1.4962,Basalt_rect,14,0,14,0,1
5a3012083eff6600016f259c,TCR,2024-06-10_14h57.54.798,LearnStrategy,2023.2.3,Win32,12.01923077,8,2,16,,,,,,,,5,08,,,,,,,,,,,5,3.609,1,,,,,,-0.399074074,-0.413888889,1,0,0,3.6087,Obsidian_rect,15,0,15,0,1
5a3012083eff6600016f259c,TCR,2024-06-10_14h57.54.798,LearnStrategy,2023.2.3,Win32,12.01923077,9,1,1,0.089814815,-0.016666667,1,0,0,1.9956,rock_grid_rect_2,7,10,-1,-1,1.996,0.139814815,-0.405555556,1,0,0,4.3458,Peridotite_rect,7,4.346,1,0,0,0,0,1,,,,,,,,,,,,
5a3012083eff6600016f259c,TCR,2024-06-10_14h57.54.798,LearnStrategy,2023.2.3,Win32,12.01923077,9,1,2,0.05,-0.000925926,1,0,0,0.9407,rock_grid_rect_2,8,13,-1,-1,0.941,0.403703704,-0.409259259,1,0,0,1.0886,Pumice_rect,8,1.089,1,1,0,1,0,1,,,,,,,,,,,,
5a3012083eff6600016f259c,TCR,2024-06-10_14h57.54.798,LearnStrategy,2023.2.3,Win32,12.01923077,9,1,3,-0.030555556,-0.011111111,1,0,0,0.9322,rock_grid_rect_2,4,12,-1,-1,0.932,0.432407407,-0.260185185,1,0,0,3.2774,Gabbro_rect,4,3.277,1,2,0,2,0,1,,,,,,,,,,,,
5a3012083eff6600016f259c,TCR,2024-06-10_14h57.54.798,LearnStrategy,2023.2.3,Win32,12.01923077,9,1,4,0.006481481,0.003703704,1,0,0,0.8127,rock_grid_rect_2,3,07,-1,-1,0.813,0.112962963,-0.25,1,0,0,1.2686,Diorite_rect,3,1.269,1,3,0,3,0,1,,,,,,,,,,,,
5a3012083eff6600016f259c,TCR,2024-06-10_14h57.54.798,LearnStrategy,2023.2.3,Win32,12.01923077,9,1,5,-0.003703704,0.003703704,1,0,0,0.9342,rock_grid_rect_2,6,07,-1,-1,0.934,-0.138888889,-0.400925926,1,0,0,2.0749,Pegmatite_rect,6,2.075,1,4,0,4,0,1,,,,,,,,,,,,
5a3012083eff6600016f259c,TCR,2024-06-10_14h57.54.798,LearnStrategy,2023.2.3,Win32,12.01923077,9,1,6,0.062037037,-0.012037037,1,0,0,0.8319,rock_grid_rect_2,5,14,-1,-1,0.832,-0.376851852,-0.4,1,0,0,1.9583,Obsidian_rect,5,1.958,1,5,0,5,0,1,,,,,,,,,,,,
5a3012083eff6600016f259c,TCR,2024-06-10_14h57.54.798,LearnStrategy,2023.2.3,Win32,12.01923077,9,1,7,0.012962963,0.000925926,1,0,0,0.8184,rock_grid_rect_2,7,13,-1,-1,0.818,0.124074074,-0.392592593,1,0,0,1.7687,Peridotite_rect,7,1.769,1,6,0,6,0,1,,,,,,,,,,,,
5a3012083eff6600016f259c,TCR,2024-06-10_14h57.54.798,LearnStrategy,2023.2.3,Win32,12.01923077,9,1,8,-0.023148148,0.012962963,1,0,0,1.45,rock_grid_rect_2,7,02,-1,-1,1.45,0.119444444,-0.407407407,1,0,0,2.1168,Peridotite_rect,7,2.117,1,7,0,7,0,1,,,,,,,,,,,,
5a3012083eff6600016f259c,TCR,2024-06-10_14h57.54.798,LearnStrategy,2023.2.3,Win32,12.01923077,9,1,9,0.07962963,-0.000925926,1,0,0,1.1906,rock_grid_rect_2,7,02,-1,-1,1.191,0.108333333,-0.388888889,1,0,0,1.6585,Peridotite_rect,7,1.659,1,8,0,8,0,1,,,,,,,,,,,,
5a3012083eff6600016f259c,TCR,2024-06-10_14h57.54.798,LearnStrategy,2023.2.3,Win32,12.01923077,9,1,10,-0.012962963,-0.005555556,1,0,0,0.7858,rock_grid_rect_2,4,16,-1,-1,0.786,0.393518519,-0.251851852,1,0,0,1.5195,Gabbro_rect,4,1.52,1,9,0,9,0,1,,,,,,,,,,,,
5a3012083eff6600016f259c,TCR,2024-06-10_14h57.54.798,LearnStrategy,2023.2.3,Win32,12.01923077,9,1,11,0.005555556,0.005555556,1,0,0,0.8199,rock_grid_rect_2,2,05,-1,-1,0.82,-0.15,-0.246296296,1,0,0,1.2272,Basalt_rect,2,1.227,1,10,0,10,0,1,,,,,,,,,,,,
5a3012083eff6600016f259c,TCR,2024-06-10_14h57.54.798,LearnStrategy,2023.2.3,Win32,12.01923077,9,1,12,0.061111111,-0.002777778,1,0,0,0.7973,rock_grid_rect_2,7,07,-1,-1,0.797,0.143518519,-0.414814815,1,0,0,1.4529,Peridotite_rect,7,1.453,1,11,0,11,0,1,,,,,,,,,,,,
5a3012083eff6600016f259c,TCR,2024-06-10_14h57.54.798,LearnStrategy,2023.2.3,Win32,12.01923077,9,1,13,0.009259259,0.002777778,1,0,0,0.8011,rock_grid_rect_2,6,06,-1,-1,0.801,-0.155555556,-0.399074074,1,0,0,1.9943,Pegmatite_rect,6,1.994,1,12,0,12,0,1,,,,,,,,,,,,
5a3012083eff6600016f259c,TCR,2024-06-10_14h57.54.798,LearnStrategy,2023.2.3,Win32,12.01923077,9,1,14,0.033333333,0,1,0,0,0.7914,rock_grid_rect_2,4,09,-1,-1,0.791,0.344444444,-0.25,1,0,0,2.2322,Gabbro_rect,4,2.232,1,13,0,13,0,1,,,,,,,,,,,,
5a3012083eff6600016f259c,TCR,2024-06-10_14h57.54.798,LearnStrategy,2023.2.3,Win32,12.01923077,9,1,15,0.018518519,0.002777778,1,0,0,1.057,rock_grid_rect_2,7,05,-1,-1,1.057,0.116666667,-0.407407407,1,0,0,1.5039,Peridotite_rect,7,1.504,1,14,0,14,0,1,,,,,,,,,,,,
5a3012083eff6600016f259c,TCR,2024-06-10_14h57.54.798,LearnStrategy,2023.2.3,Win32,12.01923077,9,1,16,0.027777778,-0.008333333,1,0,0,1.0655,rock_grid_rect_2,2,10,-1,-1,1.065,-0.114814815,-0.256481481,1,0,0,1.6854,Basalt_rect,2,1.685,1,15,0,15,0,1,,,,,,,,,,,,
5a3012083eff6600016f259c,TCR,2024-06-10_14h57.54.798,LearnStrategy,2023.2.3,Win32,12.01923077,9,2,1,,,,,,,,2,01,,,,,,,,,,,2,1.273,1,,,,,,-0.152777778,-0.260185185,1,0,0,1.2731,Basalt_rect,0,0,0,0,1
5a3012083eff6600016f259c,TCR,2024-06-10_14h57.54.798,LearnStrategy,2023.2.3,Win32,12.01923077,9,2,2,,,,,,,,4,05,,,,,,,,,,,4,2.981,1,,,,,,0.389814815,-0.265740741,1,0,0,2.9811,Gabbro_rect,1,0,1,0,1
5a3012083eff6600016f259c,TCR,2024-06-10_14h57.54.798,LearnStrategy,2023.2.3,Win32,12.01923077,9,2,3,,,,,,,,8,06,,,,,,,,,,,8,2.083,1,,,,,,0.40462963,-0.40462963,1,0,0,2.0827,Pumice_rect,2,0,2,0,1
5a3012083eff6600016f259c,TCR,2024-06-10_14h57.54.798,LearnStrategy,2023.2.3,Win32,12.01923077,9,2,4,,,,,,,,5,10,,,,,,,,,,,5,3.383,1,,,,,,-0.361111111,-0.398148148,1,0,0,3.383,Obsidian_rect,3,0,3,0,1
5a3012083eff6600016f259c,TCR,2024-06-10_14h57.54.798,LearnStrategy,2023.2.3,Win32,12.01923077,9,2,5,,,,,,,,3,09,,,,,,,,,,,3,2.298,1,,,,,,0.151851852,-0.250925926,1,0,0,2.2982,Diorite_rect,4,0,4,0,1
5a3012083eff6600016f259c,TCR,2024-06-10_14h57.54.798,LearnStrategy,2023.2.3,Win32,12.01923077,9,2,6,,,,,,,,5,09,,,,,,,,,,,5,1.432,1,,,,,,-0.427777778,-0.393518519,1,0,0,1.4317,Obsidian_rect,5,0,5,0,1
5a3012083eff6600016f259c,TCR,2024-06-10_14h57.54.798,LearnStrategy,2023.2.3,Win32,12.01923077,9,2,7,,,,,,,,4,15,,,,,,,,,,,1,3.7,0,,,,,,-0.39537037,-0.258333333,1,0,0,3.6999,Andesite_rect,6,0,6,0,1
5a3012083eff6600016f259c,TCR,2024-06-10_14h57.54.798,LearnStrategy,2023.2.3,Win32,12.01923077,9,2,8,,,,,,,,6,16,,,,,,,,,,,6,1.697,1,,,,,,-0.148148148,-0.402777778,1,0,0,1.6968,Pegmatite_rect,7,0,7,0,1
5a3012083eff6600016f259c,TCR,2024-06-10_14h57.54.798,LearnStrategy,2023.2.3,Win32,12.01923077,9,2,9,,,,,,,,1,01,,,,,,,,,,,1,3.831,1,,,,,,-0.465740741,-0.240740741,1,0,0,3.8305,Andesite_rect,8,0,8,0,1
5a3012083eff6600016f259c,TCR,2024-06-10_14h57.54.798,LearnStrategy,2023.2.3,Win32,12.01923077,9,2,10,,,,,,,,8,15,,,,,,,,,,,8,2.083,1,,,,,,0.4,-0.4,1,0,0,2.0833,Pumice_rect,9,0,9,0,1
5a3012083eff6600016f259c,TCR,2024-06-10_14h57.54.798,LearnStrategy,2023.2.3,Win32,12.01923077,9,2,11,,,,,,,,3,10,,,,,,,,,,,3,1.961,1,,,,,,0.106481481,-0.25,1,0,0,1.9613,Diorite_rect,10,0,10,0,1
5a3012083eff6600016f259c,TCR,2024-06-10_14h57.54.798,LearnStrategy,2023.2.3,Win32,12.01923077,9,2,12,,,,,,,,7,12,,,,,,,,,,,7,3.83,1,,,,,,0.114814815,-0.393518519,1,0,0,3.8295,Peridotite_rect,11,0,11,0,1
5a3012083eff6600016f259c,TCR,2024-06-10_14h57.54.798,LearnStrategy,2023.2.3,Win32,12.01923077,9,2,13,,,,,,,,6,09,,,,,,,,,,,6,3.904,1,,,,,,-0.137037037,-0.407407407,1,0,0,3.9036,Pegmatite_rect,12,0,12,0,1
5a3012083eff6600016f259c,TCR,2024-06-10_14h57.54.798,LearnStrategy,2023.2.3,Win32,12.01923077,9,2,14,,,,,,,,7,08,,,,,,,,,,,7,2.228,1,,,,,,0.100925926,-0.399074074,1,0,0,2.2281,Peridotite_rect,13,0,13,0,1
5a3012083eff6600016f259c,TCR,2024-06-10_14h57.54.798,LearnStrategy,2023.2.3,Win32,12.01923077,9,2,15,,,,,,,,1,10,,,,,,,,,,,4,4.85,0,,,,,,0.410185185,-0.25,1,0,0,4.8496,Gabbro_rect,14,0,14,0,1
5a3012083eff6600016f259c,TCR,2024-06-10_14h57.54.798,LearnStrategy,2023.2.3,Win32,12.01923077,9,2,16,,,,,,,,2,04,,,,,,,,,,,2,1.528,1,,,,,,-0.137962963,-0.258333333,1,0,0,1.5282,Basalt_rect,15,0,15,0,1
5a3012083eff6600016f259c,TCR,2024-06-10_14h57.54.798,LearnStrategy,2023.2.3,Win32,12.01923077,,,,,,,,,,,,,,,,,,,,,,,,,,,,,,,,,,,,,,,,,,
5a3012083eff6600016f259c,TCR,2024-06-10_14h57.54.798,LearnStrategy,2023.2.3,Win32,12.01923077,,,,,,,,,,,,,,,,,,,,,,,,,,,,,,,,,,,,,,,,,,
5a3012083eff6600016f259c,TCR,2024-06-10_14h57.54.798,LearnStrategy,2023.2.3,Win32,12.01923077,,,,,,,,,,,7,05,1,1,,,,,,,,,,,,,,,,,,,,,,,,,,,,
5a3012083eff6600016f259c,TCR,2024-06-10_14h57.54.798,LearnStrategy,2023.2.3,Win32,12.01923077,,,,,,,,,,,3,14,1,2,,,,,,,,,,,,,,,,,,,,,,,,,,,,
5a3012083eff6600016f259c,TCR,2024-06-10_14h57.54.798,LearnStrategy,2023.2.3,Win32,12.01923077,,,,,,,,,,,6,07,1,3,,,,,,,,,,,,,,,,,,,,,,,,,,,,
5a3012083eff6600016f259c,TCR,2024-06-10_14h57.54.798,LearnStrategy,2023.2.3,Win32,12.01923077,,,,,,,,,,,6,05,1,4,,,,,,,,,,,,,,,,,,,,,,,,,,,,
5a3012083eff6600016f259c,TCR,2024-06-10_14h57.54.798,LearnStrategy,2023.2.3,Win32,12.01923077,,,,,,,,,,,8,05,1,5,,,,,,,,,,,,,,,,,,,,,,,,,,,,
5a3012083eff6600016f259c,TCR,2024-06-10_14h57.54.798,LearnStrategy,2023.2.3,Win32,12.01923077,,,,,,,,,,,7,15,1,6,,,,,,,,,,,,,,,,,,,,,,,,,,,,
5a3012083eff6600016f259c,TCR,2024-06-10_14h57.54.798,LearnStrategy,2023.2.3,Win32,12.01923077,,,,,,,,,,,5,07,1,7,,,,,,,,,,,,,,,,,,,,,,,,,,,,
5a3012083eff6600016f259c,TCR,2024-06-10_14h57.54.798,LearnStrategy,2023.2.3,Win32,12.01923077,,,,,,,,,,,6,12,1,8,,,,,,,,,,,,,,,,,,,,,,,,,,,,
5a3012083eff6600016f259c,TCR,2024-06-10_14h57.54.798,LearnStrategy,2023.2.3,Win32,12.01923077,,,,,,,,,,,5,14,2,1,,,,,,,,,,,,,,,,,,,,,,,,,,,,
5a3012083eff6600016f259c,TCR,2024-06-10_14h57.54.798,LearnStrategy,2023.2.3,Win32,12.01923077,,,,,,,,,,,3,16,2,2,,,,,,,,,,,,,,,,,,,,,,,,,,,,
5a3012083eff6600016f259c,TCR,2024-06-10_14h57.54.798,LearnStrategy,2023.2.3,Win32,12.01923077,,,,,,,,,,,4,14,2,3,,,,,,,,,,,,,,,,,,,,,,,,,,,,
5a3012083eff6600016f259c,TCR,2024-06-10_14h57.54.798,LearnStrategy,2023.2.3,Win32,12.01923077,,,,,,,,,,,6,06,2,4,,,,,,,,,,,,,,,,,,,,,,,,,,,,
5a3012083eff6600016f259c,TCR,2024-06-10_14h57.54.798,LearnStrategy,2023.2.3,Win32,12.01923077,,,,,,,,,,,3,06,2,5,,,,,,,,,,,,,,,,,,,,,,,,,,,,
5a3012083eff6600016f259c,TCR,2024-06-10_14h57.54.798,LearnStrategy,2023.2.3,Win32,12.01923077,,,,,,,,,,,3,11,2,6,,,,,,,,,,,,,,,,,,,,,,,,,,,,
5a3012083eff6600016f259c,TCR,2024-06-10_14h57.54.798,LearnStrategy,2023.2.3,Win32,12.01923077,,,,,,,,,,,4,16,2,7,,,,,,,,,,,,,,,,,,,,,,,,,,,,
5a3012083eff6600016f259c,TCR,2024-06-10_14h57.54.798,LearnStrategy,2023.2.3,Win32,12.01923077,,,,,,,,,,,7,07,2,8,,,,,,,,,,,,,,,,,,,,,,,,,,,,
5a3012083eff6600016f259c,TCR,2024-06-10_14h57.54.798,LearnStrategy,2023.2.3,Win32,12.01923077,,,,,,,,,,,8,16,3,1,,,,,,,,,,,,,,,,,,,,,,,,,,,,
5a3012083eff6600016f259c,TCR,2024-06-10_14h57.54.798,LearnStrategy,2023.2.3,Win32,12.01923077,,,,,,,,,,,1,04,3,2,,,,,,,,,,,,,,,,,,,,,,,,,,,,
5a3012083eff6600016f259c,TCR,2024-06-10_14h57.54.798,LearnStrategy,2023.2.3,Win32,12.01923077,,,,,,,,,,,8,10,3,3,,,,,,,,,,,,,,,,,,,,,,,,,,,,
5a3012083eff6600016f259c,TCR,2024-06-10_14h57.54.798,LearnStrategy,2023.2.3,Win32,12.01923077,,,,,,,,,,,8,04,3,4,,,,,,,,,,,,,,,,,,,,,,,,,,,,
5a3012083eff6600016f259c,TCR,2024-06-10_14h57.54.798,LearnStrategy,2023.2.3,Win32,12.01923077,,,,,,,,,,,2,10,3,5,,,,,,,,,,,,,,,,,,,,,,,,,,,,
5a3012083eff6600016f259c,TCR,2024-06-10_14h57.54.798,LearnStrategy,2023.2.3,Win32,12.01923077,,,,,,,,,,,8,13,3,6,,,,,,,,,,,,,,,,,,,,,,,,,,,,
5a3012083eff6600016f259c,TCR,2024-06-10_14h57.54.798,LearnStrategy,2023.2.3,Win32,12.01923077,,,,,,,,,,,6,08,3,7,,,,,,,,,,,,,,,,,,,,,,,,,,,,
5a3012083eff6600016f259c,TCR,2024-06-10_14h57.54.798,LearnStrategy,2023.2.3,Win32,12.01923077,,,,,,,,,,,5,04,3,8,,,,,,,,,,,,,,,,,,,,,,,,,,,,
5a3012083eff6600016f259c,TCR,2024-06-10_14h57.54.798,LearnStrategy,2023.2.3,Win32,12.01923077,,,,,,,,,,,7,02,4,1,,,,,,,,,,,,,,,,,,,,,,,,,,,,
5a3012083eff6600016f259c,TCR,2024-06-10_14h57.54.798,LearnStrategy,2023.2.3,Win32,12.01923077,,,,,,,,,,,5,02,4,2,,,,,,,,,,,,,,,,,,,,,,,,,,,,
5a3012083eff6600016f259c,TCR,2024-06-10_14h57.54.798,LearnStrategy,2023.2.3,Win32,12.01923077,,,,,,,,,,,4,12,4,3,,,,,,,,,,,,,,,,,,,,,,,,,,,,
5a3012083eff6600016f259c,TCR,2024-06-10_14h57.54.798,LearnStrategy,2023.2.3,Win32,12.01923077,,,,,,,,,,,2,06,4,4,,,,,,,,,,,,,,,,,,,,,,,,,,,,
5a3012083eff6600016f259c,TCR,2024-06-10_14h57.54.798,LearnStrategy,2023.2.3,Win32,12.01923077,,,,,,,,,,,1,16,4,5,,,,,,,,,,,,,,,,,,,,,,,,,,,,
5a3012083eff6600016f259c,TCR,2024-06-10_14h57.54.798,LearnStrategy,2023.2.3,Win32,12.01923077,,,,,,,,,,,3,07,4,6,,,,,,,,,,,,,,,,,,,,,,,,,,,,
5a3012083eff6600016f259c,TCR,2024-06-10_14h57.54.798,LearnStrategy,2023.2.3,Win32,12.01923077,,,,,,,,,,,2,05,4,7,,,,,,,,,,,,,,,,,,,,,,,,,,,,
5a3012083eff6600016f259c,TCR,2024-06-10_14h57.54.798,LearnStrategy,2023.2.3,Win32,12.01923077,,,,,,,,,,,1,07,4,8,,,,,,,,,,,,,,,,,,,,,,,,,,,,
5a3012083eff6600016f259c,TCR,2024-06-10_14h57.54.798,LearnStrategy,2023.2.3,Win32,12.01923077,,,,,,,,,,,4,08,5,1,,,,,,,,,,,,,,,,,,,,,,,,,,,,
5a3012083eff6600016f259c,TCR,2024-06-10_14h57.54.798,LearnStrategy,2023.2.3,Win32,12.01923077,,,,,,,,,,,1,14,5,2,,,,,,,,,,,,,,,,,,,,,,,,,,,,
5a3012083eff6600016f259c,TCR,2024-06-10_14h57.54.798,LearnStrategy,2023.2.3,Win32,12.01923077,,,,,,,,,,,2,14,5,3,,,,,,,,,,,,,,,,,,,,,,,,,,,,
5a3012083eff6600016f259c,TCR,2024-06-10_14h57.54.798,LearnStrategy,2023.2.3,Win32,12.01923077,,,,,,,,,,,6,10,5,4,,,,,,,,,,,,,,,,,,,,,,,,,,,,
5a3012083eff6600016f259c,TCR,2024-06-10_14h57.54.798,LearnStrategy,2023.2.3,Win32,12.01923077,,,,,,,,,,,1,02,5,5,,,,,,,,,,,,,,,,,,,,,,,,,,,,
5a3012083eff6600016f259c,TCR,2024-06-10_14h57.54.798,LearnStrategy,2023.2.3,Win32,12.01923077,,,,,,,,,,,5,05,5,6,,,,,,,,,,,,,,,,,,,,,,,,,,,,
5a3012083eff6600016f259c,TCR,2024-06-10_14h57.54.798,LearnStrategy,2023.2.3,Win32,12.01923077,,,,,,,,,,,4,11,5,7,,,,,,,,,,,,,,,,,,,,,,,,,,,,
5a3012083eff6600016f259c,TCR,2024-06-10_14h57.54.798,LearnStrategy,2023.2.3,Win32,12.01923077,,,,,,,,,,,5,12,5,8,,,,,,,,,,,,,,,,,,,,,,,,,,,,
5a3012083eff6600016f259c,TCR,2024-06-10_14h57.54.798,LearnStrategy,2023.2.3,Win32,12.01923077,,,,,,,,,,,2,09,6,1,,,,,,,,,,,,,,,,,,,,,,,,,,,,
5a3012083eff6600016f259c,TCR,2024-06-10_14h57.54.798,LearnStrategy,2023.2.3,Win32,12.01923077,,,,,,,,,,,3,08,6,2,,,,,,,,,,,,,,,,,,,,,,,,,,,,
5a3012083eff6600016f259c,TCR,2024-06-10_14h57.54.798,LearnStrategy,2023.2.3,Win32,12.01923077,,,,,,,,,,,4,09,6,3,,,,,,,,,,,,,,,,,,,,,,,,,,,,
5a3012083eff6600016f259c,TCR,2024-06-10_14h57.54.798,LearnStrategy,2023.2.3,Win32,12.01923077,,,,,,,,,,,7,13,6,4,,,,,,,,,,,,,,,,,,,,,,,,,,,,
5a3012083eff6600016f259c,TCR,2024-06-10_14h57.54.798,LearnStrategy,2023.2.3,Win32,12.01923077,,,,,,,,,,,2,11,6,5,,,,,,,,,,,,,,,,,,,,,,,,,,,,
5a3012083eff6600016f259c,TCR,2024-06-10_14h57.54.798,LearnStrategy,2023.2.3,Win32,12.01923077,,,,,,,,,,,8,03,6,6,,,,,,,,,,,,,,,,,,,,,,,,,,,,
5a3012083eff6600016f259c,TCR,2024-06-10_14h57.54.798,LearnStrategy,2023.2.3,Win32,12.01923077,,,,,,,,,,,1,09,6,7,,,,,,,,,,,,,,,,,,,,,,,,,,,,
5a3012083eff6600016f259c,TCR,2024-06-10_14h57.54.798,LearnStrategy,2023.2.3,Win32,12.01923077,,,,,,,,,,,7,10,6,8,,,,,,,,,,,,,,,,,,,,,,,,,,,,