participant,condition,date,expName,psychopyVersion,OS,frameRate,block,phase,trial,learn_mouse_2.x,learn_mouse_2.y,learn_mouse_2.leftButton,learn_mouse_2.midButton,learn_mouse_2.rightButton,learn_mouse_2.time,learn_mouse_2.clicked_name,cat,token,row,col,t_select,cat_mouse_l.x,cat_mouse_l.y,cat_mouse_l.leftButton,cat_mouse_l.midButton,cat_mouse_l.rightButton,cat_mouse_l.time,cat_mouse_l.clicked_name,resp,t_resp,corr,train_trials.thisRepN,train_trials.thisTrialN,train_trials.thisN,train_trials.thisIndex,train_trials.ran,cat_mouse_t.x,cat_mouse_t.y,cat_mouse_t.leftButton,cat_mouse_t.midButton,cat_mouse_t.rightButton,cat_mouse_t.time,cat_mouse_t.clicked_name,test_trials.thisRepN,test_trials.thisTrialN,test_trials.thisN,test_trials.thisIndex,test_trials.ran,Bonus
5a3bdd2c8d005a0001829f3e,TCN,2024-06-20_15h37.01.592,LearnStrategy,2023.2.3,Win32,60.60606061,,,,,,,,,,,,,,,,,,,,,,,,,,,,,,,,,,,,,,,,,,,
5a3bdd2c8d005a0001829f3e,TCN,2024-06-20_15h37.01.592,LearnStrategy,2023.2.3,Win32,60.60606061,1,1,1,0.013888889,-0.001851852,1,0,0,1.9532,rock_grid_rect_2,3,07,-1,-1,1.953,-0.369444444,-0.250925926,1,0,0,6.4156,Andesite_rect,1,6.416,0,0,0,0,0,1,,,,,,,,,,,,,
5a3bdd2c8d005a0001829f3e,TCN,2024-06-20_15h37.01.592,LearnStrategy,2023.2.3,Win32,60.60606061,1,1,2,0.017592593,-0.007407407,1,0,0,1.822,rock_grid_rect_2,6,05,-1,-1,1.822,0.14537037,-0.248148148,1,0,0,2.4378,Diorite_rect,3,2.438,0,1,0,1,0,1,,,,,,,,,,,,,
5a3bdd2c8d005a0001829f3e,TCN,2024-06-20_15h37.01.592,LearnStrategy,2023.2.3,Win32,60.60606061,1,1,3,0.006481481,-0.009259259,1,0,0,2.8887,rock_grid_rect_2,7,08,-1,-1,2.889,0.413888889,-0.399074074,1,0,0,5.8586,Pumice_rect,8,5.859,0,2,0,2,0,1,,,,,,,,,,,,,
5a3bdd2c8d005a0001829f3e,TCN,2024-06-20_15h37.01.592,LearnStrategy,2023.2.3,Win32,60.60606061,1,1,4,0.014814815,-0.014814815,1,0,0,2.5891,rock_grid_rect_2,4,16,-1,-1,2.589,0.422222222,-0.40462963,1,0,0,3.1378,Pumice_rect,8,3.138,0,3,0,3,0,1,,,,,,,,,,,,,
5a3bdd2c8d005a0001829f3e,TCN,2024-06-20_15h37.01.592,LearnStrategy,2023.2.3,Win32,60.60606061,1,1,5,-0.031481481,0.001851852,1,0,0,2.1478,rock_grid_rect_2,5,16,-1,-1,2.148,-0.374074074,-0.387037037,1,0,0,2.8723,Obsidian_rect,5,2.872,1,4,0,4,0,1,,,,,,,,,,,,,
5a3bdd2c8d005a0001829f3e,TCN,2024-06-20_15h37.01.592,LearnStrategy,2023.2.3,Win32,60.60606061,1,1,6,0.051851852,-0.010185185,1,0,0,2.3727,rock_grid_rect_2,5,08,-1,-1,2.373,-0.382407407,-0.388888889,1,0,0,2.7218,Obsidian_rect,5,2.722,1,5,0,5,0,1,,,,,,,,,,,,,
5a3bdd2c8d005a0001829f3e,TCN,2024-06-20_15h37.01.592,LearnStrategy,2023.2.3,Win32,60.60606061,1,1,7,0.018518519,-0.000925926,1,0,0,1.3972,rock_grid_rect_2,4,10,-1,-1,1.397,0.407407407,-0.385185185,1,0,0,1.471,Pumice_rect,8,1.471,0,6,0,6,0,1,,,,,,,,,,,,,
5a3bdd2c8d005a0001829f3e,TCN,2024-06-20_15h37.01.592,LearnStrategy,2023.2.3,Win32,60.60606061,1,1,8,0.039814815,0.018518519,1,0,0,1.3062,rock_grid_rect_2,8,10,-1,-1,1.306,0.410185185,-0.402777778,1,0,0,2.4049,Pumice_rect,8,2.405,1,7,0,7,0,1,,,,,,,,,,,,,
5a3bdd2c8d005a0001829f3e,TCN,2024-06-20_15h37.01.592,LearnStrategy,2023.2.3,Win32,60.60606061,1,1,9,-0.027777778,-0.021296296,1,0,0,1.0057,rock_grid_rect_2,6,08,-1,-1,1.006,-0.135185185,-0.246296296,1,0,0,2.8018,Basalt_rect,2,2.802,0,8,0,8,0,1,,,,,,,,,,,,,
5a3bdd2c8d005a0001829f3e,TCN,2024-06-20_15h37.01.592,LearnStrategy,2023.2.3,Win32,60.60606061,1,1,10,0.018518519,-0.006481481,1,0,0,1.0895,rock_grid_rect_2,1,11,-1,-1,1.09,-0.158333333,-0.259259259,1,0,0,3.1133,Basalt_rect,2,3.113,0,9,0,9,0,1,,,,,,,,,,,,,
5a3bdd2c8d005a0001829f3e,TCN,2024-06-20_15h37.01.592,LearnStrategy,2023.2.3,Win32,60.60606061,1,1,11,0.037037037,0.007407407,1,0,0,1.3553,rock_grid_rect_2,1,03,-1,-1,1.355,0.125925926,-0.387962963,1,0,0,3.4622,Peridotite_rect,7,3.462,0,10,0,10,0,1,,,,,,,,,,,,,
5a3bdd2c8d005a0001829f3e,TCN,2024-06-20_15h37.01.592,LearnStrategy,2023.2.3,Win32,60.60606061,1,1,12,-0.007407407,-0.008333333,1,0,0,1.3894,rock_grid_rect_2,7,12,-1,-1,1.389,0.164814815,-0.262037037,1,0,0,4.8845,Diorite_rect,3,4.885,0,11,0,11,0,1,,,,,,,,,,,,,
5a3bdd2c8d005a0001829f3e,TCN,2024-06-20_15h37.01.592,LearnStrategy,2023.2.3,Win32,60.60606061,1,1,13,0.021296296,-0.00462963,1,0,0,1.3723,rock_grid_rect_2,2,14,-1,-1,1.372,0.376851852,-0.263888889,1,0,0,2.6216,Gabbro_rect,4,2.622,0,12,0,12,0,1,,,,,,,,,,,,,
5a3bdd2c8d005a0001829f3e,TCN,2024-06-20_15h37.01.592,LearnStrategy,2023.2.3,Win32,60.60606061,1,1,14,0.018518519,-0.011111111,1,0,0,0.9799,rock_grid_rect_2,3,02,-1,-1,0.98,0.361111111,-0.390740741,1,0,0,3.8701,Pumice_rect,8,3.87,0,13,0,13,0,1,,,,,,,,,,,,,
5a3bdd2c8d005a0001829f3e,TCN,2024-06-20_15h37.01.592,LearnStrategy,2023.2.3,Win32,60.60606061,1,1,15,-0.087037037,-0.008333333,1,0,0,1.089,rock_grid_rect_2,8,15,-1,-1,1.089,0.409259259,-0.241666667,1,0,0,2.8174,Gabbro_rect,4,2.817,0,14,0,14,0,1,,,,,,,,,,,,,
5a3bdd2c8d005a0001829f3e,TCN,2024-06-20_15h37.01.592,LearnStrategy,2023.2.3,Win32,60.60606061,1,1,16,-0.026851852,0.005555556,1,0,0,0.9392,rock_grid_rect_2,2,02,-1,-1,0.939,-0.1,-0.410185185,1,0,0,4.4128,Pegmatite_rect,6,4.413,0,15,0,15,0,1,,,,,,,,,,,,,
5a3bdd2c8d005a0001829f3e,TCN,2024-06-20_15h37.01.592,LearnStrategy,2023.2.3,Win32,60.60606061,1,2,1,,,,,,,,1,02,,,,,,,,,,,4,5.809,0,,,,,,0.349074074,-0.247222222,1,0,0,5.8086,Gabbro_rect,0,0,0,0,1,
5a3bdd2c8d005a0001829f3e,TCN,2024-06-20_15h37.01.592,LearnStrategy,2023.2.3,Win32,60.60606061,1,2,2,,,,,,,,5,06,,,,,,,,,,,5,3.076,1,,,,,,-0.390740741,-0.382407407,1,0,0,3.0763,Obsidian_rect,1,0,1,0,1,
5a3bdd2c8d005a0001829f3e,TCN,2024-06-20_15h37.01.592,LearnStrategy,2023.2.3,Win32,60.60606061,1,2,3,,,,,,,,4,15,,,,,,,,,,,8,3.407,0,,,,,,0.372222222,-0.389814815,1,0,0,3.4072,Pumice_rect,2,0,2,0,1,
5a3bdd2c8d005a0001829f3e,TCN,2024-06-20_15h37.01.592,LearnStrategy,2023.2.3,Win32,60.60606061,1,2,4,,,,,,,,6,06,,,,,,,,,,,7,8.109,0,,,,,,0.15462963,-0.403703704,1,0,0,8.109,Peridotite_rect,3,0,3,0,1,
5a3bdd2c8d005a0001829f3e,TCN,2024-06-20_15h37.01.592,LearnStrategy,2023.2.3,Win32,60.60606061,1,2,5,,,,,,,,5,02,,,,,,,,,,,5,1.474,1,,,,,,-0.362962963,-0.385185185,1,0,0,1.4743,Obsidian_rect,4,0,4,0,1,
5a3bdd2c8d005a0001829f3e,TCN,2024-06-20_15h37.01.592,LearnStrategy,2023.2.3,Win32,60.60606061,1,2,6,,,,,,,,2,11,,,,,,,,,,,8,6.487,0,,,,,,0.432407407,-0.394444444,1,0,0,6.4867,Pumice_rect,5,0,5,0,1,
5a3bdd2c8d005a0001829f3e,TCN,2024-06-20_15h37.01.592,LearnStrategy,2023.2.3,Win32,60.60606061,1,2,7,,,,,,,,4,13,,,,,,,,,,,4,5.515,1,,,,,,0.353703704,-0.255555556,1,0,0,5.5153,Gabbro_rect,6,0,6,0,1,
5a3bdd2c8d005a0001829f3e,TCN,2024-06-20_15h37.01.592,LearnStrategy,2023.2.3,Win32,60.60606061,1,2,8,,,,,,,,7,15,,,,,,,,,,,7,3.25,1,,,,,,0.124074074,-0.396296296,1,0,0,3.2501,Peridotite_rect,7,0,7,0,1,
5a3bdd2c8d005a0001829f3e,TCN,2024-06-20_15h37.01.592,LearnStrategy,2023.2.3,Win32,60.60606061,1,2,9,,,,,,,,1,09,,,,,,,,,,,4,3.489,0,,,,,,0.378703704,-0.244444444,1,0,0,3.4893,Gabbro_rect,8,0,8,0,1,
5a3bdd2c8d005a0001829f3e,TCN,2024-06-20_15h37.01.592,LearnStrategy,2023.2.3,Win32,60.60606061,1,2,10,,,,,,,,6,09,,,,,,,,,,,6,7.6,1,,,,,,-0.10462963,-0.388888889,1,0,0,7.6004,Pegmatite_rect,9,0,9,0,1,
5a3bdd2c8d005a0001829f3e,TCN,2024-06-20_15h37.01.592,LearnStrategy,2023.2.3,Win32,60.60606061,1,2,11,,,,,,,,8,02,,,,,,,,,,,8,3.611,1,,,,,,0.400925926,-0.396296296,1,0,0,3.6106,Pumice_rect,10,0,10,0,1,
5a3bdd2c8d005a0001829f3e,TCN,2024-06-20_15h37.01.592,LearnStrategy,2023.2.3,Win32,60.60606061,1,2,12,,,,,,,,3,13,,,,,,,,,,,7,6.961,0,,,,,,0.152777778,-0.405555556,1,0,0,6.9605,Peridotite_rect,11,0,11,0,1,
5a3bdd2c8d005a0001829f3e,TCN,2024-06-20_15h37.01.592,LearnStrategy,2023.2.3,Win32,60.60606061,1,2,13,,,,,,,,7,04,,,,,,,,,,,7,10.895,1,,,,,,0.125925926,-0.390740741,1,0,0,10.8951,Peridotite_rect,12,0,12,0,1,
5a3bdd2c8d005a0001829f3e,TCN,2024-06-20_15h37.01.592,LearnStrategy,2023.2.3,Win32,60.60606061,1,2,14,,,,,,,,3,14,,,,,,,,,,,7,6.382,0,,,,,,0.12962963,-0.391666667,1,0,0,6.3821,Peridotite_rect,13,0,13,0,1,
5a3bdd2c8d005a0001829f3e,TCN,2024-06-20_15h37.01.592,LearnStrategy,2023.2.3,Win32,60.60606061,1,2,15,,,,,,,,8,03,,,,,,,,,,,8,3.949,1,,,,,,0.380555556,-0.406481481,1,0,0,3.9486,Pumice_rect,14,0,14,0,1,
5a3bdd2c8d005a0001829f3e,TCN,2024-06-20_15h37.01.592,LearnStrategy,2023.2.3,Win32,60.60606061,1,2,16,,,,,,,,2,16,,,,,,,,,,,4,4.915,0,,,,,,0.352777778,-0.232407407,1,0,0,4.9153,Gabbro_rect,15,0,15,0,1,
5a3bdd2c8d005a0001829f3e,TCN,2024-06-20_15h37.01.592,LearnStrategy,2023.2.3,Win32,60.60606061,2,1,1,-0.00462963,-0.013888889,1,0,0,1.565,rock_grid_rect_2,8,08,-1,-1,1.565,0.4,-0.402777778,1,0,0,1.9126,Pumice_rect,8,1.913,1,0,0,0,0,1,,,,,,,,,,,,,
5a3bdd2c8d005a0001829f3e,TCN,2024-06-20_15h37.01.592,LearnStrategy,2023.2.3,Win32,60.60606061,2,1,2,-0.010185185,-0.012962963,1,0,0,0.9979,rock_grid_rect_2,6,03,-1,-1,0.998,-0.123148148,-0.252777778,1,0,0,3.8467,Basalt_rect,2,3.847,0,1,0,1,0,1,,,,,,,,,,,,,
5a3bdd2c8d005a0001829f3e,TCN,2024-06-20_15h37.01.592,LearnStrategy,2023.2.3,Win32,60.60606061,2,1,3,0.064814815,0,1,0,0,3.0883,rock_grid_rect_2,5,10,-1,-1,3.088,-0.37962963,-0.259259259,1,0,0,3.4277,Andesite_rect,1,3.428,0,2,0,2,0,1,,,,,,,,,,,,,
5a3bdd2c8d005a0001829f3e,TCN,2024-06-20_15h37.01.592,LearnStrategy,2023.2.3,Win32,60.60606061,2,1,4,0.033333333,-0.000925926,1,0,0,1.2224,rock_grid_rect_2,7,14,-1,-1,1.222,0.410185185,-0.234259259,1,0,0,2.435,Gabbro_rect,4,2.435,0,3,0,3,0,1,,,,,,,,,,,,,
5a3bdd2c8d005a0001829f3e,TCN,2024-06-20_15h37.01.592,LearnStrategy,2023.2.3,Win32,60.60606061,2,1,5,-0.010185185,0.003703704,1,0,0,0.8391,rock_grid_rect_2,8,13,-1,-1,0.839,0.351851852,-0.4,1,0,0,2.1798,Pumice_rect,8,2.18,1,4,0,4,0,1,,,,,,,,,,,,,
5a3bdd2c8d005a0001829f3e,TCN,2024-06-20_15h37.01.592,LearnStrategy,2023.2.3,Win32,60.60606061,2,1,6,0.028703704,-0.009259259,1,0,0,0.9146,rock_grid_rect_2,5,09,-1,-1,0.915,-0.387962963,-0.396296296,1,0,0,2.7019,Obsidian_rect,5,2.702,1,5,0,5,0,1,,,,,,,,,,,,,
5a3bdd2c8d005a0001829f3e,TCN,2024-06-20_15h37.01.592,LearnStrategy,2023.2.3,Win32,60.60606061,2,1,7,0.000925926,-0.002777778,1,0,0,0.8474,rock_grid_rect_2,4,11,-1,-1,0.847,0.385185185,-0.239814815,1,0,0,2.6223,Gabbro_rect,4,2.622,1,6,0,6,0,1,,,,,,,,,,,,,
5a3bdd2c8d005a0001829f3e,TCN,2024-06-20_15h37.01.592,LearnStrategy,2023.2.3,Win32,60.60606061,2,1,8,0.041666667,0,1,0,0,1.0056,rock_grid_rect_2,3,12,-1,-1,1.006,-0.374074074,-0.240740741,1,0,0,3.4788,Andesite_rect,1,3.479,0,7,0,7,0,1,,,,,,,,,,,,,
5a3bdd2c8d005a0001829f3e,TCN,2024-06-20_15h37.01.592,LearnStrategy,2023.2.3,Win32,60.60606061,2,1,9,-0.026851852,-0.000925926,1,0,0,0.906,rock_grid_rect_2,2,08,-1,-1,0.906,-0.140740741,-0.235185185,1,0,0,3.6715,Basalt_rect,2,3.672,1,8,0,8,0,1,,,,,,,,,,,,,
5a3bdd2c8d005a0001829f3e,TCN,2024-06-20_15h37.01.592,LearnStrategy,2023.2.3,Win32,60.60606061,2,1,10,-0.005555556,-0.001851852,1,0,0,0.7887,rock_grid_rect_2,6,12,-1,-1,0.789,-0.107407407,-0.407407407,1,0,0,4.1105,Pegmatite_rect,6,4.111,1,9,0,9,0,1,,,,,,,,,,,,,
5a3bdd2c8d005a0001829f3e,TCN,2024-06-20_15h37.01.592,LearnStrategy,2023.2.3,Win32,60.60606061,2,1,11,0.003703704,-0.001851852,1,0,0,0.9313,rock_grid_rect_2,1,01,-1,-1,0.931,0.152777778,-0.394444444,1,0,0,6.602,Peridotite_rect,7,6.602,0,10,0,10,0,1,,,,,,,,,,,,,
5a3bdd2c8d005a0001829f3e,TCN,2024-06-20_15h37.01.592,LearnStrategy,2023.2.3,Win32,60.60606061,2,1,12,0.016666667,0.008333333,1,0,0,0.9387,rock_grid_rect_2,2,06,-1,-1,0.939,-0.121296296,-0.22962963,1,0,0,3.0521,Basalt_rect,2,3.052,1,11,0,11,0,1,,,,,,,,,,,,,
5a3bdd2c8d005a0001829f3e,TCN,2024-06-20_15h37.01.592,LearnStrategy,2023.2.3,Win32,60.60606061,2,1,13,-0.008333333,-0.000925926,1,0,0,0.8315,rock_grid_rect_2,3,16,-1,-1,0.832,0.101851852,-0.266666667,1,0,0,5.0495,Diorite_rect,3,5.05,1,12,0,12,0,1,,,,,,,,,,,,,
5a3bdd2c8d005a0001829f3e,TCN,2024-06-20_15h37.01.592,LearnStrategy,2023.2.3,Win32,60.60606061,2,1,14,0.032407407,-0.000925926,1,0,0,0.7313,rock_grid_rect_2,1,06,-1,-1,0.731,-0.396296296,-0.251851852,1,0,0,3.887,Andesite_rect,1,3.887,1,13,0,13,0,1,,,,,,,,,,,,,
5a3bdd2c8d005a0001829f3e,TCN,2024-06-20_15h37.01.592,LearnStrategy,2023.2.3,Win32,60.60606061,2,1,15,-0.009259259,-0.012962963,1,0,0,0.7397,rock_grid_rect_2,7,07,-1,-1,0.74,-0.10462963,-0.384259259,1,0,0,5.9545,Pegmatite_rect,6,5.955,0,14,0,14,0,1,,,,,,,,,,,,,
5a3bdd2c8d005a0001829f3e,TCN,2024-06-20_15h37.01.592,LearnStrategy,2023.2.3,Win32,60.60606061,2,1,16,0.053703704,-0.001851852,1,0,0,0.9887,rock_grid_rect_2,4,03,-1,-1,0.989,0.465740741,-0.22962963,1,0,0,8.0958,Gabbro_rect,4,8.096,1,15,0,15,0,1,,,,,,,,,,,,,
5a3bdd2c8d005a0001829f3e,TCN,2024-06-20_15h37.01.592,LearnStrategy,2023.2.3,Win32,60.60606061,2,2,1,,,,,,,,6,11,,,,,,,,,,,6,3.083,1,,,,,,-0.112962963,-0.391666667,1,0,0,3.0835,Pegmatite_rect,0,0,0,0,1,
5a3bdd2c8d005a0001829f3e,TCN,2024-06-20_15h37.01.592,LearnStrategy,2023.2.3,Win32,60.60606061,2,2,2,,,,,,,,6,15,,,,,,,,,,,6,1.411,1,,,,,,-0.111111111,-0.412037037,1,0,0,1.411,Pegmatite_rect,1,0,1,0,1,
5a3bdd2c8d005a0001829f3e,TCN,2024-06-20_15h37.01.592,LearnStrategy,2023.2.3,Win32,60.60606061,2,2,3,,,,,,,,3,10,,,,,,,,,,,3,5.375,1,,,,,,0.128703704,-0.255555556,1,0,0,5.3749,Diorite_rect,2,0,2,0,1,
5a3bdd2c8d005a0001829f3e,TCN,2024-06-20_15h37.01.592,LearnStrategy,2023.2.3,Win32,60.60606061,2,2,4,,,,,,,,8,09,,,,,,,,,,,8,1.749,1,,,,,,0.411111111,-0.393518519,1,0,0,1.7488,Pumice_rect,3,0,3,0,1,
5a3bdd2c8d005a0001829f3e,TCN,2024-06-20_15h37.01.592,LearnStrategy,2023.2.3,Win32,60.60606061,2,2,5,,,,,,,,8,16,,,,,,,,,,,8,1.247,1,,,,,,0.382407407,-0.39537037,1,0,0,1.2468,Pumice_rect,4,0,4,0,1,
5a3bdd2c8d005a0001829f3e,TCN,2024-06-20_15h37.01.592,LearnStrategy,2023.2.3,Win32,60.60606061,2,2,6,,,,,,,,4,12,,,,,,,,,,,4,13.413,1,,,,,,0.392592593,-0.257407407,1,0,0,13.4126,Gabbro_rect,5,0,5,0,1,
5a3bdd2c8d005a0001829f3e,TCN,2024-06-20_15h37.01.592,LearnStrategy,2023.2.3,Win32,60.60606061,2,2,7,,,,,,,,5,14,,,,,,,,,,,5,1.93,1,,,,,,-0.375,-0.390740741,1,0,0,1.9304,Obsidian_rect,6,0,6,0,1,
5a3bdd2c8d005a0001829f3e,TCN,2024-06-20_15h37.01.592,LearnStrategy,2023.2.3,Win32,60.60606061,2,2,8,,,,,,,,4,01,,,,,,,,,,,4,8.424,1,,,,,,0.366666667,-0.244444444,1,0,0,8.4244,Gabbro_rect,7,0,7,0,1,
5a3bdd2c8d005a0001829f3e,TCN,2024-06-20_15h37.01.592,LearnStrategy,2023.2.3,Win32,60.60606061,2,2,9,,,,,,,,2,12,,,,,,,,,,,8,2.148,0,,,,,,0.387037037,-0.40462963,1,0,0,2.1483,Pumice_rect,8,0,8,0,1,
5a3bdd2c8d005a0001829f3e,TCN,2024-06-20_15h37.01.592,LearnStrategy,2023.2.3,Win32,60.60606061,2,2,10,,,,,,,,1,10,,,,,,,,,,,8,1.768,0,,,,,,0.380555556,-0.417592593,1,0,0,1.7683,Pumice_rect,9,0,9,0,1,
5a3bdd2c8d005a0001829f3e,TCN,2024-06-20_15h37.01.592,LearnStrategy,2023.2.3,Win32,60.60606061,2,2,11,,,,,,,,1,16,,,,,,,,,,,6,3.006,0,,,,,,-0.160185185,-0.408333333,1,0,0,3.0056,Pegmatite_rect,10,0,10,0,1,
5a3bdd2c8d005a0001829f3e,TCN,2024-06-20_15h37.01.592,LearnStrategy,2023.2.3,Win32,60.60606061,2,2,12,,,,,,,,3,09,,,,,,,,,,,3,5.512,1,,,,,,0.121296296,-0.251851852,1,0,0,5.5116,Diorite_rect,11,0,11,0,1,
5a3bdd2c8d005a0001829f3e,TCN,2024-06-20_15h37.01.592,LearnStrategy,2023.2.3,Win32,60.60606061,2,2,13,,,,,,,,5,11,,,,,,,,,,,5,1.94,1,,,,,,-0.381481481,-0.406481481,1,0,0,1.94,Obsidian_rect,12,0,12,0,1,
5a3bdd2c8d005a0001829f3e,TCN,2024-06-20_15h37.01.592,LearnStrategy,2023.2.3,Win32,60.60606061,2,2,14,,,,,,,,7,05,,,,,,,,,,,7,4.91,1,,,,,,0.099074074,-0.399074074,1,0,0,4.9099,Peridotite_rect,13,0,13,0,1,
5a3bdd2c8d005a0001829f3e,TCN,2024-06-20_15h37.01.592,LearnStrategy,2023.2.3,Win32,60.60606061,2,2,15,,,,,,,,7,06,,,,,,,,,,,6,4.009,0,,,,,,-0.106481481,-0.402777778,1,0,0,4.0086,Pegmatite_rect,14,0,14,0,1,
5a3bdd2c8d005a0001829f3e,TCN,2024-06-20_15h37.01.592,LearnStrategy,2023.2.3,Win32,60.60606061,2,2,16,,,,,,,,2,05,,,,,,,,,,,2,3.052,1,,,,,,-0.137962963,-0.233333333,1,0,0,3.0516,Basalt_rect,15,0,15,0,1,
5a3bdd2c8d005a0001829f3e,TCN,2024-06-20_15h37.01.592,LearnStrategy,2023.2.3,Win32,60.60606061,3,1,1,0.014814815,-0.008333333,1,0,0,1.4653,rock_grid_rect_2,6,10,-1,-1,1.465,-0.117592593,-0.403703704,1,0,0,5.0819,Pegmatite_rect,6,5.082,1,0,0,0,0,1,,,,,,,,,,,,,
5a3bdd2c8d005a0001829f3e,TCN,2024-06-20_15h37.01.592,LearnStrategy,2023.2.3,Win32,60.60606061,3,1,2,0.003703704,0,1,0,0,0.8146,rock_grid_rect_2,3,08,-1,-1,0.815,0.106481481,-0.262037037,1,0,0,3.9234,Diorite_rect,3,3.923,1,1,0,1,0,1,,,,,,,,,,,,,
5a3bdd2c8d005a0001829f3e,TCN,2024-06-20_15h37.01.592,LearnStrategy,2023.2.3,Win32,60.60606061,3,1,3,-0.017592593,-0.00462963,1,0,0,1.4648,rock_grid_rect_2,5,07,-1,-1,1.465,-0.406481481,-0.408333333,1,0,0,3.7347,Obsidian_rect,5,3.735,1,2,0,2,0,1,,,,,,,,,,,,,
5a3bdd2c8d005a0001829f3e,TCN,2024-06-20_15h37.01.592,LearnStrategy,2023.2.3,Win32,60.60606061,3,1,4,0.015740741,-0.005555556,1,0,0,0.8313,rock_grid_rect_2,5,05,-1,-1,0.831,-0.369444444,-0.391666667,1,0,0,1.3868,Obsidian_rect,5,1.387,1,3,0,3,0,1,,,,,,,,,,,,,
5a3bdd2c8d005a0001829f3e,TCN,2024-06-20_15h37.01.592,LearnStrategy,2023.2.3,Win32,60.60606061,3,1,5,0.026851852,0.003703704,1,0,0,0.7648,rock_grid_rect_2,6,07,-1,-1,0.765,-0.130555556,-0.4,1,0,0,4.0192,Pegmatite_rect,6,4.019,1,4,0,4,0,1,,,,,,,,,,,,,
5a3bdd2c8d005a0001829f3e,TCN,2024-06-20_15h37.01.592,LearnStrategy,2023.2.3,Win32,60.60606061,3,1,6,0.027777778,-0.016666667,1,0,0,0.9196,rock_grid_rect_2,4,08,-1,-1,0.92,-0.113888889,-0.238888889,1,0,0,8.2488,Basalt_rect,2,8.249,0,5,0,5,0,1,,,,,,,,,,,,,
5a3bdd2c8d005a0001829f3e,TCN,2024-06-20_15h37.01.592,LearnStrategy,2023.2.3,Win32,60.60606061,3,1,7,0.060185185,-0.009259259,1,0,0,0.9315,rock_grid_rect_2,2,10,-1,-1,0.931,-0.149074074,-0.253703704,1,0,0,4.4136,Basalt_rect,2,4.414,1,6,0,6,0,1,,,,,,,,,,,,,
5a3bdd2c8d005a0001829f3e,TCN,2024-06-20_15h37.01.592,LearnStrategy,2023.2.3,Win32,60.60606061,3,1,8,0.032407407,-0.014814815,1,0,0,0.7813,rock_grid_rect_2,8,14,-1,-1,0.781,0.430555556,-0.408333333,1,0,0,1.3514,Pumice_rect,8,1.351,1,7,0,7,0,1,,,,,,,,,,,,,
5a3bdd2c8d005a0001829f3e,TCN,2024-06-20_15h37.01.592,LearnStrategy,2023.2.3,Win32,60.60606061,3,1,9,-0.007407407,-0.008333333,1,0,0,0.9068,rock_grid_rect_2,4,14,-1,-1,0.907,-0.372222222,-0.237962963,1,0,0,5.1364,Andesite_rect,1,5.136,0,8,0,8,0,1,,,,,,,,,,,,,
5a3bdd2c8d005a0001829f3e,TCN,2024-06-20_15h37.01.592,LearnStrategy,2023.2.3,Win32,60.60606061,3,1,10,-0.010185185,-0.014814815,1,0,0,0.8478,rock_grid_rect_2,1,05,-1,-1,0.848,0.122222222,-0.388888889,1,0,0,7.0912,Peridotite_rect,7,7.091,0,9,0,9,0,1,,,,,,,,,,,,,
5a3bdd2c8d005a0001829f3e,TCN,2024-06-20_15h37.01.592,LearnStrategy,2023.2.3,Win32,60.60606061,3,1,11,0.028703704,-0.024074074,1,0,0,0.8054,rock_grid_rect_2,8,06,-1,-1,0.805,0.389814815,-0.409259259,1,0,0,3.3508,Pumice_rect,8,3.351,1,10,0,10,0,1,,,,,,,,,,,,,
5a3bdd2c8d005a0001829f3e,TCN,2024-06-20_15h37.01.592,LearnStrategy,2023.2.3,Win32,60.60606061,3,1,12,0.013888889,0.000925926,1,0,0,0.7149,rock_grid_rect_2,7,16,-1,-1,0.715,0.412962963,-0.250925926,1,0,0,7.1224,Gabbro_rect,4,7.122,0,11,0,11,0,1,,,,,,,,,,,,,
5a3bdd2c8d005a0001829f3e,TCN,2024-06-20_15h37.01.592,LearnStrategy,2023.2.3,Win32,60.60606061,3,1,13,-0.014814815,0.009259259,1,0,0,0.773,rock_grid_rect_2,2,09,-1,-1,0.773,-0.135185185,-0.24537037,1,0,0,4.028,Basalt_rect,2,4.028,1,12,0,12,0,1,,,,,,,,,,,,,
5a3bdd2c8d005a0001829f3e,TCN,2024-06-20_15h37.01.592,LearnStrategy,2023.2.3,Win32,60.60606061,3,1,14,0.025,0.001851852,1,0,0,1.0812,rock_grid_rect_2,1,07,-1,-1,1.081,0.131481481,-0.384259259,1,0,0,15.5037,Peridotite_rect,7,15.504,0,13,0,13,0,1,,,,,,,,,,,,,
5a3bdd2c8d005a0001829f3e,TCN,2024-06-20_15h37.01.592,LearnStrategy,2023.2.3,Win32,60.60606061,3,1,15,-0.02037037,-0.010185185,1,0,0,0.9145,rock_grid_rect_2,7,10,-1,-1,0.914,0.117592593,-0.381481481,1,0,0,8.3615,Peridotite_rect,7,8.361,1,14,0,14,0,1,,,,,,,,,,,,,
5a3bdd2c8d005a0001829f3e,TCN,2024-06-20_15h37.01.592,LearnStrategy,2023.2.3,Win32,60.60606061,3,1,16,0.049074074,-0.023148148,1,0,0,0.8145,rock_grid_rect_2,3,11,-1,-1,0.814,0.107407407,-0.231481481,1,0,0,3.1048,Diorite_rect,3,3.105,1,15,0,15,0,1,,,,,,,,,,,,,
5a3bdd2c8d005a0001829f3e,TCN,2024-06-20_15h37.01.592,LearnStrategy,2023.2.3,Win32,60.60606061,3,2,1,,,,,,,,2,04,,,,,,,,,,,2,5.356,1,,,,,,-0.097222222,-0.250925926,1,0,0,5.3565,Basalt_rect,0,0,0,0,1,
5a3bdd2c8d005a0001829f3e,TCN,2024-06-20_15h37.01.592,LearnStrategy,2023.2.3,Win32,60.60606061,3,2,2,,,,,,,,7,02,,,,,,,,,,,7,7.019,1,,,,,,0.138888889,-0.391666667,1,0,0,7.0189,Peridotite_rect,1,0,1,0,1,
5a3bdd2c8d005a0001829f3e,TCN,2024-06-20_15h37.01.592,LearnStrategy,2023.2.3,Win32,60.60606061,3,2,3,,,,,,,,5,04,,,,,,,,,,,5,1.559,1,,,,,,-0.386111111,-0.401851852,1,0,0,1.5589,Obsidian_rect,2,0,2,0,1,
5a3bdd2c8d005a0001829f3e,TCN,2024-06-20_15h37.01.592,LearnStrategy,2023.2.3,Win32,60.60606061,3,2,4,,,,,,,,3,06,,,,,,,,,,,3,3.022,1,,,,,,0.116666667,-0.255555556,1,0,0,3.0215,Diorite_rect,3,0,3,0,1,
5a3bdd2c8d005a0001829f3e,TCN,2024-06-20_15h37.01.592,LearnStrategy,2023.2.3,Win32,60.60606061,3,2,5,,,,,,,,4,05,,,,,,,,,,,1,6.279,0,,,,,,-0.375925926,-0.25462963,1,0,0,6.2793,Andesite_rect,4,0,4,0,1,
5a3bdd2c8d005a0001829f3e,TCN,2024-06-20_15h37.01.592,LearnStrategy,2023.2.3,Win32,60.60606061,3,2,6,,,,,,,,8,05,,,,,,,,,,,8,1.673,1,,,,,,0.396296296,-0.392592593,1,0,0,1.6733,Pumice_rect,5,0,5,0,1,
5a3bdd2c8d005a0001829f3e,TCN,2024-06-20_15h37.01.592,LearnStrategy,2023.2.3,Win32,60.60606061,3,2,7,,,,,,,,1,04,,,,,,,,,,,1,7.722,1,,,,,,-0.35462963,-0.246296296,1,0,0,7.7217,Andesite_rect,6,0,6,0,1,
5a3bdd2c8d005a0001829f3e,TCN,2024-06-20_15h37.01.592,LearnStrategy,2023.2.3,Win32,60.60606061,3,2,8,,,,,,,,4,09,,,,,,,,,,,4,4.287,1,,,,,,0.414814815,-0.230555556,1,0,0,4.287,Gabbro_rect,7,0,7,0,1,
5a3bdd2c8d005a0001829f3e,TCN,2024-06-20_15h37.01.592,LearnStrategy,2023.2.3,Win32,60.60606061,3,2,9,,,,,,,,5,12,,,,,,,,,,,5,1.18,1,,,,,,-0.433333333,-0.400925926,1,0,0,1.1804,Obsidian_rect,8,0,8,0,1,
5a3bdd2c8d005a0001829f3e,TCN,2024-06-20_15h37.01.592,LearnStrategy,2023.2.3,Win32,60.60606061,3,2,10,,,,,,,,7,13,,,,,,,,,,,7,7.581,1,,,,,,0.146296296,-0.394444444,1,0,0,7.5807,Peridotite_rect,9,0,9,0,1,
5a3bdd2c8d005a0001829f3e,TCN,2024-06-20_15h37.01.592,LearnStrategy,2023.2.3,Win32,60.60606061,3,2,11,,,,,,,,8,04,,,,,,,,,,,8,1.063,1,,,,,,0.374074074,-0.4,1,0,0,1.0631,Pumice_rect,10,0,10,0,1,
5a3bdd2c8d005a0001829f3e,TCN,2024-06-20_15h37.01.592,LearnStrategy,2023.2.3,Win32,60.60606061,3,2,12,,,,,,,,3,15,,,,,,,,,,,3,3.045,1,,,,,,0.108333333,-0.249074074,1,0,0,3.0453,Diorite_rect,11,0,11,0,1,
5a3bdd2c8d005a0001829f3e,TCN,2024-06-20_15h37.01.592,LearnStrategy,2023.2.3,Win32,60.60606061,3,2,13,,,,,,,,2,01,,,,,,,,,,,2,2.804,1,,,,,,-0.14537037,-0.262037037,1,0,0,2.8042,Basalt_rect,12,0,12,0,1,
5a3bdd2c8d005a0001829f3e,TCN,2024-06-20_15h37.01.592,LearnStrategy,2023.2.3,Win32,60.60606061,3,2,14,,,,,,,,1,14,,,,,,,,,,,1,8.594,1,,,,,,-0.408333333,-0.242592593,1,0,0,8.5944,Andesite_rect,13,0,13,0,1,
5a3bdd2c8d005a0001829f3e,TCN,2024-06-20_15h37.01.592,LearnStrategy,2023.2.3,Win32,60.60606061,3,2,15,,,,,,,,6,16,,,,,,,,,,,6,4.552,1,,,,,,-0.114814815,-0.383333333,1,0,0,4.5515,Pegmatite_rect,14,0,14,0,1,
5a3bdd2c8d005a0001829f3e,TCN,2024-06-20_15h37.01.592,LearnStrategy,2023.2.3,Win32,60.60606061,3,2,16,,,,,,,,6,13,,,,,,,,,,,6,1.125,1,,,,,,-0.134259259,-0.392592593,1,0,0,1.1252,Pegmatite_rect,15,0,15,0,1,
5a3bdd2c8d005a0001829f3e,TCN,2024-06-20_15h37.01.592,LearnStrategy,2023.2.3,Win32,60.60606061,4,1,1,-0.028703704,0.000925926,1,0,0,1.0985,rock_grid_rect_2,6,03,-1,-1,1.099,-0.14537037,-0.401851852,1,0,0,3.4758,Pegmatite_rect,6,3.476,1,0,0,0,0,1,,,,,,,,,,,,,
5a3bdd2c8d005a0001829f3e,TCN,2024-06-20_15h37.01.592,LearnStrategy,2023.2.3,Win32,60.60606061,4,1,2,0.014814815,-0.016666667,1,0,0,0.8979,rock_grid_rect_2,2,14,-1,-1,0.898,0.378703704,-0.393518519,1,0,0,2.1919,Pumice_rect,8,2.192,0,1,0,1,0,1,,,,,,,,,,,,,
5a3bdd2c8d005a0001829f3e,TCN,2024-06-20_15h37.01.592,LearnStrategy,2023.2.3,Win32,60.60606061,4,1,3,-0.006481481,0.007407407,1,0,0,2.7314,rock_grid_rect_2,1,01,-1,-1,2.731,0.137037037,-0.393518519,1,0,0,6.2368,Peridotite_rect,7,6.237,0,2,0,2,0,1,,,,,,,,,,,,,
5a3bdd2c8d005a0001829f3e,TCN,2024-06-20_15h37.01.592,LearnStrategy,2023.2.3,Win32,60.60606061,4,1,4,-0.00462963,-0.013888889,1,0,0,0.9267,rock_grid_rect_2,3,11,-1,-1,0.927,0.102777778,-0.257407407,1,0,0,2.9557,Diorite_rect,3,2.956,1,3,0,3,0,1,,,,,,,,,,,,,
5a3bdd2c8d005a0001829f3e,TCN,2024-06-20_15h37.01.592,LearnStrategy,2023.2.3,Win32,60.60606061,4,1,5,0.046296296,-0.015740741,1,0,0,0.9145,rock_grid_rect_2,6,10,-1,-1,0.915,-0.093518519,-0.389814815,1,0,0,4.0377,Pegmatite_rect,6,4.038,1,4,0,4,0,1,,,,,,,,,,,,,
5a3bdd2c8d005a0001829f3e,TCN,2024-06-20_15h37.01.592,LearnStrategy,2023.2.3,Win32,60.60606061,4,1,6,0.001851852,0.009259259,1,0,0,1.1982,rock_grid_rect_2,8,10,-1,-1,1.198,0.373148148,-0.419444444,1,0,0,1.3722,Pumice_rect,8,1.372,1,5,0,5,0,1,,,,,,,,,,,,,
5a3bdd2c8d005a0001829f3e,TCN,2024-06-20_15h37.01.592,LearnStrategy,2023.2.3,Win32,60.60606061,4,1,7,-0.000925926,-0.009259259,1,0,0,0.8481,rock_grid_rect_2,4,08,-1,-1,0.848,0.421296296,-0.242592593,1,0,0,2.7964,Gabbro_rect,4,2.796,1,6,0,6,0,1,,,,,,,,,,,,,
5a3bdd2c8d005a0001829f3e,TCN,2024-06-20_15h37.01.592,LearnStrategy,2023.2.3,Win32,60.60606061,4,1,8,0.012037037,0.006481481,1,0,0,0.7146,rock_grid_rect_2,5,09,-1,-1,0.715,-0.414814815,-0.394444444,1,0,0,1.2188,Obsidian_rect,5,1.219,1,7,0,7,0,1,,,,,,,,,,,,,
5a3bdd2c8d005a0001829f3e,TCN,2024-06-20_15h37.01.592,LearnStrategy,2023.2.3,Win32,60.60606061,4,1,9,-0.005555556,-0.001851852,1,0,0,0.7186,rock_grid_rect_2,8,15,-1,-1,0.719,0.349074074,-0.415740741,1,0,0,1.4284,Pumice_rect,8,1.428,1,8,0,8,0,1,,,,,,,,,,,,,
5a3bdd2c8d005a0001829f3e,TCN,2024-06-20_15h37.01.592,LearnStrategy,2023.2.3,Win32,60.60606061,4,1,10,-0.008333333,0.003703704,1,0,0,0.7354,rock_grid_rect_2,7,08,-1,-1,0.735,0.093518519,-0.388888889,1,0,0,4.4509,Peridotite_rect,7,4.451,1,9,0,9,0,1,,,,,,,,,,,,,
5a3bdd2c8d005a0001829f3e,TCN,2024-06-20_15h37.01.592,LearnStrategy,2023.2.3,Win32,60.60606061,4,1,11,0.011111111,0,1,0,0,0.6976,rock_grid_rect_2,1,06,-1,-1,0.698,-0.358333333,-0.259259259,1,0,0,3.2014,Andesite_rect,1,3.201,1,10,0,10,0,1,,,,,,,,,,,,,
5a3bdd2c8d005a0001829f3e,TCN,2024-06-20_15h37.01.592,LearnStrategy,2023.2.3,Win32,60.60606061,4,1,12,-0.031481481,-0.010185185,1,0,0,0.7641,rock_grid_rect_2,3,07,-1,-1,0.764,0.128703704,-0.247222222,1,0,0,3.8135,Diorite_rect,3,3.813,1,11,0,11,0,1,,,,,,,,,,,,,
5a3bdd2c8d005a0001829f3e,TCN,2024-06-20_15h37.01.592,LearnStrategy,2023.2.3,Win32,60.60606061,4,1,13,-0.021296296,-0.005555556,1,0,0,0.7143,rock_grid_rect_2,2,09,-1,-1,0.714,-0.132407407,-0.252777778,1,0,0,2.5684,Basalt_rect,2,2.568,1,12,0,12,0,1,,,,,,,,,,,,,
5a3bdd2c8d005a0001829f3e,TCN,2024-06-20_15h37.01.592,LearnStrategy,2023.2.3,Win32,60.60606061,4,1,14,-0.030555556,-0.00462963,1,0,0,0.7313,rock_grid_rect_2,7,07,-1,-1,0.731,0.140740741,-0.39537037,1,0,0,4.1527,Peridotite_rect,7,4.153,1,13,0,13,0,1,,,,,,,,,,,,,
5a3bdd2c8d005a0001829f3e,TCN,2024-06-20_15h37.01.592,LearnStrategy,2023.2.3,Win32,60.60606061,4,1,15,0.024074074,-0.008333333,1,0,0,0.7807,rock_grid_rect_2,4,11,-1,-1,0.781,0.418518519,-0.246296296,1,0,0,2.2168,Gabbro_rect,4,2.217,1,14,0,14,0,1,,,,,,,,,,,,,
5a3bdd2c8d005a0001829f3e,TCN,2024-06-20_15h37.01.592,LearnStrategy,2023.2.3,Win32,60.60606061,4,1,16,-0.030555556,0,1,0,0,0.6809,rock_grid_rect_2,5,05,-1,-1,0.681,-0.369444444,-0.386111111,1,0,0,1.1452,Obsidian_rect,5,1.145,1,15,0,15,0,1,,,,,,,,,,,,,
5a3bdd2c8d005a0001829f3e,TCN,2024-06-20_15h37.01.592,LearnStrategy,2023.2.3,Win32,60.60606061,4,2,1,,,,,,,,6,06,,,,,,,,,,,6,2.595,1,,,,,,-0.1,-0.399074074,1,0,0,2.5947,Pegmatite_rect,0,0,0,0,1,
5a3bdd2c8d005a0001829f3e,TCN,2024-06-20_15h37.01.592,LearnStrategy,2023.2.3,Win32,60.60606061,4,2,2,,,,,,,,7,04,,,,,,,,,,,6,4.179,0,,,,,,-0.141666667,-0.397222222,1,0,0,4.179,Pegmatite_rect,1,0,1,0,1,
5a3bdd2c8d005a0001829f3e,TCN,2024-06-20_15h37.01.592,LearnStrategy,2023.2.3,Win32,60.60606061,4,2,3,,,,,,,,1,16,,,,,,,,,,,7,4.134,0,,,,,,0.118518519,-0.389814815,1,0,0,4.1344,Peridotite_rect,2,0,2,0,1,
5a3bdd2c8d005a0001829f3e,TCN,2024-06-20_15h37.01.592,LearnStrategy,2023.2.3,Win32,60.60606061,4,2,4,,,,,,,,6,13,,,,,,,,,,,6,3.104,1,,,,,,-0.102777778,-0.401851852,1,0,0,3.1038,Pegmatite_rect,3,0,3,0,1,
5a3bdd2c8d005a0001829f3e,TCN,2024-06-20_15h37.01.592,LearnStrategy,2023.2.3,Win32,60.60606061,4,2,5,,,,,,,,4,12,,,,,,,,,,,4,4.636,1,,,,,,0.397222222,-0.244444444,1,0,0,4.6358,Gabbro_rect,4,0,4,0,1,
5a3bdd2c8d005a0001829f3e,TCN,2024-06-20_15h37.01.592,LearnStrategy,2023.2.3,Win32,60.60606061,4,2,6,,,,,,,,2,04,,,,,,,,,,,2,4.846,1,,,,,,-0.162962963,-0.261111111,1,0,0,4.846,Basalt_rect,5,0,5,0,1,
5a3bdd2c8d005a0001829f3e,TCN,2024-06-20_15h37.01.592,LearnStrategy,2023.2.3,Win32,60.60606061,4,2,7,,,,,,,,5,12,,,,,,,,,,,5,1.079,1,,,,,,-0.359259259,-0.387037037,1,0,0,1.0794,Obsidian_rect,6,0,6,0,1,
5a3bdd2c8d005a0001829f3e,TCN,2024-06-20_15h37.01.592,LearnStrategy,2023.2.3,Win32,60.60606061,4,2,8,,,,,,,,3,06,,,,,,,,,,,3,2.991,1,,,,,,0.088888889,-0.244444444,1,0,0,2.9912,Diorite_rect,7,0,7,0,1,
5a3bdd2c8d005a0001829f3e,TCN,2024-06-20_15h37.01.592,LearnStrategy,2023.2.3,Win32,60.60606061,4,2,9,,,,,,,,8,05,,,,,,,,,,,8,1.612,1,,,,,,0.358333333,-0.388888889,1,0,0,1.6122,Pumice_rect,8,0,8,0,1,
5a3bdd2c8d005a0001829f3e,TCN,2024-06-20_15h37.01.592,LearnStrategy,2023.2.3,Win32,60.60606061,4,2,10,,,,,,,,8,16,,,,,,,,,,,8,1.022,1,,,,,,0.386111111,-0.388888889,1,0,0,1.022,Pumice_rect,9,0,9,0,1,
5a3bdd2c8d005a0001829f3e,TCN,2024-06-20_15h37.01.592,LearnStrategy,2023.2.3,Win32,60.60606061,4,2,11,,,,,,,,7,15,,,,,,,,,,,7,2.864,1,,,,,,0.1,-0.389814815,1,0,0,2.8644,Peridotite_rect,10,0,10,0,1,
5a3bdd2c8d005a0001829f3e,TCN,2024-06-20_15h37.01.592,LearnStrategy,2023.2.3,Win32,60.60606061,4,2,12,,,,,,,,4,15,,,,,,,,,,,1,2.491,0,,,,,,-0.327777778,-0.271296296,1,0,0,2.4913,Andesite_rect,11,0,11,0,1,
5a3bdd2c8d005a0001829f3e,TCN,2024-06-20_15h37.01.592,LearnStrategy,2023.2.3,Win32,60.60606061,4,2,13,,,,,,,,3,15,,,,,,,,,,,7,6.104,0,,,,,,0.107407407,-0.405555556,1,0,0,6.1041,Peridotite_rect,12,0,12,0,1,
5a3bdd2c8d005a0001829f3e,TCN,2024-06-20_15h37.01.592,LearnStrategy,2023.2.3,Win32,60.60606061,4,2,14,,,,,,,,2,12,,,,,,,,,,,8,2.143,0,,,,,,0.392592593,-0.389814815,1,0,0,2.1433,Pumice_rect,13,0,13,0,1,
5a3bdd2c8d005a0001829f3e,TCN,2024-06-20_15h37.01.592,LearnStrategy,2023.2.3,Win32,60.60606061,4,2,15,,,,,,,,5,04,,,,,,,,,,,5,1.149,1,,,,,,-0.391666667,-0.411111111,1,0,0,1.1485,Obsidian_rect,14,0,14,0,1,
5a3bdd2c8d005a0001829f3e,TCN,2024-06-20_15h37.01.592,LearnStrategy,2023.2.3,Win32,60.60606061,4,2,16,,,,,,,,1,09,,,,,,,,,,,4,2.381,0,,,,,,0.434259259,-0.27037037,1,0,0,2.381,Gabbro_rect,15,0,15,0,1,
5a3bdd2c8d005a0001829f3e,TCN,2024-06-20_15h37.01.592,LearnStrategy,2023.2.3,Win32,60.60606061,5,1,1,0.036111111,0.007407407,1,0,0,2.7817,rock_grid_rect_2,3,16,-1,-1,2.782,0.116666667,-0.238888889,1,0,0,3.7488,Diorite_rect,3,3.749,1,0,0,0,0,1,,,,,,,,,,,,,
5a3bdd2c8d005a0001829f3e,TCN,2024-06-20_15h37.01.592,LearnStrategy,2023.2.3,Win32,60.60606061,5,1,2,-0.006481481,-0.009259259,1,0,0,0.8646,rock_grid_rect_2,2,10,-1,-1,0.865,-0.123148148,-0.265740741,1,0,0,4.0058,Basalt_rect,2,4.006,1,1,0,1,0,1,,,,,,,,,,,,,
5a3bdd2c8d005a0001829f3e,TCN,2024-06-20_15h37.01.592,LearnStrategy,2023.2.3,Win32,60.60606061,5,1,3,0.036111111,-0.018518519,1,0,0,0.9813,rock_grid_rect_2,1,03,-1,-1,0.981,-0.35462963,-0.244444444,1,0,0,3.0638,Andesite_rect,1,3.064,1,2,0,2,0,1,,,,,,,,,,,,,
5a3bdd2c8d005a0001829f3e,TCN,2024-06-20_15h37.01.592,LearnStrategy,2023.2.3,Win32,60.60606061,5,1,4,-0.060185185,-0.005555556,1,0,0,0.6979,rock_grid_rect_2,3,08,-1,-1,0.698,0.121296296,-0.255555556,1,0,0,4.1548,Diorite_rect,3,4.155,1,3,0,3,0,1,,,,,,,,,,,,,
5a3bdd2c8d005a0001829f3e,TCN,2024-06-20_15h37.01.592,LearnStrategy,2023.2.3,Win32,60.60606061,5,1,5,0.025925926,-0.014814815,1,0,0,0.6975,rock_grid_rect_2,6,05,-1,-1,0.697,-0.093518519,-0.393518519,1,0,0,2.807,Pegmatite_rect,6,2.807,1,4,0,4,0,1,,,,,,,,,,,,,
5a3bdd2c8d005a0001829f3e,TCN,2024-06-20_15h37.01.592,LearnStrategy,2023.2.3,Win32,60.60606061,5,1,6,0.012962963,-0.011111111,1,0,0,0.7138,rock_grid_rect_2,6,08,-1,-1,0.714,-0.110185185,-0.400925926,1,0,0,1.8084,Pegmatite_rect,6,1.808,1,5,0,5,0,1,,,,,,,,,,,,,
5a3bdd2c8d005a0001829f3e,TCN,2024-06-20_15h37.01.592,LearnStrategy,2023.2.3,Win32,60.60606061,5,1,7,-0.012962963,-0.005555556,1,0,0,0.7569,rock_grid_rect_2,4,03,-1,-1,0.757,-0.389814815,-0.242592593,1,0,0,4.2259,Andesite_rect,1,4.226,0,6,0,6,0,1,,,,,,,,,,,,,
5a3bdd2c8d005a0001829f3e,TCN,2024-06-20_15h37.01.592,LearnStrategy,2023.2.3,Win32,60.60606061,5,1,8,0.02037037,-0.000925926,1,0,0,0.8507,rock_grid_rect_2,5,10,-1,-1,0.851,-0.37037037,-0.386111111,1,0,0,1.6023,Obsidian_rect,5,1.602,1,7,0,7,0,1,,,,,,,,,,,,,
5a3bdd2c8d005a0001829f3e,TCN,2024-06-20_15h37.01.592,LearnStrategy,2023.2.3,Win32,60.60606061,5,1,9,-0.053703704,-0.013888889,1,0,0,0.7482,rock_grid_rect_2,5,07,-1,-1,0.748,-0.347222222,-0.389814815,1,0,0,2.4796,Obsidian_rect,5,2.48,1,8,0,8,0,1,,,,,,,,,,,,,
5a3bdd2c8d005a0001829f3e,TCN,2024-06-20_15h37.01.592,LearnStrategy,2023.2.3,Win32,60.60606061,5,1,10,-0.019444444,-0.007407407,1,0,0,0.6564,rock_grid_rect_2,8,08,-1,-1,0.656,0.376851852,-0.391666667,1,0,0,1.6637,Pumice_rect,8,1.664,1,9,0,9,0,1,,,,,,,,,,,,,
5a3bdd2c8d005a0001829f3e,TCN,2024-06-20_15h37.01.592,LearnStrategy,2023.2.3,Win32,60.60606061,5,1,11,-0.012962963,0.000925926,1,0,0,0.7649,rock_grid_rect_2,2,02,-1,-1,0.765,-0.123148148,-0.233333333,1,0,0,1.7621,Basalt_rect,2,1.762,1,10,0,10,0,1,,,,,,,,,,,,,
5a3bdd2c8d005a0001829f3e,TCN,2024-06-20_15h37.01.592,LearnStrategy,2023.2.3,Win32,60.60606061,5,1,12,-0.067592593,-0.018518519,1,0,0,0.6644,rock_grid_rect_2,8,14,-1,-1,0.664,0.358333333,-0.396296296,1,0,0,1.1552,Pumice_rect,8,1.155,1,11,0,11,0,1,,,,,,,,,,,,,
5a3bdd2c8d005a0001829f3e,TCN,2024-06-20_15h37.01.592,LearnStrategy,2023.2.3,Win32,60.60606061,5,1,13,-0.011111111,-0.006481481,1,0,0,0.6821,rock_grid_rect_2,7,12,-1,-1,0.682,0.124074074,-0.39537037,1,0,0,3.1534,Peridotite_rect,7,3.153,1,12,0,12,0,1,,,,,,,,,,,,,
5a3bdd2c8d005a0001829f3e,TCN,2024-06-20_15h37.01.592,LearnStrategy,2023.2.3,Win32,60.60606061,5,1,14,-0.012962963,-0.007407407,1,0,0,0.6521,rock_grid_rect_2,1,05,-1,-1,0.652,-0.343518519,-0.244444444,1,0,0,2.3148,Andesite_rect,1,2.315,1,13,0,13,0,1,,,,,,,,,,,,,
5a3bdd2c8d005a0001829f3e,TCN,2024-06-20_15h37.01.592,LearnStrategy,2023.2.3,Win32,60.60606061,5,1,15,0.000925926,0.002777778,1,0,0,0.7313,rock_grid_rect_2,4,16,-1,-1,0.731,-0.118518519,-0.248148148,1,0,0,2.8983,Basalt_rect,2,2.898,0,14,0,14,0,1,,,,,,,,,,,,,
5a3bdd2c8d005a0001829f3e,TCN,2024-06-20_15h37.01.592,LearnStrategy,2023.2.3,Win32,60.60606061,5,1,16,0.007407407,-0.008333333,1,0,0,0.9306,rock_grid_rect_2,7,14,-1,-1,0.931,0.376851852,-0.22962963,1,0,0,2.254,Gabbro_rect,4,2.254,0,15,0,15,0,1,,,,,,,,,,,,,
5a3bdd2c8d005a0001829f3e,TCN,2024-06-20_15h37.01.592,LearnStrategy,2023.2.3,Win32,60.60606061,5,2,1,,,,,,,,7,06,,,,,,,,,,,6,4.734,0,,,,,,-0.133333333,-0.391666667,1,0,0,4.734,Pegmatite_rect,0,0,0,0,1,
5a3bdd2c8d005a0001829f3e,TCN,2024-06-20_15h37.01.592,LearnStrategy,2023.2.3,Win32,60.60606061,5,2,2,,,,,,,,1,10,,,,,,,,,,,4,1.867,0,,,,,,0.40462963,-0.258333333,1,0,0,1.8674,Gabbro_rect,1,0,1,0,1,
5a3bdd2c8d005a0001829f3e,TCN,2024-06-20_15h37.01.592,LearnStrategy,2023.2.3,Win32,60.60606061,5,2,3,,,,,,,,6,09,,,,,,,,,,,6,1.724,1,,,,,,-0.087962963,-0.37962963,1,0,0,1.7243,Pegmatite_rect,2,0,2,0,1,
5a3bdd2c8d005a0001829f3e,TCN,2024-06-20_15h37.01.592,LearnStrategy,2023.2.3,Win32,60.60606061,5,2,4,,,,,,,,1,04,,,,,,,,,,,1,3.991,1,,,,,,-0.372222222,-0.237037037,1,0,0,3.9908,Andesite_rect,3,0,3,0,1,
5a3bdd2c8d005a0001829f3e,TCN,2024-06-20_15h37.01.592,LearnStrategy,2023.2.3,Win32,60.60606061,5,2,5,,,,,,,,2,16,,,,,,,,,,,4,4.105,0,,,,,,0.373148148,-0.244444444,1,0,0,4.1051,Gabbro_rect,4,0,4,0,1,
5a3bdd2c8d005a0001829f3e,TCN,2024-06-20_15h37.01.592,LearnStrategy,2023.2.3,Win32,60.60606061,5,2,6,,,,,,,,5,11,,,,,,,,,,,5,1.072,1,,,,,,-0.380555556,-0.4,1,0,0,1.0718,Obsidian_rect,5,0,5,0,1,
5a3bdd2c8d005a0001829f3e,TCN,2024-06-20_15h37.01.592,LearnStrategy,2023.2.3,Win32,60.60606061,5,2,7,,,,,,,,3,10,,,,,,,,,,,1,5.606,0,,,,,,-0.32962963,-0.262962963,1,0,0,5.6057,Andesite_rect,6,0,6,0,1,
5a3bdd2c8d005a0001829f3e,TCN,2024-06-20_15h37.01.592,LearnStrategy,2023.2.3,Win32,60.60606061,5,2,8,,,,,,,,8,09,,,,,,,,,,,8,1.082,1,,,,,,0.378703704,-0.396296296,1,0,0,1.0823,Pumice_rect,7,0,7,0,1,
5a3bdd2c8d005a0001829f3e,TCN,2024-06-20_15h37.01.592,LearnStrategy,2023.2.3,Win32,60.60606061,5,2,9,,,,,,,,5,06,,,,,,,,,,,5,1.031,1,,,,,,-0.331481481,-0.400925926,1,0,0,1.0308,Obsidian_rect,8,0,8,0,1,
5a3bdd2c8d005a0001829f3e,TCN,2024-06-20_15h37.01.592,LearnStrategy,2023.2.3,Win32,60.60606061,5,2,10,,,,,,,,2,01,,,,,,,,,,,2,1.78,1,,,,,,-0.100925926,-0.233333333,1,0,0,1.7802,Basalt_rect,9,0,9,0,1,
5a3bdd2c8d005a0001829f3e,TCN,2024-06-20_15h37.01.592,LearnStrategy,2023.2.3,Win32,60.60606061,5,2,11,,,,,,,,8,03,,,,,,,,,,,8,4.793,1,,,,,,0.388888889,-0.393518519,1,0,0,4.793,Pumice_rect,10,0,10,0,1,
5a3bdd2c8d005a0001829f3e,TCN,2024-06-20_15h37.01.592,LearnStrategy,2023.2.3,Win32,60.60606061,5,2,12,,,,,,,,4,01,,,,,,,,,,,4,3.994,1,,,,,,0.362962963,-0.257407407,1,0,0,3.9942,Gabbro_rect,11,0,11,0,1,
5a3bdd2c8d005a0001829f3e,TCN,2024-06-20_15h37.01.592,LearnStrategy,2023.2.3,Win32,60.60606061,5,2,13,,,,,,,,7,02,,,,,,,,,,,7,3.09,1,,,,,,0.14537037,-0.399074074,1,0,0,3.09,Peridotite_rect,12,0,12,0,1,
5a3bdd2c8d005a0001829f3e,TCN,2024-06-20_15h37.01.592,LearnStrategy,2023.2.3,Win32,60.60606061,5,2,14,,,,,,,,4,13,,,,,,,,,,,1,1.658,0,,,,,,-0.399074074,-0.255555556,1,0,0,1.6578,Andesite_rect,13,0,13,0,1,
5a3bdd2c8d005a0001829f3e,TCN,2024-06-20_15h37.01.592,LearnStrategy,2023.2.3,Win32,60.60606061,5,2,15,,,,,,,,6,11,,,,,,,,,,,6,2.155,1,,,,,,-0.169444444,-0.39537037,1,0,0,2.155,Pegmatite_rect,14,0,14,0,1,
5a3bdd2c8d005a0001829f3e,TCN,2024-06-20_15h37.01.592,LearnStrategy,2023.2.3,Win32,60.60606061,5,2,16,,,,,,,,3,14,,,,,,,,,,,3,3.569,1,,,,,,0.148148148,-0.247222222,1,0,0,3.569,Diorite_rect,15,0,15,0,1,
5a3bdd2c8d005a0001829f3e,TCN,2024-06-20_15h37.01.592,LearnStrategy,2023.2.3,Win32,60.60606061,6,1,1,-0.033333333,-0.006481481,1,0,0,1.2153,rock_grid_rect_2,5,08,-1,-1,1.215,-0.409259259,-0.413888889,1,0,0,1.8199,Obsidian_rect,5,1.82,1,0,0,0,0,1,,,,,,,,,,,,,
5a3bdd2c8d005a0001829f3e,TCN,2024-06-20_15h37.01.592,LearnStrategy,2023.2.3,Win32,60.60606061,6,1,2,-0.075925926,-0.02037037,1,0,0,1.0938,rock_grid_rect_2,3,02,-1,-1,1.094,0.099074074,-0.248148148,1,0,0,3.5445,Diorite_rect,3,3.544,1,1,0,1,0,1,,,,,,,,,,,,,
5a3bdd2c8d005a0001829f3e,TCN,2024-06-20_15h37.01.592,LearnStrategy,2023.2.3,Win32,60.60606061,6,1,3,-0.013888889,-0.009259259,1,0,0,0.964,rock_grid_rect_2,2,06,-1,-1,0.964,-0.118518519,-0.246296296,1,0,0,1.7677,Basalt_rect,2,1.768,1,2,0,2,0,1,,,,,,,,,,,,,
5a3bdd2c8d005a0001829f3e,TCN,2024-06-20_15h37.01.592,LearnStrategy,2023.2.3,Win32,60.60606061,6,1,4,0.008333333,-0.011111111,1,0,0,0.6479,rock_grid_rect_2,8,13,-1,-1,0.648,0.365740741,-0.396296296,1,0,0,1.4713,Pumice_rect,8,1.471,1,3,0,3,0,1,,,,,,,,,,,,,
5a3bdd2c8d005a0001829f3e,TCN,2024-06-20_15h37.01.592,LearnStrategy,2023.2.3,Win32,60.60606061,6,1,5,0.011111111,-0.012962963,1,0,0,0.665,rock_grid_rect_2,6,12,-1,-1,0.665,0.139814815,-0.266666667,1,0,0,6.0841,Diorite_rect,3,6.084,0,4,0,4,0,1,,,,,,,,,,,,,
5a3bdd2c8d005a0001829f3e,TCN,2024-06-20_15h37.01.592,LearnStrategy,2023.2.3,Win32,60.60606061,6,1,6,-0.001851852,-0.010185185,1,0,0,0.8059,rock_grid_rect_2,3,12,-1,-1,0.806,0.128703704,-0.249074074,1,0,0,5.6135,Diorite_rect,3,5.613,1,5,0,5,0,1,,,,,,,,,,,,,
5a3bdd2c8d005a0001829f3e,TCN,2024-06-20_15h37.01.592,LearnStrategy,2023.2.3,Win32,60.60606061,6,1,7,0.001851852,-0.007407407,1,0,0,0.948,rock_grid_rect_2,1,11,-1,-1,0.948,-0.391666667,-0.247222222,1,0,0,1.73,Andesite_rect,1,1.73,1,6,0,6,0,1,,,,,,,,,,,,,
5a3bdd2c8d005a0001829f3e,TCN,2024-06-20_15h37.01.592,LearnStrategy,2023.2.3,Win32,60.60606061,6,1,8,-0.047222222,0.014814815,1,0,0,0.6982,rock_grid_rect_2,5,16,-1,-1,0.698,-0.366666667,-0.37962963,1,0,0,1.1581,Obsidian_rect,5,1.158,1,7,0,7,0,1,,,,,,,,,,,,,
5a3bdd2c8d005a0001829f3e,TCN,2024-06-20_15h37.01.592,LearnStrategy,2023.2.3,Win32,60.60606061,6,1,9,-0.022222222,-0.019444444,1,0,0,0.7985,rock_grid_rect_2,2,08,-1,-1,0.798,-0.112962963,-0.243518519,1,0,0,1.3662,Basalt_rect,2,1.366,1,8,0,8,0,1,,,,,,,,,,,,,
5a3bdd2c8d005a0001829f3e,TCN,2024-06-20_15h37.01.592,LearnStrategy,2023.2.3,Win32,60.60606061,6,1,10,0.057407407,-0.011111111,1,0,0,0.6808,rock_grid_rect_2,7,16,-1,-1,0.681,0.332407407,-0.267592593,1,0,0,4.3555,Gabbro_rect,4,4.355,0,9,0,9,0,1,,,,,,,,,,,,,
5a3bdd2c8d005a0001829f3e,TCN,2024-06-20_15h37.01.592,LearnStrategy,2023.2.3,Win32,60.60606061,6,1,11,-0.047222222,-0.013888889,1,0,0,2.6801,rock_grid_rect_2,8,06,-1,-1,2.68,0.413888889,-0.403703704,1,0,0,3.2783,Pumice_rect,8,3.278,1,10,0,10,0,1,,,,,,,,,,,,,
5a3bdd2c8d005a0001829f3e,TCN,2024-06-20_15h37.01.592,LearnStrategy,2023.2.3,Win32,60.60606061,6,1,12,0.009259259,0.010185185,1,0,0,0.7223,rock_grid_rect_2,7,10,-1,-1,0.722,0.123148148,-0.393518519,1,0,0,3.364,Peridotite_rect,7,3.364,1,11,0,11,0,1,,,,,,,,,,,,,
5a3bdd2c8d005a0001829f3e,TCN,2024-06-20_15h37.01.592,LearnStrategy,2023.2.3,Win32,60.60606061,6,1,13,0.009259259,-0.000925926,1,0,0,0.7305,rock_grid_rect_2,1,07,-1,-1,0.73,-0.360185185,-0.231481481,1,0,0,3.0179,Andesite_rect,1,3.018,1,12,0,12,0,1,,,,,,,,,,,,,
5a3bdd2c8d005a0001829f3e,TCN,2024-06-20_15h37.01.592,LearnStrategy,2023.2.3,Win32,60.60606061,6,1,14,-0.006481481,-0.02037037,1,0,0,0.8393,rock_grid_rect_2,4,10,-1,-1,0.839,0.35,-0.240740741,1,0,0,3.4709,Gabbro_rect,4,3.471,1,13,0,13,0,1,,,,,,,,,,,,,
5a3bdd2c8d005a0001829f3e,TCN,2024-06-20_15h37.01.592,LearnStrategy,2023.2.3,Win32,60.60606061,6,1,15,-0.047222222,-0.016666667,1,0,0,0.6486,rock_grid_rect_2,4,14,-1,-1,0.649,0.401851852,-0.237037037,1,0,0,2.6855,Gabbro_rect,4,2.686,1,14,0,14,0,1,,,,,,,,,,,,,
5a3bdd2c8d005a0001829f3e,TCN,2024-06-20_15h37.01.592,LearnStrategy,2023.2.3,Win32,60.60606061,6,1,16,0.012037037,-0.012037037,1,0,0,0.7144,rock_grid_rect_2,6,07,-1,-1,0.714,-0.118518519,-0.410185185,1,0,0,1.4142,Pegmatite_rect,6,1.414,1,15,0,15,0,1,,,,,,,,,,,,,
5a3bdd2c8d005a0001829f3e,TCN,2024-06-20_15h37.01.592,LearnStrategy,2023.2.3,Win32,60.60606061,6,2,1,,,,,,,,6,16,,,,,,,,,,,6,1.44,1,,,,,,-0.15462963,-0.393518519,1,0,0,1.4404,Pegmatite_rect,0,0,0,0,1,
5a3bdd2c8d005a0001829f3e,TCN,2024-06-20_15h37.01.592,LearnStrategy,2023.2.3,Win32,60.60606061,6,2,2,,,,,,,,8,04,,,,,,,,,,,8,1.279,1,,,,,,0.391666667,-0.381481481,1,0,0,1.2787,Pumice_rect,1,0,1,0,1,
5a3bdd2c8d005a0001829f3e,TCN,2024-06-20_15h37.01.592,LearnStrategy,2023.2.3,Win32,60.60606061,6,2,3,,,,,,,,8,02,,,,,,,,,,,8,1.053,1,,,,,,0.386111111,-0.413888889,1,0,0,1.0531,Pumice_rect,2,0,2,0,1,
5a3bdd2c8d005a0001829f3e,TCN,2024-06-20_15h37.01.592,LearnStrategy,2023.2.3,Win32,60.60606061,6,2,4,,,,,,,,5,14,,,,,,,,,,,5,1.067,1,,,,,,-0.348148148,-0.408333333,1,0,0,1.067,Obsidian_rect,3,0,3,0,1,
5a3bdd2c8d005a0001829f3e,TCN,2024-06-20_15h37.01.592,LearnStrategy,2023.2.3,Win32,60.60606061,6,2,5,,,,,,,,1,14,,,,,,,,,,,1,2.846,1,,,,,,-0.384259259,-0.24537037,1,0,0,2.8463,Andesite_rect,4,0,4,0,1,
5a3bdd2c8d005a0001829f3e,TCN,2024-06-20_15h37.01.592,LearnStrategy,2023.2.3,Win32,60.60606061,6,2,6,,,,,,,,7,05,,,,,,,,,,,4,1.958,0,,,,,,0.396296296,-0.231481481,1,0,0,1.9583,Gabbro_rect,5,0,5,0,1,
5a3bdd2c8d005a0001829f3e,TCN,2024-06-20_15h37.01.592,LearnStrategy,2023.2.3,Win32,60.60606061,6,2,7,,,,,,,,4,05,,,,,,,,,,,4,1.571,1,,,,,,0.394444444,-0.237962963,1,0,0,1.5711,Gabbro_rect,6,0,6,0,1,
5a3bdd2c8d005a0001829f3e,TCN,2024-06-20_15h37.01.592,LearnStrategy,2023.2.3,Win32,60.60606061,6,2,8,,,,,,,,4,09,,,,,,,,,,,4,3.038,1,,,,,,0.380555556,-0.236111111,1,0,0,3.0376,Gabbro_rect,7,0,7,0,1,
5a3bdd2c8d005a0001829f3e,TCN,2024-06-20_15h37.01.592,LearnStrategy,2023.2.3,Win32,60.60606061,6,2,9,,,,,,,,6,15,,,,,,,,,,,6,4.73,1,,,,,,-0.092592593,-0.396296296,1,0,0,4.73,Pegmatite_rect,8,0,8,0,1,
5a3bdd2c8d005a0001829f3e,TCN,2024-06-20_15h37.01.592,LearnStrategy,2023.2.3,Win32,60.60606061,6,2,10,,,,,,,,7,13,,,,,,,,,,,7,3.707,1,,,,,,0.059259259,-0.396296296,1,0,0,3.7066,Peridotite_rect,9,0,9,0,1,
5a3bdd2c8d005a0001829f3e,TCN,2024-06-20_15h37.01.592,LearnStrategy,2023.2.3,Win32,60.60606061,6,2,11,,,,,,,,2,05,,,,,,,,,,,2,1.198,1,,,,,,-0.172222222,-0.251851852,1,0,0,1.1978,Basalt_rect,10,0,10,0,1,
5a3bdd2c8d005a0001829f3e,TCN,2024-06-20_15h37.01.592,LearnStrategy,2023.2.3,Win32,60.60606061,6,2,12,,,,,,,,3,09,,,,,,,,,,,3,1.982,1,,,,,,0.106481481,-0.25,1,0,0,1.9816,Diorite_rect,11,0,11,0,1,
5a3bdd2c8d005a0001829f3e,TCN,2024-06-20_15h37.01.592,LearnStrategy,2023.2.3,Win32,60.60606061,6,2,13,,,,,,,,1,02,,,,,,,,,,,1,1.667,1,,,,,,-0.362037037,-0.24537037,1,0,0,1.6674,Andesite_rect,12,0,12,0,1,
5a3bdd2c8d005a0001829f3e,TCN,2024-06-20_15h37.01.592,LearnStrategy,2023.2.3,Win32,60.60606061,6,2,14,,,,,,,,2,11,,,,,,,,,,,8,3.097,0,,,,,,0.391666667,-0.397222222,1,0,0,3.0974,Pumice_rect,13,0,13,0,1,
5a3bdd2c8d005a0001829f3e,TCN,2024-06-20_15h37.01.592,LearnStrategy,2023.2.3,Win32,60.60606061,6,2,15,,,,,,,,5,02,,,,,,,,,,,5,1.199,1,,,,,,-0.35,-0.383333333,1,0,0,1.1991,Obsidian_rect,14,0,14,0,1,
5a3bdd2c8d005a0001829f3e,TCN,2024-06-20_15h37.01.592,LearnStrategy,2023.2.3,Win32,60.60606061,6,2,16,,,,,,,,3,13,,,,,,,,,,,3,5.401,1,,,,,,0.10462963,-0.25,1,0,0,5.4007,Diorite_rect,15,0,15,0,1,
5a3bdd2c8d005a0001829f3e,TCN,2024-06-20_15h37.01.592,LearnStrategy,2023.2.3,Win32,60.60606061,7,1,1,0.017592593,-0.02037037,1,0,0,4.8647,rock_grid_rect_2,6,12,-1,-1,4.865,0.115740741,-0.40462963,1,0,0,7.238,Peridotite_rect,7,7.238,0,0,0,0,0,1,,,,,,,,,,,,,
5a3bdd2c8d005a0001829f3e,TCN,2024-06-20_15h37.01.592,LearnStrategy,2023.2.3,Win32,60.60606061,7,1,2,-0.025,0.001851852,1,0,0,6.0554,rock_grid_rect_2,2,08,-1,-1,6.055,-0.085185185,-0.250925926,1,0,0,3.1354,Basalt_rect,2,3.135,1,1,0,1,0,1,,,,,,,,,,,,,
5a3bdd2c8d005a0001829f3e,TCN,2024-06-20_15h37.01.592,LearnStrategy,2023.2.3,Win32,60.60606061,7,1,3,0.030555556,-0.007407407,1,0,0,3.6795,rock_grid_rect_2,7,07,-1,-1,3.679,0.14537037,-0.390740741,1,0,0,3.4982,Peridotite_rect,7,3.498,1,2,0,2,0,1,,,,,,,,,,,,,
5a3bdd2c8d005a0001829f3e,TCN,2024-06-20_15h37.01.592,LearnStrategy,2023.2.3,Win32,60.60606061,7,1,4,0.038888889,-0.000925926,1,0,0,0.6975,rock_grid_rect_2,5,09,-1,-1,0.697,-0.388888889,-0.418518519,1,0,0,1.2277,Obsidian_rect,5,1.228,1,3,0,3,0,1,,,,,,,,,,,,,
5a3bdd2c8d005a0001829f3e,TCN,2024-06-20_15h37.01.592,LearnStrategy,2023.2.3,Win32,60.60606061,7,1,5,-0.037037037,-0.012037037,1,0,0,3.4485,rock_grid_rect_2,4,08,-1,-1,3.448,0.409259259,-0.262962963,1,0,0,2.9529,Gabbro_rect,4,2.953,1,4,0,4,0,1,,,,,,,,,,,,,
5a3bdd2c8d005a0001829f3e,TCN,2024-06-20_15h37.01.592,LearnStrategy,2023.2.3,Win32,60.60606061,7,1,6,-0.010185185,0.007407407,1,0,0,1.9554,rock_grid_rect_2,4,03,-1,-1,1.955,0.413888889,-0.234259259,1,0,0,2.9123,Gabbro_rect,4,2.912,1,5,0,5,0,1,,,,,,,,,,,,,
5a3bdd2c8d005a0001829f3e,TCN,2024-06-20_15h37.01.592,LearnStrategy,2023.2.3,Win32,60.60606061,7,1,7,0.019444444,0.012037037,1,0,0,15.5384,rock_grid_rect_2,6,08,-1,-1,15.538,-0.10462963,-0.39537037,1,0,0,2.8003,Pegmatite_rect,6,2.8,1,6,0,6,0,1,,,,,,,,,,,,,
5a3bdd2c8d005a0001829f3e,TCN,2024-06-20_15h37.01.592,LearnStrategy,2023.2.3,Win32,60.60606061,7,1,8,0.040740741,-0.005555556,1,0,0,0.7647,rock_grid_rect_2,8,06,-1,-1,0.765,0.402777778,-0.396296296,1,0,0,1.177,Pumice_rect,8,1.177,1,7,0,7,0,1,,,,,,,,,,,,,
5a3bdd2c8d005a0001829f3e,TCN,2024-06-20_15h37.01.592,LearnStrategy,2023.2.3,Win32,60.60606061,7,1,9,-0.013888889,-0.012037037,1,0,0,0.7315,rock_grid_rect_2,1,03,-1,-1,0.731,-0.350925926,-0.256481481,1,0,0,2.2901,Andesite_rect,1,2.29,1,8,0,8,0,1,,,,,,,,,,,,,
5a3bdd2c8d005a0001829f3e,TCN,2024-06-20_15h37.01.592,LearnStrategy,2023.2.3,Win32,60.60606061,7,1,10,-0.049074074,0.013888889,1,0,0,0.6598,rock_grid_rect_2,8,14,-1,-1,0.66,0.362962963,-0.392592593,1,0,0,1.5579,Pumice_rect,8,1.558,1,9,0,9,0,1,,,,,,,,,,,,,
5a3bdd2c8d005a0001829f3e,TCN,2024-06-20_15h37.01.592,LearnStrategy,2023.2.3,Win32,60.60606061,7,1,11,-0.022222222,0.019444444,1,0,0,2.2232,rock_grid_rect_2,7,08,-1,-1,2.223,0.162962963,-0.399074074,1,0,0,6.0506,Peridotite_rect,7,6.051,1,10,0,10,0,1,,,,,,,,,,,,,
5a3bdd2c8d005a0001829f3e,TCN,2024-06-20_15h37.01.592,LearnStrategy,2023.2.3,Win32,60.60606061,7,1,12,0.000925926,-0.016666667,1,0,0,0.6477,rock_grid_rect_2,2,10,-1,-1,0.648,-0.139814815,-0.251851852,1,0,0,1.4253,Basalt_rect,2,1.425,1,11,0,11,0,1,,,,,,,,,,,,,
5a3bdd2c8d005a0001829f3e,TCN,2024-06-20_15h37.01.592,LearnStrategy,2023.2.3,Win32,60.60606061,7,1,13,-0.028703704,-0.005555556,1,0,0,0.8506,rock_grid_rect_2,3,07,-1,-1,0.851,0.139814815,-0.232407407,1,0,0,1.4875,Diorite_rect,3,1.487,1,12,0,12,0,1,,,,,,,,,,,,,
5a3bdd2c8d005a0001829f3e,TCN,2024-06-20_15h37.01.592,LearnStrategy,2023.2.3,Win32,60.60606061,7,1,14,-0.011111111,-0.00462963,1,0,0,0.6484,rock_grid_rect_2,5,08,-1,-1,0.648,-0.339814815,-0.380555556,1,0,0,1.0652,Obsidian_rect,5,1.065,1,13,0,13,0,1,,,,,,,,,,,,,
5a3bdd2c8d005a0001829f3e,TCN,2024-06-20_15h37.01.592,LearnStrategy,2023.2.3,Win32,60.60606061,7,1,15,-0.000925926,0.007407407,1,0,0,0.5985,rock_grid_rect_2,1,07,-1,-1,0.599,-0.367592593,-0.25,1,0,0,1.9203,Andesite_rect,1,1.92,1,14,0,14,0,1,,,,,,,,,,,,,
5a3bdd2c8d005a0001829f3e,TCN,2024-06-20_15h37.01.592,LearnStrategy,2023.2.3,Win32,60.60606061,7,1,16,-0.014814815,0,1,0,0,0.6608,rock_grid_rect_2,3,02,-1,-1,0.661,0.15462963,-0.253703704,1,0,0,2.8309,Diorite_rect,3,2.831,1,15,0,15,0,1,,,,,,,,,,,,,
5a3bdd2c8d005a0001829f3e,TCN,2024-06-20_15h37.01.592,LearnStrategy,2023.2.3,Win32,60.60606061,7,2,1,,,,,,,,2,12,,,,,,,,,,,8,1.435,0,,,,,,0.389814815,-0.391666667,1,0,0,1.4347,Pumice_rect,0,0,0,0,1,
5a3bdd2c8d005a0001829f3e,TCN,2024-06-20_15h37.01.592,LearnStrategy,2023.2.3,Win32,60.60606061,7,2,2,,,,,,,,7,02,,,,,,,,,,,7,3.62,1,,,,,,0.144444444,-0.394444444,1,0,0,3.6204,Peridotite_rect,1,0,1,0,1,
5a3bdd2c8d005a0001829f3e,TCN,2024-06-20_15h37.01.592,LearnStrategy,2023.2.3,Win32,60.60606061,7,2,3,,,,,,,,3,09,,,,,,,,,,,3,1.474,1,,,,,,0.116666667,-0.25462963,1,0,0,1.4744,Diorite_rect,2,0,2,0,1,
5a3bdd2c8d005a0001829f3e,TCN,2024-06-20_15h37.01.592,LearnStrategy,2023.2.3,Win32,60.60606061,7,2,4,,,,,,,,8,16,,,,,,,,,,,8,1.063,1,,,,,,0.362962963,-0.397222222,1,0,0,1.0635,Pumice_rect,3,0,3,0,1,
5a3bdd2c8d005a0001829f3e,TCN,2024-06-20_15h37.01.592,LearnStrategy,2023.2.3,Win32,60.60606061,7,2,5,,,,,,,,3,14,,,,,,,,,,,3,1.287,1,,,,,,0.12962963,-0.240740741,1,0,0,1.2867,Diorite_rect,4,0,4,0,1,
5a3bdd2c8d005a0001829f3e,TCN,2024-06-20_15h37.01.592,LearnStrategy,2023.2.3,Win32,60.60606061,7,2,6,,,,,,,,6,15,,,,,,,,,,,6,1.549,1,,,,,,-0.088888889,-0.381481481,1,0,0,1.549,Pegmatite_rect,5,0,5,0,1,
5a3bdd2c8d005a0001829f3e,TCN,2024-06-20_15h37.01.592,LearnStrategy,2023.2.3,Win32,60.60606061,7,2,7,,,,,,,,5,14,,,,,,,,,,,5,1.474,1,,,,,,-0.368518519,-0.406481481,1,0,0,1.4739,Obsidian_rect,6,0,6,0,1,
5a3bdd2c8d005a0001829f3e,TCN,2024-06-20_15h37.01.592,LearnStrategy,2023.2.3,Win32,60.60606061,7,2,8,,,,,,,,8,05,,,,,,,,,,,8,1.021,1,,,,,,0.40462963,-0.384259259,1,0,0,1.0206,Pumice_rect,7,0,7,0,1,
5a3bdd2c8d005a0001829f3e,TCN,2024-06-20_15h37.01.592,LearnStrategy,2023.2.3,Win32,60.60606061,7,2,9,,,,,,,,4,09,,,,,,,,,,,4,2.691,1,,,,,,0.423148148,-0.265740741,1,0,0,2.6911,Gabbro_rect,8,0,8,0,1,
5a3bdd2c8d005a0001829f3e,TCN,2024-06-20_15h37.01.592,LearnStrategy,2023.2.3,Win32,60.60606061,7,2,10,,,,,,,,1,04,,,,,,,,,,,4,6.837,0,,,,,,0.380555556,-0.27037037,1,0,0,6.8366,Gabbro_rect,9,0,9,0,1,
5a3bdd2c8d005a0001829f3e,TCN,2024-06-20_15h37.01.592,LearnStrategy,2023.2.3,Win32,60.60606061,7,2,11,,,,,,,,5,12,,,,,,,,,,,5,1.02,1,,,,,,-0.403703704,-0.409259259,1,0,0,1.0199,Obsidian_rect,10,0,10,0,1,
5a3bdd2c8d005a0001829f3e,TCN,2024-06-20_15h37.01.592,LearnStrategy,2023.2.3,Win32,60.60606061,7,2,12,,,,,,,,4,12,,,,,,,,,,,4,3.021,1,,,,,,0.388888889,-0.237962963,1,0,0,3.0207,Gabbro_rect,11,0,11,0,1,
5a3bdd2c8d005a0001829f3e,TCN,2024-06-20_15h37.01.592,LearnStrategy,2023.2.3,Win32,60.60606061,7,2,13,,,,,,,,7,04,,,,,,,,,,,6,6.583,0,,,,,,-0.087037037,-0.4,1,0,0,6.5834,Pegmatite_rect,12,0,12,0,1,
5a3bdd2c8d005a0001829f3e,TCN,2024-06-20_15h37.01.592,LearnStrategy,2023.2.3,Win32,60.60606061,7,2,14,,,,,,,,2,11,,,,,,,,,,,8,2.354,0,,,,,,0.433333333,-0.403703704,1,0,0,2.3539,Pumice_rect,13,0,13,0,1,
5a3bdd2c8d005a0001829f3e,TCN,2024-06-20_15h37.01.592,LearnStrategy,2023.2.3,Win32,60.60606061,7,2,15,,,,,,,,1,16,,,,,,,,,,,1,1.991,1,,,,,,-0.419444444,-0.267592593,1,0,0,1.9912,Andesite_rect,14,0,14,0,1,
5a3bdd2c8d005a0001829f3e,TCN,2024-06-20_15h37.01.592,LearnStrategy,2023.2.3,Win32,60.60606061,7,2,16,,,,,,,,6,11,,,,,,,,,,,6,1.178,1,,,,,,-0.131481481,-0.393518519,1,0,0,1.1784,Pegmatite_rect,15,0,15,0,1,
5a3bdd2c8d005a0001829f3e,TCN,2024-06-20_15h37.01.592,LearnStrategy,2023.2.3,Win32,60.60606061,8,1,1,0.007407407,0.006481481,1,0,0,12.2145,rock_grid_rect_2,5,07,-1,-1,12.214,-0.338888889,-0.383333333,1,0,0,2.3108,Obsidian_rect,5,2.311,1,0,0,0,0,1,,,,,,,,,,,,,
5a3bdd2c8d005a0001829f3e,TCN,2024-06-20_15h37.01.592,LearnStrategy,2023.2.3,Win32,60.60606061,8,1,2,-0.018518519,0.007407407,1,0,0,10.1892,rock_grid_rect_2,6,10,-1,-1,10.189,-0.132407407,-0.39537037,1,0,0,2.281,Pegmatite_rect,6,2.281,1,1,0,1,0,1,,,,,,,,,,,,,
5a3bdd2c8d005a0001829f3e,TCN,2024-06-20_15h37.01.592,LearnStrategy,2023.2.3,Win32,60.60606061,8,1,3,-0.071296296,-0.012037037,1,0,0,1.0307,rock_grid_rect_2,6,03,-1,-1,1.031,-0.116666667,-0.417592593,1,0,0,1.2291,Pegmatite_rect,6,1.229,1,2,0,2,0,1,,,,,,,,,,,,,
5a3bdd2c8d005a0001829f3e,TCN,2024-06-20_15h37.01.592,LearnStrategy,2023.2.3,Win32,60.60606061,8,1,4,-0.008333333,-0.008333333,1,0,0,0.6316,rock_grid_rect_2,8,15,-1,-1,0.632,0.409259259,-0.403703704,1,0,0,1.0919,Pumice_rect,8,1.092,1,3,0,3,0,1,,,,,,,,,,,,,
5a3bdd2c8d005a0001829f3e,TCN,2024-06-20_15h37.01.592,LearnStrategy,2023.2.3,Win32,60.60606061,8,1,5,-0.007407407,-0.003703704,1,0,0,0.5477,rock_grid_rect_2,3,11,-1,-1,0.548,0.135185185,-0.253703704,1,0,0,2.5851,Diorite_rect,3,2.585,1,4,0,4,0,1,,,,,,,,,,,,,
5a3bdd2c8d005a0001829f3e,TCN,2024-06-20_15h37.01.592,LearnStrategy,2023.2.3,Win32,60.60606061,8,1,6,0.048148148,0,1,0,0,0.5975,rock_grid_rect_2,5,16,-1,-1,0.597,-0.338888889,-0.403703704,1,0,0,1.0563,Obsidian_rect,5,1.056,1,5,0,5,0,1,,,,,,,,,,,,,
5a3bdd2c8d005a0001829f3e,TCN,2024-06-20_15h37.01.592,LearnStrategy,2023.2.3,Win32,60.60606061,8,1,7,0.011111111,0.005555556,1,0,0,0.5981,rock_grid_rect_2,4,16,-1,-1,0.598,-0.113888889,-0.246296296,1,0,0,1.3675,Basalt_rect,2,1.367,0,6,0,6,0,1,,,,,,,,,,,,,
5a3bdd2c8d005a0001829f3e,TCN,2024-06-20_15h37.01.592,LearnStrategy,2023.2.3,Win32,60.60606061,8,1,8,-0.010185185,-0.013888889,1,0,0,0.6981,rock_grid_rect_2,1,06,-1,-1,0.698,-0.425,-0.246296296,1,0,0,1.2527,Andesite_rect,1,1.253,1,7,0,7,0,1,,,,,,,,,,,,,
5a3bdd2c8d005a0001829f3e,TCN,2024-06-20_15h37.01.592,LearnStrategy,2023.2.3,Win32,60.60606061,8,1,9,-0.030555556,-0.000925926,1,0,0,0.5887,rock_grid_rect_2,7,16,-1,-1,0.589,0.372222222,-0.233333333,1,0,0,2.6811,Gabbro_rect,4,2.681,0,8,0,8,0,1,,,,,,,,,,,,,
5a3bdd2c8d005a0001829f3e,TCN,2024-06-20_15h37.01.592,LearnStrategy,2023.2.3,Win32,60.60606061,8,1,10,-0.010185185,-0.002777778,1,0,0,0.881,rock_grid_rect_2,7,10,-1,-1,0.881,0.117592593,-0.396296296,1,0,0,1.8857,Peridotite_rect,7,1.886,1,9,0,9,0,1,,,,,,,,,,,,,
5a3bdd2c8d005a0001829f3e,TCN,2024-06-20_15h37.01.592,LearnStrategy,2023.2.3,Win32,60.60606061,8,1,11,0.007407407,-0.006481481,1,0,0,0.685,rock_grid_rect_2,3,16,-1,-1,0.685,0.118518519,-0.268518519,1,0,0,1.4393,Diorite_rect,3,1.439,1,10,0,10,0,1,,,,,,,,,,,,,
5a3bdd2c8d005a0001829f3e,TCN,2024-06-20_15h37.01.592,LearnStrategy,2023.2.3,Win32,60.60606061,8,1,12,0.009259259,-0.000925926,1,0,0,0.5649,rock_grid_rect_2,2,09,-1,-1,0.565,0.409259259,-0.266666667,1,0,0,2.4385,Gabbro_rect,4,2.438,0,11,0,11,0,1,,,,,,,,,,,,,
5a3bdd2c8d005a0001829f3e,TCN,2024-06-20_15h37.01.592,LearnStrategy,2023.2.3,Win32,60.60606061,8,1,13,0.005555556,0.010185185,1,0,0,0.7476,rock_grid_rect_2,2,14,-1,-1,0.748,0.333333333,-0.407407407,1,0,0,1.3548,Pumice_rect,8,1.355,0,12,0,12,0,1,,,,,,,,,,,,,
5a3bdd2c8d005a0001829f3e,TCN,2024-06-20_15h37.01.592,LearnStrategy,2023.2.3,Win32,60.60606061,8,1,14,0.012037037,-0.015740741,1,0,0,0.857,rock_grid_rect_2,1,05,-1,-1,0.857,-0.364814815,-0.253703704,1,0,0,2.3168,Andesite_rect,1,2.317,1,13,0,13,0,1,,,,,,,,,,,,,
5a3bdd2c8d005a0001829f3e,TCN,2024-06-20_15h37.01.592,LearnStrategy,2023.2.3,Win32,60.60606061,8,1,15,-0.02037037,-0.011111111,1,0,0,0.6644,rock_grid_rect_2,8,10,-1,-1,0.664,0.362962963,-0.394444444,1,0,0,1.0982,Pumice_rect,8,1.098,1,14,0,14,0,1,,,,,,,,,,,,,
5a3bdd2c8d005a0001829f3e,TCN,2024-06-20_15h37.01.592,LearnStrategy,2023.2.3,Win32,60.60606061,8,1,16,0.018518519,-0.011111111,1,0,0,0.6148,rock_grid_rect_2,4,14,-1,-1,0.615,0.459259259,-0.259259259,1,0,0,2.0874,Gabbro_rect,4,2.087,1,15,0,15,0,1,,,,,,,,,,,,,
5a3bdd2c8d005a0001829f3e,TCN,2024-06-20_15h37.01.592,LearnStrategy,2023.2.3,Win32,60.60606061,8,2,1,,,,,,,,8,02,,,,,,,,,,,8,1.346,1,,,,,,0.387962963,-0.398148148,1,0,0,1.3456,Pumice_rect,0,0,0,0,1,
5a3bdd2c8d005a0001829f3e,TCN,2024-06-20_15h37.01.592,LearnStrategy,2023.2.3,Win32,60.60606061,8,2,2,,,,,,,,8,04,,,,,,,,,,,8,1.178,1,,,,,,0.37962963,-0.394444444,1,0,0,1.178,Pumice_rect,1,0,1,0,1,
5a3bdd2c8d005a0001829f3e,TCN,2024-06-20_15h37.01.592,LearnStrategy,2023.2.3,Win32,60.60606061,8,2,3,,,,,,,,7,13,,,,,,,,,,,7,2.563,1,,,,,,0.125925926,-0.403703704,1,0,0,2.5634,Peridotite_rect,2,0,2,0,1,
5a3bdd2c8d005a0001829f3e,TCN,2024-06-20_15h37.01.592,LearnStrategy,2023.2.3,Win32,60.60606061,8,2,4,,,,,,,,1,02,,,,,,,,,,,1,2.197,1,,,,,,-0.367592593,-0.240740741,1,0,0,2.1965,Andesite_rect,3,0,3,0,1,
5a3bdd2c8d005a0001829f3e,TCN,2024-06-20_15h37.01.592,LearnStrategy,2023.2.3,Win32,60.60606061,8,2,5,,,,,,,,4,05,,,,,,,,,,,4,2.245,1,,,,,,0.431481481,-0.247222222,1,0,0,2.2454,Gabbro_rect,4,0,4,0,1,
5a3bdd2c8d005a0001829f3e,TCN,2024-06-20_15h37.01.592,LearnStrategy,2023.2.3,Win32,60.60606061,8,2,6,,,,,,,,3,06,,,,,,,,,,,3,5.56,1,,,,,,0.142592593,-0.235185185,1,0,0,5.5601,Diorite_rect,5,0,5,0,1,
5a3bdd2c8d005a0001829f3e,TCN,2024-06-20_15h37.01.592,LearnStrategy,2023.2.3,Win32,60.60606061,8,2,7,,,,,,,,2,01,,,,,,,,,,,2,2.449,1,,,,,,-0.135185185,-0.252777778,1,0,0,2.4493,Basalt_rect,6,0,6,0,1,
5a3bdd2c8d005a0001829f3e,TCN,2024-06-20_15h37.01.592,LearnStrategy,2023.2.3,Win32,60.60606061,8,2,8,,,,,,,,6,09,,,,,,,,,,,6,1.5,1,,,,,,-0.12962963,-0.397222222,1,0,0,1.5001,Pegmatite_rect,7,0,7,0,1,
5a3bdd2c8d005a0001829f3e,TCN,2024-06-20_15h37.01.592,LearnStrategy,2023.2.3,Win32,60.60606061,8,2,9,,,,,,,,4,15,,,,,,,,,,,1,2.019,0,,,,,,-0.375925926,-0.237962963,1,0,0,2.0188,Andesite_rect,8,0,8,0,1,
5a3bdd2c8d005a0001829f3e,TCN,2024-06-20_15h37.01.592,LearnStrategy,2023.2.3,Win32,60.60606061,8,2,10,,,,,,,,1,10,,,,,,,,,,,4,3.779,0,,,,,,0.401851852,-0.258333333,1,0,0,3.7792,Gabbro_rect,9,0,9,0,1,
5a3bdd2c8d005a0001829f3e,TCN,2024-06-20_15h37.01.592,LearnStrategy,2023.2.3,Win32,60.60606061,8,2,11,,,,,,,,5,06,,,,,,,,,,,5,1.298,1,,,,,,-0.364814815,-0.394444444,1,0,0,1.298,Obsidian_rect,10,0,10,0,1,
5a3bdd2c8d005a0001829f3e,TCN,2024-06-20_15h37.01.592,LearnStrategy,2023.2.3,Win32,60.60606061,8,2,12,,,,,,,,6,06,,,,,,,,,,,6,1.331,1,,,,,,-0.124074074,-0.391666667,1,0,0,1.3311,Pegmatite_rect,11,0,11,0,1,
5a3bdd2c8d005a0001829f3e,TCN,2024-06-20_15h37.01.592,LearnStrategy,2023.2.3,Win32,60.60606061,8,2,13,,,,,,,,7,15,,,,,,,,,,,7,1.028,1,,,,,,0.093518519,-0.390740741,1,0,0,1.0283,Peridotite_rect,12,0,12,0,1,
5a3bdd2c8d005a0001829f3e,TCN,2024-06-20_15h37.01.592,LearnStrategy,2023.2.3,Win32,60.60606061,8,2,14,,,,,,,,5,11,,,,,,,,,,,5,0.948,1,,,,,,-0.407407407,-0.416666667,1,0,0,0.9482,Obsidian_rect,13,0,13,0,1,
5a3bdd2c8d005a0001829f3e,TCN,2024-06-20_15h37.01.592,LearnStrategy,2023.2.3,Win32,60.60606061,8,2,15,,,,,,,,3,13,,,,,,,,,,,3,2.352,1,,,,,,0.122222222,-0.239814815,1,0,0,2.3524,Diorite_rect,14,0,14,0,1,
5a3bdd2c8d005a0001829f3e,TCN,2024-06-20_15h37.01.592,LearnStrategy,2023.2.3,Win32,60.60606061,8,2,16,,,,,,,,2,05,,,,,,,,,,,2,2.016,1,,,,,,-0.067592593,-0.239814815,1,0,0,2.0161,Basalt_rect,15,0,15,0,1,
5a3bdd2c8d005a0001829f3e,TCN,2024-06-20_15h37.01.592,LearnStrategy,2023.2.3,Win32,60.60606061,9,1,1,0.007407407,0.001851852,1,0,0,1.44,rock_grid_rect_2,1,11,-1,-1,1.44,-0.362962963,-0.24537037,1,0,0,1.5339,Andesite_rect,1,1.534,1,0,0,0,0,1,,,,,,,,,,,,,
5a3bdd2c8d005a0001829f3e,TCN,2024-06-20_15h37.01.592,LearnStrategy,2023.2.3,Win32,60.60606061,9,1,2,-0.056481481,-0.014814815,1,0,0,0.7485,rock_grid_rect_2,5,10,-1,-1,0.749,-0.375,-0.37962963,1,0,0,1.2538,Obsidian_rect,5,1.254,1,1,0,1,0,1,,,,,,,,,,,,,
5a3bdd2c8d005a0001829f3e,TCN,2024-06-20_15h37.01.592,LearnStrategy,2023.2.3,Win32,60.60606061,9,1,3,-0.056481481,0.001851852,1,0,0,0.7892,rock_grid_rect_2,7,12,-1,-1,0.789,0.14537037,-0.411111111,1,0,0,3.0528,Peridotite_rect,7,3.053,1,2,0,2,0,1,,,,,,,,,,,,,
5a3bdd2c8d005a0001829f3e,TCN,2024-06-20_15h37.01.592,LearnStrategy,2023.2.3,Win32,60.60606061,9,1,4,0.022222222,-0.003703704,1,0,0,1.2219,rock_grid_rect_2,5,05,-1,-1,1.222,-0.360185185,-0.392592593,1,0,0,1.4746,Obsidian_rect,5,1.475,1,3,0,3,0,1,,,,,,,,,,,,,
5a3bdd2c8d005a0001829f3e,TCN,2024-06-20_15h37.01.592,LearnStrategy,2023.2.3,Win32,60.60606061,9,1,5,-0.00462963,-0.010185185,1,0,0,0.6147,rock_grid_rect_2,4,11,-1,-1,0.615,0.347222222,-0.239814815,1,0,0,3.0688,Gabbro_rect,4,3.069,1,4,0,4,0,1,,,,,,,,,,,,,
5a3bdd2c8d005a0001829f3e,TCN,2024-06-20_15h37.01.592,LearnStrategy,2023.2.3,Win32,60.60606061,9,1,6,0.022222222,-0.006481481,1,0,0,0.7469,rock_grid_rect_2,4,10,-1,-1,0.747,0.362037037,-0.243518519,1,0,0,1.3851,Gabbro_rect,4,1.385,1,5,0,5,0,1,,,,,,,,,,,,,
5a3bdd2c8d005a0001829f3e,TCN,2024-06-20_15h37.01.592,LearnStrategy,2023.2.3,Win32,60.60606061,9,1,7,0.032407407,0.009259259,1,0,0,0.5945,rock_grid_rect_2,7,14,-1,-1,0.595,0.349074074,-0.267592593,1,0,0,2.0169,Gabbro_rect,4,2.017,0,6,0,6,0,1,,,,,,,,,,,,,
5a3bdd2c8d005a0001829f3e,TCN,2024-06-20_15h37.01.592,LearnStrategy,2023.2.3,Win32,60.60606061,9,1,8,0.022222222,-0.023148148,1,0,0,0.6308,rock_grid_rect_2,2,06,-1,-1,0.631,-0.162037037,-0.252777778,1,0,0,1.3138,Basalt_rect,2,1.314,1,7,0,7,0,1,,,,,,,,,,,,,
5a3bdd2c8d005a0001829f3e,TCN,2024-06-20_15h37.01.592,LearnStrategy,2023.2.3,Win32,60.60606061,9,1,9,0.013888889,-0.000925926,1,0,0,0.5315,rock_grid_rect_2,1,01,-1,-1,0.531,-0.359259259,-0.22962963,1,0,0,1.2406,Andesite_rect,1,1.241,1,8,0,8,0,1,,,,,,,,,,,,,
5a3bdd2c8d005a0001829f3e,TCN,2024-06-20_15h37.01.592,LearnStrategy,2023.2.3,Win32,60.60606061,9,1,10,-0.013888889,-0.00462963,1,0,0,0.6149,rock_grid_rect_2,3,12,-1,-1,0.615,0.113888889,-0.22962963,1,0,0,1.5787,Diorite_rect,3,1.579,1,9,0,9,0,1,,,,,,,,,,,,,
5a3bdd2c8d005a0001829f3e,TCN,2024-06-20_15h37.01.592,LearnStrategy,2023.2.3,Win32,60.60606061,9,1,11,-0.011111111,-0.008333333,1,0,0,0.5812,rock_grid_rect_2,8,08,-1,-1,0.581,0.339814815,-0.392592593,1,0,0,1.8881,Pumice_rect,8,1.888,1,10,0,10,0,1,,,,,,,,,,,,,
5a3bdd2c8d005a0001829f3e,TCN,2024-06-20_15h37.01.592,LearnStrategy,2023.2.3,Win32,60.60606061,9,1,12,-0.021296296,-0.015740741,1,0,0,0.5779,rock_grid_rect_2,6,05,-1,-1,0.578,-0.107407407,-0.402777778,1,0,0,1.7668,Pegmatite_rect,6,1.767,1,11,0,11,0,1,,,,,,,,,,,,,
5a3bdd2c8d005a0001829f3e,TCN,2024-06-20_15h37.01.592,LearnStrategy,2023.2.3,Win32,60.60606061,9,1,13,0.026851852,-0.011111111,1,0,0,0.548,rock_grid_rect_2,8,13,-1,-1,0.548,0.366666667,-0.386111111,1,0,0,1.1638,Pumice_rect,8,1.164,1,12,0,12,0,1,,,,,,,,,,,,,
5a3bdd2c8d005a0001829f3e,TCN,2024-06-20_15h37.01.592,LearnStrategy,2023.2.3,Win32,60.60606061,9,1,14,0.010185185,-0.009259259,1,0,0,0.7652,rock_grid_rect_2,2,02,-1,-1,0.765,-0.122222222,-0.231481481,1,0,0,1.4318,Basalt_rect,2,1.432,1,13,0,13,0,1,,,,,,,,,,,,,
5a3bdd2c8d005a0001829f3e,TCN,2024-06-20_15h37.01.592,LearnStrategy,2023.2.3,Win32,60.60606061,9,1,15,0.023148148,0.012037037,1,0,0,0.5148,rock_grid_rect_2,6,07,-1,-1,0.515,-0.112962963,-0.401851852,1,0,0,1.1098,Pegmatite_rect,6,1.11,1,14,0,14,0,1,,,,,,,,,,,,,
5a3bdd2c8d005a0001829f3e,TCN,2024-06-20_15h37.01.592,LearnStrategy,2023.2.3,Win32,60.60606061,9,1,16,-0.00462963,-0.014814815,1,0,0,0.5982,rock_grid_rect_2,3,08,-1,-1,0.598,0.135185185,-0.239814815,1,0,0,1.1766,Diorite_rect,3,1.177,1,15,0,15,0,1,,,,,,,,,,,,,
5a3bdd2c8d005a0001829f3e,TCN,2024-06-20_15h37.01.592,LearnStrategy,2023.2.3,Win32,60.60606061,9,2,1,,,,,,,,6,13,,,,,,,,,,,6,4.027,1,,,,,,-0.128703704,-0.39537037,1,0,0,4.0273,Pegmatite_rect,0,0,0,0,1,
5a3bdd2c8d005a0001829f3e,TCN,2024-06-20_15h37.01.592,LearnStrategy,2023.2.3,Win32,60.60606061,9,2,2,,,,,,,,8,09,,,,,,,,,,,8,1.296,1,,,,,,0.353703704,-0.406481481,1,0,0,1.2965,Pumice_rect,1,0,1,0,1,
5a3bdd2c8d005a0001829f3e,TCN,2024-06-20_15h37.01.592,LearnStrategy,2023.2.3,Win32,60.60606061,9,2,3,,,,,,,,3,10,,,,,,,,,,,4,6.978,0,,,,,,0.333333333,-0.252777778,1,0,0,6.9782,Gabbro_rect,2,0,2,0,1,
5a3bdd2c8d005a0001829f3e,TCN,2024-06-20_15h37.01.592,LearnStrategy,2023.2.3,Win32,60.60606061,9,2,4,,,,,,,,1,14,,,,,,,,,,,6,7.06,0,,,,,,-0.130555556,-0.399074074,1,0,0,7.0603,Pegmatite_rect,3,0,3,0,1,
5a3bdd2c8d005a0001829f3e,TCN,2024-06-20_15h37.01.592,LearnStrategy,2023.2.3,Win32,60.60606061,9,2,5,,,,,,,,6,16,,,,,,,,,,,6,1.017,1,,,,,,-0.12962963,-0.382407407,1,0,0,1.0174,Pegmatite_rect,4,0,4,0,1,
5a3bdd2c8d005a0001829f3e,TCN,2024-06-20_15h37.01.592,LearnStrategy,2023.2.3,Win32,60.60606061,9,2,6,,,,,,,,4,01,,,,,,,,,,,4,3.723,1,,,,,,0.476851852,-0.243518519,1,0,0,3.7231,Gabbro_rect,5,0,5,0,1,
5a3bdd2c8d005a0001829f3e,TCN,2024-06-20_15h37.01.592,LearnStrategy,2023.2.3,Win32,60.60606061,9,2,7,,,,,,,,5,02,,,,,,,,,,,5,1.871,1,,,,,,-0.363888889,-0.396296296,1,0,0,1.8714,Obsidian_rect,6,0,6,0,1,
5a3bdd2c8d005a0001829f3e,TCN,2024-06-20_15h37.01.592,LearnStrategy,2023.2.3,Win32,60.60606061,9,2,8,,,,,,,,1,09,,,,,,,,,,,4,3.399,0,,,,,,0.378703704,-0.251851852,1,0,0,3.399,Gabbro_rect,7,0,7,0,1,
5a3bdd2c8d005a0001829f3e,TCN,2024-06-20_15h37.01.592,LearnStrategy,2023.2.3,Win32,60.60606061,9,2,9,,,,,,,,4,13,,,,,,,,,,,1,3.881,0,,,,,,-0.374074074,-0.252777778,1,0,0,3.8815,Andesite_rect,8,0,8,0,1,
5a3bdd2c8d005a0001829f3e,TCN,2024-06-20_15h37.01.592,LearnStrategy,2023.2.3,Win32,60.60606061,9,2,10,,,,,,,,8,03,,,,,,,,,,,8,1.745,1,,,,,,0.39537037,-0.410185185,1,0,0,1.7445,Pumice_rect,9,0,9,0,1,
5a3bdd2c8d005a0001829f3e,TCN,2024-06-20_15h37.01.592,LearnStrategy,2023.2.3,Win32,60.60606061,9,2,11,,,,,,,,5,04,,,,,,,,,,,5,1.157,1,,,,,,-0.377777778,-0.386111111,1,0,0,1.1575,Obsidian_rect,10,0,10,0,1,
5a3bdd2c8d005a0001829f3e,TCN,2024-06-20_15h37.01.592,LearnStrategy,2023.2.3,Win32,60.60606061,9,2,12,,,,,,,,2,04,,,,,,,,,,,2,1.171,1,,,,,,-0.097222222,-0.24537037,1,0,0,1.1707,Basalt_rect,11,0,11,0,1,
5a3bdd2c8d005a0001829f3e,TCN,2024-06-20_15h37.01.592,LearnStrategy,2023.2.3,Win32,60.60606061,9,2,13,,,,,,,,7,06,,,,,,,,,,,7,5.255,1,,,,,,0.075925926,-0.387962963,1,0,0,5.2552,Peridotite_rect,12,0,12,0,1,
5a3bdd2c8d005a0001829f3e,TCN,2024-06-20_15h37.01.592,LearnStrategy,2023.2.3,Win32,60.60606061,9,2,14,,,,,,,,7,05,,,,,,,,,,,4,2.648,0,,,,,,0.383333333,-0.255555556,1,0,0,2.6481,Gabbro_rect,13,0,13,0,1,
5a3bdd2c8d005a0001829f3e,TCN,2024-06-20_15h37.01.592,LearnStrategy,2023.2.3,Win32,60.60606061,9,2,15,,,,,,,,2,16,,,,,,,,,,,4,8.869,0,,,,,,0.37962963,-0.24537037,1,0,0,8.8688,Gabbro_rect,14,0,14,0,1,
5a3bdd2c8d005a0001829f3e,TCN,2024-06-20_15h37.01.592,LearnStrategy,2023.2.3,Win32,60.60606061,9,2,16,,,,,,,,3,15,,,,,,,,,,,3,2.1,1,,,,,,0.139814815,-0.234259259,1,0,0,2.0997,Diorite_rect,15,0,15,0,1,
5a3bdd2c8d005a0001829f3e,TCN,2024-06-20_15h37.01.592,LearnStrategy,2023.2.3,Win32,60.60606061,,,,,,,,,,,,,,,,,,,,,,,,,,,,,,,,,,,,,,,,,,,1
5a3bdd2c8d005a0001829f3e,TCN,2024-06-20_15h37.01.592,LearnStrategy,2023.2.3,Win32,60.60606061,,,,,,,,,,,,,,,,,,,,,,,,,,,,,,,,,,,,,,,,,,,
5a3bdd2c8d005a0001829f3e,TCN,2024-06-20_15h37.01.592,LearnStrategy,2023.2.3,Win32,60.60606061,,,,,,,,,,,1,07,1,1,,,,,,,,,,,,,,,,,,,,,,,,,,,,,
5a3bdd2c8d005a0001829f3e,TCN,2024-06-20_15h37.01.592,LearnStrategy,2023.2.3,Win32,60.60606061,,,,,,,,,,,1,11,1,2,,,,,,,,,,,,,,,,,,,,,,,,,,,,,
5a3bdd2c8d005a0001829f3e,TCN,2024-06-20_15h37.01.592,LearnStrategy,2023.2.3,Win32,60.60606061,,,,,,,,,,,8,15,1,3,,,,,,,,,,,,,,,,,,,,,,,,,,,,,
5a3bdd2c8d005a0001829f3e,TCN,2024-06-20_15h37.01.592,LearnStrategy,2023.2.3,Win32,60.60606061,,,,,,,,,,,2,02,1,4,,,,,,,,,,,,,,,,,,,,,,,,,,,,,
5a3bdd2c8d005a0001829f3e,TCN,2024-06-20_15h37.01.592,LearnStrategy,2023.2.3,Win32,60.60606061,,,,,,,,,,,8,08,1,5,,,,,,,,,,,,,,,,,,,,,,,,,,,,,
5a3bdd2c8d005a0001829f3e,TCN,2024-06-20_15h37.01.592,LearnStrategy,2023.2.3,Win32,60.60606061,,,,,,,,,,,2,08,1,6,,,,,,,,,,,,,,,,,,,,,,,,,,,,,
5a3bdd2c8d005a0001829f3e,TCN,2024-06-20_15h37.01.592,LearnStrategy,2023.2.3,Win32,60.60606061,,,,,,,,,,,6,05,1,7,,,,,,,,,,,,,,,,,,,,,,,,,,,,,
5a3bdd2c8d005a0001829f3e,TCN,2024-06-20_15h37.01.592,LearnStrategy,2023.2.3,Win32,60.60606061,,,,,,,,,,,7,10,1,8,,,,,,,,,,,,,,,,,,,,,,,,,,,,,
5a3bdd2c8d005a0001829f3e,TCN,2024-06-20_15h37.01.592,LearnStrategy,2023.2.3,Win32,60.60606061,,,,,,,,,,,8,06,2,1,,,,,,,,,,,,,,,,,,,,,,,,,,,,,
5a3bdd2c8d005a0001829f3e,TCN,2024-06-20_15h37.01.592,LearnStrategy,2023.2.3,Win32,60.60606061,,,,,,,,,,,5,08,2,2,,,,,,,,,,,,,,,,,,,,,,,,,,,,,
5a3bdd2c8d005a0001829f3e,TCN,2024-06-20_15h37.01.592,LearnStrategy,2023.2.3,Win32,60.60606061,,,,,,,,,,,4,11,2,3,,,,,,,,,,,,,,,,,,,,,,,,,,,,,
5a3bdd2c8d005a0001829f3e,TCN,2024-06-20_15h37.01.592,LearnStrategy,2023.2.3,Win32,60.60606061,,,,,,,,,,,4,10,2,4,,,,,,,,,,,,,,,,,,,,,,,,,,,,,
5a3bdd2c8d005a0001829f3e,TCN,2024-06-20_15h37.01.592,LearnStrategy,2023.2.3,Win32,60.60606061,,,,,,,,,,,2,10,2,5,,,,,,,,,,,,,,,,,,,,,,,,,,,,,
5a3bdd2c8d005a0001829f3e,TCN,2024-06-20_15h37.01.592,LearnStrategy,2023.2.3,Win32,60.60606061,,,,,,,,,,,5,07,2,6,,,,,,,,,,,,,,,,,,,,,,,,,,,,,
5a3bdd2c8d005a0001829f3e,TCN,2024-06-20_15h37.01.592,LearnStrategy,2023.2.3,Win32,60.60606061,,,,,,,,,,,6,03,2,7,,,,,,,,,,,,,,,,,,,,,,,,,,,,,
5a3bdd2c8d005a0001829f3e,TCN,2024-06-20_15h37.01.592,LearnStrategy,2023.2.3,Win32,60.60606061,,,,,,,,,,,3,02,2,8,,,,,,,,,,,,,,,,,,,,,,,,,,,,,
5a3bdd2c8d005a0001829f3e,TCN,2024-06-20_15h37.01.592,LearnStrategy,2023.2.3,Win32,60.60606061,,,,,,,,,,,7,12,3,1,,,,,,,,,,,,,,,,,,,,,,,,,,,,,
5a3bdd2c8d005a0001829f3e,TCN,2024-06-20_15h37.01.592,LearnStrategy,2023.2.3,Win32,60.60606061,,,,,,,,,,,1,01,3,2,,,,,,,,,,,,,,,,,,,,,,,,,,,,,
5a3bdd2c8d005a0001829f3e,TCN,2024-06-20_15h37.01.592,LearnStrategy,2023.2.3,Win32,60.60606061,,,,,,,,,,,7,16,3,3,,,,,,,,,,,,,,,,,,,,,,,,,,,,,
5a3bdd2c8d005a0001829f3e,TCN,2024-06-20_15h37.01.592,LearnStrategy,2023.2.3,Win32,60.60606061,,,,,,,,,,,4,16,3,4,,,,,,,,,,,,,,,,,,,,,,,,,,,,,
5a3bdd2c8d005a0001829f3e,TCN,2024-06-20_15h37.01.592,LearnStrategy,2023.2.3,Win32,60.60606061,,,,,,,,,,,5,10,3,5,,,,,,,,,,,,,,,,,,,,,,,,,,,,,
5a3bdd2c8d005a0001829f3e,TCN,2024-06-20_15h37.01.592,LearnStrategy,2023.2.3,Win32,60.60606061,,,,,,,,,,,6,08,3,6,,,,,,,,,,,,,,,,,,,,,,,,,,,,,
5a3bdd2c8d005a0001829f3e,TCN,2024-06-20_15h37.01.592,LearnStrategy,2023.2.3,Win32,60.60606061,,,,,,,,,,,5,05,3,7,,,,,,,,,,,,,,,,,,,,,,,,,,,,,
5a3bdd2c8d005a0001829f3e,TCN,2024-06-20_15h37.01.592,LearnStrategy,2023.2.3,Win32,60.60606061,,,,,,,,,,,8,13,3,8,,,,,,,,,,,,,,,,,,,,,,,,,,,,,
5a3bdd2c8d005a0001829f3e,TCN,2024-06-20_15h37.01.592,LearnStrategy,2023.2.3,Win32,60.60606061,,,,,,,,,,,5,16,4,1,,,,,,,,,,,,,,,,,,,,,,,,,,,,,
5a3bdd2c8d005a0001829f3e,TCN,2024-06-20_15h37.01.592,LearnStrategy,2023.2.3,Win32,60.60606061,,,,,,,,,,,3,11,4,2,,,,,,,,,,,,,,,,,,,,,,,,,,,,,
5a3bdd2c8d005a0001829f3e,TCN,2024-06-20_15h37.01.592,LearnStrategy,2023.2.3,Win32,60.60606061,,,,,,,,,,,7,14,4,3,,,,,,,,,,,,,,,,,,,,,,,,,,,,,
5a3bdd2c8d005a0001829f3e,TCN,2024-06-20_15h37.01.592,LearnStrategy,2023.2.3,Win32,60.60606061,,,,,,,,,,,4,08,4,4,,,,,,,,,,,,,,,,,,,,,,,,,,,,,
5a3bdd2c8d005a0001829f3e,TCN,2024-06-20_15h37.01.592,LearnStrategy,2023.2.3,Win32,60.60606061,,,,,,,,,,,3,16,4,5,,,,,,,,,,,,,,,,,,,,,,,,,,,,,
5a3bdd2c8d005a0001829f3e,TCN,2024-06-20_15h37.01.592,LearnStrategy,2023.2.3,Win32,60.60606061,,,,,,,,,,,4,03,4,6,,,,,,,,,,,,,,,,,,,,,,,,,,,,,
5a3bdd2c8d005a0001829f3e,TCN,2024-06-20_15h37.01.592,LearnStrategy,2023.2.3,Win32,60.60606061,,,,,,,,,,,5,09,4,7,,,,,,,,,,,,,,,,,,,,,,,,,,,,,
5a3bdd2c8d005a0001829f3e,TCN,2024-06-20_15h37.01.592,LearnStrategy,2023.2.3,Win32,60.60606061,,,,,,,,,,,7,08,4,8,,,,,,,,,,,,,,,,,,,,,,,,,,,,,
5a3bdd2c8d005a0001829f3e,TCN,2024-06-20_15h37.01.592,LearnStrategy,2023.2.3,Win32,60.60606061,,,,,,,,,,,4,14,5,1,,,,,,,,,,,,,,,,,,,,,,,,,,,,,
5a3bdd2c8d005a0001829f3e,TCN,2024-06-20_15h37.01.592,LearnStrategy,2023.2.3,Win32,60.60606061,,,,,,,,,,,6,12,5,2,,,,,,,,,,,,,,,,,,,,,,,,,,,,,
5a3bdd2c8d005a0001829f3e,TCN,2024-06-20_15h37.01.592,LearnStrategy,2023.2.3,Win32,60.60606061,,,,,,,,,,,3,12,5,3,,,,,,,,,,,,,,,,,,,,,,,,,,,,,
5a3bdd2c8d005a0001829f3e,TCN,2024-06-20_15h37.01.592,LearnStrategy,2023.2.3,Win32,60.60606061,,,,,,,,,,,2,06,5,4,,,,,,,,,,,,,,,,,,,,,,,,,,,,,
5a3bdd2c8d005a0001829f3e,TCN,2024-06-20_15h37.01.592,LearnStrategy,2023.2.3,Win32,60.60606061,,,,,,,,,,,1,03,5,5,,,,,,,,,,,,,,,,,,,,,,,,,,,,,
5a3bdd2c8d005a0001829f3e,TCN,2024-06-20_15h37.01.592,LearnStrategy,2023.2.3,Win32,60.60606061,,,,,,,,,,,8,10,5,6,,,,,,,,,,,,,,,,,,,,,,,,,,,,,
5a3bdd2c8d005a0001829f3e,TCN,2024-06-20_15h37.01.592,LearnStrategy,2023.2.3,Win32,60.60606061,,,,,,,,,,,2,14,5,7,,,,,,,,,,,,,,,,,,,,,,,,,,,,,
5a3bdd2c8d005a0001829f3e,TCN,2024-06-20_15h37.01.592,LearnStrategy,2023.2.3,Win32,60.60606061,,,,,,,,,,,8,14,5,8,,,,,,,,,,,,,,,,,,,,,,,,,,,,,
5a3bdd2c8d005a0001829f3e,TCN,2024-06-20_15h37.01.592,LearnStrategy,2023.2.3,Win32,60.60606061,,,,,,,,,,,1,05,6,1,,,,,,,,,,,,,,,,,,,,,,,,,,,,,
5a3bdd2c8d005a0001829f3e,TCN,2024-06-20_15h37.01.592,LearnStrategy,2023.2.3,Win32,60.60606061,,,,,,,,,,,2,09,6,2,,,,,,,,,,,,,,,,,,,,,,,,,,,,,
5a3bdd2c8d005a0001829f3e,TCN,2024-06-20_15h37.01.592,LearnStrategy,2023.2.3,Win32,60.60606061,,,,,,,,,,,3,08,6,3,,,,,,,,,,,,,,,,,,,,,,,,,,,,,
5a3bdd2c8d005a0001829f3e,TCN,2024-06-20_15h37.01.592,LearnStrategy,2023.2.3,Win32,60.60606061,,,,,,,,,,,7,07,6,4,,,,,,,,,,,,,,,,,,,,,,,,,,,,,
5a3bdd2c8d005a0001829f3e,TCN,2024-06-20_15h37.01.592,LearnStrategy,2023.2.3,Win32,60.60606061,,,,,,,,,,,6,10,6,5,,,,,,,,,,,,,,,,,,,,,,,,,,,,,
5a3bdd2c8d005a0001829f3e,TCN,2024-06-20_15h37.01.592,LearnStrategy,2023.2.3,Win32,60.60606061,,,,,,,,,,,1,06,6,6,,,,,,,,,,,,,,,,,,,,,,,,,,,,,
5a3bdd2c8d005a0001829f3e,TCN,2024-06-20_15h37.01.592,LearnStrategy,2023.2.3,Win32,60.60606061,,,,,,,,,,,6,07,6,7,,,,,,,,,,,,,,,,,,,,,,,,,,,,,
5a3bdd2c8d005a0001829f3e,TCN,2024-06-20_15h37.01.592,LearnStrategy,2023.2.3,Win32,60.60606061,,,,,,,,,,,3,07,6,8,,,,,,,,,,,,,,,,,,,,,,,,,,,,,