participant,condition,date,expName,psychopyVersion,OS,frameRate,block,phase,trial,learn_mouse.x,learn_mouse.y,learn_mouse.leftButton,learn_mouse.midButton,learn_mouse.rightButton,learn_mouse.time,learn_mouse.clicked_name,cat,token,row,col,t_select,cat_rec,token_rec,cat_mouse_l.x,cat_mouse_l.y,cat_mouse_l.leftButton,cat_mouse_l.midButton,cat_mouse_l.rightButton,cat_mouse_l.time,cat_mouse_l.clicked_name,resp,t_resp,corr,train_trials.thisRepN,train_trials.thisTrialN,train_trials.thisN,train_trials.thisIndex,train_trials.ran,cat_mouse_t.x,cat_mouse_t.y,cat_mouse_t.leftButton,cat_mouse_t.midButton,cat_mouse_t.rightButton,cat_mouse_t.time,cat_mouse_t.clicked_name,test_trials.thisRepN,test_trials.thisTrialN,test_trials.thisN,test_trials.thisIndex,test_trials.ran,Bonus
5a6f1ccade1f390001dbd8b7,SCR,2024-06-11_10h16.02.234,LearnStrategy,2023.2.3,Win32,58.82352941,,,,,,,,,,,,,,,,,,,,,,,,,,,,,,,,,,,,,,,,,,,,,
5a6f1ccade1f390001dbd8b7,SCR,2024-06-11_10h16.02.234,LearnStrategy,2023.2.3,Win32,58.82352941,1,1,1,-0.393518519,0.100925926,1,0,0,3.6882,Pumice_09,8,09,4,2,3.688,4,11,-0.328703704,-0.389814815,1,0,0,6.7073,Obsidian_rect,5,6.707,0,0,0,0,0,1,,,,,,,,,,,,,
5a6f1ccade1f390001dbd8b7,SCR,2024-06-11_10h16.02.234,LearnStrategy,2023.2.3,Win32,58.82352941,1,1,2,0.264814815,-0.278703704,1,0,0,2.8797,Andesite_07,1,07,2,6,2.88,2,05,-0.076851852,-0.247222222,1,0,0,5.2831,Basalt_rect,2,5.283,0,1,0,1,0,1,,,,,,,,,,,,,
5a6f1ccade1f390001dbd8b7,SCR,2024-06-11_10h16.02.234,LearnStrategy,2023.2.3,Win32,58.82352941,1,1,3,-0.371296296,-0.264814815,1,0,0,3.585,Gabbro_03,4,03,2,2,3.585,7,12,-0.30462963,-0.387037037,1,0,0,5.2904,Obsidian_rect,5,5.29,0,2,0,2,0,1,,,,,,,,,,,,,
5a6f1ccade1f390001dbd8b7,SCR,2024-06-11_10h16.02.234,LearnStrategy,2023.2.3,Win32,58.82352941,1,1,4,-0.531481481,0.087037037,1,0,0,2.3972,Obsidian_11,5,11,4,1,2.397,1,02,-0.103703704,-0.247222222,1,0,0,5.014,Basalt_rect,2,5.014,0,3,0,3,0,1,,,,,,,,,,,,,
5a6f1ccade1f390001dbd8b7,SCR,2024-06-11_10h16.02.234,LearnStrategy,2023.2.3,Win32,58.82352941,1,1,5,-0.062962963,0.269444444,1,0,0,3.3493,Obsidian_14,5,14,5,4,3.349,8,16,-0.364814815,-0.414814815,1,0,0,1.9354,Obsidian_rect,5,1.935,1,4,0,4,0,1,,,,,,,,,,,,,
5a6f1ccade1f390001dbd8b7,SCR,2024-06-11_10h16.02.234,LearnStrategy,2023.2.3,Win32,58.82352941,1,1,6,0.538888889,0.067592593,1,0,0,2.3824,Pumice_16,8,16,4,8,2.382,5,11,0.409259259,-0.40462963,1,0,0,2.0996,Pumice_rect,8,2.1,1,5,0,5,0,1,,,,,,,,,,,,,
5a6f1ccade1f390001dbd8b7,SCR,2024-06-11_10h16.02.234,LearnStrategy,2023.2.3,Win32,58.82352941,1,1,7,0.075925926,-0.126851852,1,0,0,1.4577,Peridotite_06,7,06,3,5,1.458,3,07,0.137962963,-0.243518519,1,0,0,2.8062,Diorite_rect,3,2.806,0,6,0,6,0,1,,,,,,,,,,,,,
5a6f1ccade1f390001dbd8b7,SCR,2024-06-11_10h16.02.234,LearnStrategy,2023.2.3,Win32,58.82352941,1,1,8,0.2,-0.416666667,1,0,0,2.852,Pegmatite_03,6,03,1,6,2.852,5,16,0.112962963,-0.393518519,1,0,0,2.7211,Peridotite_rect,7,2.721,0,7,0,7,0,1,,,,,,,,,,,,,
5a6f1ccade1f390001dbd8b7,SCR,2024-06-11_10h16.02.234,LearnStrategy,2023.2.3,Win32,58.82352941,1,1,9,-0.525,-0.084259259,1,0,0,1.6664,Pegmatite_08,6,08,3,1,1.666,3,10,0.046296296,-0.409259259,1,0,0,4.6845,Peridotite_rect,7,4.685,0,8,0,8,0,1,,,,,,,,,,,,,
5a6f1ccade1f390001dbd8b7,SCR,2024-06-11_10h16.02.234,LearnStrategy,2023.2.3,Win32,58.82352941,1,1,10,-0.127777778,-0.267592593,1,0,0,2.4137,Peridotite_13,7,13,2,4,2.414,7,06,0.357407407,-0.246296296,1,0,0,2.5829,Gabbro_rect,4,2.583,0,9,0,9,0,1,,,,,,,,,,,,,
5a6f1ccade1f390001dbd8b7,SCR,2024-06-11_10h16.02.234,LearnStrategy,2023.2.3,Win32,58.82352941,1,1,11,-0.516666667,0.405555556,1,0,0,4.2016,Gabbro_11,4,11,6,1,4.202,6,06,-0.163888889,-0.233333333,1,0,0,4.4696,Basalt_rect,2,4.47,0,10,0,10,0,1,,,,,,,,,,,,,
5a6f1ccade1f390001dbd8b7,SCR,2024-06-11_10h16.02.234,LearnStrategy,2023.2.3,Win32,58.82352941,1,1,12,-0.363888889,0.406481481,1,0,0,1.0926,Diorite_14,3,14,6,2,1.093,4,15,0.119444444,-0.412037037,1,0,0,5.1783,Peridotite_rect,7,5.178,0,11,0,11,0,1,,,,,,,,,,,,,
5a6f1ccade1f390001dbd8b7,SCR,2024-06-11_10h16.02.234,LearnStrategy,2023.2.3,Win32,58.82352941,1,1,13,-0.261111111,0.408333333,1,0,0,1.0851,Andesite_03,1,03,6,3,1.085,6,12,-0.191666667,-0.392592593,1,0,0,2.7081,Pegmatite_rect,6,2.708,0,12,0,12,0,1,,,,,,,,,,,,,
5a6f1ccade1f390001dbd8b7,SCR,2024-06-11_10h16.02.234,LearnStrategy,2023.2.3,Win32,58.82352941,1,1,14,-0.091666667,0.373148148,1,0,0,1.6469,Diorite_10,3,10,6,4,1.647,2,10,-0.176851852,-0.40462963,1,0,0,4.1851,Pegmatite_rect,6,4.185,0,13,0,13,0,1,,,,,,,,,,,,,
5a6f1ccade1f390001dbd8b7,SCR,2024-06-11_10h16.02.234,LearnStrategy,2023.2.3,Win32,58.82352941,1,1,15,0.062962963,0.387037037,1,0,0,1.1963,Diorite_08,3,08,6,5,1.196,1,10,-0.393518519,-0.243518519,1,0,0,2.5098,Andesite_rect,1,2.51,0,14,0,14,0,1,,,,,,,,,,,,,
5a6f1ccade1f390001dbd8b7,SCR,2024-06-11_10h16.02.234,LearnStrategy,2023.2.3,Win32,58.82352941,1,1,16,0.234259259,0.423148148,1,0,0,1.2862,Andesite_06,1,06,6,6,1.286,8,14,-0.363888889,-0.242592593,1,0,0,2.2369,Andesite_rect,1,2.237,1,15,0,15,0,1,,,,,,,,,,,,,
5a6f1ccade1f390001dbd8b7,SCR,2024-06-11_10h16.02.234,LearnStrategy,2023.2.3,Win32,58.82352941,1,2,1,,,,,,,,5,02,,,,,,,,,,,,,5,2.225,1,,,,,,-0.371296296,-0.413888889,1,0,0,2.2251,Obsidian_rect,0,0,0,0,1,
5a6f1ccade1f390001dbd8b7,SCR,2024-06-11_10h16.02.234,LearnStrategy,2023.2.3,Win32,58.82352941,1,2,2,,,,,,,,8,03,,,,,,,,,,,,,8,2.856,1,,,,,,0.415740741,-0.415740741,1,0,0,2.8565,Pumice_rect,1,0,1,0,1,
5a6f1ccade1f390001dbd8b7,SCR,2024-06-11_10h16.02.234,LearnStrategy,2023.2.3,Win32,58.82352941,1,2,3,,,,,,,,6,10,,,,,,,,,,,,,7,6.247,0,,,,,,0.185185185,-0.39537037,1,0,0,6.2471,Peridotite_rect,2,0,2,0,1,
5a6f1ccade1f390001dbd8b7,SCR,2024-06-11_10h16.02.234,LearnStrategy,2023.2.3,Win32,58.82352941,1,2,4,,,,,,,,2,08,,,,,,,,,,,,,5,1.781,0,,,,,,-0.394444444,-0.398148148,1,0,0,1.7814,Obsidian_rect,3,0,3,0,1,
5a6f1ccade1f390001dbd8b7,SCR,2024-06-11_10h16.02.234,LearnStrategy,2023.2.3,Win32,58.82352941,1,2,5,,,,,,,,4,13,,,,,,,,,,,,,1,3.811,0,,,,,,-0.396296296,-0.256481481,1,0,0,3.8114,Andesite_rect,4,0,4,0,1,
5a6f1ccade1f390001dbd8b7,SCR,2024-06-11_10h16.02.234,LearnStrategy,2023.2.3,Win32,58.82352941,1,2,6,,,,,,,,1,16,,,,,,,,,,,,,1,2.128,1,,,,,,-0.37037037,-0.246296296,1,0,0,2.1276,Andesite_rect,5,0,5,0,1,
5a6f1ccade1f390001dbd8b7,SCR,2024-06-11_10h16.02.234,LearnStrategy,2023.2.3,Win32,58.82352941,1,2,7,,,,,,,,5,06,,,,,,,,,,,,,5,2.693,1,,,,,,-0.360185185,-0.403703704,1,0,0,2.6927,Obsidian_rect,6,0,6,0,1,
5a6f1ccade1f390001dbd8b7,SCR,2024-06-11_10h16.02.234,LearnStrategy,2023.2.3,Win32,58.82352941,1,2,8,,,,,,,,3,13,,,,,,,,,,,,,1,2.556,0,,,,,,-0.397222222,-0.269444444,1,0,0,2.5558,Andesite_rect,7,0,7,0,1,
5a6f1ccade1f390001dbd8b7,SCR,2024-06-11_10h16.02.234,LearnStrategy,2023.2.3,Win32,58.82352941,1,2,9,,,,,,,,1,09,,,,,,,,,,,,,1,5.543,1,,,,,,-0.337962963,-0.257407407,1,0,0,5.5428,Andesite_rect,8,0,8,0,1,
5a6f1ccade1f390001dbd8b7,SCR,2024-06-11_10h16.02.234,LearnStrategy,2023.2.3,Win32,58.82352941,1,2,10,,,,,,,,8,15,,,,,,,,,,,,,8,3.957,1,,,,,,0.455555556,-0.384259259,1,0,0,3.9573,Pumice_rect,9,0,9,0,1,
5a6f1ccade1f390001dbd8b7,SCR,2024-06-11_10h16.02.234,LearnStrategy,2023.2.3,Win32,58.82352941,1,2,11,,,,,,,,2,09,,,,,,,,,,,,,2,4.422,1,,,,,,-0.190740741,-0.25,1,0,0,4.422,Basalt_rect,10,0,10,0,1,
5a6f1ccade1f390001dbd8b7,SCR,2024-06-11_10h16.02.234,LearnStrategy,2023.2.3,Win32,58.82352941,1,2,12,,,,,,,,6,11,,,,,,,,,,,,,3,5.397,0,,,,,,0.169444444,-0.247222222,1,0,0,5.397,Diorite_rect,11,0,11,0,1,
5a6f1ccade1f390001dbd8b7,SCR,2024-06-11_10h16.02.234,LearnStrategy,2023.2.3,Win32,58.82352941,1,2,13,,,,,,,,7,14,,,,,,,,,,,,,4,5.434,0,,,,,,0.393518519,-0.232407407,1,0,0,5.4336,Gabbro_rect,12,0,12,0,1,
5a6f1ccade1f390001dbd8b7,SCR,2024-06-11_10h16.02.234,LearnStrategy,2023.2.3,Win32,58.82352941,1,2,14,,,,,,,,7,07,,,,,,,,,,,,,6,6.53,0,,,,,,-0.132407407,-0.388888889,1,0,0,6.5299,Pegmatite_rect,13,0,13,0,1,
5a6f1ccade1f390001dbd8b7,SCR,2024-06-11_10h16.02.234,LearnStrategy,2023.2.3,Win32,58.82352941,1,2,15,,,,,,,,3,02,,,,,,,,,,,,,1,2.764,0,,,,,,-0.400925926,-0.234259259,1,0,0,2.7645,Andesite_rect,14,0,14,0,1,
5a6f1ccade1f390001dbd8b7,SCR,2024-06-11_10h16.02.234,LearnStrategy,2023.2.3,Win32,58.82352941,1,2,16,,,,,,,,4,12,,,,,,,,,,,,,4,3.647,1,,,,,,0.467592593,-0.260185185,1,0,0,3.6474,Gabbro_rect,15,0,15,0,1,
5a6f1ccade1f390001dbd8b7,SCR,2024-06-11_10h16.02.234,LearnStrategy,2023.2.3,Win32,58.82352941,2,1,1,0.400925926,0.42962963,1,0,0,4.3316,Gabbro_16,4,16,6,7,4.332,4,11,0.47962963,-0.243518519,1,0,0,2.6814,Gabbro_rect,4,2.681,1,0,0,0,0,1,,,,,,,,,,,,,
5a6f1ccade1f390001dbd8b7,SCR,2024-06-11_10h16.02.234,LearnStrategy,2023.2.3,Win32,58.82352941,2,1,2,0.583333333,0.394444444,1,0,0,1.0155,Pegmatite_12,6,12,6,8,1.016,5,10,-0.096296296,-0.385185185,1,0,0,2.5384,Pegmatite_rect,6,2.538,1,1,0,1,0,1,,,,,,,,,,,,,
5a6f1ccade1f390001dbd8b7,SCR,2024-06-11_10h16.02.234,LearnStrategy,2023.2.3,Win32,58.82352941,2,1,3,-0.57037037,0.24537037,1,0,0,0.9814,Pumice_10,8,10,5,1,0.981,3,08,0.425,-0.416666667,1,0,0,1.4009,Pumice_rect,8,1.401,1,2,0,2,0,1,,,,,,,,,,,,,
5a6f1ccade1f390001dbd8b7,SCR,2024-06-11_10h16.02.234,LearnStrategy,2023.2.3,Win32,58.82352941,2,1,4,-0.366666667,0.226851852,1,0,0,0.9548,Basalt_14,2,14,5,2,0.955,4,10,0.390740741,-0.389814815,1,0,0,1.7013,Pumice_rect,8,1.701,0,3,0,3,0,1,,,,,,,,,,,,,
5a6f1ccade1f390001dbd8b7,SCR,2024-06-11_10h16.02.234,LearnStrategy,2023.2.3,Win32,58.82352941,2,1,5,-0.238888889,0.210185185,1,0,0,1.016,Peridotite_04,7,04,5,3,1.016,6,12,0.078703704,-0.394444444,1,0,0,4.2454,Peridotite_rect,7,4.245,1,4,0,4,0,1,,,,,,,,,,,,,
5a6f1ccade1f390001dbd8b7,SCR,2024-06-11_10h16.02.234,LearnStrategy,2023.2.3,Win32,58.82352941,2,1,6,-0.07962963,0.235185185,1,0,0,1.0706,Obsidian_14,5,14,5,4,1.071,6,09,-0.388888889,-0.403703704,1,0,0,1.8327,Obsidian_rect,5,1.833,1,5,0,5,0,1,,,,,,,,,,,,,
5a6f1ccade1f390001dbd8b7,SCR,2024-06-11_10h16.02.234,LearnStrategy,2023.2.3,Win32,58.82352941,2,1,7,0.078703704,0.228703704,1,0,0,0.936,Peridotite_05,7,05,5,5,0.936,1,10,0.415740741,-0.239814815,1,0,0,2.6026,Gabbro_rect,4,2.603,0,6,0,6,0,1,,,,,,,,,,,,,
5a6f1ccade1f390001dbd8b7,SCR,2024-06-11_10h16.02.234,LearnStrategy,2023.2.3,Win32,58.82352941,2,1,8,0.239814815,0.221296296,1,0,0,1.6136,Gabbro_10,4,10,5,6,1.614,7,04,0.452777778,-0.259259259,1,0,0,1.5132,Gabbro_rect,4,1.513,1,7,0,7,0,1,,,,,,,,,,,,,
5a6f1ccade1f390001dbd8b7,SCR,2024-06-11_10h16.02.234,LearnStrategy,2023.2.3,Win32,58.82352941,2,1,9,0.401851852,0.241666667,1,0,0,0.9844,Basalt_06,2,06,5,7,0.984,7,02,-0.331481481,-0.410185185,1,0,0,1.6085,Obsidian_rect,5,1.608,0,8,0,8,0,1,,,,,,,,,,,,,
5a6f1ccade1f390001dbd8b7,SCR,2024-06-11_10h16.02.234,LearnStrategy,2023.2.3,Win32,58.82352941,2,1,10,-0.252777778,0.090740741,1,0,0,4.5822,Andesite_05,1,05,4,3,4.582,3,10,-0.387962963,-0.237962963,1,0,0,1.6072,Andesite_rect,1,1.607,1,9,0,9,0,1,,,,,,,,,,,,,
5a6f1ccade1f390001dbd8b7,SCR,2024-06-11_10h16.02.234,LearnStrategy,2023.2.3,Win32,58.82352941,2,1,11,-0.093518519,0.081481481,1,0,0,1.4711,Gabbro_15,4,15,4,4,1.471,3,07,0.112962963,-0.387962963,1,0,0,2.8235,Peridotite_rect,7,2.824,0,10,0,10,0,1,,,,,,,,,,,,,
5a6f1ccade1f390001dbd8b7,SCR,2024-06-11_10h16.02.234,LearnStrategy,2023.2.3,Win32,58.82352941,2,1,12,0.213888889,0.248148148,1,0,0,3.8293,Gabbro_10,4,10,5,6,3.829,7,05,0.418518519,-0.255555556,1,0,0,1.3142,Gabbro_rect,4,1.314,1,11,0,11,0,1,,,,,,,,,,,,,
5a6f1ccade1f390001dbd8b7,SCR,2024-06-11_10h16.02.234,LearnStrategy,2023.2.3,Win32,58.82352941,2,1,13,0.074074074,0.090740741,1,0,0,4.4625,Obsidian_10,5,10,4,5,4.462,6,08,-0.380555556,-0.4,1,0,0,3.652,Obsidian_rect,5,3.652,1,12,0,12,0,1,,,,,,,,,,,,,
5a6f1ccade1f390001dbd8b7,SCR,2024-06-11_10h16.02.234,LearnStrategy,2023.2.3,Win32,58.82352941,2,1,14,0.412962963,0.098148148,1,0,0,4.2302,Basalt_04,2,04,4,7,4.23,2,04,0.440740741,-0.249074074,1,0,0,2.8053,Gabbro_rect,4,2.805,0,13,0,13,0,1,,,,,,,,,,,,,
5a6f1ccade1f390001dbd8b7,SCR,2024-06-11_10h16.02.234,LearnStrategy,2023.2.3,Win32,58.82352941,2,1,15,0.553703704,0.101851852,1,0,0,1.3357,Pumice_16,8,16,4,8,1.336,3,07,-0.105555556,-0.25462963,1,0,0,7.9786,Basalt_rect,2,7.979,0,14,0,14,0,1,,,,,,,,,,,,,
5a6f1ccade1f390001dbd8b7,SCR,2024-06-11_10h16.02.234,LearnStrategy,2023.2.3,Win32,58.82352941,2,1,16,-0.538888889,-0.107407407,1,0,0,2.7808,Pegmatite_08,6,08,3,1,2.781,2,01,-0.060185185,-0.37962963,1,0,0,1.8046,Pegmatite_rect,6,1.805,1,15,0,15,0,1,,,,,,,,,,,,,
5a6f1ccade1f390001dbd8b7,SCR,2024-06-11_10h16.02.234,LearnStrategy,2023.2.3,Win32,58.82352941,2,2,1,,,,,,,,2,11,,,,,,,,,,,,,4,4.708,0,,,,,,0.401851852,-0.249074074,1,0,0,4.7081,Gabbro_rect,0,0,0,0,1,
5a6f1ccade1f390001dbd8b7,SCR,2024-06-11_10h16.02.234,LearnStrategy,2023.2.3,Win32,58.82352941,2,2,2,,,,,,,,3,16,,,,,,,,,,,,,1,3.072,0,,,,,,-0.366666667,-0.236111111,1,0,0,3.0715,Andesite_rect,1,0,1,0,1,
5a6f1ccade1f390001dbd8b7,SCR,2024-06-11_10h16.02.234,LearnStrategy,2023.2.3,Win32,58.82352941,2,2,3,,,,,,,,2,12,,,,,,,,,,,,,8,2.075,0,,,,,,0.398148148,-0.412962963,1,0,0,2.0749,Pumice_rect,2,0,2,0,1,
5a6f1ccade1f390001dbd8b7,SCR,2024-06-11_10h16.02.234,LearnStrategy,2023.2.3,Win32,58.82352941,2,2,4,,,,,,,,5,07,,,,,,,,,,,,,5,10.249,1,,,,,,-0.37037037,-0.413888889,1,0,0,10.2488,Obsidian_rect,3,0,3,0,1,
5a6f1ccade1f390001dbd8b7,SCR,2024-06-11_10h16.02.234,LearnStrategy,2023.2.3,Win32,58.82352941,2,2,5,,,,,,,,6,13,,,,,,,,,,,,,7,4.91,0,,,,,,0.065740741,-0.405555556,1,0,0,4.9099,Peridotite_rect,4,0,4,0,1,
5a6f1ccade1f390001dbd8b7,SCR,2024-06-11_10h16.02.234,LearnStrategy,2023.2.3,Win32,58.82352941,2,2,6,,,,,,,,1,14,,,,,,,,,,,,,4,8.377,0,,,,,,0.427777778,-0.250925926,1,0,0,8.3771,Gabbro_rect,5,0,5,0,1,
5a6f1ccade1f390001dbd8b7,SCR,2024-06-11_10h16.02.234,LearnStrategy,2023.2.3,Win32,58.82352941,2,2,7,,,,,,,,3,09,,,,,,,,,,,,,1,1.889,0,,,,,,-0.374074074,-0.243518519,1,0,0,1.8888,Andesite_rect,6,0,6,0,1,
5a6f1ccade1f390001dbd8b7,SCR,2024-06-11_10h16.02.234,LearnStrategy,2023.2.3,Win32,58.82352941,2,2,8,,,,,,,,7,08,,,,,,,,,,,,,3,3.696,0,,,,,,0.163888889,-0.262037037,1,0,0,3.6963,Diorite_rect,7,0,7,0,1,
5a6f1ccade1f390001dbd8b7,SCR,2024-06-11_10h16.02.234,LearnStrategy,2023.2.3,Win32,58.82352941,2,2,9,,,,,,,,8,08,,,,,,,,,,,,,8,6.787,1,,,,,,0.349074074,-0.401851852,1,0,0,6.7868,Pumice_rect,8,0,8,0,1,
5a6f1ccade1f390001dbd8b7,SCR,2024-06-11_10h16.02.234,LearnStrategy,2023.2.3,Win32,58.82352941,2,2,10,,,,,,,,4,14,,,,,,,,,,,,,2,5.615,0,,,,,,-0.226851852,-0.25462963,1,0,0,5.6147,Basalt_rect,9,0,9,0,1,
5a6f1ccade1f390001dbd8b7,SCR,2024-06-11_10h16.02.234,LearnStrategy,2023.2.3,Win32,58.82352941,2,2,11,,,,,,,,1,11,,,,,,,,,,,,,6,3.002,0,,,,,,-0.085185185,-0.407407407,1,0,0,3.0022,Pegmatite_rect,10,0,10,0,1,
5a6f1ccade1f390001dbd8b7,SCR,2024-06-11_10h16.02.234,LearnStrategy,2023.2.3,Win32,58.82352941,2,2,12,,,,,,,,7,16,,,,,,,,,,,,,3,4.62,0,,,,,,0.112037037,-0.249074074,1,0,0,4.62,Diorite_rect,11,0,11,0,1,
5a6f1ccade1f390001dbd8b7,SCR,2024-06-11_10h16.02.234,LearnStrategy,2023.2.3,Win32,58.82352941,2,2,13,,,,,,,,5,08,,,,,,,,,,,,,5,2.987,1,,,,,,-0.401851852,-0.412037037,1,0,0,2.9867,Obsidian_rect,12,0,12,0,1,
5a6f1ccade1f390001dbd8b7,SCR,2024-06-11_10h16.02.234,LearnStrategy,2023.2.3,Win32,58.82352941,2,2,14,,,,,,,,6,07,,,,,,,,,,,,,6,3.23,1,,,,,,-0.066666667,-0.387962963,1,0,0,3.2297,Pegmatite_rect,13,0,13,0,1,
5a6f1ccade1f390001dbd8b7,SCR,2024-06-11_10h16.02.234,LearnStrategy,2023.2.3,Win32,58.82352941,2,2,15,,,,,,,,8,13,,,,,,,,,,,,,8,3.551,1,,,,,,0.433333333,-0.413888889,1,0,0,3.5511,Pumice_rect,14,0,14,0,1,
5a6f1ccade1f390001dbd8b7,SCR,2024-06-11_10h16.02.234,LearnStrategy,2023.2.3,Win32,58.82352941,2,2,16,,,,,,,,4,01,,,,,,,,,,,,,1,4.197,0,,,,,,-0.369444444,-0.236111111,1,0,0,4.1973,Andesite_rect,15,0,15,0,1,
5a6f1ccade1f390001dbd8b7,SCR,2024-06-11_10h16.02.234,LearnStrategy,2023.2.3,Win32,58.82352941,3,1,1,0.094444444,-0.103703704,1,0,0,6.422,Peridotite_06,7,06,3,5,6.422,7,06,-0.062962963,-0.407407407,1,0,0,1.8449,Pegmatite_rect,6,1.845,0,0,0,0,0,1,,,,,,,,,,,,,
5a6f1ccade1f390001dbd8b7,SCR,2024-06-11_10h16.02.234,LearnStrategy,2023.2.3,Win32,58.82352941,3,1,2,0.364814815,0.259259259,1,0,0,5.0022,Basalt_06,2,06,5,7,5.002,2,06,0.371296296,-0.246296296,1,0,0,2.2148,Gabbro_rect,4,2.215,0,1,0,1,0,1,,,,,,,,,,,,,
5a6f1ccade1f390001dbd8b7,SCR,2024-06-11_10h16.02.234,LearnStrategy,2023.2.3,Win32,58.82352941,3,1,3,-0.25,0.380555556,1,0,0,2.063,Andesite_03,1,03,6,3,2.063,1,03,-0.387962963,-0.243518519,1,0,0,2.9182,Andesite_rect,1,2.918,1,2,0,2,0,1,,,,,,,,,,,,,
5a6f1ccade1f390001dbd8b7,SCR,2024-06-11_10h16.02.234,LearnStrategy,2023.2.3,Win32,58.82352941,3,1,4,0.401851852,-0.128703704,1,0,0,4.1846,Pegmatite_06,6,06,3,7,4.185,6,03,-0.124074074,-0.414814815,1,0,0,3.9206,Pegmatite_rect,6,3.921,1,3,0,3,0,1,,,,,,,,,,,,,
5a6f1ccade1f390001dbd8b7,SCR,2024-06-11_10h16.02.234,LearnStrategy,2023.2.3,Win32,58.82352941,3,1,5,0.535185185,-0.090740741,1,0,0,3.3816,Obsidian_16,5,16,3,8,3.382,4,10,-0.453703704,-0.413888889,1,0,0,1.097,Obsidian_rect,5,1.097,1,4,0,4,0,1,,,,,,,,,,,,,
5a6f1ccade1f390001dbd8b7,SCR,2024-06-11_10h16.02.234,LearnStrategy,2023.2.3,Win32,58.82352941,3,1,6,-0.537037037,-0.248148148,1,0,0,0.8799,Pumice_04,8,04,2,1,0.88,2,01,0.331481481,-0.387962963,1,0,0,1.3001,Pumice_rect,8,1.3,1,5,0,5,0,1,,,,,,,,,,,,,
5a6f1ccade1f390001dbd8b7,SCR,2024-06-11_10h16.02.234,LearnStrategy,2023.2.3,Win32,58.82352941,3,1,7,-0.362962963,-0.268518519,1,0,0,4.7371,Gabbro_03,4,03,2,2,4.737,1,02,-0.189814815,-0.262037037,1,0,0,3.4435,Basalt_rect,2,3.443,0,6,0,6,0,1,,,,,,,,,,,,,
5a6f1ccade1f390001dbd8b7,SCR,2024-06-11_10h16.02.234,LearnStrategy,2023.2.3,Win32,58.82352941,3,1,8,-0.213888889,-0.25462963,1,0,0,1.0102,Pumice_06,8,06,2,3,1.01,1,06,0.419444444,-0.411111111,1,0,0,1.04,Pumice_rect,8,1.04,1,7,0,7,0,1,,,,,,,,,,,,,
5a6f1ccade1f390001dbd8b7,SCR,2024-06-11_10h16.02.234,LearnStrategy,2023.2.3,Win32,58.82352941,3,1,9,-0.071296296,-0.258333333,1,0,0,1.0462,Peridotite_13,7,13,2,4,1.046,4,09,0.210185185,-0.25462963,1,0,0,1.9385,Diorite_rect,3,1.938,0,8,0,8,0,1,,,,,,,,,,,,,
5a6f1ccade1f390001dbd8b7,SCR,2024-06-11_10h16.02.234,LearnStrategy,2023.2.3,Win32,58.82352941,3,1,10,0.090740741,-0.272222222,1,0,0,1.0803,Diorite_06,3,06,2,5,1.08,3,14,0.081481481,-0.391666667,1,0,0,4.0253,Peridotite_rect,7,4.025,0,9,0,9,0,1,,,,,,,,,,,,,
5a6f1ccade1f390001dbd8b7,SCR,2024-06-11_10h16.02.234,LearnStrategy,2023.2.3,Win32,58.82352941,3,1,11,0.263888889,-0.288888889,1,0,0,1.031,Andesite_07,1,07,2,6,1.031,4,15,-0.32037037,-0.25,1,0,0,0.9557,Andesite_rect,1,0.956,1,10,0,10,0,1,,,,,,,,,,,,,
5a6f1ccade1f390001dbd8b7,SCR,2024-06-11_10h16.02.234,LearnStrategy,2023.2.3,Win32,58.82352941,3,1,12,0.423148148,-0.27962963,1,0,0,0.747,Peridotite_12,7,12,2,7,0.747,3,14,0.17037037,-0.251851852,1,0,0,2.8939,Diorite_rect,3,2.894,0,11,0,11,0,1,,,,,,,,,,,,,
5a6f1ccade1f390001dbd8b7,SCR,2024-06-11_10h16.02.234,LearnStrategy,2023.2.3,Win32,58.82352941,3,1,13,0.533333333,-0.272222222,1,0,0,0.8723,Diorite_07,3,07,2,8,0.872,7,05,0.1,-0.388888889,1,0,0,1.8665,Peridotite_rect,7,1.866,0,12,0,12,0,1,,,,,,,,,,,,,
5a6f1ccade1f390001dbd8b7,SCR,2024-06-11_10h16.02.234,LearnStrategy,2023.2.3,Win32,58.82352941,3,1,14,-0.512962963,-0.381481481,1,0,0,0.9859,Gabbro_09,4,09,1,1,0.986,6,06,-0.110185185,-0.240740741,1,0,0,1.9355,Basalt_rect,2,1.935,0,13,0,13,0,1,,,,,,,,,,,,,
5a6f1ccade1f390001dbd8b7,SCR,2024-06-11_10h16.02.234,LearnStrategy,2023.2.3,Win32,58.82352941,3,1,15,-0.394444444,-0.382407407,1,0,0,1.1787,Andesite_10,1,10,1,2,1.179,7,12,-0.069444444,-0.238888889,1,0,0,2.3386,Basalt_rect,2,2.339,0,14,0,14,0,1,,,,,,,,,,,,,
5a6f1ccade1f390001dbd8b7,SCR,2024-06-11_10h16.02.234,LearnStrategy,2023.2.3,Win32,58.82352941,3,1,16,-0.198148148,-0.381481481,1,0,0,0.71,Obsidian_05,5,05,1,3,0.71,3,07,-0.160185185,-0.235185185,1,0,0,3.6017,Basalt_rect,2,3.602,0,15,0,15,0,1,,,,,,,,,,,,,
5a6f1ccade1f390001dbd8b7,SCR,2024-06-11_10h16.02.234,LearnStrategy,2023.2.3,Win32,58.82352941,3,2,1,,,,,,,,8,02,,,,,,,,,,,,,8,1.671,1,,,,,,0.461111111,-0.406481481,1,0,0,1.6711,Pumice_rect,0,0,0,0,1,
5a6f1ccade1f390001dbd8b7,SCR,2024-06-11_10h16.02.234,LearnStrategy,2023.2.3,Win32,58.82352941,3,2,2,,,,,,,,8,05,,,,,,,,,,,,,8,1.522,1,,,,,,0.376851852,-0.394444444,1,0,0,1.5221,Pumice_rect,1,0,1,0,1,
5a6f1ccade1f390001dbd8b7,SCR,2024-06-11_10h16.02.234,LearnStrategy,2023.2.3,Win32,58.82352941,3,2,3,,,,,,,,6,05,,,,,,,,,,,,,7,5.302,0,,,,,,0.092592593,-0.390740741,1,0,0,5.3016,Peridotite_rect,2,0,2,0,1,
5a6f1ccade1f390001dbd8b7,SCR,2024-06-11_10h16.02.234,LearnStrategy,2023.2.3,Win32,58.82352941,3,2,4,,,,,,,,2,16,,,,,,,,,,,,,4,3.546,0,,,,,,0.45,-0.264814815,1,0,0,3.5462,Gabbro_rect,3,0,3,0,1,
5a6f1ccade1f390001dbd8b7,SCR,2024-06-11_10h16.02.234,LearnStrategy,2023.2.3,Win32,58.82352941,3,2,5,,,,,,,,3,15,,,,,,,,,,,,,7,3.638,0,,,,,,0.024074074,-0.389814815,1,0,0,3.6383,Peridotite_rect,4,0,4,0,1,
5a6f1ccade1f390001dbd8b7,SCR,2024-06-11_10h16.02.234,LearnStrategy,2023.2.3,Win32,58.82352941,3,2,6,,,,,,,,5,12,,,,,,,,,,,,,5,1.242,1,,,,,,-0.35462963,-0.405555556,1,0,0,1.2425,Obsidian_rect,5,0,5,0,1,
5a6f1ccade1f390001dbd8b7,SCR,2024-06-11_10h16.02.234,LearnStrategy,2023.2.3,Win32,58.82352941,3,2,7,,,,,,,,7,10,,,,,,,,,,,,,6,2.071,0,,,,,,-0.115740741,-0.406481481,1,0,0,2.071,Pegmatite_rect,6,0,6,0,1,
5a6f1ccade1f390001dbd8b7,SCR,2024-06-11_10h16.02.234,LearnStrategy,2023.2.3,Win32,58.82352941,3,2,8,,,,,,,,5,09,,,,,,,,,,,,,5,1.338,1,,,,,,-0.362037037,-0.392592593,1,0,0,1.3376,Obsidian_rect,7,0,7,0,1,
5a6f1ccade1f390001dbd8b7,SCR,2024-06-11_10h16.02.234,LearnStrategy,2023.2.3,Win32,58.82352941,3,2,9,,,,,,,,2,02,,,,,,,,,,,,,4,3.325,0,,,,,,0.412037037,-0.25,1,0,0,3.3248,Gabbro_rect,8,0,8,0,1,
5a6f1ccade1f390001dbd8b7,SCR,2024-06-11_10h16.02.234,LearnStrategy,2023.2.3,Win32,58.82352941,3,2,10,,,,,,,,4,08,,,,,,,,,,,,,2,3.923,0,,,,,,-0.162037037,-0.233333333,1,0,0,3.9233,Basalt_rect,9,0,9,0,1,
5a6f1ccade1f390001dbd8b7,SCR,2024-06-11_10h16.02.234,LearnStrategy,2023.2.3,Win32,58.82352941,3,2,11,,,,,,,,6,16,,,,,,,,,,,,,7,2.925,0,,,,,,0.136111111,-0.413888889,1,0,0,2.9254,Peridotite_rect,10,0,10,0,1,
5a6f1ccade1f390001dbd8b7,SCR,2024-06-11_10h16.02.234,LearnStrategy,2023.2.3,Win32,58.82352941,3,2,12,,,,,,,,1,04,,,,,,,,,,,,,1,3.619,1,,,,,,-0.471296296,-0.244444444,1,0,0,3.6186,Andesite_rect,11,0,11,0,1,
5a6f1ccade1f390001dbd8b7,SCR,2024-06-11_10h16.02.234,LearnStrategy,2023.2.3,Win32,58.82352941,3,2,13,,,,,,,,3,11,,,,,,,,,,,,,6,2.032,0,,,,,,-0.115740741,-0.408333333,1,0,0,2.0322,Pegmatite_rect,12,0,12,0,1,
5a6f1ccade1f390001dbd8b7,SCR,2024-06-11_10h16.02.234,LearnStrategy,2023.2.3,Win32,58.82352941,3,2,14,,,,,,,,4,05,,,,,,,,,,,,,7,4.038,0,,,,,,0.069444444,-0.412037037,1,0,0,4.0379,Peridotite_rect,13,0,13,0,1,
5a6f1ccade1f390001dbd8b7,SCR,2024-06-11_10h16.02.234,LearnStrategy,2023.2.3,Win32,58.82352941,3,2,15,,,,,,,,1,01,,,,,,,,,,,,,1,1.401,1,,,,,,-0.375,-0.228703704,1,0,0,1.4013,Andesite_rect,14,0,14,0,1,
5a6f1ccade1f390001dbd8b7,SCR,2024-06-11_10h16.02.234,LearnStrategy,2023.2.3,Win32,58.82352941,3,2,16,,,,,,,,7,15,,,,,,,,,,,,,6,2.369,0,,,,,,-0.061111111,-0.406481481,1,0,0,2.3688,Pegmatite_rect,15,0,15,0,1,
5a6f1ccade1f390001dbd8b7,SCR,2024-06-11_10h16.02.234,LearnStrategy,2023.2.3,Win32,58.82352941,4,1,1,0.553703704,0.234259259,1,0,0,1.4616,Pegmatite_15,6,15,5,8,1.462,6,15,-0.130555556,-0.385185185,1,0,0,1.6686,Pegmatite_rect,6,1.669,1,0,0,0,0,1,,,,,,,,,,,,,
5a6f1ccade1f390001dbd8b7,SCR,2024-06-11_10h16.02.234,LearnStrategy,2023.2.3,Win32,58.82352941,4,1,2,-0.281481481,0.406481481,1,0,0,1.004,Andesite_03,1,03,6,3,1.004,1,03,-0.361111111,-0.249074074,1,0,0,1.2473,Andesite_rect,1,1.247,1,1,0,1,0,1,,,,,,,,,,,,,
5a6f1ccade1f390001dbd8b7,SCR,2024-06-11_10h16.02.234,LearnStrategy,2023.2.3,Win32,58.82352941,4,1,3,-0.076851852,-0.464814815,1,0,0,0.9943,Basalt_01,2,01,1,4,0.994,2,01,-0.115740741,-0.264814815,1,0,0,1.7155,Basalt_rect,2,1.716,1,2,0,2,0,1,,,,,,,,,,,,,
5a6f1ccade1f390001dbd8b7,SCR,2024-06-11_10h16.02.234,LearnStrategy,2023.2.3,Win32,58.82352941,4,1,4,0.1,-0.433333333,1,0,0,1.1313,Diorite_12,3,12,1,5,1.131,7,04,0.068518519,-0.419444444,1,0,0,2.8145,Peridotite_rect,7,2.815,0,3,0,3,0,1,,,,,,,,,,,,,
5a6f1ccade1f390001dbd8b7,SCR,2024-06-11_10h16.02.234,LearnStrategy,2023.2.3,Win32,58.82352941,4,1,5,0.196296296,-0.427777778,1,0,0,0.9168,Pegmatite_03,6,03,1,6,0.917,3,07,0.15,-0.39537037,1,0,0,1.4287,Peridotite_rect,7,1.429,0,4,0,4,0,1,,,,,,,,,,,,,
5a6f1ccade1f390001dbd8b7,SCR,2024-06-11_10h16.02.234,LearnStrategy,2023.2.3,Win32,58.82352941,4,1,6,0.40462963,-0.431481481,1,0,0,0.9816,Basalt_10,2,10,1,7,0.982,3,07,0.412962963,-0.252777778,1,0,0,2.8554,Gabbro_rect,4,2.855,0,5,0,5,0,1,,,,,,,,,,,,,
5a6f1ccade1f390001dbd8b7,SCR,2024-06-11_10h16.02.234,LearnStrategy,2023.2.3,Win32,58.82352941,4,1,7,0.559259259,-0.409259259,1,0,0,1.1655,Pumice_14,8,14,1,8,1.165,4,11,0.473148148,-0.400925926,1,0,0,0.7916,Pumice_rect,8,0.792,1,6,0,6,0,1,,,,,,,,,,,,,
5a6f1ccade1f390001dbd8b7,SCR,2024-06-11_10h16.02.234,LearnStrategy,2023.2.3,Win32,58.82352941,4,1,8,0.564814815,0.259259259,1,0,0,1.6146,Pegmatite_15,6,15,5,8,1.615,6,15,0.115740741,-0.394444444,1,0,0,1.0472,Peridotite_rect,7,1.047,0,7,0,7,0,1,,,,,,,,,,,,,
5a6f1ccade1f390001dbd8b7,SCR,2024-06-11_10h16.02.234,LearnStrategy,2023.2.3,Win32,58.82352941,4,1,9,0.4,-0.436111111,1,0,0,1.7583,Basalt_10,2,10,1,7,1.758,2,10,-0.141666667,-0.258333333,1,0,0,1.4756,Basalt_rect,2,1.476,1,8,0,8,0,1,,,,,,,,,,,,,
5a6f1ccade1f390001dbd8b7,SCR,2024-06-11_10h16.02.234,LearnStrategy,2023.2.3,Win32,58.82352941,4,1,10,0.438888889,0.111111111,1,0,0,1.0265,Basalt_04,2,04,4,7,1.026,2,04,0.336111111,-0.238888889,1,0,0,1.8761,Gabbro_rect,4,1.876,0,9,0,9,0,1,,,,,,,,,,,,,
5a6f1ccade1f390001dbd8b7,SCR,2024-06-11_10h16.02.234,LearnStrategy,2023.2.3,Win32,58.82352941,4,1,11,-0.250925926,0.213888889,1,0,0,1.1208,Peridotite_04,7,04,5,3,1.121,7,04,-0.067592593,-0.40462963,1,0,0,1.7534,Pegmatite_rect,6,1.753,0,10,0,10,0,1,,,,,,,,,,,,,
5a6f1ccade1f390001dbd8b7,SCR,2024-06-11_10h16.02.234,LearnStrategy,2023.2.3,Win32,58.82352941,4,1,12,-0.340740741,-0.223148148,1,0,0,1.4815,Gabbro_03,4,03,2,2,1.482,4,03,-0.349074074,-0.237037037,1,0,0,1.6742,Andesite_rect,1,1.674,0,11,0,11,0,1,,,,,,,,,,,,,
5a6f1ccade1f390001dbd8b7,SCR,2024-06-11_10h16.02.234,LearnStrategy,2023.2.3,Win32,58.82352941,4,1,13,-0.509259259,-0.075925926,1,0,0,0.9728,Pegmatite_08,6,08,3,1,0.973,6,08,0.17962963,-0.384259259,1,0,0,1.0929,Peridotite_rect,7,1.093,0,12,0,12,0,1,,,,,,,,,,,,,
5a6f1ccade1f390001dbd8b7,SCR,2024-06-11_10h16.02.234,LearnStrategy,2023.2.3,Win32,58.82352941,4,1,14,0.075,0.414814815,1,0,0,0.8943,Diorite_08,3,08,6,5,0.894,3,08,0.116666667,-0.392592593,1,0,0,2.8267,Peridotite_rect,7,2.827,0,13,0,13,0,1,,,,,,,,,,,,,
5a6f1ccade1f390001dbd8b7,SCR,2024-06-11_10h16.02.234,LearnStrategy,2023.2.3,Win32,58.82352941,4,1,15,-0.087037037,-0.249074074,1,0,0,1.1084,Peridotite_13,7,13,2,4,1.108,7,13,-0.09537037,-0.398148148,1,0,0,1.2286,Pegmatite_rect,6,1.229,0,14,0,14,0,1,,,,,,,,,,,,,
5a6f1ccade1f390001dbd8b7,SCR,2024-06-11_10h16.02.234,LearnStrategy,2023.2.3,Win32,58.82352941,4,1,16,-0.526851852,0.376851852,1,0,0,1.3535,Gabbro_11,4,11,6,1,1.353,4,11,0.384259259,-0.264814815,1,0,0,2.7645,Gabbro_rect,4,2.764,1,15,0,15,0,1,,,,,,,,,,,,,
5a6f1ccade1f390001dbd8b7,SCR,2024-06-11_10h16.02.234,LearnStrategy,2023.2.3,Win32,58.82352941,4,2,1,,,,,,,,5,06,,,,,,,,,,,,,5,1.697,1,,,,,,-0.385185185,-0.402777778,1,0,0,1.6975,Obsidian_rect,0,0,0,0,1,
5a6f1ccade1f390001dbd8b7,SCR,2024-06-11_10h16.02.234,LearnStrategy,2023.2.3,Win32,58.82352941,4,2,2,,,,,,,,8,15,,,,,,,,,,,,,8,2.88,1,,,,,,0.415740741,-0.388888889,1,0,0,2.8803,Pumice_rect,1,0,1,0,1,
5a6f1ccade1f390001dbd8b7,SCR,2024-06-11_10h16.02.234,LearnStrategy,2023.2.3,Win32,58.82352941,4,2,3,,,,,,,,7,15,,,,,,,,,,,,,6,3.971,0,,,,,,-0.093518519,-0.391666667,1,0,0,3.9705,Pegmatite_rect,2,0,2,0,1,
5a6f1ccade1f390001dbd8b7,SCR,2024-06-11_10h16.02.234,LearnStrategy,2023.2.3,Win32,58.82352941,4,2,4,,,,,,,,5,09,,,,,,,,,,,,,5,1.295,1,,,,,,-0.339814815,-0.402777778,1,0,0,1.2947,Obsidian_rect,3,0,3,0,1,
5a6f1ccade1f390001dbd8b7,SCR,2024-06-11_10h16.02.234,LearnStrategy,2023.2.3,Win32,58.82352941,4,2,5,,,,,,,,2,02,,,,,,,,,,,,,2,2.971,1,,,,,,-0.113888889,-0.246296296,1,0,0,2.9708,Basalt_rect,4,0,4,0,1,
5a6f1ccade1f390001dbd8b7,SCR,2024-06-11_10h16.02.234,LearnStrategy,2023.2.3,Win32,58.82352941,4,2,6,,,,,,,,6,07,,,,,,,,,,,,,7,3.645,0,,,,,,0.100925926,-0.399074074,1,0,0,3.6448,Peridotite_rect,5,0,5,0,1,
5a6f1ccade1f390001dbd8b7,SCR,2024-06-11_10h16.02.234,LearnStrategy,2023.2.3,Win32,58.82352941,4,2,7,,,,,,,,2,11,,,,,,,,,,,,,2,1.633,1,,,,,,-0.1,-0.242592593,1,0,0,1.6331,Basalt_rect,6,0,6,0,1,
5a6f1ccade1f390001dbd8b7,SCR,2024-06-11_10h16.02.234,LearnStrategy,2023.2.3,Win32,58.82352941,4,2,8,,,,,,,,6,13,,,,,,,,,,,,,7,4.658,0,,,,,,0.119444444,-0.397222222,1,0,0,4.6584,Peridotite_rect,7,0,7,0,1,
5a6f1ccade1f390001dbd8b7,SCR,2024-06-11_10h16.02.234,LearnStrategy,2023.2.3,Win32,58.82352941,4,2,9,,,,,,,,3,11,,,,,,,,,,,,,1,1.868,0,,,,,,-0.34537037,-0.231481481,1,0,0,1.8677,Andesite_rect,8,0,8,0,1,
5a6f1ccade1f390001dbd8b7,SCR,2024-06-11_10h16.02.234,LearnStrategy,2023.2.3,Win32,58.82352941,4,2,10,,,,,,,,7,10,,,,,,,,,,,,,6,3.03,0,,,,,,-0.043518519,-0.412962963,1,0,0,3.0299,Pegmatite_rect,9,0,9,0,1,
5a6f1ccade1f390001dbd8b7,SCR,2024-06-11_10h16.02.234,LearnStrategy,2023.2.3,Win32,58.82352941,4,2,11,,,,,,,,1,11,,,,,,,,,,,,,3,4.213,0,,,,,,0.062037037,-0.244444444,1,0,0,4.2127,Diorite_rect,10,0,10,0,1,
5a6f1ccade1f390001dbd8b7,SCR,2024-06-11_10h16.02.234,LearnStrategy,2023.2.3,Win32,58.82352941,4,2,12,,,,,,,,3,02,,,,,,,,,,,,,1,3.219,0,,,,,,-0.356481481,-0.249074074,1,0,0,3.219,Andesite_rect,11,0,11,0,1,
5a6f1ccade1f390001dbd8b7,SCR,2024-06-11_10h16.02.234,LearnStrategy,2023.2.3,Win32,58.82352941,4,2,13,,,,,,,,4,08,,,,,,,,,,,,,2,2.985,0,,,,,,-0.109259259,-0.239814815,1,0,0,2.985,Basalt_rect,12,0,12,0,1,
5a6f1ccade1f390001dbd8b7,SCR,2024-06-11_10h16.02.234,LearnStrategy,2023.2.3,Win32,58.82352941,4,2,14,,,,,,,,1,16,,,,,,,,,,,,,6,2.948,0,,,,,,-0.05462963,-0.401851852,1,0,0,2.9482,Pegmatite_rect,13,0,13,0,1,
5a6f1ccade1f390001dbd8b7,SCR,2024-06-11_10h16.02.234,LearnStrategy,2023.2.3,Win32,58.82352941,4,2,15,,,,,,,,4,01,,,,,,,,,,,,,6,1.765,0,,,,,,-0.102777778,-0.391666667,1,0,0,1.7653,Pegmatite_rect,14,0,14,0,1,
5a6f1ccade1f390001dbd8b7,SCR,2024-06-11_10h16.02.234,LearnStrategy,2023.2.3,Win32,58.82352941,4,2,16,,,,,,,,8,03,,,,,,,,,,,,,8,1.227,1,,,,,,0.374074074,-0.393518519,1,0,0,1.2266,Pumice_rect,15,0,15,0,1,
5a6f1ccade1f390001dbd8b7,SCR,2024-06-11_10h16.02.234,LearnStrategy,2023.2.3,Win32,58.82352941,5,1,1,0.418518519,-0.264814815,1,0,0,1.8634,Peridotite_12,7,12,2,7,1.863,7,12,-0.112962963,-0.397222222,1,0,0,5.3517,Pegmatite_rect,6,5.352,0,0,0,0,0,1,,,,,,,,,,,,,
5a6f1ccade1f390001dbd8b7,SCR,2024-06-11_10h16.02.234,LearnStrategy,2023.2.3,Win32,58.82352941,5,1,2,0.227777778,0.400925926,1,0,0,1.2326,Andesite_06,1,06,6,6,1.233,1,06,0.12037037,-0.380555556,1,0,0,1.3101,Peridotite_rect,7,1.31,0,1,0,1,0,1,,,,,,,,,,,,,
5a6f1ccade1f390001dbd8b7,SCR,2024-06-11_10h16.02.234,LearnStrategy,2023.2.3,Win32,58.82352941,5,1,3,0.422222222,-0.433333333,1,0,0,1.6467,Basalt_10,2,10,1,7,1.647,2,10,-0.062037037,-0.246296296,1,0,0,1.1854,Basalt_rect,2,1.185,1,2,0,2,0,1,,,,,,,,,,,,,
5a6f1ccade1f390001dbd8b7,SCR,2024-06-11_10h16.02.234,LearnStrategy,2023.2.3,Win32,58.82352941,5,1,4,-0.032407407,-0.227777778,1,0,0,0.9388,Peridotite_13,7,13,2,4,0.939,7,13,-0.076851852,-0.401851852,1,0,0,1.2131,Pegmatite_rect,6,1.213,0,3,0,3,0,1,,,,,,,,,,,,,
5a6f1ccade1f390001dbd8b7,SCR,2024-06-11_10h16.02.234,LearnStrategy,2023.2.3,Win32,58.82352941,5,1,5,0.051851852,-0.440740741,1,0,0,1.1358,Diorite_12,3,12,1,5,1.136,3,12,-0.368518519,-0.228703704,1,0,0,1.5642,Andesite_rect,1,1.564,0,4,0,4,0,1,,,,,,,,,,,,,
5a6f1ccade1f390001dbd8b7,SCR,2024-06-11_10h16.02.234,LearnStrategy,2023.2.3,Win32,58.82352941,5,1,6,0.355555556,-0.096296296,1,0,0,1.1502,Pegmatite_06,6,06,3,7,1.15,6,06,0.118518519,-0.386111111,1,0,0,1.2835,Peridotite_rect,7,1.284,0,5,0,5,0,1,,,,,,,,,,,,,
5a6f1ccade1f390001dbd8b7,SCR,2024-06-11_10h16.02.234,LearnStrategy,2023.2.3,Win32,58.82352941,5,1,7,0.121296296,-0.078703704,1,0,0,1.6556,Peridotite_06,7,06,3,5,1.656,7,06,0.091666667,-0.40462963,1,0,0,3.0159,Peridotite_rect,7,3.016,1,6,0,6,0,1,,,,,,,,,,,,,
5a6f1ccade1f390001dbd8b7,SCR,2024-06-11_10h16.02.234,LearnStrategy,2023.2.3,Win32,58.82352941,5,1,8,-0.389814815,-0.291666667,1,0,0,1.0328,Gabbro_03,4,03,2,2,1.033,4,03,-0.381481481,-0.255555556,1,0,0,1.4742,Andesite_rect,1,1.474,0,7,0,7,0,1,,,,,,,,,,,,,
5a6f1ccade1f390001dbd8b7,SCR,2024-06-11_10h16.02.234,LearnStrategy,2023.2.3,Win32,58.82352941,5,1,9,0.105555556,0.366666667,1,0,0,1.6054,Diorite_08,3,08,6,5,1.605,3,08,0.112962963,-0.384259259,1,0,0,1.303,Peridotite_rect,7,1.303,0,8,0,8,0,1,,,,,,,,,,,,,
5a6f1ccade1f390001dbd8b7,SCR,2024-06-11_10h16.02.234,LearnStrategy,2023.2.3,Win32,58.82352941,5,1,10,0.255555556,-0.421296296,1,0,0,1.1465,Pegmatite_03,6,03,1,6,1.146,6,03,0.122222222,-0.40462963,1,0,0,0.959,Peridotite_rect,7,0.959,0,9,0,9,0,1,,,,,,,,,,,,,
5a6f1ccade1f390001dbd8b7,SCR,2024-06-11_10h16.02.234,LearnStrategy,2023.2.3,Win32,58.82352941,5,1,11,-0.555555556,0.436111111,1,0,0,1.7633,Gabbro_11,4,11,6,1,1.763,4,11,-0.114814815,-0.237962963,1,0,0,1.5182,Basalt_rect,2,1.518,0,10,0,10,0,1,,,,,,,,,,,,,
5a6f1ccade1f390001dbd8b7,SCR,2024-06-11_10h16.02.234,LearnStrategy,2023.2.3,Win32,58.82352941,5,1,12,0.052777778,-0.210185185,1,0,0,1.0196,Diorite_06,3,06,2,5,1.02,3,06,-0.103703704,-0.4,1,0,0,2.4276,Pegmatite_rect,6,2.428,0,11,0,11,0,1,,,,,,,,,,,,,
5a6f1ccade1f390001dbd8b7,SCR,2024-06-11_10h16.02.234,LearnStrategy,2023.2.3,Win32,58.82352941,5,1,13,0.356481481,-0.083333333,1,0,0,1.0177,Pegmatite_06,6,06,3,7,1.018,6,06,0.187962963,-0.409259259,1,0,0,1.0105,Peridotite_rect,7,1.01,0,12,0,12,0,1,,,,,,,,,,,,,
5a6f1ccade1f390001dbd8b7,SCR,2024-06-11_10h16.02.234,LearnStrategy,2023.2.3,Win32,58.82352941,5,1,14,-0.411111111,-0.269444444,1,0,0,0.9957,Gabbro_03,4,03,2,2,0.996,4,03,-0.102777778,-0.239814815,1,0,0,3.1935,Basalt_rect,2,3.193,0,13,0,13,0,1,,,,,,,,,,,,,
5a6f1ccade1f390001dbd8b7,SCR,2024-06-11_10h16.02.234,LearnStrategy,2023.2.3,Win32,58.82352941,5,1,15,0.237037037,0.422222222,1,0,0,1.5026,Andesite_06,1,06,6,6,1.503,1,06,0.40462963,-0.258333333,1,0,0,0.8625,Gabbro_rect,4,0.863,0,14,0,14,0,1,,,,,,,,,,,,,
5a6f1ccade1f390001dbd8b7,SCR,2024-06-11_10h16.02.234,LearnStrategy,2023.2.3,Win32,58.82352941,5,1,16,-0.356481481,0.261111111,1,0,0,1.579,Basalt_14,2,14,5,2,1.579,2,14,0.440740741,-0.381481481,1,0,0,1.249,Pumice_rect,8,1.249,0,15,0,15,0,1,,,,,,,,,,,,,
5a6f1ccade1f390001dbd8b7,SCR,2024-06-11_10h16.02.234,LearnStrategy,2023.2.3,Win32,58.82352941,5,2,1,,,,,,,,7,07,,,,,,,,,,,,,6,3.156,0,,,,,,-0.134259259,-0.412962963,1,0,0,3.1557,Pegmatite_rect,0,0,0,0,1,
5a6f1ccade1f390001dbd8b7,SCR,2024-06-11_10h16.02.234,LearnStrategy,2023.2.3,Win32,58.82352941,5,2,2,,,,,,,,5,07,,,,,,,,,,,,,5,1.096,1,,,,,,-0.357407407,-0.384259259,1,0,0,1.0963,Obsidian_rect,1,0,1,0,1,
5a6f1ccade1f390001dbd8b7,SCR,2024-06-11_10h16.02.234,LearnStrategy,2023.2.3,Win32,58.82352941,5,2,3,,,,,,,,1,04,,,,,,,,,,,,,1,3.028,1,,,,,,-0.387037037,-0.228703704,1,0,0,3.0282,Andesite_rect,2,0,2,0,1,
5a6f1ccade1f390001dbd8b7,SCR,2024-06-11_10h16.02.234,LearnStrategy,2023.2.3,Win32,58.82352941,5,2,4,,,,,,,,3,13,,,,,,,,,,,,,1,1.93,0,,,,,,-0.372222222,-0.248148148,1,0,0,1.9299,Andesite_rect,3,0,3,0,1,
5a6f1ccade1f390001dbd8b7,SCR,2024-06-11_10h16.02.234,LearnStrategy,2023.2.3,Win32,58.82352941,5,2,5,,,,,,,,1,14,,,,,,,,,,,,,3,4.524,0,,,,,,0.10462963,-0.235185185,1,0,0,4.5239,Diorite_rect,4,0,4,0,1,
5a6f1ccade1f390001dbd8b7,SCR,2024-06-11_10h16.02.234,LearnStrategy,2023.2.3,Win32,58.82352941,5,2,6,,,,,,,,3,15,,,,,,,,,,,,,6,3.693,0,,,,,,-0.092592593,-0.410185185,1,0,0,3.6935,Pegmatite_rect,5,0,5,0,1,
5a6f1ccade1f390001dbd8b7,SCR,2024-06-11_10h16.02.234,LearnStrategy,2023.2.3,Win32,58.82352941,5,2,7,,,,,,,,4,13,,,,,,,,,,,,,3,2.794,0,,,,,,0.068518519,-0.256481481,1,0,0,2.7939,Diorite_rect,6,0,6,0,1,
5a6f1ccade1f390001dbd8b7,SCR,2024-06-11_10h16.02.234,LearnStrategy,2023.2.3,Win32,58.82352941,5,2,8,,,,,,,,8,08,,,,,,,,,,,,,8,1.689,1,,,,,,0.437962963,-0.415740741,1,0,0,1.6892,Pumice_rect,7,0,7,0,1,
5a6f1ccade1f390001dbd8b7,SCR,2024-06-11_10h16.02.234,LearnStrategy,2023.2.3,Win32,58.82352941,5,2,9,,,,,,,,4,14,,,,,,,,,,,,,4,4.012,1,,,,,,0.334259259,-0.247222222,1,0,0,4.0124,Gabbro_rect,8,0,8,0,1,
5a6f1ccade1f390001dbd8b7,SCR,2024-06-11_10h16.02.234,LearnStrategy,2023.2.3,Win32,58.82352941,5,2,10,,,,,,,,6,10,,,,,,,,,,,,,7,2.736,0,,,,,,0.106481481,-0.4,1,0,0,2.7359,Peridotite_rect,9,0,9,0,1,
5a6f1ccade1f390001dbd8b7,SCR,2024-06-11_10h16.02.234,LearnStrategy,2023.2.3,Win32,58.82352941,5,2,11,,,,,,,,2,12,,,,,,,,,,,,,8,1.455,0,,,,,,0.368518519,-0.403703704,1,0,0,1.4548,Pumice_rect,10,0,10,0,1,
5a6f1ccade1f390001dbd8b7,SCR,2024-06-11_10h16.02.234,LearnStrategy,2023.2.3,Win32,58.82352941,5,2,12,,,,,,,,5,08,,,,,,,,,,,,,5,1.234,1,,,,,,-0.425,-0.411111111,1,0,0,1.2343,Obsidian_rect,11,0,11,0,1,
5a6f1ccade1f390001dbd8b7,SCR,2024-06-11_10h16.02.234,LearnStrategy,2023.2.3,Win32,58.82352941,5,2,13,,,,,,,,7,16,,,,,,,,,,,,,4,5.475,0,,,,,,0.382407407,-0.251851852,1,0,0,5.4748,Gabbro_rect,12,0,12,0,1,
5a6f1ccade1f390001dbd8b7,SCR,2024-06-11_10h16.02.234,LearnStrategy,2023.2.3,Win32,58.82352941,5,2,14,,,,,,,,8,02,,,,,,,,,,,,,8,1.371,1,,,,,,0.365740741,-0.408333333,1,0,0,1.3712,Pumice_rect,13,0,13,0,1,
5a6f1ccade1f390001dbd8b7,SCR,2024-06-11_10h16.02.234,LearnStrategy,2023.2.3,Win32,58.82352941,5,2,15,,,,,,,,2,08,,,,,,,,,,,,,2,3.591,1,,,,,,-0.160185185,-0.244444444,1,0,0,3.5906,Basalt_rect,14,0,14,0,1,
5a6f1ccade1f390001dbd8b7,SCR,2024-06-11_10h16.02.234,LearnStrategy,2023.2.3,Win32,58.82352941,5,2,16,,,,,,,,6,05,,,,,,,,,,,,,6,4.255,1,,,,,,-0.069444444,-0.400925926,1,0,0,4.2553,Pegmatite_rect,15,0,15,0,1,
5a6f1ccade1f390001dbd8b7,SCR,2024-06-11_10h16.02.234,LearnStrategy,2023.2.3,Win32,58.82352941,6,1,1,-0.060185185,-0.417592593,1,0,0,1.9846,Basalt_01,2,01,1,4,1.985,2,01,-0.12037037,-0.247222222,1,0,0,1.1827,Basalt_rect,2,1.183,1,0,0,0,0,1,,,,,,,,,,,,,
5a6f1ccade1f390001dbd8b7,SCR,2024-06-11_10h16.02.234,LearnStrategy,2023.2.3,Win32,58.82352941,6,1,2,0.232407407,0.27037037,1,0,0,1.2952,Gabbro_10,4,10,5,6,1.295,4,10,0.426851852,-0.257407407,1,0,0,2.04,Gabbro_rect,4,2.04,1,1,0,1,0,1,,,,,,,,,,,,,
5a6f1ccade1f390001dbd8b7,SCR,2024-06-11_10h16.02.234,LearnStrategy,2023.2.3,Win32,58.82352941,6,1,3,-0.390740741,0.405555556,1,0,0,1.2245,Diorite_14,3,14,6,2,1.225,3,14,-0.127777778,-0.419444444,1,0,0,3.2618,Pegmatite_rect,6,3.262,0,2,0,2,0,1,,,,,,,,,,,,,
5a6f1ccade1f390001dbd8b7,SCR,2024-06-11_10h16.02.234,LearnStrategy,2023.2.3,Win32,58.82352941,6,1,4,0.373148148,0.224074074,1,0,0,1.431,Basalt_06,2,06,5,7,1.431,2,06,-0.140740741,-0.237037037,1,0,0,2.2621,Basalt_rect,2,2.262,1,3,0,3,0,1,,,,,,,,,,,,,
5a6f1ccade1f390001dbd8b7,SCR,2024-06-11_10h16.02.234,LearnStrategy,2023.2.3,Win32,58.82352941,6,1,5,-0.192592593,-0.103703704,1,0,0,1.1478,Pegmatite_09,6,09,3,3,1.148,6,09,-0.123148148,-0.403703704,1,0,0,2.343,Pegmatite_rect,6,2.343,1,4,0,4,0,1,,,,,,,,,,,,,
5a6f1ccade1f390001dbd8b7,SCR,2024-06-11_10h16.02.234,LearnStrategy,2023.2.3,Win32,58.82352941,6,1,6,-0.087962963,-0.281481481,1,0,0,1.0619,Peridotite_13,7,13,2,4,1.062,7,13,-0.098148148,-0.392592593,1,0,0,1.1476,Pegmatite_rect,6,1.148,0,5,0,5,0,1,,,,,,,,,,,,,
5a6f1ccade1f390001dbd8b7,SCR,2024-06-11_10h16.02.234,LearnStrategy,2023.2.3,Win32,58.82352941,6,1,7,-0.509259259,-0.412962963,1,0,0,3.5475,Gabbro_09,4,09,1,1,3.547,4,09,-0.071296296,-0.25462963,1,0,0,1.287,Basalt_rect,2,1.287,0,6,0,6,0,1,,,,,,,,,,,,,
5a6f1ccade1f390001dbd8b7,SCR,2024-06-11_10h16.02.234,LearnStrategy,2023.2.3,Win32,58.82352941,6,1,8,-0.378703704,-0.102777778,1,0,0,0.8636,Andesite_02,1,02,3,2,0.864,1,02,0.151851852,-0.248148148,1,0,0,2.6705,Diorite_rect,3,2.67,0,7,0,7,0,1,,,,,,,,,,,,,
5a6f1ccade1f390001dbd8b7,SCR,2024-06-11_10h16.02.234,LearnStrategy,2023.2.3,Win32,58.82352941,6,1,9,0.22962963,-0.377777778,1,0,0,0.9765,Pegmatite_03,6,03,1,6,0.976,6,03,-0.098148148,-0.397222222,1,0,0,1.3587,Pegmatite_rect,6,1.359,1,8,0,8,0,1,,,,,,,,,,,,,
5a6f1ccade1f390001dbd8b7,SCR,2024-06-11_10h16.02.234,LearnStrategy,2023.2.3,Win32,58.82352941,6,1,10,0.040740741,-0.09537037,1,0,0,1.0819,Peridotite_06,7,06,3,5,1.082,7,06,-0.134259259,-0.402777778,1,0,0,1.47,Pegmatite_rect,6,1.47,0,9,0,9,0,1,,,,,,,,,,,,,
5a6f1ccade1f390001dbd8b7,SCR,2024-06-11_10h16.02.234,LearnStrategy,2023.2.3,Win32,58.82352941,6,1,11,0.055555556,0.380555556,1,0,0,1.018,Diorite_08,3,08,6,5,1.018,3,08,-0.340740741,-0.237962963,1,0,0,2.4752,Andesite_rect,1,2.475,0,10,0,10,0,1,,,,,,,,,,,,,
5a6f1ccade1f390001dbd8b7,SCR,2024-06-11_10h16.02.234,LearnStrategy,2023.2.3,Win32,58.82352941,6,1,12,-0.236111111,0.211111111,1,0,0,0.8475,Peridotite_04,7,04,5,3,0.847,7,04,-0.108333333,-0.393518519,1,0,0,1.2937,Pegmatite_rect,6,1.294,0,11,0,11,0,1,,,,,,,,,,,,,
5a6f1ccade1f390001dbd8b7,SCR,2024-06-11_10h16.02.234,LearnStrategy,2023.2.3,Win32,58.82352941,6,1,13,0.125925926,0.393518519,1,0,0,0.8287,Diorite_08,3,08,6,5,0.829,3,08,0.163888889,-0.247222222,1,0,0,1.6338,Diorite_rect,3,1.634,1,12,0,12,0,1,,,,,,,,,,,,,
5a6f1ccade1f390001dbd8b7,SCR,2024-06-11_10h16.02.234,LearnStrategy,2023.2.3,Win32,58.82352941,6,1,14,0.513888889,0.380555556,1,0,0,1.1357,Pegmatite_12,6,12,6,8,1.136,6,12,-0.183333333,-0.408333333,1,0,0,2.1361,Pegmatite_rect,6,2.136,1,13,0,13,0,1,,,,,,,,,,,,,
5a6f1ccade1f390001dbd8b7,SCR,2024-06-11_10h16.02.234,LearnStrategy,2023.2.3,Win32,58.82352941,6,1,15,-0.400925926,-0.452777778,1,0,0,1.5653,Andesite_10,1,10,1,2,1.565,1,10,0.337962963,-0.249074074,1,0,0,3.1148,Gabbro_rect,4,3.115,0,14,0,14,0,1,,,,,,,,,,,,,
5a6f1ccade1f390001dbd8b7,SCR,2024-06-11_10h16.02.234,LearnStrategy,2023.2.3,Win32,58.82352941,6,1,16,0.218518519,-0.263888889,1,0,0,1.4696,Andesite_07,1,07,2,6,1.47,1,07,-0.475,-0.25462963,1,0,0,1.5659,Andesite_rect,1,1.566,1,15,0,15,0,1,,,,,,,,,,,,,
5a6f1ccade1f390001dbd8b7,SCR,2024-06-11_10h16.02.234,LearnStrategy,2023.2.3,Win32,58.82352941,6,2,1,,,,,,,,2,09,,,,,,,,,,,,,2,4.292,1,,,,,,-0.119444444,-0.25,1,0,0,4.2916,Basalt_rect,0,0,0,0,1,
5a6f1ccade1f390001dbd8b7,SCR,2024-06-11_10h16.02.234,LearnStrategy,2023.2.3,Win32,58.82352941,6,2,2,,,,,,,,6,11,,,,,,,,,,,,,6,1.952,1,,,,,,-0.12037037,-0.394444444,1,0,0,1.9517,Pegmatite_rect,1,0,1,0,1,
5a6f1ccade1f390001dbd8b7,SCR,2024-06-11_10h16.02.234,LearnStrategy,2023.2.3,Win32,58.82352941,6,2,3,,,,,,,,1,01,,,,,,,,,,,,,1,2.87,1,,,,,,-0.377777778,-0.249074074,1,0,0,2.8698,Andesite_rect,2,0,2,0,1,
5a6f1ccade1f390001dbd8b7,SCR,2024-06-11_10h16.02.234,LearnStrategy,2023.2.3,Win32,58.82352941,6,2,4,,,,,,,,2,16,,,,,,,,,,,,,4,5.968,0,,,,,,0.318518519,-0.238888889,1,0,0,5.968,Gabbro_rect,3,0,3,0,1,
5a6f1ccade1f390001dbd8b7,SCR,2024-06-11_10h16.02.234,LearnStrategy,2023.2.3,Win32,58.82352941,6,2,5,,,,,,,,3,09,,,,,,,,,,,,,3,3.629,1,,,,,,0.12037037,-0.248148148,1,0,0,3.6292,Diorite_rect,4,0,4,0,1,
5a6f1ccade1f390001dbd8b7,SCR,2024-06-11_10h16.02.234,LearnStrategy,2023.2.3,Win32,58.82352941,6,2,6,,,,,,,,8,13,,,,,,,,,,,,,8,3.317,1,,,,,,0.418518519,-0.4,1,0,0,3.3168,Pumice_rect,5,0,5,0,1,
5a6f1ccade1f390001dbd8b7,SCR,2024-06-11_10h16.02.234,LearnStrategy,2023.2.3,Win32,58.82352941,6,2,7,,,,,,,,7,08,,,,,,,,,,,,,7,2.448,1,,,,,,0.117592593,-0.387037037,1,0,0,2.4477,Peridotite_rect,6,0,6,0,1,
5a6f1ccade1f390001dbd8b7,SCR,2024-06-11_10h16.02.234,LearnStrategy,2023.2.3,Win32,58.82352941,6,2,8,,,,,,,,5,02,,,,,,,,,,,,,5,1.272,1,,,,,,-0.401851852,-0.392592593,1,0,0,1.2718,Obsidian_rect,7,0,7,0,1,
5a6f1ccade1f390001dbd8b7,SCR,2024-06-11_10h16.02.234,LearnStrategy,2023.2.3,Win32,58.82352941,6,2,9,,,,,,,,4,05,,,,,,,,,,,,,7,3.566,0,,,,,,0.153703704,-0.406481481,1,0,0,3.5656,Peridotite_rect,8,0,8,0,1,
5a6f1ccade1f390001dbd8b7,SCR,2024-06-11_10h16.02.234,LearnStrategy,2023.2.3,Win32,58.82352941,6,2,10,,,,,,,,7,14,,,,,,,,,,,,,3,7.103,0,,,,,,0.12037037,-0.252777778,1,0,0,7.1032,Diorite_rect,9,0,9,0,1,
5a6f1ccade1f390001dbd8b7,SCR,2024-06-11_10h16.02.234,LearnStrategy,2023.2.3,Win32,58.82352941,6,2,11,,,,,,,,5,12,,,,,,,,,,,,,5,1.326,1,,,,,,-0.376851852,-0.407407407,1,0,0,1.3259,Obsidian_rect,10,0,10,0,1,
5a6f1ccade1f390001dbd8b7,SCR,2024-06-11_10h16.02.234,LearnStrategy,2023.2.3,Win32,58.82352941,6,2,12,,,,,,,,8,05,,,,,,,,,,,,,8,1.539,1,,,,,,0.374074074,-0.401851852,1,0,0,1.5388,Pumice_rect,11,0,11,0,1,
5a6f1ccade1f390001dbd8b7,SCR,2024-06-11_10h16.02.234,LearnStrategy,2023.2.3,Win32,58.82352941,6,2,13,,,,,,,,4,12,,,,,,,,,,,,,2,2.535,0,,,,,,-0.127777778,-0.244444444,1,0,0,2.5351,Basalt_rect,12,0,12,0,1,
5a6f1ccade1f390001dbd8b7,SCR,2024-06-11_10h16.02.234,LearnStrategy,2023.2.3,Win32,58.82352941,6,2,14,,,,,,,,6,16,,,,,,,,,,,,,3,2.309,0,,,,,,0.080555556,-0.255555556,1,0,0,2.3092,Diorite_rect,13,0,13,0,1,
5a6f1ccade1f390001dbd8b7,SCR,2024-06-11_10h16.02.234,LearnStrategy,2023.2.3,Win32,58.82352941,6,2,15,,,,,,,,3,16,,,,,,,,,,,,,1,1.571,0,,,,,,-0.356481481,-0.248148148,1,0,0,1.5708,Andesite_rect,14,0,14,0,1,
5a6f1ccade1f390001dbd8b7,SCR,2024-06-11_10h16.02.234,LearnStrategy,2023.2.3,Win32,58.82352941,6,2,16,,,,,,,,1,09,,,,,,,,,,,,,2,3.358,0,,,,,,-0.135185185,-0.239814815,1,0,0,3.358,Basalt_rect,15,0,15,0,1,
5a6f1ccade1f390001dbd8b7,SCR,2024-06-11_10h16.02.234,LearnStrategy,2023.2.3,Win32,58.82352941,7,1,1,0.085185185,0.250925926,1,0,0,1.0657,Peridotite_05,7,05,5,5,1.066,7,05,0.121296296,-0.40462963,1,0,0,3.5122,Peridotite_rect,7,3.512,1,0,0,0,0,1,,,,,,,,,,,,,
5a6f1ccade1f390001dbd8b7,SCR,2024-06-11_10h16.02.234,LearnStrategy,2023.2.3,Win32,58.82352941,7,1,2,0.071296296,-0.235185185,1,0,0,1.0002,Diorite_06,3,06,2,5,1,3,06,-0.342592593,-0.246296296,1,0,0,1.8291,Andesite_rect,1,1.829,0,1,0,1,0,1,,,,,,,,,,,,,
5a6f1ccade1f390001dbd8b7,SCR,2024-06-11_10h16.02.234,LearnStrategy,2023.2.3,Win32,58.82352941,7,1,3,-0.243518519,0.087037037,1,0,0,0.9139,Andesite_05,1,05,4,3,0.914,1,05,-0.393518519,-0.238888889,1,0,0,1.5363,Andesite_rect,1,1.536,1,2,0,2,0,1,,,,,,,,,,,,,
5a6f1ccade1f390001dbd8b7,SCR,2024-06-11_10h16.02.234,LearnStrategy,2023.2.3,Win32,58.82352941,7,1,4,0.057407407,-0.110185185,1,0,0,0.794,Peridotite_06,7,06,3,5,0.794,7,06,0.149074074,-0.411111111,1,0,0,2.6023,Peridotite_rect,7,2.602,1,3,0,3,0,1,,,,,,,,,,,,,
5a6f1ccade1f390001dbd8b7,SCR,2024-06-11_10h16.02.234,LearnStrategy,2023.2.3,Win32,58.82352941,7,1,5,0.062037037,0.375925926,1,0,0,1.0644,Diorite_08,3,08,6,5,1.064,3,08,0.119444444,-0.235185185,1,0,0,1.5734,Diorite_rect,3,1.573,1,4,0,4,0,1,,,,,,,,,,,,,
5a6f1ccade1f390001dbd8b7,SCR,2024-06-11_10h16.02.234,LearnStrategy,2023.2.3,Win32,58.82352941,7,1,6,-0.075,0.07962963,1,0,0,0.6685,Gabbro_15,4,15,4,4,0.668,4,15,0.375925926,-0.262037037,1,0,0,2.3076,Gabbro_rect,4,2.308,1,5,0,5,0,1,,,,,,,,,,,,,
5a6f1ccade1f390001dbd8b7,SCR,2024-06-11_10h16.02.234,LearnStrategy,2023.2.3,Win32,58.82352941,7,1,7,0.364814815,-0.078703704,1,0,0,1.0048,Pegmatite_06,6,06,3,7,1.005,6,06,-0.062037037,-0.406481481,1,0,0,3.8002,Pegmatite_rect,6,3.8,1,6,0,6,0,1,,,,,,,,,,,,,
5a6f1ccade1f390001dbd8b7,SCR,2024-06-11_10h16.02.234,LearnStrategy,2023.2.3,Win32,58.82352941,7,1,8,0.066666667,-0.098148148,1,0,0,1.2558,Peridotite_06,7,06,3,5,1.256,7,06,-0.066666667,-0.411111111,1,0,0,1.9956,Pegmatite_rect,6,1.996,0,7,0,7,0,1,,,,,,,,,,,,,
5a6f1ccade1f390001dbd8b7,SCR,2024-06-11_10h16.02.234,LearnStrategy,2023.2.3,Win32,58.82352941,7,1,9,-0.49537037,0.371296296,1,0,0,1.0646,Gabbro_11,4,11,6,1,1.065,4,11,-0.096296296,-0.249074074,1,0,0,1.1136,Basalt_rect,2,1.114,0,8,0,8,0,1,,,,,,,,,,,,,
5a6f1ccade1f390001dbd8b7,SCR,2024-06-11_10h16.02.234,LearnStrategy,2023.2.3,Win32,58.82352941,7,1,10,-0.403703704,0.236111111,1,0,0,0.8479,Basalt_14,2,14,5,2,0.848,2,14,0.340740741,-0.407407407,1,0,0,1.157,Pumice_rect,8,1.157,0,9,0,9,0,1,,,,,,,,,,,,,
5a6f1ccade1f390001dbd8b7,SCR,2024-06-11_10h16.02.234,LearnStrategy,2023.2.3,Win32,58.82352941,7,1,11,0.518518519,0.381481481,1,0,0,1.2034,Pegmatite_12,6,12,6,8,1.203,6,12,-0.137037037,-0.407407407,1,0,0,2.1067,Pegmatite_rect,6,2.107,1,10,0,10,0,1,,,,,,,,,,,,,
5a6f1ccade1f390001dbd8b7,SCR,2024-06-11_10h16.02.234,LearnStrategy,2023.2.3,Win32,58.82352941,7,1,12,0.397222222,-0.427777778,1,0,0,1.1593,Basalt_10,2,10,1,7,1.159,2,10,-0.17962963,-0.249074074,1,0,0,2.0392,Basalt_rect,2,2.039,1,11,0,11,0,1,,,,,,,,,,,,,
5a6f1ccade1f390001dbd8b7,SCR,2024-06-11_10h16.02.234,LearnStrategy,2023.2.3,Win32,58.82352941,7,1,13,0.260185185,-0.284259259,1,0,0,1.0501,Andesite_07,1,07,2,6,1.05,1,07,-0.333333333,-0.240740741,1,0,0,1.3493,Andesite_rect,1,1.349,1,12,0,12,0,1,,,,,,,,,,,,,
5a6f1ccade1f390001dbd8b7,SCR,2024-06-11_10h16.02.234,LearnStrategy,2023.2.3,Win32,58.82352941,7,1,14,-0.04537037,0.062962963,1,0,0,0.6978,Gabbro_15,4,15,4,4,0.698,4,15,0.157407407,-0.408333333,1,0,0,3.0587,Peridotite_rect,7,3.059,0,13,0,13,0,1,,,,,,,,,,,,,
5a6f1ccade1f390001dbd8b7,SCR,2024-06-11_10h16.02.234,LearnStrategy,2023.2.3,Win32,58.82352941,7,1,15,-0.061111111,0.387962963,1,0,0,1.0153,Diorite_10,3,10,6,4,1.015,3,10,0.12962963,-0.381481481,1,0,0,2.7792,Peridotite_rect,7,2.779,0,14,0,14,0,1,,,,,,,,,,,,,
5a6f1ccade1f390001dbd8b7,SCR,2024-06-11_10h16.02.234,LearnStrategy,2023.2.3,Win32,58.82352941,7,1,16,0.206481481,-0.301851852,1,0,0,1.1362,Andesite_07,1,07,2,6,1.136,1,07,-0.356481481,-0.242592593,1,0,0,1.0624,Andesite_rect,1,1.062,1,15,0,15,0,1,,,,,,,,,,,,,
5a6f1ccade1f390001dbd8b7,SCR,2024-06-11_10h16.02.234,LearnStrategy,2023.2.3,Win32,58.82352941,7,2,1,,,,,,,,7,14,,,,,,,,,,,,,7,3.937,1,,,,,,0.103703704,-0.399074074,1,0,0,3.9373,Peridotite_rect,0,0,0,0,1,
5a6f1ccade1f390001dbd8b7,SCR,2024-06-11_10h16.02.234,LearnStrategy,2023.2.3,Win32,58.82352941,7,2,2,,,,,,,,4,13,,,,,,,,,,,,,4,2.997,1,,,,,,0.373148148,-0.248148148,1,0,0,2.9971,Gabbro_rect,1,0,1,0,1,
5a6f1ccade1f390001dbd8b7,SCR,2024-06-11_10h16.02.234,LearnStrategy,2023.2.3,Win32,58.82352941,7,2,3,,,,,,,,6,05,,,,,,,,,,,,,6,3.615,1,,,,,,-0.100925926,-0.392592593,1,0,0,3.615,Pegmatite_rect,2,0,2,0,1,
5a6f1ccade1f390001dbd8b7,SCR,2024-06-11_10h16.02.234,LearnStrategy,2023.2.3,Win32,58.82352941,7,2,4,,,,,,,,8,15,,,,,,,,,,,,,8,1.587,1,,,,,,0.37037037,-0.40462963,1,0,0,1.5868,Pumice_rect,3,0,3,0,1,
5a6f1ccade1f390001dbd8b7,SCR,2024-06-11_10h16.02.234,LearnStrategy,2023.2.3,Win32,58.82352941,7,2,5,,,,,,,,6,11,,,,,,,,,,,,,6,1.945,1,,,,,,-0.105555556,-0.387037037,1,0,0,1.9453,Pegmatite_rect,4,0,4,0,1,
5a6f1ccade1f390001dbd8b7,SCR,2024-06-11_10h16.02.234,LearnStrategy,2023.2.3,Win32,58.82352941,7,2,6,,,,,,,,3,15,,,,,,,,,,,,,7,1.972,0,,,,,,0.112037037,-0.403703704,1,0,0,1.9723,Peridotite_rect,5,0,5,0,1,
5a6f1ccade1f390001dbd8b7,SCR,2024-06-11_10h16.02.234,LearnStrategy,2023.2.3,Win32,58.82352941,7,2,7,,,,,,,,1,01,,,,,,,,,,,,,2,2.756,0,,,,,,-0.096296296,-0.250925926,1,0,0,2.7565,Basalt_rect,6,0,6,0,1,
5a6f1ccade1f390001dbd8b7,SCR,2024-06-11_10h16.02.234,LearnStrategy,2023.2.3,Win32,58.82352941,7,2,8,,,,,,,,4,14,,,,,,,,,,,,,4,1.41,1,,,,,,0.348148148,-0.253703704,1,0,0,1.41,Gabbro_rect,7,0,7,0,1,
5a6f1ccade1f390001dbd8b7,SCR,2024-06-11_10h16.02.234,LearnStrategy,2023.2.3,Win32,58.82352941,7,2,9,,,,,,,,5,12,,,,,,,,,,,,,5,2.015,1,,,,,,-0.410185185,-0.412037037,1,0,0,2.0154,Obsidian_rect,8,0,8,0,1,
5a6f1ccade1f390001dbd8b7,SCR,2024-06-11_10h16.02.234,LearnStrategy,2023.2.3,Win32,58.82352941,7,2,10,,,,,,,,1,04,,,,,,,,,,,,,3,3.969,0,,,,,,0.14537037,-0.234259259,1,0,0,3.9695,Diorite_rect,9,0,9,0,1,
5a6f1ccade1f390001dbd8b7,SCR,2024-06-11_10h16.02.234,LearnStrategy,2023.2.3,Win32,58.82352941,7,2,11,,,,,,,,8,13,,,,,,,,,,,,,8,1.466,1,,,,,,0.469444444,-0.410185185,1,0,0,1.4665,Pumice_rect,10,0,10,0,1,
5a6f1ccade1f390001dbd8b7,SCR,2024-06-11_10h16.02.234,LearnStrategy,2023.2.3,Win32,58.82352941,7,2,12,,,,,,,,5,08,,,,,,,,,,,,,5,1.129,1,,,,,,-0.396296296,-0.391666667,1,0,0,1.1293,Obsidian_rect,11,0,11,0,1,
5a6f1ccade1f390001dbd8b7,SCR,2024-06-11_10h16.02.234,LearnStrategy,2023.2.3,Win32,58.82352941,7,2,13,,,,,,,,2,11,,,,,,,,,,,,,2,2.99,1,,,,,,-0.105555556,-0.246296296,1,0,0,2.9895,Basalt_rect,12,0,12,0,1,
5a6f1ccade1f390001dbd8b7,SCR,2024-06-11_10h16.02.234,LearnStrategy,2023.2.3,Win32,58.82352941,7,2,14,,,,,,,,3,11,,,,,,,,,,,,,7,1.89,0,,,,,,0.096296296,-0.392592593,1,0,0,1.8902,Peridotite_rect,13,0,13,0,1,
5a6f1ccade1f390001dbd8b7,SCR,2024-06-11_10h16.02.234,LearnStrategy,2023.2.3,Win32,58.82352941,7,2,15,,,,,,,,7,10,,,,,,,,,,,,,7,2.119,1,,,,,,0.115740741,-0.392592593,1,0,0,2.1187,Peridotite_rect,14,0,14,0,1,
5a6f1ccade1f390001dbd8b7,SCR,2024-06-11_10h16.02.234,LearnStrategy,2023.2.3,Win32,58.82352941,7,2,16,,,,,,,,2,02,,,,,,,,,,,,,4,2.908,0,,,,,,0.362962963,-0.244444444,1,0,0,2.9083,Gabbro_rect,15,0,15,0,1,
5a6f1ccade1f390001dbd8b7,SCR,2024-06-11_10h16.02.234,LearnStrategy,2023.2.3,Win32,58.82352941,8,1,1,0.583333333,-0.259259259,1,0,0,1.5332,Diorite_07,3,07,2,8,1.533,3,07,0.12037037,-0.405555556,1,0,0,2.0747,Peridotite_rect,7,2.075,0,0,0,0,0,1,,,,,,,,,,,,,
5a6f1ccade1f390001dbd8b7,SCR,2024-06-11_10h16.02.234,LearnStrategy,2023.2.3,Win32,58.82352941,8,1,2,-0.212962963,0.369444444,1,0,0,0.9522,Andesite_03,1,03,6,3,0.952,1,03,0.106481481,-0.421296296,1,0,0,1.2142,Peridotite_rect,7,1.214,0,1,0,1,0,1,,,,,,,,,,,,,
5a6f1ccade1f390001dbd8b7,SCR,2024-06-11_10h16.02.234,LearnStrategy,2023.2.3,Win32,58.82352941,8,1,3,-0.396296296,0.448148148,1,0,0,0.9986,Diorite_14,3,14,6,2,0.999,3,14,0.130555556,-0.243518519,1,0,0,2.2756,Diorite_rect,3,2.276,1,2,0,2,0,1,,,,,,,,,,,,,
5a6f1ccade1f390001dbd8b7,SCR,2024-06-11_10h16.02.234,LearnStrategy,2023.2.3,Win32,58.82352941,8,1,4,0.241666667,-0.431481481,1,0,0,1.3473,Pegmatite_03,6,03,1,6,1.347,6,03,-0.133333333,-0.396296296,1,0,0,1.2656,Pegmatite_rect,6,1.266,1,3,0,3,0,1,,,,,,,,,,,,,
5a6f1ccade1f390001dbd8b7,SCR,2024-06-11_10h16.02.234,LearnStrategy,2023.2.3,Win32,58.82352941,8,1,5,0.527777778,-0.246296296,1,0,0,1.0465,Diorite_07,3,07,2,8,1.047,3,07,0.22037037,-0.253703704,1,0,0,1.0612,Diorite_rect,3,1.061,1,4,0,4,0,1,,,,,,,,,,,,,
5a6f1ccade1f390001dbd8b7,SCR,2024-06-11_10h16.02.234,LearnStrategy,2023.2.3,Win32,58.82352941,8,1,6,-0.528703704,-0.451851852,1,0,0,1.4186,Gabbro_09,4,09,1,1,1.419,4,09,-0.150925926,-0.241666667,1,0,0,1.315,Basalt_rect,2,1.315,0,5,0,5,0,1,,,,,,,,,,,,,
5a6f1ccade1f390001dbd8b7,SCR,2024-06-11_10h16.02.234,LearnStrategy,2023.2.3,Win32,58.82352941,8,1,7,0.052777778,0.259259259,1,0,0,0.849,Peridotite_05,7,05,5,5,0.849,7,05,0.132407407,-0.396296296,1,0,0,2.1116,Peridotite_rect,7,2.112,1,6,0,6,0,1,,,,,,,,,,,,,
5a6f1ccade1f390001dbd8b7,SCR,2024-06-11_10h16.02.234,LearnStrategy,2023.2.3,Win32,58.82352941,8,1,8,0.400925926,0.138888889,1,0,0,0.8148,Basalt_04,2,04,4,7,0.815,2,04,-0.121296296,-0.248148148,1,0,0,1.3528,Basalt_rect,2,1.353,1,7,0,7,0,1,,,,,,,,,,,,,
5a6f1ccade1f390001dbd8b7,SCR,2024-06-11_10h16.02.234,LearnStrategy,2023.2.3,Win32,58.82352941,8,1,9,-0.260185185,0.099074074,1,0,0,0.7298,Andesite_05,1,05,4,3,0.73,1,05,-0.362962963,-0.240740741,1,0,0,1.349,Andesite_rect,1,1.349,1,8,0,8,0,1,,,,,,,,,,,,,
5a6f1ccade1f390001dbd8b7,SCR,2024-06-11_10h16.02.234,LearnStrategy,2023.2.3,Win32,58.82352941,8,1,10,0.377777778,-0.45,1,0,0,1.0814,Basalt_10,2,10,1,7,1.081,2,10,-0.12037037,-0.252777778,1,0,0,1.3822,Basalt_rect,2,1.382,1,9,0,9,0,1,,,,,,,,,,,,,
5a6f1ccade1f390001dbd8b7,SCR,2024-06-11_10h16.02.234,LearnStrategy,2023.2.3,Win32,58.82352941,8,1,11,0.199074074,-0.138888889,1,0,0,0.9942,Basalt_05,2,05,3,6,0.994,2,05,-0.078703704,-0.260185185,1,0,0,1.864,Basalt_rect,2,1.864,1,10,0,10,0,1,,,,,,,,,,,,,
5a6f1ccade1f390001dbd8b7,SCR,2024-06-11_10h16.02.234,LearnStrategy,2023.2.3,Win32,58.82352941,8,1,12,0.527777778,0.373148148,1,0,0,0.8828,Pegmatite_12,6,12,6,8,0.883,6,12,-0.026851852,-0.400925926,1,0,0,3.0941,Pegmatite_rect,6,3.094,1,11,0,11,0,1,,,,,,,,,,,,,
5a6f1ccade1f390001dbd8b7,SCR,2024-06-11_10h16.02.234,LearnStrategy,2023.2.3,Win32,58.82352941,8,1,13,-0.377777778,0.405555556,1,0,0,0.9376,Diorite_14,3,14,6,2,0.938,3,14,0.172222222,-0.268518519,1,0,0,1.0576,Diorite_rect,3,1.058,1,12,0,12,0,1,,,,,,,,,,,,,
5a6f1ccade1f390001dbd8b7,SCR,2024-06-11_10h16.02.234,LearnStrategy,2023.2.3,Win32,58.82352941,8,1,14,0.396296296,0.460185185,1,0,0,1.1133,Gabbro_16,4,16,6,7,1.113,4,16,0.412962963,-0.232407407,1,0,0,2.5262,Gabbro_rect,4,2.526,1,13,0,13,0,1,,,,,,,,,,,,,
5a6f1ccade1f390001dbd8b7,SCR,2024-06-11_10h16.02.234,LearnStrategy,2023.2.3,Win32,58.82352941,8,1,15,-0.346296296,-0.114814815,1,0,0,1.632,Andesite_02,1,02,3,2,1.632,1,02,0.125925926,-0.238888889,1,0,0,2.0692,Diorite_rect,3,2.069,0,14,0,14,0,1,,,,,,,,,,,,,
5a6f1ccade1f390001dbd8b7,SCR,2024-06-11_10h16.02.234,LearnStrategy,2023.2.3,Win32,58.82352941,8,1,16,0.064814815,-0.083333333,1,0,0,0.848,Peridotite_06,7,06,3,5,0.848,7,06,-0.075,-0.399074074,1,0,0,1.6489,Pegmatite_rect,6,1.649,0,15,0,15,0,1,,,,,,,,,,,,,
5a6f1ccade1f390001dbd8b7,SCR,2024-06-11_10h16.02.234,LearnStrategy,2023.2.3,Win32,58.82352941,8,2,1,,,,,,,,6,13,,,,,,,,,,,,,6,4.964,1,,,,,,-0.115740741,-0.382407407,1,0,0,4.9641,Pegmatite_rect,0,0,0,0,1,
5a6f1ccade1f390001dbd8b7,SCR,2024-06-11_10h16.02.234,LearnStrategy,2023.2.3,Win32,58.82352941,8,2,2,,,,,,,,2,12,,,,,,,,,,,,,8,1.403,0,,,,,,0.359259259,-0.39537037,1,0,0,1.4031,Pumice_rect,1,0,1,0,1,
5a6f1ccade1f390001dbd8b7,SCR,2024-06-11_10h16.02.234,LearnStrategy,2023.2.3,Win32,58.82352941,8,2,3,,,,,,,,8,08,,,,,,,,,,,,,8,1.468,1,,,,,,0.415740741,-0.402777778,1,0,0,1.4677,Pumice_rect,2,0,2,0,1,
5a6f1ccade1f390001dbd8b7,SCR,2024-06-11_10h16.02.234,LearnStrategy,2023.2.3,Win32,58.82352941,8,2,4,,,,,,,,1,14,,,,,,,,,,,,,7,3.86,0,,,,,,0.09537037,-0.407407407,1,0,0,3.8598,Peridotite_rect,3,0,3,0,1,
5a6f1ccade1f390001dbd8b7,SCR,2024-06-11_10h16.02.234,LearnStrategy,2023.2.3,Win32,58.82352941,8,2,5,,,,,,,,5,06,,,,,,,,,,,,,5,1.988,1,,,,,,-0.371296296,-0.393518519,1,0,0,1.9878,Obsidian_rect,4,0,4,0,1,
5a6f1ccade1f390001dbd8b7,SCR,2024-06-11_10h16.02.234,LearnStrategy,2023.2.3,Win32,58.82352941,8,2,6,,,,,,,,5,02,,,,,,,,,,,,,5,1.186,1,,,,,,-0.414814815,-0.414814815,1,0,0,1.1861,Obsidian_rect,5,0,5,0,1,
5a6f1ccade1f390001dbd8b7,SCR,2024-06-11_10h16.02.234,LearnStrategy,2023.2.3,Win32,58.82352941,8,2,7,,,,,,,,8,05,,,,,,,,,,,,,8,1.231,1,,,,,,0.347222222,-0.4,1,0,0,1.231,Pumice_rect,6,0,6,0,1,
5a6f1ccade1f390001dbd8b7,SCR,2024-06-11_10h16.02.234,LearnStrategy,2023.2.3,Win32,58.82352941,8,2,8,,,,,,,,6,16,,,,,,,,,,,,,3,1.779,0,,,,,,0.193518519,-0.244444444,1,0,0,1.779,Diorite_rect,7,0,7,0,1,
5a6f1ccade1f390001dbd8b7,SCR,2024-06-11_10h16.02.234,LearnStrategy,2023.2.3,Win32,58.82352941,8,2,9,,,,,,,,3,13,,,,,,,,,,,,,1,2.037,0,,,,,,-0.366666667,-0.239814815,1,0,0,2.0369,Andesite_rect,8,0,8,0,1,
5a6f1ccade1f390001dbd8b7,SCR,2024-06-11_10h16.02.234,LearnStrategy,2023.2.3,Win32,58.82352941,8,2,10,,,,,,,,7,07,,,,,,,,,,,,,7,1.713,1,,,,,,0.15462963,-0.410185185,1,0,0,1.7129,Peridotite_rect,9,0,9,0,1,
5a6f1ccade1f390001dbd8b7,SCR,2024-06-11_10h16.02.234,LearnStrategy,2023.2.3,Win32,58.82352941,8,2,11,,,,,,,,4,05,,,,,,,,,,,,,7,2.58,0,,,,,,0.155555556,-0.403703704,1,0,0,2.5802,Peridotite_rect,10,0,10,0,1,
5a6f1ccade1f390001dbd8b7,SCR,2024-06-11_10h16.02.234,LearnStrategy,2023.2.3,Win32,58.82352941,8,2,12,,,,,,,,3,16,,,,,,,,,,,,,3,6.359,1,,,,,,0.07037037,-0.260185185,1,0,0,6.3588,Diorite_rect,11,0,11,0,1,
5a6f1ccade1f390001dbd8b7,SCR,2024-06-11_10h16.02.234,LearnStrategy,2023.2.3,Win32,58.82352941,8,2,13,,,,,,,,4,08,,,,,,,,,,,,,4,3.124,1,,,,,,0.406481481,-0.255555556,1,0,0,3.1242,Gabbro_rect,12,0,12,0,1,
5a6f1ccade1f390001dbd8b7,SCR,2024-06-11_10h16.02.234,LearnStrategy,2023.2.3,Win32,58.82352941,8,2,14,,,,,,,,1,11,,,,,,,,,,,,,1,4.739,1,,,,,,-0.397222222,-0.262962963,1,0,0,4.7392,Andesite_rect,13,0,13,0,1,
5a6f1ccade1f390001dbd8b7,SCR,2024-06-11_10h16.02.234,LearnStrategy,2023.2.3,Win32,58.82352941,8,2,15,,,,,,,,2,16,,,,,,,,,,,,,4,3.267,0,,,,,,0.405555556,-0.256481481,1,0,0,3.2675,Gabbro_rect,14,0,14,0,1,
5a6f1ccade1f390001dbd8b7,SCR,2024-06-11_10h16.02.234,LearnStrategy,2023.2.3,Win32,58.82352941,8,2,16,,,,,,,,7,15,,,,,,,,,,,,,7,2.13,1,,,,,,0.159259259,-0.397222222,1,0,0,2.1302,Peridotite_rect,15,0,15,0,1,
5a6f1ccade1f390001dbd8b7,SCR,2024-06-11_10h16.02.234,LearnStrategy,2023.2.3,Win32,58.82352941,9,1,1,0.02962963,-0.22962963,1,0,0,0.9237,Diorite_06,3,06,2,5,0.924,3,06,-0.439814815,-0.234259259,1,0,0,1.7312,Andesite_rect,1,1.731,0,0,0,0,0,1,,,,,,,,,,,,,
5a6f1ccade1f390001dbd8b7,SCR,2024-06-11_10h16.02.234,LearnStrategy,2023.2.3,Win32,58.82352941,9,1,2,-0.027777778,0.381481481,1,0,0,0.9337,Diorite_10,3,10,6,4,0.934,3,10,-0.381481481,-0.228703704,1,0,0,1.9682,Andesite_rect,1,1.968,0,1,0,1,0,1,,,,,,,,,,,,,
5a6f1ccade1f390001dbd8b7,SCR,2024-06-11_10h16.02.234,LearnStrategy,2023.2.3,Win32,58.82352941,9,1,3,0.041666667,0.212962963,1,0,0,0.8173,Peridotite_05,7,05,5,5,0.817,7,05,0.065740741,-0.39537037,1,0,0,0.8126,Peridotite_rect,7,0.813,1,2,0,2,0,1,,,,,,,,,,,,,
5a6f1ccade1f390001dbd8b7,SCR,2024-06-11_10h16.02.234,LearnStrategy,2023.2.3,Win32,58.82352941,9,1,4,0.399074074,-0.412037037,1,0,0,1.0115,Basalt_10,2,10,1,7,1.012,2,10,0.35,-0.250925926,1,0,0,1.7311,Gabbro_rect,4,1.731,0,3,0,3,0,1,,,,,,,,,,,,,
5a6f1ccade1f390001dbd8b7,SCR,2024-06-11_10h16.02.234,LearnStrategy,2023.2.3,Win32,58.82352941,9,1,5,0.538888889,0.205555556,1,0,0,1.0274,Pegmatite_15,6,15,5,8,1.027,6,15,-0.141666667,-0.405555556,1,0,0,1.3143,Pegmatite_rect,6,1.314,1,4,0,4,0,1,,,,,,,,,,,,,
5a6f1ccade1f390001dbd8b7,SCR,2024-06-11_10h16.02.234,LearnStrategy,2023.2.3,Win32,58.82352941,9,1,6,0.057407407,-0.074074074,1,0,0,0.8523,Peridotite_06,7,06,3,5,0.852,7,06,0.111111111,-0.414814815,1,0,0,1.4488,Peridotite_rect,7,1.449,1,5,0,5,0,1,,,,,,,,,,,,,
5a6f1ccade1f390001dbd8b7,SCR,2024-06-11_10h16.02.234,LearnStrategy,2023.2.3,Win32,58.82352941,9,1,7,-0.376851852,-0.397222222,1,0,0,1.1545,Andesite_10,1,10,1,2,1.155,1,10,0.325,-0.257407407,1,0,0,6.0738,Gabbro_rect,4,6.074,0,6,0,6,0,1,,,,,,,,,,,,,
5a6f1ccade1f390001dbd8b7,SCR,2024-06-11_10h16.02.234,LearnStrategy,2023.2.3,Win32,58.82352941,9,1,8,0.57037037,-0.412962963,1,0,0,1.0716,Pumice_14,8,14,1,8,1.072,8,14,0.398148148,-0.401851852,1,0,0,0.911,Pumice_rect,8,0.911,1,7,0,7,0,1,,,,,,,,,,,,,
5a6f1ccade1f390001dbd8b7,SCR,2024-06-11_10h16.02.234,LearnStrategy,2023.2.3,Win32,58.82352941,9,1,9,0.349074074,0.382407407,1,0,0,0.9093,Gabbro_16,4,16,6,7,0.909,4,16,0.482407407,-0.260185185,1,0,0,1.9412,Gabbro_rect,4,1.941,1,8,0,8,0,1,,,,,,,,,,,,,
5a6f1ccade1f390001dbd8b7,SCR,2024-06-11_10h16.02.234,LearnStrategy,2023.2.3,Win32,58.82352941,9,1,10,0.358333333,0.271296296,1,0,0,0.8484,Basalt_06,2,06,5,7,0.848,2,06,-0.107407407,-0.243518519,1,0,0,1.2421,Basalt_rect,2,1.242,1,9,0,9,0,1,,,,,,,,,,,,,
5a6f1ccade1f390001dbd8b7,SCR,2024-06-11_10h16.02.234,LearnStrategy,2023.2.3,Win32,58.82352941,9,1,11,-0.226851852,0.061111111,1,0,0,0.7035,Andesite_05,1,05,4,3,0.704,1,05,-0.392592593,-0.240740741,1,0,0,2.0956,Andesite_rect,1,2.096,1,10,0,10,0,1,,,,,,,,,,,,,
5a6f1ccade1f390001dbd8b7,SCR,2024-06-11_10h16.02.234,LearnStrategy,2023.2.3,Win32,58.82352941,9,1,12,-0.537037037,0.412962963,1,0,0,1.0184,Gabbro_11,4,11,6,1,1.018,4,11,-0.139814815,-0.232407407,1,0,0,2.9095,Basalt_rect,2,2.909,0,11,0,11,0,1,,,,,,,,,,,,,
5a6f1ccade1f390001dbd8b7,SCR,2024-06-11_10h16.02.234,LearnStrategy,2023.2.3,Win32,58.82352941,9,1,13,0.232407407,0.380555556,1,0,0,1.0407,Andesite_06,1,06,6,6,1.041,1,06,-0.363888889,-0.249074074,1,0,0,1.4355,Andesite_rect,1,1.436,1,12,0,12,0,1,,,,,,,,,,,,,
5a6f1ccade1f390001dbd8b7,SCR,2024-06-11_10h16.02.234,LearnStrategy,2023.2.3,Win32,58.82352941,9,1,14,-0.380555556,0.378703704,1,0,0,0.9343,Diorite_14,3,14,6,2,0.934,3,14,0.074074074,-0.25462963,1,0,0,2.1119,Diorite_rect,3,2.112,1,13,0,13,0,1,,,,,,,,,,,,,
5a6f1ccade1f390001dbd8b7,SCR,2024-06-11_10h16.02.234,LearnStrategy,2023.2.3,Win32,58.82352941,9,1,15,0.498148148,0.226851852,1,0,0,1.081,Pegmatite_15,6,15,5,8,1.081,6,15,-0.146296296,-0.393518519,1,0,0,1.3356,Pegmatite_rect,6,1.336,1,14,0,14,0,1,,,,,,,,,,,,,
5a6f1ccade1f390001dbd8b7,SCR,2024-06-11_10h16.02.234,LearnStrategy,2023.2.3,Win32,58.82352941,9,1,16,0.362037037,-0.416666667,1,0,0,0.8539,Basalt_10,2,10,1,7,0.854,2,10,-0.152777778,-0.251851852,1,0,0,2.7018,Basalt_rect,2,2.702,1,15,0,15,0,1,,,,,,,,,,,,,
5a6f1ccade1f390001dbd8b7,SCR,2024-06-11_10h16.02.234,LearnStrategy,2023.2.3,Win32,58.82352941,9,2,1,,,,,,,,5,09,,,,,,,,,,,,,5,1.25,1,,,,,,-0.367592593,-0.392592593,1,0,0,1.2501,Obsidian_rect,0,0,0,0,1,
5a6f1ccade1f390001dbd8b7,SCR,2024-06-11_10h16.02.234,LearnStrategy,2023.2.3,Win32,58.82352941,9,2,2,,,,,,,,1,09,,,,,,,,,,,,,1,2.401,1,,,,,,-0.376851852,-0.253703704,1,0,0,2.4011,Andesite_rect,1,0,1,0,1,
5a6f1ccade1f390001dbd8b7,SCR,2024-06-11_10h16.02.234,LearnStrategy,2023.2.3,Win32,58.82352941,9,2,3,,,,,,,,8,02,,,,,,,,,,,,,8,1.365,1,,,,,,0.4,-0.410185185,1,0,0,1.365,Pumice_rect,2,0,2,0,1,
5a6f1ccade1f390001dbd8b7,SCR,2024-06-11_10h16.02.234,LearnStrategy,2023.2.3,Win32,58.82352941,9,2,4,,,,,,,,7,08,,,,,,,,,,,,,7,2.865,1,,,,,,0.143518519,-0.398148148,1,0,0,2.8652,Peridotite_rect,3,0,3,0,1,
5a6f1ccade1f390001dbd8b7,SCR,2024-06-11_10h16.02.234,LearnStrategy,2023.2.3,Win32,58.82352941,9,2,5,,,,,,,,8,03,,,,,,,,,,,,,8,1.22,1,,,,,,0.364814815,-0.390740741,1,0,0,1.2204,Pumice_rect,4,0,4,0,1,
5a6f1ccade1f390001dbd8b7,SCR,2024-06-11_10h16.02.234,LearnStrategy,2023.2.3,Win32,58.82352941,9,2,6,,,,,,,,5,07,,,,,,,,,,,,,5,1.033,1,,,,,,-0.425925926,-0.415740741,1,0,0,1.0331,Obsidian_rect,5,0,5,0,1,
5a6f1ccade1f390001dbd8b7,SCR,2024-06-11_10h16.02.234,LearnStrategy,2023.2.3,Win32,58.82352941,9,2,7,,,,,,,,7,16,,,,,,,,,,,,,7,3.728,1,,,,,,0.163888889,-0.399074074,1,0,0,3.7277,Peridotite_rect,6,0,6,0,1,
5a6f1ccade1f390001dbd8b7,SCR,2024-06-11_10h16.02.234,LearnStrategy,2023.2.3,Win32,58.82352941,9,2,8,,,,,,,,3,02,,,,,,,,,,,,,1,3.197,0,,,,,,-0.391666667,-0.260185185,1,0,0,3.197,Andesite_rect,7,0,7,0,1,
5a6f1ccade1f390001dbd8b7,SCR,2024-06-11_10h16.02.234,LearnStrategy,2023.2.3,Win32,58.82352941,9,2,9,,,,,,,,4,12,,,,,,,,,,,,,4,4.306,1,,,,,,0.384259259,-0.259259259,1,0,0,4.3064,Gabbro_rect,8,0,8,0,1,
5a6f1ccade1f390001dbd8b7,SCR,2024-06-11_10h16.02.234,LearnStrategy,2023.2.3,Win32,58.82352941,9,2,10,,,,,,,,2,08,,,,,,,,,,,,,2,2.595,1,,,,,,-0.151851852,-0.240740741,1,0,0,2.5945,Basalt_rect,9,0,9,0,1,
5a6f1ccade1f390001dbd8b7,SCR,2024-06-11_10h16.02.234,LearnStrategy,2023.2.3,Win32,58.82352941,9,2,11,,,,,,,,6,07,,,,,,,,,,,,,6,1.969,1,,,,,,-0.125925926,-0.405555556,1,0,0,1.9687,Pegmatite_rect,10,0,10,0,1,
5a6f1ccade1f390001dbd8b7,SCR,2024-06-11_10h16.02.234,LearnStrategy,2023.2.3,Win32,58.82352941,9,2,12,,,,,,,,1,16,,,,,,,,,,,,,1,1.824,1,,,,,,-0.342592593,-0.260185185,1,0,0,1.8239,Andesite_rect,11,0,11,0,1,
5a6f1ccade1f390001dbd8b7,SCR,2024-06-11_10h16.02.234,LearnStrategy,2023.2.3,Win32,58.82352941,9,2,13,,,,,,,,4,01,,,,,,,,,,,,,7,3.376,0,,,,,,0.103703704,-0.42037037,1,0,0,3.3762,Peridotite_rect,12,0,12,0,1,
5a6f1ccade1f390001dbd8b7,SCR,2024-06-11_10h16.02.234,LearnStrategy,2023.2.3,Win32,58.82352941,9,2,14,,,,,,,,2,09,,,,,,,,,,,,,2,2.923,1,,,,,,-0.122222222,-0.249074074,1,0,0,2.923,Basalt_rect,13,0,13,0,1,
5a6f1ccade1f390001dbd8b7,SCR,2024-06-11_10h16.02.234,LearnStrategy,2023.2.3,Win32,58.82352941,9,2,15,,,,,,,,6,10,,,,,,,,,,,,,6,3.77,1,,,,,,-0.060185185,-0.402777778,1,0,0,3.7701,Pegmatite_rect,14,0,14,0,1,
5a6f1ccade1f390001dbd8b7,SCR,2024-06-11_10h16.02.234,LearnStrategy,2023.2.3,Win32,58.82352941,9,2,16,,,,,,,,3,09,,,,,,,,,,,,,3,1.448,1,,,,,,0.17037037,-0.25,1,0,0,1.4476,Diorite_rect,15,0,15,0,1,
5a6f1ccade1f390001dbd8b7,SCR,2024-06-11_10h16.02.234,LearnStrategy,2023.2.3,Win32,58.82352941,,,,,,,,,,,,,,,,,,,,,,,,,,,,,,,,,,,,,,,,,,,,,1
5a6f1ccade1f390001dbd8b7,SCR,2024-06-11_10h16.02.234,LearnStrategy,2023.2.3,Win32,58.82352941,,,,,,,,,,,,,,,,,,,,,,,,,,,,,,,,,,,,,,,,,,,,,
5a6f1ccade1f390001dbd8b7,SCR,2024-06-11_10h16.02.234,LearnStrategy,2023.2.3,Win32,58.82352941,,,,,,,,,,,4,09,1,1,,,,,,,,,,,,,,,,,,,,,,,,,,,,,,,
5a6f1ccade1f390001dbd8b7,SCR,2024-06-11_10h16.02.234,LearnStrategy,2023.2.3,Win32,58.82352941,,,,,,,,,,,1,10,1,2,,,,,,,,,,,,,,,,,,,,,,,,,,,,,,,
5a6f1ccade1f390001dbd8b7,SCR,2024-06-11_10h16.02.234,LearnStrategy,2023.2.3,Win32,58.82352941,,,,,,,,,,,5,05,1,3,,,,,,,,,,,,,,,,,,,,,,,,,,,,,,,
5a6f1ccade1f390001dbd8b7,SCR,2024-06-11_10h16.02.234,LearnStrategy,2023.2.3,Win32,58.82352941,,,,,,,,,,,2,01,1,4,,,,,,,,,,,,,,,,,,,,,,,,,,,,,,,
5a6f1ccade1f390001dbd8b7,SCR,2024-06-11_10h16.02.234,LearnStrategy,2023.2.3,Win32,58.82352941,,,,,,,,,,,3,12,1,5,,,,,,,,,,,,,,,,,,,,,,,,,,,,,,,
5a6f1ccade1f390001dbd8b7,SCR,2024-06-11_10h16.02.234,LearnStrategy,2023.2.3,Win32,58.82352941,,,,,,,,,,,6,03,1,6,,,,,,,,,,,,,,,,,,,,,,,,,,,,,,,
5a6f1ccade1f390001dbd8b7,SCR,2024-06-11_10h16.02.234,LearnStrategy,2023.2.3,Win32,58.82352941,,,,,,,,,,,2,10,1,7,,,,,,,,,,,,,,,,,,,,,,,,,,,,,,,
5a6f1ccade1f390001dbd8b7,SCR,2024-06-11_10h16.02.234,LearnStrategy,2023.2.3,Win32,58.82352941,,,,,,,,,,,8,14,1,8,,,,,,,,,,,,,,,,,,,,,,,,,,,,,,,
5a6f1ccade1f390001dbd8b7,SCR,2024-06-11_10h16.02.234,LearnStrategy,2023.2.3,Win32,58.82352941,,,,,,,,,,,8,04,2,1,,,,,,,,,,,,,,,,,,,,,,,,,,,,,,,
5a6f1ccade1f390001dbd8b7,SCR,2024-06-11_10h16.02.234,LearnStrategy,2023.2.3,Win32,58.82352941,,,,,,,,,,,4,03,2,2,,,,,,,,,,,,,,,,,,,,,,,,,,,,,,,
5a6f1ccade1f390001dbd8b7,SCR,2024-06-11_10h16.02.234,LearnStrategy,2023.2.3,Win32,58.82352941,,,,,,,,,,,8,06,2,3,,,,,,,,,,,,,,,,,,,,,,,,,,,,,,,
5a6f1ccade1f390001dbd8b7,SCR,2024-06-11_10h16.02.234,LearnStrategy,2023.2.3,Win32,58.82352941,,,,,,,,,,,7,13,2,4,,,,,,,,,,,,,,,,,,,,,,,,,,,,,,,
5a6f1ccade1f390001dbd8b7,SCR,2024-06-11_10h16.02.234,LearnStrategy,2023.2.3,Win32,58.82352941,,,,,,,,,,,3,06,2,5,,,,,,,,,,,,,,,,,,,,,,,,,,,,,,,
5a6f1ccade1f390001dbd8b7,SCR,2024-06-11_10h16.02.234,LearnStrategy,2023.2.3,Win32,58.82352941,,,,,,,,,,,1,07,2,6,,,,,,,,,,,,,,,,,,,,,,,,,,,,,,,
5a6f1ccade1f390001dbd8b7,SCR,2024-06-11_10h16.02.234,LearnStrategy,2023.2.3,Win32,58.82352941,,,,,,,,,,,7,12,2,7,,,,,,,,,,,,,,,,,,,,,,,,,,,,,,,
5a6f1ccade1f390001dbd8b7,SCR,2024-06-11_10h16.02.234,LearnStrategy,2023.2.3,Win32,58.82352941,,,,,,,,,,,3,07,2,8,,,,,,,,,,,,,,,,,,,,,,,,,,,,,,,
5a6f1ccade1f390001dbd8b7,SCR,2024-06-11_10h16.02.234,LearnStrategy,2023.2.3,Win32,58.82352941,,,,,,,,,,,6,08,3,1,,,,,,,,,,,,,,,,,,,,,,,,,,,,,,,
5a6f1ccade1f390001dbd8b7,SCR,2024-06-11_10h16.02.234,LearnStrategy,2023.2.3,Win32,58.82352941,,,,,,,,,,,1,02,3,2,,,,,,,,,,,,,,,,,,,,,,,,,,,,,,,
5a6f1ccade1f390001dbd8b7,SCR,2024-06-11_10h16.02.234,LearnStrategy,2023.2.3,Win32,58.82352941,,,,,,,,,,,6,09,3,3,,,,,,,,,,,,,,,,,,,,,,,,,,,,,,,
5a6f1ccade1f390001dbd8b7,SCR,2024-06-11_10h16.02.234,LearnStrategy,2023.2.3,Win32,58.82352941,,,,,,,,,,,7,02,3,4,,,,,,,,,,,,,,,,,,,,,,,,,,,,,,,
5a6f1ccade1f390001dbd8b7,SCR,2024-06-11_10h16.02.234,LearnStrategy,2023.2.3,Win32,58.82352941,,,,,,,,,,,7,06,3,5,,,,,,,,,,,,,,,,,,,,,,,,,,,,,,,
5a6f1ccade1f390001dbd8b7,SCR,2024-06-11_10h16.02.234,LearnStrategy,2023.2.3,Win32,58.82352941,,,,,,,,,,,2,05,3,6,,,,,,,,,,,,,,,,,,,,,,,,,,,,,,,
5a6f1ccade1f390001dbd8b7,SCR,2024-06-11_10h16.02.234,LearnStrategy,2023.2.3,Win32,58.82352941,,,,,,,,,,,6,06,3,7,,,,,,,,,,,,,,,,,,,,,,,,,,,,,,,
5a6f1ccade1f390001dbd8b7,SCR,2024-06-11_10h16.02.234,LearnStrategy,2023.2.3,Win32,58.82352941,,,,,,,,,,,5,16,3,8,,,,,,,,,,,,,,,,,,,,,,,,,,,,,,,
5a6f1ccade1f390001dbd8b7,SCR,2024-06-11_10h16.02.234,LearnStrategy,2023.2.3,Win32,58.82352941,,,,,,,,,,,5,11,4,1,,,,,,,,,,,,,,,,,,,,,,,,,,,,,,,
5a6f1ccade1f390001dbd8b7,SCR,2024-06-11_10h16.02.234,LearnStrategy,2023.2.3,Win32,58.82352941,,,,,,,,,,,8,09,4,2,,,,,,,,,,,,,,,,,,,,,,,,,,,,,,,
5a6f1ccade1f390001dbd8b7,SCR,2024-06-11_10h16.02.234,LearnStrategy,2023.2.3,Win32,58.82352941,,,,,,,,,,,1,05,4,3,,,,,,,,,,,,,,,,,,,,,,,,,,,,,,,
5a6f1ccade1f390001dbd8b7,SCR,2024-06-11_10h16.02.234,LearnStrategy,2023.2.3,Win32,58.82352941,,,,,,,,,,,4,15,4,4,,,,,,,,,,,,,,,,,,,,,,,,,,,,,,,
5a6f1ccade1f390001dbd8b7,SCR,2024-06-11_10h16.02.234,LearnStrategy,2023.2.3,Win32,58.82352941,,,,,,,,,,,5,10,4,5,,,,,,,,,,,,,,,,,,,,,,,,,,,,,,,
5a6f1ccade1f390001dbd8b7,SCR,2024-06-11_10h16.02.234,LearnStrategy,2023.2.3,Win32,58.82352941,,,,,,,,,,,5,04,4,6,,,,,,,,,,,,,,,,,,,,,,,,,,,,,,,
5a6f1ccade1f390001dbd8b7,SCR,2024-06-11_10h16.02.234,LearnStrategy,2023.2.3,Win32,58.82352941,,,,,,,,,,,2,04,4,7,,,,,,,,,,,,,,,,,,,,,,,,,,,,,,,
5a6f1ccade1f390001dbd8b7,SCR,2024-06-11_10h16.02.234,LearnStrategy,2023.2.3,Win32,58.82352941,,,,,,,,,,,8,16,4,8,,,,,,,,,,,,,,,,,,,,,,,,,,,,,,,
5a6f1ccade1f390001dbd8b7,SCR,2024-06-11_10h16.02.234,LearnStrategy,2023.2.3,Win32,58.82352941,,,,,,,,,,,8,10,5,1,,,,,,,,,,,,,,,,,,,,,,,,,,,,,,,
5a6f1ccade1f390001dbd8b7,SCR,2024-06-11_10h16.02.234,LearnStrategy,2023.2.3,Win32,58.82352941,,,,,,,,,,,2,14,5,2,,,,,,,,,,,,,,,,,,,,,,,,,,,,,,,
5a6f1ccade1f390001dbd8b7,SCR,2024-06-11_10h16.02.234,LearnStrategy,2023.2.3,Win32,58.82352941,,,,,,,,,,,7,04,5,3,,,,,,,,,,,,,,,,,,,,,,,,,,,,,,,
5a6f1ccade1f390001dbd8b7,SCR,2024-06-11_10h16.02.234,LearnStrategy,2023.2.3,Win32,58.82352941,,,,,,,,,,,5,14,5,4,,,,,,,,,,,,,,,,,,,,,,,,,,,,,,,
5a6f1ccade1f390001dbd8b7,SCR,2024-06-11_10h16.02.234,LearnStrategy,2023.2.3,Win32,58.82352941,,,,,,,,,,,7,05,5,5,,,,,,,,,,,,,,,,,,,,,,,,,,,,,,,
5a6f1ccade1f390001dbd8b7,SCR,2024-06-11_10h16.02.234,LearnStrategy,2023.2.3,Win32,58.82352941,,,,,,,,,,,4,10,5,6,,,,,,,,,,,,,,,,,,,,,,,,,,,,,,,
5a6f1ccade1f390001dbd8b7,SCR,2024-06-11_10h16.02.234,LearnStrategy,2023.2.3,Win32,58.82352941,,,,,,,,,,,2,06,5,7,,,,,,,,,,,,,,,,,,,,,,,,,,,,,,,
5a6f1ccade1f390001dbd8b7,SCR,2024-06-11_10h16.02.234,LearnStrategy,2023.2.3,Win32,58.82352941,,,,,,,,,,,6,15,5,8,,,,,,,,,,,,,,,,,,,,,,,,,,,,,,,
5a6f1ccade1f390001dbd8b7,SCR,2024-06-11_10h16.02.234,LearnStrategy,2023.2.3,Win32,58.82352941,,,,,,,,,,,4,11,6,1,,,,,,,,,,,,,,,,,,,,,,,,,,,,,,,
5a6f1ccade1f390001dbd8b7,SCR,2024-06-11_10h16.02.234,LearnStrategy,2023.2.3,Win32,58.82352941,,,,,,,,,,,3,14,6,2,,,,,,,,,,,,,,,,,,,,,,,,,,,,,,,
5a6f1ccade1f390001dbd8b7,SCR,2024-06-11_10h16.02.234,LearnStrategy,2023.2.3,Win32,58.82352941,,,,,,,,,,,1,03,6,3,,,,,,,,,,,,,,,,,,,,,,,,,,,,,,,
5a6f1ccade1f390001dbd8b7,SCR,2024-06-11_10h16.02.234,LearnStrategy,2023.2.3,Win32,58.82352941,,,,,,,,,,,3,10,6,4,,,,,,,,,,,,,,,,,,,,,,,,,,,,,,,
5a6f1ccade1f390001dbd8b7,SCR,2024-06-11_10h16.02.234,LearnStrategy,2023.2.3,Win32,58.82352941,,,,,,,,,,,3,08,6,5,,,,,,,,,,,,,,,,,,,,,,,,,,,,,,,
5a6f1ccade1f390001dbd8b7,SCR,2024-06-11_10h16.02.234,LearnStrategy,2023.2.3,Win32,58.82352941,,,,,,,,,,,1,06,6,6,,,,,,,,,,,,,,,,,,,,,,,,,,,,,,,
5a6f1ccade1f390001dbd8b7,SCR,2024-06-11_10h16.02.234,LearnStrategy,2023.2.3,Win32,58.82352941,,,,,,,,,,,4,16,6,7,,,,,,,,,,,,,,,,,,,,,,,,,,,,,,,
5a6f1ccade1f390001dbd8b7,SCR,2024-06-11_10h16.02.234,LearnStrategy,2023.2.3,Win32,58.82352941,,,,,,,,,,,6,12,6,8,,,,,,,,,,,,,,,,,,,,,,,,,,,,,,,