participant,condition,date,expName,psychopyVersion,OS,frameRate,block,phase,trial,learn_mouse_2.x,learn_mouse_2.y,learn_mouse_2.leftButton,learn_mouse_2.midButton,learn_mouse_2.rightButton,learn_mouse_2.time,learn_mouse_2.clicked_name,cat,token,row,col,t_select,cat_mouse_l.x,cat_mouse_l.y,cat_mouse_l.leftButton,cat_mouse_l.midButton,cat_mouse_l.rightButton,cat_mouse_l.time,cat_mouse_l.clicked_name,resp,t_resp,corr,train_trials.thisRepN,train_trials.thisTrialN,train_trials.thisN,train_trials.thisIndex,train_trials.ran,cat_mouse_t.x,cat_mouse_t.y,cat_mouse_t.leftButton,cat_mouse_t.midButton,cat_mouse_t.rightButton,cat_mouse_t.time,cat_mouse_t.clicked_name,test_trials.thisRepN,test_trials.thisTrialN,test_trials.thisN,test_trials.thisIndex,test_trials.ran,Bonus
5a791168f49c9a0001f31061,TCN,2024-06-20_13h34.48.992,LearnStrategy,2023.2.3,Win32,7.490636704,,,,,,,,,,,,,,,,,,,,,,,,,,,,,,,,,,,,,,,,,,,
5a791168f49c9a0001f31061,TCN,2024-06-20_13h34.48.992,LearnStrategy,2023.2.3,Win32,7.490636704,1,1,1,0.14453125,-0.006510417,1,0,0,3.3741,rock_grid_rect_2,4,16,-1,-1,3.374,0.098958333,-0.25390625,1,0,0,12.6485,Diorite_rect,3,12.649,0,0,0,0,0,1,,,,,,,,,,,,,
5a791168f49c9a0001f31061,TCN,2024-06-20_13h34.48.992,LearnStrategy,2023.2.3,Win32,7.490636704,1,1,2,-0.020833333,-0.005208333,1,0,0,3.44,rock_grid_rect_2,7,06,-1,-1,3.44,-0.390625,-0.393229167,1,0,0,5.5675,Obsidian_rect,5,5.567,0,1,0,1,0,1,,,,,,,,,,,,,
5a791168f49c9a0001f31061,TCN,2024-06-20_13h34.48.992,LearnStrategy,2023.2.3,Win32,7.490636704,1,1,3,-0.084635417,0.002604167,1,0,0,3.2887,rock_grid_rect_2,2,12,-1,-1,3.289,-0.192708333,-0.248697917,1,0,0,9.822,Basalt_rect,2,9.822,1,2,0,2,0,1,,,,,,,,,,,,,
5a791168f49c9a0001f31061,TCN,2024-06-20_13h34.48.992,LearnStrategy,2023.2.3,Win32,7.490636704,1,1,4,-0.069010417,-0.006510417,1,0,0,1.464,rock_grid_rect_2,4,13,-1,-1,1.464,0.325520833,-0.3984375,1,0,0,2.9377,Pumice_rect,8,2.938,0,3,0,3,0,1,,,,,,,,,,,,,
5a791168f49c9a0001f31061,TCN,2024-06-20_13h34.48.992,LearnStrategy,2023.2.3,Win32,7.490636704,1,1,5,-0.037760417,-0.020833333,1,0,0,1.4429,rock_grid_rect_2,8,13,-1,-1,1.443,-0.177083333,-0.388020833,1,0,0,4.799,Pegmatite_rect,6,4.799,0,4,0,4,0,1,,,,,,,,,,,,,
5a791168f49c9a0001f31061,TCN,2024-06-20_13h34.48.992,LearnStrategy,2023.2.3,Win32,7.490636704,1,1,6,-0.069010417,0,1,0,0,4.9286,rock_grid_rect_2,6,10,-1,-1,4.929,-0.345052083,-0.244791667,1,0,0,17.9253,Andesite_rect,1,17.925,0,5,0,5,0,1,,,,,,,,,,,,,
5a791168f49c9a0001f31061,TCN,2024-06-20_13h34.48.992,LearnStrategy,2023.2.3,Win32,7.490636704,1,1,7,-0.098958333,0.006510417,1,0,0,1.8029,rock_grid_rect_2,5,09,-1,-1,1.803,-0.395833333,-0.411458333,1,0,0,8.4454,Obsidian_rect,5,8.445,1,6,0,6,0,1,,,,,,,,,,,,,
5a791168f49c9a0001f31061,TCN,2024-06-20_13h34.48.992,LearnStrategy,2023.2.3,Win32,7.490636704,1,1,8,-0.069010417,0.014322917,1,0,0,1.8299,rock_grid_rect_2,1,04,-1,-1,1.83,-0.337239583,-0.2578125,1,0,0,10.0651,Andesite_rect,1,10.065,1,7,0,7,0,1,,,,,,,,,,,,,
5a791168f49c9a0001f31061,TCN,2024-06-20_13h34.48.992,LearnStrategy,2023.2.3,Win32,7.490636704,1,1,9,-0.0390625,0.005208333,1,0,0,1.6373,rock_grid_rect_2,8,02,-1,-1,1.637,-0.07421875,-0.26171875,1,0,0,20.7854,Basalt_rect,2,20.785,0,8,0,8,0,1,,,,,,,,,,,,,
5a791168f49c9a0001f31061,TCN,2024-06-20_13h34.48.992,LearnStrategy,2023.2.3,Win32,7.490636704,1,1,10,-0.069010417,-0.001302083,1,0,0,1.6379,rock_grid_rect_2,3,09,-1,-1,1.638,-0.092447917,-0.395833333,1,0,0,17.1916,Pegmatite_rect,6,17.192,0,9,0,9,0,1,,,,,,,,,,,,,
5a791168f49c9a0001f31061,TCN,2024-06-20_13h34.48.992,LearnStrategy,2023.2.3,Win32,7.490636704,1,1,11,-0.067708333,0,1,0,0,1.4508,rock_grid_rect_2,1,10,-1,-1,1.451,0.328125,-0.407552083,1,0,0,4.1547,Pumice_rect,8,4.155,0,10,0,10,0,1,,,,,,,,,,,,,
5a791168f49c9a0001f31061,TCN,2024-06-20_13h34.48.992,LearnStrategy,2023.2.3,Win32,7.490636704,1,1,12,-0.083333333,0.002604167,1,0,0,2.3602,rock_grid_rect_2,6,07,-1,-1,2.36,0.080729167,-0.243489583,1,0,0,2.286,Diorite_rect,3,2.286,0,11,0,11,0,1,,,,,,,,,,,,,
5a791168f49c9a0001f31061,TCN,2024-06-20_13h34.48.992,LearnStrategy,2023.2.3,Win32,7.490636704,1,1,13,-0.09765625,0.009114583,1,0,0,2.3467,rock_grid_rect_2,3,12,-1,-1,2.347,0.388020833,-0.243489583,1,0,0,17.1565,Gabbro_rect,4,17.157,0,12,0,12,0,1,,,,,,,,,,,,,
5a791168f49c9a0001f31061,TCN,2024-06-20_13h34.48.992,LearnStrategy,2023.2.3,Win32,7.490636704,1,1,14,-0.040364583,0.002604167,1,0,0,1.6572,rock_grid_rect_2,5,02,-1,-1,1.657,-0.342447917,-0.390625,1,0,0,2.2044,Obsidian_rect,5,2.204,1,13,0,13,0,1,,,,,,,,,,,,,
5a791168f49c9a0001f31061,TCN,2024-06-20_13h34.48.992,LearnStrategy,2023.2.3,Win32,7.490636704,1,1,15,-0.088541667,-0.010416667,1,0,0,1.6348,rock_grid_rect_2,2,14,-1,-1,1.635,0.140625,-0.233072917,1,0,0,4.49,Diorite_rect,3,4.49,0,14,0,14,0,1,,,,,,,,,,,,,
5a791168f49c9a0001f31061,TCN,2024-06-20_13h34.48.992,LearnStrategy,2023.2.3,Win32,7.490636704,1,1,16,-0.059895833,-0.005208333,1,0,0,1.6375,rock_grid_rect_2,7,13,-1,-1,1.638,0.140625,-0.397135417,1,0,0,7.8832,Peridotite_rect,7,7.883,1,15,0,15,0,1,,,,,,,,,,,,,
5a791168f49c9a0001f31061,TCN,2024-06-20_13h34.48.992,LearnStrategy,2023.2.3,Win32,7.490636704,1,2,1,,,,,,,,7,16,,,,,,,,,,,2,8.26,0,,,,,,-0.092447917,-0.229166667,1,0,0,8.2603,Basalt_rect,0,0,0,0,1,
5a791168f49c9a0001f31061,TCN,2024-06-20_13h34.48.992,LearnStrategy,2023.2.3,Win32,7.490636704,1,2,2,,,,,,,,4,08,,,,,,,,,,,7,3.949,0,,,,,,0.139322917,-0.395833333,1,0,0,3.9487,Peridotite_rect,1,0,1,0,1,
5a791168f49c9a0001f31061,TCN,2024-06-20_13h34.48.992,LearnStrategy,2023.2.3,Win32,7.490636704,1,2,3,,,,,,,,5,14,,,,,,,,,,,5,1.714,1,,,,,,-0.373697917,-0.390625,1,0,0,1.7139,Obsidian_rect,2,0,2,0,1,
5a791168f49c9a0001f31061,TCN,2024-06-20_13h34.48.992,LearnStrategy,2023.2.3,Win32,7.490636704,1,2,4,,,,,,,,3,13,,,,,,,,,,,3,8.399,1,,,,,,0.149739583,-0.260416667,1,0,0,8.3985,Diorite_rect,3,0,3,0,1,
5a791168f49c9a0001f31061,TCN,2024-06-20_13h34.48.992,LearnStrategy,2023.2.3,Win32,7.490636704,1,2,5,,,,,,,,1,07,,,,,,,,,,,1,4.84,1,,,,,,-0.372395833,-0.264322917,1,0,0,4.8402,Andesite_rect,4,0,4,0,1,
5a791168f49c9a0001f31061,TCN,2024-06-20_13h34.48.992,LearnStrategy,2023.2.3,Win32,7.490636704,1,2,6,,,,,,,,2,05,,,,,,,,,,,8,5.118,0,,,,,,0.352864583,-0.389322917,1,0,0,5.1178,Pumice_rect,5,0,5,0,1,
5a791168f49c9a0001f31061,TCN,2024-06-20_13h34.48.992,LearnStrategy,2023.2.3,Win32,7.490636704,1,2,7,,,,,,,,5,08,,,,,,,,,,,5,11.936,1,,,,,,-0.359375,-0.39453125,1,0,0,11.9356,Obsidian_rect,6,0,6,0,1,
5a791168f49c9a0001f31061,TCN,2024-06-20_13h34.48.992,LearnStrategy,2023.2.3,Win32,7.490636704,1,2,8,,,,,,,,2,16,,,,,,,,,,,6,4.792,0,,,,,,-0.078125,-0.3984375,1,0,0,4.7916,Pegmatite_rect,7,0,7,0,1,
5a791168f49c9a0001f31061,TCN,2024-06-20_13h34.48.992,LearnStrategy,2023.2.3,Win32,7.490636704,1,2,9,,,,,,,,6,11,,,,,,,,,,,2,2.824,0,,,,,,-0.134114583,-0.247395833,1,0,0,2.8244,Basalt_rect,8,0,8,0,1,
5a791168f49c9a0001f31061,TCN,2024-06-20_13h34.48.992,LearnStrategy,2023.2.3,Win32,7.490636704,1,2,10,,,,,,,,8,10,,,,,,,,,,,8,5.588,1,,,,,,0.321614583,-0.38671875,1,0,0,5.5883,Pumice_rect,9,0,9,0,1,
5a791168f49c9a0001f31061,TCN,2024-06-20_13h34.48.992,LearnStrategy,2023.2.3,Win32,7.490636704,1,2,11,,,,,,,,7,14,,,,,,,,,,,2,2.946,0,,,,,,-0.201822917,-0.260416667,1,0,0,2.9459,Basalt_rect,10,0,10,0,1,
5a791168f49c9a0001f31061,TCN,2024-06-20_13h34.48.992,LearnStrategy,2023.2.3,Win32,7.490636704,1,2,12,,,,,,,,6,06,,,,,,,,,,,1,1.573,0,,,,,,-0.356770833,-0.25390625,1,0,0,1.5733,Andesite_rect,11,0,11,0,1,
5a791168f49c9a0001f31061,TCN,2024-06-20_13h34.48.992,LearnStrategy,2023.2.3,Win32,7.490636704,1,2,13,,,,,,,,8,14,,,,,,,,,,,6,3.339,0,,,,,,-0.036458333,-0.407552083,1,0,0,3.3388,Pegmatite_rect,12,0,12,0,1,
5a791168f49c9a0001f31061,TCN,2024-06-20_13h34.48.992,LearnStrategy,2023.2.3,Win32,7.490636704,1,2,14,,,,,,,,4,03,,,,,,,,,,,7,3.15,0,,,,,,0.16015625,-0.38671875,1,0,0,3.1496,Peridotite_rect,13,0,13,0,1,
5a791168f49c9a0001f31061,TCN,2024-06-20_13h34.48.992,LearnStrategy,2023.2.3,Win32,7.490636704,1,2,15,,,,,,,,3,07,,,,,,,,,,,4,2.145,0,,,,,,0.302083333,-0.26953125,1,0,0,2.1448,Gabbro_rect,14,0,14,0,1,
5a791168f49c9a0001f31061,TCN,2024-06-20_13h34.48.992,LearnStrategy,2023.2.3,Win32,7.490636704,1,2,16,,,,,,,,1,11,,,,,,,,,,,2,2.599,0,,,,,,-0.078125,-0.248697917,1,0,0,2.5989,Basalt_rect,15,0,15,0,1,
5a791168f49c9a0001f31061,TCN,2024-06-20_13h34.48.992,LearnStrategy,2023.2.3,Win32,7.490636704,2,1,1,-0.122395833,0.009114583,1,0,0,1.9939,rock_grid_rect_2,2,04,-1,-1,1.994,-0.135416667,-0.265625,1,0,0,11.288,Basalt_rect,2,11.288,1,0,0,0,0,1,,,,,,,,,,,,,
5a791168f49c9a0001f31061,TCN,2024-06-20_13h34.48.992,LearnStrategy,2023.2.3,Win32,7.490636704,2,1,2,-0.108072917,-0.013020833,1,0,0,1.8027,rock_grid_rect_2,1,01,-1,-1,1.803,0.141927083,-0.390625,1,0,0,2.6853,Peridotite_rect,7,2.685,0,1,0,1,0,1,,,,,,,,,,,,,
5a791168f49c9a0001f31061,TCN,2024-06-20_13h34.48.992,LearnStrategy,2023.2.3,Win32,7.490636704,2,1,3,-0.020833333,-0.006510417,1,0,0,1.2682,rock_grid_rect_2,6,03,-1,-1,1.268,0.11328125,-0.38671875,1,0,0,3.3227,Peridotite_rect,7,3.323,0,2,0,2,0,1,,,,,,,,,,,,,
5a791168f49c9a0001f31061,TCN,2024-06-20_13h34.48.992,LearnStrategy,2023.2.3,Win32,7.490636704,2,1,4,-0.09765625,-0.006510417,1,0,0,1.4616,rock_grid_rect_2,4,12,-1,-1,1.462,-0.325520833,-0.265625,1,0,0,3.3422,Andesite_rect,1,3.342,0,3,0,3,0,1,,,,,,,,,,,,,
5a791168f49c9a0001f31061,TCN,2024-06-20_13h34.48.992,LearnStrategy,2023.2.3,Win32,7.490636704,2,1,5,-0.0390625,-0.002604167,1,0,0,13.1327,rock_grid_rect_2,1,16,-1,-1,13.133,0.095052083,-0.395833333,1,0,0,3.0286,Peridotite_rect,7,3.029,0,4,0,4,0,1,,,,,,,,,,,,,
5a791168f49c9a0001f31061,TCN,2024-06-20_13h34.48.992,LearnStrategy,2023.2.3,Win32,7.490636704,2,1,6,-0.041666667,0.005208333,1,0,0,1.6278,rock_grid_rect_2,3,15,-1,-1,1.628,0.15234375,-0.403645833,1,0,0,10.3453,Peridotite_rect,7,10.345,0,5,0,5,0,1,,,,,,,,,,,,,
5a791168f49c9a0001f31061,TCN,2024-06-20_13h34.48.992,LearnStrategy,2023.2.3,Win32,7.490636704,2,1,7,-0.119791667,-0.005208333,1,0,0,1.6447,rock_grid_rect_2,4,01,-1,-1,1.645,-0.194010417,-0.385416667,1,0,0,10.6503,Pegmatite_rect,6,10.65,0,6,0,6,0,1,,,,,,,,,,,,,
5a791168f49c9a0001f31061,TCN,2024-06-20_13h34.48.992,LearnStrategy,2023.2.3,Win32,7.490636704,2,1,8,0.028645833,0.001302083,1,0,0,4.1561,rock_grid_rect_2,8,16,-1,-1,4.156,-0.08984375,-0.244791667,1,0,0,2.4302,Basalt_rect,2,2.43,0,7,0,7,0,1,,,,,,,,,,,,,
5a791168f49c9a0001f31061,TCN,2024-06-20_13h34.48.992,LearnStrategy,2023.2.3,Win32,7.490636704,2,1,9,-0.07421875,-0.01171875,1,0,0,1.6274,rock_grid_rect_2,8,05,-1,-1,1.627,-0.096354167,-0.244791667,1,0,0,5.3674,Basalt_rect,2,5.367,0,8,0,8,0,1,,,,,,,,,,,,,
5a791168f49c9a0001f31061,TCN,2024-06-20_13h34.48.992,LearnStrategy,2023.2.3,Win32,7.490636704,2,1,10,-0.048177083,0.006510417,1,0,0,1.6324,rock_grid_rect_2,3,08,-1,-1,1.632,0.184895833,-0.41015625,1,0,0,5.3092,Peridotite_rect,7,5.309,0,9,0,9,0,1,,,,,,,,,,,,,
5a791168f49c9a0001f31061,TCN,2024-06-20_13h34.48.992,LearnStrategy,2023.2.3,Win32,7.490636704,2,1,11,0.002604167,-0.010416667,1,0,0,5.0772,rock_grid_rect_2,7,10,-1,-1,5.077,-0.350260417,-0.255208333,1,0,0,11.6856,Andesite_rect,1,11.686,0,10,0,10,0,1,,,,,,,,,,,,,
5a791168f49c9a0001f31061,TCN,2024-06-20_13h34.48.992,LearnStrategy,2023.2.3,Win32,7.490636704,2,1,12,-0.00390625,0.010416667,1,0,0,2.7112,rock_grid_rect_2,5,12,-1,-1,2.711,-0.3359375,-0.41015625,1,0,0,1.877,Obsidian_rect,5,1.877,1,11,0,11,0,1,,,,,,,,,,,,,
5a791168f49c9a0001f31061,TCN,2024-06-20_13h34.48.992,LearnStrategy,2023.2.3,Win32,7.490636704,2,1,13,0.033854167,-0.002604167,1,0,0,7.5747,rock_grid_rect_2,6,12,-1,-1,7.575,-0.07421875,-0.395833333,1,0,0,5.201,Pegmatite_rect,6,5.201,1,12,0,12,0,1,,,,,,,,,,,,,
5a791168f49c9a0001f31061,TCN,2024-06-20_13h34.48.992,LearnStrategy,2023.2.3,Win32,7.490636704,2,1,14,-0.075520833,0.002604167,1,0,0,1.9917,rock_grid_rect_2,7,04,-1,-1,1.992,-0.338541667,-0.264322917,1,0,0,6.5212,Andesite_rect,1,6.521,0,13,0,13,0,1,,,,,,,,,,,,,
5a791168f49c9a0001f31061,TCN,2024-06-20_13h34.48.992,LearnStrategy,2023.2.3,Win32,7.490636704,2,1,15,-0.032552083,-0.0078125,1,0,0,2.0041,rock_grid_rect_2,2,11,-1,-1,2.004,0.319010417,-0.393229167,1,0,0,7.6816,Pumice_rect,8,7.682,0,14,0,14,0,1,,,,,,,,,,,,,
5a791168f49c9a0001f31061,TCN,2024-06-20_13h34.48.992,LearnStrategy,2023.2.3,Win32,7.490636704,2,1,16,-0.098958333,-0.020833333,1,0,0,1.8111,rock_grid_rect_2,5,05,-1,-1,1.811,-0.375,-0.4140625,1,0,0,2.2596,Obsidian_rect,5,2.26,1,15,0,15,0,1,,,,,,,,,,,,,
5a791168f49c9a0001f31061,TCN,2024-06-20_13h34.48.992,LearnStrategy,2023.2.3,Win32,7.490636704,2,2,1,,,,,,,,1,02,,,,,,,,,,,8,6.997,0,,,,,,0.319010417,-0.39453125,1,0,0,6.9968,Pumice_rect,0,0,0,0,1,
5a791168f49c9a0001f31061,TCN,2024-06-20_13h34.48.992,LearnStrategy,2023.2.3,Win32,7.490636704,2,2,2,,,,,,,,2,02,,,,,,,,,,,2,3.481,1,,,,,,-0.08203125,-0.256510417,1,0,0,3.4807,Basalt_rect,1,0,1,0,1,
5a791168f49c9a0001f31061,TCN,2024-06-20_13h34.48.992,LearnStrategy,2023.2.3,Win32,7.490636704,2,2,3,,,,,,,,1,03,,,,,,,,,,,7,1.55,0,,,,,,0.059895833,-0.3984375,1,0,0,1.5496,Peridotite_rect,2,0,2,0,1,
5a791168f49c9a0001f31061,TCN,2024-06-20_13h34.48.992,LearnStrategy,2023.2.3,Win32,7.490636704,2,2,4,,,,,,,,2,06,,,,,,,,,,,2,16.326,1,,,,,,-0.14453125,-0.231770833,1,0,0,16.3262,Basalt_rect,3,0,3,0,1,
5a791168f49c9a0001f31061,TCN,2024-06-20_13h34.48.992,LearnStrategy,2023.2.3,Win32,7.490636704,2,2,5,,,,,,,,6,08,,,,,,,,,,,1,1.899,0,,,,,,-0.369791667,-0.252604167,1,0,0,1.8994,Andesite_rect,4,0,4,0,1,
5a791168f49c9a0001f31061,TCN,2024-06-20_13h34.48.992,LearnStrategy,2023.2.3,Win32,7.490636704,2,2,6,,,,,,,,5,10,,,,,,,,,,,5,1.959,1,,,,,,-0.352864583,-0.38671875,1,0,0,1.9592,Obsidian_rect,5,0,5,0,1,
5a791168f49c9a0001f31061,TCN,2024-06-20_13h34.48.992,LearnStrategy,2023.2.3,Win32,7.490636704,2,2,7,,,,,,,,8,03,,,,,,,,,,,8,3.644,1,,,,,,0.384114583,-0.404947917,1,0,0,3.6436,Pumice_rect,6,0,6,0,1,
5a791168f49c9a0001f31061,TCN,2024-06-20_13h34.48.992,LearnStrategy,2023.2.3,Win32,7.490636704,2,2,8,,,,,,,,4,09,,,,,,,,,,,6,2.844,0,,,,,,-0.055989583,-0.391927083,1,0,0,2.8442,Pegmatite_rect,7,0,7,0,1,
5a791168f49c9a0001f31061,TCN,2024-06-20_13h34.48.992,LearnStrategy,2023.2.3,Win32,7.490636704,2,2,9,,,,,,,,5,06,,,,,,,,,,,5,1.705,1,,,,,,-0.368489583,-0.37890625,1,0,0,1.7052,Obsidian_rect,8,0,8,0,1,
5a791168f49c9a0001f31061,TCN,2024-06-20_13h34.48.992,LearnStrategy,2023.2.3,Win32,7.490636704,2,2,10,,,,,,,,6,13,,,,,,,,,,,3,1.785,0,,,,,,0.102864583,-0.23828125,1,0,0,1.7854,Diorite_rect,9,0,9,0,1,
5a791168f49c9a0001f31061,TCN,2024-06-20_13h34.48.992,LearnStrategy,2023.2.3,Win32,7.490636704,2,2,11,,,,,,,,7,08,,,,,,,,,,,4,2.885,0,,,,,,0.354166667,-0.248697917,1,0,0,2.8846,Gabbro_rect,10,0,10,0,1,
5a791168f49c9a0001f31061,TCN,2024-06-20_13h34.48.992,LearnStrategy,2023.2.3,Win32,7.490636704,2,2,12,,,,,,,,4,10,,,,,,,,,,,2,4.881,0,,,,,,-0.149739583,-0.231770833,1,0,0,4.8815,Basalt_rect,11,0,11,0,1,
5a791168f49c9a0001f31061,TCN,2024-06-20_13h34.48.992,LearnStrategy,2023.2.3,Win32,7.490636704,2,2,13,,,,,,,,8,15,,,,,,,,,,,8,5.262,1,,,,,,0.326822917,-0.38671875,1,0,0,5.2616,Pumice_rect,12,0,12,0,1,
5a791168f49c9a0001f31061,TCN,2024-06-20_13h34.48.992,LearnStrategy,2023.2.3,Win32,7.490636704,2,2,14,,,,,,,,7,05,,,,,,,,,,,6,3.642,0,,,,,,-0.071614583,-0.401041667,1,0,0,3.642,Pegmatite_rect,13,0,13,0,1,
5a791168f49c9a0001f31061,TCN,2024-06-20_13h34.48.992,LearnStrategy,2023.2.3,Win32,7.490636704,2,2,15,,,,,,,,3,06,,,,,,,,,,,2,3.306,0,,,,,,-0.200520833,-0.23828125,1,0,0,3.3064,Basalt_rect,14,0,14,0,1,
5a791168f49c9a0001f31061,TCN,2024-06-20_13h34.48.992,LearnStrategy,2023.2.3,Win32,7.490636704,2,2,16,,,,,,,,3,10,,,,,,,,,,,3,9.656,1,,,,,,0.067708333,-0.231770833,1,0,0,9.656,Diorite_rect,15,0,15,0,1,
5a791168f49c9a0001f31061,TCN,2024-06-20_13h34.48.992,LearnStrategy,2023.2.3,Win32,7.490636704,3,1,1,-0.067708333,0.0078125,1,0,0,1.6251,rock_grid_rect_2,1,05,-1,-1,1.625,-0.079427083,-0.399739583,1,0,0,19.4499,Pegmatite_rect,6,19.45,0,0,0,0,0,1,,,,,,,,,,,,,
5a791168f49c9a0001f31061,TCN,2024-06-20_13h34.48.992,LearnStrategy,2023.2.3,Win32,7.490636704,3,1,2,-0.080729167,-0.005208333,1,0,0,1.8299,rock_grid_rect_2,7,15,-1,-1,1.83,0.147135417,-0.239583333,1,0,0,3.6158,Diorite_rect,3,3.616,0,1,0,1,0,1,,,,,,,,,,,,,
5a791168f49c9a0001f31061,TCN,2024-06-20_13h34.48.992,LearnStrategy,2023.2.3,Win32,7.490636704,3,1,3,0.0078125,-0.002604167,1,0,0,1.8122,rock_grid_rect_2,7,07,-1,-1,1.812,0.341145833,-0.264322917,1,0,0,2.3278,Gabbro_rect,4,2.328,0,2,0,2,0,1,,,,,,,,,,,,,
5a791168f49c9a0001f31061,TCN,2024-06-20_13h34.48.992,LearnStrategy,2023.2.3,Win32,7.490636704,3,1,4,-0.041666667,-0.002604167,1,0,0,1.8219,rock_grid_rect_2,1,09,-1,-1,1.822,-0.3515625,-0.270833333,1,0,0,6.1849,Andesite_rect,1,6.185,1,3,0,3,0,1,,,,,,,,,,,,,
5a791168f49c9a0001f31061,TCN,2024-06-20_13h34.48.992,LearnStrategy,2023.2.3,Win32,7.490636704,3,1,5,-0.018229167,0.006510417,1,0,0,1.4326,rock_grid_rect_2,3,11,-1,-1,1.433,0.329427083,-0.23828125,1,0,0,4.0655,Gabbro_rect,4,4.065,0,4,0,4,0,1,,,,,,,,,,,,,
5a791168f49c9a0001f31061,TCN,2024-06-20_13h34.48.992,LearnStrategy,2023.2.3,Win32,7.490636704,3,1,6,-0.045572917,0.001302083,1,0,0,4.1655,rock_grid_rect_2,4,05,-1,-1,4.166,0.063802083,-0.38671875,1,0,0,3.0836,Peridotite_rect,7,3.084,0,5,0,5,0,1,,,,,,,,,,,,,
5a791168f49c9a0001f31061,TCN,2024-06-20_13h34.48.992,LearnStrategy,2023.2.3,Win32,7.490636704,3,1,7,0.045572917,0.006510417,1,0,0,7.074,rock_grid_rect_2,6,05,-1,-1,7.074,-0.157552083,-0.235677083,1,0,0,5.3914,Basalt_rect,2,5.391,0,6,0,6,0,1,,,,,,,,,,,,,
5a791168f49c9a0001f31061,TCN,2024-06-20_13h34.48.992,LearnStrategy,2023.2.3,Win32,7.490636704,3,1,8,0.022135417,-0.002604167,1,0,0,1.6278,rock_grid_rect_2,6,15,-1,-1,1.628,-0.3515625,-0.239583333,1,0,0,2.085,Andesite_rect,1,2.085,0,7,0,7,0,1,,,,,,,,,,,,,
5a791168f49c9a0001f31061,TCN,2024-06-20_13h34.48.992,LearnStrategy,2023.2.3,Win32,7.490636704,3,1,9,0.048177083,-0.005208333,1,0,0,3.4611,rock_grid_rect_2,5,07,-1,-1,3.461,-0.358072917,-0.399739583,1,0,0,1.8172,Obsidian_rect,5,1.817,1,8,0,8,0,1,,,,,,,,,,,,,
5a791168f49c9a0001f31061,TCN,2024-06-20_13h34.48.992,LearnStrategy,2023.2.3,Win32,7.490636704,3,1,10,-0.100260417,0.006510417,1,0,0,1.433,rock_grid_rect_2,4,15,-1,-1,1.433,0.13671875,-0.397135417,1,0,0,3.9396,Peridotite_rect,7,3.94,0,9,0,9,0,1,,,,,,,,,,,,,
5a791168f49c9a0001f31061,TCN,2024-06-20_13h34.48.992,LearnStrategy,2023.2.3,Win32,7.490636704,3,1,11,-0.061197917,0,1,0,0,3.0919,rock_grid_rect_2,5,11,-1,-1,3.092,-0.345052083,-0.408854167,1,0,0,2.0749,Obsidian_rect,5,2.075,1,10,0,10,0,1,,,,,,,,,,,,,
5a791168f49c9a0001f31061,TCN,2024-06-20_13h34.48.992,LearnStrategy,2023.2.3,Win32,7.490636704,3,1,12,-0.072916667,-0.015625,1,0,0,1.4411,rock_grid_rect_2,2,01,-1,-1,1.441,-0.109375,-0.243489583,1,0,0,1.6923,Basalt_rect,2,1.692,1,11,0,11,0,1,,,,,,,,,,,,,
5a791168f49c9a0001f31061,TCN,2024-06-20_13h34.48.992,LearnStrategy,2023.2.3,Win32,7.490636704,3,1,13,-0.014322917,-0.001302083,1,0,0,1.2614,rock_grid_rect_2,2,10,-1,-1,1.261,0.075520833,-0.23828125,1,0,0,2.8626,Diorite_rect,3,2.863,0,12,0,12,0,1,,,,,,,,,,,,,
5a791168f49c9a0001f31061,TCN,2024-06-20_13h34.48.992,LearnStrategy,2023.2.3,Win32,7.490636704,3,1,14,-0.065104167,-0.006510417,1,0,0,1.8185,rock_grid_rect_2,3,02,-1,-1,1.819,0.087239583,-0.384114583,1,0,0,2.4499,Peridotite_rect,7,2.45,0,13,0,13,0,1,,,,,,,,,,,,,
5a791168f49c9a0001f31061,TCN,2024-06-20_13h34.48.992,LearnStrategy,2023.2.3,Win32,7.490636704,3,1,15,-0.04296875,-0.013020833,1,0,0,1.4582,rock_grid_rect_2,8,04,-1,-1,1.458,0.376302083,-0.419270833,1,0,0,3.0145,Pumice_rect,8,3.014,1,14,0,14,0,1,,,,,,,,,,,,,
5a791168f49c9a0001f31061,TCN,2024-06-20_13h34.48.992,LearnStrategy,2023.2.3,Win32,7.490636704,3,1,16,-0.01171875,-0.005208333,1,0,0,1.3241,rock_grid_rect_2,8,06,-1,-1,1.324,0.325520833,-0.380208333,1,0,0,2.0882,Pumice_rect,8,2.088,1,15,0,15,0,1,,,,,,,,,,,,,
5a791168f49c9a0001f31061,TCN,2024-06-20_13h34.48.992,LearnStrategy,2023.2.3,Win32,7.490636704,3,2,1,,,,,,,,1,14,,,,,,,,,,,3,4.062,0,,,,,,0.1328125,-0.234375,1,0,0,4.0623,Diorite_rect,0,0,0,0,1,
5a791168f49c9a0001f31061,TCN,2024-06-20_13h34.48.992,LearnStrategy,2023.2.3,Win32,7.490636704,3,2,2,,,,,,,,5,16,,,,,,,,,,,5,1.562,1,,,,,,-0.334635417,-0.397135417,1,0,0,1.5619,Obsidian_rect,1,0,1,0,1,
5a791168f49c9a0001f31061,TCN,2024-06-20_13h34.48.992,LearnStrategy,2023.2.3,Win32,7.490636704,3,2,3,,,,,,,,3,16,,,,,,,,,,,6,5.459,0,,,,,,-0.0859375,-0.3984375,1,0,0,5.4586,Pegmatite_rect,2,0,2,0,1,
5a791168f49c9a0001f31061,TCN,2024-06-20_13h34.48.992,LearnStrategy,2023.2.3,Win32,7.490636704,3,2,4,,,,,,,,1,06,,,,,,,,,,,4,2.733,0,,,,,,0.33984375,-0.236979167,1,0,0,2.733,Gabbro_rect,3,0,3,0,1,
5a791168f49c9a0001f31061,TCN,2024-06-20_13h34.48.992,LearnStrategy,2023.2.3,Win32,7.490636704,3,2,5,,,,,,,,2,08,,,,,,,,,,,2,1.849,1,,,,,,-0.126302083,-0.255208333,1,0,0,1.8492,Basalt_rect,4,0,4,0,1,
5a791168f49c9a0001f31061,TCN,2024-06-20_13h34.48.992,LearnStrategy,2023.2.3,Win32,7.490636704,3,2,6,,,,,,,,6,09,,,,,,,,,,,1,1.622,0,,,,,,-0.328125,-0.264322917,1,0,0,1.622,Andesite_rect,5,0,5,0,1,
5a791168f49c9a0001f31061,TCN,2024-06-20_13h34.48.992,LearnStrategy,2023.2.3,Win32,7.490636704,3,2,7,,,,,,,,2,09,,,,,,,,,,,2,1.756,1,,,,,,-0.154947917,-0.239583333,1,0,0,1.7557,Basalt_rect,6,0,6,0,1,
5a791168f49c9a0001f31061,TCN,2024-06-20_13h34.48.992,LearnStrategy,2023.2.3,Win32,7.490636704,3,2,8,,,,,,,,3,14,,,,,,,,,,,7,1.93,0,,,,,,0.173177083,-0.388020833,1,0,0,1.9305,Peridotite_rect,7,0,7,0,1,
5a791168f49c9a0001f31061,TCN,2024-06-20_13h34.48.992,LearnStrategy,2023.2.3,Win32,7.490636704,3,2,9,,,,,,,,7,12,,,,,,,,,,,4,5.375,0,,,,,,0.360677083,-0.264322917,1,0,0,5.3755,Gabbro_rect,8,0,8,0,1,
5a791168f49c9a0001f31061,TCN,2024-06-20_13h34.48.992,LearnStrategy,2023.2.3,Win32,7.490636704,3,2,10,,,,,,,,4,11,,,,,,,,,,,7,3.118,0,,,,,,0.065104167,-0.381510417,1,0,0,3.1183,Peridotite_rect,9,0,9,0,1,
5a791168f49c9a0001f31061,TCN,2024-06-20_13h34.48.992,LearnStrategy,2023.2.3,Win32,7.490636704,3,2,11,,,,,,,,6,16,,,,,,,,,,,6,5.659,1,,,,,,-0.08203125,-0.384114583,1,0,0,5.6593,Pegmatite_rect,10,0,10,0,1,
5a791168f49c9a0001f31061,TCN,2024-06-20_13h34.48.992,LearnStrategy,2023.2.3,Win32,7.490636704,3,2,12,,,,,,,,8,09,,,,,,,,,,,8,2.793,1,,,,,,0.384114583,-0.389322917,1,0,0,2.7927,Pumice_rect,11,0,11,0,1,
5a791168f49c9a0001f31061,TCN,2024-06-20_13h34.48.992,LearnStrategy,2023.2.3,Win32,7.490636704,3,2,13,,,,,,,,7,02,,,,,,,,,,,3,2.353,0,,,,,,0.171875,-0.234375,1,0,0,2.3534,Diorite_rect,12,0,12,0,1,
5a791168f49c9a0001f31061,TCN,2024-06-20_13h34.48.992,LearnStrategy,2023.2.3,Win32,7.490636704,3,2,14,,,,,,,,5,04,,,,,,,,,,,5,1.713,1,,,,,,-0.37890625,-0.401041667,1,0,0,1.7131,Obsidian_rect,13,0,13,0,1,
5a791168f49c9a0001f31061,TCN,2024-06-20_13h34.48.992,LearnStrategy,2023.2.3,Win32,7.490636704,3,2,15,,,,,,,,4,14,,,,,,,,,,,2,15.383,0,,,,,,-0.091145833,-0.235677083,1,0,0,15.3827,Basalt_rect,14,0,14,0,1,
5a791168f49c9a0001f31061,TCN,2024-06-20_13h34.48.992,LearnStrategy,2023.2.3,Win32,7.490636704,3,2,16,,,,,,,,8,08,,,,,,,,,,,8,13.421,1,,,,,,0.388020833,-0.390625,1,0,0,13.4215,Pumice_rect,15,0,15,0,1,
5a791168f49c9a0001f31061,TCN,2024-06-20_13h34.48.992,LearnStrategy,2023.2.3,Win32,7.490636704,4,1,1,-0.0234375,0.00390625,1,0,0,20.1024,rock_grid_rect_2,8,02,-1,-1,20.102,0.372395833,-0.39453125,1,0,0,8.3697,Pumice_rect,8,8.37,1,0,0,0,0,1,,,,,,,,,,,,,
5a791168f49c9a0001f31061,TCN,2024-06-20_13h34.48.992,LearnStrategy,2023.2.3,Win32,7.490636704,4,1,2,-0.057291667,0.005208333,1,0,0,1.6729,rock_grid_rect_2,3,12,-1,-1,1.673,0.337239583,-0.24609375,1,0,0,2.5435,Gabbro_rect,4,2.543,0,1,0,1,0,1,,,,,,,,,,,,,
5a791168f49c9a0001f31061,TCN,2024-06-20_13h34.48.992,LearnStrategy,2023.2.3,Win32,7.490636704,4,1,3,-0.076822917,-0.009114583,1,0,0,1.6434,rock_grid_rect_2,1,04,-1,-1,1.643,0.032552083,-0.393229167,1,0,0,2.5144,Peridotite_rect,7,2.514,0,2,0,2,0,1,,,,,,,,,,,,,
5a791168f49c9a0001f31061,TCN,2024-06-20_13h34.48.992,LearnStrategy,2023.2.3,Win32,7.490636704,4,1,4,-0.140625,-0.024739583,1,0,0,1.2688,rock_grid_rect_2,2,04,-1,-1,1.269,-0.178385417,-0.240885417,1,0,0,1.9017,Basalt_rect,2,1.902,1,3,0,3,0,1,,,,,,,,,,,,,
5a791168f49c9a0001f31061,TCN,2024-06-20_13h34.48.992,LearnStrategy,2023.2.3,Win32,7.490636704,4,1,5,-0.0546875,0.010416667,1,0,0,1.2654,rock_grid_rect_2,2,12,-1,-1,1.265,0.32421875,-0.401041667,1,0,0,7.0444,Pumice_rect,8,7.044,0,4,0,4,0,1,,,,,,,,,,,,,
5a791168f49c9a0001f31061,TCN,2024-06-20_13h34.48.992,LearnStrategy,2023.2.3,Win32,7.490636704,4,1,6,0.00390625,-0.00390625,1,0,0,1.2771,rock_grid_rect_2,4,15,-1,-1,1.277,-0.095052083,-0.415364583,1,0,0,3.5933,Pegmatite_rect,6,3.593,0,5,0,5,0,1,,,,,,,,,,,,,
5a791168f49c9a0001f31061,TCN,2024-06-20_13h34.48.992,LearnStrategy,2023.2.3,Win32,7.490636704,4,1,7,-0.0078125,-0.013020833,1,0,0,14.194,rock_grid_rect_2,8,05,-1,-1,14.194,0.3515625,-0.401041667,1,0,0,9.3717,Pumice_rect,8,9.372,1,6,0,6,0,1,,,,,,,,,,,,,
5a791168f49c9a0001f31061,TCN,2024-06-20_13h34.48.992,LearnStrategy,2023.2.3,Win32,7.490636704,4,1,8,-0.087239583,0.001302083,1,0,0,2.0294,rock_grid_rect_2,7,15,-1,-1,2.029,0.139322917,-0.399739583,1,0,0,3.4035,Peridotite_rect,7,3.403,1,7,0,7,0,1,,,,,,,,,,,,,
5a791168f49c9a0001f31061,TCN,2024-06-20_13h34.48.992,LearnStrategy,2023.2.3,Win32,7.490636704,4,1,9,-0.049479167,-0.0078125,1,0,0,1.8172,rock_grid_rect_2,6,07,-1,-1,1.817,-0.09375,-0.38671875,1,0,0,2.1046,Pegmatite_rect,6,2.105,1,8,0,8,0,1,,,,,,,,,,,,,
5a791168f49c9a0001f31061,TCN,2024-06-20_13h34.48.992,LearnStrategy,2023.2.3,Win32,7.490636704,4,1,10,0.005208333,0.005208333,1,0,0,1.2729,rock_grid_rect_2,4,12,-1,-1,1.273,-0.08203125,-0.233072917,1,0,0,3.695,Basalt_rect,2,3.695,0,9,0,9,0,1,,,,,,,,,,,,,
5a791168f49c9a0001f31061,TCN,2024-06-20_13h34.48.992,LearnStrategy,2023.2.3,Win32,7.490636704,4,1,11,0.002604167,0.009114583,1,0,0,1.6454,rock_grid_rect_2,3,09,-1,-1,1.645,0.088541667,-0.23828125,1,0,0,20.6641,Diorite_rect,3,20.664,1,10,0,10,0,1,,,,,,,,,,,,,
5a791168f49c9a0001f31061,TCN,2024-06-20_13h34.48.992,LearnStrategy,2023.2.3,Win32,7.490636704,4,1,12,-0.053385417,0.006510417,1,0,0,1.6954,rock_grid_rect_2,5,09,-1,-1,1.695,-0.361979167,-0.393229167,1,0,0,4.4372,Obsidian_rect,5,4.437,1,11,0,11,0,1,,,,,,,,,,,,,
5a791168f49c9a0001f31061,TCN,2024-06-20_13h34.48.992,LearnStrategy,2023.2.3,Win32,7.490636704,4,1,13,-0.06640625,0.001302083,1,0,0,4.1597,rock_grid_rect_2,7,07,-1,-1,4.16,0.108072917,-0.37890625,1,0,0,2.7258,Peridotite_rect,7,2.726,1,12,0,12,0,1,,,,,,,,,,,,,
5a791168f49c9a0001f31061,TCN,2024-06-20_13h34.48.992,LearnStrategy,2023.2.3,Win32,7.490636704,4,1,14,-0.075520833,-0.014322917,1,0,0,2.0034,rock_grid_rect_2,5,07,-1,-1,2.003,-0.372395833,-0.3828125,1,0,0,1.5471,Obsidian_rect,5,1.547,1,13,0,13,0,1,,,,,,,,,,,,,
5a791168f49c9a0001f31061,TCN,2024-06-20_13h34.48.992,LearnStrategy,2023.2.3,Win32,7.490636704,4,1,15,-0.08203125,-0.005208333,1,0,0,3.4454,rock_grid_rect_2,1,10,-1,-1,3.445,-0.065104167,-0.233072917,1,0,0,8.4565,Basalt_rect,2,8.457,0,14,0,14,0,1,,,,,,,,,,,,,
5a791168f49c9a0001f31061,TCN,2024-06-20_13h34.48.992,LearnStrategy,2023.2.3,Win32,7.490636704,4,1,16,-0.061197917,-0.01171875,1,0,0,2.184,rock_grid_rect_2,6,03,-1,-1,2.184,0.098958333,-0.37890625,1,0,0,2.8699,Peridotite_rect,7,2.87,0,15,0,15,0,1,,,,,,,,,,,,,
5a791168f49c9a0001f31061,TCN,2024-06-20_13h34.48.992,LearnStrategy,2023.2.3,Win32,7.490636704,4,2,1,,,,,,,,7,05,,,,,,,,,,,6,8.189,0,,,,,,-0.140625,-0.412760417,1,0,0,8.189,Pegmatite_rect,0,0,0,0,1,
5a791168f49c9a0001f31061,TCN,2024-06-20_13h34.48.992,LearnStrategy,2023.2.3,Win32,7.490636704,4,2,2,,,,,,,,6,09,,,,,,,,,,,3,2.682,0,,,,,,0.098958333,-0.236979167,1,0,0,2.6817,Diorite_rect,1,0,1,0,1,
5a791168f49c9a0001f31061,TCN,2024-06-20_13h34.48.992,LearnStrategy,2023.2.3,Win32,7.490636704,4,2,3,,,,,,,,4,08,,,,,,,,,,,2,4.043,0,,,,,,-0.110677083,-0.259114583,1,0,0,4.0426,Basalt_rect,2,0,2,0,1,
5a791168f49c9a0001f31061,TCN,2024-06-20_13h34.48.992,LearnStrategy,2023.2.3,Win32,7.490636704,4,2,4,,,,,,,,6,06,,,,,,,,,,,7,3.42,0,,,,,,0.188802083,-0.37890625,1,0,0,3.4195,Peridotite_rect,3,0,3,0,1,
5a791168f49c9a0001f31061,TCN,2024-06-20_13h34.48.992,LearnStrategy,2023.2.3,Win32,7.490636704,4,2,5,,,,,,,,4,11,,,,,,,,,,,3,7.757,0,,,,,,0.194010417,-0.234375,1,0,0,7.7569,Diorite_rect,4,0,4,0,1,
5a791168f49c9a0001f31061,TCN,2024-06-20_13h34.48.992,LearnStrategy,2023.2.3,Win32,7.490636704,4,2,6,,,,,,,,1,14,,,,,,,,,,,4,2.943,0,,,,,,0.34375,-0.260416667,1,0,0,2.9431,Gabbro_rect,5,0,5,0,1,
5a791168f49c9a0001f31061,TCN,2024-06-20_13h34.48.992,LearnStrategy,2023.2.3,Win32,7.490636704,4,2,7,,,,,,,,3,16,,,,,,,,,,,7,2.68,0,,,,,,0.07421875,-0.385416667,1,0,0,2.6804,Peridotite_rect,6,0,6,0,1,
5a791168f49c9a0001f31061,TCN,2024-06-20_13h34.48.992,LearnStrategy,2023.2.3,Win32,7.490636704,4,2,8,,,,,,,,7,08,,,,,,,,,,,1,3.804,0,,,,,,-0.373697917,-0.266927083,1,0,0,3.8045,Andesite_rect,7,0,7,0,1,
5a791168f49c9a0001f31061,TCN,2024-06-20_13h34.48.992,LearnStrategy,2023.2.3,Win32,7.490636704,4,2,9,,,,,,,,8,10,,,,,,,,,,,8,9.024,1,,,,,,0.36328125,-0.393229167,1,0,0,9.0243,Pumice_rect,8,0,8,0,1,
5a791168f49c9a0001f31061,TCN,2024-06-20_13h34.48.992,LearnStrategy,2023.2.3,Win32,7.490636704,4,2,10,,,,,,,,1,02,,,,,,,,,,,6,4.127,0,,,,,,-0.091145833,-0.401041667,1,0,0,4.127,Pegmatite_rect,9,0,9,0,1,
5a791168f49c9a0001f31061,TCN,2024-06-20_13h34.48.992,LearnStrategy,2023.2.3,Win32,7.490636704,4,2,11,,,,,,,,2,16,,,,,,,,,,,3,4.019,0,,,,,,0.09375,-0.240885417,1,0,0,4.0188,Diorite_rect,10,0,10,0,1,
5a791168f49c9a0001f31061,TCN,2024-06-20_13h34.48.992,LearnStrategy,2023.2.3,Win32,7.490636704,4,2,12,,,,,,,,3,07,,,,,,,,,,,7,2.39,0,,,,,,0.065104167,-0.399739583,1,0,0,2.3899,Peridotite_rect,11,0,11,0,1,
5a791168f49c9a0001f31061,TCN,2024-06-20_13h34.48.992,LearnStrategy,2023.2.3,Win32,7.490636704,4,2,13,,,,,,,,5,16,,,,,,,,,,,5,1.839,1,,,,,,-0.328125,-0.40625,1,0,0,1.8393,Obsidian_rect,12,0,12,0,1,
5a791168f49c9a0001f31061,TCN,2024-06-20_13h34.48.992,LearnStrategy,2023.2.3,Win32,7.490636704,4,2,14,,,,,,,,5,10,,,,,,,,,,,5,2.542,1,,,,,,-0.388020833,-0.39453125,1,0,0,2.5419,Obsidian_rect,13,0,13,0,1,
5a791168f49c9a0001f31061,TCN,2024-06-20_13h34.48.992,LearnStrategy,2023.2.3,Win32,7.490636704,4,2,15,,,,,,,,2,02,,,,,,,,,,,2,2.492,1,,,,,,-0.098958333,-0.233072917,1,0,0,2.4917,Basalt_rect,14,0,14,0,1,
5a791168f49c9a0001f31061,TCN,2024-06-20_13h34.48.992,LearnStrategy,2023.2.3,Win32,7.490636704,4,2,16,,,,,,,,8,15,,,,,,,,,,,3,5.076,0,,,,,,0.0625,-0.259114583,1,0,0,5.0757,Diorite_rect,15,0,15,0,1,
5a791168f49c9a0001f31061,TCN,2024-06-20_13h34.48.992,LearnStrategy,2023.2.3,Win32,7.490636704,5,1,1,-0.0546875,0.002604167,1,0,0,2.1596,rock_grid_rect_2,6,12,-1,-1,2.16,-0.10546875,-0.385416667,1,0,0,16.3481,Pegmatite_rect,6,16.348,1,0,0,0,0,1,,,,,,,,,,,,,
5a791168f49c9a0001f31061,TCN,2024-06-20_13h34.48.992,LearnStrategy,2023.2.3,Win32,7.490636704,5,1,2,0.069010417,-0.009114583,1,0,0,3.4404,rock_grid_rect_2,6,10,-1,-1,3.44,0.122395833,-0.3984375,1,0,0,7.0532,Peridotite_rect,7,7.053,0,1,0,1,0,1,,,,,,,,,,,,,
5a791168f49c9a0001f31061,TCN,2024-06-20_13h34.48.992,LearnStrategy,2023.2.3,Win32,7.490636704,5,1,3,0.033854167,-0.0078125,1,0,0,1.4441,rock_grid_rect_2,3,15,-1,-1,1.444,0.334635417,-0.234375,1,0,0,3.0559,Gabbro_rect,4,3.056,0,2,0,2,0,1,,,,,,,,,,,,,
5a791168f49c9a0001f31061,TCN,2024-06-20_13h34.48.992,LearnStrategy,2023.2.3,Win32,7.490636704,5,1,4,-0.052083333,-0.002604167,1,0,0,1.8232,rock_grid_rect_2,7,13,-1,-1,1.823,0.125,-0.40234375,1,0,0,20.764,Peridotite_rect,7,20.764,1,3,0,3,0,1,,,,,,,,,,,,,
5a791168f49c9a0001f31061,TCN,2024-06-20_13h34.48.992,LearnStrategy,2023.2.3,Win32,7.490636704,5,1,5,-0.026041667,-0.002604167,1,0,0,4.3723,rock_grid_rect_2,8,16,-1,-1,4.372,-0.07421875,-0.2578125,1,0,0,11.8629,Basalt_rect,2,11.863,0,4,0,4,0,1,,,,,,,,,,,,,
5a791168f49c9a0001f31061,TCN,2024-06-20_13h34.48.992,LearnStrategy,2023.2.3,Win32,7.490636704,5,1,6,-0.049479167,-0.0078125,1,0,0,7.0825,rock_grid_rect_2,3,08,-1,-1,7.082,0.125,-0.395833333,1,0,0,6.0758,Peridotite_rect,7,6.076,0,5,0,5,0,1,,,,,,,,,,,,,
5a791168f49c9a0001f31061,TCN,2024-06-20_13h34.48.992,LearnStrategy,2023.2.3,Win32,7.490636704,5,1,7,-0.033854167,-0.002604167,1,0,0,1.816,rock_grid_rect_2,2,11,-1,-1,1.816,-0.14453125,-0.23046875,1,0,0,5.5478,Basalt_rect,2,5.548,1,6,0,6,0,1,,,,,,,,,,,,,
5a791168f49c9a0001f31061,TCN,2024-06-20_13h34.48.992,LearnStrategy,2023.2.3,Win32,7.490636704,5,1,8,-0.032552083,0.01171875,1,0,0,4.7137,rock_grid_rect_2,1,09,-1,-1,4.714,0.149739583,-0.239583333,1,0,0,2.8468,Diorite_rect,3,2.847,0,7,0,7,0,1,,,,,,,,,,,,,
5a791168f49c9a0001f31061,TCN,2024-06-20_13h34.48.992,LearnStrategy,2023.2.3,Win32,7.490636704,5,1,9,-0.05078125,-0.00390625,1,0,0,1.6411,rock_grid_rect_2,4,16,-1,-1,1.641,-0.208333333,-0.243489583,1,0,0,4.5087,Basalt_rect,2,4.509,0,8,0,8,0,1,,,,,,,,,,,,,
5a791168f49c9a0001f31061,TCN,2024-06-20_13h34.48.992,LearnStrategy,2023.2.3,Win32,7.490636704,5,1,10,-0.041666667,-0.01171875,1,0,0,1.8012,rock_grid_rect_2,5,02,-1,-1,1.801,-0.33984375,-0.390625,1,0,0,2.2145,Obsidian_rect,5,2.215,1,9,0,9,0,1,,,,,,,,,,,,,
5a791168f49c9a0001f31061,TCN,2024-06-20_13h34.48.992,LearnStrategy,2023.2.3,Win32,7.490636704,5,1,11,-0.049479167,0.002604167,1,0,0,2.1696,rock_grid_rect_2,7,10,-1,-1,2.17,0.139322917,-0.395833333,1,0,0,2.5067,Peridotite_rect,7,2.507,1,10,0,10,0,1,,,,,,,,,,,,,
5a791168f49c9a0001f31061,TCN,2024-06-20_13h34.48.992,LearnStrategy,2023.2.3,Win32,7.490636704,5,1,12,-0.037760417,-0.014322917,1,0,0,1.8176,rock_grid_rect_2,2,14,-1,-1,1.818,0.096354167,-0.26171875,1,0,0,3.7851,Diorite_rect,3,3.785,0,11,0,11,0,1,,,,,,,,,,,,,
5a791168f49c9a0001f31061,TCN,2024-06-20_13h34.48.992,LearnStrategy,2023.2.3,Win32,7.490636704,5,1,13,-0.06640625,-0.010416667,1,0,0,1.8168,rock_grid_rect_2,5,05,-1,-1,1.817,-0.369791667,-0.385416667,1,0,0,1.883,Obsidian_rect,5,1.883,1,12,0,12,0,1,,,,,,,,,,,,,
5a791168f49c9a0001f31061,TCN,2024-06-20_13h34.48.992,LearnStrategy,2023.2.3,Win32,7.490636704,5,1,14,0.001302083,0.01171875,1,0,0,3.0968,rock_grid_rect_2,8,06,-1,-1,3.097,0.354166667,-0.397135417,1,0,0,8.7485,Pumice_rect,8,8.749,1,13,0,13,0,1,,,,,,,,,,,,,
5a791168f49c9a0001f31061,TCN,2024-06-20_13h34.48.992,LearnStrategy,2023.2.3,Win32,7.490636704,5,1,15,0.052083333,0.001302083,1,0,0,6.0039,rock_grid_rect_2,1,16,-1,-1,6.004,-0.221354167,-0.381510417,1,0,0,5.2664,Pegmatite_rect,6,5.266,0,14,0,14,0,1,,,,,,,,,,,,,
5a791168f49c9a0001f31061,TCN,2024-06-20_13h34.48.992,LearnStrategy,2023.2.3,Win32,7.490636704,5,1,16,-0.01953125,-0.005208333,1,0,0,5.0467,rock_grid_rect_2,4,13,-1,-1,5.047,0.350260417,-0.244791667,1,0,0,23.0358,Gabbro_rect,4,23.036,1,15,0,15,0,1,,,,,,,,,,,,,
5a791168f49c9a0001f31061,TCN,2024-06-20_13h34.48.992,LearnStrategy,2023.2.3,Win32,7.490636704,5,2,1,,,,,,,,1,07,,,,,,,,,,,3,10.176,0,,,,,,0.122395833,-0.244791667,1,0,0,10.1762,Diorite_rect,0,0,0,0,1,
5a791168f49c9a0001f31061,TCN,2024-06-20_13h34.48.992,LearnStrategy,2023.2.3,Win32,7.490636704,5,2,2,,,,,,,,5,04,,,,,,,,,,,5,1.535,1,,,,,,-0.342447917,-0.401041667,1,0,0,1.535,Obsidian_rect,1,0,1,0,1,
5a791168f49c9a0001f31061,TCN,2024-06-20_13h34.48.992,LearnStrategy,2023.2.3,Win32,7.490636704,5,2,3,,,,,,,,7,02,,,,,,,,,,,7,8.259,1,,,,,,0.092447917,-0.38671875,1,0,0,8.259,Peridotite_rect,2,0,2,0,1,
5a791168f49c9a0001f31061,TCN,2024-06-20_13h34.48.992,LearnStrategy,2023.2.3,Win32,7.490636704,5,2,4,,,,,,,,2,05,,,,,,,,,,,2,8.6,1,,,,,,-0.114583333,-0.25390625,1,0,0,8.5997,Basalt_rect,3,0,3,0,1,
5a791168f49c9a0001f31061,TCN,2024-06-20_13h34.48.992,LearnStrategy,2023.2.3,Win32,7.490636704,5,2,5,,,,,,,,3,13,,,,,,,,,,,4,2.896,0,,,,,,0.34375,-0.255208333,1,0,0,2.8965,Gabbro_rect,4,0,4,0,1,
5a791168f49c9a0001f31061,TCN,2024-06-20_13h34.48.992,LearnStrategy,2023.2.3,Win32,7.490636704,5,2,6,,,,,,,,6,16,,,,,,,,,,,6,5.79,1,,,,,,-0.1015625,-0.40625,1,0,0,5.7897,Pegmatite_rect,5,0,5,0,1,
5a791168f49c9a0001f31061,TCN,2024-06-20_13h34.48.992,LearnStrategy,2023.2.3,Win32,7.490636704,5,2,7,,,,,,,,8,03,,,,,,,,,,,8,2.109,1,,,,,,0.361979167,-0.390625,1,0,0,2.1088,Pumice_rect,6,0,6,0,1,
5a791168f49c9a0001f31061,TCN,2024-06-20_13h34.48.992,LearnStrategy,2023.2.3,Win32,7.490636704,5,2,8,,,,,,,,7,14,,,,,,,,,,,1,1.814,0,,,,,,-0.369791667,-0.264322917,1,0,0,1.8138,Andesite_rect,7,0,7,0,1,
5a791168f49c9a0001f31061,TCN,2024-06-20_13h34.48.992,LearnStrategy,2023.2.3,Win32,7.490636704,5,2,9,,,,,,,,2,09,,,,,,,,,,,2,1.606,1,,,,,,-0.1640625,-0.239583333,1,0,0,1.6063,Basalt_rect,8,0,8,0,1,
5a791168f49c9a0001f31061,TCN,2024-06-20_13h34.48.992,LearnStrategy,2023.2.3,Win32,7.490636704,5,2,10,,,,,,,,6,13,,,,,,,,,,,6,2.216,1,,,,,,-0.078125,-0.412760417,1,0,0,2.2162,Pegmatite_rect,9,0,9,0,1,
5a791168f49c9a0001f31061,TCN,2024-06-20_13h34.48.992,LearnStrategy,2023.2.3,Win32,7.490636704,5,2,11,,,,,,,,8,08,,,,,,,,,,,8,4.021,1,,,,,,0.350260417,-0.39453125,1,0,0,4.0214,Pumice_rect,10,0,10,0,1,
5a791168f49c9a0001f31061,TCN,2024-06-20_13h34.48.992,LearnStrategy,2023.2.3,Win32,7.490636704,5,2,12,,,,,,,,1,03,,,,,,,,,,,3,3.713,0,,,,,,0.06640625,-0.25390625,1,0,0,3.7134,Diorite_rect,11,0,11,0,1,
5a791168f49c9a0001f31061,TCN,2024-06-20_13h34.48.992,LearnStrategy,2023.2.3,Win32,7.490636704,5,2,13,,,,,,,,4,03,,,,,,,,,,,2,3.514,0,,,,,,-0.096354167,-0.260416667,1,0,0,3.5135,Basalt_rect,12,0,12,0,1,
5a791168f49c9a0001f31061,TCN,2024-06-20_13h34.48.992,LearnStrategy,2023.2.3,Win32,7.490636704,5,2,14,,,,,,,,3,14,,,,,,,,,,,6,1.785,0,,,,,,-0.076822917,-0.395833333,1,0,0,1.7855,Pegmatite_rect,13,0,13,0,1,
5a791168f49c9a0001f31061,TCN,2024-06-20_13h34.48.992,LearnStrategy,2023.2.3,Win32,7.490636704,5,2,15,,,,,,,,4,14,,,,,,,,,,,7,2.408,0,,,,,,0.095052083,-0.391927083,1,0,0,2.4083,Peridotite_rect,14,0,14,0,1,
5a791168f49c9a0001f31061,TCN,2024-06-20_13h34.48.992,LearnStrategy,2023.2.3,Win32,7.490636704,5,2,16,,,,,,,,5,08,,,,,,,,,,,5,1.724,1,,,,,,-0.372395833,-0.404947917,1,0,0,1.7238,Obsidian_rect,15,0,15,0,1,
5a791168f49c9a0001f31061,TCN,2024-06-20_13h34.48.992,LearnStrategy,2023.2.3,Win32,7.490636704,6,1,1,-0.061197917,-0.00390625,1,0,0,2.1799,rock_grid_rect_2,1,05,-1,-1,2.18,0.122395833,-0.251302083,1,0,0,4.1233,Diorite_rect,3,4.123,0,0,0,0,0,1,,,,,,,,,,,,,
5a791168f49c9a0001f31061,TCN,2024-06-20_13h34.48.992,LearnStrategy,2023.2.3,Win32,7.490636704,6,1,2,-0.063802083,-0.0078125,1,0,0,1.9533,rock_grid_rect_2,5,11,-1,-1,1.953,-0.34765625,-0.393229167,1,0,0,1.9358,Obsidian_rect,5,1.936,1,1,0,1,0,1,,,,,,,,,,,,,
5a791168f49c9a0001f31061,TCN,2024-06-20_13h34.48.992,LearnStrategy,2023.2.3,Win32,7.490636704,6,1,3,-0.0078125,-0.018229167,1,0,0,1.6249,rock_grid_rect_2,8,04,-1,-1,1.625,0.361979167,-0.38671875,1,0,0,1.8696,Pumice_rect,8,1.87,1,2,0,2,0,1,,,,,,,,,,,,,
5a791168f49c9a0001f31061,TCN,2024-06-20_13h34.48.992,LearnStrategy,2023.2.3,Win32,7.490636704,6,1,4,-0.01953125,-0.010416667,1,0,0,1.8202,rock_grid_rect_2,4,05,-1,-1,1.82,0.09765625,-0.25390625,1,0,0,3.6443,Diorite_rect,3,3.644,0,3,0,3,0,1,,,,,,,,,,,,,
5a791168f49c9a0001f31061,TCN,2024-06-20_13h34.48.992,LearnStrategy,2023.2.3,Win32,7.490636704,6,1,5,0.0390625,0.002604167,1,0,0,5.0509,rock_grid_rect_2,1,01,-1,-1,5.051,-0.110677083,-0.244791667,1,0,0,4.031,Basalt_rect,2,4.031,0,4,0,4,0,1,,,,,,,,,,,,,
5a791168f49c9a0001f31061,TCN,2024-06-20_13h34.48.992,LearnStrategy,2023.2.3,Win32,7.490636704,6,1,6,-0.049479167,-0.0078125,1,0,0,1.9975,rock_grid_rect_2,7,06,-1,-1,1.997,0.098958333,-0.248697917,1,0,0,1.8981,Diorite_rect,3,1.898,0,5,0,5,0,1,,,,,,,,,,,,,
5a791168f49c9a0001f31061,TCN,2024-06-20_13h34.48.992,LearnStrategy,2023.2.3,Win32,7.490636704,6,1,7,-0.001302083,-0.00390625,1,0,0,4.6084,rock_grid_rect_2,5,12,-1,-1,4.608,-0.373697917,-0.4140625,1,0,0,19.0849,Obsidian_rect,5,19.085,1,6,0,6,0,1,,,,,,,,,,,,,
5a791168f49c9a0001f31061,TCN,2024-06-20_13h34.48.992,LearnStrategy,2023.2.3,Win32,7.490636704,6,1,8,0.0859375,-0.009114583,1,0,0,13.0953,rock_grid_rect_2,8,13,-1,-1,13.095,0.354166667,-0.385416667,1,0,0,6.4276,Pumice_rect,8,6.428,1,7,0,7,0,1,,,,,,,,,,,,,
5a791168f49c9a0001f31061,TCN,2024-06-20_13h34.48.992,LearnStrategy,2023.2.3,Win32,7.490636704,6,1,9,0.014322917,-0.005208333,1,0,0,1.4534,rock_grid_rect_2,3,02,-1,-1,1.453,0.076822917,-0.252604167,1,0,0,3.9762,Diorite_rect,3,3.976,1,8,0,8,0,1,,,,,,,,,,,,,
5a791168f49c9a0001f31061,TCN,2024-06-20_13h34.48.992,LearnStrategy,2023.2.3,Win32,7.490636704,6,1,10,-0.014322917,-0.015625,1,0,0,4.0093,rock_grid_rect_2,4,01,-1,-1,4.009,-0.122395833,-0.40625,1,0,0,7.5133,Pegmatite_rect,6,7.513,0,9,0,9,0,1,,,,,,,,,,,,,
5a791168f49c9a0001f31061,TCN,2024-06-20_13h34.48.992,LearnStrategy,2023.2.3,Win32,7.490636704,6,1,11,-0.057291667,-0.01953125,1,0,0,1.8106,rock_grid_rect_2,3,11,-1,-1,1.811,0.157552083,-0.25390625,1,0,0,13.6636,Diorite_rect,3,13.664,1,10,0,10,0,1,,,,,,,,,,,,,
5a791168f49c9a0001f31061,TCN,2024-06-20_13h34.48.992,LearnStrategy,2023.2.3,Win32,7.490636704,6,1,12,-0.03125,-0.014322917,1,0,0,2.1627,rock_grid_rect_2,6,15,-1,-1,2.163,-0.3203125,-0.268229167,1,0,0,4.5648,Andesite_rect,1,4.565,0,11,0,11,0,1,,,,,,,,,,,,,
5a791168f49c9a0001f31061,TCN,2024-06-20_13h34.48.992,LearnStrategy,2023.2.3,Win32,7.490636704,6,1,13,0.033854167,-0.002604167,1,0,0,4.1951,rock_grid_rect_2,2,10,-1,-1,4.195,-0.091145833,-0.25390625,1,0,0,1.9468,Basalt_rect,2,1.947,1,12,0,12,0,1,,,,,,,,,,,,,
5a791168f49c9a0001f31061,TCN,2024-06-20_13h34.48.992,LearnStrategy,2023.2.3,Win32,7.490636704,6,1,14,-0.013020833,-0.0078125,1,0,0,1.8177,rock_grid_rect_2,2,01,-1,-1,1.818,-0.1015625,-0.25,1,0,0,4.0308,Basalt_rect,2,4.031,1,13,0,13,0,1,,,,,,,,,,,,,
5a791168f49c9a0001f31061,TCN,2024-06-20_13h34.48.992,LearnStrategy,2023.2.3,Win32,7.490636704,6,1,15,0.109375,-0.013020833,1,0,0,8.1871,rock_grid_rect_2,7,04,-1,-1,8.187,0.087239583,-0.393229167,1,0,0,2.5235,Peridotite_rect,7,2.524,1,14,0,14,0,1,,,,,,,,,,,,,
5a791168f49c9a0001f31061,TCN,2024-06-20_13h34.48.992,LearnStrategy,2023.2.3,Win32,7.490636704,6,1,16,0.009114583,-0.005208333,1,0,0,3.0834,rock_grid_rect_2,6,05,-1,-1,3.083,-0.157552083,-0.380208333,1,0,0,2.8215,Pegmatite_rect,6,2.822,1,15,0,15,0,1,,,,,,,,,,,,,
5a791168f49c9a0001f31061,TCN,2024-06-20_13h34.48.992,LearnStrategy,2023.2.3,Win32,7.490636704,6,2,1,,,,,,,,1,06,,,,,,,,,,,7,6.43,0,,,,,,0.06640625,-0.393229167,1,0,0,6.4296,Peridotite_rect,0,0,0,0,1,
5a791168f49c9a0001f31061,TCN,2024-06-20_13h34.48.992,LearnStrategy,2023.2.3,Win32,7.490636704,6,2,2,,,,,,,,2,06,,,,,,,,,,,2,1.884,1,,,,,,-0.1640625,-0.24609375,1,0,0,1.8839,Basalt_rect,1,0,1,0,1,
5a791168f49c9a0001f31061,TCN,2024-06-20_13h34.48.992,LearnStrategy,2023.2.3,Win32,7.490636704,6,2,3,,,,,,,,4,10,,,,,,,,,,,2,4.888,0,,,,,,-0.102864583,-0.25,1,0,0,4.8881,Basalt_rect,2,0,2,0,1,
5a791168f49c9a0001f31061,TCN,2024-06-20_13h34.48.992,LearnStrategy,2023.2.3,Win32,7.490636704,6,2,4,,,,,,,,4,09,,,,,,,,,,,2,3.924,0,,,,,,-0.102864583,-0.25,1,0,0,3.9236,Basalt_rect,3,0,3,0,1,
5a791168f49c9a0001f31061,TCN,2024-06-20_13h34.48.992,LearnStrategy,2023.2.3,Win32,7.490636704,6,2,5,,,,,,,,1,11,,,,,,,,,,,7,3.381,0,,,,,,0.122395833,-0.391927083,1,0,0,3.3806,Peridotite_rect,4,0,4,0,1,
5a791168f49c9a0001f31061,TCN,2024-06-20_13h34.48.992,LearnStrategy,2023.2.3,Win32,7.490636704,6,2,6,,,,,,,,6,08,,,,,,,,,,,6,1.895,1,,,,,,-0.216145833,-0.40625,1,0,0,1.8945,Pegmatite_rect,5,0,5,0,1,
5a791168f49c9a0001f31061,TCN,2024-06-20_13h34.48.992,LearnStrategy,2023.2.3,Win32,7.490636704,6,2,7,,,,,,,,5,06,,,,,,,,,,,5,2.315,1,,,,,,-0.3671875,-0.411458333,1,0,0,2.3155,Obsidian_rect,6,0,6,0,1,
5a791168f49c9a0001f31061,TCN,2024-06-20_13h34.48.992,LearnStrategy,2023.2.3,Win32,7.490636704,6,2,8,,,,,,,,3,10,,,,,,,,,,,3,3.311,1,,,,,,0.194010417,-0.270833333,1,0,0,3.3107,Diorite_rect,7,0,7,0,1,
5a791168f49c9a0001f31061,TCN,2024-06-20_13h34.48.992,LearnStrategy,2023.2.3,Win32,7.490636704,6,2,9,,,,,,,,7,16,,,,,,,,,,,4,1.727,0,,,,,,0.360677083,-0.247395833,1,0,0,1.7275,Gabbro_rect,8,0,8,0,1,
5a791168f49c9a0001f31061,TCN,2024-06-20_13h34.48.992,LearnStrategy,2023.2.3,Win32,7.490636704,6,2,10,,,,,,,,2,08,,,,,,,,,,,7,8.985,0,,,,,,0.061197917,-0.397135417,1,0,0,8.9851,Peridotite_rect,9,0,9,0,1,
5a791168f49c9a0001f31061,TCN,2024-06-20_13h34.48.992,LearnStrategy,2023.2.3,Win32,7.490636704,6,2,11,,,,,,,,6,11,,,,,,,,,,,6,1.516,1,,,,,,-0.169270833,-0.412760417,1,0,0,1.5161,Pegmatite_rect,10,0,10,0,1,
5a791168f49c9a0001f31061,TCN,2024-06-20_13h34.48.992,LearnStrategy,2023.2.3,Win32,7.490636704,6,2,12,,,,,,,,5,14,,,,,,,,,,,5,2.809,1,,,,,,-0.423177083,-0.399739583,1,0,0,2.8091,Obsidian_rect,11,0,11,0,1,
5a791168f49c9a0001f31061,TCN,2024-06-20_13h34.48.992,LearnStrategy,2023.2.3,Win32,7.490636704,6,2,13,,,,,,,,8,09,,,,,,,,,,,8,3.661,1,,,,,,0.345052083,-0.3828125,1,0,0,3.661,Pumice_rect,12,0,12,0,1,
5a791168f49c9a0001f31061,TCN,2024-06-20_13h34.48.992,LearnStrategy,2023.2.3,Win32,7.490636704,6,2,14,,,,,,,,7,12,,,,,,,,,,,7,2.721,1,,,,,,0.138020833,-0.3828125,1,0,0,2.7206,Peridotite_rect,13,0,13,0,1,
5a791168f49c9a0001f31061,TCN,2024-06-20_13h34.48.992,LearnStrategy,2023.2.3,Win32,7.490636704,6,2,15,,,,,,,,8,14,,,,,,,,,,,8,4.313,1,,,,,,0.326822917,-0.391927083,1,0,0,4.3135,Pumice_rect,14,0,14,0,1,
5a791168f49c9a0001f31061,TCN,2024-06-20_13h34.48.992,LearnStrategy,2023.2.3,Win32,7.490636704,6,2,16,,,,,,,,3,06,,,,,,,,,,,2,1.787,0,,,,,,-0.134114583,-0.251302083,1,0,0,1.7871,Basalt_rect,15,0,15,0,1,
5a791168f49c9a0001f31061,TCN,2024-06-20_13h34.48.992,LearnStrategy,2023.2.3,Win32,7.490636704,7,1,1,-0.096354167,-0.009114583,1,0,0,4.6648,rock_grid_rect_2,2,14,-1,-1,4.665,0.328125,-0.388020833,1,0,0,4.9558,Pumice_rect,8,4.956,0,0,0,0,0,1,,,,,,,,,,,,,
5a791168f49c9a0001f31061,TCN,2024-06-20_13h34.48.992,LearnStrategy,2023.2.3,Win32,7.490636704,7,1,2,-0.044270833,-0.005208333,1,0,0,5.4747,rock_grid_rect_2,6,07,-1,-1,5.475,-0.12890625,-0.39453125,1,0,0,1.9075,Pegmatite_rect,6,1.907,1,1,0,1,0,1,,,,,,,,,,,,,
5a791168f49c9a0001f31061,TCN,2024-06-20_13h34.48.992,LearnStrategy,2023.2.3,Win32,7.490636704,7,1,3,-0.032552083,0.009114583,1,0,0,1.2747,rock_grid_rect_2,3,08,-1,-1,1.275,0.10546875,-0.25390625,1,0,0,1.699,Diorite_rect,3,1.699,1,2,0,2,0,1,,,,,,,,,,,,,
5a791168f49c9a0001f31061,TCN,2024-06-20_13h34.48.992,LearnStrategy,2023.2.3,Win32,7.490636704,7,1,4,-0.0859375,0,1,0,0,1.4516,rock_grid_rect_2,7,06,-1,-1,1.452,-0.380208333,-0.260416667,1,0,0,3.6828,Andesite_rect,1,3.683,0,3,0,3,0,1,,,,,,,,,,,,,
5a791168f49c9a0001f31061,TCN,2024-06-20_13h34.48.992,LearnStrategy,2023.2.3,Win32,7.490636704,7,1,5,-0.002604167,0.014322917,1,0,0,1.8254,rock_grid_rect_2,3,09,-1,-1,1.825,-0.122395833,-0.40234375,1,0,0,11.1118,Pegmatite_rect,6,11.112,0,4,0,4,0,1,,,,,,,,,,,,,
5a791168f49c9a0001f31061,TCN,2024-06-20_13h34.48.992,LearnStrategy,2023.2.3,Win32,7.490636704,7,1,6,0.08203125,-0.0078125,1,0,0,5.9724,rock_grid_rect_2,7,15,-1,-1,5.972,0.15234375,-0.2578125,1,0,0,1.8873,Diorite_rect,3,1.887,0,5,0,5,0,1,,,,,,,,,,,,,
5a791168f49c9a0001f31061,TCN,2024-06-20_13h34.48.992,LearnStrategy,2023.2.3,Win32,7.490636704,7,1,7,-0.022135417,0.005208333,1,0,0,3.611,rock_grid_rect_2,2,04,-1,-1,3.611,-0.125,-0.23828125,1,0,0,2.4227,Basalt_rect,2,2.423,1,6,0,6,0,1,,,,,,,,,,,,,
5a791168f49c9a0001f31061,TCN,2024-06-20_13h34.48.992,LearnStrategy,2023.2.3,Win32,7.490636704,7,1,8,-0.033854167,-0.01171875,1,0,0,1.8046,rock_grid_rect_2,8,06,-1,-1,1.805,0.307291667,-0.381510417,1,0,0,2.2871,Pumice_rect,8,2.287,1,7,0,7,0,1,,,,,,,,,,,,,
5a791168f49c9a0001f31061,TCN,2024-06-20_13h34.48.992,LearnStrategy,2023.2.3,Win32,7.490636704,7,1,9,-0.002604167,0,1,0,0,1.6377,rock_grid_rect_2,4,12,-1,-1,1.638,0.078125,-0.2578125,1,0,0,3.1923,Diorite_rect,3,3.192,0,8,0,8,0,1,,,,,,,,,,,,,
5a791168f49c9a0001f31061,TCN,2024-06-20_13h34.48.992,LearnStrategy,2023.2.3,Win32,7.490636704,7,1,10,-0.020833333,-0.020833333,1,0,0,1.83,rock_grid_rect_2,4,13,-1,-1,1.83,-0.1328125,-0.404947917,1,0,0,1.5632,Pegmatite_rect,6,1.563,0,9,0,9,0,1,,,,,,,,,,,,,
5a791168f49c9a0001f31061,TCN,2024-06-20_13h34.48.992,LearnStrategy,2023.2.3,Win32,7.490636704,7,1,11,-0.013020833,-0.018229167,1,0,0,1.4784,rock_grid_rect_2,1,01,-1,-1,1.478,0.15625,-0.252604167,1,0,0,3.272,Diorite_rect,3,3.272,0,10,0,10,0,1,,,,,,,,,,,,,
5a791168f49c9a0001f31061,TCN,2024-06-20_13h34.48.992,LearnStrategy,2023.2.3,Win32,7.490636704,7,1,12,-0.020833333,-0.006510417,1,0,0,1.6418,rock_grid_rect_2,8,16,-1,-1,1.642,0.358072917,-0.39453125,1,0,0,5.5921,Pumice_rect,8,5.592,1,11,0,11,0,1,,,,,,,,,,,,,
5a791168f49c9a0001f31061,TCN,2024-06-20_13h34.48.992,LearnStrategy,2023.2.3,Win32,7.490636704,7,1,13,-0.0390625,0.013020833,1,0,0,1.6376,rock_grid_rect_2,5,02,-1,-1,1.638,-0.38671875,-0.39453125,1,0,0,4.0837,Obsidian_rect,5,4.084,1,12,0,12,0,1,,,,,,,,,,,,,
5a791168f49c9a0001f31061,TCN,2024-06-20_13h34.48.992,LearnStrategy,2023.2.3,Win32,7.490636704,7,1,14,0.01171875,0.002604167,1,0,0,10.2524,rock_grid_rect_2,1,05,-1,-1,10.252,-0.1640625,-0.393229167,1,0,0,2.2225,Pegmatite_rect,6,2.222,0,13,0,13,0,1,,,,,,,,,,,,,
5a791168f49c9a0001f31061,TCN,2024-06-20_13h34.48.992,LearnStrategy,2023.2.3,Win32,7.490636704,7,1,15,0.05078125,-0.010416667,1,0,0,1.4565,rock_grid_rect_2,5,09,-1,-1,1.457,-0.330729167,-0.3984375,1,0,0,1.5502,Obsidian_rect,5,1.55,1,14,0,14,0,1,,,,,,,,,,,,,
5a791168f49c9a0001f31061,TCN,2024-06-20_13h34.48.992,LearnStrategy,2023.2.3,Win32,7.490636704,7,1,16,0.0078125,0.00390625,1,0,0,11.31,rock_grid_rect_2,6,05,-1,-1,11.31,-0.130208333,-0.401041667,1,0,0,10.3542,Pegmatite_rect,6,10.354,1,15,0,15,0,1,,,,,,,,,,,,,
5a791168f49c9a0001f31061,TCN,2024-06-20_13h34.48.992,LearnStrategy,2023.2.3,Win32,7.490636704,7,2,1,,,,,,,,3,16,,,,,,,,,,,4,8.139,0,,,,,,0.356770833,-0.229166667,1,0,0,8.1391,Gabbro_rect,0,0,0,0,1,
5a791168f49c9a0001f31061,TCN,2024-06-20_13h34.48.992,LearnStrategy,2023.2.3,Win32,7.490636704,7,2,2,,,,,,,,5,10,,,,,,,,,,,5,1.963,1,,,,,,-0.3828125,-0.41015625,1,0,0,1.963,Obsidian_rect,1,0,1,0,1,
5a791168f49c9a0001f31061,TCN,2024-06-20_13h34.48.992,LearnStrategy,2023.2.3,Win32,7.490636704,7,2,3,,,,,,,,7,02,,,,,,,,,,,7,3.927,1,,,,,,0.069010417,-0.391927083,1,0,0,3.927,Peridotite_rect,2,0,2,0,1,
5a791168f49c9a0001f31061,TCN,2024-06-20_13h34.48.992,LearnStrategy,2023.2.3,Win32,7.490636704,7,2,4,,,,,,,,7,16,,,,,,,,,,,6,2.266,0,,,,,,-0.098958333,-0.3984375,1,0,0,2.2662,Pegmatite_rect,3,0,3,0,1,
5a791168f49c9a0001f31061,TCN,2024-06-20_13h34.48.992,LearnStrategy,2023.2.3,Win32,7.490636704,7,2,5,,,,,,,,2,08,,,,,,,,,,,2,3.834,1,,,,,,-0.098958333,-0.24609375,1,0,0,3.8335,Basalt_rect,4,0,4,0,1,
5a791168f49c9a0001f31061,TCN,2024-06-20_13h34.48.992,LearnStrategy,2023.2.3,Win32,7.490636704,7,2,6,,,,,,,,1,11,,,,,,,,,,,3,6.626,0,,,,,,0.109375,-0.248697917,1,0,0,6.6259,Diorite_rect,5,0,5,0,1,
5a791168f49c9a0001f31061,TCN,2024-06-20_13h34.48.992,LearnStrategy,2023.2.3,Win32,7.490636704,7,2,7,,,,,,,,1,14,,,,,,,,,,,1,2.148,1,,,,,,-0.380208333,-0.25,1,0,0,2.1484,Andesite_rect,6,0,6,0,1,
5a791168f49c9a0001f31061,TCN,2024-06-20_13h34.48.992,LearnStrategy,2023.2.3,Win32,7.490636704,7,2,8,,,,,,,,4,03,,,,,,,,,,,7,3.938,0,,,,,,0.126302083,-0.393229167,1,0,0,3.9382,Peridotite_rect,7,0,7,0,1,
5a791168f49c9a0001f31061,TCN,2024-06-20_13h34.48.992,LearnStrategy,2023.2.3,Win32,7.490636704,7,2,9,,,,,,,,8,10,,,,,,,,,,,8,8.796,1,,,,,,0.450520833,-0.40234375,1,0,0,8.7959,Pumice_rect,8,0,8,0,1,
5a791168f49c9a0001f31061,TCN,2024-06-20_13h34.48.992,LearnStrategy,2023.2.3,Win32,7.490636704,7,2,10,,,,,,,,6,09,,,,,,,,,,,7,2.483,0,,,,,,0.157552083,-0.385416667,1,0,0,2.4827,Peridotite_rect,9,0,9,0,1,
5a791168f49c9a0001f31061,TCN,2024-06-20_13h34.48.992,LearnStrategy,2023.2.3,Win32,7.490636704,7,2,11,,,,,,,,3,14,,,,,,,,,,,3,1.981,1,,,,,,0.123697917,-0.231770833,1,0,0,1.9814,Diorite_rect,10,0,10,0,1,
5a791168f49c9a0001f31061,TCN,2024-06-20_13h34.48.992,LearnStrategy,2023.2.3,Win32,7.490636704,7,2,12,,,,,,,,8,08,,,,,,,,,,,8,4.243,1,,,,,,0.37109375,-0.390625,1,0,0,4.2434,Pumice_rect,11,0,11,0,1,
5a791168f49c9a0001f31061,TCN,2024-06-20_13h34.48.992,LearnStrategy,2023.2.3,Win32,7.490636704,7,2,13,,,,,,,,4,11,,,,,,,,,,,2,1.742,0,,,,,,-0.09375,-0.235677083,1,0,0,1.742,Basalt_rect,12,0,12,0,1,
5a791168f49c9a0001f31061,TCN,2024-06-20_13h34.48.992,LearnStrategy,2023.2.3,Win32,7.490636704,7,2,14,,,,,,,,6,08,,,,,,,,,,,6,9.943,1,,,,,,-0.110677083,-0.391927083,1,0,0,9.9433,Pegmatite_rect,13,0,13,0,1,
5a791168f49c9a0001f31061,TCN,2024-06-20_13h34.48.992,LearnStrategy,2023.2.3,Win32,7.490636704,7,2,15,,,,,,,,2,05,,,,,,,,,,,3,3.743,0,,,,,,0.110677083,-0.243489583,1,0,0,3.7431,Diorite_rect,14,0,14,0,1,
5a791168f49c9a0001f31061,TCN,2024-06-20_13h34.48.992,LearnStrategy,2023.2.3,Win32,7.490636704,7,2,16,,,,,,,,5,08,,,,,,,,,,,5,3.399,1,,,,,,-0.372395833,-0.399739583,1,0,0,3.399,Obsidian_rect,15,0,15,0,1,
5a791168f49c9a0001f31061,TCN,2024-06-20_13h34.48.992,LearnStrategy,2023.2.3,Win32,7.490636704,8,1,1,-0.076822917,0.00390625,1,0,0,2.1846,rock_grid_rect_2,7,07,-1,-1,2.185,0.076822917,-0.397135417,1,0,0,41.0145,Peridotite_rect,7,41.015,1,0,0,0,0,1,,,,,,,,,,,,,
5a791168f49c9a0001f31061,TCN,2024-06-20_13h34.48.992,LearnStrategy,2023.2.3,Win32,7.490636704,8,1,2,-0.032552083,-0.009114583,1,0,0,6.2863,rock_grid_rect_2,4,05,-1,-1,6.286,-0.3828125,-0.2578125,1,0,0,2.7276,Andesite_rect,1,2.728,0,1,0,1,0,1,,,,,,,,,,,,,
5a791168f49c9a0001f31061,TCN,2024-06-20_13h34.48.992,LearnStrategy,2023.2.3,Win32,7.490636704,8,1,3,0.110677083,0.005208333,1,0,0,6.7106,rock_grid_rect_2,2,01,-1,-1,6.711,-0.084635417,-0.243489583,1,0,0,2.0533,Basalt_rect,2,2.053,1,2,0,2,0,1,,,,,,,,,,,,,
5a791168f49c9a0001f31061,TCN,2024-06-20_13h34.48.992,LearnStrategy,2023.2.3,Win32,7.490636704,8,1,4,-0.029947917,-0.006510417,1,0,0,2.3561,rock_grid_rect_2,6,03,-1,-1,2.356,0.106770833,-0.244791667,1,0,0,9.4842,Diorite_rect,3,9.484,0,3,0,3,0,1,,,,,,,,,,,,,
5a791168f49c9a0001f31061,TCN,2024-06-20_13h34.48.992,LearnStrategy,2023.2.3,Win32,7.490636704,8,1,5,0.05078125,0.001302083,1,0,0,3.8954,rock_grid_rect_2,2,10,-1,-1,3.895,0.079427083,-0.41015625,1,0,0,4.221,Peridotite_rect,7,4.221,0,4,0,4,0,1,,,,,,,,,,,,,
5a791168f49c9a0001f31061,TCN,2024-06-20_13h34.48.992,LearnStrategy,2023.2.3,Win32,7.490636704,8,1,6,-0.083333333,0.0078125,1,0,0,1.2673,rock_grid_rect_2,3,12,-1,-1,1.267,0.326822917,-0.235677083,1,0,0,4.4467,Gabbro_rect,4,4.447,0,5,0,5,0,1,,,,,,,,,,,,,
5a791168f49c9a0001f31061,TCN,2024-06-20_13h34.48.992,LearnStrategy,2023.2.3,Win32,7.490636704,8,1,7,0.041666667,0.005208333,1,0,0,3.9935,rock_grid_rect_2,7,04,-1,-1,3.994,-0.084635417,-0.391927083,1,0,0,2.6236,Pegmatite_rect,6,2.624,0,6,0,6,0,1,,,,,,,,,,,,,
5a791168f49c9a0001f31061,TCN,2024-06-20_13h34.48.992,LearnStrategy,2023.2.3,Win32,7.490636704,8,1,8,0.0234375,-0.00390625,1,0,0,2.5575,rock_grid_rect_2,1,10,-1,-1,2.557,0.356770833,-0.388020833,1,0,0,5.1901,Pumice_rect,8,5.19,0,7,0,7,0,1,,,,,,,,,,,,,
5a791168f49c9a0001f31061,TCN,2024-06-20_13h34.48.992,LearnStrategy,2023.2.3,Win32,7.490636704,8,1,9,-0.069010417,-0.001302083,1,0,0,1.6419,rock_grid_rect_2,1,04,-1,-1,1.642,-0.173177083,-0.3984375,1,0,0,2.5583,Pegmatite_rect,6,2.558,0,8,0,8,0,1,,,,,,,,,,,,,
5a791168f49c9a0001f31061,TCN,2024-06-20_13h34.48.992,LearnStrategy,2023.2.3,Win32,7.490636704,8,1,10,-0.057291667,0.015625,1,0,0,3.9571,rock_grid_rect_2,5,11,-1,-1,3.957,-0.393229167,-0.403645833,1,0,0,4.2274,Obsidian_rect,5,4.227,1,9,0,9,0,1,,,,,,,,,,,,,
5a791168f49c9a0001f31061,TCN,2024-06-20_13h34.48.992,LearnStrategy,2023.2.3,Win32,7.490636704,8,1,11,-0.010416667,-0.016927083,1,0,0,1.4416,rock_grid_rect_2,5,05,-1,-1,1.442,-0.372395833,-0.412760417,1,0,0,1.9102,Obsidian_rect,5,1.91,1,10,0,10,0,1,,,,,,,,,,,,,
5a791168f49c9a0001f31061,TCN,2024-06-20_13h34.48.992,LearnStrategy,2023.2.3,Win32,7.490636704,8,1,12,-0.05078125,0.002604167,1,0,0,3.4309,rock_grid_rect_2,8,04,-1,-1,3.431,0.345052083,-0.3984375,1,0,0,3.8172,Pumice_rect,8,3.817,1,11,0,11,0,1,,,,,,,,,,,,,
5a791168f49c9a0001f31061,TCN,2024-06-20_13h34.48.992,LearnStrategy,2023.2.3,Win32,7.490636704,8,1,13,-0.036458333,0,1,0,0,2.1929,rock_grid_rect_2,6,15,-1,-1,2.193,-0.377604167,-0.26953125,1,0,0,2.5161,Andesite_rect,1,2.516,0,12,0,12,0,1,,,,,,,,,,,,,
5a791168f49c9a0001f31061,TCN,2024-06-20_13h34.48.992,LearnStrategy,2023.2.3,Win32,7.490636704,8,1,14,-0.026041667,0.001302083,1,0,0,1.6418,rock_grid_rect_2,4,01,-1,-1,1.642,0.1171875,-0.393229167,1,0,0,3.6952,Peridotite_rect,7,3.695,0,13,0,13,0,1,,,,,,,,,,,,,
5a791168f49c9a0001f31061,TCN,2024-06-20_13h34.48.992,LearnStrategy,2023.2.3,Win32,7.490636704,8,1,15,0.00390625,0,1,0,0,3.6188,rock_grid_rect_2,8,05,-1,-1,3.619,0.3671875,-0.395833333,1,0,0,5.0329,Pumice_rect,8,5.033,1,14,0,14,0,1,,,,,,,,,,,,,
5a791168f49c9a0001f31061,TCN,2024-06-20_13h34.48.992,LearnStrategy,2023.2.3,Win32,7.490636704,8,1,16,-0.036458333,-0.005208333,1,0,0,4.7032,rock_grid_rect_2,3,11,-1,-1,4.703,-0.341145833,-0.236979167,1,0,0,5.9844,Andesite_rect,1,5.984,0,15,0,15,0,1,,,,,,,,,,,,,
5a791168f49c9a0001f31061,TCN,2024-06-20_13h34.48.992,LearnStrategy,2023.2.3,Win32,7.490636704,8,2,1,,,,,,,,7,14,,,,,,,,,,,7,10.982,1,,,,,,0.119791667,-0.399739583,1,0,0,10.9822,Peridotite_rect,0,0,0,0,1,
5a791168f49c9a0001f31061,TCN,2024-06-20_13h34.48.992,LearnStrategy,2023.2.3,Win32,7.490636704,8,2,2,,,,,,,,6,13,,,,,,,,,,,6,1.613,1,,,,,,-0.140625,-0.37890625,1,0,0,1.613,Pegmatite_rect,1,0,1,0,1,
5a791168f49c9a0001f31061,TCN,2024-06-20_13h34.48.992,LearnStrategy,2023.2.3,Win32,7.490636704,8,2,3,,,,,,,,3,10,,,,,,,,,,,4,2.145,0,,,,,,0.345052083,-0.23828125,1,0,0,2.1445,Gabbro_rect,2,0,2,0,1,
5a791168f49c9a0001f31061,TCN,2024-06-20_13h34.48.992,LearnStrategy,2023.2.3,Win32,7.490636704,8,2,4,,,,,,,,1,06,,,,,,,,,,,3,3.077,0,,,,,,0.083333333,-0.247395833,1,0,0,3.0773,Diorite_rect,3,0,3,0,1,
5a791168f49c9a0001f31061,TCN,2024-06-20_13h34.48.992,LearnStrategy,2023.2.3,Win32,7.490636704,8,2,5,,,,,,,,3,06,,,,,,,,,,,7,8.923,0,,,,,,0.053385417,-0.393229167,1,0,0,8.9231,Peridotite_rect,4,0,4,0,1,
5a791168f49c9a0001f31061,TCN,2024-06-20_13h34.48.992,LearnStrategy,2023.2.3,Win32,7.490636704,8,2,6,,,,,,,,4,14,,,,,,,,,,,2,5.249,0,,,,,,-0.12109375,-0.256510417,1,0,0,5.2487,Basalt_rect,5,0,5,0,1,
5a791168f49c9a0001f31061,TCN,2024-06-20_13h34.48.992,LearnStrategy,2023.2.3,Win32,7.490636704,8,2,7,,,,,,,,4,08,,,,,,,,,,,6,16.084,0,,,,,,-0.126302083,-0.407552083,1,0,0,16.0836,Pegmatite_rect,6,0,6,0,1,
5a791168f49c9a0001f31061,TCN,2024-06-20_13h34.48.992,LearnStrategy,2023.2.3,Win32,7.490636704,8,2,8,,,,,,,,8,14,,,,,,,,,,,8,2.156,1,,,,,,0.350260417,-0.393229167,1,0,0,2.1562,Pumice_rect,7,0,7,0,1,
5a791168f49c9a0001f31061,TCN,2024-06-20_13h34.48.992,LearnStrategy,2023.2.3,Win32,7.490636704,8,2,9,,,,,,,,2,16,,,,,,,,,,,2,1.513,1,,,,,,-0.078125,-0.24609375,1,0,0,1.5133,Basalt_rect,8,0,8,0,1,
5a791168f49c9a0001f31061,TCN,2024-06-20_13h34.48.992,LearnStrategy,2023.2.3,Win32,7.490636704,8,2,10,,,,,,,,1,07,,,,,,,,,,,1,4.448,1,,,,,,-0.37890625,-0.259114583,1,0,0,4.448,Andesite_rect,9,0,9,0,1,
5a791168f49c9a0001f31061,TCN,2024-06-20_13h34.48.992,LearnStrategy,2023.2.3,Win32,7.490636704,8,2,11,,,,,,,,7,12,,,,,,,,,,,3,2.055,0,,,,,,0.076822917,-0.259114583,1,0,0,2.0546,Diorite_rect,10,0,10,0,1,
5a791168f49c9a0001f31061,TCN,2024-06-20_13h34.48.992,LearnStrategy,2023.2.3,Win32,7.490636704,8,2,12,,,,,,,,2,09,,,,,,,,,,,2,1.539,1,,,,,,-0.109375,-0.260416667,1,0,0,1.5389,Basalt_rect,11,0,11,0,1,
5a791168f49c9a0001f31061,TCN,2024-06-20_13h34.48.992,LearnStrategy,2023.2.3,Win32,7.490636704,8,2,13,,,,,,,,5,06,,,,,,,,,,,5,3.786,1,,,,,,-0.376302083,-0.39453125,1,0,0,3.7865,Obsidian_rect,12,0,12,0,1,
5a791168f49c9a0001f31061,TCN,2024-06-20_13h34.48.992,LearnStrategy,2023.2.3,Win32,7.490636704,8,2,14,,,,,,,,6,11,,,,,,,,,,,4,3.148,0,,,,,,0.381510417,-0.243489583,1,0,0,3.1483,Gabbro_rect,13,0,13,0,1,
5a791168f49c9a0001f31061,TCN,2024-06-20_13h34.48.992,LearnStrategy,2023.2.3,Win32,7.490636704,8,2,15,,,,,,,,5,16,,,,,,,,,,,5,1.725,1,,,,,,-0.352864583,-0.384114583,1,0,0,1.7252,Obsidian_rect,14,0,14,0,1,
5a791168f49c9a0001f31061,TCN,2024-06-20_13h34.48.992,LearnStrategy,2023.2.3,Win32,7.490636704,8,2,16,,,,,,,,8,09,,,,,,,,,,,8,2.607,1,,,,,,0.360677083,-0.385416667,1,0,0,2.6069,Pumice_rect,15,0,15,0,1,
5a791168f49c9a0001f31061,TCN,2024-06-20_13h34.48.992,LearnStrategy,2023.2.3,Win32,7.490636704,9,1,1,-0.015625,-0.001302083,1,0,0,4.7022,rock_grid_rect_2,6,10,-1,-1,4.702,0.0859375,-0.399739583,1,0,0,4.7505,Peridotite_rect,7,4.751,0,0,0,0,0,1,,,,,,,,,,,,,
5a791168f49c9a0001f31061,TCN,2024-06-20_13h34.48.992,LearnStrategy,2023.2.3,Win32,7.490636704,9,1,2,-0.028645833,-0.00390625,1,0,0,2.732,rock_grid_rect_2,3,15,-1,-1,2.732,-0.149739583,-0.399739583,1,0,0,1.5682,Pegmatite_rect,6,1.568,0,1,0,1,0,1,,,,,,,,,,,,,
5a791168f49c9a0001f31061,TCN,2024-06-20_13h34.48.992,LearnStrategy,2023.2.3,Win32,7.490636704,9,1,3,-0.037760417,0.00390625,1,0,0,2.7113,rock_grid_rect_2,7,13,-1,-1,2.711,0.075520833,-0.25,1,0,0,3.3318,Diorite_rect,3,3.332,0,2,0,2,0,1,,,,,,,,,,,,,
5a791168f49c9a0001f31061,TCN,2024-06-20_13h34.48.992,LearnStrategy,2023.2.3,Win32,7.490636704,9,1,4,0.028645833,-0.00390625,1,0,0,1.6231,rock_grid_rect_2,6,12,-1,-1,1.623,0.138020833,-0.397135417,1,0,0,5.5811,Peridotite_rect,7,5.581,0,3,0,3,0,1,,,,,,,,,,,,,
5a791168f49c9a0001f31061,TCN,2024-06-20_13h34.48.992,LearnStrategy,2023.2.3,Win32,7.490636704,9,1,5,-0.029947917,-0.00390625,1,0,0,1.4439,rock_grid_rect_2,8,02,-1,-1,1.444,0.40234375,-0.3984375,1,0,0,3.2214,Pumice_rect,8,3.221,1,4,0,4,0,1,,,,,,,,,,,,,
5a791168f49c9a0001f31061,TCN,2024-06-20_13h34.48.992,LearnStrategy,2023.2.3,Win32,7.490636704,9,1,6,-0.00390625,0.002604167,1,0,0,1.492,rock_grid_rect_2,7,10,-1,-1,1.492,-0.1015625,-0.390625,1,0,0,3.7192,Pegmatite_rect,6,3.719,0,5,0,5,0,1,,,,,,,,,,,,,
5a791168f49c9a0001f31061,TCN,2024-06-20_13h34.48.992,LearnStrategy,2023.2.3,Win32,7.490636704,9,1,7,0.005208333,-0.009114583,1,0,0,1.6945,rock_grid_rect_2,5,07,-1,-1,1.695,-0.352864583,-0.385416667,1,0,0,1.8014,Obsidian_rect,5,1.801,1,6,0,6,0,1,,,,,,,,,,,,,
5a791168f49c9a0001f31061,TCN,2024-06-20_13h34.48.992,LearnStrategy,2023.2.3,Win32,7.490636704,9,1,8,-0.0390625,-0.0078125,1,0,0,1.4497,rock_grid_rect_2,2,11,-1,-1,1.45,0.322916667,-0.380208333,1,0,0,4.2309,Pumice_rect,8,4.231,0,7,0,7,0,1,,,,,,,,,,,,,
5a791168f49c9a0001f31061,TCN,2024-06-20_13h34.48.992,LearnStrategy,2023.2.3,Win32,7.490636704,9,1,9,-0.024739583,-0.016927083,1,0,0,1.4475,rock_grid_rect_2,3,02,-1,-1,1.448,0.078125,-0.255208333,1,0,0,3.2433,Diorite_rect,3,3.243,1,8,0,8,0,1,,,,,,,,,,,,,
5a791168f49c9a0001f31061,TCN,2024-06-20_13h34.48.992,LearnStrategy,2023.2.3,Win32,7.490636704,9,1,10,-0.02734375,-0.00390625,1,0,0,4.8487,rock_grid_rect_2,4,15,-1,-1,4.849,-0.140625,-0.381510417,1,0,0,1.9258,Pegmatite_rect,6,1.926,0,9,0,9,0,1,,,,,,,,,,,,,
5a791168f49c9a0001f31061,TCN,2024-06-20_13h34.48.992,LearnStrategy,2023.2.3,Win32,7.490636704,9,1,11,-0.09375,-0.00390625,1,0,0,2.1826,rock_grid_rect_2,4,16,-1,-1,2.183,-0.139322917,-0.23046875,1,0,0,2.2671,Basalt_rect,2,2.267,0,10,0,10,0,1,,,,,,,,,,,,,
5a791168f49c9a0001f31061,TCN,2024-06-20_13h34.48.992,LearnStrategy,2023.2.3,Win32,7.490636704,9,1,12,-0.0078125,0.001302083,1,0,0,1.2668,rock_grid_rect_2,2,12,-1,-1,1.267,0.376302083,-0.411458333,1,0,0,1.9538,Pumice_rect,8,1.954,0,11,0,11,0,1,,,,,,,,,,,,,
5a791168f49c9a0001f31061,TCN,2024-06-20_13h34.48.992,LearnStrategy,2023.2.3,Win32,7.490636704,9,1,13,-0.0390625,0.013020833,1,0,0,4.16,rock_grid_rect_2,8,13,-1,-1,4.16,0.134114583,-0.390625,1,0,0,3.3455,Peridotite_rect,7,3.345,0,12,0,12,0,1,,,,,,,,,,,,,
5a791168f49c9a0001f31061,TCN,2024-06-20_13h34.48.992,LearnStrategy,2023.2.3,Win32,7.490636704,9,1,14,-0.040364583,-0.006510417,1,0,0,8.6257,rock_grid_rect_2,5,12,-1,-1,8.626,-0.424479167,-0.397135417,1,0,0,1.5112,Obsidian_rect,5,1.511,1,13,0,13,0,1,,,,,,,,,,,,,
5a791168f49c9a0001f31061,TCN,2024-06-20_13h34.48.992,LearnStrategy,2023.2.3,Win32,7.490636704,9,1,15,-0.052083333,-0.009114583,1,0,0,8.2996,rock_grid_rect_2,1,16,-1,-1,8.3,0.100260417,-0.24609375,1,0,0,2.0001,Diorite_rect,3,2,0,14,0,14,0,1,,,,,,,,,,,,,
5a791168f49c9a0001f31061,TCN,2024-06-20_13h34.48.992,LearnStrategy,2023.2.3,Win32,7.490636704,9,1,16,-0.059895833,0,1,0,0,3.3766,rock_grid_rect_2,1,09,-1,-1,3.377,-0.106770833,-0.3984375,1,0,0,5.0424,Pegmatite_rect,6,5.042,0,15,0,15,0,1,,,,,,,,,,,,,
5a791168f49c9a0001f31061,TCN,2024-06-20_13h34.48.992,LearnStrategy,2023.2.3,Win32,7.490636704,9,2,1,,,,,,,,3,13,,,,,,,,,,,2,9.984,0,,,,,,-0.16796875,-0.24609375,1,0,0,9.9843,Basalt_rect,0,0,0,0,1,
5a791168f49c9a0001f31061,TCN,2024-06-20_13h34.48.992,LearnStrategy,2023.2.3,Win32,7.490636704,9,2,2,,,,,,,,5,14,,,,,,,,,,,5,1.564,1,,,,,,-0.3984375,-0.395833333,1,0,0,1.564,Obsidian_rect,1,0,1,0,1,
5a791168f49c9a0001f31061,TCN,2024-06-20_13h34.48.992,LearnStrategy,2023.2.3,Win32,7.490636704,9,2,3,,,,,,,,3,07,,,,,,,,,,,7,2.555,0,,,,,,0.079427083,-0.388020833,1,0,0,2.5551,Peridotite_rect,2,0,2,0,1,
5a791168f49c9a0001f31061,TCN,2024-06-20_13h34.48.992,LearnStrategy,2023.2.3,Win32,7.490636704,9,2,4,,,,,,,,2,02,,,,,,,,,,,2,1.75,1,,,,,,-0.12109375,-0.255208333,1,0,0,1.7502,Basalt_rect,3,0,3,0,1,
5a791168f49c9a0001f31061,TCN,2024-06-20_13h34.48.992,LearnStrategy,2023.2.3,Win32,7.490636704,9,2,5,,,,,,,,6,16,,,,,,,,,,,6,2.736,1,,,,,,-0.171875,-0.388020833,1,0,0,2.736,Pegmatite_rect,4,0,4,0,1,
5a791168f49c9a0001f31061,TCN,2024-06-20_13h34.48.992,LearnStrategy,2023.2.3,Win32,7.490636704,9,2,6,,,,,,,,1,03,,,,,,,,,,,4,1.752,0,,,,,,0.315104167,-0.252604167,1,0,0,1.7524,Gabbro_rect,5,0,5,0,1,
5a791168f49c9a0001f31061,TCN,2024-06-20_13h34.48.992,LearnStrategy,2023.2.3,Win32,7.490636704,9,2,7,,,,,,,,5,04,,,,,,,,,,,5,2.528,1,,,,,,-0.3671875,-0.391927083,1,0,0,2.5276,Obsidian_rect,6,0,6,0,1,
5a791168f49c9a0001f31061,TCN,2024-06-20_13h34.48.992,LearnStrategy,2023.2.3,Win32,7.490636704,9,2,8,,,,,,,,4,09,,,,,,,,,,,2,3.446,0,,,,,,-0.061197917,-0.25390625,1,0,0,3.4463,Basalt_rect,7,0,7,0,1,
5a791168f49c9a0001f31061,TCN,2024-06-20_13h34.48.992,LearnStrategy,2023.2.3,Win32,7.490636704,9,2,9,,,,,,,,1,02,,,,,,,,,,,7,2.422,0,,,,,,0.12109375,-0.390625,1,0,0,2.4224,Peridotite_rect,8,0,8,0,1,
5a791168f49c9a0001f31061,TCN,2024-06-20_13h34.48.992,LearnStrategy,2023.2.3,Win32,7.490636704,9,2,10,,,,,,,,7,05,,,,,,,,,,,6,2.283,0,,,,,,-0.122395833,-0.395833333,1,0,0,2.2832,Pegmatite_rect,9,0,9,0,1,
5a791168f49c9a0001f31061,TCN,2024-06-20_13h34.48.992,LearnStrategy,2023.2.3,Win32,7.490636704,9,2,11,,,,,,,,8,15,,,,,,,,,,,8,2.494,1,,,,,,0.3515625,-0.391927083,1,0,0,2.4939,Pumice_rect,10,0,10,0,1,
5a791168f49c9a0001f31061,TCN,2024-06-20_13h34.48.992,LearnStrategy,2023.2.3,Win32,7.490636704,9,2,12,,,,,,,,2,06,,,,,,,,,,,2,2.295,1,,,,,,-0.200520833,-0.236979167,1,0,0,2.2948,Basalt_rect,11,0,11,0,1,
5a791168f49c9a0001f31061,TCN,2024-06-20_13h34.48.992,LearnStrategy,2023.2.3,Win32,7.490636704,9,2,13,,,,,,,,7,08,,,,,,,,,,,1,1.211,0,,,,,,-0.33984375,-0.234375,1,0,0,1.2108,Andesite_rect,12,0,12,0,1,
5a791168f49c9a0001f31061,TCN,2024-06-20_13h34.48.992,LearnStrategy,2023.2.3,Win32,7.490636704,9,2,14,,,,,,,,8,03,,,,,,,,,,,8,3.47,1,,,,,,0.346354167,-0.403645833,1,0,0,3.4703,Pumice_rect,13,0,13,0,1,
5a791168f49c9a0001f31061,TCN,2024-06-20_13h34.48.992,LearnStrategy,2023.2.3,Win32,7.490636704,9,2,15,,,,,,,,6,06,,,,,,,,,,,6,2.231,1,,,,,,-0.180989583,-0.380208333,1,0,0,2.2314,Pegmatite_rect,14,0,14,0,1,
5a791168f49c9a0001f31061,TCN,2024-06-20_13h34.48.992,LearnStrategy,2023.2.3,Win32,7.490636704,9,2,16,,,,,,,,4,10,,,,,,,,,,,2,1.958,0,,,,,,-0.100260417,-0.233072917,1,0,0,1.9579,Basalt_rect,15,0,15,0,1,
5a791168f49c9a0001f31061,TCN,2024-06-20_13h34.48.992,LearnStrategy,2023.2.3,Win32,7.490636704,,,,,,,,,,,,,,,,,,,,,,,,,,,,,,,,,,,,,,,,,,,0
5a791168f49c9a0001f31061,TCN,2024-06-20_13h34.48.992,LearnStrategy,2023.2.3,Win32,7.490636704,,,,,,,,,,,,,,,,,,,,,,,,,,,,,,,,,,,,,,,,,,,
5a791168f49c9a0001f31061,TCN,2024-06-20_13h34.48.992,LearnStrategy,2023.2.3,Win32,7.490636704,,,,,,,,,,,7,10,1,1,,,,,,,,,,,,,,,,,,,,,,,,,,,,,
5a791168f49c9a0001f31061,TCN,2024-06-20_13h34.48.992,LearnStrategy,2023.2.3,Win32,7.490636704,,,,,,,,,,,6,15,1,2,,,,,,,,,,,,,,,,,,,,,,,,,,,,,
5a791168f49c9a0001f31061,TCN,2024-06-20_13h34.48.992,LearnStrategy,2023.2.3,Win32,7.490636704,,,,,,,,,,,1,16,1,3,,,,,,,,,,,,,,,,,,,,,,,,,,,,,
5a791168f49c9a0001f31061,TCN,2024-06-20_13h34.48.992,LearnStrategy,2023.2.3,Win32,7.490636704,,,,,,,,,,,3,15,1,4,,,,,,,,,,,,,,,,,,,,,,,,,,,,,
5a791168f49c9a0001f31061,TCN,2024-06-20_13h34.48.992,LearnStrategy,2023.2.3,Win32,7.490636704,,,,,,,,,,,2,14,1,5,,,,,,,,,,,,,,,,,,,,,,,,,,,,,
5a791168f49c9a0001f31061,TCN,2024-06-20_13h34.48.992,LearnStrategy,2023.2.3,Win32,7.490636704,,,,,,,,,,,1,09,1,6,,,,,,,,,,,,,,,,,,,,,,,,,,,,,
5a791168f49c9a0001f31061,TCN,2024-06-20_13h34.48.992,LearnStrategy,2023.2.3,Win32,7.490636704,,,,,,,,,,,4,05,1,7,,,,,,,,,,,,,,,,,,,,,,,,,,,,,
5a791168f49c9a0001f31061,TCN,2024-06-20_13h34.48.992,LearnStrategy,2023.2.3,Win32,7.490636704,,,,,,,,,,,2,12,1,8,,,,,,,,,,,,,,,,,,,,,,,,,,,,,
5a791168f49c9a0001f31061,TCN,2024-06-20_13h34.48.992,LearnStrategy,2023.2.3,Win32,7.490636704,,,,,,,,,,,3,12,2,1,,,,,,,,,,,,,,,,,,,,,,,,,,,,,
5a791168f49c9a0001f31061,TCN,2024-06-20_13h34.48.992,LearnStrategy,2023.2.3,Win32,7.490636704,,,,,,,,,,,7,13,2,2,,,,,,,,,,,,,,,,,,,,,,,,,,,,,
5a791168f49c9a0001f31061,TCN,2024-06-20_13h34.48.992,LearnStrategy,2023.2.3,Win32,7.490636704,,,,,,,,,,,5,09,2,3,,,,,,,,,,,,,,,,,,,,,,,,,,,,,
5a791168f49c9a0001f31061,TCN,2024-06-20_13h34.48.992,LearnStrategy,2023.2.3,Win32,7.490636704,,,,,,,,,,,2,10,2,4,,,,,,,,,,,,,,,,,,,,,,,,,,,,,
5a791168f49c9a0001f31061,TCN,2024-06-20_13h34.48.992,LearnStrategy,2023.2.3,Win32,7.490636704,,,,,,,,,,,2,04,2,5,,,,,,,,,,,,,,,,,,,,,,,,,,,,,
5a791168f49c9a0001f31061,TCN,2024-06-20_13h34.48.992,LearnStrategy,2023.2.3,Win32,7.490636704,,,,,,,,,,,6,12,2,6,,,,,,,,,,,,,,,,,,,,,,,,,,,,,
5a791168f49c9a0001f31061,TCN,2024-06-20_13h34.48.992,LearnStrategy,2023.2.3,Win32,7.490636704,,,,,,,,,,,1,01,2,7,,,,,,,,,,,,,,,,,,,,,,,,,,,,,
5a791168f49c9a0001f31061,TCN,2024-06-20_13h34.48.992,LearnStrategy,2023.2.3,Win32,7.490636704,,,,,,,,,,,6,10,2,8,,,,,,,,,,,,,,,,,,,,,,,,,,,,,
5a791168f49c9a0001f31061,TCN,2024-06-20_13h34.48.992,LearnStrategy,2023.2.3,Win32,7.490636704,,,,,,,,,,,3,11,3,1,,,,,,,,,,,,,,,,,,,,,,,,,,,,,
5a791168f49c9a0001f31061,TCN,2024-06-20_13h34.48.992,LearnStrategy,2023.2.3,Win32,7.490636704,,,,,,,,,,,6,05,3,2,,,,,,,,,,,,,,,,,,,,,,,,,,,,,
5a791168f49c9a0001f31061,TCN,2024-06-20_13h34.48.992,LearnStrategy,2023.2.3,Win32,7.490636704,,,,,,,,,,,4,13,3,3,,,,,,,,,,,,,,,,,,,,,,,,,,,,,
5a791168f49c9a0001f31061,TCN,2024-06-20_13h34.48.992,LearnStrategy,2023.2.3,Win32,7.490636704,,,,,,,,,,,3,08,3,4,,,,,,,,,,,,,,,,,,,,,,,,,,,,,
5a791168f49c9a0001f31061,TCN,2024-06-20_13h34.48.992,LearnStrategy,2023.2.3,Win32,7.490636704,,,,,,,,,,,8,06,3,5,,,,,,,,,,,,,,,,,,,,,,,,,,,,,
5a791168f49c9a0001f31061,TCN,2024-06-20_13h34.48.992,LearnStrategy,2023.2.3,Win32,7.490636704,,,,,,,,,,,1,10,3,6,,,,,,,,,,,,,,,,,,,,,,,,,,,,,
5a791168f49c9a0001f31061,TCN,2024-06-20_13h34.48.992,LearnStrategy,2023.2.3,Win32,7.490636704,,,,,,,,,,,5,07,3,7,,,,,,,,,,,,,,,,,,,,,,,,,,,,,
5a791168f49c9a0001f31061,TCN,2024-06-20_13h34.48.992,LearnStrategy,2023.2.3,Win32,7.490636704,,,,,,,,,,,3,09,3,8,,,,,,,,,,,,,,,,,,,,,,,,,,,,,
5a791168f49c9a0001f31061,TCN,2024-06-20_13h34.48.992,LearnStrategy,2023.2.3,Win32,7.490636704,,,,,,,,,,,7,15,4,1,,,,,,,,,,,,,,,,,,,,,,,,,,,,,
5a791168f49c9a0001f31061,TCN,2024-06-20_13h34.48.992,LearnStrategy,2023.2.3,Win32,7.490636704,,,,,,,,,,,5,12,4,2,,,,,,,,,,,,,,,,,,,,,,,,,,,,,
5a791168f49c9a0001f31061,TCN,2024-06-20_13h34.48.992,LearnStrategy,2023.2.3,Win32,7.490636704,,,,,,,,,,,5,05,4,3,,,,,,,,,,,,,,,,,,,,,,,,,,,,,
5a791168f49c9a0001f31061,TCN,2024-06-20_13h34.48.992,LearnStrategy,2023.2.3,Win32,7.490636704,,,,,,,,,,,2,01,4,4,,,,,,,,,,,,,,,,,,,,,,,,,,,,,
5a791168f49c9a0001f31061,TCN,2024-06-20_13h34.48.992,LearnStrategy,2023.2.3,Win32,7.490636704,,,,,,,,,,,4,01,4,5,,,,,,,,,,,,,,,,,,,,,,,,,,,,,
5a791168f49c9a0001f31061,TCN,2024-06-20_13h34.48.992,LearnStrategy,2023.2.3,Win32,7.490636704,,,,,,,,,,,7,04,4,6,,,,,,,,,,,,,,,,,,,,,,,,,,,,,
5a791168f49c9a0001f31061,TCN,2024-06-20_13h34.48.992,LearnStrategy,2023.2.3,Win32,7.490636704,,,,,,,,,,,1,05,4,7,,,,,,,,,,,,,,,,,,,,,,,,,,,,,
5a791168f49c9a0001f31061,TCN,2024-06-20_13h34.48.992,LearnStrategy,2023.2.3,Win32,7.490636704,,,,,,,,,,,4,16,4,8,,,,,,,,,,,,,,,,,,,,,,,,,,,,,
5a791168f49c9a0001f31061,TCN,2024-06-20_13h34.48.992,LearnStrategy,2023.2.3,Win32,7.490636704,,,,,,,,,,,6,07,5,1,,,,,,,,,,,,,,,,,,,,,,,,,,,,,
5a791168f49c9a0001f31061,TCN,2024-06-20_13h34.48.992,LearnStrategy,2023.2.3,Win32,7.490636704,,,,,,,,,,,8,02,5,2,,,,,,,,,,,,,,,,,,,,,,,,,,,,,
5a791168f49c9a0001f31061,TCN,2024-06-20_13h34.48.992,LearnStrategy,2023.2.3,Win32,7.490636704,,,,,,,,,,,8,13,5,3,,,,,,,,,,,,,,,,,,,,,,,,,,,,,
5a791168f49c9a0001f31061,TCN,2024-06-20_13h34.48.992,LearnStrategy,2023.2.3,Win32,7.490636704,,,,,,,,,,,4,12,5,4,,,,,,,,,,,,,,,,,,,,,,,,,,,,,
5a791168f49c9a0001f31061,TCN,2024-06-20_13h34.48.992,LearnStrategy,2023.2.3,Win32,7.490636704,,,,,,,,,,,6,03,5,5,,,,,,,,,,,,,,,,,,,,,,,,,,,,,
5a791168f49c9a0001f31061,TCN,2024-06-20_13h34.48.992,LearnStrategy,2023.2.3,Win32,7.490636704,,,,,,,,,,,5,02,5,6,,,,,,,,,,,,,,,,,,,,,,,,,,,,,
5a791168f49c9a0001f31061,TCN,2024-06-20_13h34.48.992,LearnStrategy,2023.2.3,Win32,7.490636704,,,,,,,,,,,1,04,5,7,,,,,,,,,,,,,,,,,,,,,,,,,,,,,
5a791168f49c9a0001f31061,TCN,2024-06-20_13h34.48.992,LearnStrategy,2023.2.3,Win32,7.490636704,,,,,,,,,,,4,15,5,8,,,,,,,,,,,,,,,,,,,,,,,,,,,,,
5a791168f49c9a0001f31061,TCN,2024-06-20_13h34.48.992,LearnStrategy,2023.2.3,Win32,7.490636704,,,,,,,,,,,8,16,6,1,,,,,,,,,,,,,,,,,,,,,,,,,,,,,
5a791168f49c9a0001f31061,TCN,2024-06-20_13h34.48.992,LearnStrategy,2023.2.3,Win32,7.490636704,,,,,,,,,,,5,11,6,2,,,,,,,,,,,,,,,,,,,,,,,,,,,,,
5a791168f49c9a0001f31061,TCN,2024-06-20_13h34.48.992,LearnStrategy,2023.2.3,Win32,7.490636704,,,,,,,,,,,2,11,6,3,,,,,,,,,,,,,,,,,,,,,,,,,,,,,
5a791168f49c9a0001f31061,TCN,2024-06-20_13h34.48.992,LearnStrategy,2023.2.3,Win32,7.490636704,,,,,,,,,,,8,04,6,4,,,,,,,,,,,,,,,,,,,,,,,,,,,,,
5a791168f49c9a0001f31061,TCN,2024-06-20_13h34.48.992,LearnStrategy,2023.2.3,Win32,7.490636704,,,,,,,,,,,7,06,6,5,,,,,,,,,,,,,,,,,,,,,,,,,,,,,
5a791168f49c9a0001f31061,TCN,2024-06-20_13h34.48.992,LearnStrategy,2023.2.3,Win32,7.490636704,,,,,,,,,,,7,07,6,6,,,,,,,,,,,,,,,,,,,,,,,,,,,,,
5a791168f49c9a0001f31061,TCN,2024-06-20_13h34.48.992,LearnStrategy,2023.2.3,Win32,7.490636704,,,,,,,,,,,8,05,6,7,,,,,,,,,,,,,,,,,,,,,,,,,,,,,
5a791168f49c9a0001f31061,TCN,2024-06-20_13h34.48.992,LearnStrategy,2023.2.3,Win32,7.490636704,,,,,,,,,,,3,02,6,8,,,,,,,,,,,,,,,,,,,,,,,,,,,,,