participant,condition,date,expName,psychopyVersion,OS,frameRate,block,phase,trial,learn_mouse_2.x,learn_mouse_2.y,learn_mouse_2.leftButton,learn_mouse_2.midButton,learn_mouse_2.rightButton,learn_mouse_2.time,learn_mouse_2.clicked_name,cat,token,row,col,t_select,cat_mouse_l.x,cat_mouse_l.y,cat_mouse_l.leftButton,cat_mouse_l.midButton,cat_mouse_l.rightButton,cat_mouse_l.time,cat_mouse_l.clicked_name,resp,t_resp,corr,train_trials.thisRepN,train_trials.thisTrialN,train_trials.thisN,train_trials.thisIndex,train_trials.ran,cat_mouse_t.x,cat_mouse_t.y,cat_mouse_t.leftButton,cat_mouse_t.midButton,cat_mouse_t.rightButton,cat_mouse_t.time,cat_mouse_t.clicked_name,test_trials.thisRepN,test_trials.thisTrialN,test_trials.thisN,test_trials.thisIndex,test_trials.ran,Bonus
5ac16e870527ba0001c1f27e,TCN,2024-06-11_12h46.31.732,LearnStrategy,2023.2.3,Win32,59.88023952,,,,,,,,,,,,,,,,,,,,,,,,,,,,,,,,,,,,,,,,,,,
5ac16e870527ba0001c1f27e,TCN,2024-06-11_12h46.31.732,LearnStrategy,2023.2.3,Win32,59.88023952,1,1,1,-0.067592593,0.001851852,1,0,0,5.1265,rock_grid_rect_2,3,10,-1,-1,5.126,-0.153703704,-0.262962963,1,0,0,5.6902,Basalt_rect,2,5.69,0,0,0,0,0,1,,,,,,,,,,,,,
5ac16e870527ba0001c1f27e,TCN,2024-06-11_12h46.31.732,LearnStrategy,2023.2.3,Win32,59.88023952,1,1,2,-0.102777778,0.007407407,1,0,0,1.7302,rock_grid_rect_2,7,13,-1,-1,1.73,0.371296296,-0.255555556,1,0,0,6.8288,Gabbro_rect,4,6.829,0,1,0,1,0,1,,,,,,,,,,,,,
5ac16e870527ba0001c1f27e,TCN,2024-06-11_12h46.31.732,LearnStrategy,2023.2.3,Win32,59.88023952,1,1,3,0.065740741,-0.000925926,1,0,0,1.2655,rock_grid_rect_2,6,12,-1,-1,1.266,-0.073148148,-0.237037037,1,0,0,3.6792,Basalt_rect,2,3.679,0,2,0,2,0,1,,,,,,,,,,,,,
5ac16e870527ba0001c1f27e,TCN,2024-06-11_12h46.31.732,LearnStrategy,2023.2.3,Win32,59.88023952,1,1,4,-0.002777778,-0.011111111,1,0,0,1.1155,rock_grid_rect_2,6,08,-1,-1,1.115,-0.414814815,-0.410185185,1,0,0,2.5638,Obsidian_rect,5,2.564,0,3,0,3,0,1,,,,,,,,,,,,,
5ac16e870527ba0001c1f27e,TCN,2024-06-11_12h46.31.732,LearnStrategy,2023.2.3,Win32,59.88023952,1,1,5,-0.059259259,0,1,0,0,2.049,rock_grid_rect_2,8,13,-1,-1,2.049,-0.332407407,-0.237962963,1,0,0,2.18,Andesite_rect,1,2.18,0,4,0,4,0,1,,,,,,,,,,,,,
5ac16e870527ba0001c1f27e,TCN,2024-06-11_12h46.31.732,LearnStrategy,2023.2.3,Win32,59.88023952,1,1,6,-0.060185185,-0.014814815,1,0,0,1.1828,rock_grid_rect_2,1,09,-1,-1,1.183,-0.361111111,-0.411111111,1,0,0,3.8532,Obsidian_rect,5,3.853,0,5,0,5,0,1,,,,,,,,,,,,,
5ac16e870527ba0001c1f27e,TCN,2024-06-11_12h46.31.732,LearnStrategy,2023.2.3,Win32,59.88023952,1,1,7,-0.00462963,-0.015740741,1,0,0,1.2313,rock_grid_rect_2,4,05,-1,-1,1.231,-0.335185185,-0.392592593,1,0,0,1.5467,Obsidian_rect,5,1.547,0,6,0,6,0,1,,,,,,,,,,,,,
5ac16e870527ba0001c1f27e,TCN,2024-06-11_12h46.31.732,LearnStrategy,2023.2.3,Win32,59.88023952,1,1,8,-0.037962963,0.000925926,1,0,0,1.1234,rock_grid_rect_2,7,02,-1,-1,1.123,-0.131481481,-0.415740741,1,0,0,4.4475,Pegmatite_rect,6,4.447,0,7,0,7,0,1,,,,,,,,,,,,,
5ac16e870527ba0001c1f27e,TCN,2024-06-11_12h46.31.732,LearnStrategy,2023.2.3,Win32,59.88023952,1,1,9,-0.027777778,0.001851852,1,0,0,1.0724,rock_grid_rect_2,5,14,-1,-1,1.072,-0.337962963,-0.385185185,1,0,0,1.463,Obsidian_rect,5,1.463,1,8,0,8,0,1,,,,,,,,,,,,,
5ac16e870527ba0001c1f27e,TCN,2024-06-11_12h46.31.732,LearnStrategy,2023.2.3,Win32,59.88023952,1,1,10,-0.012037037,0.00462963,1,0,0,0.9699,rock_grid_rect_2,4,01,-1,-1,0.97,0.123148148,-0.247222222,1,0,0,2.1131,Diorite_rect,3,2.113,0,9,0,9,0,1,,,,,,,,,,,,,
5ac16e870527ba0001c1f27e,TCN,2024-06-11_12h46.31.732,LearnStrategy,2023.2.3,Win32,59.88023952,1,1,11,0.000925926,-0.001851852,1,0,0,1.0383,rock_grid_rect_2,2,04,-1,-1,1.038,-0.334259259,-0.386111111,1,0,0,2.5813,Obsidian_rect,5,2.581,0,10,0,10,0,1,,,,,,,,,,,,,
5ac16e870527ba0001c1f27e,TCN,2024-06-11_12h46.31.732,LearnStrategy,2023.2.3,Win32,59.88023952,1,1,12,0.000925926,-0.000925926,1,0,0,1.118,rock_grid_rect_2,8,08,-1,-1,1.118,0.098148148,-0.42037037,1,0,0,5.2158,Peridotite_rect,7,5.216,0,11,0,11,0,1,,,,,,,,,,,,,
5ac16e870527ba0001c1f27e,TCN,2024-06-11_12h46.31.732,LearnStrategy,2023.2.3,Win32,59.88023952,1,1,13,0.043518519,0.016666667,1,0,0,1.6609,rock_grid_rect_2,2,10,-1,-1,1.661,-0.130555556,-0.253703704,1,0,0,3.1007,Basalt_rect,2,3.101,1,12,0,12,0,1,,,,,,,,,,,,,
5ac16e870527ba0001c1f27e,TCN,2024-06-11_12h46.31.732,LearnStrategy,2023.2.3,Win32,59.88023952,1,1,14,-0.027777778,0.001851852,1,0,0,0.8296,rock_grid_rect_2,5,12,-1,-1,0.83,-0.4,-0.412037037,1,0,0,2.6178,Obsidian_rect,5,2.618,1,13,0,13,0,1,,,,,,,,,,,,,
5ac16e870527ba0001c1f27e,TCN,2024-06-11_12h46.31.732,LearnStrategy,2023.2.3,Win32,59.88023952,1,1,15,-0.038888889,-0.008333333,1,0,0,0.8896,rock_grid_rect_2,1,11,-1,-1,0.89,0.131481481,-0.251851852,1,0,0,3.1284,Diorite_rect,3,3.128,0,14,0,14,0,1,,,,,,,,,,,,,
5ac16e870527ba0001c1f27e,TCN,2024-06-11_12h46.31.732,LearnStrategy,2023.2.3,Win32,59.88023952,1,1,16,-0.006481481,0.00462963,1,0,0,0.9047,rock_grid_rect_2,3,11,-1,-1,0.905,0.130555556,-0.252777778,1,0,0,3.3302,Diorite_rect,3,3.33,1,15,0,15,0,1,,,,,,,,,,,,,
5ac16e870527ba0001c1f27e,TCN,2024-06-11_12h46.31.732,LearnStrategy,2023.2.3,Win32,59.88023952,1,2,1,,,,,,,,5,06,,,,,,,,,,,5,5.569,1,,,,,,-0.357407407,-0.397222222,1,0,0,5.5692,Obsidian_rect,0,0,0,0,1,
5ac16e870527ba0001c1f27e,TCN,2024-06-11_12h46.31.732,LearnStrategy,2023.2.3,Win32,59.88023952,1,2,2,,,,,,,,4,13,,,,,,,,,,,2,3.202,0,,,,,,-0.085185185,-0.239814815,1,0,0,3.2024,Basalt_rect,1,0,1,0,1,
5ac16e870527ba0001c1f27e,TCN,2024-06-11_12h46.31.732,LearnStrategy,2023.2.3,Win32,59.88023952,1,2,3,,,,,,,,3,12,,,,,,,,,,,3,1.386,1,,,,,,0.161111111,-0.241666667,1,0,0,1.3863,Diorite_rect,2,0,2,0,1,
5ac16e870527ba0001c1f27e,TCN,2024-06-11_12h46.31.732,LearnStrategy,2023.2.3,Win32,59.88023952,1,2,4,,,,,,,,5,16,,,,,,,,,,,5,1.202,1,,,,,,-0.352777778,-0.388888889,1,0,0,1.2023,Obsidian_rect,3,0,3,0,1,
5ac16e870527ba0001c1f27e,TCN,2024-06-11_12h46.31.732,LearnStrategy,2023.2.3,Win32,59.88023952,1,2,5,,,,,,,,4,09,,,,,,,,,,,2,2.251,0,,,,,,-0.162962963,-0.248148148,1,0,0,2.2507,Basalt_rect,4,0,4,0,1,
5ac16e870527ba0001c1f27e,TCN,2024-06-11_12h46.31.732,LearnStrategy,2023.2.3,Win32,59.88023952,1,2,6,,,,,,,,6,15,,,,,,,,,,,7,3.715,0,,,,,,0.073148148,-0.399074074,1,0,0,3.7147,Peridotite_rect,5,0,5,0,1,
5ac16e870527ba0001c1f27e,TCN,2024-06-11_12h46.31.732,LearnStrategy,2023.2.3,Win32,59.88023952,1,2,7,,,,,,,,8,02,,,,,,,,,,,8,2.969,1,,,,,,0.336111111,-0.391666667,1,0,0,2.9686,Pumice_rect,6,0,6,0,1,
5ac16e870527ba0001c1f27e,TCN,2024-06-11_12h46.31.732,LearnStrategy,2023.2.3,Win32,59.88023952,1,2,8,,,,,,,,1,05,,,,,,,,,,,6,2.783,0,,,,,,-0.138888889,-0.400925926,1,0,0,2.7825,Pegmatite_rect,7,0,7,0,1,
5ac16e870527ba0001c1f27e,TCN,2024-06-11_12h46.31.732,LearnStrategy,2023.2.3,Win32,59.88023952,1,2,9,,,,,,,,6,13,,,,,,,,,,,8,6.19,0,,,,,,0.358333333,-0.392592593,1,0,0,6.1905,Pumice_rect,8,0,8,0,1,
5ac16e870527ba0001c1f27e,TCN,2024-06-11_12h46.31.732,LearnStrategy,2023.2.3,Win32,59.88023952,1,2,10,,,,,,,,8,15,,,,,,,,,,,8,1.252,1,,,,,,0.357407407,-0.396296296,1,0,0,1.2522,Pumice_rect,9,0,9,0,1,
5ac16e870527ba0001c1f27e,TCN,2024-06-11_12h46.31.732,LearnStrategy,2023.2.3,Win32,59.88023952,1,2,11,,,,,,,,2,11,,,,,,,,,,,1,4.45,0,,,,,,-0.372222222,-0.246296296,1,0,0,4.4505,Andesite_rect,10,0,10,0,1,
5ac16e870527ba0001c1f27e,TCN,2024-06-11_12h46.31.732,LearnStrategy,2023.2.3,Win32,59.88023952,1,2,12,,,,,,,,7,12,,,,,,,,,,,3,1.616,0,,,,,,0.125925926,-0.253703704,1,0,0,1.616,Diorite_rect,11,0,11,0,1,
5ac16e870527ba0001c1f27e,TCN,2024-06-11_12h46.31.732,LearnStrategy,2023.2.3,Win32,59.88023952,1,2,13,,,,,,,,7,05,,,,,,,,,,,3,1.62,0,,,,,,0.107407407,-0.242592593,1,0,0,1.6197,Diorite_rect,12,0,12,0,1,
5ac16e870527ba0001c1f27e,TCN,2024-06-11_12h46.31.732,LearnStrategy,2023.2.3,Win32,59.88023952,1,2,14,,,,,,,,3,06,,,,,,,,,,,4,2.72,0,,,,,,0.371296296,-0.242592593,1,0,0,2.7204,Gabbro_rect,13,0,13,0,1,
5ac16e870527ba0001c1f27e,TCN,2024-06-11_12h46.31.732,LearnStrategy,2023.2.3,Win32,59.88023952,1,2,15,,,,,,,,1,07,,,,,,,,,,,7,3.136,0,,,,,,0.091666667,-0.387962963,1,0,0,3.1358,Peridotite_rect,14,0,14,0,1,
5ac16e870527ba0001c1f27e,TCN,2024-06-11_12h46.31.732,LearnStrategy,2023.2.3,Win32,59.88023952,1,2,16,,,,,,,,2,08,,,,,,,,,,,5,1.285,0,,,,,,-0.351851852,-0.385185185,1,0,0,1.2852,Obsidian_rect,15,0,15,0,1,
5ac16e870527ba0001c1f27e,TCN,2024-06-11_12h46.31.732,LearnStrategy,2023.2.3,Win32,59.88023952,2,1,1,-0.04537037,-0.003703704,1,0,0,1.3992,rock_grid_rect_2,5,10,-1,-1,1.399,-0.084259259,-0.25462963,1,0,0,5.9054,Basalt_rect,2,5.905,0,0,0,0,0,1,,,,,,,,,,,,,
5ac16e870527ba0001c1f27e,TCN,2024-06-11_12h46.31.732,LearnStrategy,2023.2.3,Win32,59.88023952,2,1,2,-0.015740741,-0.012037037,1,0,0,1.1267,rock_grid_rect_2,2,09,-1,-1,1.127,-0.093518519,-0.242592593,1,0,0,1.9693,Basalt_rect,2,1.969,1,1,0,1,0,1,,,,,,,,,,,,,
5ac16e870527ba0001c1f27e,TCN,2024-06-11_12h46.31.732,LearnStrategy,2023.2.3,Win32,59.88023952,2,1,3,0.001851852,-0.006481481,1,0,0,1.0022,rock_grid_rect_2,3,02,-1,-1,1.002,0.086111111,-0.387962963,1,0,0,3.5415,Peridotite_rect,7,3.541,0,2,0,2,0,1,,,,,,,,,,,,,
5ac16e870527ba0001c1f27e,TCN,2024-06-11_12h46.31.732,LearnStrategy,2023.2.3,Win32,59.88023952,2,1,4,0.030555556,-0.000925926,1,0,0,1.2443,rock_grid_rect_2,8,05,-1,-1,1.244,0.373148148,-0.384259259,1,0,0,3.2694,Pumice_rect,8,3.269,1,3,0,3,0,1,,,,,,,,,,,,,
5ac16e870527ba0001c1f27e,TCN,2024-06-11_12h46.31.732,LearnStrategy,2023.2.3,Win32,59.88023952,2,1,5,0.105555556,-0.010185185,1,0,0,1.0206,rock_grid_rect_2,8,04,-1,-1,1.021,-0.366666667,-0.240740741,1,0,0,2.8961,Andesite_rect,1,2.896,0,4,0,4,0,1,,,,,,,,,,,,,
5ac16e870527ba0001c1f27e,TCN,2024-06-11_12h46.31.732,LearnStrategy,2023.2.3,Win32,59.88023952,2,1,6,0.028703704,0.011111111,1,0,0,1.0488,rock_grid_rect_2,1,02,-1,-1,1.049,0.314814815,-0.251851852,1,0,0,2.6377,Gabbro_rect,4,2.638,0,5,0,5,0,1,,,,,,,,,,,,,
5ac16e870527ba0001c1f27e,TCN,2024-06-11_12h46.31.732,LearnStrategy,2023.2.3,Win32,59.88023952,2,1,7,0.00462963,0.003703704,1,0,0,1.0356,rock_grid_rect_2,4,08,-1,-1,1.036,-0.056481481,-0.247222222,1,0,0,1.8972,Basalt_rect,2,1.897,0,6,0,6,0,1,,,,,,,,,,,,,
5ac16e870527ba0001c1f27e,TCN,2024-06-11_12h46.31.732,LearnStrategy,2023.2.3,Win32,59.88023952,2,1,8,-0.021296296,-0.006481481,1,0,0,0.9489,rock_grid_rect_2,7,08,-1,-1,0.949,0.107407407,-0.231481481,1,0,0,1.5194,Diorite_rect,3,1.519,0,7,0,7,0,1,,,,,,,,,,,,,
5ac16e870527ba0001c1f27e,TCN,2024-06-11_12h46.31.732,LearnStrategy,2023.2.3,Win32,59.88023952,2,1,9,-0.010185185,-0.017592593,1,0,0,0.8896,rock_grid_rect_2,7,06,-1,-1,0.89,0.091666667,-0.383333333,1,0,0,1.1453,Peridotite_rect,7,1.145,1,8,0,8,0,1,,,,,,,,,,,,,
5ac16e870527ba0001c1f27e,TCN,2024-06-11_12h46.31.732,LearnStrategy,2023.2.3,Win32,59.88023952,2,1,10,-0.011111111,-0.006481481,1,0,0,0.8202,rock_grid_rect_2,6,05,-1,-1,0.82,-0.347222222,-0.397222222,1,0,0,2.1632,Obsidian_rect,5,2.163,0,9,0,9,0,1,,,,,,,,,,,,,
5ac16e870527ba0001c1f27e,TCN,2024-06-11_12h46.31.732,LearnStrategy,2023.2.3,Win32,59.88023952,2,1,11,-0.002777778,-0.012962963,1,0,0,0.9655,rock_grid_rect_2,1,06,-1,-1,0.965,-0.12037037,-0.242592593,1,0,0,1.7028,Basalt_rect,2,1.703,0,10,0,10,0,1,,,,,,,,,,,,,
5ac16e870527ba0001c1f27e,TCN,2024-06-11_12h46.31.732,LearnStrategy,2023.2.3,Win32,59.88023952,2,1,12,-0.007407407,-0.007407407,1,0,0,0.8686,rock_grid_rect_2,6,16,-1,-1,0.869,0.076851852,-0.406481481,1,0,0,2.981,Peridotite_rect,7,2.981,0,11,0,11,0,1,,,,,,,,,,,,,
5ac16e870527ba0001c1f27e,TCN,2024-06-11_12h46.31.732,LearnStrategy,2023.2.3,Win32,59.88023952,2,1,13,0.019444444,0.006481481,1,0,0,0.851,rock_grid_rect_2,5,04,-1,-1,0.851,-0.383333333,-0.399074074,1,0,0,1.8799,Obsidian_rect,5,1.88,1,12,0,12,0,1,,,,,,,,,,,,,
5ac16e870527ba0001c1f27e,TCN,2024-06-11_12h46.31.732,LearnStrategy,2023.2.3,Win32,59.88023952,2,1,14,0.025925926,-0.000925926,1,0,0,0.8214,rock_grid_rect_2,2,12,-1,-1,0.821,-0.412962963,-0.249074074,1,0,0,3.3259,Andesite_rect,1,3.326,0,13,0,13,0,1,,,,,,,,,,,,,
5ac16e870527ba0001c1f27e,TCN,2024-06-11_12h46.31.732,LearnStrategy,2023.2.3,Win32,59.88023952,2,1,15,-0.02962963,-0.00462963,1,0,0,0.8037,rock_grid_rect_2,4,14,-1,-1,0.804,-0.405555556,-0.238888889,1,0,0,2.7464,Andesite_rect,1,2.746,0,14,0,14,0,1,,,,,,,,,,,,,
5ac16e870527ba0001c1f27e,TCN,2024-06-11_12h46.31.732,LearnStrategy,2023.2.3,Win32,59.88023952,2,1,16,-0.019444444,0.008333333,1,0,0,0.7521,rock_grid_rect_2,3,15,-1,-1,0.752,0.360185185,-0.402777778,1,0,0,3.0357,Pumice_rect,8,3.036,0,15,0,15,0,1,,,,,,,,,,,,,
5ac16e870527ba0001c1f27e,TCN,2024-06-11_12h46.31.732,LearnStrategy,2023.2.3,Win32,59.88023952,2,2,1,,,,,,,,1,03,,,,,,,,,,,1,6.235,1,,,,,,-0.351851852,-0.239814815,1,0,0,6.2354,Andesite_rect,0,0,0,0,1,
5ac16e870527ba0001c1f27e,TCN,2024-06-11_12h46.31.732,LearnStrategy,2023.2.3,Win32,59.88023952,2,2,2,,,,,,,,4,10,,,,,,,,,,,2,1.947,0,,,,,,-0.105555556,-0.243518519,1,0,0,1.9475,Basalt_rect,1,0,1,0,1,
5ac16e870527ba0001c1f27e,TCN,2024-06-11_12h46.31.732,LearnStrategy,2023.2.3,Win32,59.88023952,2,2,3,,,,,,,,5,08,,,,,,,,,,,5,1.119,1,,,,,,-0.351851852,-0.388888889,1,0,0,1.119,Obsidian_rect,2,0,2,0,1,
5ac16e870527ba0001c1f27e,TCN,2024-06-11_12h46.31.732,LearnStrategy,2023.2.3,Win32,59.88023952,2,2,4,,,,,,,,5,09,,,,,,,,,,,5,1.102,1,,,,,,-0.362037037,-0.401851852,1,0,0,1.1022,Obsidian_rect,3,0,3,0,1,
5ac16e870527ba0001c1f27e,TCN,2024-06-11_12h46.31.732,LearnStrategy,2023.2.3,Win32,59.88023952,2,2,5,,,,,,,,3,14,,,,,,,,,,,6,3.683,0,,,,,,-0.065740741,-0.400925926,1,0,0,3.6833,Pegmatite_rect,4,0,4,0,1,
5ac16e870527ba0001c1f27e,TCN,2024-06-11_12h46.31.732,LearnStrategy,2023.2.3,Win32,59.88023952,2,2,6,,,,,,,,6,09,,,,,,,,,,,7,4.769,0,,,,,,0.175925926,-0.386111111,1,0,0,4.7693,Peridotite_rect,5,0,5,0,1,
5ac16e870527ba0001c1f27e,TCN,2024-06-11_12h46.31.732,LearnStrategy,2023.2.3,Win32,59.88023952,2,2,7,,,,,,,,4,12,,,,,,,,,,,6,3.352,0,,,,,,-0.059259259,-0.389814815,1,0,0,3.3522,Pegmatite_rect,6,0,6,0,1,
5ac16e870527ba0001c1f27e,TCN,2024-06-11_12h46.31.732,LearnStrategy,2023.2.3,Win32,59.88023952,2,2,8,,,,,,,,1,16,,,,,,,,,,,4,2.301,0,,,,,,0.32037037,-0.244444444,1,0,0,2.3013,Gabbro_rect,7,0,7,0,1,
5ac16e870527ba0001c1f27e,TCN,2024-06-11_12h46.31.732,LearnStrategy,2023.2.3,Win32,59.88023952,2,2,9,,,,,,,,6,07,,,,,,,,,,,3,1.89,0,,,,,,0.135185185,-0.252777778,1,0,0,1.8902,Diorite_rect,8,0,8,0,1,
5ac16e870527ba0001c1f27e,TCN,2024-06-11_12h46.31.732,LearnStrategy,2023.2.3,Win32,59.88023952,2,2,10,,,,,,,,2,05,,,,,,,,,,,2,2.794,1,,,,,,-0.097222222,-0.257407407,1,0,0,2.7944,Basalt_rect,9,0,9,0,1,
5ac16e870527ba0001c1f27e,TCN,2024-06-11_12h46.31.732,LearnStrategy,2023.2.3,Win32,59.88023952,2,2,11,,,,,,,,2,16,,,,,,,,,,,8,1.815,0,,,,,,0.406481481,-0.37962963,1,0,0,1.8153,Pumice_rect,10,0,10,0,1,
5ac16e870527ba0001c1f27e,TCN,2024-06-11_12h46.31.732,LearnStrategy,2023.2.3,Win32,59.88023952,2,2,12,,,,,,,,8,10,,,,,,,,,,,1,2.653,0,,,,,,-0.311111111,-0.263888889,1,0,0,2.6532,Andesite_rect,11,0,11,0,1,
5ac16e870527ba0001c1f27e,TCN,2024-06-11_12h46.31.732,LearnStrategy,2023.2.3,Win32,59.88023952,2,2,13,,,,,,,,8,03,,,,,,,,,,,8,1.466,1,,,,,,0.375925926,-0.39537037,1,0,0,1.4656,Pumice_rect,12,0,12,0,1,
5ac16e870527ba0001c1f27e,TCN,2024-06-11_12h46.31.732,LearnStrategy,2023.2.3,Win32,59.88023952,2,2,14,,,,,,,,3,16,,,,,,,,,,,6,2.616,0,,,,,,-0.053703704,-0.411111111,1,0,0,2.6156,Pegmatite_rect,13,0,13,0,1,
5ac16e870527ba0001c1f27e,TCN,2024-06-11_12h46.31.732,LearnStrategy,2023.2.3,Win32,59.88023952,2,2,15,,,,,,,,7,14,,,,,,,,,,,7,3.566,1,,,,,,0.099074074,-0.406481481,1,0,0,3.5663,Peridotite_rect,14,0,14,0,1,
5ac16e870527ba0001c1f27e,TCN,2024-06-11_12h46.31.732,LearnStrategy,2023.2.3,Win32,59.88023952,2,2,16,,,,,,,,7,07,,,,,,,,,,,3,1.312,0,,,,,,0.105555556,-0.247222222,1,0,0,1.3123,Diorite_rect,15,0,15,0,1,
5ac16e870527ba0001c1f27e,TCN,2024-06-11_12h46.31.732,LearnStrategy,2023.2.3,Win32,59.88023952,3,1,1,0.109259259,-0.001851852,1,0,0,1.3247,rock_grid_rect_2,4,03,-1,-1,1.325,0.099074074,-0.400925926,1,0,0,2.9112,Peridotite_rect,7,2.911,0,0,0,0,0,1,,,,,,,,,,,,,
5ac16e870527ba0001c1f27e,TCN,2024-06-11_12h46.31.732,LearnStrategy,2023.2.3,Win32,59.88023952,3,1,2,0.00462963,-0.009259259,1,0,0,1.0217,rock_grid_rect_2,2,14,-1,-1,1.022,0.325,-0.411111111,1,0,0,3.3976,Pumice_rect,8,3.398,0,1,0,1,0,1,,,,,,,,,,,,,
5ac16e870527ba0001c1f27e,TCN,2024-06-11_12h46.31.732,LearnStrategy,2023.2.3,Win32,59.88023952,3,1,3,0.012037037,0.002777778,1,0,0,0.9008,rock_grid_rect_2,1,14,-1,-1,0.901,-0.415740741,-0.255555556,1,0,0,2.9624,Andesite_rect,1,2.962,1,2,0,2,0,1,,,,,,,,,,,,,
5ac16e870527ba0001c1f27e,TCN,2024-06-11_12h46.31.732,LearnStrategy,2023.2.3,Win32,59.88023952,3,1,4,-0.017592593,-0.009259259,1,0,0,0.9155,rock_grid_rect_2,1,04,-1,-1,0.916,-0.112037037,-0.390740741,1,0,0,1.753,Pegmatite_rect,6,1.753,0,3,0,3,0,1,,,,,,,,,,,,,
5ac16e870527ba0001c1f27e,TCN,2024-06-11_12h46.31.732,LearnStrategy,2023.2.3,Win32,59.88023952,3,1,5,-0.031481481,-0.005555556,1,0,0,0.8894,rock_grid_rect_2,5,11,-1,-1,0.889,-0.366666667,-0.397222222,1,0,0,1.6297,Obsidian_rect,5,1.63,1,4,0,4,0,1,,,,,,,,,,,,,
5ac16e870527ba0001c1f27e,TCN,2024-06-11_12h46.31.732,LearnStrategy,2023.2.3,Win32,59.88023952,3,1,6,-0.015740741,-0.008333333,1,0,0,0.9625,rock_grid_rect_2,2,06,-1,-1,0.962,-0.14537037,-0.267592593,1,0,0,2.1034,Basalt_rect,2,2.103,1,5,0,5,0,1,,,,,,,,,,,,,
5ac16e870527ba0001c1f27e,TCN,2024-06-11_12h46.31.732,LearnStrategy,2023.2.3,Win32,59.88023952,3,1,7,0.000925926,0.003703704,1,0,0,0.8685,rock_grid_rect_2,3,07,-1,-1,0.869,-0.139814815,-0.394444444,1,0,0,2.8633,Pegmatite_rect,6,2.863,0,6,0,6,0,1,,,,,,,,,,,,,
5ac16e870527ba0001c1f27e,TCN,2024-06-11_12h46.31.732,LearnStrategy,2023.2.3,Win32,59.88023952,3,1,8,0.015740741,0.002777778,1,0,0,0.873,rock_grid_rect_2,3,08,-1,-1,0.873,0.074074074,-0.251851852,1,0,0,1.4296,Diorite_rect,3,1.43,1,7,0,7,0,1,,,,,,,,,,,,,
5ac16e870527ba0001c1f27e,TCN,2024-06-11_12h46.31.732,LearnStrategy,2023.2.3,Win32,59.88023952,3,1,9,0.003703704,-0.000925926,1,0,0,1.0167,rock_grid_rect_2,8,16,-1,-1,1.017,0.357407407,-0.402777778,1,0,0,1.6496,Pumice_rect,8,1.65,1,8,0,8,0,1,,,,,,,,,,,,,
5ac16e870527ba0001c1f27e,TCN,2024-06-11_12h46.31.732,LearnStrategy,2023.2.3,Win32,59.88023952,3,1,10,0.006481481,0,1,0,0,0.8331,rock_grid_rect_2,8,06,-1,-1,0.833,0.359259259,-0.414814815,1,0,0,1.6312,Pumice_rect,8,1.631,1,9,0,9,0,1,,,,,,,,,,,,,
5ac16e870527ba0001c1f27e,TCN,2024-06-11_12h46.31.732,LearnStrategy,2023.2.3,Win32,59.88023952,3,1,11,0.008333333,-0.003703704,1,0,0,0.783,rock_grid_rect_2,7,10,-1,-1,0.783,-0.087037037,-0.405555556,1,0,0,2.0447,Pegmatite_rect,6,2.045,0,10,0,10,0,1,,,,,,,,,,,,,
5ac16e870527ba0001c1f27e,TCN,2024-06-11_12h46.31.732,LearnStrategy,2023.2.3,Win32,59.88023952,3,1,12,0.015740741,0,1,0,0,0.824,rock_grid_rect_2,5,05,-1,-1,0.824,-0.353703704,-0.387037037,1,0,0,5.0041,Obsidian_rect,5,5.004,1,11,0,11,0,1,,,,,,,,,,,,,
5ac16e870527ba0001c1f27e,TCN,2024-06-11_12h46.31.732,LearnStrategy,2023.2.3,Win32,59.88023952,3,1,13,0.049074074,0.005555556,1,0,0,3.7818,rock_grid_rect_2,6,06,-1,-1,3.782,-0.085185185,-0.402777778,1,0,0,2.2114,Pegmatite_rect,6,2.211,1,12,0,12,0,1,,,,,,,,,,,,,
5ac16e870527ba0001c1f27e,TCN,2024-06-11_12h46.31.732,LearnStrategy,2023.2.3,Win32,59.88023952,3,1,14,0.076851852,0.012962963,1,0,0,1.1821,rock_grid_rect_2,6,10,-1,-1,1.182,0.090740741,-0.261111111,1,0,0,1.8457,Diorite_rect,3,1.846,0,13,0,13,0,1,,,,,,,,,,,,,
5ac16e870527ba0001c1f27e,TCN,2024-06-11_12h46.31.732,LearnStrategy,2023.2.3,Win32,59.88023952,3,1,15,0.046296296,0.023148148,1,0,0,0.8611,rock_grid_rect_2,7,15,-1,-1,0.861,0.091666667,-0.240740741,1,0,0,1.8956,Diorite_rect,3,1.896,0,14,0,14,0,1,,,,,,,,,,,,,
5ac16e870527ba0001c1f27e,TCN,2024-06-11_12h46.31.732,LearnStrategy,2023.2.3,Win32,59.88023952,3,1,16,-0.015740741,-0.005555556,1,0,0,0.988,rock_grid_rect_2,4,16,-1,-1,0.988,-0.098148148,-0.264814815,1,0,0,1.6281,Basalt_rect,2,1.628,0,15,0,15,0,1,,,,,,,,,,,,,
5ac16e870527ba0001c1f27e,TCN,2024-06-11_12h46.31.732,LearnStrategy,2023.2.3,Win32,59.88023952,3,2,1,,,,,,,,5,07,,,,,,,,,,,4,3.15,0,,,,,,0.330555556,-0.233333333,1,0,0,3.1497,Gabbro_rect,0,0,0,0,1,
5ac16e870527ba0001c1f27e,TCN,2024-06-11_12h46.31.732,LearnStrategy,2023.2.3,Win32,59.88023952,3,2,2,,,,,,,,2,02,,,,,,,,,,,2,2.352,1,,,,,,-0.113888889,-0.257407407,1,0,0,2.352,Basalt_rect,1,0,1,0,1,
5ac16e870527ba0001c1f27e,TCN,2024-06-11_12h46.31.732,LearnStrategy,2023.2.3,Win32,59.88023952,3,2,3,,,,,,,,7,16,,,,,,,,,,,6,1.97,0,,,,,,-0.067592593,-0.406481481,1,0,0,1.9695,Pegmatite_rect,2,0,2,0,1,
5ac16e870527ba0001c1f27e,TCN,2024-06-11_12h46.31.732,LearnStrategy,2023.2.3,Win32,59.88023952,3,2,4,,,,,,,,2,01,,,,,,,,,,,2,1.296,1,,,,,,-0.087962963,-0.228703704,1,0,0,1.2961,Basalt_rect,3,0,3,0,1,
5ac16e870527ba0001c1f27e,TCN,2024-06-11_12h46.31.732,LearnStrategy,2023.2.3,Win32,59.88023952,3,2,5,,,,,,,,1,01,,,,,,,,,,,4,4.386,0,,,,,,0.312037037,-0.246296296,1,0,0,4.386,Gabbro_rect,4,0,4,0,1,
5ac16e870527ba0001c1f27e,TCN,2024-06-11_12h46.31.732,LearnStrategy,2023.2.3,Win32,59.88023952,3,2,6,,,,,,,,8,14,,,,,,,,,,,8,0.865,1,,,,,,0.410185185,-0.418518519,1,0,0,0.8649,Pumice_rect,5,0,5,0,1,
5ac16e870527ba0001c1f27e,TCN,2024-06-11_12h46.31.732,LearnStrategy,2023.2.3,Win32,59.88023952,3,2,7,,,,,,,,7,04,,,,,,,,,,,1,4.515,0,,,,,,-0.37037037,-0.232407407,1,0,0,4.5153,Andesite_rect,6,0,6,0,1,
5ac16e870527ba0001c1f27e,TCN,2024-06-11_12h46.31.732,LearnStrategy,2023.2.3,Win32,59.88023952,3,2,8,,,,,,,,5,02,,,,,,,,,,,5,1.165,1,,,,,,-0.407407407,-0.390740741,1,0,0,1.1652,Obsidian_rect,7,0,7,0,1,
5ac16e870527ba0001c1f27e,TCN,2024-06-11_12h46.31.732,LearnStrategy,2023.2.3,Win32,59.88023952,3,2,9,,,,,,,,4,11,,,,,,,,,,,2,2.55,0,,,,,,-0.163888889,-0.250925926,1,0,0,2.5497,Basalt_rect,8,0,8,0,1,
5ac16e870527ba0001c1f27e,TCN,2024-06-11_12h46.31.732,LearnStrategy,2023.2.3,Win32,59.88023952,3,2,10,,,,,,,,3,09,,,,,,,,,,,7,3.502,0,,,,,,0.060185185,-0.408333333,1,0,0,3.5018,Peridotite_rect,9,0,9,0,1,
5ac16e870527ba0001c1f27e,TCN,2024-06-11_12h46.31.732,LearnStrategy,2023.2.3,Win32,59.88023952,3,2,11,,,,,,,,1,10,,,,,,,,,,,4,3.786,0,,,,,,0.32962963,-0.252777778,1,0,0,3.7858,Gabbro_rect,10,0,10,0,1,
5ac16e870527ba0001c1f27e,TCN,2024-06-11_12h46.31.732,LearnStrategy,2023.2.3,Win32,59.88023952,3,2,12,,,,,,,,6,11,,,,,,,,,,,6,3.587,1,,,,,,-0.089814815,-0.381481481,1,0,0,3.587,Pegmatite_rect,11,0,11,0,1,
5ac16e870527ba0001c1f27e,TCN,2024-06-11_12h46.31.732,LearnStrategy,2023.2.3,Win32,59.88023952,3,2,13,,,,,,,,4,15,,,,,,,,,,,2,2.465,0,,,,,,-0.089814815,-0.271296296,1,0,0,2.465,Basalt_rect,12,0,12,0,1,
5ac16e870527ba0001c1f27e,TCN,2024-06-11_12h46.31.732,LearnStrategy,2023.2.3,Win32,59.88023952,3,2,14,,,,,,,,8,09,,,,,,,,,,,1,3.867,0,,,,,,-0.40462963,-0.263888889,1,0,0,3.8669,Andesite_rect,13,0,13,0,1,
5ac16e870527ba0001c1f27e,TCN,2024-06-11_12h46.31.732,LearnStrategy,2023.2.3,Win32,59.88023952,3,2,15,,,,,,,,3,13,,,,,,,,,,,1,1.234,0,,,,,,-0.344444444,-0.238888889,1,0,0,1.2343,Andesite_rect,14,0,14,0,1,
5ac16e870527ba0001c1f27e,TCN,2024-06-11_12h46.31.732,LearnStrategy,2023.2.3,Win32,59.88023952,3,2,16,,,,,,,,6,03,,,,,,,,,,,7,2.099,0,,,,,,0.075,-0.384259259,1,0,0,2.0987,Peridotite_rect,15,0,15,0,1,
5ac16e870527ba0001c1f27e,TCN,2024-06-11_12h46.31.732,LearnStrategy,2023.2.3,Win32,59.88023952,4,1,1,0.016666667,0.011111111,1,0,0,1.2157,rock_grid_rect_2,1,04,-1,-1,1.216,-0.487962963,-0.246296296,1,0,0,1.7119,Andesite_rect,1,1.712,1,0,0,0,0,1,,,,,,,,,,,,,
5ac16e870527ba0001c1f27e,TCN,2024-06-11_12h46.31.732,LearnStrategy,2023.2.3,Win32,59.88023952,4,1,2,-0.02037037,0.000925926,1,0,0,1.0794,rock_grid_rect_2,3,10,-1,-1,1.079,0.099074074,-0.405555556,1,0,0,4.3541,Peridotite_rect,7,4.354,0,1,0,1,0,1,,,,,,,,,,,,,
5ac16e870527ba0001c1f27e,TCN,2024-06-11_12h46.31.732,LearnStrategy,2023.2.3,Win32,59.88023952,4,1,3,0.011111111,0.000925926,1,0,0,0.8876,rock_grid_rect_2,2,06,-1,-1,0.888,-0.090740741,-0.247222222,1,0,0,1.4112,Basalt_rect,2,1.411,1,2,0,2,0,1,,,,,,,,,,,,,
5ac16e870527ba0001c1f27e,TCN,2024-06-11_12h46.31.732,LearnStrategy,2023.2.3,Win32,59.88023952,4,1,4,-0.016666667,-0.009259259,1,0,0,0.8289,rock_grid_rect_2,3,15,-1,-1,0.829,0.087037037,-0.24537037,1,0,0,2.8493,Diorite_rect,3,2.849,1,3,0,3,0,1,,,,,,,,,,,,,
5ac16e870527ba0001c1f27e,TCN,2024-06-11_12h46.31.732,LearnStrategy,2023.2.3,Win32,59.88023952,4,1,5,-0.017592593,-0.00462963,1,0,0,0.8991,rock_grid_rect_2,4,08,-1,-1,0.899,-0.112037037,-0.241666667,1,0,0,2.8748,Basalt_rect,2,2.875,0,4,0,4,0,1,,,,,,,,,,,,,
5ac16e870527ba0001c1f27e,TCN,2024-06-11_12h46.31.732,LearnStrategy,2023.2.3,Win32,59.88023952,4,1,6,-0.018518519,-0.007407407,1,0,0,0.7985,rock_grid_rect_2,1,02,-1,-1,0.798,0.089814815,-0.247222222,1,0,0,3.7204,Diorite_rect,3,3.72,0,5,0,5,0,1,,,,,,,,,,,,,
5ac16e870527ba0001c1f27e,TCN,2024-06-11_12h46.31.732,LearnStrategy,2023.2.3,Win32,59.88023952,4,1,7,0.003703704,0.000925926,1,0,0,0.8715,rock_grid_rect_2,5,11,-1,-1,0.871,-0.364814815,-0.386111111,1,0,0,1.1131,Obsidian_rect,5,1.113,1,6,0,6,0,1,,,,,,,,,,,,,
5ac16e870527ba0001c1f27e,TCN,2024-06-11_12h46.31.732,LearnStrategy,2023.2.3,Win32,59.88023952,4,1,8,0.041666667,0.009259259,1,0,0,0.75,rock_grid_rect_2,6,16,-1,-1,0.75,-0.082407407,-0.393518519,1,0,0,3.4381,Pegmatite_rect,6,3.438,1,7,0,7,0,1,,,,,,,,,,,,,
5ac16e870527ba0001c1f27e,TCN,2024-06-11_12h46.31.732,LearnStrategy,2023.2.3,Win32,59.88023952,4,1,9,0.013888889,0.003703704,1,0,0,1.0153,rock_grid_rect_2,2,12,-1,-1,1.015,-0.093518519,-0.391666667,1,0,0,3.4531,Pegmatite_rect,6,3.453,0,8,0,8,0,1,,,,,,,,,,,,,
5ac16e870527ba0001c1f27e,TCN,2024-06-11_12h46.31.732,LearnStrategy,2023.2.3,Win32,59.88023952,4,1,10,0.024074074,0.000925926,1,0,0,0.6966,rock_grid_rect_2,7,13,-1,-1,0.697,0.061111111,-0.39537037,1,0,0,1.6457,Peridotite_rect,7,1.646,1,9,0,9,0,1,,,,,,,,,,,,,
5ac16e870527ba0001c1f27e,TCN,2024-06-11_12h46.31.732,LearnStrategy,2023.2.3,Win32,59.88023952,4,1,11,0.000925926,0.008333333,1,0,0,0.8154,rock_grid_rect_2,5,04,-1,-1,0.815,-0.37962963,-0.401851852,1,0,0,1.0958,Obsidian_rect,5,1.096,1,10,0,10,0,1,,,,,,,,,,,,,
5ac16e870527ba0001c1f27e,TCN,2024-06-11_12h46.31.732,LearnStrategy,2023.2.3,Win32,59.88023952,4,1,12,0.010185185,-0.010185185,1,0,0,0.7501,rock_grid_rect_2,8,08,-1,-1,0.75,-0.383333333,-0.239814815,1,0,0,2.3463,Andesite_rect,1,2.346,0,11,0,11,0,1,,,,,,,,,,,,,
5ac16e870527ba0001c1f27e,TCN,2024-06-11_12h46.31.732,LearnStrategy,2023.2.3,Win32,59.88023952,4,1,13,0.003703704,0.002777778,1,0,0,0.7311,rock_grid_rect_2,4,03,-1,-1,0.731,-0.093518519,-0.241666667,1,0,0,2.3791,Basalt_rect,2,2.379,0,12,0,12,0,1,,,,,,,,,,,,,
5ac16e870527ba0001c1f27e,TCN,2024-06-11_12h46.31.732,LearnStrategy,2023.2.3,Win32,59.88023952,4,1,14,0.006481481,-0.006481481,1,0,0,0.6824,rock_grid_rect_2,8,05,-1,-1,0.682,0.124074074,-0.231481481,1,0,0,2.8954,Diorite_rect,3,2.895,0,13,0,13,0,1,,,,,,,,,,,,,
5ac16e870527ba0001c1f27e,TCN,2024-06-11_12h46.31.732,LearnStrategy,2023.2.3,Win32,59.88023952,4,1,15,-0.009259259,0,1,0,0,0.699,rock_grid_rect_2,6,05,-1,-1,0.699,-0.387037037,-0.387037037,1,0,0,2.2114,Obsidian_rect,5,2.211,0,14,0,14,0,1,,,,,,,,,,,,,
5ac16e870527ba0001c1f27e,TCN,2024-06-11_12h46.31.732,LearnStrategy,2023.2.3,Win32,59.88023952,4,1,16,-0.030555556,0,1,0,0,0.7989,rock_grid_rect_2,7,08,-1,-1,0.799,-0.077777778,-0.393518519,1,0,0,2.9361,Pegmatite_rect,6,2.936,0,15,0,15,0,1,,,,,,,,,,,,,
5ac16e870527ba0001c1f27e,TCN,2024-06-11_12h46.31.732,LearnStrategy,2023.2.3,Win32,59.88023952,4,2,1,,,,,,,,6,03,,,,,,,,,,,7,5.452,0,,,,,,0.125925926,-0.403703704,1,0,0,5.452,Peridotite_rect,0,0,0,0,1,
5ac16e870527ba0001c1f27e,TCN,2024-06-11_12h46.31.732,LearnStrategy,2023.2.3,Win32,59.88023952,4,2,2,,,,,,,,2,02,,,,,,,,,,,2,1.616,1,,,,,,-0.103703704,-0.252777778,1,0,0,1.6157,Basalt_rect,1,0,1,0,1,
5ac16e870527ba0001c1f27e,TCN,2024-06-11_12h46.31.732,LearnStrategy,2023.2.3,Win32,59.88023952,4,2,3,,,,,,,,8,15,,,,,,,,,,,8,1.269,1,,,,,,0.386111111,-0.400925926,1,0,0,1.2687,Pumice_rect,2,0,2,0,1,
5ac16e870527ba0001c1f27e,TCN,2024-06-11_12h46.31.732,LearnStrategy,2023.2.3,Win32,59.88023952,4,2,4,,,,,,,,2,16,,,,,,,,,,,1,3.686,0,,,,,,-0.35,-0.230555556,1,0,0,3.6856,Andesite_rect,3,0,3,0,1,
5ac16e870527ba0001c1f27e,TCN,2024-06-11_12h46.31.732,LearnStrategy,2023.2.3,Win32,59.88023952,4,2,5,,,,,,,,8,14,,,,,,,,,,,8,1.901,1,,,,,,0.356481481,-0.389814815,1,0,0,1.9008,Pumice_rect,4,0,4,0,1,
5ac16e870527ba0001c1f27e,TCN,2024-06-11_12h46.31.732,LearnStrategy,2023.2.3,Win32,59.88023952,4,2,6,,,,,,,,4,09,,,,,,,,,,,5,1.832,0,,,,,,-0.389814815,-0.398148148,1,0,0,1.8317,Obsidian_rect,5,0,5,0,1,
5ac16e870527ba0001c1f27e,TCN,2024-06-11_12h46.31.732,LearnStrategy,2023.2.3,Win32,59.88023952,4,2,7,,,,,,,,7,07,,,,,,,,,,,4,2.078,0,,,,,,0.377777778,-0.255555556,1,0,0,2.0778,Gabbro_rect,6,0,6,0,1,
5ac16e870527ba0001c1f27e,TCN,2024-06-11_12h46.31.732,LearnStrategy,2023.2.3,Win32,59.88023952,4,2,8,,,,,,,,6,15,,,,,,,,,,,6,2.467,1,,,,,,-0.060185185,-0.398148148,1,0,0,2.4667,Pegmatite_rect,7,0,7,0,1,
5ac16e870527ba0001c1f27e,TCN,2024-06-11_12h46.31.732,LearnStrategy,2023.2.3,Win32,59.88023952,4,2,9,,,,,,,,7,04,,,,,,,,,,,3,1.536,0,,,,,,0.07037037,-0.259259259,1,0,0,1.5357,Diorite_rect,8,0,8,0,1,
5ac16e870527ba0001c1f27e,TCN,2024-06-11_12h46.31.732,LearnStrategy,2023.2.3,Win32,59.88023952,4,2,10,,,,,,,,5,06,,,,,,,,,,,5,1.498,1,,,,,,-0.380555556,-0.393518519,1,0,0,1.4982,Obsidian_rect,9,0,9,0,1,
5ac16e870527ba0001c1f27e,TCN,2024-06-11_12h46.31.732,LearnStrategy,2023.2.3,Win32,59.88023952,4,2,11,,,,,,,,1,03,,,,,,,,,,,4,2.534,0,,,,,,0.364814815,-0.264814815,1,0,0,2.5336,Gabbro_rect,10,0,10,0,1,
5ac16e870527ba0001c1f27e,TCN,2024-06-11_12h46.31.732,LearnStrategy,2023.2.3,Win32,59.88023952,4,2,12,,,,,,,,3,13,,,,,,,,,,,6,2.469,0,,,,,,-0.100925926,-0.403703704,1,0,0,2.4691,Pegmatite_rect,11,0,11,0,1,
5ac16e870527ba0001c1f27e,TCN,2024-06-11_12h46.31.732,LearnStrategy,2023.2.3,Win32,59.88023952,4,2,13,,,,,,,,3,09,,,,,,,,,,,3,3.583,1,,,,,,0.060185185,-0.248148148,1,0,0,3.5827,Diorite_rect,12,0,12,0,1,
5ac16e870527ba0001c1f27e,TCN,2024-06-11_12h46.31.732,LearnStrategy,2023.2.3,Win32,59.88023952,4,2,14,,,,,,,,5,08,,,,,,,,,,,5,1.319,1,,,,,,-0.367592593,-0.387037037,1,0,0,1.3194,Obsidian_rect,13,0,13,0,1,
5ac16e870527ba0001c1f27e,TCN,2024-06-11_12h46.31.732,LearnStrategy,2023.2.3,Win32,59.88023952,4,2,15,,,,,,,,4,15,,,,,,,,,,,7,2.337,0,,,,,,0.089814815,-0.384259259,1,0,0,2.3366,Peridotite_rect,14,0,14,0,1,
5ac16e870527ba0001c1f27e,TCN,2024-06-11_12h46.31.732,LearnStrategy,2023.2.3,Win32,59.88023952,4,2,16,,,,,,,,1,10,,,,,,,,,,,2,2.291,0,,,,,,-0.114814815,-0.271296296,1,0,0,2.2914,Basalt_rect,15,0,15,0,1,
5ac16e870527ba0001c1f27e,TCN,2024-06-11_12h46.31.732,LearnStrategy,2023.2.3,Win32,59.88023952,5,1,1,0.081481481,-0.005555556,1,0,0,1.3487,rock_grid_rect_2,2,10,-1,-1,1.349,-0.110185185,-0.238888889,1,0,0,2.9532,Basalt_rect,2,2.953,1,0,0,0,0,1,,,,,,,,,,,,,
5ac16e870527ba0001c1f27e,TCN,2024-06-11_12h46.31.732,LearnStrategy,2023.2.3,Win32,59.88023952,5,1,2,-0.009259259,-0.003703704,1,0,0,1.0823,rock_grid_rect_2,5,10,-1,-1,1.082,0.12962963,-0.25,1,0,0,4.669,Diorite_rect,3,4.669,0,1,0,1,0,1,,,,,,,,,,,,,
5ac16e870527ba0001c1f27e,TCN,2024-06-11_12h46.31.732,LearnStrategy,2023.2.3,Win32,59.88023952,5,1,3,0.025925926,0.008333333,1,0,0,0.8189,rock_grid_rect_2,2,09,-1,-1,0.819,-0.125925926,-0.25,1,0,0,1.7505,Basalt_rect,2,1.751,1,2,0,2,0,1,,,,,,,,,,,,,
5ac16e870527ba0001c1f27e,TCN,2024-06-11_12h46.31.732,LearnStrategy,2023.2.3,Win32,59.88023952,5,1,4,-0.003703704,-0.001851852,1,0,0,0.8319,rock_grid_rect_2,7,10,-1,-1,0.832,0.100925926,-0.394444444,1,0,0,1.6526,Peridotite_rect,7,1.653,1,3,0,3,0,1,,,,,,,,,,,,,
5ac16e870527ba0001c1f27e,TCN,2024-06-11_12h46.31.732,LearnStrategy,2023.2.3,Win32,59.88023952,5,1,5,-0.001851852,0.00462963,1,0,0,0.8387,rock_grid_rect_2,7,15,-1,-1,0.839,0.113888889,-0.405555556,1,0,0,2.8734,Peridotite_rect,7,2.873,1,4,0,4,0,1,,,,,,,,,,,,,
5ac16e870527ba0001c1f27e,TCN,2024-06-11_12h46.31.732,LearnStrategy,2023.2.3,Win32,59.88023952,5,1,6,0.009259259,0,1,0,0,0.799,rock_grid_rect_2,3,08,-1,-1,0.799,-0.124074074,-0.389814815,1,0,0,5.4469,Pegmatite_rect,6,5.447,0,5,0,5,0,1,,,,,,,,,,,,,
5ac16e870527ba0001c1f27e,TCN,2024-06-11_12h46.31.732,LearnStrategy,2023.2.3,Win32,59.88023952,5,1,7,0.006481481,-0.007407407,1,0,0,0.7497,rock_grid_rect_2,1,14,-1,-1,0.75,0.119444444,-0.249074074,1,0,0,1.9917,Diorite_rect,3,1.992,0,6,0,6,0,1,,,,,,,,,,,,,
5ac16e870527ba0001c1f27e,TCN,2024-06-11_12h46.31.732,LearnStrategy,2023.2.3,Win32,59.88023952,5,1,8,-0.023148148,-0.009259259,1,0,0,0.7054,rock_grid_rect_2,5,12,-1,-1,0.705,-0.398148148,-0.412962963,1,0,0,1.1135,Obsidian_rect,5,1.114,1,7,0,7,0,1,,,,,,,,,,,,,
5ac16e870527ba0001c1f27e,TCN,2024-06-11_12h46.31.732,LearnStrategy,2023.2.3,Win32,59.88023952,5,1,9,0.006481481,-0.008333333,1,0,0,0.7404,rock_grid_rect_2,3,07,-1,-1,0.74,0.115740741,-0.237962963,1,0,0,2.929,Diorite_rect,3,2.929,1,8,0,8,0,1,,,,,,,,,,,,,
5ac16e870527ba0001c1f27e,TCN,2024-06-11_12h46.31.732,LearnStrategy,2023.2.3,Win32,59.88023952,5,1,10,-0.024074074,-0.006481481,1,0,0,0.8691,rock_grid_rect_2,8,04,-1,-1,0.869,0.353703704,-0.392592593,1,0,0,1.3136,Pumice_rect,8,1.314,1,9,0,9,0,1,,,,,,,,,,,,,
5ac16e870527ba0001c1f27e,TCN,2024-06-11_12h46.31.732,LearnStrategy,2023.2.3,Win32,59.88023952,5,1,11,0.02962963,-0.019444444,1,0,0,0.735,rock_grid_rect_2,4,14,-1,-1,0.735,-0.085185185,-0.403703704,1,0,0,2.9322,Pegmatite_rect,6,2.932,0,10,0,10,0,1,,,,,,,,,,,,,
5ac16e870527ba0001c1f27e,TCN,2024-06-11_12h46.31.732,LearnStrategy,2023.2.3,Win32,59.88023952,5,1,12,0.038888889,0.001851852,1,0,0,0.6784,rock_grid_rect_2,6,12,-1,-1,0.678,-0.067592593,-0.37962963,1,0,0,2.8359,Pegmatite_rect,6,2.836,1,11,0,11,0,1,,,,,,,,,,,,,
5ac16e870527ba0001c1f27e,TCN,2024-06-11_12h46.31.732,LearnStrategy,2023.2.3,Win32,59.88023952,5,1,13,0.011111111,0,1,0,0,0.738,rock_grid_rect_2,8,06,-1,-1,0.738,0.338888889,-0.390740741,1,0,0,1.6456,Pumice_rect,8,1.646,1,12,0,12,0,1,,,,,,,,,,,,,
5ac16e870527ba0001c1f27e,TCN,2024-06-11_12h46.31.732,LearnStrategy,2023.2.3,Win32,59.88023952,5,1,14,0.022222222,-0.011111111,1,0,0,0.7383,rock_grid_rect_2,4,05,-1,-1,0.738,-0.134259259,-0.250925926,1,0,0,2.7977,Basalt_rect,2,2.798,0,13,0,13,0,1,,,,,,,,,,,,,
5ac16e870527ba0001c1f27e,TCN,2024-06-11_12h46.31.732,LearnStrategy,2023.2.3,Win32,59.88023952,5,1,15,-0.027777778,-0.000925926,1,0,0,0.6881,rock_grid_rect_2,6,10,-1,-1,0.688,-0.096296296,-0.398148148,1,0,0,2.4974,Pegmatite_rect,6,2.497,1,14,0,14,0,1,,,,,,,,,,,,,
5ac16e870527ba0001c1f27e,TCN,2024-06-11_12h46.31.732,LearnStrategy,2023.2.3,Win32,59.88023952,5,1,16,0.001851852,-0.00462963,1,0,0,0.756,rock_grid_rect_2,1,11,-1,-1,0.756,-0.343518519,-0.238888889,1,0,0,4.1817,Andesite_rect,1,4.182,1,15,0,15,0,1,,,,,,,,,,,,,
5ac16e870527ba0001c1f27e,TCN,2024-06-11_12h46.31.732,LearnStrategy,2023.2.3,Win32,59.88023952,5,2,1,,,,,,,,6,09,,,,,,,,,,,6,1.769,1,,,,,,-0.125925926,-0.40462963,1,0,0,1.7692,Pegmatite_rect,0,0,0,0,1,
5ac16e870527ba0001c1f27e,TCN,2024-06-11_12h46.31.732,LearnStrategy,2023.2.3,Win32,59.88023952,5,2,2,,,,,,,,3,16,,,,,,,,,,,4,4.549,0,,,,,,0.344444444,-0.250925926,1,0,0,4.5489,Gabbro_rect,1,0,1,0,1,
5ac16e870527ba0001c1f27e,TCN,2024-06-11_12h46.31.732,LearnStrategy,2023.2.3,Win32,59.88023952,5,2,3,,,,,,,,7,05,,,,,,,,,,,3,1.85,0,,,,,,0.102777778,-0.249074074,1,0,0,1.8504,Diorite_rect,2,0,2,0,1,
5ac16e870527ba0001c1f27e,TCN,2024-06-11_12h46.31.732,LearnStrategy,2023.2.3,Win32,59.88023952,5,2,4,,,,,,,,1,01,,,,,,,,,,,2,4.982,0,,,,,,-0.100925926,-0.252777778,1,0,0,4.9815,Basalt_rect,3,0,3,0,1,
5ac16e870527ba0001c1f27e,TCN,2024-06-11_12h46.31.732,LearnStrategy,2023.2.3,Win32,59.88023952,5,2,5,,,,,,,,2,05,,,,,,,,,,,5,2.205,0,,,,,,-0.438888889,-0.410185185,1,0,0,2.2053,Obsidian_rect,4,0,4,0,1,
5ac16e870527ba0001c1f27e,TCN,2024-06-11_12h46.31.732,LearnStrategy,2023.2.3,Win32,59.88023952,5,2,6,,,,,,,,1,07,,,,,,,,,,,4,2.85,0,,,,,,0.336111111,-0.260185185,1,0,0,2.8501,Gabbro_rect,5,0,5,0,1,
5ac16e870527ba0001c1f27e,TCN,2024-06-11_12h46.31.732,LearnStrategy,2023.2.3,Win32,59.88023952,5,2,7,,,,,,,,2,01,,,,,,,,,,,2,2.014,1,,,,,,-0.134259259,-0.25,1,0,0,2.0144,Basalt_rect,6,0,6,0,1,
5ac16e870527ba0001c1f27e,TCN,2024-06-11_12h46.31.732,LearnStrategy,2023.2.3,Win32,59.88023952,5,2,8,,,,,,,,4,12,,,,,,,,,,,1,3.753,0,,,,,,-0.37037037,-0.228703704,1,0,0,3.7528,Andesite_rect,7,0,7,0,1,
5ac16e870527ba0001c1f27e,TCN,2024-06-11_12h46.31.732,LearnStrategy,2023.2.3,Win32,59.88023952,5,2,9,,,,,,,,6,13,,,,,,,,,,,6,2.378,1,,,,,,-0.112962963,-0.387037037,1,0,0,2.3777,Pegmatite_rect,8,0,8,0,1,
5ac16e870527ba0001c1f27e,TCN,2024-06-11_12h46.31.732,LearnStrategy,2023.2.3,Win32,59.88023952,5,2,10,,,,,,,,5,07,,,,,,,,,,,5,1.318,1,,,,,,-0.39537037,-0.392592593,1,0,0,1.3184,Obsidian_rect,9,0,9,0,1,
5ac16e870527ba0001c1f27e,TCN,2024-06-11_12h46.31.732,LearnStrategy,2023.2.3,Win32,59.88023952,5,2,11,,,,,,,,8,10,,,,,,,,,,,8,1.183,1,,,,,,0.371296296,-0.407407407,1,0,0,1.183,Pumice_rect,10,0,10,0,1,
5ac16e870527ba0001c1f27e,TCN,2024-06-11_12h46.31.732,LearnStrategy,2023.2.3,Win32,59.88023952,5,2,12,,,,,,,,7,16,,,,,,,,,,,7,1.685,1,,,,,,0.105555556,-0.390740741,1,0,0,1.6854,Peridotite_rect,11,0,11,0,1,
5ac16e870527ba0001c1f27e,TCN,2024-06-11_12h46.31.732,LearnStrategy,2023.2.3,Win32,59.88023952,5,2,13,,,,,,,,4,13,,,,,,,,,,,4,2.883,1,,,,,,0.398148148,-0.268518519,1,0,0,2.8829,Gabbro_rect,12,0,12,0,1,
5ac16e870527ba0001c1f27e,TCN,2024-06-11_12h46.31.732,LearnStrategy,2023.2.3,Win32,59.88023952,5,2,14,,,,,,,,3,14,,,,,,,,,,,4,3.864,0,,,,,,0.392592593,-0.258333333,1,0,0,3.8639,Gabbro_rect,13,0,13,0,1,
5ac16e870527ba0001c1f27e,TCN,2024-06-11_12h46.31.732,LearnStrategy,2023.2.3,Win32,59.88023952,5,2,15,,,,,,,,8,03,,,,,,,,,,,8,1.112,1,,,,,,0.362037037,-0.4,1,0,0,1.1117,Pumice_rect,14,0,14,0,1,
5ac16e870527ba0001c1f27e,TCN,2024-06-11_12h46.31.732,LearnStrategy,2023.2.3,Win32,59.88023952,5,2,16,,,,,,,,5,02,,,,,,,,,,,5,1.128,1,,,,,,-0.40462963,-0.384259259,1,0,0,1.1285,Obsidian_rect,15,0,15,0,1,
5ac16e870527ba0001c1f27e,TCN,2024-06-11_12h46.31.732,LearnStrategy,2023.2.3,Win32,59.88023952,6,1,1,0.058333333,-0.001851852,1,0,0,1.4549,rock_grid_rect_2,4,01,-1,-1,1.455,-0.365740741,-0.251851852,1,0,0,4.7798,Andesite_rect,1,4.78,0,0,0,0,0,1,,,,,,,,,,,,,
5ac16e870527ba0001c1f27e,TCN,2024-06-11_12h46.31.732,LearnStrategy,2023.2.3,Win32,59.88023952,6,1,2,-0.012037037,-0.008333333,1,0,0,1.1212,rock_grid_rect_2,6,06,-1,-1,1.121,-0.167592593,-0.387037037,1,0,0,3.3489,Pegmatite_rect,6,3.349,1,1,0,1,0,1,,,,,,,,,,,,,
5ac16e870527ba0001c1f27e,TCN,2024-06-11_12h46.31.732,LearnStrategy,2023.2.3,Win32,59.88023952,6,1,3,-0.00462963,-0.009259259,1,0,0,1.0823,rock_grid_rect_2,4,16,-1,-1,1.082,-0.334259259,-0.247222222,1,0,0,2.4016,Andesite_rect,1,2.402,0,2,0,2,0,1,,,,,,,,,,,,,
5ac16e870527ba0001c1f27e,TCN,2024-06-11_12h46.31.732,LearnStrategy,2023.2.3,Win32,59.88023952,6,1,4,-0.011111111,-0.003703704,1,0,0,0.8628,rock_grid_rect_2,3,11,-1,-1,0.863,-0.368518519,-0.234259259,1,0,0,2.1884,Andesite_rect,1,2.188,0,3,0,3,0,1,,,,,,,,,,,,,
5ac16e870527ba0001c1f27e,TCN,2024-06-11_12h46.31.732,LearnStrategy,2023.2.3,Win32,59.88023952,6,1,5,-0.024074074,-0.00462963,1,0,0,0.7716,rock_grid_rect_2,6,08,-1,-1,0.772,-0.362962963,-0.378703704,1,0,0,2.9633,Obsidian_rect,5,2.963,0,4,0,4,0,1,,,,,,,,,,,,,
5ac16e870527ba0001c1f27e,TCN,2024-06-11_12h46.31.732,LearnStrategy,2023.2.3,Win32,59.88023952,6,1,6,-0.02962963,-0.006481481,1,0,0,0.816,rock_grid_rect_2,7,06,-1,-1,0.816,0.144444444,-0.238888889,1,0,0,2.2106,Diorite_rect,3,2.211,0,5,0,5,0,1,,,,,,,,,,,,,
5ac16e870527ba0001c1f27e,TCN,2024-06-11_12h46.31.732,LearnStrategy,2023.2.3,Win32,59.88023952,6,1,7,-0.017592593,0.00462963,1,0,0,0.7483,rock_grid_rect_2,5,14,-1,-1,0.748,-0.361111111,-0.401851852,1,0,0,1.1862,Obsidian_rect,5,1.186,1,6,0,6,0,1,,,,,,,,,,,,,
5ac16e870527ba0001c1f27e,TCN,2024-06-11_12h46.31.732,LearnStrategy,2023.2.3,Win32,59.88023952,6,1,8,0.005555556,-0.016666667,1,0,0,0.7354,rock_grid_rect_2,1,06,-1,-1,0.735,-0.338888889,-0.25462963,1,0,0,2.6831,Andesite_rect,1,2.683,1,7,0,7,0,1,,,,,,,,,,,,,
5ac16e870527ba0001c1f27e,TCN,2024-06-11_12h46.31.732,LearnStrategy,2023.2.3,Win32,59.88023952,6,1,9,0.011111111,-0.018518519,1,0,0,0.7655,rock_grid_rect_2,2,04,-1,-1,0.766,-0.101851852,-0.266666667,1,0,0,1.1163,Basalt_rect,2,1.116,1,8,0,8,0,1,,,,,,,,,,,,,
5ac16e870527ba0001c1f27e,TCN,2024-06-11_12h46.31.732,LearnStrategy,2023.2.3,Win32,59.88023952,6,1,10,0.011111111,-0.006481481,1,0,0,0.7824,rock_grid_rect_2,5,05,-1,-1,0.782,-0.457407407,-0.389814815,1,0,0,3.0191,Obsidian_rect,5,3.019,1,9,0,9,0,1,,,,,,,,,,,,,
5ac16e870527ba0001c1f27e,TCN,2024-06-11_12h46.31.732,LearnStrategy,2023.2.3,Win32,59.88023952,6,1,11,-0.037037037,-0.014814815,1,0,0,0.8682,rock_grid_rect_2,8,16,-1,-1,0.868,0.434259259,-0.394444444,1,0,0,1.3461,Pumice_rect,8,1.346,1,10,0,10,0,1,,,,,,,,,,,,,
5ac16e870527ba0001c1f27e,TCN,2024-06-11_12h46.31.732,LearnStrategy,2023.2.3,Win32,59.88023952,6,1,12,0.005555556,0.005555556,1,0,0,1.4551,rock_grid_rect_2,7,02,-1,-1,1.455,0.114814815,-0.243518519,1,0,0,2.4432,Diorite_rect,3,2.443,0,11,0,11,0,1,,,,,,,,,,,,,
5ac16e870527ba0001c1f27e,TCN,2024-06-11_12h46.31.732,LearnStrategy,2023.2.3,Win32,59.88023952,6,1,13,0.015740741,-0.008333333,1,0,0,0.8188,rock_grid_rect_2,2,14,-1,-1,0.819,-0.446296296,-0.237037037,1,0,0,2.2467,Andesite_rect,1,2.247,0,12,0,12,0,1,,,,,,,,,,,,,
5ac16e870527ba0001c1f27e,TCN,2024-06-11_12h46.31.732,LearnStrategy,2023.2.3,Win32,59.88023952,6,1,14,-0.012962963,-0.009259259,1,0,0,0.7847,rock_grid_rect_2,3,02,-1,-1,0.785,-0.385185185,-0.263888889,1,0,0,3.3639,Andesite_rect,1,3.364,0,13,0,13,0,1,,,,,,,,,,,,,
5ac16e870527ba0001c1f27e,TCN,2024-06-11_12h46.31.732,LearnStrategy,2023.2.3,Win32,59.88023952,6,1,15,0.013888889,-0.012962963,1,0,0,0.7315,rock_grid_rect_2,1,09,-1,-1,0.732,-0.117592593,-0.24537037,1,0,0,1.8672,Basalt_rect,2,1.867,0,14,0,14,0,1,,,,,,,,,,,,,
5ac16e870527ba0001c1f27e,TCN,2024-06-11_12h46.31.732,LearnStrategy,2023.2.3,Win32,59.88023952,6,1,16,-0.008333333,-0.001851852,1,0,0,0.7388,rock_grid_rect_2,8,13,-1,-1,0.739,0.388888889,-0.413888889,1,0,0,1.1467,Pumice_rect,8,1.147,1,15,0,15,0,1,,,,,,,,,,,,,
5ac16e870527ba0001c1f27e,TCN,2024-06-11_12h46.31.732,LearnStrategy,2023.2.3,Win32,59.88023952,6,2,1,,,,,,,,3,12,,,,,,,,,,,3,5.935,1,,,,,,0.088888889,-0.256481481,1,0,0,5.9353,Diorite_rect,0,0,0,0,1,
5ac16e870527ba0001c1f27e,TCN,2024-06-11_12h46.31.732,LearnStrategy,2023.2.3,Win32,59.88023952,6,2,2,,,,,,,,2,08,,,,,,,,,,,2,1.613,1,,,,,,-0.096296296,-0.246296296,1,0,0,1.6134,Basalt_rect,1,0,1,0,1,
5ac16e870527ba0001c1f27e,TCN,2024-06-11_12h46.31.732,LearnStrategy,2023.2.3,Win32,59.88023952,6,2,3,,,,,,,,8,02,,,,,,,,,,,8,1.633,1,,,,,,0.403703704,-0.405555556,1,0,0,1.6326,Pumice_rect,2,0,2,0,1,
5ac16e870527ba0001c1f27e,TCN,2024-06-11_12h46.31.732,LearnStrategy,2023.2.3,Win32,59.88023952,6,2,4,,,,,,,,2,11,,,,,,,,,,,8,1.219,0,,,,,,0.350925926,-0.411111111,1,0,0,1.2188,Pumice_rect,3,0,3,0,1,
5ac16e870527ba0001c1f27e,TCN,2024-06-11_12h46.31.732,LearnStrategy,2023.2.3,Win32,59.88023952,6,2,5,,,,,,,,5,09,,,,,,,,,,,5,1.25,1,,,,,,-0.47037037,-0.394444444,1,0,0,1.2503,Obsidian_rect,4,0,4,0,1,
5ac16e870527ba0001c1f27e,TCN,2024-06-11_12h46.31.732,LearnStrategy,2023.2.3,Win32,59.88023952,6,2,6,,,,,,,,6,07,,,,,,,,,,,6,3.759,1,,,,,,-0.136111111,-0.393518519,1,0,0,3.7591,Pegmatite_rect,5,0,5,0,1,
5ac16e870527ba0001c1f27e,TCN,2024-06-11_12h46.31.732,LearnStrategy,2023.2.3,Win32,59.88023952,6,2,7,,,,,,,,1,16,,,,,,,,,,,3,3.845,0,,,,,,0.067592593,-0.243518519,1,0,0,3.8453,Diorite_rect,6,0,6,0,1,
5ac16e870527ba0001c1f27e,TCN,2024-06-11_12h46.31.732,LearnStrategy,2023.2.3,Win32,59.88023952,6,2,8,,,,,,,,1,05,,,,,,,,,,,3,1.229,0,,,,,,0.063888889,-0.253703704,1,0,0,1.2288,Diorite_rect,7,0,7,0,1,
5ac16e870527ba0001c1f27e,TCN,2024-06-11_12h46.31.732,LearnStrategy,2023.2.3,Win32,59.88023952,6,2,9,,,,,,,,4,11,,,,,,,,,,,1,2.496,0,,,,,,-0.392592593,-0.264814815,1,0,0,2.4958,Andesite_rect,8,0,8,0,1,
5ac16e870527ba0001c1f27e,TCN,2024-06-11_12h46.31.732,LearnStrategy,2023.2.3,Win32,59.88023952,6,2,10,,,,,,,,4,10,,,,,,,,,,,2,2.111,0,,,,,,-0.173148148,-0.253703704,1,0,0,2.1112,Basalt_rect,9,0,9,0,1,
5ac16e870527ba0001c1f27e,TCN,2024-06-11_12h46.31.732,LearnStrategy,2023.2.3,Win32,59.88023952,6,2,11,,,,,,,,7,14,,,,,,,,,,,7,2.095,1,,,,,,0.071296296,-0.382407407,1,0,0,2.0953,Peridotite_rect,10,0,10,0,1,
5ac16e870527ba0001c1f27e,TCN,2024-06-11_12h46.31.732,LearnStrategy,2023.2.3,Win32,59.88023952,6,2,12,,,,,,,,7,12,,,,,,,,,,,4,1.316,0,,,,,,0.34537037,-0.239814815,1,0,0,1.3164,Gabbro_rect,11,0,11,0,1,
5ac16e870527ba0001c1f27e,TCN,2024-06-11_12h46.31.732,LearnStrategy,2023.2.3,Win32,59.88023952,6,2,13,,,,,,,,5,16,,,,,,,,,,,5,1.15,1,,,,,,-0.350925926,-0.42037037,1,0,0,1.1504,Obsidian_rect,12,0,12,0,1,
5ac16e870527ba0001c1f27e,TCN,2024-06-11_12h46.31.732,LearnStrategy,2023.2.3,Win32,59.88023952,6,2,14,,,,,,,,3,06,,,,,,,,,,,4,1.529,0,,,,,,0.366666667,-0.237962963,1,0,0,1.5287,Gabbro_rect,13,0,13,0,1,
5ac16e870527ba0001c1f27e,TCN,2024-06-11_12h46.31.732,LearnStrategy,2023.2.3,Win32,59.88023952,6,2,15,,,,,,,,6,11,,,,,,,,,,,6,1.212,1,,,,,,-0.162037037,-0.396296296,1,0,0,1.2119,Pegmatite_rect,14,0,14,0,1,
5ac16e870527ba0001c1f27e,TCN,2024-06-11_12h46.31.732,LearnStrategy,2023.2.3,Win32,59.88023952,6,2,16,,,,,,,,8,09,,,,,,,,,,,8,1.712,1,,,,,,0.372222222,-0.40462963,1,0,0,1.712,Pumice_rect,15,0,15,0,1,
5ac16e870527ba0001c1f27e,TCN,2024-06-11_12h46.31.732,LearnStrategy,2023.2.3,Win32,59.88023952,7,1,1,0.013888889,-0.000925926,1,0,0,1.0477,rock_grid_rect_2,5,05,-1,-1,1.048,-0.368518519,-0.394444444,1,0,0,1.7456,Obsidian_rect,5,1.746,1,0,0,0,0,1,,,,,,,,,,,,,
5ac16e870527ba0001c1f27e,TCN,2024-06-11_12h46.31.732,LearnStrategy,2023.2.3,Win32,59.88023952,7,1,2,-0.037037037,0.009259259,1,0,0,0.9991,rock_grid_rect_2,3,02,-1,-1,0.999,0.118518519,-0.243518519,1,0,0,3.0542,Diorite_rect,3,3.054,1,1,0,1,0,1,,,,,,,,,,,,,
5ac16e870527ba0001c1f27e,TCN,2024-06-11_12h46.31.732,LearnStrategy,2023.2.3,Win32,59.88023952,7,1,3,-0.012037037,0.000925926,1,0,0,0.9212,rock_grid_rect_2,4,03,-1,-1,0.921,-0.459259259,-0.248148148,1,0,0,2.5662,Andesite_rect,1,2.566,0,2,0,2,0,1,,,,,,,,,,,,,
5ac16e870527ba0001c1f27e,TCN,2024-06-11_12h46.31.732,LearnStrategy,2023.2.3,Win32,59.88023952,7,1,4,-0.019444444,-0.009259259,1,0,0,0.8521,rock_grid_rect_2,1,09,-1,-1,0.852,-0.344444444,-0.251851852,1,0,0,2.1295,Andesite_rect,1,2.13,1,3,0,3,0,1,,,,,,,,,,,,,
5ac16e870527ba0001c1f27e,TCN,2024-06-11_12h46.31.732,LearnStrategy,2023.2.3,Win32,59.88023952,7,1,5,-0.010185185,-0.016666667,1,0,0,0.8965,rock_grid_rect_2,8,13,-1,-1,0.896,0.360185185,-0.386111111,1,0,0,1.0367,Pumice_rect,8,1.037,1,4,0,4,0,1,,,,,,,,,,,,,
5ac16e870527ba0001c1f27e,TCN,2024-06-11_12h46.31.732,LearnStrategy,2023.2.3,Win32,59.88023952,7,1,6,-0.019444444,0.003703704,1,0,0,0.8737,rock_grid_rect_2,3,10,-1,-1,0.874,0.408333333,-0.234259259,1,0,0,2.6306,Gabbro_rect,4,2.631,0,5,0,5,0,1,,,,,,,,,,,,,
5ac16e870527ba0001c1f27e,TCN,2024-06-11_12h46.31.732,LearnStrategy,2023.2.3,Win32,59.88023952,7,1,7,0.009259259,0,1,0,0,0.7548,rock_grid_rect_2,7,06,-1,-1,0.755,-0.067592593,-0.411111111,1,0,0,1.5801,Pegmatite_rect,6,1.58,0,6,0,6,0,1,,,,,,,,,,,,,
5ac16e870527ba0001c1f27e,TCN,2024-06-11_12h46.31.732,LearnStrategy,2023.2.3,Win32,59.88023952,7,1,8,-0.006481481,0.013888889,1,0,0,0.8383,rock_grid_rect_2,7,10,-1,-1,0.838,0.147222222,-0.257407407,1,0,0,2.3467,Diorite_rect,3,2.347,0,7,0,7,0,1,,,,,,,,,,,,,
5ac16e870527ba0001c1f27e,TCN,2024-06-11_12h46.31.732,LearnStrategy,2023.2.3,Win32,59.88023952,7,1,9,-0.009259259,0.002777778,1,0,0,0.8027,rock_grid_rect_2,8,06,-1,-1,0.803,0.372222222,-0.408333333,1,0,0,1.9151,Pumice_rect,8,1.915,1,8,0,8,0,1,,,,,,,,,,,,,
5ac16e870527ba0001c1f27e,TCN,2024-06-11_12h46.31.732,LearnStrategy,2023.2.3,Win32,59.88023952,7,1,10,-0.016666667,-0.005555556,1,0,0,0.7413,rock_grid_rect_2,2,09,-1,-1,0.741,-0.102777778,-0.22962963,1,0,0,1.6607,Basalt_rect,2,1.661,1,9,0,9,0,1,,,,,,,,,,,,,
5ac16e870527ba0001c1f27e,TCN,2024-06-11_12h46.31.732,LearnStrategy,2023.2.3,Win32,59.88023952,7,1,11,0.010185185,-0.002777778,1,0,0,0.7524,rock_grid_rect_2,1,11,-1,-1,0.752,-0.391666667,-0.264814815,1,0,0,3.1301,Andesite_rect,1,3.13,1,10,0,10,0,1,,,,,,,,,,,,,
5ac16e870527ba0001c1f27e,TCN,2024-06-11_12h46.31.732,LearnStrategy,2023.2.3,Win32,59.88023952,7,1,12,-0.036111111,-0.008333333,1,0,0,0.8122,rock_grid_rect_2,4,08,-1,-1,0.812,-0.109259259,-0.237037037,1,0,0,2.3535,Basalt_rect,2,2.354,0,11,0,11,0,1,,,,,,,,,,,,,
5ac16e870527ba0001c1f27e,TCN,2024-06-11_12h46.31.732,LearnStrategy,2023.2.3,Win32,59.88023952,7,1,13,0.007407407,0.002777778,1,0,0,0.6355,rock_grid_rect_2,2,10,-1,-1,0.635,-0.324074074,-0.409259259,1,0,0,1.2797,Obsidian_rect,5,1.28,0,12,0,12,0,1,,,,,,,,,,,,,
5ac16e870527ba0001c1f27e,TCN,2024-06-11_12h46.31.732,LearnStrategy,2023.2.3,Win32,59.88023952,7,1,14,-0.031481481,0.003703704,1,0,0,0.7061,rock_grid_rect_2,6,08,-1,-1,0.706,-0.087962963,-0.380555556,1,0,0,1.1129,Pegmatite_rect,6,1.113,1,13,0,13,0,1,,,,,,,,,,,,,
5ac16e870527ba0001c1f27e,TCN,2024-06-11_12h46.31.732,LearnStrategy,2023.2.3,Win32,59.88023952,7,1,15,0.037037037,0.000925926,1,0,0,0.7548,rock_grid_rect_2,6,16,-1,-1,0.755,-0.117592593,-0.40462963,1,0,0,2.8481,Pegmatite_rect,6,2.848,1,14,0,14,0,1,,,,,,,,,,,,,
5ac16e870527ba0001c1f27e,TCN,2024-06-11_12h46.31.732,LearnStrategy,2023.2.3,Win32,59.88023952,7,1,16,0.032407407,0.019444444,1,0,0,0.7478,rock_grid_rect_2,5,04,-1,-1,0.748,-0.337962963,-0.37962963,1,0,0,1.3372,Obsidian_rect,5,1.337,1,15,0,15,0,1,,,,,,,,,,,,,
5ac16e870527ba0001c1f27e,TCN,2024-06-11_12h46.31.732,LearnStrategy,2023.2.3,Win32,59.88023952,7,2,1,,,,,,,,7,16,,,,,,,,,,,7,2.535,1,,,,,,0.062037037,-0.403703704,1,0,0,2.5355,Peridotite_rect,0,0,0,0,1,
5ac16e870527ba0001c1f27e,TCN,2024-06-11_12h46.31.732,LearnStrategy,2023.2.3,Win32,59.88023952,7,2,2,,,,,,,,6,13,,,,,,,,,,,6,3.851,1,,,,,,-0.083333333,-0.389814815,1,0,0,3.8515,Pegmatite_rect,1,0,1,0,1,
5ac16e870527ba0001c1f27e,TCN,2024-06-11_12h46.31.732,LearnStrategy,2023.2.3,Win32,59.88023952,7,2,3,,,,,,,,5,07,,,,,,,,,,,5,1.102,1,,,,,,-0.383333333,-0.397222222,1,0,0,1.1025,Obsidian_rect,2,0,2,0,1,
5ac16e870527ba0001c1f27e,TCN,2024-06-11_12h46.31.732,LearnStrategy,2023.2.3,Win32,59.88023952,7,2,4,,,,,,,,8,09,,,,,,,,,,,8,1.133,1,,,,,,0.416666667,-0.397222222,1,0,0,1.133,Pumice_rect,3,0,3,0,1,
5ac16e870527ba0001c1f27e,TCN,2024-06-11_12h46.31.732,LearnStrategy,2023.2.3,Win32,59.88023952,7,2,5,,,,,,,,6,15,,,,,,,,,,,6,2.056,1,,,,,,-0.105555556,-0.39537037,1,0,0,2.0559,Pegmatite_rect,4,0,4,0,1,
5ac16e870527ba0001c1f27e,TCN,2024-06-11_12h46.31.732,LearnStrategy,2023.2.3,Win32,59.88023952,7,2,6,,,,,,,,1,07,,,,,,,,,,,3,1.518,0,,,,,,0.105555556,-0.232407407,1,0,0,1.5185,Diorite_rect,5,0,5,0,1,
5ac16e870527ba0001c1f27e,TCN,2024-06-11_12h46.31.732,LearnStrategy,2023.2.3,Win32,59.88023952,7,2,7,,,,,,,,4,12,,,,,,,,,,,2,0.952,0,,,,,,-0.059259259,-0.234259259,1,0,0,0.9522,Basalt_rect,6,0,6,0,1,
5ac16e870527ba0001c1f27e,TCN,2024-06-11_12h46.31.732,LearnStrategy,2023.2.3,Win32,59.88023952,7,2,8,,,,,,,,3,06,,,,,,,,,,,1,3.255,0,,,,,,-0.386111111,-0.248148148,1,0,0,3.2551,Andesite_rect,7,0,7,0,1,
5ac16e870527ba0001c1f27e,TCN,2024-06-11_12h46.31.732,LearnStrategy,2023.2.3,Win32,59.88023952,7,2,9,,,,,,,,3,09,,,,,,,,,,,1,2.904,0,,,,,,-0.356481481,-0.248148148,1,0,0,2.9039,Andesite_rect,8,0,8,0,1,
5ac16e870527ba0001c1f27e,TCN,2024-06-11_12h46.31.732,LearnStrategy,2023.2.3,Win32,59.88023952,7,2,10,,,,,,,,7,12,,,,,,,,,,,3,2.02,0,,,,,,0.083333333,-0.230555556,1,0,0,2.0196,Diorite_rect,9,0,9,0,1,
5ac16e870527ba0001c1f27e,TCN,2024-06-11_12h46.31.732,LearnStrategy,2023.2.3,Win32,59.88023952,7,2,11,,,,,,,,1,05,,,,,,,,,,,4,2.519,0,,,,,,0.340740741,-0.258333333,1,0,0,2.5187,Gabbro_rect,10,0,10,0,1,
5ac16e870527ba0001c1f27e,TCN,2024-06-11_12h46.31.732,LearnStrategy,2023.2.3,Win32,59.88023952,7,2,12,,,,,,,,2,02,,,,,,,,,,,2,1.933,1,,,,,,-0.143518519,-0.255555556,1,0,0,1.9332,Basalt_rect,11,0,11,0,1,
5ac16e870527ba0001c1f27e,TCN,2024-06-11_12h46.31.732,LearnStrategy,2023.2.3,Win32,59.88023952,7,2,13,,,,,,,,2,01,,,,,,,,,,,2,1.482,1,,,,,,-0.117592593,-0.24537037,1,0,0,1.4823,Basalt_rect,12,0,12,0,1,
5ac16e870527ba0001c1f27e,TCN,2024-06-11_12h46.31.732,LearnStrategy,2023.2.3,Win32,59.88023952,7,2,14,,,,,,,,8,03,,,,,,,,,,,8,1.054,1,,,,,,0.315740741,-0.401851852,1,0,0,1.054,Pumice_rect,13,0,13,0,1,
5ac16e870527ba0001c1f27e,TCN,2024-06-11_12h46.31.732,LearnStrategy,2023.2.3,Win32,59.88023952,7,2,15,,,,,,,,5,02,,,,,,,,,,,5,0.832,1,,,,,,-0.422222222,-0.388888889,1,0,0,0.8323,Obsidian_rect,14,0,14,0,1,
5ac16e870527ba0001c1f27e,TCN,2024-06-11_12h46.31.732,LearnStrategy,2023.2.3,Win32,59.88023952,7,2,16,,,,,,,,4,15,,,,,,,,,,,3,3.186,0,,,,,,0.17037037,-0.253703704,1,0,0,3.1857,Diorite_rect,15,0,15,0,1,
5ac16e870527ba0001c1f27e,TCN,2024-06-11_12h46.31.732,LearnStrategy,2023.2.3,Win32,59.88023952,8,1,1,0.022222222,-0.007407407,1,0,0,2.1138,rock_grid_rect_2,4,05,-1,-1,2.114,0.349074074,-0.258333333,1,0,0,2.6854,Gabbro_rect,4,2.685,1,0,0,0,0,1,,,,,,,,,,,,,
5ac16e870527ba0001c1f27e,TCN,2024-06-11_12h46.31.732,LearnStrategy,2023.2.3,Win32,59.88023952,8,1,2,-0.051851852,0.017592593,1,0,0,0.9628,rock_grid_rect_2,1,02,-1,-1,0.963,-0.396296296,-0.230555556,1,0,0,2.5879,Andesite_rect,1,2.588,1,1,0,1,0,1,,,,,,,,,,,,,
5ac16e870527ba0001c1f27e,TCN,2024-06-11_12h46.31.732,LearnStrategy,2023.2.3,Win32,59.88023952,8,1,3,-0.022222222,-0.008333333,1,0,0,0.8823,rock_grid_rect_2,2,04,-1,-1,0.882,-0.092592593,-0.232407407,1,0,0,1.2344,Basalt_rect,2,1.234,1,2,0,2,0,1,,,,,,,,,,,,,
5ac16e870527ba0001c1f27e,TCN,2024-06-11_12h46.31.732,LearnStrategy,2023.2.3,Win32,59.88023952,8,1,4,-0.017592593,-0.003703704,1,0,0,0.7164,rock_grid_rect_2,2,12,-1,-1,0.716,0.324074074,-0.25,1,0,0,9.8533,Gabbro_rect,4,9.853,0,3,0,3,0,1,,,,,,,,,,,,,
5ac16e870527ba0001c1f27e,TCN,2024-06-11_12h46.31.732,LearnStrategy,2023.2.3,Win32,59.88023952,8,1,5,0.018518519,0.000925926,1,0,0,0.8745,rock_grid_rect_2,4,01,-1,-1,0.875,0.087037037,-0.249074074,1,0,0,2.3295,Diorite_rect,3,2.329,0,4,0,4,0,1,,,,,,,,,,,,,
5ac16e870527ba0001c1f27e,TCN,2024-06-11_12h46.31.732,LearnStrategy,2023.2.3,Win32,59.88023952,8,1,6,0,-0.00462963,1,0,0,0.8315,rock_grid_rect_2,5,12,-1,-1,0.832,-0.412962963,-0.380555556,1,0,0,1.1291,Obsidian_rect,5,1.129,1,5,0,5,0,1,,,,,,,,,,,,,
5ac16e870527ba0001c1f27e,TCN,2024-06-11_12h46.31.732,LearnStrategy,2023.2.3,Win32,59.88023952,8,1,7,-0.001851852,-0.008333333,1,0,0,0.799,rock_grid_rect_2,3,08,-1,-1,0.799,-0.365740741,-0.246296296,1,0,0,4.8522,Andesite_rect,1,4.852,0,6,0,6,0,1,,,,,,,,,,,,,
5ac16e870527ba0001c1f27e,TCN,2024-06-11_12h46.31.732,LearnStrategy,2023.2.3,Win32,59.88023952,8,1,8,0,-0.007407407,1,0,0,0.8156,rock_grid_rect_2,7,08,-1,-1,0.816,0.062037037,-0.401851852,1,0,0,1.9122,Peridotite_rect,7,1.912,1,7,0,7,0,1,,,,,,,,,,,,,
5ac16e870527ba0001c1f27e,TCN,2024-06-11_12h46.31.732,LearnStrategy,2023.2.3,Win32,59.88023952,8,1,9,0.013888889,0.010185185,1,0,0,0.7649,rock_grid_rect_2,6,05,-1,-1,0.765,-0.113888889,-0.393518519,1,0,0,4.3373,Pegmatite_rect,6,4.337,1,8,0,8,0,1,,,,,,,,,,,,,
5ac16e870527ba0001c1f27e,TCN,2024-06-11_12h46.31.732,LearnStrategy,2023.2.3,Win32,59.88023952,8,1,10,-0.010185185,0.002777778,1,0,0,0.8016,rock_grid_rect_2,7,15,-1,-1,0.802,0.133333333,-0.263888889,1,0,0,2.014,Diorite_rect,3,2.014,0,9,0,9,0,1,,,,,,,,,,,,,
5ac16e870527ba0001c1f27e,TCN,2024-06-11_12h46.31.732,LearnStrategy,2023.2.3,Win32,59.88023952,8,1,11,-0.012037037,0.005555556,1,0,0,0.681,rock_grid_rect_2,5,11,-1,-1,0.681,-0.35462963,-0.383333333,1,0,0,1.0703,Obsidian_rect,5,1.07,1,10,0,10,0,1,,,,,,,,,,,,,
5ac16e870527ba0001c1f27e,TCN,2024-06-11_12h46.31.732,LearnStrategy,2023.2.3,Win32,59.88023952,8,1,12,-0.003703704,0.001851852,1,0,0,0.7003,rock_grid_rect_2,8,05,-1,-1,0.7,0.358333333,-0.415740741,1,0,0,1.1301,Pumice_rect,8,1.13,1,11,0,11,0,1,,,,,,,,,,,,,
5ac16e870527ba0001c1f27e,TCN,2024-06-11_12h46.31.732,LearnStrategy,2023.2.3,Win32,59.88023952,8,1,13,0.002777778,-0.008333333,1,0,0,0.7908,rock_grid_rect_2,3,11,-1,-1,0.791,0.119444444,-0.238888889,1,0,0,2.5262,Diorite_rect,3,2.526,1,12,0,12,0,1,,,,,,,,,,,,,
5ac16e870527ba0001c1f27e,TCN,2024-06-11_12h46.31.732,LearnStrategy,2023.2.3,Win32,59.88023952,8,1,14,-0.018518519,-0.013888889,1,0,0,0.6651,rock_grid_rect_2,6,06,-1,-1,0.665,-0.093518519,-0.384259259,1,0,0,1.6623,Pegmatite_rect,6,1.662,1,13,0,13,0,1,,,,,,,,,,,,,
5ac16e870527ba0001c1f27e,TCN,2024-06-11_12h46.31.732,LearnStrategy,2023.2.3,Win32,59.88023952,8,1,15,-0.012037037,0.002777778,1,0,0,0.8328,rock_grid_rect_2,1,04,-1,-1,0.833,-0.378703704,-0.252777778,1,0,0,4.212,Andesite_rect,1,4.212,1,14,0,14,0,1,,,,,,,,,,,,,
5ac16e870527ba0001c1f27e,TCN,2024-06-11_12h46.31.732,LearnStrategy,2023.2.3,Win32,59.88023952,8,1,16,0.018518519,0.000925926,1,0,0,0.6318,rock_grid_rect_2,8,04,-1,-1,0.632,0.347222222,-0.408333333,1,0,0,1.196,Pumice_rect,8,1.196,1,15,0,15,0,1,,,,,,,,,,,,,
5ac16e870527ba0001c1f27e,TCN,2024-06-11_12h46.31.732,LearnStrategy,2023.2.3,Win32,59.88023952,8,2,1,,,,,,,,6,11,,,,,,,,,,,6,1.292,1,,,,,,-0.081481481,-0.4,1,0,0,1.2917,Pegmatite_rect,0,0,0,0,1,
5ac16e870527ba0001c1f27e,TCN,2024-06-11_12h46.31.732,LearnStrategy,2023.2.3,Win32,59.88023952,8,2,2,,,,,,,,2,08,,,,,,,,,,,2,1.245,1,,,,,,-0.080555556,-0.233333333,1,0,0,1.2449,Basalt_rect,1,0,1,0,1,
5ac16e870527ba0001c1f27e,TCN,2024-06-11_12h46.31.732,LearnStrategy,2023.2.3,Win32,59.88023952,8,2,3,,,,,,,,7,04,,,,,,,,,,,1,4.567,0,,,,,,-0.348148148,-0.244444444,1,0,0,4.5669,Andesite_rect,2,0,2,0,1,
5ac16e870527ba0001c1f27e,TCN,2024-06-11_12h46.31.732,LearnStrategy,2023.2.3,Win32,59.88023952,8,2,4,,,,,,,,4,10,,,,,,,,,,,2,2.695,0,,,,,,-0.111111111,-0.244444444,1,0,0,2.6948,Basalt_rect,3,0,3,0,1,
5ac16e870527ba0001c1f27e,TCN,2024-06-11_12h46.31.732,LearnStrategy,2023.2.3,Win32,59.88023952,8,2,5,,,,,,,,8,14,,,,,,,,,,,8,1.129,1,,,,,,0.340740741,-0.383333333,1,0,0,1.1289,Pumice_rect,4,0,4,0,1,
5ac16e870527ba0001c1f27e,TCN,2024-06-11_12h46.31.732,LearnStrategy,2023.2.3,Win32,59.88023952,8,2,6,,,,,,,,3,12,,,,,,,,,,,3,4.501,1,,,,,,0.121296296,-0.253703704,1,0,0,4.5006,Diorite_rect,5,0,5,0,1,
5ac16e870527ba0001c1f27e,TCN,2024-06-11_12h46.31.732,LearnStrategy,2023.2.3,Win32,59.88023952,8,2,7,,,,,,,,8,15,,,,,,,,,,,8,1.032,1,,,,,,0.348148148,-0.392592593,1,0,0,1.0315,Pumice_rect,6,0,6,0,1,
5ac16e870527ba0001c1f27e,TCN,2024-06-11_12h46.31.732,LearnStrategy,2023.2.3,Win32,59.88023952,8,2,8,,,,,,,,1,10,,,,,,,,,,,4,2.603,0,,,,,,0.399074074,-0.238888889,1,0,0,2.6032,Gabbro_rect,7,0,7,0,1,
5ac16e870527ba0001c1f27e,TCN,2024-06-11_12h46.31.732,LearnStrategy,2023.2.3,Win32,59.88023952,8,2,9,,,,,,,,4,11,,,,,,,,,,,2,0.936,0,,,,,,-0.124074074,-0.25462963,1,0,0,0.9358,Basalt_rect,8,0,8,0,1,
5ac16e870527ba0001c1f27e,TCN,2024-06-11_12h46.31.732,LearnStrategy,2023.2.3,Win32,59.88023952,8,2,10,,,,,,,,5,08,,,,,,,,,,,5,0.819,1,,,,,,-0.352777778,-0.387037037,1,0,0,0.8194,Obsidian_rect,9,0,9,0,1,
5ac16e870527ba0001c1f27e,TCN,2024-06-11_12h46.31.732,LearnStrategy,2023.2.3,Win32,59.88023952,8,2,11,,,,,,,,6,07,,,,,,,,,,,6,0.912,1,,,,,,-0.157407407,-0.389814815,1,0,0,0.9122,Pegmatite_rect,10,0,10,0,1,
5ac16e870527ba0001c1f27e,TCN,2024-06-11_12h46.31.732,LearnStrategy,2023.2.3,Win32,59.88023952,8,2,12,,,,,,,,1,16,,,,,,,,,,,3,4.216,0,,,,,,0.200925926,-0.248148148,1,0,0,4.2165,Diorite_rect,11,0,11,0,1,
5ac16e870527ba0001c1f27e,TCN,2024-06-11_12h46.31.732,LearnStrategy,2023.2.3,Win32,59.88023952,8,2,13,,,,,,,,5,09,,,,,,,,,,,5,1.103,1,,,,,,-0.363888889,-0.4,1,0,0,1.1029,Obsidian_rect,12,0,12,0,1,
5ac16e870527ba0001c1f27e,TCN,2024-06-11_12h46.31.732,LearnStrategy,2023.2.3,Win32,59.88023952,8,2,14,,,,,,,,3,16,,,,,,,,,,,3,5.133,1,,,,,,0.121296296,-0.256481481,1,0,0,5.1326,Diorite_rect,13,0,13,0,1,
5ac16e870527ba0001c1f27e,TCN,2024-06-11_12h46.31.732,LearnStrategy,2023.2.3,Win32,59.88023952,8,2,15,,,,,,,,7,14,,,,,,,,,,,7,1.963,1,,,,,,0.064814815,-0.388888889,1,0,0,1.9634,Peridotite_rect,14,0,14,0,1,
5ac16e870527ba0001c1f27e,TCN,2024-06-11_12h46.31.732,LearnStrategy,2023.2.3,Win32,59.88023952,8,2,16,,,,,,,,2,05,,,,,,,,,,,2,1.05,1,,,,,,-0.09537037,-0.256481481,1,0,0,1.0496,Basalt_rect,15,0,15,0,1,
5ac16e870527ba0001c1f27e,TCN,2024-06-11_12h46.31.732,LearnStrategy,2023.2.3,Win32,59.88023952,9,1,1,-0.062037037,0.005555556,1,0,0,2.8388,rock_grid_rect_2,8,08,-1,-1,2.839,0.416666667,-0.397222222,1,0,0,1.6798,Pumice_rect,8,1.68,1,0,0,0,0,1,,,,,,,,,,,,,
5ac16e870527ba0001c1f27e,TCN,2024-06-11_12h46.31.732,LearnStrategy,2023.2.3,Win32,59.88023952,9,1,2,0.025925926,0.008333333,1,0,0,1.0061,rock_grid_rect_2,6,10,-1,-1,1.006,0.12962963,-0.387962963,1,0,0,3.6787,Peridotite_rect,7,3.679,0,1,0,1,0,1,,,,,,,,,,,,,
5ac16e870527ba0001c1f27e,TCN,2024-06-11_12h46.31.732,LearnStrategy,2023.2.3,Win32,59.88023952,9,1,3,0.011111111,-0.007407407,1,0,0,1.1329,rock_grid_rect_2,1,06,-1,-1,1.133,0.077777778,-0.246296296,1,0,0,2.0716,Diorite_rect,3,2.072,0,2,0,2,0,1,,,,,,,,,,,,,
5ac16e870527ba0001c1f27e,TCN,2024-06-11_12h46.31.732,LearnStrategy,2023.2.3,Win32,59.88023952,9,1,4,-0.002777778,-0.006481481,1,0,0,0.8053,rock_grid_rect_2,4,16,-1,-1,0.805,0.356481481,-0.263888889,1,0,0,3.1397,Gabbro_rect,4,3.14,1,3,0,3,0,1,,,,,,,,,,,,,
5ac16e870527ba0001c1f27e,TCN,2024-06-11_12h46.31.732,LearnStrategy,2023.2.3,Win32,59.88023952,9,1,5,-0.001851852,0.003703704,1,0,0,0.782,rock_grid_rect_2,1,14,-1,-1,0.782,-0.075925926,-0.396296296,1,0,0,5.0683,Pegmatite_rect,6,5.068,0,4,0,4,0,1,,,,,,,,,,,,,
5ac16e870527ba0001c1f27e,TCN,2024-06-11_12h46.31.732,LearnStrategy,2023.2.3,Win32,59.88023952,9,1,6,-0.027777778,0,1,0,0,0.852,rock_grid_rect_2,7,13,-1,-1,0.852,0.125925926,-0.385185185,1,0,0,2.5448,Peridotite_rect,7,2.545,1,5,0,5,0,1,,,,,,,,,,,,,
5ac16e870527ba0001c1f27e,TCN,2024-06-11_12h46.31.732,LearnStrategy,2023.2.3,Win32,59.88023952,9,1,7,-0.015740741,-0.00462963,1,0,0,0.7486,rock_grid_rect_2,3,07,-1,-1,0.749,0.119444444,-0.250925926,1,0,0,2.7522,Diorite_rect,3,2.752,1,6,0,6,0,1,,,,,,,,,,,,,
5ac16e870527ba0001c1f27e,TCN,2024-06-11_12h46.31.732,LearnStrategy,2023.2.3,Win32,59.88023952,9,1,8,0.016666667,-0.006481481,1,0,0,0.6691,rock_grid_rect_2,2,06,-1,-1,0.669,-0.103703704,-0.240740741,1,0,0,1.5625,Basalt_rect,2,1.563,1,7,0,7,0,1,,,,,,,,,,,,,
5ac16e870527ba0001c1f27e,TCN,2024-06-11_12h46.31.732,LearnStrategy,2023.2.3,Win32,59.88023952,9,1,9,0.009259259,0.001851852,1,0,0,0.7268,rock_grid_rect_2,5,10,-1,-1,0.727,-0.376851852,-0.39537037,1,0,0,1.4196,Obsidian_rect,5,1.42,1,8,0,8,0,1,,,,,,,,,,,,,
5ac16e870527ba0001c1f27e,TCN,2024-06-11_12h46.31.732,LearnStrategy,2023.2.3,Win32,59.88023952,9,1,10,-0.030555556,-0.005555556,1,0,0,0.8223,rock_grid_rect_2,7,02,-1,-1,0.822,0.089814815,-0.25,1,0,0,2.2804,Diorite_rect,3,2.28,0,9,0,9,0,1,,,,,,,,,,,,,
5ac16e870527ba0001c1f27e,TCN,2024-06-11_12h46.31.732,LearnStrategy,2023.2.3,Win32,59.88023952,9,1,11,-0.005555556,-0.017592593,1,0,0,0.7485,rock_grid_rect_2,3,15,-1,-1,0.748,0.358333333,-0.247222222,1,0,0,3.6691,Gabbro_rect,4,3.669,0,10,0,10,0,1,,,,,,,,,,,,,
5ac16e870527ba0001c1f27e,TCN,2024-06-11_12h46.31.732,LearnStrategy,2023.2.3,Win32,59.88023952,9,1,12,0.027777778,0.001851852,1,0,0,0.7125,rock_grid_rect_2,2,14,-1,-1,0.713,0.349074074,-0.255555556,1,0,0,3.269,Gabbro_rect,4,3.269,0,11,0,11,0,1,,,,,,,,,,,,,
5ac16e870527ba0001c1f27e,TCN,2024-06-11_12h46.31.732,LearnStrategy,2023.2.3,Win32,59.88023952,9,1,13,0.026851852,0,1,0,0,0.6292,rock_grid_rect_2,5,14,-1,-1,0.629,-0.376851852,-0.398148148,1,0,0,1.1207,Obsidian_rect,5,1.121,1,12,0,12,0,1,,,,,,,,,,,,,
5ac16e870527ba0001c1f27e,TCN,2024-06-11_12h46.31.732,LearnStrategy,2023.2.3,Win32,59.88023952,9,1,14,0.007407407,0.006481481,1,0,0,0.7384,rock_grid_rect_2,8,16,-1,-1,0.738,0.368518519,-0.387037037,1,0,0,1.1965,Pumice_rect,8,1.197,1,13,0,13,0,1,,,,,,,,,,,,,
5ac16e870527ba0001c1f27e,TCN,2024-06-11_12h46.31.732,LearnStrategy,2023.2.3,Win32,59.88023952,9,1,15,0.013888889,-0.008333333,1,0,0,0.7673,rock_grid_rect_2,6,12,-1,-1,0.767,-0.161111111,-0.402777778,1,0,0,1.4617,Pegmatite_rect,6,1.462,1,14,0,14,0,1,,,,,,,,,,,,,
5ac16e870527ba0001c1f27e,TCN,2024-06-11_12h46.31.732,LearnStrategy,2023.2.3,Win32,59.88023952,9,1,16,0.018518519,0.002777778,1,0,0,0.7366,rock_grid_rect_2,4,14,-1,-1,0.737,-0.088888889,-0.238888889,1,0,0,2.5623,Basalt_rect,2,2.562,0,15,0,15,0,1,,,,,,,,,,,,,
5ac16e870527ba0001c1f27e,TCN,2024-06-11_12h46.31.732,LearnStrategy,2023.2.3,Win32,59.88023952,9,2,1,,,,,,,,8,10,,,,,,,,,,,8,3.953,1,,,,,,0.37037037,-0.396296296,1,0,0,3.9534,Pumice_rect,0,0,0,0,1,
5ac16e870527ba0001c1f27e,TCN,2024-06-11_12h46.31.732,LearnStrategy,2023.2.3,Win32,59.88023952,9,2,2,,,,,,,,7,07,,,,,,,,,,,3,4.885,0,,,,,,0.10462963,-0.248148148,1,0,0,4.8849,Diorite_rect,1,0,1,0,1,
5ac16e870527ba0001c1f27e,TCN,2024-06-11_12h46.31.732,LearnStrategy,2023.2.3,Win32,59.88023952,9,2,3,,,,,,,,3,14,,,,,,,,,,,3,2.037,1,,,,,,0.102777778,-0.268518519,1,0,0,2.0367,Diorite_rect,2,0,2,0,1,
5ac16e870527ba0001c1f27e,TCN,2024-06-11_12h46.31.732,LearnStrategy,2023.2.3,Win32,59.88023952,9,2,4,,,,,,,,8,02,,,,,,,,,,,8,1.132,1,,,,,,0.358333333,-0.409259259,1,0,0,1.1318,Pumice_rect,3,0,3,0,1,
5ac16e870527ba0001c1f27e,TCN,2024-06-11_12h46.31.732,LearnStrategy,2023.2.3,Win32,59.88023952,9,2,5,,,,,,,,5,06,,,,,,,,,,,5,1.2,1,,,,,,-0.428703704,-0.397222222,1,0,0,1.1995,Obsidian_rect,4,0,4,0,1,
5ac16e870527ba0001c1f27e,TCN,2024-06-11_12h46.31.732,LearnStrategy,2023.2.3,Win32,59.88023952,9,2,6,,,,,,,,6,03,,,,,,,,,,,6,0.981,1,,,,,,-0.142592593,-0.385185185,1,0,0,0.9805,Pegmatite_rect,5,0,5,0,1,
5ac16e870527ba0001c1f27e,TCN,2024-06-11_12h46.31.732,LearnStrategy,2023.2.3,Win32,59.88023952,9,2,7,,,,,,,,4,09,,,,,,,,,,,2,2.585,0,,,,,,-0.119444444,-0.235185185,1,0,0,2.5855,Basalt_rect,6,0,6,0,1,
5ac16e870527ba0001c1f27e,TCN,2024-06-11_12h46.31.732,LearnStrategy,2023.2.3,Win32,59.88023952,9,2,8,,,,,,,,2,16,,,,,,,,,,,4,4.898,0,,,,,,0.358333333,-0.240740741,1,0,0,4.8984,Gabbro_rect,7,0,7,0,1,
5ac16e870527ba0001c1f27e,TCN,2024-06-11_12h46.31.732,LearnStrategy,2023.2.3,Win32,59.88023952,9,2,9,,,,,,,,1,03,,,,,,,,,,,2,3.233,0,,,,,,-0.118518519,-0.249074074,1,0,0,3.2334,Basalt_rect,8,0,8,0,1,
5ac16e870527ba0001c1f27e,TCN,2024-06-11_12h46.31.732,LearnStrategy,2023.2.3,Win32,59.88023952,9,2,10,,,,,,,,3,13,,,,,,,,,,,1,5.24,0,,,,,,-0.355555556,-0.256481481,1,0,0,5.2401,Andesite_rect,9,0,9,0,1,
5ac16e870527ba0001c1f27e,TCN,2024-06-11_12h46.31.732,LearnStrategy,2023.2.3,Win32,59.88023952,9,2,11,,,,,,,,6,09,,,,,,,,,,,6,2.551,1,,,,,,-0.113888889,-0.392592593,1,0,0,2.5514,Pegmatite_rect,10,0,10,0,1,
5ac16e870527ba0001c1f27e,TCN,2024-06-11_12h46.31.732,LearnStrategy,2023.2.3,Win32,59.88023952,9,2,12,,,,,,,,4,13,,,,,,,,,,,4,2.394,1,,,,,,0.325925926,-0.25,1,0,0,2.3937,Gabbro_rect,11,0,11,0,1,
5ac16e870527ba0001c1f27e,TCN,2024-06-11_12h46.31.732,LearnStrategy,2023.2.3,Win32,59.88023952,9,2,13,,,,,,,,7,05,,,,,,,,,,,3,2.199,0,,,,,,0.087037037,-0.232407407,1,0,0,2.1994,Diorite_rect,12,0,12,0,1,
5ac16e870527ba0001c1f27e,TCN,2024-06-11_12h46.31.732,LearnStrategy,2023.2.3,Win32,59.88023952,9,2,14,,,,,,,,2,11,,,,,,,,,,,2,2.116,1,,,,,,-0.099074074,-0.265740741,1,0,0,2.1156,Basalt_rect,13,0,13,0,1,
5ac16e870527ba0001c1f27e,TCN,2024-06-11_12h46.31.732,LearnStrategy,2023.2.3,Win32,59.88023952,9,2,15,,,,,,,,1,01,,,,,,,,,,,2,2.862,0,,,,,,-0.093518519,-0.231481481,1,0,0,2.8618,Basalt_rect,14,0,14,0,1,
5ac16e870527ba0001c1f27e,TCN,2024-06-11_12h46.31.732,LearnStrategy,2023.2.3,Win32,59.88023952,9,2,16,,,,,,,,5,16,,,,,,,,,,,5,1.019,1,,,,,,-0.447222222,-0.412037037,1,0,0,1.0185,Obsidian_rect,15,0,15,0,1,
5ac16e870527ba0001c1f27e,TCN,2024-06-11_12h46.31.732,LearnStrategy,2023.2.3,Win32,59.88023952,,,,,,,,,,,,,,,,,,,,,,,,,,,,,,,,,,,,,,,,,,,0
5ac16e870527ba0001c1f27e,TCN,2024-06-11_12h46.31.732,LearnStrategy,2023.2.3,Win32,59.88023952,,,,,,,,,,,,,,,,,,,,,,,,,,,,,,,,,,,,,,,,,,,
5ac16e870527ba0001c1f27e,TCN,2024-06-11_12h46.31.732,LearnStrategy,2023.2.3,Win32,59.88023952,,,,,,,,,,,8,06,1,1,,,,,,,,,,,,,,,,,,,,,,,,,,,,,
5ac16e870527ba0001c1f27e,TCN,2024-06-11_12h46.31.732,LearnStrategy,2023.2.3,Win32,59.88023952,,,,,,,,,,,6,16,1,2,,,,,,,,,,,,,,,,,,,,,,,,,,,,,
5ac16e870527ba0001c1f27e,TCN,2024-06-11_12h46.31.732,LearnStrategy,2023.2.3,Win32,59.88023952,,,,,,,,,,,6,10,1,3,,,,,,,,,,,,,,,,,,,,,,,,,,,,,
5ac16e870527ba0001c1f27e,TCN,2024-06-11_12h46.31.732,LearnStrategy,2023.2.3,Win32,59.88023952,,,,,,,,,,,3,11,1,4,,,,,,,,,,,,,,,,,,,,,,,,,,,,,
5ac16e870527ba0001c1f27e,TCN,2024-06-11_12h46.31.732,LearnStrategy,2023.2.3,Win32,59.88023952,,,,,,,,,,,4,05,1,5,,,,,,,,,,,,,,,,,,,,,,,,,,,,,
5ac16e870527ba0001c1f27e,TCN,2024-06-11_12h46.31.732,LearnStrategy,2023.2.3,Win32,59.88023952,,,,,,,,,,,3,08,1,6,,,,,,,,,,,,,,,,,,,,,,,,,,,,,
5ac16e870527ba0001c1f27e,TCN,2024-06-11_12h46.31.732,LearnStrategy,2023.2.3,Win32,59.88023952,,,,,,,,,,,2,04,1,7,,,,,,,,,,,,,,,,,,,,,,,,,,,,,
5ac16e870527ba0001c1f27e,TCN,2024-06-11_12h46.31.732,LearnStrategy,2023.2.3,Win32,59.88023952,,,,,,,,,,,7,06,1,8,,,,,,,,,,,,,,,,,,,,,,,,,,,,,
5ac16e870527ba0001c1f27e,TCN,2024-06-11_12h46.31.732,LearnStrategy,2023.2.3,Win32,59.88023952,,,,,,,,,,,7,08,2,1,,,,,,,,,,,,,,,,,,,,,,,,,,,,,
5ac16e870527ba0001c1f27e,TCN,2024-06-11_12h46.31.732,LearnStrategy,2023.2.3,Win32,59.88023952,,,,,,,,,,,5,12,2,2,,,,,,,,,,,,,,,,,,,,,,,,,,,,,
5ac16e870527ba0001c1f27e,TCN,2024-06-11_12h46.31.732,LearnStrategy,2023.2.3,Win32,59.88023952,,,,,,,,,,,6,06,2,3,,,,,,,,,,,,,,,,,,,,,,,,,,,,,
5ac16e870527ba0001c1f27e,TCN,2024-06-11_12h46.31.732,LearnStrategy,2023.2.3,Win32,59.88023952,,,,,,,,,,,5,11,2,4,,,,,,,,,,,,,,,,,,,,,,,,,,,,,
5ac16e870527ba0001c1f27e,TCN,2024-06-11_12h46.31.732,LearnStrategy,2023.2.3,Win32,59.88023952,,,,,,,,,,,8,04,2,5,,,,,,,,,,,,,,,,,,,,,,,,,,,,,
5ac16e870527ba0001c1f27e,TCN,2024-06-11_12h46.31.732,LearnStrategy,2023.2.3,Win32,59.88023952,,,,,,,,,,,2,10,2,6,,,,,,,,,,,,,,,,,,,,,,,,,,,,,
5ac16e870527ba0001c1f27e,TCN,2024-06-11_12h46.31.732,LearnStrategy,2023.2.3,Win32,59.88023952,,,,,,,,,,,6,05,2,7,,,,,,,,,,,,,,,,,,,,,,,,,,,,,
5ac16e870527ba0001c1f27e,TCN,2024-06-11_12h46.31.732,LearnStrategy,2023.2.3,Win32,59.88023952,,,,,,,,,,,7,15,2,8,,,,,,,,,,,,,,,,,,,,,,,,,,,,,
5ac16e870527ba0001c1f27e,TCN,2024-06-11_12h46.31.732,LearnStrategy,2023.2.3,Win32,59.88023952,,,,,,,,,,,5,14,3,1,,,,,,,,,,,,,,,,,,,,,,,,,,,,,
5ac16e870527ba0001c1f27e,TCN,2024-06-11_12h46.31.732,LearnStrategy,2023.2.3,Win32,59.88023952,,,,,,,,,,,1,02,3,2,,,,,,,,,,,,,,,,,,,,,,,,,,,,,
5ac16e870527ba0001c1f27e,TCN,2024-06-11_12h46.31.732,LearnStrategy,2023.2.3,Win32,59.88023952,,,,,,,,,,,5,05,3,3,,,,,,,,,,,,,,,,,,,,,,,,,,,,,
5ac16e870527ba0001c1f27e,TCN,2024-06-11_12h46.31.732,LearnStrategy,2023.2.3,Win32,59.88023952,,,,,,,,,,,7,10,3,4,,,,,,,,,,,,,,,,,,,,,,,,,,,,,
5ac16e870527ba0001c1f27e,TCN,2024-06-11_12h46.31.732,LearnStrategy,2023.2.3,Win32,59.88023952,,,,,,,,,,,4,14,3,5,,,,,,,,,,,,,,,,,,,,,,,,,,,,,
5ac16e870527ba0001c1f27e,TCN,2024-06-11_12h46.31.732,LearnStrategy,2023.2.3,Win32,59.88023952,,,,,,,,,,,4,01,3,6,,,,,,,,,,,,,,,,,,,,,,,,,,,,,
5ac16e870527ba0001c1f27e,TCN,2024-06-11_12h46.31.732,LearnStrategy,2023.2.3,Win32,59.88023952,,,,,,,,,,,7,02,3,7,,,,,,,,,,,,,,,,,,,,,,,,,,,,,
5ac16e870527ba0001c1f27e,TCN,2024-06-11_12h46.31.732,LearnStrategy,2023.2.3,Win32,59.88023952,,,,,,,,,,,1,06,3,8,,,,,,,,,,,,,,,,,,,,,,,,,,,,,
5ac16e870527ba0001c1f27e,TCN,2024-06-11_12h46.31.732,LearnStrategy,2023.2.3,Win32,59.88023952,,,,,,,,,,,6,08,4,1,,,,,,,,,,,,,,,,,,,,,,,,,,,,,
5ac16e870527ba0001c1f27e,TCN,2024-06-11_12h46.31.732,LearnStrategy,2023.2.3,Win32,59.88023952,,,,,,,,,,,2,06,4,2,,,,,,,,,,,,,,,,,,,,,,,,,,,,,
5ac16e870527ba0001c1f27e,TCN,2024-06-11_12h46.31.732,LearnStrategy,2023.2.3,Win32,59.88023952,,,,,,,,,,,2,09,4,3,,,,,,,,,,,,,,,,,,,,,,,,,,,,,
5ac16e870527ba0001c1f27e,TCN,2024-06-11_12h46.31.732,LearnStrategy,2023.2.3,Win32,59.88023952,,,,,,,,,,,3,15,4,4,,,,,,,,,,,,,,,,,,,,,,,,,,,,,
5ac16e870527ba0001c1f27e,TCN,2024-06-11_12h46.31.732,LearnStrategy,2023.2.3,Win32,59.88023952,,,,,,,,,,,2,12,4,5,,,,,,,,,,,,,,,,,,,,,,,,,,,,,
5ac16e870527ba0001c1f27e,TCN,2024-06-11_12h46.31.732,LearnStrategy,2023.2.3,Win32,59.88023952,,,,,,,,,,,2,14,4,6,,,,,,,,,,,,,,,,,,,,,,,,,,,,,
5ac16e870527ba0001c1f27e,TCN,2024-06-11_12h46.31.732,LearnStrategy,2023.2.3,Win32,59.88023952,,,,,,,,,,,3,10,4,7,,,,,,,,,,,,,,,,,,,,,,,,,,,,,
5ac16e870527ba0001c1f27e,TCN,2024-06-11_12h46.31.732,LearnStrategy,2023.2.3,Win32,59.88023952,,,,,,,,,,,6,12,4,8,,,,,,,,,,,,,,,,,,,,,,,,,,,,,
5ac16e870527ba0001c1f27e,TCN,2024-06-11_12h46.31.732,LearnStrategy,2023.2.3,Win32,59.88023952,,,,,,,,,,,1,04,5,1,,,,,,,,,,,,,,,,,,,,,,,,,,,,,
5ac16e870527ba0001c1f27e,TCN,2024-06-11_12h46.31.732,LearnStrategy,2023.2.3,Win32,59.88023952,,,,,,,,,,,8,13,5,2,,,,,,,,,,,,,,,,,,,,,,,,,,,,,
5ac16e870527ba0001c1f27e,TCN,2024-06-11_12h46.31.732,LearnStrategy,2023.2.3,Win32,59.88023952,,,,,,,,,,,1,09,5,3,,,,,,,,,,,,,,,,,,,,,,,,,,,,,
5ac16e870527ba0001c1f27e,TCN,2024-06-11_12h46.31.732,LearnStrategy,2023.2.3,Win32,59.88023952,,,,,,,,,,,5,04,5,4,,,,,,,,,,,,,,,,,,,,,,,,,,,,,
5ac16e870527ba0001c1f27e,TCN,2024-06-11_12h46.31.732,LearnStrategy,2023.2.3,Win32,59.88023952,,,,,,,,,,,4,03,5,5,,,,,,,,,,,,,,,,,,,,,,,,,,,,,
5ac16e870527ba0001c1f27e,TCN,2024-06-11_12h46.31.732,LearnStrategy,2023.2.3,Win32,59.88023952,,,,,,,,,,,1,14,5,6,,,,,,,,,,,,,,,,,,,,,,,,,,,,,
5ac16e870527ba0001c1f27e,TCN,2024-06-11_12h46.31.732,LearnStrategy,2023.2.3,Win32,59.88023952,,,,,,,,,,,3,07,5,7,,,,,,,,,,,,,,,,,,,,,,,,,,,,,
5ac16e870527ba0001c1f27e,TCN,2024-06-11_12h46.31.732,LearnStrategy,2023.2.3,Win32,59.88023952,,,,,,,,,,,7,13,5,8,,,,,,,,,,,,,,,,,,,,,,,,,,,,,
5ac16e870527ba0001c1f27e,TCN,2024-06-11_12h46.31.732,LearnStrategy,2023.2.3,Win32,59.88023952,,,,,,,,,,,3,02,6,1,,,,,,,,,,,,,,,,,,,,,,,,,,,,,
5ac16e870527ba0001c1f27e,TCN,2024-06-11_12h46.31.732,LearnStrategy,2023.2.3,Win32,59.88023952,,,,,,,,,,,4,16,6,2,,,,,,,,,,,,,,,,,,,,,,,,,,,,,
5ac16e870527ba0001c1f27e,TCN,2024-06-11_12h46.31.732,LearnStrategy,2023.2.3,Win32,59.88023952,,,,,,,,,,,8,05,6,3,,,,,,,,,,,,,,,,,,,,,,,,,,,,,
5ac16e870527ba0001c1f27e,TCN,2024-06-11_12h46.31.732,LearnStrategy,2023.2.3,Win32,59.88023952,,,,,,,,,,,4,08,6,4,,,,,,,,,,,,,,,,,,,,,,,,,,,,,
5ac16e870527ba0001c1f27e,TCN,2024-06-11_12h46.31.732,LearnStrategy,2023.2.3,Win32,59.88023952,,,,,,,,,,,1,11,6,5,,,,,,,,,,,,,,,,,,,,,,,,,,,,,
5ac16e870527ba0001c1f27e,TCN,2024-06-11_12h46.31.732,LearnStrategy,2023.2.3,Win32,59.88023952,,,,,,,,,,,8,16,6,6,,,,,,,,,,,,,,,,,,,,,,,,,,,,,
5ac16e870527ba0001c1f27e,TCN,2024-06-11_12h46.31.732,LearnStrategy,2023.2.3,Win32,59.88023952,,,,,,,,,,,8,08,6,7,,,,,,,,,,,,,,,,,,,,,,,,,,,,,
5ac16e870527ba0001c1f27e,TCN,2024-06-11_12h46.31.732,LearnStrategy,2023.2.3,Win32,59.88023952,,,,,,,,,,,5,10,6,8,,,,,,,,,,,,,,,,,,,,,,,,,,,,,