participant,condition,date,expName,psychopyVersion,OS,frameRate,block,phase,trial,learn_mouse_2.x,learn_mouse_2.y,learn_mouse_2.leftButton,learn_mouse_2.midButton,learn_mouse_2.rightButton,learn_mouse_2.time,learn_mouse_2.clicked_name,cat,token,row,col,t_select,cat_mouse_l.x,cat_mouse_l.y,cat_mouse_l.leftButton,cat_mouse_l.midButton,cat_mouse_l.rightButton,cat_mouse_l.time,cat_mouse_l.clicked_name,resp,t_resp,corr,train_trials.thisRepN,train_trials.thisTrialN,train_trials.thisN,train_trials.thisIndex,train_trials.ran,cat_mouse_t.x,cat_mouse_t.y,cat_mouse_t.leftButton,cat_mouse_t.midButton,cat_mouse_t.rightButton,cat_mouse_t.time,cat_mouse_t.clicked_name,test_trials.thisRepN,test_trials.thisTrialN,test_trials.thisN,test_trials.thisIndex,test_trials.ran
5aec7e89ae13140001fc0cdf,TCR,2024-06-10_14h07.30.673,LearnStrategy,2023.2.3,Linux x86_64,59.88023952,,,,,,,,,,,,,,,,,,,,,,,,,,,,,,,,,,,,,,,,,,
5aec7e89ae13140001fc0cdf,TCR,2024-06-10_14h07.30.673,LearnStrategy,2023.2.3,Linux x86_64,59.88023952,1,1,1,-0.051000317,0.003678944,1,0,0,3.3442,rock_grid_rect_2,7,06,-1,-1,3.344,-0.141748563,-0.238364206,1,0,0,5.3517,Basalt_rect,2,5.352,0,0,0,0,0,1,,,,,,,,,,,,
5aec7e89ae13140001fc0cdf,TCR,2024-06-10_14h07.30.673,LearnStrategy,2023.2.3,Linux x86_64,59.88023952,1,1,2,0.071441006,-0.005069142,1,0,0,1.5786,rock_grid_rect_2,4,12,-1,-1,1.579,0.124127527,-0.25973654,1,0,0,5.6569,Diorite_rect,3,5.657,0,1,0,1,0,1,,,,,,,,,,,,
5aec7e89ae13140001fc0cdf,TCR,2024-06-10_14h07.30.673,LearnStrategy,2023.2.3,Linux x86_64,59.88023952,1,1,3,0.068426714,0.001626888,1,0,0,1.6416,rock_grid_rect_2,8,05,-1,-1,1.642,0.435767232,-0.405287622,1,0,0,4.6703,Pumice_rect,8,4.67,1,2,0,2,0,1,,,,,,,,,,,,
5aec7e89ae13140001fc0cdf,TCR,2024-06-10_14h07.30.673,LearnStrategy,2023.2.3,Linux x86_64,59.88023952,1,1,4,-0.003838123,-0.01205627,1,0,0,1.8103,rock_grid_rect_2,3,06,-1,-1,1.81,0.077242283,-0.412266118,1,0,0,2.551,Peridotite_rect,7,2.551,0,3,0,3,0,1,,,,,,,,,,,,
5aec7e89ae13140001fc0cdf,TCR,2024-06-10_14h07.30.673,LearnStrategy,2023.2.3,Linux x86_64,59.88023952,1,1,5,0.036184463,-0.00579089,1,0,0,1.2914,rock_grid_rect_2,1,03,-1,-1,1.291,-0.349770667,-0.402241237,1,0,0,4.7772,Obsidian_rect,5,4.777,0,4,0,4,0,1,,,,,,,,,,,,
5aec7e89ae13140001fc0cdf,TCR,2024-06-10_14h07.30.673,LearnStrategy,2023.2.3,Linux x86_64,59.88023952,1,1,6,0.047832722,-0.020432521,1,0,0,1.9424,rock_grid_rect_2,4,16,-1,-1,1.942,-0.115927898,-0.244412704,1,0,0,5.7809,Basalt_rect,2,5.781,0,5,0,5,0,1,,,,,,,,,,,,
5aec7e89ae13140001fc0cdf,TCR,2024-06-10_14h07.30.673,LearnStrategy,2023.2.3,Linux x86_64,59.88023952,1,1,7,0.090751111,-0.010351011,1,0,0,1.3084,rock_grid_rect_2,2,09,-1,-1,1.308,0.319080335,-0.254742618,1,0,0,2.7236,Gabbro_rect,4,2.724,0,6,0,6,0,1,,,,,,,,,,,,
5aec7e89ae13140001fc0cdf,TCR,2024-06-10_14h07.30.673,LearnStrategy,2023.2.3,Linux x86_64,59.88023952,1,1,8,0.045255849,-0.011942581,1,0,0,1.2188,rock_grid_rect_2,7,05,-1,-1,1.219,0.097588194,-0.390220176,1,0,0,3,Peridotite_rect,7,3,1,7,0,7,0,1,,,,,,,,,,,,
5aec7e89ae13140001fc0cdf,TCR,2024-06-10_14h07.30.673,LearnStrategy,2023.2.3,Linux x86_64,59.88023952,1,1,9,0.062164092,0.003069954,1,0,0,1.2096,rock_grid_rect_2,3,10,-1,-1,1.21,0.082660227,-0.233018257,1,0,0,2.5161,Diorite_rect,3,2.516,1,8,0,8,0,1,,,,,,,,,,,,
5aec7e89ae13140001fc0cdf,TCR,2024-06-10_14h07.30.673,LearnStrategy,2023.2.3,Linux x86_64,59.88023952,1,1,10,-0.026583175,0.012183033,1,0,0,1.1775,rock_grid_rect_2,6,08,-1,-1,1.177,-0.107896545,-0.401092816,1,0,0,4.385,Pegmatite_rect,6,4.385,1,9,0,9,0,1,,,,,,,,,,,,
5aec7e89ae13140001fc0cdf,TCR,2024-06-10_14h07.30.673,LearnStrategy,2023.2.3,Linux x86_64,59.88023952,1,1,11,0.060312979,-0.000939562,1,0,0,1.7262,rock_grid_rect_2,6,03,-1,-1,1.726,0.128486597,-0.397571259,1,0,0,4.1914,Peridotite_rect,7,4.191,0,10,0,10,0,1,,,,,,,,,,,,
5aec7e89ae13140001fc0cdf,TCR,2024-06-10_14h07.30.673,LearnStrategy,2023.2.3,Linux x86_64,59.88023952,1,1,12,0.116281429,-0.017667744,1,0,0,3.0932,rock_grid_rect_2,1,06,-1,-1,3.093,0.099507721,-0.24318978,1,0,0,4.4319,Diorite_rect,3,4.432,0,11,0,11,0,1,,,,,,,,,,,,
5aec7e89ae13140001fc0cdf,TCR,2024-06-10_14h07.30.673,LearnStrategy,2023.2.3,Linux x86_64,59.88023952,1,1,13,0.072918529,-0.0025984,1,0,0,1.3756,rock_grid_rect_2,5,16,-1,-1,1.376,-0.381034994,-0.381831496,1,0,0,1.3791,Obsidian_rect,5,1.379,1,12,0,12,0,1,,,,,,,,,,,,
5aec7e89ae13140001fc0cdf,TCR,2024-06-10_14h07.30.673,LearnStrategy,2023.2.3,Linux x86_64,59.88023952,1,1,14,0.00430391,0.007142653,1,0,0,1.642,rock_grid_rect_2,5,06,-1,-1,1.642,-0.431729456,-0.416913744,1,0,0,3.6543,Obsidian_rect,5,3.654,1,13,0,13,0,1,,,,,,,,,,,,
5aec7e89ae13140001fc0cdf,TCR,2024-06-10_14h07.30.673,LearnStrategy,2023.2.3,Linux x86_64,59.88023952,1,1,15,0.113596885,-0.015400202,1,0,0,1.3256,rock_grid_rect_2,8,06,-1,-1,1.326,0.431644637,-0.397816045,1,0,0,2.2178,Pumice_rect,8,2.218,1,14,0,14,0,1,,,,,,,,,,,,
5aec7e89ae13140001fc0cdf,TCR,2024-06-10_14h07.30.673,LearnStrategy,2023.2.3,Linux x86_64,59.88023952,1,1,16,0.073951542,-0.008402721,1,0,0,0.9772,rock_grid_rect_2,2,04,-1,-1,0.977,-0.136454408,-0.251490347,1,0,0,3.5178,Basalt_rect,2,3.518,1,15,0,15,0,1,,,,,,,,,,,,
5aec7e89ae13140001fc0cdf,TCR,2024-06-10_14h07.30.673,LearnStrategy,2023.2.3,Linux x86_64,59.88023952,1,2,1,,,,,,,,3,02,,,,,,,,,,,3,4.58,1,,,,,,0.160745468,-0.236790975,1,0,0,4.5799,Diorite_rect,0,0,0,0,1
5aec7e89ae13140001fc0cdf,TCR,2024-06-10_14h07.30.673,LearnStrategy,2023.2.3,Linux x86_64,59.88023952,1,2,2,,,,,,,,3,15,,,,,,,,,,,7,1.997,0,,,,,,0.132104578,-0.39786354,1,0,0,1.9968,Peridotite_rect,1,0,1,0,1
5aec7e89ae13140001fc0cdf,TCR,2024-06-10_14h07.30.673,LearnStrategy,2023.2.3,Linux x86_64,59.88023952,1,2,3,,,,,,,,6,15,,,,,,,,,,,6,2.84,1,,,,,,-0.056776665,-0.393932432,1,0,0,2.8396,Pegmatite_rect,2,0,2,0,1
5aec7e89ae13140001fc0cdf,TCR,2024-06-10_14h07.30.673,LearnStrategy,2023.2.3,Linux x86_64,59.88023952,1,2,4,,,,,,,,5,07,,,,,,,,,,,5,1.299,1,,,,,,-0.362970773,-0.39128822,1,0,0,1.2993,Obsidian_rect,3,0,3,0,1
5aec7e89ae13140001fc0cdf,TCR,2024-06-10_14h07.30.673,LearnStrategy,2023.2.3,Linux x86_64,59.88023952,1,2,5,,,,,,,,5,14,,,,,,,,,,,5,0.847,1,,,,,,-0.356626663,-0.400803973,1,0,0,0.8469,Obsidian_rect,4,0,4,0,1
5aec7e89ae13140001fc0cdf,TCR,2024-06-10_14h07.30.673,LearnStrategy,2023.2.3,Linux x86_64,59.88023952,1,2,6,,,,,,,,1,14,,,,,,,,,,,7,6.507,0,,,,,,0.076883952,-0.393828988,1,0,0,6.5067,Peridotite_rect,5,0,5,0,1
5aec7e89ae13140001fc0cdf,TCR,2024-06-10_14h07.30.673,LearnStrategy,2023.2.3,Linux x86_64,59.88023952,1,2,7,,,,,,,,7,08,,,,,,,,,,,7,1.357,1,,,,,,0.075826654,-0.393828988,1,0,0,1.3572,Peridotite_rect,6,0,6,0,1
5aec7e89ae13140001fc0cdf,TCR,2024-06-10_14h07.30.673,LearnStrategy,2023.2.3,Linux x86_64,59.88023952,1,2,8,,,,,,,,6,07,,,,,,,,,,,6,1.909,1,,,,,,-0.072720953,-0.39163516,1,0,0,1.9085,Pegmatite_rect,7,0,7,0,1
5aec7e89ae13140001fc0cdf,TCR,2024-06-10_14h07.30.673,LearnStrategy,2023.2.3,Linux x86_64,59.88023952,1,2,9,,,,,,,,2,08,,,,,,,,,,,6,0.744,0,,,,,,-0.070606357,-0.392480913,1,0,0,0.7436,Pegmatite_rect,8,0,8,0,1
5aec7e89ae13140001fc0cdf,TCR,2024-06-10_14h07.30.673,LearnStrategy,2023.2.3,Linux x86_64,59.88023952,1,2,10,,,,,,,,7,16,,,,,,,,,,,4,3.665,0,,,,,,0.349138573,-0.262782782,1,0,0,3.6647,Gabbro_rect,9,0,9,0,1
5aec7e89ae13140001fc0cdf,TCR,2024-06-10_14h07.30.673,LearnStrategy,2023.2.3,Linux x86_64,59.88023952,1,2,11,,,,,,,,2,05,,,,,,,,,,,2,3.696,1,,,,,,-0.128701797,-0.24589689,1,0,0,3.6962,Basalt_rect,10,0,10,0,1
5aec7e89ae13140001fc0cdf,TCR,2024-06-10_14h07.30.673,LearnStrategy,2023.2.3,Linux x86_64,59.88023952,1,2,12,,,,,,,,8,03,,,,,,,,,,,8,2.006,1,,,,,,0.402503645,-0.411238335,1,0,0,2.006,Pumice_rect,11,0,11,0,1
5aec7e89ae13140001fc0cdf,TCR,2024-06-10_14h07.30.673,LearnStrategy,2023.2.3,Linux x86_64,59.88023952,1,2,13,,,,,,,,4,09,,,,,,,,,,,4,3.338,1,,,,,,0.371120256,-0.258912566,1,0,0,3.3378,Gabbro_rect,12,0,12,0,1
5aec7e89ae13140001fc0cdf,TCR,2024-06-10_14h07.30.673,LearnStrategy,2023.2.3,Linux x86_64,59.88023952,1,2,14,,,,,,,,1,09,,,,,,,,,,,1,4.972,1,,,,,,-0.413135224,-0.250603689,1,0,0,4.9719,Andesite_rect,13,0,13,0,1
5aec7e89ae13140001fc0cdf,TCR,2024-06-10_14h07.30.673,LearnStrategy,2023.2.3,Linux x86_64,59.88023952,1,2,15,,,,,,,,4,13,,,,,,,,,,,7,5.437,0,,,,,,0.062924022,-0.388827042,1,0,0,5.4371,Peridotite_rect,14,0,14,0,1
5aec7e89ae13140001fc0cdf,TCR,2024-06-10_14h07.30.673,LearnStrategy,2023.2.3,Linux x86_64,59.88023952,1,2,16,,,,,,,,8,09,,,,,,,,,,,8,2.651,1,,,,,,0.31723266,-0.414388451,1,0,0,2.6511,Pumice_rect,15,0,15,0,1
5aec7e89ae13140001fc0cdf,TCR,2024-06-10_14h07.30.673,LearnStrategy,2023.2.3,Linux x86_64,59.88023952,2,1,1,0.01161552,0.005441764,1,0,0,1.2621,rock_grid_rect_2,1,16,-1,-1,1.262,0.104270541,-0.24267442,1,0,0,4.4832,Diorite_rect,3,4.483,0,0,0,0,0,1,,,,,,,,,,,,
5aec7e89ae13140001fc0cdf,TCR,2024-06-10_14h07.30.673,LearnStrategy,2023.2.3,Linux x86_64,59.88023952,2,1,2,0.042271287,0.003966748,1,0,0,1.8104,rock_grid_rect_2,6,08,-1,-1,1.81,-0.104304855,-0.414548632,1,0,0,1.7646,Pegmatite_rect,6,1.765,1,1,0,1,0,1,,,,,,,,,,,,
5aec7e89ae13140001fc0cdf,TCR,2024-06-10_14h07.30.673,LearnStrategy,2023.2.3,Linux x86_64,59.88023952,2,1,3,0.072807563,0.009224762,1,0,0,0.9104,rock_grid_rect_2,2,01,-1,-1,0.91,-0.133629669,-0.242068582,1,0,0,2.3509,Basalt_rect,2,2.351,1,2,0,2,0,1,,,,,,,,,,,,
5aec7e89ae13140001fc0cdf,TCR,2024-06-10_14h07.30.673,LearnStrategy,2023.2.3,Linux x86_64,59.88023952,2,1,4,0.000186472,0.006365172,1,0,0,1.0933,rock_grid_rect_2,4,11,-1,-1,1.093,0.155301376,-0.244406329,1,0,0,2.7036,Diorite_rect,3,2.704,0,3,0,3,0,1,,,,,,,,,,,,
5aec7e89ae13140001fc0cdf,TCR,2024-06-10_14h07.30.673,LearnStrategy,2023.2.3,Linux x86_64,59.88023952,2,1,5,0.071992973,0.0095904,1,0,0,1.2609,rock_grid_rect_2,2,09,-1,-1,1.261,-0.095304749,-0.25431616,1,0,0,1.5808,Basalt_rect,2,1.581,1,4,0,4,0,1,,,,,,,,,,,,
5aec7e89ae13140001fc0cdf,TCR,2024-06-10_14h07.30.673,LearnStrategy,2023.2.3,Linux x86_64,59.88023952,2,1,6,0.032041021,-0.000749006,1,0,0,2.6243,rock_grid_rect_2,8,13,-1,-1,2.624,0.319644552,-0.409867336,1,0,0,1.5331,Pumice_rect,8,1.533,1,5,0,5,0,1,,,,,,,,,,,,
5aec7e89ae13140001fc0cdf,TCR,2024-06-10_14h07.30.673,LearnStrategy,2023.2.3,Linux x86_64,59.88023952,2,1,7,0.080772866,0.018368824,1,0,0,0.9255,rock_grid_rect_2,4,15,-1,-1,0.925,-0.423412484,-0.239330095,1,0,0,3.5708,Andesite_rect,1,3.571,0,6,0,6,0,1,,,,,,,,,,,,
5aec7e89ae13140001fc0cdf,TCR,2024-06-10_14h07.30.673,LearnStrategy,2023.2.3,Linux x86_64,59.88023952,2,1,8,0.100915255,0.001127073,1,0,0,1.9095,rock_grid_rect_2,7,02,-1,-1,1.909,0.136934665,-0.400662418,1,0,0,2.4327,Peridotite_rect,7,2.433,1,7,0,7,0,1,,,,,,,,,,,,
5aec7e89ae13140001fc0cdf,TCR,2024-06-10_14h07.30.673,LearnStrategy,2023.2.3,Linux x86_64,59.88023952,2,1,9,0.095362775,0.013364084,1,0,0,1.0102,rock_grid_rect_2,4,12,-1,-1,1.01,0.435297433,-0.263996894,1,0,0,3.7779,Gabbro_rect,4,3.778,1,8,0,8,0,1,,,,,,,,,,,,
5aec7e89ae13140001fc0cdf,TCR,2024-06-10_14h07.30.673,LearnStrategy,2023.2.3,Linux x86_64,59.88023952,2,1,10,0.001038529,0.011678167,1,0,0,1.5101,rock_grid_rect_2,7,07,-1,-1,1.51,0.106194868,-0.398832724,1,0,0,2.3043,Peridotite_rect,7,2.304,1,9,0,9,0,1,,,,,,,,,,,,
5aec7e89ae13140001fc0cdf,TCR,2024-06-10_14h07.30.673,LearnStrategy,2023.2.3,Linux x86_64,59.88023952,2,1,11,0.00903614,0.006887982,1,0,0,1.1772,rock_grid_rect_2,5,10,-1,-1,1.177,-0.397645583,-0.403713101,1,0,0,2.0204,Obsidian_rect,5,2.02,1,10,0,10,0,1,,,,,,,,,,,,
5aec7e89ae13140001fc0cdf,TCR,2024-06-10_14h07.30.673,LearnStrategy,2023.2.3,Linux x86_64,59.88023952,2,1,12,-0.003839412,-0.014076484,1,0,0,1.0927,rock_grid_rect_2,1,03,-1,-1,1.093,-0.115629671,-0.235433229,1,0,0,1.3348,Basalt_rect,2,1.335,0,11,0,11,0,1,,,,,,,,,,,,
5aec7e89ae13140001fc0cdf,TCR,2024-06-10_14h07.30.673,LearnStrategy,2023.2.3,Linux x86_64,59.88023952,2,1,13,-0.030082237,-0.016542891,1,0,0,1.3273,rock_grid_rect_2,3,16,-1,-1,1.327,-0.340858746,-0.254185636,1,0,0,1.7724,Andesite_rect,1,1.772,0,12,0,12,0,1,,,,,,,,,,,,
5aec7e89ae13140001fc0cdf,TCR,2024-06-10_14h07.30.673,LearnStrategy,2023.2.3,Linux x86_64,59.88023952,2,1,14,0.093431213,-0.014608356,1,0,0,1.0766,rock_grid_rect_2,7,02,-1,-1,1.077,0.100196373,-0.414428066,1,0,0,1.3241,Peridotite_rect,7,1.324,1,13,0,13,0,1,,,,,,,,,,,,
5aec7e89ae13140001fc0cdf,TCR,2024-06-10_14h07.30.673,LearnStrategy,2023.2.3,Linux x86_64,59.88023952,2,1,15,0.025475372,-0.010282454,1,0,0,1.2765,rock_grid_rect_2,3,13,-1,-1,1.276,-0.404284518,-0.259516756,1,0,0,6.0825,Andesite_rect,1,6.082,0,14,0,14,0,1,,,,,,,,,,,,
5aec7e89ae13140001fc0cdf,TCR,2024-06-10_14h07.30.673,LearnStrategy,2023.2.3,Linux x86_64,59.88023952,2,1,16,0.086309872,-0.008896734,1,0,0,2.3422,rock_grid_rect_2,3,13,-1,-1,2.342,0.137123287,-0.247776372,1,0,0,1.237,Diorite_rect,3,1.237,1,15,0,15,0,1,,,,,,,,,,,,
5aec7e89ae13140001fc0cdf,TCR,2024-06-10_14h07.30.673,LearnStrategy,2023.2.3,Linux x86_64,59.88023952,2,2,1,,,,,,,,4,14,,,,,,,,,,,4,4.904,1,,,,,,0.344220229,-0.255745543,1,0,0,4.9035,Gabbro_rect,0,0,0,0,1
5aec7e89ae13140001fc0cdf,TCR,2024-06-10_14h07.30.673,LearnStrategy,2023.2.3,Linux x86_64,59.88023952,2,2,2,,,,,,,,5,12,,,,,,,,,,,5,1.537,1,,,,,,-0.461804815,-0.411140334,1,0,0,1.5368,Obsidian_rect,1,0,1,0,1
5aec7e89ae13140001fc0cdf,TCR,2024-06-10_14h07.30.673,LearnStrategy,2023.2.3,Linux x86_64,59.88023952,2,2,3,,,,,,,,4,08,,,,,,,,,,,4,3.409,1,,,,,,0.33995092,-0.235333868,1,0,0,3.4092,Gabbro_rect,2,0,2,0,1
5aec7e89ae13140001fc0cdf,TCR,2024-06-10_14h07.30.673,LearnStrategy,2023.2.3,Linux x86_64,59.88023952,2,2,4,,,,,,,,2,02,,,,,,,,,,,1,3.216,0,,,,,,-0.422446667,-0.235148757,1,0,0,3.2155,Andesite_rect,3,0,3,0,1
5aec7e89ae13140001fc0cdf,TCR,2024-06-10_14h07.30.673,LearnStrategy,2023.2.3,Linux x86_64,59.88023952,2,2,5,,,,,,,,5,09,,,,,,,,,,,5,2.265,1,,,,,,-0.384611712,-0.397476196,1,0,0,2.2647,Obsidian_rect,4,0,4,0,1
5aec7e89ae13140001fc0cdf,TCR,2024-06-10_14h07.30.673,LearnStrategy,2023.2.3,Linux x86_64,59.88023952,2,2,6,,,,,,,,8,16,,,,,,,,,,,8,1.32,1,,,,,,0.320086842,-0.390788763,1,0,0,1.3198,Pumice_rect,5,0,5,0,1
5aec7e89ae13140001fc0cdf,TCR,2024-06-10_14h07.30.673,LearnStrategy,2023.2.3,Linux x86_64,59.88023952,2,2,7,,,,,,,,1,05,,,,,,,,,,,3,4.316,0,,,,,,0.191888227,-0.262741805,1,0,0,4.3155,Diorite_rect,6,0,6,0,1
5aec7e89ae13140001fc0cdf,TCR,2024-06-10_14h07.30.673,LearnStrategy,2023.2.3,Linux x86_64,59.88023952,2,2,8,,,,,,,,7,15,,,,,,,,,,,7,2.077,1,,,,,,0.160427828,-0.388007939,1,0,0,2.0775,Peridotite_rect,7,0,7,0,1
5aec7e89ae13140001fc0cdf,TCR,2024-06-10_14h07.30.673,LearnStrategy,2023.2.3,Linux x86_64,59.88023952,2,2,9,,,,,,,,6,10,,,,,,,,,,,6,1.577,1,,,,,,-0.149430467,-0.404830646,1,0,0,1.5767,Pegmatite_rect,8,0,8,0,1
5aec7e89ae13140001fc0cdf,TCR,2024-06-10_14h07.30.673,LearnStrategy,2023.2.3,Linux x86_64,59.88023952,2,2,10,,,,,,,,3,08,,,,,,,,,,,3,2.352,1,,,,,,0.114281525,-0.266165577,1,0,0,2.3522,Diorite_rect,9,0,9,0,1
5aec7e89ae13140001fc0cdf,TCR,2024-06-10_14h07.30.673,LearnStrategy,2023.2.3,Linux x86_64,59.88023952,2,2,11,,,,,,,,1,10,,,,,,,,,,,4,2.769,0,,,,,,0.397679432,-0.243585219,1,0,0,2.769,Gabbro_rect,10,0,10,0,1
5aec7e89ae13140001fc0cdf,TCR,2024-06-10_14h07.30.673,LearnStrategy,2023.2.3,Linux x86_64,59.88023952,2,2,12,,,,,,,,2,12,,,,,,,,,,,1,3.281,0,,,,,,-0.337758597,-0.240130644,1,0,0,3.281,Andesite_rect,11,0,11,0,1
5aec7e89ae13140001fc0cdf,TCR,2024-06-10_14h07.30.673,LearnStrategy,2023.2.3,Linux x86_64,59.88023952,2,2,13,,,,,,,,8,04,,,,,,,,,,,8,1.319,1,,,,,,0.40768275,-0.413956476,1,0,0,1.3188,Pumice_rect,12,0,12,0,1
5aec7e89ae13140001fc0cdf,TCR,2024-06-10_14h07.30.673,LearnStrategy,2023.2.3,Linux x86_64,59.88023952,2,2,14,,,,,,,,6,05,,,,,,,,,,,6,1.966,1,,,,,,-0.137212619,-0.410699119,1,0,0,1.9655,Pegmatite_rect,13,0,13,0,1
5aec7e89ae13140001fc0cdf,TCR,2024-06-10_14h07.30.673,LearnStrategy,2023.2.3,Linux x86_64,59.88023952,2,2,15,,,,,,,,3,12,,,,,,,,,,,3,1.829,1,,,,,,0.136900566,-0.245705761,1,0,0,1.8295,Diorite_rect,14,0,14,0,1
5aec7e89ae13140001fc0cdf,TCR,2024-06-10_14h07.30.673,LearnStrategy,2023.2.3,Linux x86_64,59.88023952,2,2,16,,,,,,,,7,04,,,,,,,,,,,6,3.377,0,,,,,,-0.062317468,-0.403778721,1,0,0,3.3774,Pegmatite_rect,15,0,15,0,1
5aec7e89ae13140001fc0cdf,TCR,2024-06-10_14h07.30.673,LearnStrategy,2023.2.3,Linux x86_64,59.88023952,3,1,1,0.052719403,0.008970341,1,0,0,0.7132,rock_grid_rect_2,7,07,-1,-1,0.713,0.117836607,-0.406653176,1,0,0,2.1015,Peridotite_rect,7,2.101,1,0,0,0,0,1,,,,,,,,,,,,
5aec7e89ae13140001fc0cdf,TCR,2024-06-10_14h07.30.673,LearnStrategy,2023.2.3,Linux x86_64,59.88023952,3,1,2,0.03823609,-0.002121581,1,0,0,0.8934,rock_grid_rect_2,7,02,-1,-1,0.893,0.127710978,-0.402932754,1,0,0,1.6453,Peridotite_rect,7,1.645,1,1,0,1,0,1,,,,,,,,,,,,
5aec7e89ae13140001fc0cdf,TCR,2024-06-10_14h07.30.673,LearnStrategy,2023.2.3,Linux x86_64,59.88023952,3,1,3,-0.010496901,-0.020558747,1,0,0,1.0448,rock_grid_rect_2,8,13,-1,-1,1.045,0.341118181,-0.378270109,1,0,0,1.9553,Pumice_rect,8,1.955,1,2,0,2,0,1,,,,,,,,,,,,
5aec7e89ae13140001fc0cdf,TCR,2024-06-10_14h07.30.673,LearnStrategy,2023.2.3,Linux x86_64,59.88023952,3,1,4,0.05743924,-0.001819629,1,0,0,1.2949,rock_grid_rect_2,7,06,-1,-1,1.295,0.113466075,-0.415257915,1,0,0,1.896,Peridotite_rect,7,1.896,1,3,0,3,0,1,,,,,,,,,,,,
5aec7e89ae13140001fc0cdf,TCR,2024-06-10_14h07.30.673,LearnStrategy,2023.2.3,Linux x86_64,59.88023952,3,1,5,0.012635997,-0.006831317,1,0,0,1.0099,rock_grid_rect_2,1,02,-1,-1,1.01,0.159163856,-0.25510582,1,0,0,5.9653,Diorite_rect,3,5.965,0,4,0,4,0,1,,,,,,,,,,,,
5aec7e89ae13140001fc0cdf,TCR,2024-06-10_14h07.30.673,LearnStrategy,2023.2.3,Linux x86_64,59.88023952,3,1,6,0.105253049,-0.015222254,1,0,0,1.7927,rock_grid_rect_2,3,13,-1,-1,1.793,0.144379307,-0.253230995,1,0,0,2.2189,Diorite_rect,3,2.219,1,5,0,5,0,1,,,,,,,,,,,,
5aec7e89ae13140001fc0cdf,TCR,2024-06-10_14h07.30.673,LearnStrategy,2023.2.3,Linux x86_64,59.88023952,3,1,7,-0.023238849,-0.02009801,1,0,0,1.6602,rock_grid_rect_2,4,16,-1,-1,1.66,0.356457777,-0.257261536,1,0,0,1.95,Gabbro_rect,4,1.95,1,6,0,6,0,1,,,,,,,,,,,,
5aec7e89ae13140001fc0cdf,TCR,2024-06-10_14h07.30.673,LearnStrategy,2023.2.3,Linux x86_64,59.88023952,3,1,8,0.054350087,0.006636176,1,0,0,1.2929,rock_grid_rect_2,2,10,-1,-1,1.293,-0.389764168,-0.403267731,1,0,0,2.1381,Obsidian_rect,5,2.138,0,7,0,7,0,1,,,,,,,,,,,,
5aec7e89ae13140001fc0cdf,TCR,2024-06-10_14h07.30.673,LearnStrategy,2023.2.3,Linux x86_64,59.88023952,3,1,9,0.086694207,-0.023596858,1,0,0,1.6428,rock_grid_rect_2,6,03,-1,-1,1.643,-0.09167459,-0.398522534,1,0,0,1.5556,Pegmatite_rect,6,1.556,1,8,0,8,0,1,,,,,,,,,,,,
5aec7e89ae13140001fc0cdf,TCR,2024-06-10_14h07.30.673,LearnStrategy,2023.2.3,Linux x86_64,59.88023952,3,1,10,0.027747427,-0.015323406,1,0,0,1.0271,rock_grid_rect_2,4,11,-1,-1,1.027,-0.351013721,-0.26079348,1,0,0,2.8193,Andesite_rect,1,2.819,0,9,0,9,0,1,,,,,,,,,,,,
5aec7e89ae13140001fc0cdf,TCR,2024-06-10_14h07.30.673,LearnStrategy,2023.2.3,Linux x86_64,59.88023952,3,1,11,0.120589422,-0.009866526,1,0,0,5.9715,rock_grid_rect_2,5,04,-1,-1,5.971,-0.440964175,-0.420096169,1,0,0,2.1703,Obsidian_rect,5,2.17,1,10,0,10,0,1,,,,,,,,,,,,
5aec7e89ae13140001fc0cdf,TCR,2024-06-10_14h07.30.673,LearnStrategy,2023.2.3,Linux x86_64,59.88023952,3,1,12,0.070137418,-0.001245776,1,0,0,1.2269,rock_grid_rect_2,1,01,-1,-1,1.227,0.39794492,-0.248870635,1,0,0,4.8747,Gabbro_rect,4,4.875,0,11,0,11,0,1,,,,,,,,,,,,
5aec7e89ae13140001fc0cdf,TCR,2024-06-10_14h07.30.673,LearnStrategy,2023.2.3,Linux x86_64,59.88023952,3,1,13,0.053164988,-0.007798602,1,0,0,1.3592,rock_grid_rect_2,2,16,-1,-1,1.359,0.413022753,-0.232122573,1,0,0,6.4732,Gabbro_rect,4,6.473,0,12,0,12,0,1,,,,,,,,,,,,
5aec7e89ae13140001fc0cdf,TCR,2024-06-10_14h07.30.673,LearnStrategy,2023.2.3,Linux x86_64,59.88023952,3,1,14,-0.000600609,0.020328289,1,0,0,1.16,rock_grid_rect_2,2,16,-1,-1,1.16,-0.142144718,-0.242698992,1,0,0,1.8478,Basalt_rect,2,1.848,1,13,0,13,0,1,,,,,,,,,,,,
5aec7e89ae13140001fc0cdf,TCR,2024-06-10_14h07.30.673,LearnStrategy,2023.2.3,Linux x86_64,59.88023952,3,1,15,-0.004552134,-0.015776585,1,0,0,1.4933,rock_grid_rect_2,2,01,-1,-1,1.493,-0.106706861,-0.246914358,1,0,0,2.1674,Basalt_rect,2,2.167,1,14,0,14,0,1,,,,,,,,,,,,
5aec7e89ae13140001fc0cdf,TCR,2024-06-10_14h07.30.673,LearnStrategy,2023.2.3,Linux x86_64,59.88023952,3,1,16,0.009955608,0.017357302,1,0,0,1.093,rock_grid_rect_2,1,03,-1,-1,1.093,-0.415466846,-0.263908422,1,0,0,1.5437,Andesite_rect,1,1.544,1,15,0,15,0,1,,,,,,,,,,,,
5aec7e89ae13140001fc0cdf,TCR,2024-06-10_14h07.30.673,LearnStrategy,2023.2.3,Linux x86_64,59.88023952,3,2,1,,,,,,,,8,02,,,,,,,,,,,8,2.562,1,,,,,,0.400008511,-0.406253009,1,0,0,2.5616,Pumice_rect,0,0,0,0,1
5aec7e89ae13140001fc0cdf,TCR,2024-06-10_14h07.30.673,LearnStrategy,2023.2.3,Linux x86_64,59.88023952,3,2,2,,,,,,,,2,06,,,,,,,,,,,2,2.753,1,,,,,,-0.050387244,-0.250171858,1,0,0,2.7531,Basalt_rect,1,0,1,0,1
5aec7e89ae13140001fc0cdf,TCR,2024-06-10_14h07.30.673,LearnStrategy,2023.2.3,Linux x86_64,59.88023952,3,2,3,,,,,,,,4,01,,,,,,,,,,,1,8.783,0,,,,,,-0.319133203,-0.257921532,1,0,0,8.7827,Andesite_rect,2,0,2,0,1
5aec7e89ae13140001fc0cdf,TCR,2024-06-10_14h07.30.673,LearnStrategy,2023.2.3,Linux x86_64,59.88023952,3,2,4,,,,,,,,1,04,,,,,,,,,,,4,4.344,0,,,,,,0.425768642,-0.247147968,1,0,0,4.3443,Gabbro_rect,3,0,3,0,1
5aec7e89ae13140001fc0cdf,TCR,2024-06-10_14h07.30.673,LearnStrategy,2023.2.3,Linux x86_64,59.88023952,3,2,5,,,,,,,,7,14,,,,,,,,,,,7,1.731,1,,,,,,0.110152267,-0.386507133,1,0,0,1.7312,Peridotite_rect,4,0,4,0,1
5aec7e89ae13140001fc0cdf,TCR,2024-06-10_14h07.30.673,LearnStrategy,2023.2.3,Linux x86_64,59.88023952,3,2,6,,,,,,,,6,11,,,,,,,,,,,6,1.402,1,,,,,,-0.079474292,-0.405413059,1,0,0,1.4024,Pegmatite_rect,5,0,5,0,1
5aec7e89ae13140001fc0cdf,TCR,2024-06-10_14h07.30.673,LearnStrategy,2023.2.3,Linux x86_64,59.88023952,3,2,7,,,,,,,,3,09,,,,,,,,,,,3,2.502,1,,,,,,0.09147293,-0.250356826,1,0,0,2.5015,Diorite_rect,6,0,6,0,1
5aec7e89ae13140001fc0cdf,TCR,2024-06-10_14h07.30.673,LearnStrategy,2023.2.3,Linux x86_64,59.88023952,3,2,8,,,,,,,,4,03,,,,,,,,,,,4,2.256,1,,,,,,0.313975733,-0.266319669,1,0,0,2.2564,Gabbro_rect,7,0,7,0,1
5aec7e89ae13140001fc0cdf,TCR,2024-06-10_14h07.30.673,LearnStrategy,2023.2.3,Linux x86_64,59.88023952,3,2,9,,,,,,,,5,11,,,,,,,,,,,5,1.386,1,,,,,,-0.437180425,-0.407192176,1,0,0,1.3862,Obsidian_rect,8,0,8,0,1
5aec7e89ae13140001fc0cdf,TCR,2024-06-10_14h07.30.673,LearnStrategy,2023.2.3,Linux x86_64,59.88023952,3,2,10,,,,,,,,5,02,,,,,,,,,,,5,0.737,1,,,,,,-0.441621306,-0.414804808,1,0,0,0.737,Obsidian_rect,9,0,9,0,1
5aec7e89ae13140001fc0cdf,TCR,2024-06-10_14h07.30.673,LearnStrategy,2023.2.3,Linux x86_64,59.88023952,3,2,11,,,,,,,,8,10,,,,,,,,,,,8,2.312,1,,,,,,0.385039997,-0.410750483,1,0,0,2.3124,Pumice_rect,10,0,10,0,1
5aec7e89ae13140001fc0cdf,TCR,2024-06-10_14h07.30.673,LearnStrategy,2023.2.3,Linux x86_64,59.88023952,3,2,12,,,,,,,,6,16,,,,,,,,,,,6,1.532,1,,,,,,-0.070962109,-0.399574244,1,0,0,1.5319,Pegmatite_rect,11,0,11,0,1
5aec7e89ae13140001fc0cdf,TCR,2024-06-10_14h07.30.673,LearnStrategy,2023.2.3,Linux x86_64,59.88023952,3,2,13,,,,,,,,7,12,,,,,,,,,,,7,1.312,1,,,,,,0.102523517,-0.410467873,1,0,0,1.3121,Peridotite_rect,12,0,12,0,1
5aec7e89ae13140001fc0cdf,TCR,2024-06-10_14h07.30.673,LearnStrategy,2023.2.3,Linux x86_64,59.88023952,3,2,14,,,,,,,,1,11,,,,,,,,,,,1,2.576,1,,,,,,-0.318518983,-0.247549281,1,0,0,2.5764,Andesite_rect,13,0,13,0,1
5aec7e89ae13140001fc0cdf,TCR,2024-06-10_14h07.30.673,LearnStrategy,2023.2.3,Linux x86_64,59.88023952,3,2,15,,,,,,,,2,14,,,,,,,,,,,4,3.128,0,,,,,,0.378727586,-0.258400572,1,0,0,3.128,Gabbro_rect,14,0,14,0,1
5aec7e89ae13140001fc0cdf,TCR,2024-06-10_14h07.30.673,LearnStrategy,2023.2.3,Linux x86_64,59.88023952,3,2,16,,,,,,,,3,14,,,,,,,,,,,3,1.709,1,,,,,,0.155700755,-0.237173448,1,0,0,1.709,Diorite_rect,15,0,15,0,1
5aec7e89ae13140001fc0cdf,TCR,2024-06-10_14h07.30.673,LearnStrategy,2023.2.3,Linux x86_64,59.88023952,4,1,1,0.085161952,0.017567952,1,0,0,0.6286,rock_grid_rect_2,6,03,-1,-1,0.629,-0.060712644,-0.40369555,1,0,0,3.2689,Pegmatite_rect,6,3.269,1,0,0,0,0,1,,,,,,,,,,,,
5aec7e89ae13140001fc0cdf,TCR,2024-06-10_14h07.30.673,LearnStrategy,2023.2.3,Linux x86_64,59.88023952,4,1,2,0.12336122,0.006192274,1,0,0,1.6603,rock_grid_rect_2,2,16,-1,-1,1.66,0.372898442,-0.239444786,1,0,0,2.2724,Gabbro_rect,4,2.272,0,1,0,1,0,1,,,,,,,,,,,,
5aec7e89ae13140001fc0cdf,TCR,2024-06-10_14h07.30.673,LearnStrategy,2023.2.3,Linux x86_64,59.88023952,4,1,3,0.010847351,-0.018684602,1,0,0,1.2257,rock_grid_rect_2,1,07,-1,-1,1.226,-0.421595399,-0.261049083,1,0,0,1.6589,Andesite_rect,1,1.659,1,2,0,2,0,1,,,,,,,,,,,,
5aec7e89ae13140001fc0cdf,TCR,2024-06-10_14h07.30.673,LearnStrategy,2023.2.3,Linux x86_64,59.88023952,4,1,4,0.089213125,0.006563679,1,0,0,1.1591,rock_grid_rect_2,4,15,-1,-1,1.159,0.314713026,-0.264245477,1,0,0,2.2928,Gabbro_rect,4,2.293,1,3,0,3,0,1,,,,,,,,,,,,
5aec7e89ae13140001fc0cdf,TCR,2024-06-10_14h07.30.673,LearnStrategy,2023.2.3,Linux x86_64,59.88023952,4,1,5,-0.020912636,-0.005491588,1,0,0,1.161,rock_grid_rect_2,8,08,-1,-1,1.161,0.36921828,-0.393219352,1,0,0,1.8567,Pumice_rect,8,1.857,1,4,0,4,0,1,,,,,,,,,,,,
5aec7e89ae13140001fc0cdf,TCR,2024-06-10_14h07.30.673,LearnStrategy,2023.2.3,Linux x86_64,59.88023952,4,1,6,0.005718321,0.022341195,1,0,0,1.3935,rock_grid_rect_2,2,04,-1,-1,1.393,-0.129044797,-0.23433388,1,0,0,2.3265,Basalt_rect,2,2.327,1,5,0,5,0,1,,,,,,,,,,,,
5aec7e89ae13140001fc0cdf,TCR,2024-06-10_14h07.30.673,LearnStrategy,2023.2.3,Linux x86_64,59.88023952,4,1,7,0.020148909,-0.014212416,1,0,0,1.1457,rock_grid_rect_2,4,11,-1,-1,1.146,0.3924764,-0.256748182,1,0,0,4.5124,Gabbro_rect,4,4.512,1,6,0,6,0,1,,,,,,,,,,,,
5aec7e89ae13140001fc0cdf,TCR,2024-06-10_14h07.30.673,LearnStrategy,2023.2.3,Linux x86_64,59.88023952,4,1,8,0.083827632,-0.018561457,1,0,0,0.9603,rock_grid_rect_2,3,11,-1,-1,0.96,0.121710979,-0.245895457,1,0,0,4.9561,Diorite_rect,3,4.956,1,7,0,7,0,1,,,,,,,,,,,,
5aec7e89ae13140001fc0cdf,TCR,2024-06-10_14h07.30.673,LearnStrategy,2023.2.3,Linux x86_64,59.88023952,4,1,9,0.063447979,-0.009081666,1,0,0,1.8658,rock_grid_rect_2,5,05,-1,-1,1.866,-0.367279912,-0.411978207,1,0,0,1.685,Obsidian_rect,5,1.685,1,8,0,8,0,1,,,,,,,,,,,,
5aec7e89ae13140001fc0cdf,TCR,2024-06-10_14h07.30.673,LearnStrategy,2023.2.3,Linux x86_64,59.88023952,4,1,10,0.031445929,0.003893248,1,0,0,1.3257,rock_grid_rect_2,1,02,-1,-1,1.326,0.118412645,-0.263228582,1,0,0,7.3877,Diorite_rect,3,7.388,0,9,0,9,0,1,,,,,,,,,,,,
5aec7e89ae13140001fc0cdf,TCR,2024-06-10_14h07.30.673,LearnStrategy,2023.2.3,Linux x86_64,59.88023952,4,1,11,0.114335539,-0.00091936,1,0,0,1.7588,rock_grid_rect_2,2,10,-1,-1,1.759,-0.052499332,-0.253014578,1,0,0,1.6522,Basalt_rect,2,1.652,1,10,0,10,0,1,,,,,,,,,,,,
5aec7e89ae13140001fc0cdf,TCR,2024-06-10_14h07.30.673,LearnStrategy,2023.2.3,Linux x86_64,59.88023952,4,1,12,0.011842683,-0.011200238,1,0,0,1.4102,rock_grid_rect_2,1,06,-1,-1,1.41,-0.310366205,-0.25850151,1,0,0,1.7124,Andesite_rect,1,1.712,1,11,0,11,0,1,,,,,,,,,,,,
5aec7e89ae13140001fc0cdf,TCR,2024-06-10_14h07.30.673,LearnStrategy,2023.2.3,Linux x86_64,59.88023952,4,1,13,-0.052740464,-0.000633813,1,0,0,1.3587,rock_grid_rect_2,2,16,-1,-1,1.359,-0.107327528,-0.238346368,1,0,0,1.5441,Basalt_rect,2,1.544,1,12,0,12,0,1,,,,,,,,,,,,
5aec7e89ae13140001fc0cdf,TCR,2024-06-10_14h07.30.673,LearnStrategy,2023.2.3,Linux x86_64,59.88023952,4,1,14,-0.025595795,-0.010600632,1,0,0,0.8764,rock_grid_rect_2,7,10,-1,-1,0.876,0.15450971,-0.385666896,1,0,0,1.6071,Peridotite_rect,7,1.607,1,13,0,13,0,1,,,,,,,,,,,,
5aec7e89ae13140001fc0cdf,TCR,2024-06-10_14h07.30.673,LearnStrategy,2023.2.3,Linux x86_64,59.88023952,4,1,15,0.023265212,0.001318882,1,0,0,1.6105,rock_grid_rect_2,4,05,-1,-1,1.611,0.48274539,-0.263619221,1,0,0,44.4561,Gabbro_rect,4,44.456,1,14,0,14,0,1,,,,,,,,,,,,
5aec7e89ae13140001fc0cdf,TCR,2024-06-10_14h07.30.673,LearnStrategy,2023.2.3,Linux x86_64,59.88023952,4,1,16,0.063786037,0.00622684,1,0,0,1.5108,rock_grid_rect_2,7,05,-1,-1,1.511,0.130231257,-0.418345062,1,0,0,1.9934,Peridotite_rect,7,1.993,1,15,0,15,0,1,,,,,,,,,,,,
5aec7e89ae13140001fc0cdf,TCR,2024-06-10_14h07.30.673,LearnStrategy,2023.2.3,Linux x86_64,59.88023952,4,2,1,,,,,,,,3,14,,,,,,,,,,,3,3.485,1,,,,,,0.161805775,-0.250032237,1,0,0,3.4853,Diorite_rect,0,0,0,0,1
5aec7e89ae13140001fc0cdf,TCR,2024-06-10_14h07.30.673,LearnStrategy,2023.2.3,Linux x86_64,59.88023952,4,2,2,,,,,,,,8,10,,,,,,,,,,,8,1.62,1,,,,,,0.343042651,-0.403309925,1,0,0,1.6197,Pumice_rect,1,0,1,0,1
5aec7e89ae13140001fc0cdf,TCR,2024-06-10_14h07.30.673,LearnStrategy,2023.2.3,Linux x86_64,59.88023952,4,2,3,,,,,,,,4,03,,,,,,,,,,,4,1.419,1,,,,,,0.38334448,-0.264414899,1,0,0,1.4187,Gabbro_rect,2,0,2,0,1
5aec7e89ae13140001fc0cdf,TCR,2024-06-10_14h07.30.673,LearnStrategy,2023.2.3,Linux x86_64,59.88023952,4,2,4,,,,,,,,6,15,,,,,,,,,,,6,1.933,1,,,,,,-0.09858983,-0.397504923,1,0,0,1.9335,Pegmatite_rect,3,0,3,0,1
5aec7e89ae13140001fc0cdf,TCR,2024-06-10_14h07.30.673,LearnStrategy,2023.2.3,Linux x86_64,59.88023952,4,2,5,,,,,,,,6,10,,,,,,,,,,,6,1.975,1,,,,,,-0.100916186,-0.394755905,1,0,0,1.975,Pegmatite_rect,4,0,4,0,1
5aec7e89ae13140001fc0cdf,TCR,2024-06-10_14h07.30.673,LearnStrategy,2023.2.3,Linux x86_64,59.88023952,4,2,6,,,,,,,,8,04,,,,,,,,,,,8,1.256,1,,,,,,0.34320097,-0.418921672,1,0,0,1.2556,Pumice_rect,5,0,5,0,1
5aec7e89ae13140001fc0cdf,TCR,2024-06-10_14h07.30.673,LearnStrategy,2023.2.3,Linux x86_64,59.88023952,4,2,7,,,,,,,,3,08,,,,,,,,,,,3,3.229,1,,,,,,0.125114405,-0.247912268,1,0,0,3.2286,Diorite_rect,6,0,6,0,1
5aec7e89ae13140001fc0cdf,TCR,2024-06-10_14h07.30.673,LearnStrategy,2023.2.3,Linux x86_64,59.88023952,4,2,8,,,,,,,,7,04,,,,,,,,,,,6,2.42,0,,,,,,-0.101433911,-0.395674943,1,0,0,2.4202,Pegmatite_rect,7,0,7,0,1
5aec7e89ae13140001fc0cdf,TCR,2024-06-10_14h07.30.673,LearnStrategy,2023.2.3,Linux x86_64,59.88023952,4,2,9,,,,,,,,1,09,,,,,,,,,,,1,41.151,1,,,,,,-0.436580783,-0.235515183,1,0,0,41.1513,Andesite_rect,8,0,8,0,1
5aec7e89ae13140001fc0cdf,TCR,2024-06-10_14h07.30.673,LearnStrategy,2023.2.3,Linux x86_64,59.88023952,4,2,10,,,,,,,,1,14,,,,,,,,,,,4,6.648,0,,,,,,0.433661233,-0.260378484,1,0,0,6.6479,Gabbro_rect,9,0,9,0,1
5aec7e89ae13140001fc0cdf,TCR,2024-06-10_14h07.30.673,LearnStrategy,2023.2.3,Linux x86_64,59.88023952,4,2,11,,,,,,,,4,13,,,,,,,,,,,4,0.938,1,,,,,,0.433661233,-0.260378484,1,0,0,0.9383,Gabbro_rect,10,0,10,0,1
5aec7e89ae13140001fc0cdf,TCR,2024-06-10_14h07.30.673,LearnStrategy,2023.2.3,Linux x86_64,59.88023952,4,2,12,,,,,,,,2,12,,,,,,,,,,,8,1.637,0,,,,,,0.420549276,-0.404962602,1,0,0,1.6371,Pumice_rect,11,0,11,0,1
5aec7e89ae13140001fc0cdf,TCR,2024-06-10_14h07.30.673,LearnStrategy,2023.2.3,Linux x86_64,59.88023952,4,2,13,,,,,,,,5,07,,,,,,,,,,,5,1.297,1,,,,,,-0.393167988,-0.404485497,1,0,0,1.2972,Obsidian_rect,12,0,12,0,1
5aec7e89ae13140001fc0cdf,TCR,2024-06-10_14h07.30.673,LearnStrategy,2023.2.3,Linux x86_64,59.88023952,4,2,14,,,,,,,,5,09,,,,,,,,,,,5,0.708,1,,,,,,-0.393167988,-0.408503429,1,0,0,0.7076,Obsidian_rect,13,0,13,0,1
5aec7e89ae13140001fc0cdf,TCR,2024-06-10_14h07.30.673,LearnStrategy,2023.2.3,Linux x86_64,59.88023952,4,2,15,,,,,,,,2,06,,,,,,,,,,,2,1.491,1,,,,,,-0.070415515,-0.255853501,1,0,0,1.4911,Basalt_rect,14,0,14,0,1
5aec7e89ae13140001fc0cdf,TCR,2024-06-10_14h07.30.673,LearnStrategy,2023.2.3,Linux x86_64,59.88023952,4,2,16,,,,,,,,7,14,,,,,,,,,,,7,2.309,1,,,,,,0.118906299,-0.403245738,1,0,0,2.3092,Peridotite_rect,15,0,15,0,1
5aec7e89ae13140001fc0cdf,TCR,2024-06-10_14h07.30.673,LearnStrategy,2023.2.3,Linux x86_64,59.88023952,5,1,1,-0.048728119,0.010106727,1,0,0,6.0892,rock_grid_rect_2,7,05,-1,-1,6.089,0.083901705,-0.404432915,1,0,0,1.3588,Peridotite_rect,7,1.359,1,0,0,0,0,1,,,,,,,,,,,,
5aec7e89ae13140001fc0cdf,TCR,2024-06-10_14h07.30.673,LearnStrategy,2023.2.3,Linux x86_64,59.88023952,5,1,2,-0.013653464,-0.019058944,1,0,0,1.2444,rock_grid_rect_2,1,07,-1,-1,1.244,0.452017914,-0.263682979,1,0,0,2.9291,Gabbro_rect,4,2.929,0,1,0,1,0,1,,,,,,,,,,,,
5aec7e89ae13140001fc0cdf,TCR,2024-06-10_14h07.30.673,LearnStrategy,2023.2.3,Linux x86_64,59.88023952,5,1,3,0.015700363,0.003553364,1,0,0,1.4927,rock_grid_rect_2,8,08,-1,-1,1.493,0.336817925,-0.395687193,1,0,0,1.696,Pumice_rect,8,1.696,1,2,0,2,0,1,,,,,,,,,,,,
5aec7e89ae13140001fc0cdf,TCR,2024-06-10_14h07.30.673,LearnStrategy,2023.2.3,Linux x86_64,59.88023952,5,1,4,0.02725449,0.007266085,1,0,0,1.21,rock_grid_rect_2,6,08,-1,-1,1.21,-0.12125651,-0.407251994,1,0,0,1.4412,Pegmatite_rect,6,1.441,1,3,0,3,0,1,,,,,,,,,,,,
5aec7e89ae13140001fc0cdf,TCR,2024-06-10_14h07.30.673,LearnStrategy,2023.2.3,Linux x86_64,59.88023952,5,1,5,-0.01399582,0.017966902,1,0,0,1.3426,rock_grid_rect_2,1,02,-1,-1,1.343,-0.357295148,-0.239873609,1,0,0,3.9012,Andesite_rect,1,3.901,1,4,0,4,0,1,,,,,,,,,,,,
5aec7e89ae13140001fc0cdf,TCR,2024-06-10_14h07.30.673,LearnStrategy,2023.2.3,Linux x86_64,59.88023952,5,1,6,-0.000689439,-0.02131223,1,0,0,1.7434,rock_grid_rect_2,2,04,-1,-1,1.743,-0.105639964,-0.235083423,1,0,0,1.5551,Basalt_rect,2,1.555,1,5,0,5,0,1,,,,,,,,,,,,
5aec7e89ae13140001fc0cdf,TCR,2024-06-10_14h07.30.673,LearnStrategy,2023.2.3,Linux x86_64,59.88023952,5,1,7,-0.014011437,-0.011261058,1,0,0,1.1779,rock_grid_rect_2,2,16,-1,-1,1.178,-0.136316864,-0.265231495,1,0,0,2.8985,Basalt_rect,2,2.899,1,6,0,6,0,1,,,,,,,,,,,,
5aec7e89ae13140001fc0cdf,TCR,2024-06-10_14h07.30.673,LearnStrategy,2023.2.3,Linux x86_64,59.88023952,5,1,8,-0.008664485,0.023410349,1,0,0,1.126,rock_grid_rect_2,5,06,-1,-1,1.126,-0.381216775,-0.415914616,1,0,0,2.717,Obsidian_rect,5,2.717,1,7,0,7,0,1,,,,,,,,,,,,
5aec7e89ae13140001fc0cdf,TCR,2024-06-10_14h07.30.673,LearnStrategy,2023.2.3,Linux x86_64,59.88023952,5,1,9,-0.000886371,-0.016389229,1,0,0,0.9753,rock_grid_rect_2,2,04,-1,-1,0.975,-0.104724794,-0.253213873,1,0,0,1.2655,Basalt_rect,2,1.266,1,8,0,8,0,1,,,,,,,,,,,,
5aec7e89ae13140001fc0cdf,TCR,2024-06-10_14h07.30.673,LearnStrategy,2023.2.3,Linux x86_64,59.88023952,5,1,10,-0.026476578,-0.007224428,1,0,0,1.8937,rock_grid_rect_2,7,02,-1,-1,1.894,0.119421659,-0.411688218,1,0,0,2.9904,Peridotite_rect,7,2.99,1,9,0,9,0,1,,,,,,,,,,,,
5aec7e89ae13140001fc0cdf,TCR,2024-06-10_14h07.30.673,LearnStrategy,2023.2.3,Linux x86_64,59.88023952,5,1,11,0.067932845,0.00263035,1,0,0,1.2119,rock_grid_rect_2,4,15,-1,-1,1.212,0.407037869,-0.270667994,1,0,0,2.3148,Gabbro_rect,4,2.315,1,10,0,10,0,1,,,,,,,,,,,,
5aec7e89ae13140001fc0cdf,TCR,2024-06-10_14h07.30.673,LearnStrategy,2023.2.3,Linux x86_64,59.88023952,5,1,12,-0.035837738,0.015343357,1,0,0,1.9424,rock_grid_rect_2,1,02,-1,-1,1.942,-0.383418267,-0.264783832,1,0,0,1.4218,Andesite_rect,1,1.422,1,11,0,11,0,1,,,,,,,,,,,,
5aec7e89ae13140001fc0cdf,TCR,2024-06-10_14h07.30.673,LearnStrategy,2023.2.3,Linux x86_64,59.88023952,5,1,13,-0.028330557,-0.019678608,1,0,0,0.9767,rock_grid_rect_2,4,15,-1,-1,0.977,0.359695506,-0.251453453,1,0,0,1.7958,Gabbro_rect,4,1.796,1,12,0,12,0,1,,,,,,,,,,,,
5aec7e89ae13140001fc0cdf,TCR,2024-06-10_14h07.30.673,LearnStrategy,2023.2.3,Linux x86_64,59.88023952,5,1,14,0.000591511,-0.021678871,1,0,0,0.8937,rock_grid_rect_2,7,02,-1,-1,0.894,0.133095038,-0.406066465,1,0,0,1.3994,Peridotite_rect,7,1.399,1,13,0,13,0,1,,,,,,,,,,,,
5aec7e89ae13140001fc0cdf,TCR,2024-06-10_14h07.30.673,LearnStrategy,2023.2.3,Linux x86_64,59.88023952,5,1,15,-0.006378031,-0.020485283,1,0,0,2.5076,rock_grid_rect_2,3,13,-1,-1,2.508,0.09326573,-0.247996514,1,0,0,4.5325,Diorite_rect,3,4.533,1,14,0,14,0,1,,,,,,,,,,,,
5aec7e89ae13140001fc0cdf,TCR,2024-06-10_14h07.30.673,LearnStrategy,2023.2.3,Linux x86_64,59.88023952,5,1,16,0.031658835,-0.011212094,1,0,0,1.1272,rock_grid_rect_2,2,16,-1,-1,1.127,-0.069084203,-0.269320421,1,0,0,1.2989,Basalt_rect,2,1.299,1,15,0,15,0,1,,,,,,,,,,,,
5aec7e89ae13140001fc0cdf,TCR,2024-06-10_14h07.30.673,LearnStrategy,2023.2.3,Linux x86_64,59.88023952,5,2,1,,,,,,,,7,08,,,,,,,,,,,7,1.391,1,,,,,,0.098157354,-0.392352037,1,0,0,1.3906,Peridotite_rect,0,0,0,0,1
5aec7e89ae13140001fc0cdf,TCR,2024-06-10_14h07.30.673,LearnStrategy,2023.2.3,Linux x86_64,59.88023952,5,2,2,,,,,,,,7,16,,,,,,,,,,,4,7.762,0,,,,,,0.429636351,-0.256235758,1,0,0,7.7622,Gabbro_rect,1,0,1,0,1
5aec7e89ae13140001fc0cdf,TCR,2024-06-10_14h07.30.673,LearnStrategy,2023.2.3,Linux x86_64,59.88023952,5,2,3,,,,,,,,1,10,,,,,,,,,,,1,2.779,1,,,,,,-0.432464206,-0.266357852,1,0,0,2.779,Andesite_rect,2,0,2,0,1
5aec7e89ae13140001fc0cdf,TCR,2024-06-10_14h07.30.673,LearnStrategy,2023.2.3,Linux x86_64,59.88023952,5,2,4,,,,,,,,2,14,,,,,,,,,,,2,1.571,1,,,,,,-0.082156043,-0.268513209,1,0,0,1.5711,Basalt_rect,3,0,3,0,1
5aec7e89ae13140001fc0cdf,TCR,2024-06-10_14h07.30.673,LearnStrategy,2023.2.3,Linux x86_64,59.88023952,5,2,5,,,,,,,,1,11,,,,,,,,,,,1,1.54,1,,,,,,-0.457695974,-0.237597685,1,0,0,1.5396,Andesite_rect,4,0,4,0,1
5aec7e89ae13140001fc0cdf,TCR,2024-06-10_14h07.30.673,LearnStrategy,2023.2.3,Linux x86_64,59.88023952,5,2,6,,,,,,,,4,14,,,,,,,,,,,2,2.08,0,,,,,,-0.148873558,-0.256078371,1,0,0,2.0798,Basalt_rect,5,0,5,0,1
5aec7e89ae13140001fc0cdf,TCR,2024-06-10_14h07.30.673,LearnStrategy,2023.2.3,Linux x86_64,59.88023952,5,2,7,,,,,,,,8,09,,,,,,,,,,,8,1.357,1,,,,,,0.340567862,-0.392968908,1,0,0,1.3574,Pumice_rect,6,0,6,0,1
5aec7e89ae13140001fc0cdf,TCR,2024-06-10_14h07.30.673,LearnStrategy,2023.2.3,Linux x86_64,59.88023952,5,2,8,,,,,,,,2,02,,,,,,,,,,,2,1.365,1,,,,,,-0.147697198,-0.246947597,1,0,0,1.3645,Basalt_rect,7,0,7,0,1
5aec7e89ae13140001fc0cdf,TCR,2024-06-10_14h07.30.673,LearnStrategy,2023.2.3,Linux x86_64,59.88023952,5,2,9,,,,,,,,5,11,,,,,,,,,,,5,2.168,1,,,,,,-0.385010948,-0.380695182,1,0,0,2.1677,Obsidian_rect,8,0,8,0,1
5aec7e89ae13140001fc0cdf,TCR,2024-06-10_14h07.30.673,LearnStrategy,2023.2.3,Linux x86_64,59.88023952,5,2,10,,,,,,,,6,11,,,,,,,,,,,6,1.251,1,,,,,,-0.143796106,-0.38336633,1,0,0,1.2509,Pegmatite_rect,9,0,9,0,1
5aec7e89ae13140001fc0cdf,TCR,2024-06-10_14h07.30.673,LearnStrategy,2023.2.3,Linux x86_64,59.88023952,5,2,11,,,,,,,,6,05,,,,,,,,,,,6,0.949,1,,,,,,-0.143796106,-0.38336633,1,0,0,0.949,Pegmatite_rect,10,0,10,0,1
5aec7e89ae13140001fc0cdf,TCR,2024-06-10_14h07.30.673,LearnStrategy,2023.2.3,Linux x86_64,59.88023952,5,2,12,,,,,,,,3,02,,,,,,,,,,,3,2.27,1,,,,,,0.190404543,-0.258727598,1,0,0,2.2701,Diorite_rect,11,0,11,0,1
5aec7e89ae13140001fc0cdf,TCR,2024-06-10_14h07.30.673,LearnStrategy,2023.2.3,Linux x86_64,59.88023952,5,2,13,,,,,,,,5,14,,,,,,,,,,,5,1.555,1,,,,,,-0.331897001,-0.400290834,1,0,0,1.5552,Obsidian_rect,12,0,12,0,1
5aec7e89ae13140001fc0cdf,TCR,2024-06-10_14h07.30.673,LearnStrategy,2023.2.3,Linux x86_64,59.88023952,5,2,14,,,,,,,,3,12,,,,,,,,,,,3,1.739,1,,,,,,0.082837315,-0.262219568,1,0,0,1.7392,Diorite_rect,13,0,13,0,1
5aec7e89ae13140001fc0cdf,TCR,2024-06-10_14h07.30.673,LearnStrategy,2023.2.3,Linux x86_64,59.88023952,5,2,15,,,,,,,,8,16,,,,,,,,,,,8,1.585,1,,,,,,0.347826747,-0.405675181,1,0,0,1.5849,Pumice_rect,14,0,14,0,1
5aec7e89ae13140001fc0cdf,TCR,2024-06-10_14h07.30.673,LearnStrategy,2023.2.3,Linux x86_64,59.88023952,5,2,16,,,,,,,,4,08,,,,,,,,,,,4,3.284,1,,,,,,0.401338389,-0.247570414,1,0,0,3.2844,Gabbro_rect,15,0,15,0,1
5aec7e89ae13140001fc0cdf,TCR,2024-06-10_14h07.30.673,LearnStrategy,2023.2.3,Linux x86_64,59.88023952,6,1,1,0.083952854,-0.00538252,1,0,0,1.1781,rock_grid_rect_2,2,16,-1,-1,1.178,-0.071712369,-0.231733582,1,0,0,1.0738,Basalt_rect,2,1.074,1,0,0,0,0,1,,,,,,,,,,,,
5aec7e89ae13140001fc0cdf,TCR,2024-06-10_14h07.30.673,LearnStrategy,2023.2.3,Linux x86_64,59.88023952,6,1,2,-0.007056294,0.005292436,1,0,0,1.5407,rock_grid_rect_2,2,16,-1,-1,1.541,-0.128238015,-0.257428093,1,0,0,3.4283,Basalt_rect,2,3.428,1,1,0,1,0,1,,,,,,,,,,,,
5aec7e89ae13140001fc0cdf,TCR,2024-06-10_14h07.30.673,LearnStrategy,2023.2.3,Linux x86_64,59.88023952,6,1,3,0.055511188,-0.014779283,1,0,0,1.1942,rock_grid_rect_2,7,13,-1,-1,1.194,0.113120495,-0.396142521,1,0,0,2.5021,Peridotite_rect,7,2.502,1,2,0,2,0,1,,,,,,,,,,,,
5aec7e89ae13140001fc0cdf,TCR,2024-06-10_14h07.30.673,LearnStrategy,2023.2.3,Linux x86_64,59.88023952,6,1,4,0.061974754,0.004580359,1,0,0,1.4769,rock_grid_rect_2,4,15,-1,-1,1.477,0.420806885,-0.235399345,1,0,0,1.543,Gabbro_rect,4,1.543,1,3,0,3,0,1,,,,,,,,,,,,
5aec7e89ae13140001fc0cdf,TCR,2024-06-10_14h07.30.673,LearnStrategy,2023.2.3,Linux x86_64,59.88023952,6,1,5,0.032285807,-0.019342055,1,0,0,1.1439,rock_grid_rect_2,1,07,-1,-1,1.144,-0.438104871,-0.245860498,1,0,0,1.6007,Andesite_rect,1,1.601,1,4,0,4,0,1,,,,,,,,,,,,
5aec7e89ae13140001fc0cdf,TCR,2024-06-10_14h07.30.673,LearnStrategy,2023.2.3,Linux x86_64,59.88023952,6,1,6,0.060357251,0.016645942,1,0,0,1.0778,rock_grid_rect_2,3,07,-1,-1,1.078,0.153057403,-0.255872556,1,0,0,2.2109,Diorite_rect,3,2.211,1,5,0,5,0,1,,,,,,,,,,,,
5aec7e89ae13140001fc0cdf,TCR,2024-06-10_14h07.30.673,LearnStrategy,2023.2.3,Linux x86_64,59.88023952,6,1,7,-0.006418936,-0.003032989,1,0,0,1.026,rock_grid_rect_2,8,15,-1,-1,1.026,0.36249553,-0.40261282,1,0,0,1.9095,Pumice_rect,8,1.909,1,6,0,6,0,1,,,,,,,,,,,,
5aec7e89ae13140001fc0cdf,TCR,2024-06-10_14h07.30.673,LearnStrategy,2023.2.3,Linux x86_64,59.88023952,6,1,8,-0.003170676,0.013006792,1,0,0,1.3097,rock_grid_rect_2,7,02,-1,-1,1.31,0.127832619,-0.413142674,1,0,0,1.4298,Peridotite_rect,7,1.43,1,7,0,7,0,1,,,,,,,,,,,,
5aec7e89ae13140001fc0cdf,TCR,2024-06-10_14h07.30.673,LearnStrategy,2023.2.3,Linux x86_64,59.88023952,6,1,9,0.045932752,-0.02358973,1,0,0,1.0432,rock_grid_rect_2,4,11,-1,-1,1.043,-0.079376077,-0.246241252,1,0,0,2.7745,Basalt_rect,2,2.774,0,8,0,8,0,1,,,,,,,,,,,,
5aec7e89ae13140001fc0cdf,TCR,2024-06-10_14h07.30.673,LearnStrategy,2023.2.3,Linux x86_64,59.88023952,6,1,10,0.015667338,-0.010972323,1,0,0,1.758,rock_grid_rect_2,5,08,-1,-1,1.758,-0.365076056,-0.391449476,1,0,0,1.4297,Obsidian_rect,5,1.43,1,9,0,9,0,1,,,,,,,,,,,,
5aec7e89ae13140001fc0cdf,TCR,2024-06-10_14h07.30.673,LearnStrategy,2023.2.3,Linux x86_64,59.88023952,6,1,11,-0.006515789,-0.008358915,1,0,0,1.4935,rock_grid_rect_2,4,11,-1,-1,1.494,0.394884566,-0.262551106,1,0,0,3.2712,Gabbro_rect,4,3.271,1,10,0,10,0,1,,,,,,,,,,,,
5aec7e89ae13140001fc0cdf,TCR,2024-06-10_14h07.30.673,LearnStrategy,2023.2.3,Linux x86_64,59.88023952,6,1,12,-0.157863563,-0.011978221,1,0,0,1.659,rock_grid_rect_2,7,13,-1,-1,1.659,0.10772877,-0.406628533,1,0,0,1.3527,Peridotite_rect,7,1.353,1,11,0,11,0,1,,,,,,,,,,,,
5aec7e89ae13140001fc0cdf,TCR,2024-06-10_14h07.30.673,LearnStrategy,2023.2.3,Linux x86_64,59.88023952,6,1,13,0.033885472,0.016128074,1,0,0,0.96,rock_grid_rect_2,2,10,-1,-1,0.96,-0.137052151,-0.24963909,1,0,0,5.1528,Basalt_rect,2,5.153,1,12,0,12,0,1,,,,,,,,,,,,
5aec7e89ae13140001fc0cdf,TCR,2024-06-10_14h07.30.673,LearnStrategy,2023.2.3,Linux x86_64,59.88023952,6,1,14,0.045476278,0.003780669,1,0,0,1.1945,rock_grid_rect_2,1,16,-1,-1,1.195,-0.430429736,-0.239409397,1,0,0,1.4173,Andesite_rect,1,1.417,1,13,0,13,0,1,,,,,,,,,,,,
5aec7e89ae13140001fc0cdf,TCR,2024-06-10_14h07.30.673,LearnStrategy,2023.2.3,Linux x86_64,59.88023952,6,1,15,0.058384783,-0.003948444,1,0,0,1.1772,rock_grid_rect_2,1,01,-1,-1,1.177,0.42799141,-0.23895364,1,0,0,3.8117,Gabbro_rect,4,3.812,0,14,0,14,0,1,,,,,,,,,,,,
5aec7e89ae13140001fc0cdf,TCR,2024-06-10_14h07.30.673,LearnStrategy,2023.2.3,Linux x86_64,59.88023952,6,1,16,-0.058840613,0.010450408,1,0,0,1.1597,rock_grid_rect_2,6,03,-1,-1,1.16,-0.116076904,-0.410081819,1,0,0,2.7685,Pegmatite_rect,6,2.769,1,15,0,15,0,1,,,,,,,,,,,,
5aec7e89ae13140001fc0cdf,TCR,2024-06-10_14h07.30.673,LearnStrategy,2023.2.3,Linux x86_64,59.88023952,6,2,1,,,,,,,,2,05,,,,,,,,,,,2,3.066,1,,,,,,-0.134087934,-0.244355824,1,0,0,3.0662,Basalt_rect,0,0,0,0,1
5aec7e89ae13140001fc0cdf,TCR,2024-06-10_14h07.30.673,LearnStrategy,2023.2.3,Linux x86_64,59.88023952,6,2,2,,,,,,,,3,15,,,,,,,,,,,3,4.752,1,,,,,,0.123239652,-0.251285249,1,0,0,4.7518,Diorite_rect,1,0,1,0,1
5aec7e89ae13140001fc0cdf,TCR,2024-06-10_14h07.30.673,LearnStrategy,2023.2.3,Linux x86_64,59.88023952,6,2,3,,,,,,,,5,12,,,,,,,,,,,5,1.472,1,,,,,,-0.329706613,-0.402948944,1,0,0,1.4724,Obsidian_rect,2,0,2,0,1
5aec7e89ae13140001fc0cdf,TCR,2024-06-10_14h07.30.673,LearnStrategy,2023.2.3,Linux x86_64,59.88023952,6,2,4,,,,,,,,5,02,,,,,,,,,,,5,0.674,1,,,,,,-0.329706613,-0.402948944,1,0,0,0.6739,Obsidian_rect,3,0,3,0,1
5aec7e89ae13140001fc0cdf,TCR,2024-06-10_14h07.30.673,LearnStrategy,2023.2.3,Linux x86_64,59.88023952,6,2,5,,,,,,,,1,04,,,,,,,,,,,1,2.099,1,,,,,,-0.333402643,-0.246338679,1,0,0,2.0993,Andesite_rect,4,0,4,0,1
5aec7e89ae13140001fc0cdf,TCR,2024-06-10_14h07.30.673,LearnStrategy,2023.2.3,Linux x86_64,59.88023952,6,2,6,,,,,,,,8,03,,,,,,,,,,,8,1.451,1,,,,,,0.386082466,-0.416596247,1,0,0,1.4508,Pumice_rect,5,0,5,0,1
5aec7e89ae13140001fc0cdf,TCR,2024-06-10_14h07.30.673,LearnStrategy,2023.2.3,Linux x86_64,59.88023952,6,2,7,,,,,,,,7,12,,,,,,,,,,,7,1.317,1,,,,,,0.140646849,-0.4071512,1,0,0,1.3171,Peridotite_rect,6,0,6,0,1
5aec7e89ae13140001fc0cdf,TCR,2024-06-10_14h07.30.673,LearnStrategy,2023.2.3,Linux x86_64,59.88023952,6,2,8,,,,,,,,2,08,,,,,,,,,,,2,1.851,1,,,,,,-0.169270189,-0.24690834,1,0,0,1.8514,Basalt_rect,7,0,7,0,1
5aec7e89ae13140001fc0cdf,TCR,2024-06-10_14h07.30.673,LearnStrategy,2023.2.3,Linux x86_64,59.88023952,6,2,9,,,,,,,,4,09,,,,,,,,,,,4,2.306,1,,,,,,0.343927518,-0.238983871,1,0,0,2.3064,Gabbro_rect,8,0,8,0,1
5aec7e89ae13140001fc0cdf,TCR,2024-06-10_14h07.30.673,LearnStrategy,2023.2.3,Linux x86_64,59.88023952,6,2,10,,,,,,,,3,09,,,,,,,,,,,3,1.125,1,,,,,,0.095840741,-0.240664272,1,0,0,1.1246,Diorite_rect,9,0,9,0,1
5aec7e89ae13140001fc0cdf,TCR,2024-06-10_14h07.30.673,LearnStrategy,2023.2.3,Linux x86_64,59.88023952,6,2,11,,,,,,,,6,07,,,,,,,,,,,6,1.398,1,,,,,,-0.146552287,-0.416385991,1,0,0,1.398,Pegmatite_rect,10,0,10,0,1
5aec7e89ae13140001fc0cdf,TCR,2024-06-10_14h07.30.673,LearnStrategy,2023.2.3,Linux x86_64,59.88023952,6,2,12,,,,,,,,6,16,,,,,,,,,,,6,0.952,1,,,,,,-0.146340813,-0.421038131,1,0,0,0.9515,Pegmatite_rect,11,0,11,0,1
5aec7e89ae13140001fc0cdf,TCR,2024-06-10_14h07.30.673,LearnStrategy,2023.2.3,Linux x86_64,59.88023952,6,2,13,,,,,,,,4,01,,,,,,,,,,,4,1.866,1,,,,,,0.430732691,-0.239729689,1,0,0,1.8657,Gabbro_rect,12,0,12,0,1
5aec7e89ae13140001fc0cdf,TCR,2024-06-10_14h07.30.673,LearnStrategy,2023.2.3,Linux x86_64,59.88023952,6,2,14,,,,,,,,8,02,,,,,,,,,,,8,1.254,1,,,,,,0.42426712,-0.385851077,1,0,0,1.254,Pumice_rect,13,0,13,0,1
5aec7e89ae13140001fc0cdf,TCR,2024-06-10_14h07.30.673,LearnStrategy,2023.2.3,Linux x86_64,59.88023952,6,2,15,,,,,,,,7,15,,,,,,,,,,,7,3.199,1,,,,,,0.145400571,-0.411703334,1,0,0,3.1986,Peridotite_rect,14,0,14,0,1
5aec7e89ae13140001fc0cdf,TCR,2024-06-10_14h07.30.673,LearnStrategy,2023.2.3,Linux x86_64,59.88023952,6,2,16,,,,,,,,1,05,,,,,,,,,,,1,1.49,1,,,,,,-0.361874146,-0.240584038,1,0,0,1.49,Andesite_rect,15,0,15,0,1
5aec7e89ae13140001fc0cdf,TCR,2024-06-10_14h07.30.673,LearnStrategy,2023.2.3,Linux x86_64,59.88023952,7,1,1,0.007374222,0.014978471,1,0,0,1.4781,rock_grid_rect_2,4,05,-1,-1,1.478,0.388426588,-0.250338057,1,0,0,2.2542,Gabbro_rect,4,2.254,1,0,0,0,0,1,,,,,,,,,,,,
5aec7e89ae13140001fc0cdf,TCR,2024-06-10_14h07.30.673,LearnStrategy,2023.2.3,Linux x86_64,59.88023952,7,1,2,0.004534797,0.003280246,1,0,0,1.1267,rock_grid_rect_2,7,05,-1,-1,1.127,0.115632465,-0.387675469,1,0,0,1.9483,Peridotite_rect,7,1.948,1,1,0,1,0,1,,,,,,,,,,,,
5aec7e89ae13140001fc0cdf,TCR,2024-06-10_14h07.30.673,LearnStrategy,2023.2.3,Linux x86_64,59.88023952,7,1,3,-0.003187941,0.00585042,1,0,0,1.3099,rock_grid_rect_2,8,15,-1,-1,1.31,0.364151216,-0.405326807,1,0,0,1.8684,Pumice_rect,8,1.868,1,2,0,2,0,1,,,,,,,,,,,,
5aec7e89ae13140001fc0cdf,TCR,2024-06-10_14h07.30.673,LearnStrategy,2023.2.3,Linux x86_64,59.88023952,7,1,4,-0.040649772,0.012205706,1,0,0,1.2601,rock_grid_rect_2,7,10,-1,-1,1.26,0.14919607,-0.399156812,1,0,0,1.3562,Peridotite_rect,7,1.356,1,3,0,3,0,1,,,,,,,,,,,,
5aec7e89ae13140001fc0cdf,TCR,2024-06-10_14h07.30.673,LearnStrategy,2023.2.3,Linux x86_64,59.88023952,7,1,5,-0.001562342,-0.00965036,1,0,0,0.8769,rock_grid_rect_2,1,06,-1,-1,0.877,-0.382428344,-0.24716251,1,0,0,3.3953,Andesite_rect,1,3.395,1,4,0,4,0,1,,,,,,,,,,,,
5aec7e89ae13140001fc0cdf,TCR,2024-06-10_14h07.30.673,LearnStrategy,2023.2.3,Linux x86_64,59.88023952,7,1,6,0.003461309,-0.020282333,1,0,0,1.3439,rock_grid_rect_2,3,16,-1,-1,1.344,0.135335286,-0.261443734,1,0,0,1.2474,Diorite_rect,3,1.247,1,5,0,5,0,1,,,,,,,,,,,,
5aec7e89ae13140001fc0cdf,TCR,2024-06-10_14h07.30.673,LearnStrategy,2023.2.3,Linux x86_64,59.88023952,7,1,7,-0.002164814,-0.011130248,1,0,0,1.4584,rock_grid_rect_2,6,09,-1,-1,1.458,-0.151817143,-0.403647051,1,0,0,2.6177,Pegmatite_rect,6,2.618,1,6,0,6,0,1,,,,,,,,,,,,
5aec7e89ae13140001fc0cdf,TCR,2024-06-10_14h07.30.673,LearnStrategy,2023.2.3,Linux x86_64,59.88023952,7,1,8,0.005984454,0.020502762,1,0,0,1.3267,rock_grid_rect_2,2,11,-1,-1,1.327,0.37174823,-0.256811796,1,0,0,3.526,Gabbro_rect,4,3.526,0,7,0,7,0,1,,,,,,,,,,,,
5aec7e89ae13140001fc0cdf,TCR,2024-06-10_14h07.30.673,LearnStrategy,2023.2.3,Linux x86_64,59.88023952,7,1,9,-0.018780274,-0.012183498,1,0,0,1.3425,rock_grid_rect_2,5,16,-1,-1,1.343,-0.382782018,-0.402154914,1,0,0,2.1087,Obsidian_rect,5,2.109,1,8,0,8,0,1,,,,,,,,,,,,
5aec7e89ae13140001fc0cdf,TCR,2024-06-10_14h07.30.673,LearnStrategy,2023.2.3,Linux x86_64,59.88023952,7,1,10,-0.044876314,0.009248474,1,0,0,1.3944,rock_grid_rect_2,7,02,-1,-1,1.394,0.059775267,-0.392059899,1,0,0,2.2237,Peridotite_rect,7,2.224,1,9,0,9,0,1,,,,,,,,,,,,
5aec7e89ae13140001fc0cdf,TCR,2024-06-10_14h07.30.673,LearnStrategy,2023.2.3,Linux x86_64,59.88023952,7,1,11,-0.044873735,0.000102334,1,0,0,1.2053,rock_grid_rect_2,4,05,-1,-1,1.205,0.453188184,-0.240026913,1,0,0,1.7404,Gabbro_rect,4,1.74,1,10,0,10,0,1,,,,,,,,,,,,
5aec7e89ae13140001fc0cdf,TCR,2024-06-10_14h07.30.673,LearnStrategy,2023.2.3,Linux x86_64,59.88023952,7,1,12,-0.042695238,-0.01084993,1,0,0,1.2267,rock_grid_rect_2,1,07,-1,-1,1.227,-0.403317125,-0.23930015,1,0,0,1.1898,Andesite_rect,1,1.19,1,11,0,11,0,1,,,,,,,,,,,,
5aec7e89ae13140001fc0cdf,TCR,2024-06-10_14h07.30.673,LearnStrategy,2023.2.3,Linux x86_64,59.88023952,7,1,13,-0.03641793,0.002530523,1,0,0,2.9254,rock_grid_rect_2,2,16,-1,-1,2.925,-0.144896816,-0.242675208,1,0,0,1.3997,Basalt_rect,2,1.4,1,12,0,12,0,1,,,,,,,,,,,,
5aec7e89ae13140001fc0cdf,TCR,2024-06-10_14h07.30.673,LearnStrategy,2023.2.3,Linux x86_64,59.88023952,7,1,14,-0.018894607,-0.004770843,1,0,0,1.612,rock_grid_rect_2,4,10,-1,-1,1.612,0.431315677,-0.26551432,1,0,0,2.2482,Gabbro_rect,4,2.248,1,13,0,13,0,1,,,,,,,,,,,,
5aec7e89ae13140001fc0cdf,TCR,2024-06-10_14h07.30.673,LearnStrategy,2023.2.3,Linux x86_64,59.88023952,7,1,15,0.029313495,0.018785181,1,0,0,1.4094,rock_grid_rect_2,2,10,-1,-1,1.409,-0.106018998,-0.246540983,1,0,0,3.592,Basalt_rect,2,3.592,1,14,0,14,0,1,,,,,,,,,,,,
5aec7e89ae13140001fc0cdf,TCR,2024-06-10_14h07.30.673,LearnStrategy,2023.2.3,Linux x86_64,59.88023952,7,1,16,0.042924406,-0.009183499,1,0,0,1.4444,rock_grid_rect_2,1,07,-1,-1,1.444,-0.338706755,-0.238749903,1,0,0,1.3316,Andesite_rect,1,1.332,1,15,0,15,0,1,,,,,,,,,,,,
5aec7e89ae13140001fc0cdf,TCR,2024-06-10_14h07.30.673,LearnStrategy,2023.2.3,Linux x86_64,59.88023952,7,2,1,,,,,,,,2,05,,,,,,,,,,,2,2.288,1,,,,,,-0.202157249,-0.262857213,1,0,0,2.2876,Basalt_rect,0,0,0,0,1
5aec7e89ae13140001fc0cdf,TCR,2024-06-10_14h07.30.673,LearnStrategy,2023.2.3,Linux x86_64,59.88023952,7,2,2,,,,,,,,4,13,,,,,,,,,,,4,2.039,1,,,,,,0.445136988,-0.266540312,1,0,0,2.0391,Gabbro_rect,1,0,1,0,1
5aec7e89ae13140001fc0cdf,TCR,2024-06-10_14h07.30.673,LearnStrategy,2023.2.3,Linux x86_64,59.88023952,7,2,3,,,,,,,,1,11,,,,,,,,,,,1,1.58,1,,,,,,-0.348385269,-0.268259828,1,0,0,1.58,Andesite_rect,2,0,2,0,1
5aec7e89ae13140001fc0cdf,TCR,2024-06-10_14h07.30.673,LearnStrategy,2023.2.3,Linux x86_64,59.88023952,7,2,4,,,,,,,,1,10,,,,,,,,,,,4,3.474,0,,,,,,0.336523925,-0.251909211,1,0,0,3.4739,Gabbro_rect,3,0,3,0,1
5aec7e89ae13140001fc0cdf,TCR,2024-06-10_14h07.30.673,LearnStrategy,2023.2.3,Linux x86_64,59.88023952,7,2,5,,,,,,,,5,14,,,,,,,,,,,5,1.455,1,,,,,,-0.363812621,-0.396990566,1,0,0,1.4547,Obsidian_rect,4,0,4,0,1
5aec7e89ae13140001fc0cdf,TCR,2024-06-10_14h07.30.673,LearnStrategy,2023.2.3,Linux x86_64,59.88023952,7,2,6,,,,,,,,5,07,,,,,,,,,,,5,1.91,1,,,,,,-0.363812621,-0.396990566,1,0,0,1.91,Obsidian_rect,5,0,5,0,1
5aec7e89ae13140001fc0cdf,TCR,2024-06-10_14h07.30.673,LearnStrategy,2023.2.3,Linux x86_64,59.88023952,7,2,7,,,,,,,,3,02,,,,,,,,,,,3,1.251,1,,,,,,0.142048581,-0.252024691,1,0,0,1.2509,Diorite_rect,6,0,6,0,1
5aec7e89ae13140001fc0cdf,TCR,2024-06-10_14h07.30.673,LearnStrategy,2023.2.3,Linux x86_64,59.88023952,7,2,8,,,,,,,,7,08,,,,,,,,,,,7,1.984,1,,,,,,0.133398781,-0.409895489,1,0,0,1.9839,Peridotite_rect,7,0,7,0,1
5aec7e89ae13140001fc0cdf,TCR,2024-06-10_14h07.30.673,LearnStrategy,2023.2.3,Linux x86_64,59.88023952,7,2,9,,,,,,,,8,10,,,,,,,,,,,8,1.539,1,,,,,,0.326037196,-0.405306462,1,0,0,1.5393,Pumice_rect,8,0,8,0,1
5aec7e89ae13140001fc0cdf,TCR,2024-06-10_14h07.30.673,LearnStrategy,2023.2.3,Linux x86_64,59.88023952,7,2,10,,,,,,,,6,11,,,,,,,,,,,6,1.326,1,,,,,,-0.133714559,-0.410137982,1,0,0,1.326,Pegmatite_rect,9,0,9,0,1
5aec7e89ae13140001fc0cdf,TCR,2024-06-10_14h07.30.673,LearnStrategy,2023.2.3,Linux x86_64,59.88023952,7,2,11,,,,,,,,3,15,,,,,,,,,,,3,2.291,1,,,,,,0.161776332,-0.252551155,1,0,0,2.2906,Diorite_rect,10,0,10,0,1
5aec7e89ae13140001fc0cdf,TCR,2024-06-10_14h07.30.673,LearnStrategy,2023.2.3,Linux x86_64,59.88023952,7,2,12,,,,,,,,8,02,,,,,,,,,,,8,1.499,1,,,,,,0.34983575,-0.390246324,1,0,0,1.4988,Pumice_rect,11,0,11,0,1
5aec7e89ae13140001fc0cdf,TCR,2024-06-10_14h07.30.673,LearnStrategy,2023.2.3,Linux x86_64,59.88023952,7,2,13,,,,,,,,6,15,,,,,,,,,,,6,1.321,1,,,,,,-0.093560161,-0.393999915,1,0,0,1.3212,Pegmatite_rect,12,0,12,0,1
5aec7e89ae13140001fc0cdf,TCR,2024-06-10_14h07.30.673,LearnStrategy,2023.2.3,Linux x86_64,59.88023952,7,2,14,,,,,,,,4,03,,,,,,,,,,,4,3.695,1,,,,,,0.312701445,-0.245482324,1,0,0,3.695,Gabbro_rect,13,0,13,0,1
5aec7e89ae13140001fc0cdf,TCR,2024-06-10_14h07.30.673,LearnStrategy,2023.2.3,Linux x86_64,59.88023952,7,2,15,,,,,,,,7,12,,,,,,,,,,,7,1.424,1,,,,,,0.129914046,-0.392984596,1,0,0,1.4237,Peridotite_rect,14,0,14,0,1
5aec7e89ae13140001fc0cdf,TCR,2024-06-10_14h07.30.673,LearnStrategy,2023.2.3,Linux x86_64,59.88023952,7,2,16,,,,,,,,2,14,,,,,,,,,,,2,1.509,1,,,,,,-0.117644189,-0.256444582,1,0,0,1.5087,Basalt_rect,15,0,15,0,1
5aec7e89ae13140001fc0cdf,TCR,2024-06-10_14h07.30.673,LearnStrategy,2023.2.3,Linux x86_64,59.88023952,8,1,1,0.080662114,-0.01079022,1,0,0,96.018,rock_grid_rect_2,1,01,-1,-1,96.018,-0.385597695,-0.239199929,1,0,0,5.9382,Andesite_rect,1,5.938,1,0,0,0,0,1,,,,,,,,,,,,
5aec7e89ae13140001fc0cdf,TCR,2024-06-10_14h07.30.673,LearnStrategy,2023.2.3,Linux x86_64,59.88023952,8,1,2,0.049411541,0.007415485,1,0,0,1.2106,rock_grid_rect_2,2,04,-1,-1,1.211,-0.117262648,-0.266900506,1,0,0,1.828,Basalt_rect,2,1.828,1,1,0,1,0,1,,,,,,,,,,,,
5aec7e89ae13140001fc0cdf,TCR,2024-06-10_14h07.30.673,LearnStrategy,2023.2.3,Linux x86_64,59.88023952,8,1,3,0.017562078,0.006135072,1,0,0,1.11,rock_grid_rect_2,1,03,-1,-1,1.11,-0.402569193,-0.240504878,1,0,0,1.3818,Andesite_rect,1,1.382,1,2,0,2,0,1,,,,,,,,,,,,
5aec7e89ae13140001fc0cdf,TCR,2024-06-10_14h07.30.673,LearnStrategy,2023.2.3,Linux x86_64,59.88023952,8,1,4,-0.035670392,-0.021887372,1,0,0,1.0599,rock_grid_rect_2,4,11,-1,-1,1.06,0.329761057,-0.244897619,1,0,0,2.052,Gabbro_rect,4,2.052,1,3,0,3,0,1,,,,,,,,,,,,
5aec7e89ae13140001fc0cdf,TCR,2024-06-10_14h07.30.673,LearnStrategy,2023.2.3,Linux x86_64,59.88023952,8,1,5,0.027104624,0.000675255,1,0,0,1.2772,rock_grid_rect_2,2,09,-1,-1,1.277,-0.154375246,-0.25125645,1,0,0,3.1139,Basalt_rect,2,3.114,1,4,0,4,0,1,,,,,,,,,,,,
5aec7e89ae13140001fc0cdf,TCR,2024-06-10_14h07.30.673,LearnStrategy,2023.2.3,Linux x86_64,59.88023952,8,1,6,0.10442098,-0.009610351,1,0,0,0.9609,rock_grid_rect_2,1,07,-1,-1,0.961,-0.339558669,-0.235480009,1,0,0,2.3393,Andesite_rect,1,2.339,1,5,0,5,0,1,,,,,,,,,,,,
5aec7e89ae13140001fc0cdf,TCR,2024-06-10_14h07.30.673,LearnStrategy,2023.2.3,Linux x86_64,59.88023952,8,1,7,0.04372166,0.018407687,1,0,0,1.1763,rock_grid_rect_2,4,16,-1,-1,1.176,0.387375236,-0.250660928,1,0,0,2.759,Gabbro_rect,4,2.759,1,6,0,6,0,1,,,,,,,,,,,,
5aec7e89ae13140001fc0cdf,TCR,2024-06-10_14h07.30.673,LearnStrategy,2023.2.3,Linux x86_64,59.88023952,8,1,8,0.012431901,0.004235066,1,0,0,1.2426,rock_grid_rect_2,7,05,-1,-1,1.243,0.157636544,-0.412939725,1,0,0,1.5647,Peridotite_rect,7,1.565,1,7,0,7,0,1,,,,,,,,,,,,
5aec7e89ae13140001fc0cdf,TCR,2024-06-10_14h07.30.673,LearnStrategy,2023.2.3,Linux x86_64,59.88023952,8,1,9,-0.021533089,0.00718277,1,0,0,1.3596,rock_grid_rect_2,3,10,-1,-1,1.36,0.162692361,-0.252913927,1,0,0,2.1067,Diorite_rect,3,2.107,1,8,0,8,0,1,,,,,,,,,,,,
5aec7e89ae13140001fc0cdf,TCR,2024-06-10_14h07.30.673,LearnStrategy,2023.2.3,Linux x86_64,59.88023952,8,1,10,0.029891466,0.003829168,1,0,0,0.9766,rock_grid_rect_2,1,06,-1,-1,0.977,-0.367673525,-0.236663603,1,0,0,1.9518,Andesite_rect,1,1.952,1,9,0,9,0,1,,,,,,,,,,,,
5aec7e89ae13140001fc0cdf,TCR,2024-06-10_14h07.30.673,LearnStrategy,2023.2.3,Linux x86_64,59.88023952,8,1,11,-0.05158316,-0.015005121,1,0,0,1.926,rock_grid_rect_2,8,13,-1,-1,1.926,0.353575514,-0.413058787,1,0,0,1.3643,Pumice_rect,8,1.364,1,10,0,10,0,1,,,,,,,,,,,,
5aec7e89ae13140001fc0cdf,TCR,2024-06-10_14h07.30.673,LearnStrategy,2023.2.3,Linux x86_64,59.88023952,8,1,12,0.025548084,0.008173983,1,0,0,1.3936,rock_grid_rect_2,6,09,-1,-1,1.394,-0.165694689,-0.409382923,1,0,0,1.5827,Pegmatite_rect,6,1.583,1,11,0,11,0,1,,,,,,,,,,,,
5aec7e89ae13140001fc0cdf,TCR,2024-06-10_14h07.30.673,LearnStrategy,2023.2.3,Linux x86_64,59.88023952,8,1,13,-0.031225142,-0.021746819,1,0,0,1.0771,rock_grid_rect_2,7,05,-1,-1,1.077,0.062330721,-0.408717769,1,0,0,1.3205,Peridotite_rect,7,1.321,1,12,0,12,0,1,,,,,,,,,,,,
5aec7e89ae13140001fc0cdf,TCR,2024-06-10_14h07.30.673,LearnStrategy,2023.2.3,Linux x86_64,59.88023952,8,1,14,0.053258547,-0.00069123,1,0,0,1.4758,rock_grid_rect_2,5,10,-1,-1,1.476,-0.414867168,-0.416158255,1,0,0,1.4784,Obsidian_rect,5,1.478,1,13,0,13,0,1,,,,,,,,,,,,
5aec7e89ae13140001fc0cdf,TCR,2024-06-10_14h07.30.673,LearnStrategy,2023.2.3,Linux x86_64,59.88023952,8,1,15,-0.029911023,-0.011342295,1,0,0,1.5769,rock_grid_rect_2,4,12,-1,-1,1.577,0.3403753,-0.24978824,1,0,0,3.1238,Gabbro_rect,4,3.124,1,14,0,14,0,1,,,,,,,,,,,,
5aec7e89ae13140001fc0cdf,TCR,2024-06-10_14h07.30.673,LearnStrategy,2023.2.3,Linux x86_64,59.88023952,8,1,16,0.028604427,-0.008181827,1,0,0,1.4606,rock_grid_rect_2,1,03,-1,-1,1.461,-0.397498404,-0.241740267,1,0,0,1.9418,Andesite_rect,1,1.942,1,15,0,15,0,1,,,,,,,,,,,,
5aec7e89ae13140001fc0cdf,TCR,2024-06-10_14h07.30.673,LearnStrategy,2023.2.3,Linux x86_64,59.88023952,8,2,1,,,,,,,,5,09,,,,,,,,,,,5,1.239,1,,,,,,-0.365072152,-0.401463253,1,0,0,1.2387,Obsidian_rect,0,0,0,0,1
5aec7e89ae13140001fc0cdf,TCR,2024-06-10_14h07.30.673,LearnStrategy,2023.2.3,Linux x86_64,59.88023952,8,2,2,,,,,,,,4,09,,,,,,,,,,,4,2.292,1,,,,,,0.430885279,-0.240766857,1,0,0,2.2916,Gabbro_rect,1,0,1,0,1
5aec7e89ae13140001fc0cdf,TCR,2024-06-10_14h07.30.673,LearnStrategy,2023.2.3,Linux x86_64,59.88023952,8,2,3,,,,,,,,5,12,,,,,,,,,,,5,1.325,1,,,,,,-0.353186021,-0.409399543,1,0,0,1.3246,Obsidian_rect,2,0,2,0,1
5aec7e89ae13140001fc0cdf,TCR,2024-06-10_14h07.30.673,LearnStrategy,2023.2.3,Linux x86_64,59.88023952,8,2,4,,,,,,,,2,12,,,,,,,,,,,8,1.465,0,,,,,,0.38474485,-0.417936227,1,0,0,1.4645,Pumice_rect,3,0,3,0,1
5aec7e89ae13140001fc0cdf,TCR,2024-06-10_14h07.30.673,LearnStrategy,2023.2.3,Linux x86_64,59.88023952,8,2,5,,,,,,,,2,06,,,,,,,,,,,2,1.745,1,,,,,,-0.105677717,-0.240142607,1,0,0,1.7449,Basalt_rect,4,0,4,0,1
5aec7e89ae13140001fc0cdf,TCR,2024-06-10_14h07.30.673,LearnStrategy,2023.2.3,Linux x86_64,59.88023952,8,2,6,,,,,,,,8,16,,,,,,,,,,,8,1.366,1,,,,,,0.349916986,-0.404892827,1,0,0,1.3656,Pumice_rect,5,0,5,0,1
5aec7e89ae13140001fc0cdf,TCR,2024-06-10_14h07.30.673,LearnStrategy,2023.2.3,Linux x86_64,59.88023952,8,2,7,,,,,,,,7,16,,,,,,,,,,,4,6.238,0,,,,,,0.390627436,-0.228922096,1,0,0,6.238,Gabbro_rect,6,0,6,0,1
5aec7e89ae13140001fc0cdf,TCR,2024-06-10_14h07.30.673,LearnStrategy,2023.2.3,Linux x86_64,59.88023952,8,2,8,,,,,,,,6,07,,,,,,,,,,,6,1.722,1,,,,,,-0.224012061,-0.406088672,1,0,0,1.7224,Pegmatite_rect,7,0,7,0,1
5aec7e89ae13140001fc0cdf,TCR,2024-06-10_14h07.30.673,LearnStrategy,2023.2.3,Linux x86_64,59.88023952,8,2,9,,,,,,,,1,14,,,,,,,,,,,3,3.362,0,,,,,,0.111322107,-0.255753853,1,0,0,3.362,Diorite_rect,8,0,8,0,1
5aec7e89ae13140001fc0cdf,TCR,2024-06-10_14h07.30.673,LearnStrategy,2023.2.3,Linux x86_64,59.88023952,8,2,10,,,,,,,,4,08,,,,,,,,,,,4,1.643,1,,,,,,0.439537657,-0.257608476,1,0,0,1.6434,Gabbro_rect,9,0,9,0,1
5aec7e89ae13140001fc0cdf,TCR,2024-06-10_14h07.30.673,LearnStrategy,2023.2.3,Linux x86_64,59.88023952,8,2,11,,,,,,,,8,04,,,,,,,,,,,8,1.804,1,,,,,,0.423453174,-0.409800427,1,0,0,1.804,Pumice_rect,10,0,10,0,1
5aec7e89ae13140001fc0cdf,TCR,2024-06-10_14h07.30.673,LearnStrategy,2023.2.3,Linux x86_64,59.88023952,8,2,12,,,,,,,,3,14,,,,,,,,,,,3,1.409,1,,,,,,0.111488808,-0.245792801,1,0,0,1.4087,Diorite_rect,11,0,11,0,1
5aec7e89ae13140001fc0cdf,TCR,2024-06-10_14h07.30.673,LearnStrategy,2023.2.3,Linux x86_64,59.88023952,8,2,13,,,,,,,,7,14,,,,,,,,,,,7,1.199,1,,,,,,0.129668975,-0.407487968,1,0,0,1.1987,Peridotite_rect,12,0,12,0,1
5aec7e89ae13140001fc0cdf,TCR,2024-06-10_14h07.30.673,LearnStrategy,2023.2.3,Linux x86_64,59.88023952,8,2,14,,,,,,,,6,05,,,,,,,,,,,3,2.532,0,,,,,,0.064386932,-0.263052999,1,0,0,2.5317,Diorite_rect,13,0,13,0,1
5aec7e89ae13140001fc0cdf,TCR,2024-06-10_14h07.30.673,LearnStrategy,2023.2.3,Linux x86_64,59.88023952,8,2,15,,,,,,,,1,05,,,,,,,,,,,1,3.065,1,,,,,,-0.437361274,-0.270391975,1,0,0,3.0654,Andesite_rect,14,0,14,0,1
5aec7e89ae13140001fc0cdf,TCR,2024-06-10_14h07.30.673,LearnStrategy,2023.2.3,Linux x86_64,59.88023952,8,2,16,,,,,,,,3,09,,,,,,,,,,,3,1.891,1,,,,,,0.076586513,-0.267199592,1,0,0,1.891,Diorite_rect,15,0,15,0,1
5aec7e89ae13140001fc0cdf,TCR,2024-06-10_14h07.30.673,LearnStrategy,2023.2.3,Linux x86_64,59.88023952,9,1,1,0.083139626,-0.008278896,1,0,0,1.6285,rock_grid_rect_2,2,09,-1,-1,1.628,-0.110452858,-0.242230697,1,0,0,1.8579,Basalt_rect,2,1.858,1,0,0,0,0,1,,,,,,,,,,,,
5aec7e89ae13140001fc0cdf,TCR,2024-06-10_14h07.30.673,LearnStrategy,2023.2.3,Linux x86_64,59.88023952,9,1,2,0.068960844,-0.011309198,1,0,0,1.3594,rock_grid_rect_2,7,10,-1,-1,1.359,0.100759515,-0.407714486,1,0,0,3.0279,Peridotite_rect,7,3.028,1,1,0,1,0,1,,,,,,,,,,,,
5aec7e89ae13140001fc0cdf,TCR,2024-06-10_14h07.30.673,LearnStrategy,2023.2.3,Linux x86_64,59.88023952,9,1,3,0.080064156,-0.0084812,1,0,0,1.1933,rock_grid_rect_2,6,09,-1,-1,1.193,-0.141346032,-0.419132358,1,0,0,1.3767,Pegmatite_rect,6,1.377,1,2,0,2,0,1,,,,,,,,,,,,
5aec7e89ae13140001fc0cdf,TCR,2024-06-10_14h07.30.673,LearnStrategy,2023.2.3,Linux x86_64,59.88023952,9,1,4,-0.040911751,0.015712111,1,0,0,12.9505,rock_grid_rect_2,4,10,-1,-1,12.951,0.40339897,-0.243359203,1,0,0,2.1895,Gabbro_rect,4,2.189,1,3,0,3,0,1,,,,,,,,,,,,
5aec7e89ae13140001fc0cdf,TCR,2024-06-10_14h07.30.673,LearnStrategy,2023.2.3,Linux x86_64,59.88023952,9,1,5,0.065983231,-0.014864425,1,0,0,1.2597,rock_grid_rect_2,2,01,-1,-1,1.26,-0.099808169,-0.253385947,1,0,0,1.9895,Basalt_rect,2,1.989,1,4,0,4,0,1,,,,,,,,,,,,
5aec7e89ae13140001fc0cdf,TCR,2024-06-10_14h07.30.673,LearnStrategy,2023.2.3,Linux x86_64,59.88023952,9,1,6,-0.014194256,0.009957757,1,0,0,1.0933,rock_grid_rect_2,1,07,-1,-1,1.093,-0.390316027,-0.270713126,1,0,0,1.9035,Andesite_rect,1,1.904,1,5,0,5,0,1,,,,,,,,,,,,
5aec7e89ae13140001fc0cdf,TCR,2024-06-10_14h07.30.673,LearnStrategy,2023.2.3,Linux x86_64,59.88023952,9,1,7,0.110249121,-0.023293294,1,0,0,1.3593,rock_grid_rect_2,3,11,-1,-1,1.359,0.117863543,-0.252905904,1,0,0,1.6647,Diorite_rect,3,1.665,1,6,0,6,0,1,,,,,,,,,,,,
5aec7e89ae13140001fc0cdf,TCR,2024-06-10_14h07.30.673,LearnStrategy,2023.2.3,Linux x86_64,59.88023952,9,1,8,0.007948683,-0.018355284,1,0,0,1.0435,rock_grid_rect_2,4,16,-1,-1,1.043,-0.101262339,-0.268433835,1,0,0,1.2811,Basalt_rect,2,1.281,0,7,0,7,0,1,,,,,,,,,,,,
5aec7e89ae13140001fc0cdf,TCR,2024-06-10_14h07.30.673,LearnStrategy,2023.2.3,Linux x86_64,59.88023952,9,1,9,0.012190125,-0.011138629,1,0,0,1.2756,rock_grid_rect_2,1,06,-1,-1,1.276,-0.381998662,-0.229330788,1,0,0,1.4924,Andesite_rect,1,1.492,1,8,0,8,0,1,,,,,,,,,,,,
5aec7e89ae13140001fc0cdf,TCR,2024-06-10_14h07.30.673,LearnStrategy,2023.2.3,Linux x86_64,59.88023952,9,1,10,0.05270221,-0.001291445,1,0,0,1.2745,rock_grid_rect_2,1,02,-1,-1,1.274,-0.375256677,-0.247282073,1,0,0,2.7527,Andesite_rect,1,2.753,1,9,0,9,0,1,,,,,,,,,,,,
5aec7e89ae13140001fc0cdf,TCR,2024-06-10_14h07.30.673,LearnStrategy,2023.2.3,Linux x86_64,59.88023952,9,1,11,0.005239567,-0.002824309,1,0,0,1.1418,rock_grid_rect_2,7,02,-1,-1,1.142,0.102880917,-0.408676792,1,0,0,1.2441,Peridotite_rect,7,1.244,1,10,0,10,0,1,,,,,,,,,,,,
5aec7e89ae13140001fc0cdf,TCR,2024-06-10_14h07.30.673,LearnStrategy,2023.2.3,Linux x86_64,59.88023952,9,1,12,0.038682893,0.01014165,1,0,0,1.0427,rock_grid_rect_2,5,08,-1,-1,1.043,-0.466193508,-0.402961767,1,0,0,1.5212,Obsidian_rect,5,1.521,1,11,0,11,0,1,,,,,,,,,,,,
5aec7e89ae13140001fc0cdf,TCR,2024-06-10_14h07.30.673,LearnStrategy,2023.2.3,Linux x86_64,59.88023952,9,1,13,0.005365578,-0.007686311,1,0,0,0.911,rock_grid_rect_2,6,03,-1,-1,0.911,-0.100528413,-0.401387103,1,0,0,1.3498,Pegmatite_rect,6,1.35,1,12,0,12,0,1,,,,,,,,,,,,
5aec7e89ae13140001fc0cdf,TCR,2024-06-10_14h07.30.673,LearnStrategy,2023.2.3,Linux x86_64,59.88023952,9,1,14,-0.019847458,-0.013357565,1,0,0,0.9934,rock_grid_rect_2,7,07,-1,-1,0.993,0.103831188,-0.38985547,1,0,0,1.8299,Peridotite_rect,7,1.83,1,13,0,13,0,1,,,,,,,,,,,,
5aec7e89ae13140001fc0cdf,TCR,2024-06-10_14h07.30.673,LearnStrategy,2023.2.3,Linux x86_64,59.88023952,9,1,15,0.028093437,-0.011379117,1,0,0,1.5932,rock_grid_rect_2,8,08,-1,-1,1.593,0.351983299,-0.401916862,1,0,0,2.1233,Pumice_rect,8,2.123,1,14,0,14,0,1,,,,,,,,,,,,
5aec7e89ae13140001fc0cdf,TCR,2024-06-10_14h07.30.673,LearnStrategy,2023.2.3,Linux x86_64,59.88023952,9,1,16,-0.027521769,0.00309517,1,0,0,1.1938,rock_grid_rect_2,2,10,-1,-1,1.194,-0.139476507,-0.268110248,1,0,0,2.2752,Basalt_rect,2,2.275,1,15,0,15,0,1,,,,,,,,,,,,
5aec7e89ae13140001fc0cdf,TCR,2024-06-10_14h07.30.673,LearnStrategy,2023.2.3,Linux x86_64,59.88023952,9,2,1,,,,,,,,5,11,,,,,,,,,,,5,2.102,1,,,,,,-0.396075038,-0.408098104,1,0,0,2.1017,Obsidian_rect,0,0,0,0,1
5aec7e89ae13140001fc0cdf,TCR,2024-06-10_14h07.30.673,LearnStrategy,2023.2.3,Linux x86_64,59.88023952,9,2,2,,,,,,,,8,03,,,,,,,,,,,8,1.628,1,,,,,,0.380394018,-0.409565097,1,0,0,1.6283,Pumice_rect,1,0,1,0,1
5aec7e89ae13140001fc0cdf,TCR,2024-06-10_14h07.30.673,LearnStrategy,2023.2.3,Linux x86_64,59.88023952,9,2,3,,,,,,,,6,10,,,,,,,,,,,6,1.802,1,,,,,,-0.09838903,-0.420262511,1,0,0,1.8015,Pegmatite_rect,2,0,2,0,1
5aec7e89ae13140001fc0cdf,TCR,2024-06-10_14h07.30.673,LearnStrategy,2023.2.3,Linux x86_64,59.88023952,9,2,4,,,,,,,,4,01,,,,,,,,,,,4,2.198,1,,,,,,0.459551601,-0.251425443,1,0,0,2.198,Gabbro_rect,3,0,3,0,1
5aec7e89ae13140001fc0cdf,TCR,2024-06-10_14h07.30.673,LearnStrategy,2023.2.3,Linux x86_64,59.88023952,9,2,5,,,,,,,,2,02,,,,,,,,,,,2,1.623,1,,,,,,-0.075281492,-0.231035833,1,0,0,1.6233,Basalt_rect,4,0,4,0,1
5aec7e89ae13140001fc0cdf,TCR,2024-06-10_14h07.30.673,LearnStrategy,2023.2.3,Linux x86_64,59.88023952,9,2,6,,,,,,,,8,09,,,,,,,,,,,8,1.759,1,,,,,,0.366793064,-0.398467015,1,0,0,1.7586,Pumice_rect,5,0,5,0,1
5aec7e89ae13140001fc0cdf,TCR,2024-06-10_14h07.30.673,LearnStrategy,2023.2.3,Linux x86_64,59.88023952,9,2,7,,,,,,,,2,08,,,,,,,,,,,2,2.343,1,,,,,,-0.107478397,-0.247729951,1,0,0,2.3427,Basalt_rect,6,0,6,0,1
5aec7e89ae13140001fc0cdf,TCR,2024-06-10_14h07.30.673,LearnStrategy,2023.2.3,Linux x86_64,59.88023952,9,2,8,,,,,,,,6,16,,,,,,,,,,,6,2.555,1,,,,,,-0.119076653,-0.389933268,1,0,0,2.5547,Pegmatite_rect,7,0,7,0,1
5aec7e89ae13140001fc0cdf,TCR,2024-06-10_14h07.30.673,LearnStrategy,2023.2.3,Linux x86_64,59.88023952,9,2,9,,,,,,,,3,12,,,,,,,,,,,3,1.565,1,,,,,,0.159943272,-0.253027616,1,0,0,1.5646,Diorite_rect,8,0,8,0,1
5aec7e89ae13140001fc0cdf,TCR,2024-06-10_14h07.30.673,LearnStrategy,2023.2.3,Linux x86_64,59.88023952,9,2,10,,,,,,,,5,02,,,,,,,,,,,5,1.379,1,,,,,,-0.371888783,-0.419609894,1,0,0,1.3786,Obsidian_rect,9,0,9,0,1
5aec7e89ae13140001fc0cdf,TCR,2024-06-10_14h07.30.673,LearnStrategy,2023.2.3,Linux x86_64,59.88023952,9,2,11,,,,,,,,7,04,,,,,,,,,,,6,4.365,0,,,,,,-0.189544893,-0.395908768,1,0,0,4.3655,Pegmatite_rect,10,0,10,0,1
5aec7e89ae13140001fc0cdf,TCR,2024-06-10_14h07.30.673,LearnStrategy,2023.2.3,Linux x86_64,59.88023952,9,2,12,,,,,,,,4,14,,,,,,,,,,,4,1.663,1,,,,,,0.418404593,-0.236990987,1,0,0,1.6631,Gabbro_rect,11,0,11,0,1
5aec7e89ae13140001fc0cdf,TCR,2024-06-10_14h07.30.673,LearnStrategy,2023.2.3,Linux x86_64,59.88023952,9,2,13,,,,,,,,1,09,,,,,,,,,,,1,1.938,1,,,,,,-0.333315531,-0.238137617,1,0,0,1.9377,Andesite_rect,12,0,12,0,1
5aec7e89ae13140001fc0cdf,TCR,2024-06-10_14h07.30.673,LearnStrategy,2023.2.3,Linux x86_64,59.88023952,9,2,14,,,,,,,,3,08,,,,,,,,,,,3,1.63,1,,,,,,0.102245993,-0.253707742,1,0,0,1.6301,Diorite_rect,13,0,13,0,1
5aec7e89ae13140001fc0cdf,TCR,2024-06-10_14h07.30.673,LearnStrategy,2023.2.3,Linux x86_64,59.88023952,9,2,15,,,,,,,,1,04,,,,,,,,,,,1,2.28,1,,,,,,-0.3880338,-0.251817085,1,0,0,2.2796,Andesite_rect,14,0,14,0,1
5aec7e89ae13140001fc0cdf,TCR,2024-06-10_14h07.30.673,LearnStrategy,2023.2.3,Linux x86_64,59.88023952,9,2,16,,,,,,,,7,15,,,,,,,,,,,7,1.284,1,,,,,,0.180474223,-0.415931952,1,0,0,1.2843,Peridotite_rect,15,0,15,0,1
5aec7e89ae13140001fc0cdf,TCR,2024-06-10_14h07.30.673,LearnStrategy,2023.2.3,Linux x86_64,59.88023952,,,,,,,,,,,,,,,,,,,,,,,,,,,,,,,,,,,,,,,,,,
5aec7e89ae13140001fc0cdf,TCR,2024-06-10_14h07.30.673,LearnStrategy,2023.2.3,Linux x86_64,59.88023952,,,,,,,,,,,,,,,,,,,,,,,,,,,,,,,,,,,,,,,,,,
5aec7e89ae13140001fc0cdf,TCR,2024-06-10_14h07.30.673,LearnStrategy,2023.2.3,Linux x86_64,59.88023952,,,,,,,,,,,4,11,1,1,,,,,,,,,,,,,,,,,,,,,,,,,,,,
5aec7e89ae13140001fc0cdf,TCR,2024-06-10_14h07.30.673,LearnStrategy,2023.2.3,Linux x86_64,59.88023952,,,,,,,,,,,8,05,1,2,,,,,,,,,,,,,,,,,,,,,,,,,,,,
5aec7e89ae13140001fc0cdf,TCR,2024-06-10_14h07.30.673,LearnStrategy,2023.2.3,Linux x86_64,59.88023952,,,,,,,,,,,3,07,1,3,,,,,,,,,,,,,,,,,,,,,,,,,,,,
5aec7e89ae13140001fc0cdf,TCR,2024-06-10_14h07.30.673,LearnStrategy,2023.2.3,Linux x86_64,59.88023952,,,,,,,,,,,1,03,1,4,,,,,,,,,,,,,,,,,,,,,,,,,,,,
5aec7e89ae13140001fc0cdf,TCR,2024-06-10_14h07.30.673,LearnStrategy,2023.2.3,Linux x86_64,59.88023952,,,,,,,,,,,2,01,1,5,,,,,,,,,,,,,,,,,,,,,,,,,,,,
5aec7e89ae13140001fc0cdf,TCR,2024-06-10_14h07.30.673,LearnStrategy,2023.2.3,Linux x86_64,59.88023952,,,,,,,,,,,8,08,1,6,,,,,,,,,,,,,,,,,,,,,,,,,,,,
5aec7e89ae13140001fc0cdf,TCR,2024-06-10_14h07.30.673,LearnStrategy,2023.2.3,Linux x86_64,59.88023952,,,,,,,,,,,2,16,1,7,,,,,,,,,,,,,,,,,,,,,,,,,,,,
5aec7e89ae13140001fc0cdf,TCR,2024-06-10_14h07.30.673,LearnStrategy,2023.2.3,Linux x86_64,59.88023952,,,,,,,,,,,3,16,1,8,,,,,,,,,,,,,,,,,,,,,,,,,,,,
5aec7e89ae13140001fc0cdf,TCR,2024-06-10_14h07.30.673,LearnStrategy,2023.2.3,Linux x86_64,59.88023952,,,,,,,,,,,8,14,2,1,,,,,,,,,,,,,,,,,,,,,,,,,,,,
5aec7e89ae13140001fc0cdf,TCR,2024-06-10_14h07.30.673,LearnStrategy,2023.2.3,Linux x86_64,59.88023952,,,,,,,,,,,2,04,2,2,,,,,,,,,,,,,,,,,,,,,,,,,,,,
5aec7e89ae13140001fc0cdf,TCR,2024-06-10_14h07.30.673,LearnStrategy,2023.2.3,Linux x86_64,59.88023952,,,,,,,,,,,7,06,2,3,,,,,,,,,,,,,,,,,,,,,,,,,,,,
5aec7e89ae13140001fc0cdf,TCR,2024-06-10_14h07.30.673,LearnStrategy,2023.2.3,Linux x86_64,59.88023952,,,,,,,,,,,3,11,2,4,,,,,,,,,,,,,,,,,,,,,,,,,,,,
5aec7e89ae13140001fc0cdf,TCR,2024-06-10_14h07.30.673,LearnStrategy,2023.2.3,Linux x86_64,59.88023952,,,,,,,,,,,7,07,2,5,,,,,,,,,,,,,,,,,,,,,,,,,,,,
5aec7e89ae13140001fc0cdf,TCR,2024-06-10_14h07.30.673,LearnStrategy,2023.2.3,Linux x86_64,59.88023952,,,,,,,,,,,2,10,2,6,,,,,,,,,,,,,,,,,,,,,,,,,,,,
5aec7e89ae13140001fc0cdf,TCR,2024-06-10_14h07.30.673,LearnStrategy,2023.2.3,Linux x86_64,59.88023952,,,,,,,,,,,6,08,2,7,,,,,,,,,,,,,,,,,,,,,,,,,,,,
5aec7e89ae13140001fc0cdf,TCR,2024-06-10_14h07.30.673,LearnStrategy,2023.2.3,Linux x86_64,59.88023952,,,,,,,,,,,3,10,2,8,,,,,,,,,,,,,,,,,,,,,,,,,,,,
5aec7e89ae13140001fc0cdf,TCR,2024-06-10_14h07.30.673,LearnStrategy,2023.2.3,Linux x86_64,59.88023952,,,,,,,,,,,7,02,3,1,,,,,,,,,,,,,,,,,,,,,,,,,,,,
5aec7e89ae13140001fc0cdf,TCR,2024-06-10_14h07.30.673,LearnStrategy,2023.2.3,Linux x86_64,59.88023952,,,,,,,,,,,6,03,3,2,,,,,,,,,,,,,,,,,,,,,,,,,,,,
5aec7e89ae13140001fc0cdf,TCR,2024-06-10_14h07.30.673,LearnStrategy,2023.2.3,Linux x86_64,59.88023952,,,,,,,,,,,4,12,3,3,,,,,,,,,,,,,,,,,,,,,,,,,,,,
5aec7e89ae13140001fc0cdf,TCR,2024-06-10_14h07.30.673,LearnStrategy,2023.2.3,Linux x86_64,59.88023952,,,,,,,,,,,5,05,3,4,,,,,,,,,,,,,,,,,,,,,,,,,,,,
5aec7e89ae13140001fc0cdf,TCR,2024-06-10_14h07.30.673,LearnStrategy,2023.2.3,Linux x86_64,59.88023952,,,,,,,,,,,5,04,3,5,,,,,,,,,,,,,,,,,,,,,,,,,,,,
5aec7e89ae13140001fc0cdf,TCR,2024-06-10_14h07.30.673,LearnStrategy,2023.2.3,Linux x86_64,59.88023952,,,,,,,,,,,6,13,3,6,,,,,,,,,,,,,,,,,,,,,,,,,,,,
5aec7e89ae13140001fc0cdf,TCR,2024-06-10_14h07.30.673,LearnStrategy,2023.2.3,Linux x86_64,59.88023952,,,,,,,,,,,4,16,3,7,,,,,,,,,,,,,,,,,,,,,,,,,,,,
5aec7e89ae13140001fc0cdf,TCR,2024-06-10_14h07.30.673,LearnStrategy,2023.2.3,Linux x86_64,59.88023952,,,,,,,,,,,4,05,3,8,,,,,,,,,,,,,,,,,,,,,,,,,,,,
5aec7e89ae13140001fc0cdf,TCR,2024-06-10_14h07.30.673,LearnStrategy,2023.2.3,Linux x86_64,59.88023952,,,,,,,,,,,6,09,4,1,,,,,,,,,,,,,,,,,,,,,,,,,,,,
5aec7e89ae13140001fc0cdf,TCR,2024-06-10_14h07.30.673,LearnStrategy,2023.2.3,Linux x86_64,59.88023952,,,,,,,,,,,5,10,4,2,,,,,,,,,,,,,,,,,,,,,,,,,,,,
5aec7e89ae13140001fc0cdf,TCR,2024-06-10_14h07.30.673,LearnStrategy,2023.2.3,Linux x86_64,59.88023952,,,,,,,,,,,1,06,4,3,,,,,,,,,,,,,,,,,,,,,,,,,,,,
5aec7e89ae13140001fc0cdf,TCR,2024-06-10_14h07.30.673,LearnStrategy,2023.2.3,Linux x86_64,59.88023952,,,,,,,,,,,6,06,4,4,,,,,,,,,,,,,,,,,,,,,,,,,,,,
5aec7e89ae13140001fc0cdf,TCR,2024-06-10_14h07.30.673,LearnStrategy,2023.2.3,Linux x86_64,59.88023952,,,,,,,,,,,5,06,4,5,,,,,,,,,,,,,,,,,,,,,,,,,,,,
5aec7e89ae13140001fc0cdf,TCR,2024-06-10_14h07.30.673,LearnStrategy,2023.2.3,Linux x86_64,59.88023952,,,,,,,,,,,2,11,4,6,,,,,,,,,,,,,,,,,,,,,,,,,,,,
5aec7e89ae13140001fc0cdf,TCR,2024-06-10_14h07.30.673,LearnStrategy,2023.2.3,Linux x86_64,59.88023952,,,,,,,,,,,7,10,4,7,,,,,,,,,,,,,,,,,,,,,,,,,,,,
5aec7e89ae13140001fc0cdf,TCR,2024-06-10_14h07.30.673,LearnStrategy,2023.2.3,Linux x86_64,59.88023952,,,,,,,,,,,1,16,4,8,,,,,,,,,,,,,,,,,,,,,,,,,,,,
5aec7e89ae13140001fc0cdf,TCR,2024-06-10_14h07.30.673,LearnStrategy,2023.2.3,Linux x86_64,59.88023952,,,,,,,,,,,3,06,5,1,,,,,,,,,,,,,,,,,,,,,,,,,,,,
5aec7e89ae13140001fc0cdf,TCR,2024-06-10_14h07.30.673,LearnStrategy,2023.2.3,Linux x86_64,59.88023952,,,,,,,,,,,7,13,5,2,,,,,,,,,,,,,,,,,,,,,,,,,,,,
5aec7e89ae13140001fc0cdf,TCR,2024-06-10_14h07.30.673,LearnStrategy,2023.2.3,Linux x86_64,59.88023952,,,,,,,,,,,2,09,5,3,,,,,,,,,,,,,,,,,,,,,,,,,,,,
5aec7e89ae13140001fc0cdf,TCR,2024-06-10_14h07.30.673,LearnStrategy,2023.2.3,Linux x86_64,59.88023952,,,,,,,,,,,8,06,5,4,,,,,,,,,,,,,,,,,,,,,,,,,,,,
5aec7e89ae13140001fc0cdf,TCR,2024-06-10_14h07.30.673,LearnStrategy,2023.2.3,Linux x86_64,59.88023952,,,,,,,,,,,5,16,5,5,,,,,,,,,,,,,,,,,,,,,,,,,,,,
5aec7e89ae13140001fc0cdf,TCR,2024-06-10_14h07.30.673,LearnStrategy,2023.2.3,Linux x86_64,59.88023952,,,,,,,,,,,7,05,5,6,,,,,,,,,,,,,,,,,,,,,,,,,,,,
5aec7e89ae13140001fc0cdf,TCR,2024-06-10_14h07.30.673,LearnStrategy,2023.2.3,Linux x86_64,59.88023952,,,,,,,,,,,1,07,5,7,,,,,,,,,,,,,,,,,,,,,,,,,,,,
5aec7e89ae13140001fc0cdf,TCR,2024-06-10_14h07.30.673,LearnStrategy,2023.2.3,Linux x86_64,59.88023952,,,,,,,,,,,8,13,5,8,,,,,,,,,,,,,,,,,,,,,,,,,,,,
5aec7e89ae13140001fc0cdf,TCR,2024-06-10_14h07.30.673,LearnStrategy,2023.2.3,Linux x86_64,59.88023952,,,,,,,,,,,1,02,6,1,,,,,,,,,,,,,,,,,,,,,,,,,,,,
5aec7e89ae13140001fc0cdf,TCR,2024-06-10_14h07.30.673,LearnStrategy,2023.2.3,Linux x86_64,59.88023952,,,,,,,,,,,8,15,6,2,,,,,,,,,,,,,,,,,,,,,,,,,,,,
5aec7e89ae13140001fc0cdf,TCR,2024-06-10_14h07.30.673,LearnStrategy,2023.2.3,Linux x86_64,59.88023952,,,,,,,,,,,6,12,6,3,,,,,,,,,,,,,,,,,,,,,,,,,,,,
5aec7e89ae13140001fc0cdf,TCR,2024-06-10_14h07.30.673,LearnStrategy,2023.2.3,Linux x86_64,59.88023952,,,,,,,,,,,4,10,6,4,,,,,,,,,,,,,,,,,,,,,,,,,,,,
5aec7e89ae13140001fc0cdf,TCR,2024-06-10_14h07.30.673,LearnStrategy,2023.2.3,Linux x86_64,59.88023952,,,,,,,,,,,5,08,6,5,,,,,,,,,,,,,,,,,,,,,,,,,,,,
5aec7e89ae13140001fc0cdf,TCR,2024-06-10_14h07.30.673,LearnStrategy,2023.2.3,Linux x86_64,59.88023952,,,,,,,,,,,1,01,6,6,,,,,,,,,,,,,,,,,,,,,,,,,,,,
5aec7e89ae13140001fc0cdf,TCR,2024-06-10_14h07.30.673,LearnStrategy,2023.2.3,Linux x86_64,59.88023952,,,,,,,,,,,3,13,6,7,,,,,,,,,,,,,,,,,,,,,,,,,,,,
5aec7e89ae13140001fc0cdf,TCR,2024-06-10_14h07.30.673,LearnStrategy,2023.2.3,Linux x86_64,59.88023952,,,,,,,,,,,4,15,6,8,,,,,,,,,,,,,,,,,,,,,,,,,,,,