participant,condition,date,expName,psychopyVersion,OS,frameRate,block,phase,trial,learn_mouse.x,learn_mouse.y,learn_mouse.leftButton,learn_mouse.midButton,learn_mouse.rightButton,learn_mouse.time,learn_mouse.clicked_name,cat,token,row,col,t_select,cat_rec,token_rec,cat_mouse_l.x,cat_mouse_l.y,cat_mouse_l.leftButton,cat_mouse_l.midButton,cat_mouse_l.rightButton,cat_mouse_l.time,cat_mouse_l.clicked_name,resp,t_resp,corr,train_trials.thisRepN,train_trials.thisTrialN,train_trials.thisN,train_trials.thisIndex,train_trials.ran,cat_mouse_t.x,cat_mouse_t.y,cat_mouse_t.leftButton,cat_mouse_t.midButton,cat_mouse_t.rightButton,cat_mouse_t.time,cat_mouse_t.clicked_name,test_trials.thisRepN,test_trials.thisTrialN,test_trials.thisN,test_trials.thisIndex,test_trials.ran,Bonus
5b22d2c260c40e000103b157,SCR,2024-06-25_13h13.24.180,LearnStrategy,2023.2.3,Win32,9.216589862,,,,,,,,,,,,,,,,,,,,,,,,,,,,,,,,,,,,,,,,,,,,,
5b22d2c260c40e000103b157,SCR,2024-06-25_13h13.24.180,LearnStrategy,2023.2.3,Win32,9.216589862,1,1,1,0.386111111,-0.268055556,1,0,0,3.2528,Pegmatite_10,6,10,2,7,3.253,2,16,0.136805556,-0.254166667,1,0,0,7.6442,Diorite_rect,3,7.644,0,0,0,0,0,1,,,,,,,,,,,,,
5b22d2c260c40e000103b157,SCR,2024-06-25_13h13.24.180,LearnStrategy,2023.2.3,Win32,9.216589862,1,1,2,0.396527778,0.095138889,1,0,0,5.584,Obsidian_11,5,11,4,7,5.584,7,02,-0.363888889,-0.393055556,1,0,0,10.569,Obsidian_rect,5,10.569,1,1,0,1,0,1,,,,,,,,,,,,,
5b22d2c260c40e000103b157,SCR,2024-06-25_13h13.24.180,LearnStrategy,2023.2.3,Win32,9.216589862,1,1,3,-0.413888889,-0.093055556,1,0,0,3.4209,Pegmatite_11,6,11,3,2,3.421,3,06,-0.402083333,-0.254166667,1,0,0,4.9306,Andesite_rect,1,4.931,0,2,0,2,0,1,,,,,,,,,,,,,
5b22d2c260c40e000103b157,SCR,2024-06-25_13h13.24.180,LearnStrategy,2023.2.3,Win32,9.216589862,1,1,4,-0.389583333,-0.251388889,1,0,0,9.179,Peridotite_06,7,06,2,2,9.179,6,07,-0.154861111,-0.25625,1,0,0,2.4231,Basalt_rect,2,2.423,0,3,0,3,0,1,,,,,,,,,,,,,
5b22d2c260c40e000103b157,SCR,2024-06-25_13h13.24.180,LearnStrategy,2023.2.3,Win32,9.216589862,1,1,5,-0.395833333,-0.095138889,1,0,0,3.7051,Pegmatite_11,6,11,3,2,3.705,8,09,-0.14375,-0.408333333,1,0,0,5.8902,Pegmatite_rect,6,5.89,1,4,0,4,0,1,,,,,,,,,,,,,
5b22d2c260c40e000103b157,SCR,2024-06-25_13h13.24.180,LearnStrategy,2023.2.3,Win32,9.216589862,1,1,6,0.241666667,0.084027778,1,0,0,3.9746,Peridotite_07,7,07,4,6,3.975,1,10,0.357638889,-0.40625,1,0,0,5.2031,Pumice_rect,8,5.203,0,5,0,5,0,1,,,,,,,,,,,,,
5b22d2c260c40e000103b157,SCR,2024-06-25_13h13.24.180,LearnStrategy,2023.2.3,Win32,9.216589862,1,1,7,0.088888889,0.403472222,1,0,0,5.1868,Pumice_13,8,13,6,5,5.187,4,13,0.096527778,-0.252777778,1,0,0,3.5921,Diorite_rect,3,3.592,0,6,0,6,0,1,,,,,,,,,,,,,
5b22d2c260c40e000103b157,SCR,2024-06-25_13h13.24.180,LearnStrategy,2023.2.3,Win32,9.216589862,1,1,8,-0.384722222,0.240972222,1,0,0,7.0803,Pegmatite_06,6,06,5,2,7.08,8,08,0.366666667,-0.25625,1,0,0,15.984,Gabbro_rect,4,15.984,0,7,0,7,0,1,,,,,,,,,,,,,
5b22d2c260c40e000103b157,SCR,2024-06-25_13h13.24.180,LearnStrategy,2023.2.3,Win32,9.216589862,1,1,9,-0.084027778,-0.105555556,1,0,0,13.7405,Obsidian_04,5,04,3,4,13.74,3,12,-0.392361111,-0.249305556,1,0,0,4.9188,Andesite_rect,1,4.919,0,8,0,8,0,1,,,,,,,,,,,,,
5b22d2c260c40e000103b157,SCR,2024-06-25_13h13.24.180,LearnStrategy,2023.2.3,Win32,9.216589862,1,1,10,-0.24375,0.238888889,1,0,0,9.5566,Obsidian_12,5,12,5,3,9.557,2,06,-0.386111111,-0.39375,1,0,0,2.2217,Obsidian_rect,5,2.222,1,9,0,9,0,1,,,,,,,,,,,,,
5b22d2c260c40e000103b157,SCR,2024-06-25_13h13.24.180,LearnStrategy,2023.2.3,Win32,9.216589862,1,1,11,-0.077083333,-0.109027778,1,0,0,7.0085,Obsidian_04,5,04,3,4,7.009,4,16,-0.413888889,-0.399305556,1,0,0,1.9272,Obsidian_rect,5,1.927,1,10,0,10,0,1,,,,,,,,,,,,,
5b22d2c260c40e000103b157,SCR,2024-06-25_13h13.24.180,LearnStrategy,2023.2.3,Win32,9.216589862,1,1,12,0.398611111,-0.257638889,1,0,0,20.1671,Pegmatite_10,6,10,2,7,20.167,6,11,0.104166667,-0.397916667,1,0,0,4.6494,Peridotite_rect,7,4.649,0,11,0,11,0,1,,,,,,,,,,,,,
5b22d2c260c40e000103b157,SCR,2024-06-25_13h13.24.180,LearnStrategy,2023.2.3,Win32,9.216589862,1,1,13,0.070138889,-0.103472222,1,0,0,29.5502,Diorite_06,3,06,3,5,29.55,5,04,-0.377777778,-0.247916667,1,0,0,8.172,Andesite_rect,1,8.172,0,12,0,12,0,1,,,,,,,,,,,,,
5b22d2c260c40e000103b157,SCR,2024-06-25_13h13.24.180,LearnStrategy,2023.2.3,Win32,9.216589862,1,1,14,-0.390972222,-0.402083333,1,0,0,6.9864,Obsidian_06,5,06,1,2,6.986,1,07,0.402777778,-0.238888889,1,0,0,3.8445,Gabbro_rect,4,3.845,0,13,0,13,0,1,,,,,,,,,,,,,
5b22d2c260c40e000103b157,SCR,2024-06-25_13h13.24.180,LearnStrategy,2023.2.3,Win32,9.216589862,1,1,15,-0.557638889,-0.250694444,1,0,0,20.9784,Diorite_14,3,14,2,1,20.978,5,07,0.124305556,-0.404166667,1,0,0,4.0814,Peridotite_rect,7,4.081,0,14,0,14,0,1,,,,,,,,,,,,,
5b22d2c260c40e000103b157,SCR,2024-06-25_13h13.24.180,LearnStrategy,2023.2.3,Win32,9.216589862,1,1,16,-0.078472222,-0.261111111,1,0,0,2.7075,Pumice_09,8,09,2,4,2.707,7,07,0.385416667,-0.399305556,1,0,0,2.9977,Pumice_rect,8,2.998,1,15,0,15,0,1,,,,,,,,,,,,,
5b22d2c260c40e000103b157,SCR,2024-06-25_13h13.24.180,LearnStrategy,2023.2.3,Win32,9.216589862,1,2,1,,,,,,,,3,08,,,,,,,,,,,,,5,4.066,0,,,,,,-0.4,-0.402083333,1,0,0,4.0658,Obsidian_rect,0,0,0,0,1,
5b22d2c260c40e000103b157,SCR,2024-06-25_13h13.24.180,LearnStrategy,2023.2.3,Win32,9.216589862,1,2,2,,,,,,,,1,02,,,,,,,,,,,,,7,7.533,0,,,,,,0.152777778,-0.401388889,1,0,0,7.5326,Peridotite_rect,1,0,1,0,1,
5b22d2c260c40e000103b157,SCR,2024-06-25_13h13.24.180,LearnStrategy,2023.2.3,Win32,9.216589862,1,2,3,,,,,,,,6,12,,,,,,,,,,,,,5,5.174,0,,,,,,-0.39375,-0.402777778,1,0,0,5.1741,Obsidian_rect,2,0,2,0,1,
5b22d2c260c40e000103b157,SCR,2024-06-25_13h13.24.180,LearnStrategy,2023.2.3,Win32,9.216589862,1,2,4,,,,,,,,5,02,,,,,,,,,,,,,5,3.336,1,,,,,,-0.413194444,-0.401388889,1,0,0,3.3357,Obsidian_rect,3,0,3,0,1,
5b22d2c260c40e000103b157,SCR,2024-06-25_13h13.24.180,LearnStrategy,2023.2.3,Win32,9.216589862,1,2,5,,,,,,,,6,15,,,,,,,,,,,,,6,6.591,1,,,,,,-0.114583333,-0.400694444,1,0,0,6.5913,Pegmatite_rect,4,0,4,0,1,
5b22d2c260c40e000103b157,SCR,2024-06-25_13h13.24.180,LearnStrategy,2023.2.3,Win32,9.216589862,1,2,6,,,,,,,,2,09,,,,,,,,,,,,,7,14.276,0,,,,,,0.152777778,-0.398611111,1,0,0,14.2764,Peridotite_rect,5,0,5,0,1,
5b22d2c260c40e000103b157,SCR,2024-06-25_13h13.24.180,LearnStrategy,2023.2.3,Win32,9.216589862,1,2,7,,,,,,,,3,02,,,,,,,,,,,,,5,2.661,0,,,,,,-0.385416667,-0.393055556,1,0,0,2.6606,Obsidian_rect,6,0,6,0,1,
5b22d2c260c40e000103b157,SCR,2024-06-25_13h13.24.180,LearnStrategy,2023.2.3,Win32,9.216589862,1,2,8,,,,,,,,2,12,,,,,,,,,,,,,8,6.003,0,,,,,,0.384722222,-0.401388889,1,0,0,6.0027,Pumice_rect,7,0,7,0,1,
5b22d2c260c40e000103b157,SCR,2024-06-25_13h13.24.180,LearnStrategy,2023.2.3,Win32,9.216589862,1,2,9,,,,,,,,4,01,,,,,,,,,,,,,6,9.841,0,,,,,,-0.134027778,-0.390277778,1,0,0,9.8411,Pegmatite_rect,8,0,8,0,1,
5b22d2c260c40e000103b157,SCR,2024-06-25_13h13.24.180,LearnStrategy,2023.2.3,Win32,9.216589862,1,2,10,,,,,,,,1,05,,,,,,,,,,,,,3,2.658,0,,,,,,0.125,-0.250694444,1,0,0,2.6584,Diorite_rect,9,0,9,0,1,
5b22d2c260c40e000103b157,SCR,2024-06-25_13h13.24.180,LearnStrategy,2023.2.3,Win32,9.216589862,1,2,11,,,,,,,,4,14,,,,,,,,,,,,,1,5.129,0,,,,,,-0.3875,-0.250694444,1,0,0,5.1291,Andesite_rect,10,0,10,0,1,
5b22d2c260c40e000103b157,SCR,2024-06-25_13h13.24.180,LearnStrategy,2023.2.3,Win32,9.216589862,1,2,12,,,,,,,,8,02,,,,,,,,,,,,,8,2.304,1,,,,,,0.385416667,-0.397222222,1,0,0,2.3039,Pumice_rect,11,0,11,0,1,
5b22d2c260c40e000103b157,SCR,2024-06-25_13h13.24.180,LearnStrategy,2023.2.3,Win32,9.216589862,1,2,13,,,,,,,,7,04,,,,,,,,,,,,,7,4.615,1,,,,,,0.140277778,-0.397916667,1,0,0,4.6147,Peridotite_rect,12,0,12,0,1,
5b22d2c260c40e000103b157,SCR,2024-06-25_13h13.24.180,LearnStrategy,2023.2.3,Win32,9.216589862,1,2,14,,,,,,,,8,05,,,,,,,,,,,,,8,2.069,1,,,,,,0.367361111,-0.397222222,1,0,0,2.0688,Pumice_rect,13,0,13,0,1,
5b22d2c260c40e000103b157,SCR,2024-06-25_13h13.24.180,LearnStrategy,2023.2.3,Win32,9.216589862,1,2,15,,,,,,,,5,09,,,,,,,,,,,,,5,1.704,1,,,,,,-0.393055556,-0.404166667,1,0,0,1.7036,Obsidian_rect,14,0,14,0,1,
5b22d2c260c40e000103b157,SCR,2024-06-25_13h13.24.180,LearnStrategy,2023.2.3,Win32,9.216589862,1,2,16,,,,,,,,7,05,,,,,,,,,,,,,6,5.056,0,,,,,,-0.117361111,-0.397916667,1,0,0,5.0562,Pegmatite_rect,15,0,15,0,1,
5b22d2c260c40e000103b157,SCR,2024-06-25_13h13.24.180,LearnStrategy,2023.2.3,Win32,9.216589862,2,1,1,0.396527778,-0.261111111,1,0,0,3.0963,Pegmatite_10,6,10,2,7,3.096,2,01,-0.127083333,-0.4,1,0,0,3.5456,Pegmatite_rect,6,3.546,1,0,0,0,0,1,,,,,,,,,,,,,
5b22d2c260c40e000103b157,SCR,2024-06-25_13h13.24.180,LearnStrategy,2023.2.3,Win32,9.216589862,2,1,2,-0.075694444,0.249305556,1,0,0,3.4653,Basalt_10,2,10,5,4,3.465,5,11,-0.134027778,-0.250694444,1,0,0,3.4142,Basalt_rect,2,3.414,1,1,0,1,0,1,,,,,,,,,,,,,
5b22d2c260c40e000103b157,SCR,2024-06-25_13h13.24.180,LearnStrategy,2023.2.3,Win32,9.216589862,2,1,3,-0.403472222,-0.10625,1,0,0,5.8393,Pegmatite_11,6,11,3,2,5.839,4,03,-0.120138889,-0.399305556,1,0,0,2.7341,Pegmatite_rect,6,2.734,1,2,0,2,0,1,,,,,,,,,,,,,
5b22d2c260c40e000103b157,SCR,2024-06-25_13h13.24.180,LearnStrategy,2023.2.3,Win32,9.216589862,2,1,4,0.390972222,0.247916667,1,0,0,9.7175,Andesite_01,1,01,5,7,9.718,3,11,-0.15,-0.252083333,1,0,0,5.1537,Basalt_rect,2,5.154,0,3,0,3,0,1,,,,,,,,,,,,,
5b22d2c260c40e000103b157,SCR,2024-06-25_13h13.24.180,LearnStrategy,2023.2.3,Win32,9.216589862,2,1,5,0.391666667,0.246527778,1,0,0,5.7096,Andesite_01,1,01,5,7,5.71,2,06,-0.39375,-0.248611111,1,0,0,2.1962,Andesite_rect,1,2.196,1,4,0,4,0,1,,,,,,,,,,,,,
5b22d2c260c40e000103b157,SCR,2024-06-25_13h13.24.180,LearnStrategy,2023.2.3,Win32,9.216589862,2,1,6,-0.577777778,0.413194444,1,0,0,9.7662,Obsidian_07,5,07,6,1,9.766,7,15,-0.397222222,-0.388194444,1,0,0,1.8447,Obsidian_rect,5,1.845,1,5,0,5,0,1,,,,,,,,,,,,,
5b22d2c260c40e000103b157,SCR,2024-06-25_13h13.24.180,LearnStrategy,2023.2.3,Win32,9.216589862,2,1,7,-0.554166667,-0.409027778,1,0,0,12.2715,Pegmatite_08,6,08,1,1,12.272,2,11,-0.390277778,-0.399305556,1,0,0,2.3463,Obsidian_rect,5,2.346,0,6,0,6,0,1,,,,,,,,,,,,,
5b22d2c260c40e000103b157,SCR,2024-06-25_13h13.24.180,LearnStrategy,2023.2.3,Win32,9.216589862,2,1,8,-0.398611111,-0.420138889,1,0,0,2.9237,Obsidian_06,5,06,1,2,2.924,1,10,-0.383333333,-0.400694444,1,0,0,2.4809,Obsidian_rect,5,2.481,1,7,0,7,0,1,,,,,,,,,,,,,
5b22d2c260c40e000103b157,SCR,2024-06-25_13h13.24.180,LearnStrategy,2023.2.3,Win32,9.216589862,2,1,9,0.39375,-0.421527778,1,0,0,8.6758,Peridotite_16,7,16,1,7,8.676,3,15,-0.378472222,-0.39375,1,0,0,6.8074,Obsidian_rect,5,6.807,0,8,0,8,0,1,,,,,,,,,,,,,
5b22d2c260c40e000103b157,SCR,2024-06-25_13h13.24.180,LearnStrategy,2023.2.3,Win32,9.216589862,2,1,10,0.380555556,-0.265277778,1,0,0,7.093,Pegmatite_10,6,10,2,7,7.093,7,06,-0.134722222,-0.391666667,1,0,0,5.3365,Pegmatite_rect,6,5.337,1,9,0,9,0,1,,,,,,,,,,,,,
5b22d2c260c40e000103b157,SCR,2024-06-25_13h13.24.180,LearnStrategy,2023.2.3,Win32,9.216589862,2,1,11,0.239583333,-0.401388889,1,0,0,11.1754,Basalt_16,2,16,1,6,11.175,1,07,0.104166667,-0.392361111,1,0,0,2.5019,Peridotite_rect,7,2.502,0,10,0,10,0,1,,,,,,,,,,,,,
5b22d2c260c40e000103b157,SCR,2024-06-25_13h13.24.180,LearnStrategy,2023.2.3,Win32,9.216589862,2,1,12,-0.25625,-0.227777778,1,0,0,12.8725,Gabbro_13,4,13,2,3,12.873,1,16,0.116666667,-0.256944444,1,0,0,3.3282,Diorite_rect,3,3.328,0,11,0,11,0,1,,,,,,,,,,,,,
5b22d2c260c40e000103b157,SCR,2024-06-25_13h13.24.180,LearnStrategy,2023.2.3,Win32,9.216589862,2,1,13,-0.252083333,-0.258333333,1,0,0,3.2122,Gabbro_13,4,13,2,3,3.212,6,08,0.384027778,-0.252083333,1,0,0,1.762,Gabbro_rect,4,1.762,1,12,0,12,0,1,,,,,,,,,,,,,
5b22d2c260c40e000103b157,SCR,2024-06-25_13h13.24.180,LearnStrategy,2023.2.3,Win32,9.216589862,2,1,14,0.224305556,-0.397222222,1,0,0,9.761,Basalt_16,2,16,1,6,9.761,6,11,0.389583333,-0.247222222,1,0,0,1.9364,Gabbro_rect,4,1.936,0,13,0,13,0,1,,,,,,,,,,,,,
5b22d2c260c40e000103b157,SCR,2024-06-25_13h13.24.180,LearnStrategy,2023.2.3,Win32,9.216589862,2,1,15,0.236805556,-0.41875,1,0,0,1.8211,Basalt_16,2,16,1,6,1.821,3,13,-0.14375,-0.24375,1,0,0,2.0328,Basalt_rect,2,2.033,1,14,0,14,0,1,,,,,,,,,,,,,
5b22d2c260c40e000103b157,SCR,2024-06-25_13h13.24.180,LearnStrategy,2023.2.3,Win32,9.216589862,2,1,16,-0.236805556,-0.102777778,1,0,0,2.4712,Basalt_02,2,02,3,3,2.471,4,13,0.40625,-0.402083333,1,0,0,6.9387,Pumice_rect,8,6.939,0,15,0,15,0,1,,,,,,,,,,,,,
5b22d2c260c40e000103b157,SCR,2024-06-25_13h13.24.180,LearnStrategy,2023.2.3,Win32,9.216589862,2,2,1,,,,,,,,6,09,,,,,,,,,,,,,6,7.745,1,,,,,,-0.123611111,-0.392361111,1,0,0,7.7447,Pegmatite_rect,0,0,0,0,1,
5b22d2c260c40e000103b157,SCR,2024-06-25_13h13.24.180,LearnStrategy,2023.2.3,Win32,9.216589862,2,2,2,,,,,,,,3,10,,,,,,,,,,,,,3,5.77,1,,,,,,0.144444444,-0.254166667,1,0,0,5.7699,Diorite_rect,1,0,1,0,1,
5b22d2c260c40e000103b157,SCR,2024-06-25_13h13.24.180,LearnStrategy,2023.2.3,Win32,9.216589862,2,2,3,,,,,,,,2,08,,,,,,,,,,,,,4,4.605,0,,,,,,0.381944444,-0.25625,1,0,0,4.6051,Gabbro_rect,2,0,2,0,1,
5b22d2c260c40e000103b157,SCR,2024-06-25_13h13.24.180,LearnStrategy,2023.2.3,Win32,9.216589862,2,2,4,,,,,,,,4,12,,,,,,,,,,,,,2,4.668,0,,,,,,-0.122916667,-0.247222222,1,0,0,4.668,Basalt_rect,3,0,3,0,1,
5b22d2c260c40e000103b157,SCR,2024-06-25_13h13.24.180,LearnStrategy,2023.2.3,Win32,9.216589862,2,2,5,,,,,,,,4,08,,,,,,,,,,,,,2,3.939,0,,,,,,-0.147916667,-0.250694444,1,0,0,3.939,Basalt_rect,4,0,4,0,1,
5b22d2c260c40e000103b157,SCR,2024-06-25_13h13.24.180,LearnStrategy,2023.2.3,Win32,9.216589862,2,2,6,,,,,,,,2,14,,,,,,,,,,,,,1,6.704,0,,,,,,-0.404166667,-0.246527778,1,0,0,6.7043,Andesite_rect,5,0,5,0,1,
5b22d2c260c40e000103b157,SCR,2024-06-25_13h13.24.180,LearnStrategy,2023.2.3,Win32,9.216589862,2,2,7,,,,,,,,7,14,,,,,,,,,,,,,3,5.328,0,,,,,,0.132638889,-0.247222222,1,0,0,5.3284,Diorite_rect,6,0,6,0,1,
5b22d2c260c40e000103b157,SCR,2024-06-25_13h13.24.180,LearnStrategy,2023.2.3,Win32,9.216589862,2,2,8,,,,,,,,1,06,,,,,,,,,,,,,2,5.124,0,,,,,,-0.140277778,-0.250694444,1,0,0,5.124,Basalt_rect,7,0,7,0,1,
5b22d2c260c40e000103b157,SCR,2024-06-25_13h13.24.180,LearnStrategy,2023.2.3,Win32,9.216589862,2,2,9,,,,,,,,1,04,,,,,,,,,,,,,3,12.181,0,,,,,,0.142361111,-0.249305556,1,0,0,12.1813,Diorite_rect,8,0,8,0,1,
5b22d2c260c40e000103b157,SCR,2024-06-25_13h13.24.180,LearnStrategy,2023.2.3,Win32,9.216589862,2,2,10,,,,,,,,5,05,,,,,,,,,,,,,5,7.176,1,,,,,,-0.378472222,-0.390972222,1,0,0,7.1765,Obsidian_rect,9,0,9,0,1,
5b22d2c260c40e000103b157,SCR,2024-06-25_13h13.24.180,LearnStrategy,2023.2.3,Win32,9.216589862,2,2,11,,,,,,,,6,03,,,,,,,,,,,,,7,4.107,0,,,,,,0.111805556,-0.400694444,1,0,0,4.1068,Peridotite_rect,10,0,10,0,1,
5b22d2c260c40e000103b157,SCR,2024-06-25_13h13.24.180,LearnStrategy,2023.2.3,Win32,9.216589862,2,2,12,,,,,,,,7,13,,,,,,,,,,,,,6,3.251,0,,,,,,-0.13125,-0.403472222,1,0,0,3.2512,Pegmatite_rect,11,0,11,0,1,
5b22d2c260c40e000103b157,SCR,2024-06-25_13h13.24.180,LearnStrategy,2023.2.3,Win32,9.216589862,2,2,13,,,,,,,,3,07,,,,,,,,,,,,,6,3.819,0,,,,,,-0.127083333,-0.405555556,1,0,0,3.8187,Pegmatite_rect,12,0,12,0,1,
5b22d2c260c40e000103b157,SCR,2024-06-25_13h13.24.180,LearnStrategy,2023.2.3,Win32,9.216589862,2,2,14,,,,,,,,5,08,,,,,,,,,,,,,5,2.009,1,,,,,,-0.386111111,-0.395833333,1,0,0,2.0091,Obsidian_rect,13,0,13,0,1,
5b22d2c260c40e000103b157,SCR,2024-06-25_13h13.24.180,LearnStrategy,2023.2.3,Win32,9.216589862,2,2,15,,,,,,,,8,16,,,,,,,,,,,,,4,3.003,0,,,,,,0.380555556,-0.238194444,1,0,0,3.0027,Gabbro_rect,14,0,14,0,1,
5b22d2c260c40e000103b157,SCR,2024-06-25_13h13.24.180,LearnStrategy,2023.2.3,Win32,9.216589862,2,2,16,,,,,,,,8,14,,,,,,,,,,,,,8,1.809,1,,,,,,0.377777778,-0.397916667,1,0,0,1.8093,Pumice_rect,15,0,15,0,1,
5b22d2c260c40e000103b157,SCR,2024-06-25_13h13.24.180,LearnStrategy,2023.2.3,Win32,9.216589862,3,1,1,-0.584722222,0.379166667,1,0,0,3.3065,Obsidian_07,5,07,6,1,3.307,1,07,-0.390972222,-0.386111111,1,0,0,2.4939,Obsidian_rect,5,2.494,1,0,0,0,0,1,,,,,,,,,,,,,
5b22d2c260c40e000103b157,SCR,2024-06-25_13h13.24.180,LearnStrategy,2023.2.3,Win32,9.216589862,3,1,2,0.231944444,0.410416667,1,0,0,6.0866,Gabbro_15,4,15,6,6,6.087,4,15,0.39375,-0.253472222,1,0,0,1.6257,Gabbro_rect,4,1.626,1,1,0,1,0,1,,,,,,,,,,,,,
5b22d2c260c40e000103b157,SCR,2024-06-25_13h13.24.180,LearnStrategy,2023.2.3,Win32,9.216589862,3,1,3,0.556944444,0.409722222,1,0,0,4.3968,Peridotite_02,7,02,6,8,4.397,4,16,-0.128472222,-0.389583333,1,0,0,3.0601,Pegmatite_rect,6,3.06,0,2,0,2,0,1,,,,,,,,,,,,,
5b22d2c260c40e000103b157,SCR,2024-06-25_13h13.24.180,LearnStrategy,2023.2.3,Win32,9.216589862,3,1,4,-0.390277778,0.234027778,1,0,0,4.9987,Pegmatite_06,6,06,5,2,4.999,1,07,0.143055556,-0.252777778,1,0,0,2.6156,Diorite_rect,3,2.616,0,3,0,3,0,1,,,,,,,,,,,,,
5b22d2c260c40e000103b157,SCR,2024-06-25_13h13.24.180,LearnStrategy,2023.2.3,Win32,9.216589862,3,1,5,-0.549305556,0.085416667,1,0,0,5.2555,Diorite_12,3,12,4,1,5.255,8,03,0.34375,-0.395138889,1,0,0,1.575,Pumice_rect,8,1.575,0,4,0,4,0,1,,,,,,,,,,,,,
5b22d2c260c40e000103b157,SCR,2024-06-25_13h13.24.180,LearnStrategy,2023.2.3,Win32,9.216589862,3,1,6,-0.570833333,-0.101388889,1,0,0,3.9002,Gabbro_03,4,03,3,1,3.9,6,08,-0.380555556,-0.249305556,1,0,0,5.4223,Andesite_rect,1,5.422,0,5,0,5,0,1,,,,,,,,,,,,,
5b22d2c260c40e000103b157,SCR,2024-06-25_13h13.24.180,LearnStrategy,2023.2.3,Win32,9.216589862,3,1,7,-0.403472222,-0.109722222,1,0,0,4.6124,Pegmatite_11,6,11,3,2,4.612,6,08,-0.119444444,-0.400694444,1,0,0,3.4495,Pegmatite_rect,6,3.449,1,6,0,6,0,1,,,,,,,,,,,,,
5b22d2c260c40e000103b157,SCR,2024-06-25_13h13.24.180,LearnStrategy,2023.2.3,Win32,9.216589862,3,1,8,0.232638889,-0.411805556,1,0,0,5.8198,Basalt_16,2,16,1,6,5.82,2,02,0.166666667,-0.407638889,1,0,0,2.4182,Peridotite_rect,7,2.418,0,7,0,7,0,1,,,,,,,,,,,,,
5b22d2c260c40e000103b157,SCR,2024-06-25_13h13.24.180,LearnStrategy,2023.2.3,Win32,9.216589862,3,1,9,0.238888889,-0.409027778,1,0,0,2.0891,Basalt_16,2,16,1,6,2.089,3,15,-0.142361111,-0.241666667,1,0,0,1.5567,Basalt_rect,2,1.557,1,8,0,8,0,1,,,,,,,,,,,,,
5b22d2c260c40e000103b157,SCR,2024-06-25_13h13.24.180,LearnStrategy,2023.2.3,Win32,9.216589862,3,1,10,-0.06875,-0.420833333,1,0,0,3.3671,Andesite_16,1,16,1,4,3.367,1,01,0.108333333,-0.400694444,1,0,0,2.8516,Peridotite_rect,7,2.852,0,9,0,9,0,1,,,,,,,,,,,,,
5b22d2c260c40e000103b157,SCR,2024-06-25_13h13.24.180,LearnStrategy,2023.2.3,Win32,9.216589862,3,1,11,0.067361111,-0.271527778,1,0,0,3.1158,Pumice_08,8,08,2,5,3.116,7,07,0.377083333,-0.404861111,1,0,0,2.0411,Pumice_rect,8,2.041,1,10,0,10,0,1,,,,,,,,,,,,,
5b22d2c260c40e000103b157,SCR,2024-06-25_13h13.24.180,LearnStrategy,2023.2.3,Win32,9.216589862,3,1,12,0.535416667,-0.103472222,1,0,0,2.5086,Pumice_04,8,04,3,8,2.509,2,06,0.377777778,-0.401388889,1,0,0,3.3182,Pumice_rect,8,3.318,1,11,0,11,0,1,,,,,,,,,,,,,
5b22d2c260c40e000103b157,SCR,2024-06-25_13h13.24.180,LearnStrategy,2023.2.3,Win32,9.216589862,3,1,13,0.414583333,0.245833333,1,0,0,2.7811,Andesite_01,1,01,5,7,2.781,3,06,-0.108333333,-0.399305556,1,0,0,3.557,Pegmatite_rect,6,3.557,0,12,0,12,0,1,,,,,,,,,,,,,
5b22d2c260c40e000103b157,SCR,2024-06-25_13h13.24.180,LearnStrategy,2023.2.3,Win32,9.216589862,3,1,14,0.388888889,0.252777778,1,0,0,2.628,Andesite_01,1,01,5,7,2.628,7,15,-0.377083333,-0.251388889,1,0,0,3.4474,Andesite_rect,1,3.447,1,13,0,13,0,1,,,,,,,,,,,,,
5b22d2c260c40e000103b157,SCR,2024-06-25_13h13.24.180,LearnStrategy,2023.2.3,Win32,9.216589862,3,1,15,0.3875,-0.4125,1,0,0,6.4695,Peridotite_16,7,16,1,7,6.469,2,02,-0.123611111,-0.241666667,1,0,0,3.6542,Basalt_rect,2,3.654,0,14,0,14,0,1,,,,,,,,,,,,,
5b22d2c260c40e000103b157,SCR,2024-06-25_13h13.24.180,LearnStrategy,2023.2.3,Win32,9.216589862,3,1,16,0.075694444,0.081944444,1,0,0,7.7399,Diorite_13,3,13,4,5,7.74,4,13,0.1125,-0.402083333,1,0,0,2.7836,Peridotite_rect,7,2.784,0,15,0,15,0,1,,,,,,,,,,,,,
5b22d2c260c40e000103b157,SCR,2024-06-25_13h13.24.180,LearnStrategy,2023.2.3,Win32,9.216589862,3,2,1,,,,,,,,7,12,,,,,,,,,,,,,4,5.744,0,,,,,,0.395138889,-0.246527778,1,0,0,5.7442,Gabbro_rect,0,0,0,0,1,
5b22d2c260c40e000103b157,SCR,2024-06-25_13h13.24.180,LearnStrategy,2023.2.3,Win32,9.216589862,3,2,2,,,,,,,,8,10,,,,,,,,,,,,,8,4.718,1,,,,,,0.402083333,-0.397222222,1,0,0,4.7182,Pumice_rect,1,0,1,0,1,
5b22d2c260c40e000103b157,SCR,2024-06-25_13h13.24.180,LearnStrategy,2023.2.3,Win32,9.216589862,3,2,3,,,,,,,,2,04,,,,,,,,,,,,,7,4.622,0,,,,,,0.138194444,-0.4,1,0,0,4.6222,Peridotite_rect,2,0,2,0,1,
5b22d2c260c40e000103b157,SCR,2024-06-25_13h13.24.180,LearnStrategy,2023.2.3,Win32,9.216589862,3,2,4,,,,,,,,6,05,,,,,,,,,,,,,6,3.141,1,,,,,,-0.1375,-0.404861111,1,0,0,3.1413,Pegmatite_rect,3,0,3,0,1,
5b22d2c260c40e000103b157,SCR,2024-06-25_13h13.24.180,LearnStrategy,2023.2.3,Win32,9.216589862,3,2,5,,,,,,,,3,16,,,,,,,,,,,,,1,4.257,0,,,,,,-0.385416667,-0.2375,1,0,0,4.2566,Andesite_rect,4,0,4,0,1,
5b22d2c260c40e000103b157,SCR,2024-06-25_13h13.24.180,LearnStrategy,2023.2.3,Win32,9.216589862,3,2,6,,,,,,,,6,16,,,,,,,,,,,,,3,5.351,0,,,,,,0.125,-0.248611111,1,0,0,5.3508,Diorite_rect,5,0,5,0,1,
5b22d2c260c40e000103b157,SCR,2024-06-25_13h13.24.180,LearnStrategy,2023.2.3,Win32,9.216589862,3,2,7,,,,,,,,4,05,,,,,,,,,,,,,1,6.91,0,,,,,,-0.382638889,-0.248611111,1,0,0,6.9098,Andesite_rect,6,0,6,0,1,
5b22d2c260c40e000103b157,SCR,2024-06-25_13h13.24.180,LearnStrategy,2023.2.3,Win32,9.216589862,3,2,8,,,,,,,,4,11,,,,,,,,,,,,,7,4.981,0,,,,,,0.134722222,-0.401388889,1,0,0,4.9808,Peridotite_rect,7,0,7,0,1,
5b22d2c260c40e000103b157,SCR,2024-06-25_13h13.24.180,LearnStrategy,2023.2.3,Win32,9.216589862,3,2,9,,,,,,,,8,15,,,,,,,,,,,,,8,4.331,1,,,,,,0.388194444,-0.404166667,1,0,0,4.3311,Pumice_rect,8,0,8,0,1,
5b22d2c260c40e000103b157,SCR,2024-06-25_13h13.24.180,LearnStrategy,2023.2.3,Win32,9.216589862,3,2,10,,,,,,,,5,14,,,,,,,,,,,,,5,2.798,1,,,,,,-0.397916667,-0.402777778,1,0,0,2.7984,Obsidian_rect,9,0,9,0,1,
5b22d2c260c40e000103b157,SCR,2024-06-25_13h13.24.180,LearnStrategy,2023.2.3,Win32,9.216589862,3,2,11,,,,,,,,3,09,,,,,,,,,,,,,2,5.178,0,,,,,,-0.1375,-0.243055556,1,0,0,5.1777,Basalt_rect,10,0,10,0,1,
5b22d2c260c40e000103b157,SCR,2024-06-25_13h13.24.180,LearnStrategy,2023.2.3,Win32,9.216589862,3,2,12,,,,,,,,1,09,,,,,,,,,,,,,2,10.877,0,,,,,,-0.161111111,-0.254861111,1,0,0,10.8766,Basalt_rect,11,0,11,0,1,
5b22d2c260c40e000103b157,SCR,2024-06-25_13h13.24.180,LearnStrategy,2023.2.3,Win32,9.216589862,3,2,13,,,,,,,,1,11,,,,,,,,,,,,,3,6.474,0,,,,,,0.123611111,-0.256944444,1,0,0,6.4744,Diorite_rect,12,0,12,0,1,
5b22d2c260c40e000103b157,SCR,2024-06-25_13h13.24.180,LearnStrategy,2023.2.3,Win32,9.216589862,3,2,14,,,,,,,,5,10,,,,,,,,,,,,,5,2.661,1,,,,,,-0.392361111,-0.402777778,1,0,0,2.6611,Obsidian_rect,13,0,13,0,1,
5b22d2c260c40e000103b157,SCR,2024-06-25_13h13.24.180,LearnStrategy,2023.2.3,Win32,9.216589862,3,2,15,,,,,,,,2,05,,,,,,,,,,,,,4,3.469,0,,,,,,0.409722222,-0.250694444,1,0,0,3.4687,Gabbro_rect,14,0,14,0,1,
5b22d2c260c40e000103b157,SCR,2024-06-25_13h13.24.180,LearnStrategy,2023.2.3,Win32,9.216589862,3,2,16,,,,,,,,7,10,,,,,,,,,,,,,6,4.241,0,,,,,,-0.113888889,-0.411805556,1,0,0,4.2406,Pegmatite_rect,15,0,15,0,1,
5b22d2c260c40e000103b157,SCR,2024-06-25_13h13.24.180,LearnStrategy,2023.2.3,Win32,9.216589862,4,1,1,-0.261805556,-0.103472222,1,0,0,4.765,Basalt_02,2,02,3,3,4.765,3,15,0.134027778,-0.396527778,1,0,0,6.8021,Peridotite_rect,7,6.802,0,0,0,0,0,1,,,,,,,,,,,,,
5b22d2c260c40e000103b157,SCR,2024-06-25_13h13.24.180,LearnStrategy,2023.2.3,Win32,9.216589862,4,1,2,-0.221527778,-0.09375,1,0,0,1.3265,Basalt_02,2,02,3,3,1.327,4,09,-0.127083333,-0.25,1,0,0,2.0456,Basalt_rect,2,2.046,1,1,0,1,0,1,,,,,,,,,,,,,
5b22d2c260c40e000103b157,SCR,2024-06-25_13h13.24.180,LearnStrategy,2023.2.3,Win32,9.216589862,4,1,3,-0.23125,-0.25625,1,0,0,3.2546,Gabbro_13,4,13,2,3,3.255,7,06,0.378472222,-0.247916667,1,0,0,1.8215,Gabbro_rect,4,1.822,1,2,0,2,0,1,,,,,,,,,,,,,
5b22d2c260c40e000103b157,SCR,2024-06-25_13h13.24.180,LearnStrategy,2023.2.3,Win32,9.216589862,4,1,4,0.258333333,-0.111111111,1,0,0,2.588,Andesite_07,1,07,3,6,2.588,2,10,-0.363888889,-0.258333333,1,0,0,4.9649,Andesite_rect,1,4.965,1,3,0,3,0,1,,,,,,,,,,,,,
5b22d2c260c40e000103b157,SCR,2024-06-25_13h13.24.180,LearnStrategy,2023.2.3,Win32,9.216589862,4,1,5,-0.2375,-0.415277778,1,0,0,4.2926,Diorite_11,3,11,1,3,4.293,4,15,-0.147222222,-0.243055556,1,0,0,2.7284,Basalt_rect,2,2.728,0,4,0,4,0,1,,,,,,,,,,,,,
5b22d2c260c40e000103b157,SCR,2024-06-25_13h13.24.180,LearnStrategy,2023.2.3,Win32,9.216589862,4,1,6,0.234722222,-0.094444444,1,0,0,2.6195,Andesite_07,1,07,3,6,2.62,1,03,-0.391666667,-0.254166667,1,0,0,1.5017,Andesite_rect,1,1.502,1,5,0,5,0,1,,,,,,,,,,,,,
5b22d2c260c40e000103b157,SCR,2024-06-25_13h13.24.180,LearnStrategy,2023.2.3,Win32,9.216589862,4,1,7,0.070138889,0.103472222,1,0,0,2.3308,Diorite_13,3,13,4,5,2.331,6,10,-0.122222222,-0.254166667,1,0,0,4.1794,Basalt_rect,2,4.179,0,6,0,6,0,1,,,,,,,,,,,,,
5b22d2c260c40e000103b157,SCR,2024-06-25_13h13.24.180,LearnStrategy,2023.2.3,Win32,9.216589862,4,1,8,-0.075694444,-0.270138889,1,0,0,2.7698,Pumice_09,8,09,2,4,2.77,2,11,0.376388889,-0.400694444,1,0,0,2.47,Pumice_rect,8,2.47,1,7,0,7,0,1,,,,,,,,,,,,,
5b22d2c260c40e000103b157,SCR,2024-06-25_13h13.24.180,LearnStrategy,2023.2.3,Win32,9.216589862,4,1,9,-0.54375,0.250694444,1,0,0,7.7046,Gabbro_09,4,09,5,1,7.705,1,16,-0.35,-0.385416667,1,0,0,3.0599,Obsidian_rect,5,3.06,0,8,0,8,0,1,,,,,,,,,,,,,
5b22d2c260c40e000103b157,SCR,2024-06-25_13h13.24.180,LearnStrategy,2023.2.3,Win32,9.216589862,4,1,10,-0.55,0.243055556,1,0,0,4.0275,Gabbro_09,4,09,5,1,4.028,3,11,0.398611111,-0.254861111,1,0,0,2.0384,Gabbro_rect,4,2.038,1,9,0,9,0,1,,,,,,,,,,,,,
5b22d2c260c40e000103b157,SCR,2024-06-25_13h13.24.180,LearnStrategy,2023.2.3,Win32,9.216589862,4,1,11,-0.229861111,0.249305556,1,0,0,2.3388,Obsidian_12,5,12,5,3,2.339,6,06,-0.4,-0.400694444,1,0,0,2.1561,Obsidian_rect,5,2.156,1,10,0,10,0,1,,,,,,,,,,,,,
5b22d2c260c40e000103b157,SCR,2024-06-25_13h13.24.180,LearnStrategy,2023.2.3,Win32,9.216589862,4,1,12,0.091666667,0.392361111,1,0,0,3.079,Pumice_13,8,13,6,5,3.079,7,15,0.156944444,-0.250694444,1,0,0,2.1542,Diorite_rect,3,2.154,0,11,0,11,0,1,,,,,,,,,,,,,
5b22d2c260c40e000103b157,SCR,2024-06-25_13h13.24.180,LearnStrategy,2023.2.3,Win32,9.216589862,4,1,13,0.388194444,0.4,1,0,0,2.3176,Andesite_03,1,03,6,7,2.318,1,16,0.128472222,-0.394444444,1,0,0,3.8168,Peridotite_rect,7,3.817,0,12,0,12,0,1,,,,,,,,,,,,,
5b22d2c260c40e000103b157,SCR,2024-06-25_13h13.24.180,LearnStrategy,2023.2.3,Win32,9.216589862,4,1,14,0.402777778,0.414583333,1,0,0,1.8351,Andesite_03,1,03,6,7,1.835,8,09,-0.357638889,-0.244444444,1,0,0,5.0509,Andesite_rect,1,5.051,1,13,0,13,0,1,,,,,,,,,,,,,
5b22d2c260c40e000103b157,SCR,2024-06-25_13h13.24.180,LearnStrategy,2023.2.3,Win32,9.216589862,4,1,15,0.071527778,-0.400694444,1,0,0,2.8192,Pumice_06,8,06,1,5,2.819,4,16,0.357638889,-0.397222222,1,0,0,2.0588,Pumice_rect,8,2.059,1,14,0,14,0,1,,,,,,,,,,,,,
5b22d2c260c40e000103b157,SCR,2024-06-25_13h13.24.180,LearnStrategy,2023.2.3,Win32,9.216589862,4,1,16,0.384722222,-0.265972222,1,0,0,1.8564,Pegmatite_10,6,10,2,7,1.856,2,06,-0.373611111,-0.395833333,1,0,0,5.6206,Obsidian_rect,5,5.621,0,15,0,15,0,1,,,,,,,,,,,,,
5b22d2c260c40e000103b157,SCR,2024-06-25_13h13.24.180,LearnStrategy,2023.2.3,Win32,9.216589862,4,2,1,,,,,,,,4,08,,,,,,,,,,,,,4,5.136,1,,,,,,0.397222222,-0.252083333,1,0,0,5.1361,Gabbro_rect,0,0,0,0,1,
5b22d2c260c40e000103b157,SCR,2024-06-25_13h13.24.180,LearnStrategy,2023.2.3,Win32,9.216589862,4,2,2,,,,,,,,8,15,,,,,,,,,,,,,8,1.599,1,,,,,,0.386111111,-0.39375,1,0,0,1.5987,Pumice_rect,1,0,1,0,1,
5b22d2c260c40e000103b157,SCR,2024-06-25_13h13.24.180,LearnStrategy,2023.2.3,Win32,9.216589862,4,2,3,,,,,,,,7,10,,,,,,,,,,,,,1,2.336,0,,,,,,-0.395138889,-0.245833333,1,0,0,2.3357,Andesite_rect,2,0,2,0,1,
5b22d2c260c40e000103b157,SCR,2024-06-25_13h13.24.180,LearnStrategy,2023.2.3,Win32,9.216589862,4,2,4,,,,,,,,5,10,,,,,,,,,,,,,5,1.47,1,,,,,,-0.420833333,-0.409722222,1,0,0,1.4705,Obsidian_rect,3,0,3,0,1,
5b22d2c260c40e000103b157,SCR,2024-06-25_13h13.24.180,LearnStrategy,2023.2.3,Win32,9.216589862,4,2,5,,,,,,,,1,09,,,,,,,,,,,,,4,4.437,0,,,,,,0.363888889,-0.252777778,1,0,0,4.4366,Gabbro_rect,4,0,4,0,1,
5b22d2c260c40e000103b157,SCR,2024-06-25_13h13.24.180,LearnStrategy,2023.2.3,Win32,9.216589862,4,2,6,,,,,,,,5,08,,,,,,,,,,,,,5,1.452,1,,,,,,-0.388194444,-0.396527778,1,0,0,1.4523,Obsidian_rect,5,0,5,0,1,
5b22d2c260c40e000103b157,SCR,2024-06-25_13h13.24.180,LearnStrategy,2023.2.3,Win32,9.216589862,4,2,7,,,,,,,,3,10,,,,,,,,,,,,,2,2.104,0,,,,,,-0.116666667,-0.260416667,1,0,0,2.1044,Basalt_rect,6,0,6,0,1,
5b22d2c260c40e000103b157,SCR,2024-06-25_13h13.24.180,LearnStrategy,2023.2.3,Win32,9.216589862,4,2,8,,,,,,,,3,02,,,,,,,,,,,,,6,2.685,0,,,,,,-0.141666667,-0.401388889,1,0,0,2.6854,Pegmatite_rect,7,0,7,0,1,
5b22d2c260c40e000103b157,SCR,2024-06-25_13h13.24.180,LearnStrategy,2023.2.3,Win32,9.216589862,4,2,9,,,,,,,,8,10,,,,,,,,,,,,,8,2.032,1,,,,,,0.372222222,-0.399305556,1,0,0,2.0318,Pumice_rect,8,0,8,0,1,
5b22d2c260c40e000103b157,SCR,2024-06-25_13h13.24.180,LearnStrategy,2023.2.3,Win32,9.216589862,4,2,10,,,,,,,,6,09,,,,,,,,,,,,,5,16.005,0,,,,,,-0.386111111,-0.386805556,1,0,0,16.0047,Obsidian_rect,9,0,9,0,1,
5b22d2c260c40e000103b157,SCR,2024-06-25_13h13.24.180,LearnStrategy,2023.2.3,Win32,9.216589862,4,2,11,,,,,,,,6,15,,,,,,,,,,,,,7,4.6,0,,,,,,0.122222222,-0.39375,1,0,0,4.6001,Peridotite_rect,10,0,10,0,1,
5b22d2c260c40e000103b157,SCR,2024-06-25_13h13.24.180,LearnStrategy,2023.2.3,Win32,9.216589862,4,2,12,,,,,,,,7,14,,,,,,,,,,,,,2,3.073,0,,,,,,-0.161805556,-0.250694444,1,0,0,3.0727,Basalt_rect,11,0,11,0,1,
5b22d2c260c40e000103b157,SCR,2024-06-25_13h13.24.180,LearnStrategy,2023.2.3,Win32,9.216589862,4,2,13,,,,,,,,2,05,,,,,,,,,,,,,7,4.014,0,,,,,,0.160416667,-0.410416667,1,0,0,4.0136,Peridotite_rect,12,0,12,0,1,
5b22d2c260c40e000103b157,SCR,2024-06-25_13h13.24.180,LearnStrategy,2023.2.3,Win32,9.216589862,4,2,14,,,,,,,,1,04,,,,,,,,,,,,,1,2.065,1,,,,,,-0.390277778,-0.253472222,1,0,0,2.0654,Andesite_rect,13,0,13,0,1,
5b22d2c260c40e000103b157,SCR,2024-06-25_13h13.24.180,LearnStrategy,2023.2.3,Win32,9.216589862,4,2,15,,,,,,,,4,11,,,,,,,,,,,,,2,3.688,0,,,,,,-0.113888889,-0.254166667,1,0,0,3.6879,Basalt_rect,14,0,14,0,1,
5b22d2c260c40e000103b157,SCR,2024-06-25_13h13.24.180,LearnStrategy,2023.2.3,Win32,9.216589862,4,2,16,,,,,,,,2,14,,,,,,,,,,,,,4,2.3,0,,,,,,0.3875,-0.255555556,1,0,0,2.3002,Gabbro_rect,15,0,15,0,1,
5b22d2c260c40e000103b157,SCR,2024-06-25_13h13.24.180,LearnStrategy,2023.2.3,Win32,9.216589862,5,1,1,0.391666667,0.259027778,1,0,0,13.012,Andesite_01,1,01,5,7,13.012,3,14,0.380555556,-0.255555556,1,0,0,1.3365,Gabbro_rect,4,1.336,0,0,0,0,0,1,,,,,,,,,,,,,
5b22d2c260c40e000103b157,SCR,2024-06-25_13h13.24.180,LearnStrategy,2023.2.3,Win32,9.216589862,5,1,2,0.407638889,0.252777778,1,0,0,1.4544,Andesite_01,1,01,5,7,1.454,7,07,-0.394444444,-0.244444444,1,0,0,1.3632,Andesite_rect,1,1.363,1,1,0,1,0,1,,,,,,,,,,,,,
5b22d2c260c40e000103b157,SCR,2024-06-25_13h13.24.180,LearnStrategy,2023.2.3,Win32,9.216589862,5,1,3,-0.384722222,0.248611111,1,0,0,7.7763,Pegmatite_06,6,06,5,2,7.776,7,08,-0.119444444,-0.407638889,1,0,0,2.3539,Pegmatite_rect,6,2.354,1,2,0,2,0,1,,,,,,,,,,,,,
5b22d2c260c40e000103b157,SCR,2024-06-25_13h13.24.180,LearnStrategy,2023.2.3,Win32,9.216589862,5,1,4,0.107638889,0.254861111,1,0,0,6.468,Diorite_15,3,15,5,5,6.468,1,10,0.402777778,-0.251388889,1,0,0,2.5031,Gabbro_rect,4,2.503,0,3,0,3,0,1,,,,,,,,,,,,,
5b22d2c260c40e000103b157,SCR,2024-06-25_13h13.24.180,LearnStrategy,2023.2.3,Win32,9.216589862,5,1,5,0.096527778,0.254861111,1,0,0,2.0555,Diorite_15,3,15,5,5,2.055,8,06,0.15,-0.245833333,1,0,0,3.0867,Diorite_rect,3,3.087,1,4,0,4,0,1,,,,,,,,,,,,,
5b22d2c260c40e000103b157,SCR,2024-06-25_13h13.24.180,LearnStrategy,2023.2.3,Win32,9.216589862,5,1,6,0.072916667,-0.106944444,1,0,0,4.141,Diorite_06,3,06,3,5,4.141,3,12,0.123611111,-0.254166667,1,0,0,3.8905,Diorite_rect,3,3.89,1,5,0,5,0,1,,,,,,,,,,,,,
5b22d2c260c40e000103b157,SCR,2024-06-25_13h13.24.180,LearnStrategy,2023.2.3,Win32,9.216589862,5,1,7,0.249305556,-0.115972222,1,0,0,2.0348,Andesite_07,1,07,3,6,2.035,4,15,0.418055556,-0.252777778,1,0,0,3.0438,Gabbro_rect,4,3.044,0,6,0,6,0,1,,,,,,,,,,,,,
5b22d2c260c40e000103b157,SCR,2024-06-25_13h13.24.180,LearnStrategy,2023.2.3,Win32,9.216589862,5,1,8,0.229861111,-0.093055556,1,0,0,1.0044,Andesite_07,1,07,3,6,1.004,6,11,-0.368055556,-0.248611111,1,0,0,1.1812,Andesite_rect,1,1.181,1,7,0,7,0,1,,,,,,,,,,,,,
5b22d2c260c40e000103b157,SCR,2024-06-25_13h13.24.180,LearnStrategy,2023.2.3,Win32,9.216589862,5,1,9,-0.071527778,-0.250694444,1,0,0,7.8225,Pumice_09,8,09,2,4,7.822,3,11,0.422222222,-0.404861111,1,0,0,1.5019,Pumice_rect,8,1.502,1,8,0,8,0,1,,,,,,,,,,,,,
5b22d2c260c40e000103b157,SCR,2024-06-25_13h13.24.180,LearnStrategy,2023.2.3,Win32,9.216589862,5,1,10,0.539583333,0.245138889,1,0,0,3.1807,Basalt_01,2,01,5,8,3.181,2,11,-0.132638889,-0.248611111,1,0,0,2.1948,Basalt_rect,2,2.195,1,9,0,9,0,1,,,,,,,,,,,,,
5b22d2c260c40e000103b157,SCR,2024-06-25_13h13.24.180,LearnStrategy,2023.2.3,Win32,9.216589862,5,1,11,0.081944444,0.091666667,1,0,0,2.7082,Diorite_13,3,13,4,5,2.708,2,10,0.134722222,-0.254861111,1,0,0,2.6042,Diorite_rect,3,2.604,1,10,0,10,0,1,,,,,,,,,,,,,
5b22d2c260c40e000103b157,SCR,2024-06-25_13h13.24.180,LearnStrategy,2023.2.3,Win32,9.216589862,5,1,12,-0.240277778,0.404166667,1,0,0,4.6723,Peridotite_08,7,08,6,3,4.672,6,13,-0.129166667,-0.256944444,1,0,0,3.3892,Basalt_rect,2,3.389,0,11,0,11,0,1,,,,,,,,,,,,,
5b22d2c260c40e000103b157,SCR,2024-06-25_13h13.24.180,LearnStrategy,2023.2.3,Win32,9.216589862,5,1,13,-0.256944444,0.415277778,1,0,0,1.9132,Peridotite_08,7,08,6,3,1.913,7,15,0.129166667,-0.4125,1,0,0,2.2033,Peridotite_rect,7,2.203,1,12,0,12,0,1,,,,,,,,,,,,,
5b22d2c260c40e000103b157,SCR,2024-06-25_13h13.24.180,LearnStrategy,2023.2.3,Win32,9.216589862,5,1,14,-0.541666667,-0.25625,1,0,0,8.103,Diorite_14,3,14,2,1,8.103,2,01,-0.145138889,-0.406944444,1,0,0,4.9646,Pegmatite_rect,6,4.965,0,13,0,13,0,1,,,,,,,,,,,,,
5b22d2c260c40e000103b157,SCR,2024-06-25_13h13.24.180,LearnStrategy,2023.2.3,Win32,9.216589862,5,1,15,-0.529861111,-0.40625,1,0,0,8.4926,Pegmatite_08,6,08,1,1,8.493,4,15,-0.382638889,-0.404861111,1,0,0,1.7124,Obsidian_rect,5,1.712,0,14,0,14,0,1,,,,,,,,,,,,,
5b22d2c260c40e000103b157,SCR,2024-06-25_13h13.24.180,LearnStrategy,2023.2.3,Win32,9.216589862,5,1,16,-0.508333333,-0.419444444,1,0,0,3.3457,Pegmatite_08,6,08,1,1,3.346,1,01,-0.121527778,-0.410416667,1,0,0,1.862,Pegmatite_rect,6,1.862,1,15,0,15,0,1,,,,,,,,,,,,,
5b22d2c260c40e000103b157,SCR,2024-06-25_13h13.24.180,LearnStrategy,2023.2.3,Win32,9.216589862,5,2,1,,,,,,,,4,12,,,,,,,,,,,,,3,6.51,0,,,,,,0.14375,-0.255555556,1,0,0,6.5095,Diorite_rect,0,0,0,0,1,
5b22d2c260c40e000103b157,SCR,2024-06-25_13h13.24.180,LearnStrategy,2023.2.3,Win32,9.216589862,5,2,2,,,,,,,,5,02,,,,,,,,,,,,,5,3.459,1,,,,,,-0.374305556,-0.401388889,1,0,0,3.4594,Obsidian_rect,1,0,1,0,1,
5b22d2c260c40e000103b157,SCR,2024-06-25_13h13.24.180,LearnStrategy,2023.2.3,Win32,9.216589862,5,2,3,,,,,,,,1,11,,,,,,,,,,,,,7,2.878,0,,,,,,0.140972222,-0.394444444,1,0,0,2.8783,Peridotite_rect,2,0,2,0,1,
5b22d2c260c40e000103b157,SCR,2024-06-25_13h13.24.180,LearnStrategy,2023.2.3,Win32,9.216589862,5,2,4,,,,,,,,7,04,,,,,,,,,,,,,3,5.185,0,,,,,,0.143055556,-0.252777778,1,0,0,5.1847,Diorite_rect,3,0,3,0,1,
5b22d2c260c40e000103b157,SCR,2024-06-25_13h13.24.180,LearnStrategy,2023.2.3,Win32,9.216589862,5,2,5,,,,,,,,2,09,,,,,,,,,,,,,2,2.499,1,,,,,,-0.117361111,-0.25,1,0,0,2.4987,Basalt_rect,4,0,4,0,1,
5b22d2c260c40e000103b157,SCR,2024-06-25_13h13.24.180,LearnStrategy,2023.2.3,Win32,9.216589862,5,2,6,,,,,,,,6,12,,,,,,,,,,,,,1,3.507,0,,,,,,-0.395138889,-0.259722222,1,0,0,3.5073,Andesite_rect,5,0,5,0,1,
5b22d2c260c40e000103b157,SCR,2024-06-25_13h13.24.180,LearnStrategy,2023.2.3,Win32,9.216589862,5,2,7,,,,,,,,7,05,,,,,,,,,,,,,6,3.491,0,,,,,,-0.090972222,-0.400694444,1,0,0,3.4905,Pegmatite_rect,6,0,6,0,1,
5b22d2c260c40e000103b157,SCR,2024-06-25_13h13.24.180,LearnStrategy,2023.2.3,Win32,9.216589862,5,2,8,,,,,,,,8,05,,,,,,,,,,,,,8,1.751,1,,,,,,0.409722222,-0.398611111,1,0,0,1.7506,Pumice_rect,7,0,7,0,1,
5b22d2c260c40e000103b157,SCR,2024-06-25_13h13.24.180,LearnStrategy,2023.2.3,Win32,9.216589862,5,2,9,,,,,,,,3,16,,,,,,,,,,,,,7,10.728,0,,,,,,0.14375,-0.400694444,1,0,0,10.7278,Peridotite_rect,8,0,8,0,1,
5b22d2c260c40e000103b157,SCR,2024-06-25_13h13.24.180,LearnStrategy,2023.2.3,Win32,9.216589862,5,2,10,,,,,,,,3,07,,,,,,,,,,,,,3,4.698,1,,,,,,0.167361111,-0.242361111,1,0,0,4.6985,Diorite_rect,9,0,9,0,1,
5b22d2c260c40e000103b157,SCR,2024-06-25_13h13.24.180,LearnStrategy,2023.2.3,Win32,9.216589862,5,2,11,,,,,,,,1,06,,,,,,,,,,,,,2,13.544,0,,,,,,-0.141666667,-0.255555556,1,0,0,13.5441,Basalt_rect,10,0,10,0,1,
5b22d2c260c40e000103b157,SCR,2024-06-25_13h13.24.180,LearnStrategy,2023.2.3,Win32,9.216589862,5,2,12,,,,,,,,2,12,,,,,,,,,,,,,1,3.723,0,,,,,,-0.363888889,-0.241666667,1,0,0,3.7229,Andesite_rect,11,0,11,0,1,
5b22d2c260c40e000103b157,SCR,2024-06-25_13h13.24.180,LearnStrategy,2023.2.3,Win32,9.216589862,5,2,13,,,,,,,,8,02,,,,,,,,,,,,,8,2.956,1,,,,,,0.361111111,-0.390972222,1,0,0,2.9563,Pumice_rect,12,0,12,0,1,
5b22d2c260c40e000103b157,SCR,2024-06-25_13h13.24.180,LearnStrategy,2023.2.3,Win32,9.216589862,5,2,14,,,,,,,,6,03,,,,,,,,,,,,,5,2.643,0,,,,,,-0.363888889,-0.402777778,1,0,0,2.6432,Obsidian_rect,13,0,13,0,1,
5b22d2c260c40e000103b157,SCR,2024-06-25_13h13.24.180,LearnStrategy,2023.2.3,Win32,9.216589862,5,2,15,,,,,,,,4,14,,,,,,,,,,,,,4,3.918,1,,,,,,0.429166667,-0.25,1,0,0,3.9183,Gabbro_rect,14,0,14,0,1,
5b22d2c260c40e000103b157,SCR,2024-06-25_13h13.24.180,LearnStrategy,2023.2.3,Win32,9.216589862,5,2,16,,,,,,,,5,05,,,,,,,,,,,,,5,2.473,1,,,,,,-0.366666667,-0.394444444,1,0,0,2.4727,Obsidian_rect,15,0,15,0,1,
5b22d2c260c40e000103b157,SCR,2024-06-25_13h13.24.180,LearnStrategy,2023.2.3,Win32,9.216589862,6,1,1,0.568055556,0.415277778,1,0,0,2.7451,Peridotite_02,7,02,6,8,2.745,7,02,0.092361111,-0.399305556,1,0,0,11.9399,Peridotite_rect,7,11.94,1,0,0,0,0,1,,,,,,,,,,,,,
5b22d2c260c40e000103b157,SCR,2024-06-25_13h13.24.180,LearnStrategy,2023.2.3,Win32,9.216589862,6,1,2,0.079861111,0.084722222,1,0,0,10.3006,Diorite_13,3,13,4,5,10.301,1,10,0.097222222,-0.258333333,1,0,0,2.8622,Diorite_rect,3,2.862,1,1,0,1,0,1,,,,,,,,,,,,,
5b22d2c260c40e000103b157,SCR,2024-06-25_13h13.24.180,LearnStrategy,2023.2.3,Win32,9.216589862,6,1,3,0.083333333,-0.121527778,1,0,0,2.8481,Diorite_06,3,06,3,5,2.848,4,03,0.114583333,-0.4,1,0,0,4.2474,Peridotite_rect,7,4.247,0,2,0,2,0,1,,,,,,,,,,,,,
5b22d2c260c40e000103b157,SCR,2024-06-25_13h13.24.180,LearnStrategy,2023.2.3,Win32,9.216589862,6,1,4,0.064583333,-0.1125,1,0,0,1.0218,Diorite_06,3,06,3,5,1.022,3,13,0.114583333,-0.242361111,1,0,0,1.319,Diorite_rect,3,1.319,1,3,0,3,0,1,,,,,,,,,,,,,
5b22d2c260c40e000103b157,SCR,2024-06-25_13h13.24.180,LearnStrategy,2023.2.3,Win32,9.216589862,6,1,5,-0.243055556,-0.259722222,1,0,0,5.3247,Gabbro_13,4,13,2,3,5.325,1,03,0.385416667,-0.244444444,1,0,0,1.5181,Gabbro_rect,4,1.518,1,4,0,4,0,1,,,,,,,,,,,,,
5b22d2c260c40e000103b157,SCR,2024-06-25_13h13.24.180,LearnStrategy,2023.2.3,Win32,9.216589862,6,1,6,-0.38125,-0.116666667,1,0,0,4.4374,Pegmatite_11,6,11,3,2,4.437,7,15,-0.061805556,-0.396527778,1,0,0,7.532,Pegmatite_rect,6,7.532,1,5,0,5,0,1,,,,,,,,,,,,,
5b22d2c260c40e000103b157,SCR,2024-06-25_13h13.24.180,LearnStrategy,2023.2.3,Win32,9.216589862,6,1,7,-0.410416667,0.25625,1,0,0,4.0707,Pegmatite_06,6,06,5,2,4.071,2,11,0.141666667,-0.244444444,1,0,0,3.1001,Diorite_rect,3,3.1,0,6,0,6,0,1,,,,,,,,,,,,,
5b22d2c260c40e000103b157,SCR,2024-06-25_13h13.24.180,LearnStrategy,2023.2.3,Win32,9.216589862,6,1,8,-0.230555556,-0.250694444,1,0,0,2.7638,Gabbro_13,4,13,2,3,2.764,4,13,-0.105555556,-0.404166667,1,0,0,2.8057,Pegmatite_rect,6,2.806,0,7,0,7,0,1,,,,,,,,,,,,,
5b22d2c260c40e000103b157,SCR,2024-06-25_13h13.24.180,LearnStrategy,2023.2.3,Win32,9.216589862,6,1,9,-0.218055556,-0.252777778,1,0,0,1.4452,Gabbro_13,4,13,2,3,1.445,7,07,0.388194444,-0.254861111,1,0,0,1.219,Gabbro_rect,4,1.219,1,8,0,8,0,1,,,,,,,,,,,,,
5b22d2c260c40e000103b157,SCR,2024-06-25_13h13.24.180,LearnStrategy,2023.2.3,Win32,9.216589862,6,1,10,0.075694444,0.095833333,1,0,0,2.8751,Diorite_13,3,13,4,5,2.875,6,11,0.116666667,-0.401388889,1,0,0,3.8756,Peridotite_rect,7,3.876,0,9,0,9,0,1,,,,,,,,,,,,,
5b22d2c260c40e000103b157,SCR,2024-06-25_13h13.24.180,LearnStrategy,2023.2.3,Win32,9.216589862,6,1,11,0.091666667,0.089583333,1,0,0,1.6257,Diorite_13,3,13,4,5,1.626,1,14,0.135416667,-0.240972222,1,0,0,1.0191,Diorite_rect,3,1.019,1,10,0,10,0,1,,,,,,,,,,,,,
5b22d2c260c40e000103b157,SCR,2024-06-25_13h13.24.180,LearnStrategy,2023.2.3,Win32,9.216589862,6,1,12,-0.410416667,-0.261805556,1,0,0,4.0212,Peridotite_06,7,06,2,2,4.021,6,08,-0.399305556,-0.384722222,1,0,0,3.0083,Obsidian_rect,5,3.008,0,11,0,11,0,1,,,,,,,,,,,,,
5b22d2c260c40e000103b157,SCR,2024-06-25_13h13.24.180,LearnStrategy,2023.2.3,Win32,9.216589862,6,1,13,-0.056944444,-0.420138889,1,0,0,3.0846,Andesite_16,1,16,1,4,3.085,2,06,0.10625,-0.388888889,1,0,0,2.4039,Peridotite_rect,7,2.404,0,12,0,12,0,1,,,,,,,,,,,,,
5b22d2c260c40e000103b157,SCR,2024-06-25_13h13.24.180,LearnStrategy,2023.2.3,Win32,9.216589862,6,1,14,-0.076388889,-0.408333333,1,0,0,1.4971,Andesite_16,1,16,1,4,1.497,6,06,-0.388888889,-0.253472222,1,0,0,1.0495,Andesite_rect,1,1.05,1,13,0,13,0,1,,,,,,,,,,,,,
5b22d2c260c40e000103b157,SCR,2024-06-25_13h13.24.180,LearnStrategy,2023.2.3,Win32,9.216589862,6,1,15,0.236111111,0.095833333,1,0,0,3.9384,Peridotite_07,7,07,4,6,3.938,3,14,0.363888889,-0.234027778,1,0,0,2.1572,Gabbro_rect,4,2.157,0,14,0,14,0,1,,,,,,,,,,,,,
5b22d2c260c40e000103b157,SCR,2024-06-25_13h13.24.180,LearnStrategy,2023.2.3,Win32,9.216589862,6,1,16,0.240277778,0.09375,1,0,0,1.0149,Peridotite_07,7,07,4,6,1.015,2,11,0.128472222,-0.4125,1,0,0,1.2115,Peridotite_rect,7,1.211,1,15,0,15,0,1,,,,,,,,,,,,,
5b22d2c260c40e000103b157,SCR,2024-06-25_13h13.24.180,LearnStrategy,2023.2.3,Win32,9.216589862,6,2,1,,,,,,,,5,09,,,,,,,,,,,,,5,2.725,1,,,,,,-0.405555556,-0.402777778,1,0,0,2.7248,Obsidian_rect,0,0,0,0,1,
5b22d2c260c40e000103b157,SCR,2024-06-25_13h13.24.180,LearnStrategy,2023.2.3,Win32,9.216589862,6,2,2,,,,,,,,5,14,,,,,,,,,,,,,5,4.245,1,,,,,,-0.354861111,-0.403472222,1,0,0,4.2451,Obsidian_rect,1,0,1,0,1,
5b22d2c260c40e000103b157,SCR,2024-06-25_13h13.24.180,LearnStrategy,2023.2.3,Win32,9.216589862,6,2,3,,,,,,,,2,04,,,,,,,,,,,,,1,3.961,0,,,,,,-0.361111111,-0.251388889,1,0,0,3.9609,Andesite_rect,2,0,2,0,1,
5b22d2c260c40e000103b157,SCR,2024-06-25_13h13.24.180,LearnStrategy,2023.2.3,Win32,9.216589862,6,2,4,,,,,,,,3,09,,,,,,,,,,,,,3,2.091,1,,,,,,0.130555556,-0.248611111,1,0,0,2.0912,Diorite_rect,3,0,3,0,1,
5b22d2c260c40e000103b157,SCR,2024-06-25_13h13.24.180,LearnStrategy,2023.2.3,Win32,9.216589862,6,2,5,,,,,,,,7,12,,,,,,,,,,,,,6,3.233,0,,,,,,-0.124305556,-0.414583333,1,0,0,3.2332,Pegmatite_rect,4,0,4,0,1,
5b22d2c260c40e000103b157,SCR,2024-06-25_13h13.24.180,LearnStrategy,2023.2.3,Win32,9.216589862,6,2,6,,,,,,,,8,14,,,,,,,,,,,,,8,1.826,1,,,,,,0.390972222,-0.410416667,1,0,0,1.8261,Pumice_rect,5,0,5,0,1,
5b22d2c260c40e000103b157,SCR,2024-06-25_13h13.24.180,LearnStrategy,2023.2.3,Win32,9.216589862,6,2,7,,,,,,,,8,16,,,,,,,,,,,,,4,4.064,0,,,,,,0.384722222,-0.245833333,1,0,0,4.0642,Gabbro_rect,6,0,6,0,1,
5b22d2c260c40e000103b157,SCR,2024-06-25_13h13.24.180,LearnStrategy,2023.2.3,Win32,9.216589862,6,2,8,,,,,,,,7,13,,,,,,,,,,,,,7,3.637,1,,,,,,0.116666667,-0.395138889,1,0,0,3.6369,Peridotite_rect,7,0,7,0,1,
5b22d2c260c40e000103b157,SCR,2024-06-25_13h13.24.180,LearnStrategy,2023.2.3,Win32,9.216589862,6,2,9,,,,,,,,6,05,,,,,,,,,,,,,6,3.953,1,,,,,,-0.158333333,-0.402777778,1,0,0,3.9535,Pegmatite_rect,8,0,8,0,1,
5b22d2c260c40e000103b157,SCR,2024-06-25_13h13.24.180,LearnStrategy,2023.2.3,Win32,9.216589862,6,2,10,,,,,,,,4,05,,,,,,,,,,,,,2,2.224,0,,,,,,-0.134722222,-0.248611111,1,0,0,2.2237,Basalt_rect,9,0,9,0,1,
5b22d2c260c40e000103b157,SCR,2024-06-25_13h13.24.180,LearnStrategy,2023.2.3,Win32,9.216589862,6,2,11,,,,,,,,1,05,,,,,,,,,,,,,4,3.767,0,,,,,,0.408333333,-0.25,1,0,0,3.7667,Gabbro_rect,10,0,10,0,1,
5b22d2c260c40e000103b157,SCR,2024-06-25_13h13.24.180,LearnStrategy,2023.2.3,Win32,9.216589862,6,2,12,,,,,,,,6,16,,,,,,,,,,,,,3,3.651,0,,,,,,0.140277778,-0.25,1,0,0,3.6511,Diorite_rect,11,0,11,0,1,
5b22d2c260c40e000103b157,SCR,2024-06-25_13h13.24.180,LearnStrategy,2023.2.3,Win32,9.216589862,6,2,13,,,,,,,,1,02,,,,,,,,,,,,,2,2.601,0,,,,,,-0.127083333,-0.250694444,1,0,0,2.6014,Basalt_rect,12,0,12,0,1,
5b22d2c260c40e000103b157,SCR,2024-06-25_13h13.24.180,LearnStrategy,2023.2.3,Win32,9.216589862,6,2,14,,,,,,,,3,08,,,,,,,,,,,,,6,6.6,0,,,,,,-0.071527778,-0.418055556,1,0,0,6.6004,Pegmatite_rect,13,0,13,0,1,
5b22d2c260c40e000103b157,SCR,2024-06-25_13h13.24.180,LearnStrategy,2023.2.3,Win32,9.216589862,6,2,15,,,,,,,,2,08,,,,,,,,,,,,,3,8.956,0,,,,,,0.124305556,-0.255555556,1,0,0,8.9558,Diorite_rect,14,0,14,0,1,
5b22d2c260c40e000103b157,SCR,2024-06-25_13h13.24.180,LearnStrategy,2023.2.3,Win32,9.216589862,6,2,16,,,,,,,,4,01,,,,,,,,,,,,,2,5.64,0,,,,,,-0.089583333,-0.251388889,1,0,0,5.6398,Basalt_rect,15,0,15,0,1,
5b22d2c260c40e000103b157,SCR,2024-06-25_13h13.24.180,LearnStrategy,2023.2.3,Win32,9.216589862,7,1,1,-0.234027778,0.097222222,1,0,0,2.003,Obsidian_16,5,16,4,3,2.003,2,16,-0.433333333,-0.402083333,1,0,0,1.9427,Obsidian_rect,5,1.943,1,0,0,0,0,1,,,,,,,,,,,,,
5b22d2c260c40e000103b157,SCR,2024-06-25_13h13.24.180,LearnStrategy,2023.2.3,Win32,9.216589862,7,1,2,0.082638889,-0.110416667,1,0,0,2.5821,Diorite_06,3,06,3,5,2.582,1,16,0.402083333,-0.244444444,1,0,0,2.0693,Gabbro_rect,4,2.069,0,1,0,1,0,1,,,,,,,,,,,,,
5b22d2c260c40e000103b157,SCR,2024-06-25_13h13.24.180,LearnStrategy,2023.2.3,Win32,9.216589862,7,1,3,0.090277778,-0.109027778,1,0,0,1.9449,Diorite_06,3,06,3,5,1.945,1,07,0.131944444,-0.244444444,1,0,0,1.7959,Diorite_rect,3,1.796,1,2,0,2,0,1,,,,,,,,,,,,,
5b22d2c260c40e000103b157,SCR,2024-06-25_13h13.24.180,LearnStrategy,2023.2.3,Win32,9.216589862,7,1,4,0.081944444,-0.2625,1,0,0,2.0424,Pumice_08,8,08,2,5,2.042,6,13,0.395833333,-0.406944444,1,0,0,2.3541,Pumice_rect,8,2.354,1,3,0,3,0,1,,,,,,,,,,,,,
5b22d2c260c40e000103b157,SCR,2024-06-25_13h13.24.180,LearnStrategy,2023.2.3,Win32,9.216589862,7,1,5,-0.25625,-0.101388889,1,0,0,2.2069,Basalt_02,2,02,3,3,2.207,4,13,-0.359722222,-0.25625,1,0,0,2.7979,Andesite_rect,1,2.798,0,4,0,4,0,1,,,,,,,,,,,,,
5b22d2c260c40e000103b157,SCR,2024-06-25_13h13.24.180,LearnStrategy,2023.2.3,Win32,9.216589862,7,1,6,-0.228472222,-0.100694444,1,0,0,1.4777,Basalt_02,2,02,3,3,1.478,2,01,-0.125,-0.253472222,1,0,0,1.0312,Basalt_rect,2,1.031,1,5,0,5,0,1,,,,,,,,,,,,,
5b22d2c260c40e000103b157,SCR,2024-06-25_13h13.24.180,LearnStrategy,2023.2.3,Win32,9.216589862,7,1,7,-0.221527778,-0.270833333,1,0,0,2.7736,Gabbro_13,4,13,2,3,2.774,3,06,0.384722222,-0.248611111,1,0,0,2.3561,Gabbro_rect,4,2.356,1,6,0,6,0,1,,,,,,,,,,,,,
5b22d2c260c40e000103b157,SCR,2024-06-25_13h13.24.180,LearnStrategy,2023.2.3,Win32,9.216589862,7,1,8,-0.396527778,-0.403472222,1,0,0,2.3061,Obsidian_06,5,06,1,2,2.306,8,08,-0.396527778,-0.403472222,1,0,0,1.5603,Obsidian_rect,5,1.56,1,7,0,7,0,1,,,,,,,,,,,,,
5b22d2c260c40e000103b157,SCR,2024-06-25_13h13.24.180,LearnStrategy,2023.2.3,Win32,9.216589862,7,1,9,0.401388889,0.254861111,1,0,0,6.5306,Andesite_01,1,01,5,7,6.531,1,14,0.380555556,-0.248611111,1,0,0,1.3517,Gabbro_rect,4,1.352,0,8,0,8,0,1,,,,,,,,,,,,,
5b22d2c260c40e000103b157,SCR,2024-06-25_13h13.24.180,LearnStrategy,2023.2.3,Win32,9.216589862,7,1,10,0.399305556,0.246527778,1,0,0,2.618,Andesite_01,1,01,5,7,2.618,4,10,-0.40625,-0.242361111,1,0,0,1.4209,Andesite_rect,1,1.421,1,9,0,9,0,1,,,,,,,,,,,,,
5b22d2c260c40e000103b157,SCR,2024-06-25_13h13.24.180,LearnStrategy,2023.2.3,Win32,9.216589862,7,1,11,0.073611111,0.249305556,1,0,0,3.1731,Diorite_15,3,15,5,5,3.173,2,10,0.39375,-0.261111111,1,0,0,4.6161,Gabbro_rect,4,4.616,0,10,0,10,0,1,,,,,,,,,,,,,
5b22d2c260c40e000103b157,SCR,2024-06-25_13h13.24.180,LearnStrategy,2023.2.3,Win32,9.216589862,7,1,12,0.080555556,0.234027778,1,0,0,2.7611,Diorite_15,3,15,5,5,2.761,7,07,0.10625,-0.248611111,1,0,0,1.3463,Diorite_rect,3,1.346,1,11,0,11,0,1,,,,,,,,,,,,,
5b22d2c260c40e000103b157,SCR,2024-06-25_13h13.24.180,LearnStrategy,2023.2.3,Win32,9.216589862,7,1,13,0.059722222,-0.259722222,1,0,0,3.3525,Pumice_08,8,08,2,5,3.352,7,15,0.409722222,-0.403472222,1,0,0,1.788,Pumice_rect,8,1.788,1,12,0,12,0,1,,,,,,,,,,,,,
5b22d2c260c40e000103b157,SCR,2024-06-25_13h13.24.180,LearnStrategy,2023.2.3,Win32,9.216589862,7,1,14,-0.08125,-0.2875,1,0,0,1.6101,Pumice_09,8,09,2,4,1.61,4,10,0.386805556,-0.399305556,1,0,0,1.4151,Pumice_rect,8,1.415,1,13,0,13,0,1,,,,,,,,,,,,,
5b22d2c260c40e000103b157,SCR,2024-06-25_13h13.24.180,LearnStrategy,2023.2.3,Win32,9.216589862,7,1,15,-0.251388889,-0.261805556,1,0,0,1.8825,Gabbro_13,4,13,2,3,1.883,3,06,0.120138889,-0.246527778,1,0,0,1.3382,Diorite_rect,3,1.338,0,14,0,14,0,1,,,,,,,,,,,,,
5b22d2c260c40e000103b157,SCR,2024-06-25_13h13.24.180,LearnStrategy,2023.2.3,Win32,9.216589862,7,1,16,-0.371527778,-0.273611111,1,0,0,2.371,Peridotite_06,7,06,2,2,2.371,6,08,-0.377777778,-0.247222222,1,0,0,2.3388,Andesite_rect,1,2.339,0,15,0,15,0,1,,,,,,,,,,,,,
5b22d2c260c40e000103b157,SCR,2024-06-25_13h13.24.180,LearnStrategy,2023.2.3,Win32,9.216589862,7,2,1,,,,,,,,7,10,,,,,,,,,,,,,2,6.913,0,,,,,,-0.129166667,-0.245138889,1,0,0,6.9133,Basalt_rect,0,0,0,0,1,
5b22d2c260c40e000103b157,SCR,2024-06-25_13h13.24.180,LearnStrategy,2023.2.3,Win32,9.216589862,7,2,2,,,,,,,,2,05,,,,,,,,,,,,,3,3.764,0,,,,,,0.127083333,-0.250694444,1,0,0,3.7638,Diorite_rect,1,0,1,0,1,
5b22d2c260c40e000103b157,SCR,2024-06-25_13h13.24.180,LearnStrategy,2023.2.3,Win32,9.216589862,7,2,3,,,,,,,,1,05,,,,,,,,,,,,,6,2.348,0,,,,,,-0.125,-0.402083333,1,0,0,2.3483,Pegmatite_rect,2,0,2,0,1,
5b22d2c260c40e000103b157,SCR,2024-06-25_13h13.24.180,LearnStrategy,2023.2.3,Win32,9.216589862,7,2,4,,,,,,,,5,10,,,,,,,,,,,,,1,2.5,0,,,,,,-0.36875,-0.249305556,1,0,0,2.5002,Andesite_rect,3,0,3,0,1,
5b22d2c260c40e000103b157,SCR,2024-06-25_13h13.24.180,LearnStrategy,2023.2.3,Win32,9.216589862,7,2,5,,,,,,,,4,01,,,,,,,,,,,,,7,5.816,0,,,,,,0.184027778,-0.403472222,1,0,0,5.8164,Peridotite_rect,4,0,4,0,1,
5b22d2c260c40e000103b157,SCR,2024-06-25_13h13.24.180,LearnStrategy,2023.2.3,Win32,9.216589862,7,2,6,,,,,,,,7,05,,,,,,,,,,,,,6,2.783,0,,,,,,-0.128472222,-0.404166667,1,0,0,2.7826,Pegmatite_rect,5,0,5,0,1,
5b22d2c260c40e000103b157,SCR,2024-06-25_13h13.24.180,LearnStrategy,2023.2.3,Win32,9.216589862,7,2,7,,,,,,,,8,14,,,,,,,,,,,,,8,2.564,1,,,,,,0.407638889,-0.399305556,1,0,0,2.5636,Pumice_rect,6,0,6,0,1,
5b22d2c260c40e000103b157,SCR,2024-06-25_13h13.24.180,LearnStrategy,2023.2.3,Win32,9.216589862,7,2,8,,,,,,,,3,10,,,,,,,,,,,,,3,4.593,1,,,,,,0.128472222,-0.240277778,1,0,0,4.5934,Diorite_rect,7,0,7,0,1,
5b22d2c260c40e000103b157,SCR,2024-06-25_13h13.24.180,LearnStrategy,2023.2.3,Win32,9.216589862,7,2,9,,,,,,,,4,11,,,,,,,,,,,,,2,1.797,0,,,,,,-0.096527778,-0.25625,1,0,0,1.797,Basalt_rect,8,0,8,0,1,
5b22d2c260c40e000103b157,SCR,2024-06-25_13h13.24.180,LearnStrategy,2023.2.3,Win32,9.216589862,7,2,10,,,,,,,,3,08,,,,,,,,,,,,,1,3.832,0,,,,,,-0.378472222,-0.261805556,1,0,0,3.8325,Andesite_rect,9,0,9,0,1,
5b22d2c260c40e000103b157,SCR,2024-06-25_13h13.24.180,LearnStrategy,2023.2.3,Win32,9.216589862,7,2,11,,,,,,,,8,16,,,,,,,,,,,,,4,3.338,0,,,,,,0.365972222,-0.247916667,1,0,0,3.3384,Gabbro_rect,10,0,10,0,1,
5b22d2c260c40e000103b157,SCR,2024-06-25_13h13.24.180,LearnStrategy,2023.2.3,Win32,9.216589862,7,2,12,,,,,,,,1,11,,,,,,,,,,,,,6,2.488,0,,,,,,-0.115972222,-0.402083333,1,0,0,2.4885,Pegmatite_rect,11,0,11,0,1,
5b22d2c260c40e000103b157,SCR,2024-06-25_13h13.24.180,LearnStrategy,2023.2.3,Win32,9.216589862,7,2,13,,,,,,,,5,05,,,,,,,,,,,,,5,1.811,1,,,,,,-0.4125,-0.406944444,1,0,0,1.8114,Obsidian_rect,12,0,12,0,1,
5b22d2c260c40e000103b157,SCR,2024-06-25_13h13.24.180,LearnStrategy,2023.2.3,Win32,9.216589862,7,2,14,,,,,,,,6,15,,,,,,,,,,,,,7,3.896,0,,,,,,0.0875,-0.397222222,1,0,0,3.8964,Peridotite_rect,13,0,13,0,1,
5b22d2c260c40e000103b157,SCR,2024-06-25_13h13.24.180,LearnStrategy,2023.2.3,Win32,9.216589862,7,2,15,,,,,,,,2,04,,,,,,,,,,,,,1,4.616,0,,,,,,-0.388194444,-0.240277778,1,0,0,4.6163,Andesite_rect,14,0,14,0,1,
5b22d2c260c40e000103b157,SCR,2024-06-25_13h13.24.180,LearnStrategy,2023.2.3,Win32,9.216589862,7,2,16,,,,,,,,6,09,,,,,,,,,,,,,6,2.727,1,,,,,,-0.115277778,-0.409027778,1,0,0,2.7271,Pegmatite_rect,15,0,15,0,1,
5b22d2c260c40e000103b157,SCR,2024-06-25_13h13.24.180,LearnStrategy,2023.2.3,Win32,9.216589862,8,1,1,-0.071527778,0.0875,1,0,0,4.6151,Basalt_06,2,06,4,4,4.615,5,11,-0.320138889,-0.397916667,1,0,0,2.9288,Obsidian_rect,5,2.929,0,0,0,0,0,1,,,,,,,,,,,,,
5b22d2c260c40e000103b157,SCR,2024-06-25_13h13.24.180,LearnStrategy,2023.2.3,Win32,9.216589862,8,1,2,-0.083333333,0.108333333,1,0,0,2.9741,Basalt_06,2,06,4,4,2.974,7,08,-0.143055556,-0.247916667,1,0,0,1.3121,Basalt_rect,2,1.312,1,1,0,1,0,1,,,,,,,,,,,,,
5b22d2c260c40e000103b157,SCR,2024-06-25_13h13.24.180,LearnStrategy,2023.2.3,Win32,9.216589862,8,1,3,0.398611111,0.252083333,1,0,0,2.7892,Andesite_01,1,01,5,7,2.789,2,01,0.149305556,-0.253472222,1,0,0,2.2606,Diorite_rect,3,2.261,0,2,0,2,0,1,,,,,,,,,,,,,
5b22d2c260c40e000103b157,SCR,2024-06-25_13h13.24.180,LearnStrategy,2023.2.3,Win32,9.216589862,8,1,4,0.381944444,0.245138889,1,0,0,1.4571,Andesite_01,1,01,5,7,1.457,3,11,-0.448611111,-0.258333333,1,0,0,1.467,Andesite_rect,1,1.467,1,3,0,3,0,1,,,,,,,,,,,,,
5b22d2c260c40e000103b157,SCR,2024-06-25_13h13.24.180,LearnStrategy,2023.2.3,Win32,9.216589862,8,1,5,0.532638889,0.090972222,1,0,0,3.0072,Gabbro_10,4,10,4,8,3.007,4,16,-0.131944444,-0.258333333,1,0,0,3.5929,Basalt_rect,2,3.593,0,4,0,4,0,1,,,,,,,,,,,,,
5b22d2c260c40e000103b157,SCR,2024-06-25_13h13.24.180,LearnStrategy,2023.2.3,Win32,9.216589862,8,1,6,0.546527778,0.090277778,1,0,0,3.0448,Gabbro_10,4,10,4,8,3.045,8,06,0.404166667,-0.255555556,1,0,0,1.3485,Gabbro_rect,4,1.348,1,5,0,5,0,1,,,,,,,,,,,,,
5b22d2c260c40e000103b157,SCR,2024-06-25_13h13.24.180,LearnStrategy,2023.2.3,Win32,9.216589862,8,1,7,0.085416667,-0.413888889,1,0,0,3.0838,Pumice_06,8,06,1,5,3.084,4,13,0.353472222,-0.403472222,1,0,0,1.9381,Pumice_rect,8,1.938,1,6,0,6,0,1,,,,,,,,,,,,,
5b22d2c260c40e000103b157,SCR,2024-06-25_13h13.24.180,LearnStrategy,2023.2.3,Win32,9.216589862,8,1,8,0.2375,-0.269444444,1,0,0,1.7496,Pegmatite_13,6,13,2,6,1.75,1,14,-0.36875,-0.258333333,1,0,0,4.2025,Andesite_rect,1,4.202,0,7,0,7,0,1,,,,,,,,,,,,,
5b22d2c260c40e000103b157,SCR,2024-06-25_13h13.24.180,LearnStrategy,2023.2.3,Win32,9.216589862,8,1,9,-0.355555556,-0.263194444,1,0,0,2.4876,Peridotite_06,7,06,2,2,2.488,7,06,-0.108333333,-0.395138889,1,0,0,1.6085,Pegmatite_rect,6,1.608,0,8,0,8,0,1,,,,,,,,,,,,,
5b22d2c260c40e000103b157,SCR,2024-06-25_13h13.24.180,LearnStrategy,2023.2.3,Win32,9.216589862,8,1,10,-0.260416667,-0.38125,1,0,0,2.8201,Diorite_11,3,11,1,3,2.82,3,11,0.107638889,-0.399305556,1,0,0,1.3172,Peridotite_rect,7,1.317,0,9,0,9,0,1,,,,,,,,,,,,,
5b22d2c260c40e000103b157,SCR,2024-06-25_13h13.24.180,LearnStrategy,2023.2.3,Win32,9.216589862,8,1,11,-0.250694444,-0.411805556,1,0,0,2.4674,Diorite_11,3,11,1,3,2.467,2,10,0.103472222,-0.24375,1,0,0,1.6099,Diorite_rect,3,1.61,1,10,0,10,0,1,,,,,,,,,,,,,
5b22d2c260c40e000103b157,SCR,2024-06-25_13h13.24.180,LearnStrategy,2023.2.3,Win32,9.216589862,8,1,12,0.088194444,0.0875,1,0,0,3.7126,Diorite_13,3,13,4,5,3.713,6,06,0.339583333,-0.247222222,1,0,0,4.1698,Gabbro_rect,4,4.17,0,11,0,11,0,1,,,,,,,,,,,,,
5b22d2c260c40e000103b157,SCR,2024-06-25_13h13.24.180,LearnStrategy,2023.2.3,Win32,9.216589862,8,1,13,0.078472222,0.092361111,1,0,0,3.5106,Diorite_13,3,13,4,5,3.511,1,07,0.127083333,-0.260416667,1,0,0,1.3249,Diorite_rect,3,1.325,1,12,0,12,0,1,,,,,,,,,,,,,
5b22d2c260c40e000103b157,SCR,2024-06-25_13h13.24.180,LearnStrategy,2023.2.3,Win32,9.216589862,8,1,14,-0.25,-0.104166667,1,0,0,4.2122,Basalt_02,2,02,3,3,4.212,2,06,-0.158333333,-0.270833333,1,0,0,3.2128,Basalt_rect,2,3.213,1,13,0,13,0,1,,,,,,,,,,,,,
5b22d2c260c40e000103b157,SCR,2024-06-25_13h13.24.180,LearnStrategy,2023.2.3,Win32,9.216589862,8,1,15,-0.222222222,0.09375,1,0,0,1.9956,Obsidian_16,5,16,4,3,1.996,1,07,-0.409027778,-0.388888889,1,0,0,1.7906,Obsidian_rect,5,1.791,1,14,0,14,0,1,,,,,,,,,,,,,
5b22d2c260c40e000103b157,SCR,2024-06-25_13h13.24.180,LearnStrategy,2023.2.3,Win32,9.216589862,8,1,16,-0.088194444,-0.100694444,1,0,0,2.1857,Obsidian_04,5,04,3,4,2.186,6,08,-0.35,-0.405555556,1,0,0,2.5266,Obsidian_rect,5,2.527,1,15,0,15,0,1,,,,,,,,,,,,,
5b22d2c260c40e000103b157,SCR,2024-06-25_13h13.24.180,LearnStrategy,2023.2.3,Win32,9.216589862,8,2,1,,,,,,,,8,05,,,,,,,,,,,,,8,6.432,1,,,,,,0.398611111,-0.399305556,1,0,0,6.4324,Pumice_rect,0,0,0,0,1,
5b22d2c260c40e000103b157,SCR,2024-06-25_13h13.24.180,LearnStrategy,2023.2.3,Win32,9.216589862,8,2,2,,,,,,,,6,05,,,,,,,,,,,,,7,4.149,0,,,,,,0.127777778,-0.402083333,1,0,0,4.1493,Peridotite_rect,1,0,1,0,1,
5b22d2c260c40e000103b157,SCR,2024-06-25_13h13.24.180,LearnStrategy,2023.2.3,Win32,9.216589862,8,2,3,,,,,,,,2,09,,,,,,,,,,,,,1,2.679,0,,,,,,-0.361805556,-0.260416667,1,0,0,2.6786,Andesite_rect,2,0,2,0,1,
5b22d2c260c40e000103b157,SCR,2024-06-25_13h13.24.180,LearnStrategy,2023.2.3,Win32,9.216589862,8,2,4,,,,,,,,6,12,,,,,,,,,,,,,6,1.975,1,,,,,,-0.145833333,-0.395138889,1,0,0,1.9754,Pegmatite_rect,3,0,3,0,1,
5b22d2c260c40e000103b157,SCR,2024-06-25_13h13.24.180,LearnStrategy,2023.2.3,Win32,9.216589862,8,2,5,,,,,,,,2,12,,,,,,,,,,,,,3,4.774,0,,,,,,0.119444444,-0.251388889,1,0,0,4.7745,Diorite_rect,4,0,4,0,1,
5b22d2c260c40e000103b157,SCR,2024-06-25_13h13.24.180,LearnStrategy,2023.2.3,Win32,9.216589862,8,2,6,,,,,,,,4,05,,,,,,,,,,,,,2,3.042,0,,,,,,-0.0875,-0.258333333,1,0,0,3.0417,Basalt_rect,5,0,5,0,1,
5b22d2c260c40e000103b157,SCR,2024-06-25_13h13.24.180,LearnStrategy,2023.2.3,Win32,9.216589862,8,2,7,,,,,,,,8,10,,,,,,,,,,,,,8,2.417,1,,,,,,0.388194444,-0.399305556,1,0,0,2.4166,Pumice_rect,6,0,6,0,1,
5b22d2c260c40e000103b157,SCR,2024-06-25_13h13.24.180,LearnStrategy,2023.2.3,Win32,9.216589862,8,2,8,,,,,,,,1,06,,,,,,,,,,,,,4,2.91,0,,,,,,0.429861111,-0.266666667,1,0,0,2.9104,Gabbro_rect,7,0,7,0,1,
5b22d2c260c40e000103b157,SCR,2024-06-25_13h13.24.180,LearnStrategy,2023.2.3,Win32,9.216589862,8,2,9,,,,,,,,7,12,,,,,,,,,,,,,6,2.77,0,,,,,,-0.104861111,-0.395833333,1,0,0,2.77,Pegmatite_rect,8,0,8,0,1,
5b22d2c260c40e000103b157,SCR,2024-06-25_13h13.24.180,LearnStrategy,2023.2.3,Win32,9.216589862,8,2,10,,,,,,,,4,08,,,,,,,,,,,,,1,2.259,0,,,,,,-0.333333333,-0.252777778,1,0,0,2.2587,Andesite_rect,9,0,9,0,1,
5b22d2c260c40e000103b157,SCR,2024-06-25_13h13.24.180,LearnStrategy,2023.2.3,Win32,9.216589862,8,2,11,,,,,,,,1,04,,,,,,,,,,,,,4,2.911,0,,,,,,0.410416667,-0.247222222,1,0,0,2.9111,Gabbro_rect,10,0,10,0,1,
5b22d2c260c40e000103b157,SCR,2024-06-25_13h13.24.180,LearnStrategy,2023.2.3,Win32,9.216589862,8,2,12,,,,,,,,7,13,,,,,,,,,,,,,2,4.417,0,,,,,,-0.093055556,-0.250694444,1,0,0,4.4171,Basalt_rect,11,0,11,0,1,
5b22d2c260c40e000103b157,SCR,2024-06-25_13h13.24.180,LearnStrategy,2023.2.3,Win32,9.216589862,8,2,13,,,,,,,,3,07,,,,,,,,,,,,,7,6.976,0,,,,,,0.103472222,-0.4,1,0,0,6.9761,Peridotite_rect,12,0,12,0,1,
5b22d2c260c40e000103b157,SCR,2024-06-25_13h13.24.180,LearnStrategy,2023.2.3,Win32,9.216589862,8,2,14,,,,,,,,5,08,,,,,,,,,,,,,5,1.916,1,,,,,,-0.420138889,-0.392361111,1,0,0,1.9161,Obsidian_rect,13,0,13,0,1,
5b22d2c260c40e000103b157,SCR,2024-06-25_13h13.24.180,LearnStrategy,2023.2.3,Win32,9.216589862,8,2,15,,,,,,,,5,14,,,,,,,,,,,,,5,3.723,1,,,,,,-0.377777778,-0.402777778,1,0,0,3.7229,Obsidian_rect,14,0,14,0,1,
5b22d2c260c40e000103b157,SCR,2024-06-25_13h13.24.180,LearnStrategy,2023.2.3,Win32,9.216589862,8,2,16,,,,,,,,3,16,,,,,,,,,,,,,7,3.889,0,,,,,,0.111805556,-0.393055556,1,0,0,3.8894,Peridotite_rect,15,0,15,0,1,
5b22d2c260c40e000103b157,SCR,2024-06-25_13h13.24.180,LearnStrategy,2023.2.3,Win32,9.216589862,9,1,1,-0.065277778,0.067361111,1,0,0,4.3766,Basalt_06,2,06,4,4,4.377,2,10,-0.09375,-0.258333333,1,0,0,2.1837,Basalt_rect,2,2.184,1,0,0,0,0,1,,,,,,,,,,,,,
5b22d2c260c40e000103b157,SCR,2024-06-25_13h13.24.180,LearnStrategy,2023.2.3,Win32,9.216589862,9,1,2,0.088888889,0.100694444,1,0,0,1.5848,Diorite_13,3,13,4,5,1.585,1,07,0.1625,-0.248611111,1,0,0,2.8013,Diorite_rect,3,2.801,1,1,0,1,0,1,,,,,,,,,,,,,
5b22d2c260c40e000103b157,SCR,2024-06-25_13h13.24.180,LearnStrategy,2023.2.3,Win32,9.216589862,9,1,3,0.245833333,0.081944444,1,0,0,1.4685,Peridotite_07,7,07,4,6,1.468,6,10,0.371527778,-0.259722222,1,0,0,1.8244,Gabbro_rect,4,1.824,0,2,0,2,0,1,,,,,,,,,,,,,
5b22d2c260c40e000103b157,SCR,2024-06-25_13h13.24.180,LearnStrategy,2023.2.3,Win32,9.216589862,9,1,4,0.263194444,0.09375,1,0,0,3.3328,Peridotite_07,7,07,4,6,3.333,2,01,0.140277778,-0.257638889,1,0,0,1.4304,Diorite_rect,3,1.43,0,3,0,3,0,1,,,,,,,,,,,,,
5b22d2c260c40e000103b157,SCR,2024-06-25_13h13.24.180,LearnStrategy,2023.2.3,Win32,9.216589862,9,1,5,0.086111111,-0.113194444,1,0,0,2.8684,Diorite_06,3,06,3,5,2.868,1,14,-0.399305556,-0.263194444,1,0,0,3.3223,Andesite_rect,1,3.322,0,4,0,4,0,1,,,,,,,,,,,,,
5b22d2c260c40e000103b157,SCR,2024-06-25_13h13.24.180,LearnStrategy,2023.2.3,Win32,9.216589862,9,1,6,-0.234722222,-0.270138889,1,0,0,3.3413,Gabbro_13,4,13,2,3,3.341,3,12,0.386111111,-0.244444444,1,0,0,2.412,Gabbro_rect,4,2.412,1,5,0,5,0,1,,,,,,,,,,,,,
5b22d2c260c40e000103b157,SCR,2024-06-25_13h13.24.180,LearnStrategy,2023.2.3,Win32,9.216589862,9,1,7,0.088194444,-0.420833333,1,0,0,2.0636,Pumice_06,8,06,1,5,2.064,4,09,0.383333333,-0.404861111,1,0,0,1.3013,Pumice_rect,8,1.301,1,6,0,6,0,1,,,,,,,,,,,,,
5b22d2c260c40e000103b157,SCR,2024-06-25_13h13.24.180,LearnStrategy,2023.2.3,Win32,9.216589862,9,1,8,0.236111111,-0.402777778,1,0,0,1.6208,Basalt_16,2,16,1,6,1.621,1,03,0.392361111,-0.245138889,1,0,0,3.337,Gabbro_rect,4,3.337,0,7,0,7,0,1,,,,,,,,,,,,,
5b22d2c260c40e000103b157,SCR,2024-06-25_13h13.24.180,LearnStrategy,2023.2.3,Win32,9.216589862,9,1,9,0.247222222,-0.4,1,0,0,1.3172,Basalt_16,2,16,1,6,1.317,7,08,-0.093055556,-0.247916667,1,0,0,2.1845,Basalt_rect,2,2.184,1,8,0,8,0,1,,,,,,,,,,,,,
5b22d2c260c40e000103b157,SCR,2024-06-25_13h13.24.180,LearnStrategy,2023.2.3,Win32,9.216589862,9,1,10,0.229166667,0.102083333,1,0,0,2.8651,Peridotite_07,7,07,4,6,2.865,2,01,0.085416667,-0.250694444,1,0,0,2.7052,Diorite_rect,3,2.705,0,9,0,9,0,1,,,,,,,,,,,,,
5b22d2c260c40e000103b157,SCR,2024-06-25_13h13.24.180,LearnStrategy,2023.2.3,Win32,9.216589862,9,1,11,0.248611111,0.094444444,1,0,0,2.1803,Peridotite_07,7,07,4,6,2.18,3,12,0.138888889,-0.388194444,1,0,0,1.6605,Peridotite_rect,7,1.66,1,10,0,10,0,1,,,,,,,,,,,,,
5b22d2c260c40e000103b157,SCR,2024-06-25_13h13.24.180,LearnStrategy,2023.2.3,Win32,9.216589862,9,1,12,-0.540277778,0.095138889,1,0,0,2.6344,Diorite_12,3,12,4,1,2.634,7,15,-0.129166667,-0.401388889,1,0,0,2.741,Pegmatite_rect,6,2.741,0,11,0,11,0,1,,,,,,,,,,,,,
5b22d2c260c40e000103b157,SCR,2024-06-25_13h13.24.180,LearnStrategy,2023.2.3,Win32,9.216589862,9,1,13,0.241666667,-0.256944444,1,0,0,2.3407,Pegmatite_13,6,13,2,6,2.341,6,07,0.152083333,-0.247916667,1,0,0,3.273,Diorite_rect,3,3.273,0,12,0,12,0,1,,,,,,,,,,,,,
5b22d2c260c40e000103b157,SCR,2024-06-25_13h13.24.180,LearnStrategy,2023.2.3,Win32,9.216589862,9,1,14,0.254861111,-0.250694444,1,0,0,3.495,Pegmatite_13,6,13,2,6,3.495,7,15,-0.101388889,-0.407638889,1,0,0,1.5712,Pegmatite_rect,6,1.571,1,13,0,13,0,1,,,,,,,,,,,,,
5b22d2c260c40e000103b157,SCR,2024-06-25_13h13.24.180,LearnStrategy,2023.2.3,Win32,9.216589862,9,1,15,0.377777778,-0.1,1,0,0,10.9776,Peridotite_15,7,15,3,7,10.978,4,10,0.361111111,-0.236111111,1,0,0,1.7588,Gabbro_rect,4,1.759,0,14,0,14,0,1,,,,,,,,,,,,,
5b22d2c260c40e000103b157,SCR,2024-06-25_13h13.24.180,LearnStrategy,2023.2.3,Win32,9.216589862,9,1,16,0.399305556,-0.103472222,1,0,0,2.3214,Peridotite_15,7,15,3,7,2.321,8,13,0.127777778,-0.251388889,1,0,0,2.0258,Diorite_rect,3,2.026,0,15,0,15,0,1,,,,,,,,,,,,,
5b22d2c260c40e000103b157,SCR,2024-06-25_13h13.24.180,LearnStrategy,2023.2.3,Win32,9.216589862,9,2,1,,,,,,,,5,09,,,,,,,,,,,,,5,2.318,1,,,,,,-0.378472222,-0.399305556,1,0,0,2.3176,Obsidian_rect,0,0,0,0,1,
5b22d2c260c40e000103b157,SCR,2024-06-25_13h13.24.180,LearnStrategy,2023.2.3,Win32,9.216589862,9,2,2,,,,,,,,2,14,,,,,,,,,,,,,4,1.997,0,,,,,,0.384722222,-0.263194444,1,0,0,1.9972,Gabbro_rect,1,0,1,0,1,
5b22d2c260c40e000103b157,SCR,2024-06-25_13h13.24.180,LearnStrategy,2023.2.3,Win32,9.216589862,9,2,3,,,,,,,,8,15,,,,,,,,,,,,,8,1.674,1,,,,,,0.377083333,-0.409027778,1,0,0,1.6744,Pumice_rect,2,0,2,0,1,
5b22d2c260c40e000103b157,SCR,2024-06-25_13h13.24.180,LearnStrategy,2023.2.3,Win32,9.216589862,9,2,4,,,,,,,,4,12,,,,,,,,,,,,,3,2.038,0,,,,,,0.091666667,-0.254861111,1,0,0,2.0378,Diorite_rect,3,0,3,0,1,
5b22d2c260c40e000103b157,SCR,2024-06-25_13h13.24.180,LearnStrategy,2023.2.3,Win32,9.216589862,9,2,5,,,,,,,,7,04,,,,,,,,,,,,,1,4.895,0,,,,,,-0.380555556,-0.256944444,1,0,0,4.8952,Andesite_rect,4,0,4,0,1,
5b22d2c260c40e000103b157,SCR,2024-06-25_13h13.24.180,LearnStrategy,2023.2.3,Win32,9.216589862,9,2,6,,,,,,,,1,09,,,,,,,,,,,,,1,4.606,1,,,,,,-0.353472222,-0.252083333,1,0,0,4.6056,Andesite_rect,5,0,5,0,1,
5b22d2c260c40e000103b157,SCR,2024-06-25_13h13.24.180,LearnStrategy,2023.2.3,Win32,9.216589862,9,2,7,,,,,,,,4,14,,,,,,,,,,,,,3,2.242,0,,,,,,0.161805556,-0.252777778,1,0,0,2.2423,Diorite_rect,6,0,6,0,1,
5b22d2c260c40e000103b157,SCR,2024-06-25_13h13.24.180,LearnStrategy,2023.2.3,Win32,9.216589862,9,2,8,,,,,,,,3,09,,,,,,,,,,,,,5,3.133,0,,,,,,-0.366666667,-0.408333333,1,0,0,3.1328,Obsidian_rect,7,0,7,0,1,
5b22d2c260c40e000103b157,SCR,2024-06-25_13h13.24.180,LearnStrategy,2023.2.3,Win32,9.216589862,9,2,9,,,,,,,,1,02,,,,,,,,,,,,,2,2.399,0,,,,,,-0.093055556,-0.246527778,1,0,0,2.3987,Basalt_rect,8,0,8,0,1,
5b22d2c260c40e000103b157,SCR,2024-06-25_13h13.24.180,LearnStrategy,2023.2.3,Win32,9.216589862,9,2,10,,,,,,,,7,14,,,,,,,,,,,,,6,2.544,0,,,,,,-0.127777778,-0.408333333,1,0,0,2.5436,Pegmatite_rect,9,0,9,0,1,
5b22d2c260c40e000103b157,SCR,2024-06-25_13h13.24.180,LearnStrategy,2023.2.3,Win32,9.216589862,9,2,11,,,,,,,,5,02,,,,,,,,,,,,,5,1.604,1,,,,,,-0.397916667,-0.394444444,1,0,0,1.6037,Obsidian_rect,10,0,10,0,1,
5b22d2c260c40e000103b157,SCR,2024-06-25_13h13.24.180,LearnStrategy,2023.2.3,Win32,9.216589862,9,2,12,,,,,,,,6,03,,,,,,,,,,,,,7,3.696,0,,,,,,0.110416667,-0.403472222,1,0,0,3.6962,Peridotite_rect,11,0,11,0,1,
5b22d2c260c40e000103b157,SCR,2024-06-25_13h13.24.180,LearnStrategy,2023.2.3,Win32,9.216589862,9,2,13,,,,,,,,3,02,,,,,,,,,,,,,2,3.604,0,,,,,,-0.095138889,-0.251388889,1,0,0,3.6044,Basalt_rect,12,0,12,0,1,
5b22d2c260c40e000103b157,SCR,2024-06-25_13h13.24.180,LearnStrategy,2023.2.3,Win32,9.216589862,9,2,14,,,,,,,,8,02,,,,,,,,,,,,,8,2.072,1,,,,,,0.391666667,-0.411111111,1,0,0,2.072,Pumice_rect,13,0,13,0,1,
5b22d2c260c40e000103b157,SCR,2024-06-25_13h13.24.180,LearnStrategy,2023.2.3,Win32,9.216589862,9,2,15,,,,,,,,6,16,,,,,,,,,,,,,7,4.523,0,,,,,,0.11875,-0.39375,1,0,0,4.5234,Peridotite_rect,14,0,14,0,1,
5b22d2c260c40e000103b157,SCR,2024-06-25_13h13.24.180,LearnStrategy,2023.2.3,Win32,9.216589862,9,2,16,,,,,,,,2,08,,,,,,,,,,,,,1,7.749,0,,,,,,-0.369444444,-0.252083333,1,0,0,7.7488,Andesite_rect,15,0,15,0,1,
5b22d2c260c40e000103b157,SCR,2024-06-25_13h13.24.180,LearnStrategy,2023.2.3,Win32,9.216589862,,,,,,,,,,,,,,,,,,,,,,,,,,,,,,,,,,,,,,,,,,,,,0
5b22d2c260c40e000103b157,SCR,2024-06-25_13h13.24.180,LearnStrategy,2023.2.3,Win32,9.216589862,,,,,,,,,,,,,,,,,,,,,,,,,,,,,,,,,,,,,,,,,,,,,
5b22d2c260c40e000103b157,SCR,2024-06-25_13h13.24.180,LearnStrategy,2023.2.3,Win32,9.216589862,,,,,,,,,,,6,08,1,1,,,,,,,,,,,,,,,,,,,,,,,,,,,,,,,
5b22d2c260c40e000103b157,SCR,2024-06-25_13h13.24.180,LearnStrategy,2023.2.3,Win32,9.216589862,,,,,,,,,,,5,06,1,2,,,,,,,,,,,,,,,,,,,,,,,,,,,,,,,
5b22d2c260c40e000103b157,SCR,2024-06-25_13h13.24.180,LearnStrategy,2023.2.3,Win32,9.216589862,,,,,,,,,,,3,11,1,3,,,,,,,,,,,,,,,,,,,,,,,,,,,,,,,
5b22d2c260c40e000103b157,SCR,2024-06-25_13h13.24.180,LearnStrategy,2023.2.3,Win32,9.216589862,,,,,,,,,,,1,16,1,4,,,,,,,,,,,,,,,,,,,,,,,,,,,,,,,
5b22d2c260c40e000103b157,SCR,2024-06-25_13h13.24.180,LearnStrategy,2023.2.3,Win32,9.216589862,,,,,,,,,,,8,06,1,5,,,,,,,,,,,,,,,,,,,,,,,,,,,,,,,
5b22d2c260c40e000103b157,SCR,2024-06-25_13h13.24.180,LearnStrategy,2023.2.3,Win32,9.216589862,,,,,,,,,,,2,16,1,6,,,,,,,,,,,,,,,,,,,,,,,,,,,,,,,
5b22d2c260c40e000103b157,SCR,2024-06-25_13h13.24.180,LearnStrategy,2023.2.3,Win32,9.216589862,,,,,,,,,,,7,16,1,7,,,,,,,,,,,,,,,,,,,,,,,,,,,,,,,
5b22d2c260c40e000103b157,SCR,2024-06-25_13h13.24.180,LearnStrategy,2023.2.3,Win32,9.216589862,,,,,,,,,,,6,07,1,8,,,,,,,,,,,,,,,,,,,,,,,,,,,,,,,
5b22d2c260c40e000103b157,SCR,2024-06-25_13h13.24.180,LearnStrategy,2023.2.3,Win32,9.216589862,,,,,,,,,,,3,14,2,1,,,,,,,,,,,,,,,,,,,,,,,,,,,,,,,
5b22d2c260c40e000103b157,SCR,2024-06-25_13h13.24.180,LearnStrategy,2023.2.3,Win32,9.216589862,,,,,,,,,,,7,06,2,2,,,,,,,,,,,,,,,,,,,,,,,,,,,,,,,
5b22d2c260c40e000103b157,SCR,2024-06-25_13h13.24.180,LearnStrategy,2023.2.3,Win32,9.216589862,,,,,,,,,,,4,13,2,3,,,,,,,,,,,,,,,,,,,,,,,,,,,,,,,
5b22d2c260c40e000103b157,SCR,2024-06-25_13h13.24.180,LearnStrategy,2023.2.3,Win32,9.216589862,,,,,,,,,,,8,09,2,4,,,,,,,,,,,,,,,,,,,,,,,,,,,,,,,
5b22d2c260c40e000103b157,SCR,2024-06-25_13h13.24.180,LearnStrategy,2023.2.3,Win32,9.216589862,,,,,,,,,,,8,08,2,5,,,,,,,,,,,,,,,,,,,,,,,,,,,,,,,
5b22d2c260c40e000103b157,SCR,2024-06-25_13h13.24.180,LearnStrategy,2023.2.3,Win32,9.216589862,,,,,,,,,,,6,13,2,6,,,,,,,,,,,,,,,,,,,,,,,,,,,,,,,
5b22d2c260c40e000103b157,SCR,2024-06-25_13h13.24.180,LearnStrategy,2023.2.3,Win32,9.216589862,,,,,,,,,,,6,10,2,7,,,,,,,,,,,,,,,,,,,,,,,,,,,,,,,
5b22d2c260c40e000103b157,SCR,2024-06-25_13h13.24.180,LearnStrategy,2023.2.3,Win32,9.216589862,,,,,,,,,,,8,03,2,8,,,,,,,,,,,,,,,,,,,,,,,,,,,,,,,
5b22d2c260c40e000103b157,SCR,2024-06-25_13h13.24.180,LearnStrategy,2023.2.3,Win32,9.216589862,,,,,,,,,,,4,03,3,1,,,,,,,,,,,,,,,,,,,,,,,,,,,,,,,
5b22d2c260c40e000103b157,SCR,2024-06-25_13h13.24.180,LearnStrategy,2023.2.3,Win32,9.216589862,,,,,,,,,,,6,11,3,2,,,,,,,,,,,,,,,,,,,,,,,,,,,,,,,
5b22d2c260c40e000103b157,SCR,2024-06-25_13h13.24.180,LearnStrategy,2023.2.3,Win32,9.216589862,,,,,,,,,,,2,02,3,3,,,,,,,,,,,,,,,,,,,,,,,,,,,,,,,
5b22d2c260c40e000103b157,SCR,2024-06-25_13h13.24.180,LearnStrategy,2023.2.3,Win32,9.216589862,,,,,,,,,,,5,04,3,4,,,,,,,,,,,,,,,,,,,,,,,,,,,,,,,
5b22d2c260c40e000103b157,SCR,2024-06-25_13h13.24.180,LearnStrategy,2023.2.3,Win32,9.216589862,,,,,,,,,,,3,06,3,5,,,,,,,,,,,,,,,,,,,,,,,,,,,,,,,
5b22d2c260c40e000103b157,SCR,2024-06-25_13h13.24.180,LearnStrategy,2023.2.3,Win32,9.216589862,,,,,,,,,,,1,07,3,6,,,,,,,,,,,,,,,,,,,,,,,,,,,,,,,
5b22d2c260c40e000103b157,SCR,2024-06-25_13h13.24.180,LearnStrategy,2023.2.3,Win32,9.216589862,,,,,,,,,,,7,15,3,7,,,,,,,,,,,,,,,,,,,,,,,,,,,,,,,
5b22d2c260c40e000103b157,SCR,2024-06-25_13h13.24.180,LearnStrategy,2023.2.3,Win32,9.216589862,,,,,,,,,,,8,04,3,8,,,,,,,,,,,,,,,,,,,,,,,,,,,,,,,
5b22d2c260c40e000103b157,SCR,2024-06-25_13h13.24.180,LearnStrategy,2023.2.3,Win32,9.216589862,,,,,,,,,,,3,12,4,1,,,,,,,,,,,,,,,,,,,,,,,,,,,,,,,
5b22d2c260c40e000103b157,SCR,2024-06-25_13h13.24.180,LearnStrategy,2023.2.3,Win32,9.216589862,,,,,,,,,,,4,16,4,2,,,,,,,,,,,,,,,,,,,,,,,,,,,,,,,
5b22d2c260c40e000103b157,SCR,2024-06-25_13h13.24.180,LearnStrategy,2023.2.3,Win32,9.216589862,,,,,,,,,,,5,16,4,3,,,,,,,,,,,,,,,,,,,,,,,,,,,,,,,
5b22d2c260c40e000103b157,SCR,2024-06-25_13h13.24.180,LearnStrategy,2023.2.3,Win32,9.216589862,,,,,,,,,,,2,06,4,4,,,,,,,,,,,,,,,,,,,,,,,,,,,,,,,
5b22d2c260c40e000103b157,SCR,2024-06-25_13h13.24.180,LearnStrategy,2023.2.3,Win32,9.216589862,,,,,,,,,,,3,13,4,5,,,,,,,,,,,,,,,,,,,,,,,,,,,,,,,
5b22d2c260c40e000103b157,SCR,2024-06-25_13h13.24.180,LearnStrategy,2023.2.3,Win32,9.216589862,,,,,,,,,,,7,07,4,6,,,,,,,,,,,,,,,,,,,,,,,,,,,,,,,
5b22d2c260c40e000103b157,SCR,2024-06-25_13h13.24.180,LearnStrategy,2023.2.3,Win32,9.216589862,,,,,,,,,,,5,11,4,7,,,,,,,,,,,,,,,,,,,,,,,,,,,,,,,
5b22d2c260c40e000103b157,SCR,2024-06-25_13h13.24.180,LearnStrategy,2023.2.3,Win32,9.216589862,,,,,,,,,,,4,10,4,8,,,,,,,,,,,,,,,,,,,,,,,,,,,,,,,
5b22d2c260c40e000103b157,SCR,2024-06-25_13h13.24.180,LearnStrategy,2023.2.3,Win32,9.216589862,,,,,,,,,,,4,09,5,1,,,,,,,,,,,,,,,,,,,,,,,,,,,,,,,
5b22d2c260c40e000103b157,SCR,2024-06-25_13h13.24.180,LearnStrategy,2023.2.3,Win32,9.216589862,,,,,,,,,,,6,06,5,2,,,,,,,,,,,,,,,,,,,,,,,,,,,,,,,
5b22d2c260c40e000103b157,SCR,2024-06-25_13h13.24.180,LearnStrategy,2023.2.3,Win32,9.216589862,,,,,,,,,,,5,12,5,3,,,,,,,,,,,,,,,,,,,,,,,,,,,,,,,
5b22d2c260c40e000103b157,SCR,2024-06-25_13h13.24.180,LearnStrategy,2023.2.3,Win32,9.216589862,,,,,,,,,,,2,10,5,4,,,,,,,,,,,,,,,,,,,,,,,,,,,,,,,
5b22d2c260c40e000103b157,SCR,2024-06-25_13h13.24.180,LearnStrategy,2023.2.3,Win32,9.216589862,,,,,,,,,,,3,15,5,5,,,,,,,,,,,,,,,,,,,,,,,,,,,,,,,
5b22d2c260c40e000103b157,SCR,2024-06-25_13h13.24.180,LearnStrategy,2023.2.3,Win32,9.216589862,,,,,,,,,,,2,11,5,6,,,,,,,,,,,,,,,,,,,,,,,,,,,,,,,
5b22d2c260c40e000103b157,SCR,2024-06-25_13h13.24.180,LearnStrategy,2023.2.3,Win32,9.216589862,,,,,,,,,,,1,01,5,7,,,,,,,,,,,,,,,,,,,,,,,,,,,,,,,
5b22d2c260c40e000103b157,SCR,2024-06-25_13h13.24.180,LearnStrategy,2023.2.3,Win32,9.216589862,,,,,,,,,,,2,01,5,8,,,,,,,,,,,,,,,,,,,,,,,,,,,,,,,
5b22d2c260c40e000103b157,SCR,2024-06-25_13h13.24.180,LearnStrategy,2023.2.3,Win32,9.216589862,,,,,,,,,,,5,07,6,1,,,,,,,,,,,,,,,,,,,,,,,,,,,,,,,
5b22d2c260c40e000103b157,SCR,2024-06-25_13h13.24.180,LearnStrategy,2023.2.3,Win32,9.216589862,,,,,,,,,,,1,14,6,2,,,,,,,,,,,,,,,,,,,,,,,,,,,,,,,
5b22d2c260c40e000103b157,SCR,2024-06-25_13h13.24.180,LearnStrategy,2023.2.3,Win32,9.216589862,,,,,,,,,,,7,08,6,3,,,,,,,,,,,,,,,,,,,,,,,,,,,,,,,
5b22d2c260c40e000103b157,SCR,2024-06-25_13h13.24.180,LearnStrategy,2023.2.3,Win32,9.216589862,,,,,,,,,,,1,10,6,4,,,,,,,,,,,,,,,,,,,,,,,,,,,,,,,
5b22d2c260c40e000103b157,SCR,2024-06-25_13h13.24.180,LearnStrategy,2023.2.3,Win32,9.216589862,,,,,,,,,,,8,13,6,5,,,,,,,,,,,,,,,,,,,,,,,,,,,,,,,
5b22d2c260c40e000103b157,SCR,2024-06-25_13h13.24.180,LearnStrategy,2023.2.3,Win32,9.216589862,,,,,,,,,,,4,15,6,6,,,,,,,,,,,,,,,,,,,,,,,,,,,,,,,
5b22d2c260c40e000103b157,SCR,2024-06-25_13h13.24.180,LearnStrategy,2023.2.3,Win32,9.216589862,,,,,,,,,,,1,03,6,7,,,,,,,,,,,,,,,,,,,,,,,,,,,,,,,
5b22d2c260c40e000103b157,SCR,2024-06-25_13h13.24.180,LearnStrategy,2023.2.3,Win32,9.216589862,,,,,,,,,,,7,02,6,8,,,,,,,,,,,,,,,,,,,,,,,,,,,,,,,