participant,condition,date,expName,psychopyVersion,OS,frameRate,block,phase,trial,learn_mouse.x,learn_mouse.y,learn_mouse.leftButton,learn_mouse.midButton,learn_mouse.rightButton,learn_mouse.time,learn_mouse.clicked_name,cat,token,row,col,t_select,cat_mouse_l.x,cat_mouse_l.y,cat_mouse_l.leftButton,cat_mouse_l.midButton,cat_mouse_l.rightButton,cat_mouse_l.time,cat_mouse_l.clicked_name,resp,t_resp,corr,train_trials.thisRepN,train_trials.thisTrialN,train_trials.thisN,train_trials.thisIndex,train_trials.ran,cat_mouse_t.x,cat_mouse_t.y,cat_mouse_t.leftButton,cat_mouse_t.midButton,cat_mouse_t.rightButton,cat_mouse_t.time,cat_mouse_t.clicked_name,test_trials.thisRepN,test_trials.thisTrialN,test_trials.thisN,test_trials.thisIndex,test_trials.ran,Bonus
5bf311373a5bf00001401f64,SCN,2024-06-26_12h34.48.885,LearnStrategy,2023.2.3,Win32,60.60606061,,,,,,,,,,,,,,,,,,,,,,,,,,,,,,,,,,,,,,,,,,,
5bf311373a5bf00001401f64,SCN,2024-06-26_12h34.48.885,LearnStrategy,2023.2.3,Win32,60.60606061,1,1,1,-0.064814815,0.073148127,1,0,0,5.4856,Peridotite_13,7,13,4,4,5.486,-0.385185171,-0.260185171,1,0,0,9.2196,Andesite_rect,1,9.22,0,0,0,0,0,1,,,,,,,,,,,,,
5bf311373a5bf00001401f64,SCN,2024-06-26_12h34.48.885,LearnStrategy,2023.2.3,Win32,60.60606061,1,1,2,-0.205555527,-0.422222208,1,0,0,12.3132,Gabbro_03,4,03,1,3,12.313,0.10092594,-0.391666695,1,0,0,2.6936,Peridotite_rect,7,2.694,0,1,0,1,0,1,,,,,,,,,,,,,
5bf311373a5bf00001401f64,SCN,2024-06-26_12h34.48.885,LearnStrategy,2023.2.3,Win32,60.60606061,1,1,3,0.215740769,-0.112037023,1,0,0,5.6721,Peridotite_14,7,14,3,6,5.672,0.093518504,-0.393518519,1,0,0,1.4126,Peridotite_rect,7,1.413,1,2,0,2,0,1,,,,,,,,,,,,,
5bf311373a5bf00001401f64,SCN,2024-06-26_12h34.48.885,LearnStrategy,2023.2.3,Win32,60.60606061,1,1,4,-0.39444443,0.397222219,1,0,0,6.7553,Pumice_13,8,13,6,2,6.755,0.087037051,-0.410185213,1,0,0,1.3506,Peridotite_rect,7,1.351,0,3,0,3,0,1,,,,,,,,,,,,,
5bf311373a5bf00001401f64,SCN,2024-06-26_12h34.48.885,LearnStrategy,2023.2.3,Win32,60.60606061,1,1,5,0.377777806,0.402777778,1,0,0,5.6382,Pumice_04,8,04,6,7,5.638,0.384259259,-0.420370384,1,0,0,2.4956,Pumice_rect,8,2.496,1,4,0,4,0,1,,,,,,,,,,,,,
5bf311373a5bf00001401f64,SCN,2024-06-26_12h34.48.885,LearnStrategy,2023.2.3,Win32,60.60606061,1,1,6,0.530555584,0.388888889,1,0,0,5.4084,Obsidian_12,5,12,6,8,5.408,-0.152777778,-0.268518519,1,0,0,3.9196,Basalt_rect,2,3.92,0,5,0,5,0,1,,,,,,,,,,,,,
5bf311373a5bf00001401f64,SCN,2024-06-26_12h34.48.885,LearnStrategy,2023.2.3,Win32,60.60606061,1,1,7,0.402777778,0.249074071,1,0,0,1.78,Obsidian_02,5,02,5,7,1.78,-0.389814801,-0.412962949,1,0,0,1.178,Obsidian_rect,5,1.178,1,6,0,6,0,1,,,,,,,,,,,,,
5bf311373a5bf00001401f64,SCN,2024-06-26_12h34.48.885,LearnStrategy,2023.2.3,Win32,60.60606061,1,1,8,-0.051851838,0.226851852,1,0,0,1.7157,Obsidian_11,5,11,5,4,1.716,-0.39444443,-0.418518561,1,0,0,1.4807,Obsidian_rect,5,1.481,1,7,0,7,0,1,,,,,,,,,,,,,
5bf311373a5bf00001401f64,SCN,2024-06-26_12h34.48.885,LearnStrategy,2023.2.3,Win32,60.60606061,1,1,9,-0.084259245,0.38981481,1,0,0,2.7643,Obsidian_16,5,16,6,4,2.764,-0.3824074,-0.401851866,1,0,0,1.0427,Obsidian_rect,5,1.043,1,8,0,8,0,1,,,,,,,,,,,,,
5bf311373a5bf00001401f64,SCN,2024-06-26_12h34.48.885,LearnStrategy,2023.2.3,Win32,60.60606061,1,1,10,0.402777778,-0.082407422,1,0,0,3.7955,Obsidian_04,5,04,3,7,3.795,-0.368518511,-0.387962977,1,0,0,1.7048,Obsidian_rect,5,1.705,1,9,0,9,0,1,,,,,,,,,,,,,
5bf311373a5bf00001401f64,SCN,2024-06-26_12h34.48.885,LearnStrategy,2023.2.3,Win32,60.60606061,1,1,11,0.380555612,0.097222222,1,0,0,8.1883,Obsidian_10,5,10,4,7,8.188,-0.423148155,-0.420370384,1,0,0,1.1422,Obsidian_rect,5,1.142,1,10,0,10,0,1,,,,,,,,,,,,,
5bf311373a5bf00001401f64,SCN,2024-06-26_12h34.48.885,LearnStrategy,2023.2.3,Win32,60.60606061,1,1,12,-0.525000007,0.399074069,1,0,0,3.7476,Pegmatite_10,6,10,6,1,3.748,0.171296296,-0.408333319,1,0,0,4.1766,Peridotite_rect,7,4.177,0,11,0,11,0,1,,,,,,,,,,,,,
5bf311373a5bf00001401f64,SCN,2024-06-26_12h34.48.885,LearnStrategy,2023.2.3,Win32,60.60606061,1,1,13,-0.400000007,0.416666667,1,0,0,3.505,Pumice_13,8,13,6,2,3.505,0.375,-0.405555584,1,0,0,6.7952,Pumice_rect,8,6.795,1,12,0,12,0,1,,,,,,,,,,,,,
5bf311373a5bf00001401f64,SCN,2024-06-26_12h34.48.885,LearnStrategy,2023.2.3,Win32,60.60606061,1,1,14,-0.39907406,-0.10092594,1,0,0,14.0614,Pegmatite_03,6,03,3,2,14.061,-0.101851852,-0.40370369,1,0,0,4.3722,Pegmatite_rect,6,4.372,1,13,0,13,0,1,,,,,,,,,,,,,
5bf311373a5bf00001401f64,SCN,2024-06-26_12h34.48.885,LearnStrategy,2023.2.3,Win32,60.60606061,1,1,15,-0.517592571,-0.103703746,1,0,0,2.1794,Pegmatite_12,6,12,3,1,2.179,-0.171296296,-0.393518519,1,0,0,2.624,Pegmatite_rect,6,2.624,1,14,0,14,0,1,,,,,,,,,,,,,
5bf311373a5bf00001401f64,SCN,2024-06-26_12h34.48.885,LearnStrategy,2023.2.3,Win32,60.60606061,1,1,16,0.508333418,-0.267592607,1,0,0,2.6307,Pegmatite_15,6,15,2,8,2.631,-0.161111125,-0.393518519,1,0,0,1.6686,Pegmatite_rect,6,1.669,1,15,0,15,0,1,,,,,,,,,,,,,
5bf311373a5bf00001401f64,SCN,2024-06-26_12h34.48.885,LearnStrategy,2023.2.3,Win32,60.60606061,1,2,1,,,,,,,,6,08,,,,,,,,,,,6,2.76,1,,,,,,-0.102777764,-0.416666667,1,0,0,2.76,Pegmatite_rect,0,0,0,0,1,
5bf311373a5bf00001401f64,SCN,2024-06-26_12h34.48.885,LearnStrategy,2023.2.3,Win32,60.60606061,1,2,2,,,,,,,,4,10,,,,,,,,,,,8,5.117,0,,,,,,0.386111083,-0.406481496,1,0,0,5.1169,Pumice_rect,1,0,1,0,1,
5bf311373a5bf00001401f64,SCN,2024-06-26_12h34.48.885,LearnStrategy,2023.2.3,Win32,60.60606061,1,2,3,,,,,,,,2,12,,,,,,,,,,,8,1.212,0,,,,,,0.390740712,-0.406481496,1,0,0,1.2115,Pumice_rect,2,0,2,0,1,
5bf311373a5bf00001401f64,SCN,2024-06-26_12h34.48.885,LearnStrategy,2023.2.3,Win32,60.60606061,1,2,4,,,,,,,,6,07,,,,,,,,,,,6,2.889,1,,,,,,-0.102777764,-0.415740755,1,0,0,2.8895,Pegmatite_rect,3,0,3,0,1,
5bf311373a5bf00001401f64,SCN,2024-06-26_12h34.48.885,LearnStrategy,2023.2.3,Win32,60.60606061,1,2,5,,,,,,,,2,11,,,,,,,,,,,8,1.751,0,,,,,,0.32685188,-0.400925954,1,0,0,1.7506,Pumice_rect,4,0,4,0,1,
5bf311373a5bf00001401f64,SCN,2024-06-26_12h34.48.885,LearnStrategy,2023.2.3,Win32,60.60606061,1,2,6,,,,,,,,8,16,,,,,,,,,,,8,0.916,1,,,,,,0.327777863,-0.400925954,1,0,0,0.9164,Pumice_rect,5,0,5,0,1,
5bf311373a5bf00001401f64,SCN,2024-06-26_12h34.48.885,LearnStrategy,2023.2.3,Win32,60.60606061,1,2,7,,,,,,,,7,04,,,,,,,,,,,1,9.473,0,,,,,,-0.373148141,-0.260185171,1,0,0,9.4727,Andesite_rect,6,0,6,0,1,
5bf311373a5bf00001401f64,SCN,2024-06-26_12h34.48.885,LearnStrategy,2023.2.3,Win32,60.60606061,1,2,8,,,,,,,,3,14,,,,,,,,,,,6,3.465,0,,,,,,-0.125,-0.387962977,1,0,0,3.4648,Pegmatite_rect,7,0,7,0,1,
5bf311373a5bf00001401f64,SCN,2024-06-26_12h34.48.885,LearnStrategy,2023.2.3,Win32,60.60606061,1,2,9,,,,,,,,7,10,,,,,,,,,,,6,1.398,0,,,,,,-0.124074088,-0.392592607,1,0,0,1.3979,Pegmatite_rect,8,0,8,0,1,
5bf311373a5bf00001401f64,SCN,2024-06-26_12h34.48.885,LearnStrategy,2023.2.3,Win32,60.60606061,1,2,10,,,,,,,,1,16,,,,,,,,,,,6,1.223,0,,,,,,-0.107407393,-0.388888889,1,0,0,1.2227,Pegmatite_rect,9,0,9,0,1,
5bf311373a5bf00001401f64,SCN,2024-06-26_12h34.48.885,LearnStrategy,2023.2.3,Win32,60.60606061,1,2,11,,,,,,,,1,07,,,,,,,,,,,2,1.894,0,,,,,,-0.092592593,-0.268518519,1,0,0,1.8935,Basalt_rect,10,0,10,0,1,
5bf311373a5bf00001401f64,SCN,2024-06-26_12h34.48.885,LearnStrategy,2023.2.3,Win32,60.60606061,1,2,12,,,,,,,,8,09,,,,,,,,,,,8,1.404,1,,,,,,0.440740797,-0.411111125,1,0,0,1.4045,Pumice_rect,11,0,11,0,1,
5bf311373a5bf00001401f64,SCN,2024-06-26_12h34.48.885,LearnStrategy,2023.2.3,Win32,60.60606061,1,2,13,,,,,,,,5,14,,,,,,,,,,,5,2.034,1,,,,,,-0.327777757,-0.413888931,1,0,0,2.0336,Obsidian_rect,12,0,12,0,1,
5bf311373a5bf00001401f64,SCN,2024-06-26_12h34.48.885,LearnStrategy,2023.2.3,Win32,60.60606061,1,2,14,,,,,,,,4,05,,,,,,,,,,,8,4.265,0,,,,,,0.415740826,-0.386111153,1,0,0,4.2654,Pumice_rect,13,0,13,0,1,
5bf311373a5bf00001401f64,SCN,2024-06-26_12h34.48.885,LearnStrategy,2023.2.3,Win32,60.60606061,1,2,15,,,,,,,,3,12,,,,,,,,,,,6,2.101,0,,,,,,-0.041666667,-0.408333319,1,0,0,2.1008,Pegmatite_rect,14,0,14,0,1,
5bf311373a5bf00001401f64,SCN,2024-06-26_12h34.48.885,LearnStrategy,2023.2.3,Win32,60.60606061,1,2,16,,,,,,,,5,07,,,,,,,,,,,5,1.302,1,,,,,,-0.373148141,-0.404629672,1,0,0,1.3024,Obsidian_rect,15,0,15,0,1,
5bf311373a5bf00001401f64,SCN,2024-06-26_12h34.48.885,LearnStrategy,2023.2.3,Win32,60.60606061,2,1,1,0.220370399,0.236111111,1,0,0,6.4043,Diorite_11,3,11,5,6,6.404,-0.102777764,-0.24537037,1,0,0,2.8818,Basalt_rect,2,2.882,0,0,0,0,0,1,,,,,,,,,,,,,
5bf311373a5bf00001401f64,SCN,2024-06-26_12h34.48.885,LearnStrategy,2023.2.3,Win32,60.60606061,2,1,2,0.246296282,0.099074081,1,0,0,9.9293,Diorite_09,3,09,4,6,9.929,0.112963005,-0.249074088,1,0,0,1.6538,Diorite_rect,3,1.654,1,1,0,1,0,1,,,,,,,,,,,,,
5bf311373a5bf00001401f64,SCN,2024-06-26_12h34.48.885,LearnStrategy,2023.2.3,Win32,60.60606061,2,1,3,0.251851894,0.106481481,1,0,0,4.7569,Diorite_09,3,09,4,6,4.757,0.084259245,-0.260185171,1,0,0,1.4008,Diorite_rect,3,1.401,1,2,0,2,0,1,,,,,,,,,,,,,
5bf311373a5bf00001401f64,SCN,2024-06-26_12h34.48.885,LearnStrategy,2023.2.3,Win32,60.60606061,2,1,4,-0.387962942,0.086111104,1,0,0,7.341,Diorite_10,3,10,4,2,7.341,0.071296339,-0.248148176,1,0,0,1.7948,Diorite_rect,3,1.795,1,3,0,3,0,1,,,,,,,,,,,,,
5bf311373a5bf00001401f64,SCN,2024-06-26_12h34.48.885,LearnStrategy,2023.2.3,Win32,60.60606061,2,1,5,-0.393518519,-0.416666667,1,0,0,12.5299,Diorite_07,3,07,1,2,12.53,0.162962949,-0.249074088,1,0,0,1.732,Diorite_rect,3,1.732,1,4,0,4,0,1,,,,,,,,,,,,,
5bf311373a5bf00001401f64,SCN,2024-06-26_12h34.48.885,LearnStrategy,2023.2.3,Win32,60.60606061,2,1,6,-0.535185178,0.25462963,1,0,0,11.3397,Gabbro_01,4,01,5,1,11.34,-0.137036995,-0.244444459,1,0,0,3.1567,Basalt_rect,2,3.157,0,5,0,5,0,1,,,,,,,,,,,,,
5bf311373a5bf00001401f64,SCN,2024-06-26_12h34.48.885,LearnStrategy,2023.2.3,Win32,60.60606061,2,1,7,0.566666638,0.233333323,1,0,0,6.1318,Pumice_02,8,02,5,8,6.132,0.417592649,-0.244444459,1,0,0,1.804,Gabbro_rect,4,1.804,0,6,0,6,0,1,,,,,,,,,,,,,
5bf311373a5bf00001401f64,SCN,2024-06-26_12h34.48.885,LearnStrategy,2023.2.3,Win32,60.60606061,2,1,8,-0.22592594,0.407407407,1,0,0,3.8887,Basalt_16,2,16,6,3,3.889,0.3648149,-0.232407393,1,0,0,1.6937,Gabbro_rect,4,1.694,0,7,0,7,0,1,,,,,,,,,,,,,
5bf311373a5bf00001401f64,SCN,2024-06-26_12h34.48.885,LearnStrategy,2023.2.3,Win32,60.60606061,2,1,9,0.091666681,0.417592587,1,0,0,4.3479,Diorite_13,3,13,6,5,4.348,0.40833339,-0.400000042,1,0,0,1.5322,Pumice_rect,8,1.532,0,8,0,8,0,1,,,,,,,,,,,,,
5bf311373a5bf00001401f64,SCN,2024-06-26_12h34.48.885,LearnStrategy,2023.2.3,Win32,60.60606061,2,1,10,0.211111139,0.240740741,1,0,0,1.4314,Diorite_11,3,11,5,6,1.431,0.150925954,-0.24537037,1,0,0,1.0127,Diorite_rect,3,1.013,1,9,0,9,0,1,,,,,,,,,,,,,
5bf311373a5bf00001401f64,SCN,2024-06-26_12h34.48.885,LearnStrategy,2023.2.3,Win32,60.60606061,2,1,11,0.077777792,0.392592589,1,0,0,4.4777,Diorite_13,3,13,6,5,4.478,0.145370413,-0.237963005,1,0,0,1.2426,Diorite_rect,3,1.243,1,10,0,10,0,1,,,,,,,,,,,,,
5bf311373a5bf00001401f64,SCN,2024-06-26_12h34.48.885,LearnStrategy,2023.2.3,Win32,60.60606061,2,1,12,0.256481524,0.406481478,1,0,0,2.5791,Andesite_05,1,05,6,6,2.579,0.118518547,-0.256481524,1,0,0,6.0945,Diorite_rect,3,6.095,0,11,0,11,0,1,,,,,,,,,,,,,
5bf311373a5bf00001401f64,SCN,2024-06-26_12h34.48.885,LearnStrategy,2023.2.3,Win32,60.60606061,2,1,13,-0.54074072,0.237037041,1,0,0,4.6632,Gabbro_01,4,01,5,1,4.663,-0.112037023,-0.261111153,1,0,0,3.8493,Basalt_rect,2,3.849,0,12,0,12,0,1,,,,,,,,,,,,,
5bf311373a5bf00001401f64,SCN,2024-06-26_12h34.48.885,LearnStrategy,2023.2.3,Win32,60.60606061,2,1,14,-0.402777778,0.061111097,1,0,0,4.013,Diorite_10,3,10,4,2,4.013,0.142592607,-0.237037023,1,0,0,5.7809,Diorite_rect,3,5.781,1,13,0,13,0,1,,,,,,,,,,,,,
5bf311373a5bf00001401f64,SCN,2024-06-26_12h34.48.885,LearnStrategy,2023.2.3,Win32,60.60606061,2,1,15,0.550000085,0.096296275,1,0,0,1.7244,Basalt_05,2,05,4,8,1.724,-0.126851824,-0.242592635,1,0,0,2.8286,Basalt_rect,2,2.829,1,14,0,14,0,1,,,,,,,,,,,,,
5bf311373a5bf00001401f64,SCN,2024-06-26_12h34.48.885,LearnStrategy,2023.2.3,Win32,60.60606061,2,1,16,0.383333418,-0.414814843,1,0,0,1.2214,Andesite_10,1,10,1,7,1.221,-0.14907406,-0.250925912,1,0,0,4.7892,Basalt_rect,2,4.789,0,15,0,15,0,1,,,,,,,,,,,,,
5bf311373a5bf00001401f64,SCN,2024-06-26_12h34.48.885,LearnStrategy,2023.2.3,Win32,60.60606061,2,2,1,,,,,,,,6,13,,,,,,,,,,,4,4.762,0,,,,,,0.353703675,-0.257407436,1,0,0,4.762,Gabbro_rect,0,0,0,0,1,
5bf311373a5bf00001401f64,SCN,2024-06-26_12h34.48.885,LearnStrategy,2023.2.3,Win32,60.60606061,2,2,2,,,,,,,,7,02,,,,,,,,,,,6,6.113,0,,,,,,-0.074999986,-0.411111125,1,0,0,6.1133,Pegmatite_rect,1,0,1,0,1,
5bf311373a5bf00001401f64,SCN,2024-06-26_12h34.48.885,LearnStrategy,2023.2.3,Win32,60.60606061,2,2,3,,,,,,,,5,08,,,,,,,,,,,5,1.394,1,,,,,,-0.355555534,-0.393518519,1,0,0,1.3943,Obsidian_rect,2,0,2,0,1,
5bf311373a5bf00001401f64,SCN,2024-06-26_12h34.48.885,LearnStrategy,2023.2.3,Win32,60.60606061,2,2,4,,,,,,,,3,16,,,,,,,,,,,3,2.793,1,,,,,,0.118518547,-0.251851894,1,0,0,2.7935,Diorite_rect,3,0,3,0,1,
5bf311373a5bf00001401f64,SCN,2024-06-26_12h34.48.885,LearnStrategy,2023.2.3,Win32,60.60606061,2,2,5,,,,,,,,1,14,,,,,,,,,,,3,10.842,0,,,,,,0.090740769,-0.25462963,1,0,0,10.8418,Diorite_rect,4,0,4,0,1,
5bf311373a5bf00001401f64,SCN,2024-06-26_12h34.48.885,LearnStrategy,2023.2.3,Win32,60.60606061,2,2,6,,,,,,,,4,12,,,,,,,,,,,2,2.249,0,,,,,,-0.112962935,-0.256481524,1,0,0,2.2493,Basalt_rect,5,0,5,0,1,
5bf311373a5bf00001401f64,SCN,2024-06-26_12h34.48.885,LearnStrategy,2023.2.3,Win32,60.60606061,2,2,7,,,,,,,,2,14,,,,,,,,,,,8,2.755,0,,,,,,0.334259316,-0.382407436,1,0,0,2.755,Pumice_rect,6,0,6,0,1,
5bf311373a5bf00001401f64,SCN,2024-06-26_12h34.48.885,LearnStrategy,2023.2.3,Win32,60.60606061,2,2,8,,,,,,,,2,02,,,,,,,,,,,2,1.963,1,,,,,,-0.110185199,-0.265740783,1,0,0,1.9626,Basalt_rect,7,0,7,0,1,
5bf311373a5bf00001401f64,SCN,2024-06-26_12h34.48.885,LearnStrategy,2023.2.3,Win32,60.60606061,2,2,9,,,,,,,,7,06,,,,,,,,,,,6,3.135,0,,,,,,-0.113888847,-0.404629672,1,0,0,3.1345,Pegmatite_rect,8,0,8,0,1,
5bf311373a5bf00001401f64,SCN,2024-06-26_12h34.48.885,LearnStrategy,2023.2.3,Win32,60.60606061,2,2,10,,,,,,,,1,01,,,,,,,,,,,4,2.929,0,,,,,,0.373148176,-0.244444459,1,0,0,2.9286,Gabbro_rect,9,0,9,0,1,
5bf311373a5bf00001401f64,SCN,2024-06-26_12h34.48.885,LearnStrategy,2023.2.3,Win32,60.60606061,2,2,11,,,,,,,,4,13,,,,,,,,,,,1,5.748,0,,,,,,-0.420370349,-0.232407393,1,0,0,5.7476,Andesite_rect,10,0,10,0,1,
5bf311373a5bf00001401f64,SCN,2024-06-26_12h34.48.885,LearnStrategy,2023.2.3,Win32,60.60606061,2,2,12,,,,,,,,5,09,,,,,,,,,,,5,1.214,1,,,,,,-0.393518519,-0.387037065,1,0,0,1.2142,Obsidian_rect,11,0,11,0,1,
5bf311373a5bf00001401f64,SCN,2024-06-26_12h34.48.885,LearnStrategy,2023.2.3,Win32,60.60606061,2,2,13,,,,,,,,6,16,,,,,,,,,,,6,3.157,1,,,,,,-0.113888847,-0.411111125,1,0,0,3.1567,Pegmatite_rect,12,0,12,0,1,
5bf311373a5bf00001401f64,SCN,2024-06-26_12h34.48.885,LearnStrategy,2023.2.3,Win32,60.60606061,2,2,14,,,,,,,,8,08,,,,,,,,,,,8,4.428,1,,,,,,0.436111168,-0.39907406,1,0,0,4.4283,Pumice_rect,13,0,13,0,1,
5bf311373a5bf00001401f64,SCN,2024-06-26_12h34.48.885,LearnStrategy,2023.2.3,Win32,60.60606061,2,2,15,,,,,,,,8,10,,,,,,,,,,,8,0.938,1,,,,,,0.381481453,-0.407407407,1,0,0,0.9375,Pumice_rect,14,0,14,0,1,
5bf311373a5bf00001401f64,SCN,2024-06-26_12h34.48.885,LearnStrategy,2023.2.3,Win32,60.60606061,2,2,16,,,,,,,,3,06,,,,,,,,,,,8,2.13,0,,,,,,0.356481481,-0.404629672,1,0,0,2.13,Pumice_rect,15,0,15,0,1,
5bf311373a5bf00001401f64,SCN,2024-06-26_12h34.48.885,LearnStrategy,2023.2.3,Win32,60.60606061,3,1,1,-0.562962956,0.392592589,1,0,0,27.0962,Pegmatite_10,6,10,6,1,27.096,-0.126851824,-0.398148148,1,0,0,3.7499,Pegmatite_rect,6,3.75,1,0,0,0,0,1,,,,,,,,,,,,,
5bf311373a5bf00001401f64,SCN,2024-06-26_12h34.48.885,LearnStrategy,2023.2.3,Win32,60.60606061,3,1,2,-0.397222201,0.414814817,1,0,0,1.0631,Pumice_13,8,13,6,2,1.063,0.361111111,-0.410185213,1,0,0,1.2765,Pumice_rect,8,1.276,1,1,0,1,0,1,,,,,,,,,,,,,
5bf311373a5bf00001401f64,SCN,2024-06-26_12h34.48.885,LearnStrategy,2023.2.3,Win32,60.60606061,3,1,3,-0.224999958,0.388888889,1,0,0,1.4815,Basalt_16,2,16,6,3,1.481,-0.097222222,-0.256481524,1,0,0,1.2877,Basalt_rect,2,1.288,1,2,0,2,0,1,,,,,,,,,,,,,
5bf311373a5bf00001401f64,SCN,2024-06-26_12h34.48.885,LearnStrategy,2023.2.3,Win32,60.60606061,3,1,4,-0.092592593,0.428703701,1,0,0,1.0059,Obsidian_16,5,16,6,4,1.006,-0.398148148,-0.397222236,1,0,0,1.2986,Obsidian_rect,5,1.299,1,3,0,3,0,1,,,,,,,,,,,,,
5bf311373a5bf00001401f64,SCN,2024-06-26_12h34.48.885,LearnStrategy,2023.2.3,Win32,60.60606061,3,1,5,0.050000014,0.404629628,1,0,0,0.9815,Diorite_13,3,13,6,5,0.982,0.375925982,-0.412037037,1,0,0,1.4157,Pumice_rect,8,1.416,0,4,0,4,0,1,,,,,,,,,,,,,
5bf311373a5bf00001401f64,SCN,2024-06-26_12h34.48.885,LearnStrategy,2023.2.3,Win32,60.60606061,3,1,6,0.241666653,0.402777778,1,0,0,1.4158,Andesite_05,1,05,6,6,1.416,0.169444473,-0.255555541,1,0,0,1.7241,Diorite_rect,3,1.724,0,5,0,5,0,1,,,,,,,,,,,,,
5bf311373a5bf00001401f64,SCN,2024-06-26_12h34.48.885,LearnStrategy,2023.2.3,Win32,60.60606061,3,1,7,0.372222194,0.398148148,1,0,0,5.53,Pumice_04,8,04,6,7,5.53,0.353703675,-0.412037037,1,0,0,1.0467,Pumice_rect,8,1.047,1,6,0,6,0,1,,,,,,,,,,,,,
5bf311373a5bf00001401f64,SCN,2024-06-26_12h34.48.885,LearnStrategy,2023.2.3,Win32,60.60606061,3,1,8,0.562037009,0.418518517,1,0,0,1.1231,Obsidian_12,5,12,6,8,1.123,-0.410185178,-0.40370369,1,0,0,1.1523,Obsidian_rect,5,1.152,1,7,0,7,0,1,,,,,,,,,,,,,
5bf311373a5bf00001401f64,SCN,2024-06-26_12h34.48.885,LearnStrategy,2023.2.3,Win32,60.60606061,3,1,9,-0.566666674,0.256481471,1,0,0,1.2818,Gabbro_01,4,01,5,1,1.282,-0.365740741,-0.270370413,1,0,0,3.4965,Andesite_rect,1,3.496,0,8,0,8,0,1,,,,,,,,,,,,,
5bf311373a5bf00001401f64,SCN,2024-06-26_12h34.48.885,LearnStrategy,2023.2.3,Win32,60.60606061,3,1,10,-0.437962956,0.259259259,1,0,0,1.2305,Diorite_15,3,15,5,2,1.23,0.112037023,-0.266666695,1,0,0,3.5018,Diorite_rect,3,3.502,1,9,0,9,0,1,,,,,,,,,,,,,
5bf311373a5bf00001401f64,SCN,2024-06-26_12h34.48.885,LearnStrategy,2023.2.3,Win32,60.60606061,3,1,11,-0.274999972,0.251851841,1,0,0,1.0804,Andesite_02,1,02,5,3,1.08,0.05740745,-0.249074088,1,0,0,1.4048,Diorite_rect,3,1.405,0,10,0,10,0,1,,,,,,,,,,,,,
5bf311373a5bf00001401f64,SCN,2024-06-26_12h34.48.885,LearnStrategy,2023.2.3,Win32,60.60606061,3,1,12,-0.237037023,0.247222212,1,0,0,1.8819,Andesite_02,1,02,5,3,1.882,-0.374074053,-0.258333347,1,0,0,2.6168,Andesite_rect,1,2.617,1,11,0,11,0,1,,,,,,,,,,,,,
5bf311373a5bf00001401f64,SCN,2024-06-26_12h34.48.885,LearnStrategy,2023.2.3,Win32,60.60606061,3,1,13,0.244444459,0.404629628,1,0,0,6.6961,Andesite_05,1,05,6,6,6.696,-0.381481489,-0.256481524,1,0,0,1.4334,Andesite_rect,1,1.433,1,12,0,12,0,1,,,,,,,,,,,,,
5bf311373a5bf00001401f64,SCN,2024-06-26_12h34.48.885,LearnStrategy,2023.2.3,Win32,60.60606061,3,1,14,-0.224999958,0.234259252,1,0,0,4.4213,Andesite_02,1,02,5,3,4.421,-0.359259252,-0.246296282,1,0,0,4.5882,Andesite_rect,1,4.588,1,13,0,13,0,1,,,,,,,,,,,,,
5bf311373a5bf00001401f64,SCN,2024-06-26_12h34.48.885,LearnStrategy,2023.2.3,Win32,60.60606061,3,1,15,0.249074088,0.419444446,1,0,0,0.7914,Andesite_05,1,05,6,6,0.791,-0.392592571,-0.231481481,1,0,0,4.5912,Andesite_rect,1,4.591,1,14,0,14,0,1,,,,,,,,,,,,,
5bf311373a5bf00001401f64,SCN,2024-06-26_12h34.48.885,LearnStrategy,2023.2.3,Win32,60.60606061,3,1,16,0.066666709,0.231481481,1,0,0,3.8969,Peridotite_08,7,08,5,5,3.897,0.114814829,-0.247222265,1,0,0,1.9954,Diorite_rect,3,1.995,0,15,0,15,0,1,,,,,,,,,,,,,
5bf311373a5bf00001401f64,SCN,2024-06-26_12h34.48.885,LearnStrategy,2023.2.3,Win32,60.60606061,3,2,1,,,,,,,,6,09,,,,,,,,,,,7,3.041,0,,,,,,0.137962977,-0.402777778,1,0,0,3.0411,Peridotite_rect,0,0,0,0,1,
5bf311373a5bf00001401f64,SCN,2024-06-26_12h34.48.885,LearnStrategy,2023.2.3,Win32,60.60606061,3,2,2,,,,,,,,2,01,,,,,,,,,,,2,6.353,1,,,,,,-0.136111083,-0.247222265,1,0,0,6.3529,Basalt_rect,1,0,1,0,1,
5bf311373a5bf00001401f64,SCN,2024-06-26_12h34.48.885,LearnStrategy,2023.2.3,Win32,60.60606061,3,2,3,,,,,,,,1,03,,,,,,,,,,,1,3.904,1,,,,,,-0.3824074,-0.26944443,1,0,0,3.9038,Andesite_rect,2,0,2,0,1,
5bf311373a5bf00001401f64,SCN,2024-06-26_12h34.48.885,LearnStrategy,2023.2.3,Win32,60.60606061,3,2,4,,,,,,,,6,06,,,,,,,,,,,3,4.129,0,,,,,,0.118518547,-0.250925912,1,0,0,4.1294,Diorite_rect,3,0,3,0,1,
5bf311373a5bf00001401f64,SCN,2024-06-26_12h34.48.885,LearnStrategy,2023.2.3,Win32,60.60606061,3,2,5,,,,,,,,5,05,,,,,,,,,,,5,1.667,1,,,,,,-0.417592578,-0.416666667,1,0,0,1.6673,Obsidian_rect,4,0,4,0,1,
5bf311373a5bf00001401f64,SCN,2024-06-26_12h34.48.885,LearnStrategy,2023.2.3,Win32,60.60606061,3,2,6,,,,,,,,1,04,,,,,,,,,,,1,1.775,1,,,,,,-0.392592571,-0.262962977,1,0,0,1.7752,Andesite_rect,5,0,5,0,1,
5bf311373a5bf00001401f64,SCN,2024-06-26_12h34.48.885,LearnStrategy,2023.2.3,Win32,60.60606061,3,2,7,,,,,,,,4,14,,,,,,,,,,,2,6.664,0,,,,,,-0.103703675,-0.250925912,1,0,0,6.6641,Basalt_rect,6,0,6,0,1,
5bf311373a5bf00001401f64,SCN,2024-06-26_12h34.48.885,LearnStrategy,2023.2.3,Win32,60.60606061,3,2,8,,,,,,,,5,06,,,,,,,,,,,5,1.582,1,,,,,,-0.419444437,-0.404629672,1,0,0,1.5825,Obsidian_rect,7,0,7,0,1,
5bf311373a5bf00001401f64,SCN,2024-06-26_12h34.48.885,LearnStrategy,2023.2.3,Win32,60.60606061,3,2,9,,,,,,,,3,08,,,,,,,,,,,3,2.216,1,,,,,,0.087037051,-0.260185171,1,0,0,2.2164,Diorite_rect,8,0,8,0,1,
5bf311373a5bf00001401f64,SCN,2024-06-26_12h34.48.885,LearnStrategy,2023.2.3,Win32,60.60606061,3,2,10,,,,,,,,7,15,,,,,,,,,,,7,3.432,1,,,,,,0.118518547,-0.414814843,1,0,0,3.432,Peridotite_rect,9,0,9,0,1,
5bf311373a5bf00001401f64,SCN,2024-06-26_12h34.48.885,LearnStrategy,2023.2.3,Win32,60.60606061,3,2,11,,,,,,,,4,16,,,,,,,,,,,4,3.136,1,,,,,,0.373148176,-0.255555541,1,0,0,3.136,Gabbro_rect,10,0,10,0,1,
5bf311373a5bf00001401f64,SCN,2024-06-26_12h34.48.885,LearnStrategy,2023.2.3,Win32,60.60606061,3,2,12,,,,,,,,8,15,,,,,,,,,,,8,1.276,1,,,,,,0.367592564,-0.401851866,1,0,0,1.276,Pumice_rect,11,0,11,0,1,
5bf311373a5bf00001401f64,SCN,2024-06-26_12h34.48.885,LearnStrategy,2023.2.3,Win32,60.60606061,3,2,13,,,,,,,,7,16,,,,,,,,,,,7,2.643,1,,,,,,0.126851894,-0.404629672,1,0,0,2.6431,Peridotite_rect,12,0,12,0,1,
5bf311373a5bf00001401f64,SCN,2024-06-26_12h34.48.885,LearnStrategy,2023.2.3,Win32,60.60606061,3,2,14,,,,,,,,2,08,,,,,,,,,,,2,1.61,1,,,,,,-0.145370342,-0.244444459,1,0,0,1.6097,Basalt_rect,13,0,13,0,1,
5bf311373a5bf00001401f64,SCN,2024-06-26_12h34.48.885,LearnStrategy,2023.2.3,Win32,60.60606061,3,2,15,,,,,,,,3,02,,,,,,,,,,,3,1.621,1,,,,,,0.137962977,-0.266666695,1,0,0,1.6213,Diorite_rect,14,0,14,0,1,
5bf311373a5bf00001401f64,SCN,2024-06-26_12h34.48.885,LearnStrategy,2023.2.3,Win32,60.60606061,3,2,16,,,,,,,,8,14,,,,,,,,,,,8,1.526,1,,,,,,0.375925982,-0.40370369,1,0,0,1.5258,Pumice_rect,15,0,15,0,1,
5bf311373a5bf00001401f64,SCN,2024-06-26_12h34.48.885,LearnStrategy,2023.2.3,Win32,60.60606061,4,1,1,0.084259245,0.234259252,1,0,0,2.7192,Peridotite_08,7,08,5,5,2.719,0.179629644,-0.389814801,1,0,0,2.4789,Peridotite_rect,7,2.479,1,0,0,0,0,1,,,,,,,,,,,,,
5bf311373a5bf00001401f64,SCN,2024-06-26_12h34.48.885,LearnStrategy,2023.2.3,Win32,60.60606061,4,1,2,0.228703746,0.247222212,1,0,0,2.1133,Diorite_11,3,11,5,6,2.113,0.140740783,-0.261111153,1,0,0,1.8259,Diorite_rect,3,1.826,1,1,0,1,0,1,,,,,,,,,,,,,
5bf311373a5bf00001401f64,SCN,2024-06-26_12h34.48.885,LearnStrategy,2023.2.3,Win32,60.60606061,4,1,3,0.542592649,0.240740741,1,0,0,4.2321,Pumice_02,8,02,5,8,4.232,0.387037065,-0.411111125,1,0,0,2.0571,Pumice_rect,8,2.057,1,2,0,2,0,1,,,,,,,,,,,,,
5bf311373a5bf00001401f64,SCN,2024-06-26_12h34.48.885,LearnStrategy,2023.2.3,Win32,60.60606061,4,1,4,-0.569444444,0.065740727,1,0,0,2.9145,Basalt_04,2,04,4,1,2.914,0.393518519,-0.259259259,1,0,0,2.0777,Gabbro_rect,4,2.078,0,3,0,3,0,1,,,,,,,,,,,,,
5bf311373a5bf00001401f64,SCN,2024-06-26_12h34.48.885,LearnStrategy,2023.2.3,Win32,60.60606061,4,1,5,-0.219444416,0.38518518,1,0,0,3.6998,Basalt_16,2,16,6,3,3.7,-0.137962977,-0.247222265,1,0,0,2.0372,Basalt_rect,2,2.037,1,4,0,4,0,1,,,,,,,,,,,,,
5bf311373a5bf00001401f64,SCN,2024-06-26_12h34.48.885,LearnStrategy,2023.2.3,Win32,60.60606061,4,1,6,-0.402777778,0.087037016,1,0,0,2.9553,Diorite_10,3,10,4,2,2.955,0.146296325,-0.252777806,1,0,0,4.9642,Diorite_rect,3,4.964,1,5,0,5,0,1,,,,,,,,,,,,,
5bf311373a5bf00001401f64,SCN,2024-06-26_12h34.48.885,LearnStrategy,2023.2.3,Win32,60.60606061,4,1,7,-0.23055557,0.082407386,1,0,0,1.7137,Pumice_05,8,05,4,3,1.714,0.375925982,-0.414814843,1,0,0,1.8418,Pumice_rect,8,1.842,1,6,0,6,0,1,,,,,,,,,,,,,
5bf311373a5bf00001401f64,SCN,2024-06-26_12h34.48.885,LearnStrategy,2023.2.3,Win32,60.60606061,4,1,8,-0.080555527,0.078703704,1,0,0,1.6979,Peridotite_13,7,13,4,4,1.698,0.114814829,-0.410185213,1,0,0,5.3535,Peridotite_rect,7,5.354,1,7,0,7,0,1,,,,,,,,,,,,,
5bf311373a5bf00001401f64,SCN,2024-06-26_12h34.48.885,LearnStrategy,2023.2.3,Win32,60.60606061,4,1,9,0.080555598,0.083333333,1,0,0,1.0469,Basalt_09,2,09,4,5,1.047,-0.126851824,-0.257407436,1,0,0,6.0937,Basalt_rect,2,6.094,1,8,0,8,0,1,,,,,,,,,,,,,
5bf311373a5bf00001401f64,SCN,2024-06-26_12h34.48.885,LearnStrategy,2023.2.3,Win32,60.60606061,4,1,10,0.26944443,0.087962963,1,0,0,5.4934,Diorite_09,3,09,4,6,5.493,0.173148191,-0.247222265,1,0,0,2.0669,Diorite_rect,3,2.067,1,9,0,9,0,1,,,,,,,,,,,,,
5bf311373a5bf00001401f64,SCN,2024-06-26_12h34.48.885,LearnStrategy,2023.2.3,Win32,60.60606061,4,1,11,-0.395370377,0.080555563,1,0,0,3.532,Diorite_10,3,10,4,2,3.532,0.087962963,-0.25,1,0,0,2.3863,Diorite_rect,3,2.386,1,10,0,10,0,1,,,,,,,,,,,,,
5bf311373a5bf00001401f64,SCN,2024-06-26_12h34.48.885,LearnStrategy,2023.2.3,Win32,60.60606061,4,1,12,0.524074131,0.074074074,1,0,0,3.2966,Basalt_05,2,05,4,8,3.297,-0.113888847,-0.268518519,1,0,0,1.448,Basalt_rect,2,1.448,1,11,0,11,0,1,,,,,,,,,,,,,
5bf311373a5bf00001401f64,SCN,2024-06-26_12h34.48.885,LearnStrategy,2023.2.3,Win32,60.60606061,4,1,13,-0.552777785,-0.109259288,1,0,0,3.4328,Pegmatite_12,6,12,3,1,3.433,-0.392592571,-0.391666695,1,0,0,7.2563,Obsidian_rect,5,7.256,0,12,0,12,0,1,,,,,,,,,,,,,
5bf311373a5bf00001401f64,SCN,2024-06-26_12h34.48.885,LearnStrategy,2023.2.3,Win32,60.60606061,4,1,14,-0.532407407,0.403703698,1,0,0,4.9092,Pegmatite_10,6,10,6,1,4.909,-0.086111069,-0.417592578,1,0,0,1.0838,Pegmatite_rect,6,1.084,1,13,0,13,0,1,,,,,,,,,,,,,
5bf311373a5bf00001401f64,SCN,2024-06-26_12h34.48.885,LearnStrategy,2023.2.3,Win32,60.60606061,4,1,15,-0.534259266,-0.110185199,1,0,0,1.7323,Pegmatite_12,6,12,3,1,1.732,-0.111111111,-0.418518561,1,0,0,3.2825,Pegmatite_rect,6,3.283,1,14,0,14,0,1,,,,,,,,,,,,,
5bf311373a5bf00001401f64,SCN,2024-06-26_12h34.48.885,LearnStrategy,2023.2.3,Win32,60.60606061,4,1,16,-0.363888882,-0.093518504,1,0,0,1.4046,Pegmatite_03,6,03,3,2,1.405,-0.137962977,-0.421296296,1,0,0,2.3298,Pegmatite_rect,6,2.33,1,15,0,15,0,1,,,,,,,,,,,,,
5bf311373a5bf00001401f64,SCN,2024-06-26_12h34.48.885,LearnStrategy,2023.2.3,Win32,60.60606061,4,2,1,,,,,,,,6,07,,,,,,,,,,,6,4.225,1,,,,,,-0.112962935,-0.402777778,1,0,0,4.2248,Pegmatite_rect,0,0,0,0,1,
5bf311373a5bf00001401f64,SCN,2024-06-26_12h34.48.885,LearnStrategy,2023.2.3,Win32,60.60606061,4,2,2,,,,,,,,5,06,,,,,,,,,,,5,2.179,1,,,,,,-0.380555541,-0.385185171,1,0,0,2.1791,Obsidian_rect,1,0,1,0,1,
5bf311373a5bf00001401f64,SCN,2024-06-26_12h34.48.885,LearnStrategy,2023.2.3,Win32,60.60606061,4,2,3,,,,,,,,6,06,,,,,,,,,,,6,2.545,1,,,,,,-0.134259259,-0.393518519,1,0,0,2.5449,Pegmatite_rect,2,0,2,0,1,
5bf311373a5bf00001401f64,SCN,2024-06-26_12h34.48.885,LearnStrategy,2023.2.3,Win32,60.60606061,4,2,4,,,,,,,,2,11,,,,,,,,,,,8,2.692,0,,,,,,0.402777778,-0.40370369,1,0,0,2.6916,Pumice_rect,3,0,3,0,1,
5bf311373a5bf00001401f64,SCN,2024-06-26_12h34.48.885,LearnStrategy,2023.2.3,Win32,60.60606061,4,2,5,,,,,,,,1,16,,,,,,,,,,,1,9.868,1,,,,,,-0.355555534,-0.264814801,1,0,0,9.868,Andesite_rect,4,0,4,0,1,
5bf311373a5bf00001401f64,SCN,2024-06-26_12h34.48.885,LearnStrategy,2023.2.3,Win32,60.60606061,4,2,6,,,,,,,,7,15,,,,,,,,,,,7,1.952,1,,,,,,0.112037023,-0.392592607,1,0,0,1.9525,Peridotite_rect,5,0,5,0,1,
5bf311373a5bf00001401f64,SCN,2024-06-26_12h34.48.885,LearnStrategy,2023.2.3,Win32,60.60606061,4,2,7,,,,,,,,1,14,,,,,,,,,,,3,3.451,0,,,,,,0.103703746,-0.270370413,1,0,0,3.451,Diorite_rect,6,0,6,0,1,
5bf311373a5bf00001401f64,SCN,2024-06-26_12h34.48.885,LearnStrategy,2023.2.3,Win32,60.60606061,4,2,8,,,,,,,,8,09,,,,,,,,,,,8,1.317,1,,,,,,0.377777806,-0.390740783,1,0,0,1.317,Pumice_rect,7,0,7,0,1,
5bf311373a5bf00001401f64,SCN,2024-06-26_12h34.48.885,LearnStrategy,2023.2.3,Win32,60.60606061,4,2,9,,,,,,,,7,10,,,,,,,,,,,7,1.512,1,,,,,,0.083333333,-0.400000042,1,0,0,1.5115,Peridotite_rect,8,0,8,0,1,
5bf311373a5bf00001401f64,SCN,2024-06-26_12h34.48.885,LearnStrategy,2023.2.3,Win32,60.60606061,4,2,10,,,,,,,,2,14,,,,,,,,,,,8,1.235,0,,,,,,0.365740741,-0.412037037,1,0,0,1.2346,Pumice_rect,9,0,9,0,1,
5bf311373a5bf00001401f64,SCN,2024-06-26_12h34.48.885,LearnStrategy,2023.2.3,Win32,60.60606061,4,2,11,,,,,,,,5,08,,,,,,,,,,,5,1.526,1,,,,,,-0.37962963,-0.400925954,1,0,0,1.5264,Obsidian_rect,10,0,10,0,1,
5bf311373a5bf00001401f64,SCN,2024-06-26_12h34.48.885,LearnStrategy,2023.2.3,Win32,60.60606061,4,2,12,,,,,,,,3,08,,,,,,,,,,,3,2.487,1,,,,,,0.124074088,-0.264814801,1,0,0,2.4869,Diorite_rect,11,0,11,0,1,
5bf311373a5bf00001401f64,SCN,2024-06-26_12h34.48.885,LearnStrategy,2023.2.3,Win32,60.60606061,4,2,13,,,,,,,,4,13,,,,,,,,,,,2,12.848,0,,,,,,-0.147222236,-0.258333347,1,0,0,12.8484,Basalt_rect,12,0,12,0,1,
5bf311373a5bf00001401f64,SCN,2024-06-26_12h34.48.885,LearnStrategy,2023.2.3,Win32,60.60606061,4,2,14,,,,,,,,3,14,,,,,,,,,,,3,1.892,1,,,,,,0.095370399,-0.256481524,1,0,0,1.892,Diorite_rect,13,0,13,0,1,
5bf311373a5bf00001401f64,SCN,2024-06-26_12h34.48.885,LearnStrategy,2023.2.3,Win32,60.60606061,4,2,15,,,,,,,,4,10,,,,,,,,,,,8,2.582,0,,,,,,0.372222194,-0.400925954,1,0,0,2.5819,Pumice_rect,14,0,14,0,1,
5bf311373a5bf00001401f64,SCN,2024-06-26_12h34.48.885,LearnStrategy,2023.2.3,Win32,60.60606061,4,2,16,,,,,,,,8,08,,,,,,,,,,,8,0.748,1,,,,,,0.371296353,-0.401851866,1,0,0,0.7484,Pumice_rect,15,0,15,0,1,
5bf311373a5bf00001401f64,SCN,2024-06-26_12h34.48.885,LearnStrategy,2023.2.3,Win32,60.60606061,5,1,1,-0.52870369,-0.079629651,1,0,0,2.0141,Pegmatite_12,6,12,3,1,2.014,-0.159259231,-0.397222236,1,0,0,2.36,Pegmatite_rect,6,2.36,1,0,0,0,0,1,,,,,,,,,,,,,
5bf311373a5bf00001401f64,SCN,2024-06-26_12h34.48.885,LearnStrategy,2023.2.3,Win32,60.60606061,5,1,2,-0.376851859,-0.124074088,1,0,0,1.9302,Pegmatite_03,6,03,3,2,1.93,-0.107407393,-0.395370413,1,0,0,1.9522,Pegmatite_rect,6,1.952,1,1,0,1,0,1,,,,,,,,,,,,,
5bf311373a5bf00001401f64,SCN,2024-06-26_12h34.48.885,LearnStrategy,2023.2.3,Win32,60.60606061,5,1,3,-0.216666681,-0.103703746,1,0,0,1.0144,Pegmatite_05,6,05,3,3,1.014,-0.15370369,-0.402777778,1,0,0,4.2462,Pegmatite_rect,6,4.246,1,2,0,2,0,1,,,,,,,,,,,,,
5bf311373a5bf00001401f64,SCN,2024-06-26_12h34.48.885,LearnStrategy,2023.2.3,Win32,60.60606061,5,1,4,-0.071296268,-0.121296282,1,0,0,1.0973,Gabbro_15,4,15,3,4,1.097,0.388888889,-0.257407436,1,0,0,3.3982,Gabbro_rect,4,3.398,1,3,0,3,0,1,,,,,,,,,,,,,
5bf311373a5bf00001401f64,SCN,2024-06-26_12h34.48.885,LearnStrategy,2023.2.3,Win32,60.60606061,5,1,5,-0.529629637,0.238888882,1,0,0,5.5044,Gabbro_01,4,01,5,1,5.504,0.398148148,-0.248148176,1,0,0,3.6557,Gabbro_rect,4,3.656,1,4,0,4,0,1,,,,,,,,,,,,,
5bf311373a5bf00001401f64,SCN,2024-06-26_12h34.48.885,LearnStrategy,2023.2.3,Win32,60.60606061,5,1,6,-0.053703661,-0.10555557,1,0,0,1.9305,Gabbro_15,4,15,3,4,1.93,0.377777806,-0.228703746,1,0,0,3.8129,Gabbro_rect,4,3.813,1,5,0,5,0,1,,,,,,,,,,,,,
5bf311373a5bf00001401f64,SCN,2024-06-26_12h34.48.885,LearnStrategy,2023.2.3,Win32,60.60606061,5,1,7,0.110185199,-0.124074088,1,0,0,2.572,Peridotite_05,7,05,3,5,2.572,-0.102777764,-0.249074088,1,0,0,5.5177,Basalt_rect,2,5.518,0,6,0,6,0,1,,,,,,,,,,,,,
5bf311373a5bf00001401f64,SCN,2024-06-26_12h34.48.885,LearnStrategy,2023.2.3,Win32,60.60606061,5,1,8,-0.102777764,0.113888882,1,0,0,3.6642,Peridotite_13,7,13,4,4,3.664,0.10555557,-0.387037065,1,0,0,1.9706,Peridotite_rect,7,1.971,1,7,0,7,0,1,,,,,,,,,,,,,
5bf311373a5bf00001401f64,SCN,2024-06-26_12h34.48.885,LearnStrategy,2023.2.3,Win32,60.60606061,5,1,9,0.092592593,-0.123148176,1,0,0,0.8345,Peridotite_05,7,05,3,5,0.834,0.09629631,-0.388888889,1,0,0,2.6074,Peridotite_rect,7,2.607,1,8,0,8,0,1,,,,,,,,,,,,,
5bf311373a5bf00001401f64,SCN,2024-06-26_12h34.48.885,LearnStrategy,2023.2.3,Win32,60.60606061,5,1,10,0.210185228,-0.098148134,1,0,0,0.9639,Peridotite_14,7,14,3,6,0.964,0.110185199,-0.405555584,1,0,0,5.4954,Peridotite_rect,7,5.495,1,9,0,9,0,1,,,,,,,,,,,,,
5bf311373a5bf00001401f64,SCN,2024-06-26_12h34.48.885,LearnStrategy,2023.2.3,Win32,60.60606061,5,1,11,0.382407436,-0.124074088,1,0,0,1.783,Obsidian_04,5,04,3,7,1.783,-0.37037037,-0.396296325,1,0,0,0.9596,Obsidian_rect,5,0.96,1,10,0,10,0,1,,,,,,,,,,,,,
5bf311373a5bf00001401f64,SCN,2024-06-26_12h34.48.885,LearnStrategy,2023.2.3,Win32,60.60606061,5,1,12,0.544444473,-0.08888891,1,0,0,1.6443,Gabbro_09,4,09,3,8,1.644,0.37037037,-0.252777806,1,0,0,19.6275,Gabbro_rect,4,19.628,1,11,0,11,0,1,,,,,,,,,,,,,
5bf311373a5bf00001401f64,SCN,2024-06-26_12h34.48.885,LearnStrategy,2023.2.3,Win32,60.60606061,5,1,13,-0.061111097,-0.108333376,1,0,0,4.7797,Gabbro_15,4,15,3,4,4.78,0.404629601,-0.266666695,1,0,0,2.3617,Gabbro_rect,4,2.362,1,12,0,12,0,1,,,,,,,,,,,,,
5bf311373a5bf00001401f64,SCN,2024-06-26_12h34.48.885,LearnStrategy,2023.2.3,Win32,60.60606061,5,1,14,-0.549999979,0.224999993,1,0,0,6.7488,Gabbro_01,4,01,5,1,6.749,0.369444529,-0.239814829,1,0,0,3.6327,Gabbro_rect,4,3.633,1,13,0,13,0,1,,,,,,,,,,,,,
5bf311373a5bf00001401f64,SCN,2024-06-26_12h34.48.885,LearnStrategy,2023.2.3,Win32,60.60606061,5,1,15,-0.53148146,-0.248148176,1,0,0,3.2717,Pumice_06,8,06,2,1,3.272,0.399999972,-0.402777778,1,0,0,2.2782,Pumice_rect,8,2.278,1,14,0,14,0,1,,,,,,,,,,,,,
5bf311373a5bf00001401f64,SCN,2024-06-26_12h34.48.885,LearnStrategy,2023.2.3,Win32,60.60606061,5,1,16,-0.401851831,-0.262962977,1,0,0,0.9943,Pumice_03,8,03,2,2,0.994,0.414814843,-0.418518561,1,0,0,1.269,Pumice_rect,8,1.269,1,15,0,15,0,1,,,,,,,,,,,,,
5bf311373a5bf00001401f64,SCN,2024-06-26_12h34.48.885,LearnStrategy,2023.2.3,Win32,60.60606061,5,2,1,,,,,,,,4,05,,,,,,,,,,,4,6.121,1,,,,,,0.402777778,-0.258333347,1,0,0,6.1209,Gabbro_rect,0,0,0,0,1,
5bf311373a5bf00001401f64,SCN,2024-06-26_12h34.48.885,LearnStrategy,2023.2.3,Win32,60.60606061,5,2,2,,,,,,,,1,04,,,,,,,,,,,1,5.086,1,,,,,,-0.408333319,-0.251851894,1,0,0,5.0864,Andesite_rect,1,0,1,0,1,
5bf311373a5bf00001401f64,SCN,2024-06-26_12h34.48.885,LearnStrategy,2023.2.3,Win32,60.60606061,5,2,3,,,,,,,,1,07,,,,,,,,,,,3,1.818,0,,,,,,0.146296325,-0.263888889,1,0,0,1.8175,Diorite_rect,2,0,2,0,1,
5bf311373a5bf00001401f64,SCN,2024-06-26_12h34.48.885,LearnStrategy,2023.2.3,Win32,60.60606061,5,2,4,,,,,,,,4,14,,,,,,,,,,,4,5.063,1,,,,,,0.387963048,-0.260185171,1,0,0,5.0626,Gabbro_rect,3,0,3,0,1,
5bf311373a5bf00001401f64,SCN,2024-06-26_12h34.48.885,LearnStrategy,2023.2.3,Win32,60.60606061,5,2,5,,,,,,,,5,09,,,,,,,,,,,5,1.478,1,,,,,,-0.409259266,-0.407407407,1,0,0,1.4778,Obsidian_rect,4,0,4,0,1,
5bf311373a5bf00001401f64,SCN,2024-06-26_12h34.48.885,LearnStrategy,2023.2.3,Win32,60.60606061,5,2,6,,,,,,,,7,16,,,,,,,,,,,7,2.059,1,,,,,,0.137037065,-0.397222236,1,0,0,2.0595,Peridotite_rect,5,0,5,0,1,
5bf311373a5bf00001401f64,SCN,2024-06-26_12h34.48.885,LearnStrategy,2023.2.3,Win32,60.60606061,5,2,7,,,,,,,,7,02,,,,,,,,,,,7,1.636,1,,,,,,0.12037037,-0.409259302,1,0,0,1.6358,Peridotite_rect,6,0,6,0,1,
5bf311373a5bf00001401f64,SCN,2024-06-26_12h34.48.885,LearnStrategy,2023.2.3,Win32,60.60606061,5,2,8,,,,,,,,3,02,,,,,,,,,,,3,1.463,1,,,,,,0.125925912,-0.25462963,1,0,0,1.4626,Diorite_rect,7,0,7,0,1,
5bf311373a5bf00001401f64,SCN,2024-06-26_12h34.48.885,LearnStrategy,2023.2.3,Win32,60.60606061,5,2,9,,,,,,,,5,05,,,,,,,,,,,5,1.456,1,,,,,,-0.388888889,-0.383333347,1,0,0,1.4558,Obsidian_rect,8,0,8,0,1,
5bf311373a5bf00001401f64,SCN,2024-06-26_12h34.48.885,LearnStrategy,2023.2.3,Win32,60.60606061,5,2,10,,,,,,,,6,13,,,,,,,,,,,6,18.495,1,,,,,,-0.113888847,-0.398148148,1,0,0,18.4946,Pegmatite_rect,9,0,9,0,1,
5bf311373a5bf00001401f64,SCN,2024-06-26_12h34.48.885,LearnStrategy,2023.2.3,Win32,60.60606061,5,2,11,,,,,,,,2,12,,,,,,,,,,,8,1.629,0,,,,,,0.416666667,-0.412037037,1,0,0,1.6286,Pumice_rect,10,0,10,0,1,
5bf311373a5bf00001401f64,SCN,2024-06-26_12h34.48.885,LearnStrategy,2023.2.3,Win32,60.60606061,5,2,12,,,,,,,,6,16,,,,,,,,,,,6,5.723,1,,,,,,-0.115740741,-0.393518519,1,0,0,5.7227,Pegmatite_rect,11,0,11,0,1,
5bf311373a5bf00001401f64,SCN,2024-06-26_12h34.48.885,LearnStrategy,2023.2.3,Win32,60.60606061,5,2,13,,,,,,,,3,16,,,,,,,,,,,3,1.26,1,,,,,,0.148148148,-0.261111153,1,0,0,1.2599,Diorite_rect,12,0,12,0,1,
5bf311373a5bf00001401f64,SCN,2024-06-26_12h34.48.885,LearnStrategy,2023.2.3,Win32,60.60606061,5,2,14,,,,,,,,8,16,,,,,,,,,,,8,1.078,1,,,,,,0.377777806,-0.384259259,1,0,0,1.0784,Pumice_rect,13,0,13,0,1,
5bf311373a5bf00001401f64,SCN,2024-06-26_12h34.48.885,LearnStrategy,2023.2.3,Win32,60.60606061,5,2,15,,,,,,,,8,10,,,,,,,,,,,8,1.511,1,,,,,,0.378703788,-0.385185171,1,0,0,1.5106,Pumice_rect,14,0,14,0,1,
5bf311373a5bf00001401f64,SCN,2024-06-26_12h34.48.885,LearnStrategy,2023.2.3,Win32,60.60606061,5,2,16,,,,,,,,2,08,,,,,,,,,,,2,1.676,1,,,,,,-0.115740741,-0.255555541,1,0,0,1.6762,Basalt_rect,15,0,15,0,1,
5bf311373a5bf00001401f64,SCN,2024-06-26_12h34.48.885,LearnStrategy,2023.2.3,Win32,60.60606061,6,1,1,-0.253703718,-0.250925912,1,0,0,2.6244,Andesite_11,1,11,2,3,2.624,0.138888889,-0.247222265,1,0,0,16.0458,Diorite_rect,3,16.046,0,0,0,0,0,1,,,,,,,,,,,,,
5bf311373a5bf00001401f64,SCN,2024-06-26_12h34.48.885,LearnStrategy,2023.2.3,Win32,60.60606061,6,1,2,-0.098148134,-0.256481524,1,0,0,2.8806,Peridotite_12,7,12,2,4,2.881,0.062037079,-0.387037065,1,0,0,2.0881,Peridotite_rect,7,2.088,1,1,0,1,0,1,,,,,,,,,,,,,
5bf311373a5bf00001401f64,SCN,2024-06-26_12h34.48.885,LearnStrategy,2023.2.3,Win32,60.60606061,6,1,3,0.064814815,-0.276851866,1,0,0,3.7486,Basalt_10,2,10,2,5,3.749,-0.133333347,-0.244444459,1,0,0,1.2209,Basalt_rect,2,1.221,1,2,0,2,0,1,,,,,,,,,,,,,
5bf311373a5bf00001401f64,SCN,2024-06-26_12h34.48.885,LearnStrategy,2023.2.3,Win32,60.60606061,6,1,4,0.204629616,-0.249074088,1,0,0,1.2156,Gabbro_08,4,08,2,6,1.216,-0.378703683,-0.25462963,1,0,0,7.8517,Andesite_rect,1,7.852,0,3,0,3,0,1,,,,,,,,,,,,,
5bf311373a5bf00001401f64,SCN,2024-06-26_12h34.48.885,LearnStrategy,2023.2.3,Win32,60.60606061,6,1,5,0.527777778,-0.10092594,1,0,0,5.0293,Gabbro_09,4,09,3,8,5.029,0.386111083,-0.24537037,1,0,0,1.4509,Gabbro_rect,4,1.451,1,4,0,4,0,1,,,,,,,,,,,,,
5bf311373a5bf00001401f64,SCN,2024-06-26_12h34.48.885,LearnStrategy,2023.2.3,Win32,60.60606061,6,1,6,0.384259259,-0.261111153,1,0,0,1.8809,Gabbro_11,4,11,2,7,1.881,0.388888889,-0.255555541,1,0,0,2.9011,Gabbro_rect,4,2.901,1,5,0,5,0,1,,,,,,,,,,,,,
5bf311373a5bf00001401f64,SCN,2024-06-26_12h34.48.885,LearnStrategy,2023.2.3,Win32,60.60606061,6,1,7,0.560185185,-0.270370413,1,0,0,1.5711,Pegmatite_15,6,15,2,8,1.571,-0.141666624,-0.406481496,1,0,0,2.5593,Pegmatite_rect,6,2.559,1,6,0,6,0,1,,,,,,,,,,,,,
5bf311373a5bf00001401f64,SCN,2024-06-26_12h34.48.885,LearnStrategy,2023.2.3,Win32,60.60606061,6,1,8,-0.547222208,-0.398148148,1,0,0,1.5466,Basalt_06,2,06,1,1,1.547,-0.137036995,-0.248148176,1,0,0,1.7481,Basalt_rect,2,1.748,1,7,0,7,0,1,,,,,,,,,,,,,
5bf311373a5bf00001401f64,SCN,2024-06-26_12h34.48.885,LearnStrategy,2023.2.3,Win32,60.60606061,6,1,9,-0.366666653,-0.412037037,1,0,0,1.2818,Diorite_07,3,07,1,2,1.282,0.130555541,-0.251851894,1,0,0,1.7439,Diorite_rect,3,1.744,1,8,0,8,0,1,,,,,,,,,,,,,
5bf311373a5bf00001401f64,SCN,2024-06-26_12h34.48.885,LearnStrategy,2023.2.3,Win32,60.60606061,6,1,10,-0.226851852,-0.442592621,1,0,0,1.0316,Gabbro_03,4,03,1,3,1.032,-0.345370363,-0.242592635,1,0,0,4.6317,Andesite_rect,1,4.632,0,9,0,9,0,1,,,,,,,,,,,,,
5bf311373a5bf00001401f64,SCN,2024-06-26_12h34.48.885,LearnStrategy,2023.2.3,Win32,60.60606061,6,1,11,0.54351849,-0.097222222,1,0,0,1.36,Gabbro_09,4,09,3,8,1.36,0.416666667,-0.255555541,1,0,0,2.0474,Gabbro_rect,4,2.047,1,10,0,10,0,1,,,,,,,,,,,,,
5bf311373a5bf00001401f64,SCN,2024-06-26_12h34.48.885,LearnStrategy,2023.2.3,Win32,60.60606061,6,1,12,-0.258333347,-0.43240745,1,0,0,1.9478,Gabbro_03,4,03,1,3,1.948,0.3648149,-0.244444459,1,0,0,2.4531,Gabbro_rect,4,2.453,1,11,0,11,0,1,,,,,,,,,,,,,
5bf311373a5bf00001401f64,SCN,2024-06-26_12h34.48.885,LearnStrategy,2023.2.3,Win32,60.60606061,6,1,13,-0.083333333,-0.443518533,1,0,0,1.5159,Pegmatite_11,6,11,1,4,1.516,-0.088888875,-0.405555584,1,0,0,0.8735,Pegmatite_rect,6,0.873,1,12,0,12,0,1,,,,,,,,,,,,,
5bf311373a5bf00001401f64,SCN,2024-06-26_12h34.48.885,LearnStrategy,2023.2.3,Win32,60.60606061,6,1,14,0.058333362,-0.429629644,1,0,0,1.1984,Andesite_09,1,09,1,5,1.198,-0.375925912,-0.250925912,1,0,0,4.4358,Andesite_rect,1,4.436,1,13,0,13,0,1,,,,,,,,,,,,,
5bf311373a5bf00001401f64,SCN,2024-06-26_12h34.48.885,LearnStrategy,2023.2.3,Win32,60.60606061,6,1,15,0.215740769,-0.435185185,1,0,0,2.3129,Andesite_06,1,06,1,6,2.313,-0.388888889,-0.246296282,1,0,0,1.6423,Andesite_rect,1,1.642,1,14,0,14,0,1,,,,,,,,,,,,,
5bf311373a5bf00001401f64,SCN,2024-06-26_12h34.48.885,LearnStrategy,2023.2.3,Win32,60.60606061,6,1,16,0.37962963,-0.411111125,1,0,0,1.7314,Andesite_10,1,10,1,7,1.731,-0.390740748,-0.250925912,1,0,0,2.2344,Andesite_rect,1,2.234,1,15,0,15,0,1,,,,,,,,,,,,,
5bf311373a5bf00001401f64,SCN,2024-06-26_12h34.48.885,LearnStrategy,2023.2.3,Win32,60.60606061,6,2,1,,,,,,,,2,01,,,,,,,,,,,2,1.78,1,,,,,,-0.12962963,-0.233333376,1,0,0,1.7801,Basalt_rect,0,0,0,0,1,
5bf311373a5bf00001401f64,SCN,2024-06-26_12h34.48.885,LearnStrategy,2023.2.3,Win32,60.60606061,6,2,2,,,,,,,,8,15,,,,,,,,,,,8,2.523,1,,,,,,0.387963048,-0.397222236,1,0,0,2.5231,Pumice_rect,1,0,1,0,1,
5bf311373a5bf00001401f64,SCN,2024-06-26_12h34.48.885,LearnStrategy,2023.2.3,Win32,60.60606061,6,2,3,,,,,,,,1,03,,,,,,,,,,,1,2.386,1,,,,,,-0.39444443,-0.252777806,1,0,0,2.3859,Andesite_rect,2,0,2,0,1,
5bf311373a5bf00001401f64,SCN,2024-06-26_12h34.48.885,LearnStrategy,2023.2.3,Win32,60.60606061,6,2,4,,,,,,,,7,04,,,,,,,,,,,6,4.156,0,,,,,,-0.155555513,-0.412037037,1,0,0,4.1562,Pegmatite_rect,3,0,3,0,1,
5bf311373a5bf00001401f64,SCN,2024-06-26_12h34.48.885,LearnStrategy,2023.2.3,Win32,60.60606061,6,2,5,,,,,,,,5,07,,,,,,,,,,,5,1.413,1,,,,,,-0.41111109,-0.398148148,1,0,0,1.4131,Obsidian_rect,4,0,4,0,1,
5bf311373a5bf00001401f64,SCN,2024-06-26_12h34.48.885,LearnStrategy,2023.2.3,Win32,60.60606061,6,2,6,,,,,,,,5,14,,,,,,,,,,,5,0.885,1,,,,,,-0.400000007,-0.411111125,1,0,0,0.8851,Obsidian_rect,5,0,5,0,1,
5bf311373a5bf00001401f64,SCN,2024-06-26_12h34.48.885,LearnStrategy,2023.2.3,Win32,60.60606061,6,2,7,,,,,,,,4,12,,,,,,,,,,,4,1.889,1,,,,,,0.382407436,-0.264814801,1,0,0,1.8891,Gabbro_rect,6,0,6,0,1,
5bf311373a5bf00001401f64,SCN,2024-06-26_12h34.48.885,LearnStrategy,2023.2.3,Win32,60.60606061,6,2,8,,,,,,,,4,16,,,,,,,,,,,4,4.629,1,,,,,,0.394444501,-0.257407436,1,0,0,4.6286,Gabbro_rect,7,0,7,0,1,
5bf311373a5bf00001401f64,SCN,2024-06-26_12h34.48.885,LearnStrategy,2023.2.3,Win32,60.60606061,6,2,9,,,,,,,,8,14,,,,,,,,,,,8,1.79,1,,,,,,0.385185242,-0.411111125,1,0,0,1.7898,Pumice_rect,8,0,8,0,1,
5bf311373a5bf00001401f64,SCN,2024-06-26_12h34.48.885,LearnStrategy,2023.2.3,Win32,60.60606061,6,2,10,,,,,,,,6,08,,,,,,,,,,,6,2.064,1,,,,,,-0.15370369,-0.40370369,1,0,0,2.0637,Pegmatite_rect,9,0,9,0,1,
5bf311373a5bf00001401f64,SCN,2024-06-26_12h34.48.885,LearnStrategy,2023.2.3,Win32,60.60606061,6,2,11,,,,,,,,3,06,,,,,,,,,,,1,5.597,0,,,,,,-0.380555541,-0.256481524,1,0,0,5.597,Andesite_rect,10,0,10,0,1,
5bf311373a5bf00001401f64,SCN,2024-06-26_12h34.48.885,LearnStrategy,2023.2.3,Win32,60.60606061,6,2,12,,,,,,,,2,02,,,,,,,,,,,2,1.823,1,,,,,,-0.127777735,-0.257407436,1,0,0,1.8229,Basalt_rect,11,0,11,0,1,
5bf311373a5bf00001401f64,SCN,2024-06-26_12h34.48.885,LearnStrategy,2023.2.3,Win32,60.60606061,6,2,13,,,,,,,,3,12,,,,,,,,,,,3,2.289,1,,,,,,0.115740741,-0.26944443,1,0,0,2.2887,Diorite_rect,12,0,12,0,1,
5bf311373a5bf00001401f64,SCN,2024-06-26_12h34.48.885,LearnStrategy,2023.2.3,Win32,60.60606061,6,2,14,,,,,,,,7,06,,,,,,,,,,,7,2.771,1,,,,,,0.109259288,-0.405555584,1,0,0,2.7706,Peridotite_rect,13,0,13,0,1,
5bf311373a5bf00001401f64,SCN,2024-06-26_12h34.48.885,LearnStrategy,2023.2.3,Win32,60.60606061,6,2,15,,,,,,,,1,01,,,,,,,,,,,1,5.123,1,,,,,,-0.37037037,-0.267592607,1,0,0,5.1225,Andesite_rect,14,0,14,0,1,
5bf311373a5bf00001401f64,SCN,2024-06-26_12h34.48.885,LearnStrategy,2023.2.3,Win32,60.60606061,6,2,16,,,,,,,,6,09,,,,,,,,,,,6,1.483,1,,,,,,-0.125925912,-0.409259302,1,0,0,1.4833,Pegmatite_rect,15,0,15,0,1,
5bf311373a5bf00001401f64,SCN,2024-06-26_12h34.48.885,LearnStrategy,2023.2.3,Win32,60.60606061,7,1,1,0.560185185,-0.408333319,1,0,0,1.7308,Peridotite_07,7,07,1,8,1.731,0.151851866,-0.408333319,1,0,0,7.7175,Peridotite_rect,7,7.717,1,0,0,0,0,1,,,,,,,,,,,,,
5bf311373a5bf00001401f64,SCN,2024-06-26_12h34.48.885,LearnStrategy,2023.2.3,Win32,60.60606061,7,1,2,0.410185213,-0.400000042,1,0,0,5.9539,Andesite_10,1,10,1,7,5.954,-0.400000007,-0.25462963,1,0,0,2.7204,Andesite_rect,1,2.72,1,1,0,1,0,1,,,,,,,,,,,,,
5bf311373a5bf00001401f64,SCN,2024-06-26_12h34.48.885,LearnStrategy,2023.2.3,Win32,60.60606061,7,1,3,0.25,-0.406481496,1,0,0,1.1645,Andesite_06,1,06,1,6,1.165,-0.350925905,-0.261111153,1,0,0,1.3497,Andesite_rect,1,1.35,1,2,0,2,0,1,,,,,,,,,,,,,
5bf311373a5bf00001401f64,SCN,2024-06-26_12h34.48.885,LearnStrategy,2023.2.3,Win32,60.60606061,7,1,4,-0.529629637,0.437037035,1,0,0,1.6555,Pegmatite_10,6,10,6,1,1.656,-0.17777775,-0.412962949,1,0,0,2.3064,Pegmatite_rect,6,2.306,1,3,0,3,0,1,,,,,,,,,,,,,
5bf311373a5bf00001401f64,SCN,2024-06-26_12h34.48.885,LearnStrategy,2023.2.3,Win32,60.60606061,7,1,5,-0.41111109,0.407407407,1,0,0,0.8773,Pumice_13,8,13,6,2,0.877,0.387037065,-0.416666667,1,0,0,1.0616,Pumice_rect,8,1.062,1,4,0,4,0,1,,,,,,,,,,,,,
5bf311373a5bf00001401f64,SCN,2024-06-26_12h34.48.885,LearnStrategy,2023.2.3,Win32,60.60606061,7,1,6,0.086111139,0.407407407,1,0,0,4.5977,Diorite_13,3,13,6,5,4.598,0.112963005,-0.243518547,1,0,0,1.8396,Diorite_rect,3,1.84,1,5,0,5,0,1,,,,,,,,,,,,,
5bf311373a5bf00001401f64,SCN,2024-06-26_12h34.48.885,LearnStrategy,2023.2.3,Win32,60.60606061,7,1,7,0.234259288,0.399999998,1,0,0,2.0318,Andesite_05,1,05,6,6,2.032,-0.39166666,-0.261111153,1,0,0,1.7495,Andesite_rect,1,1.749,1,6,0,6,0,1,,,,,,,,,,,,,
5bf311373a5bf00001401f64,SCN,2024-06-26_12h34.48.885,LearnStrategy,2023.2.3,Win32,60.60606061,7,1,8,-0.38703703,0.234259252,1,0,0,6.6148,Diorite_15,3,15,5,2,6.615,-0.388888889,-0.246296282,1,0,0,3.5241,Andesite_rect,1,3.524,0,7,0,7,0,1,,,,,,,,,,,,,
5bf311373a5bf00001401f64,SCN,2024-06-26_12h34.48.885,LearnStrategy,2023.2.3,Win32,60.60606061,7,1,9,-0.241666653,0.235185182,1,0,0,1.2059,Andesite_02,1,02,5,3,1.206,-0.396296289,-0.243518547,1,0,0,1.796,Andesite_rect,1,1.796,1,8,0,8,0,1,,,,,,,,,,,,,
5bf311373a5bf00001401f64,SCN,2024-06-26_12h34.48.885,LearnStrategy,2023.2.3,Win32,60.60606061,7,1,10,-0.375,0.247222212,1,0,0,1.0196,Diorite_15,3,15,5,2,1.02,0.106481481,-0.271296325,1,0,0,2.9697,Diorite_rect,3,2.97,1,9,0,9,0,1,,,,,,,,,,,,,
5bf311373a5bf00001401f64,SCN,2024-06-26_12h34.48.885,LearnStrategy,2023.2.3,Win32,60.60606061,7,1,11,0.095370399,0.224999993,1,0,0,3.155,Peridotite_08,7,08,5,5,3.155,0.108333376,-0.40370369,1,0,0,2.8944,Peridotite_rect,7,2.894,1,10,0,10,0,1,,,,,,,,,,,,,
5bf311373a5bf00001401f64,SCN,2024-06-26_12h34.48.885,LearnStrategy,2023.2.3,Win32,60.60606061,7,1,12,0.239814829,0.230555552,1,0,0,1.5381,Diorite_11,3,11,5,6,1.538,0.112037023,-0.248148176,1,0,0,1.2368,Diorite_rect,3,1.237,1,11,0,11,0,1,,,,,,,,,,,,,
5bf311373a5bf00001401f64,SCN,2024-06-26_12h34.48.885,LearnStrategy,2023.2.3,Win32,60.60606061,7,1,13,0.541666667,0.242592582,1,0,0,1.8786,Pumice_02,8,02,5,8,1.879,0.398148148,-0.410185213,1,0,0,1.4602,Pumice_rect,8,1.46,1,12,0,12,0,1,,,,,,,,,,,,,
5bf311373a5bf00001401f64,SCN,2024-06-26_12h34.48.885,LearnStrategy,2023.2.3,Win32,60.60606061,7,1,14,-0.542592578,0.092592593,1,0,0,2.2774,Basalt_04,2,04,4,1,2.277,-0.12962963,-0.253703718,1,0,0,1.8949,Basalt_rect,2,1.895,1,13,0,13,0,1,,,,,,,,,,,,,
5bf311373a5bf00001401f64,SCN,2024-06-26_12h34.48.885,LearnStrategy,2023.2.3,Win32,60.60606061,7,1,15,-0.374074053,0.093518504,1,0,0,1.5973,Diorite_10,3,10,4,2,1.597,-0.349999993,-0.232407393,1,0,0,2.4635,Andesite_rect,1,2.464,0,14,0,14,0,1,,,,,,,,,,,,,
5bf311373a5bf00001401f64,SCN,2024-06-26_12h34.48.885,LearnStrategy,2023.2.3,Win32,60.60606061,7,1,16,0.09629631,0.081481474,1,0,0,2.6304,Basalt_09,2,09,4,5,2.63,-0.10092594,-0.243518547,1,0,0,1.287,Basalt_rect,2,1.287,1,15,0,15,0,1,,,,,,,,,,,,,
5bf311373a5bf00001401f64,SCN,2024-06-26_12h34.48.885,LearnStrategy,2023.2.3,Win32,60.60606061,7,2,1,,,,,,,,3,14,,,,,,,,,,,3,1.827,1,,,,,,0.106481481,-0.261111153,1,0,0,1.8266,Diorite_rect,0,0,0,0,1,
5bf311373a5bf00001401f64,SCN,2024-06-26_12h34.48.885,LearnStrategy,2023.2.3,Win32,60.60606061,7,2,2,,,,,,,,1,16,,,,,,,,,,,1,2.358,1,,,,,,-0.378703683,-0.247222265,1,0,0,2.3581,Andesite_rect,1,0,1,0,1,
5bf311373a5bf00001401f64,SCN,2024-06-26_12h34.48.885,LearnStrategy,2023.2.3,Win32,60.60606061,7,2,3,,,,,,,,5,05,,,,,,,,,,,5,1.944,1,,,,,,-0.378703683,-0.411111125,1,0,0,1.9435,Obsidian_rect,2,0,2,0,1,
5bf311373a5bf00001401f64,SCN,2024-06-26_12h34.48.885,LearnStrategy,2023.2.3,Win32,60.60606061,7,2,4,,,,,,,,7,04,,,,,,,,,,,7,7.011,1,,,,,,0.151851866,-0.400000042,1,0,0,7.0108,Peridotite_rect,3,0,3,0,1,
5bf311373a5bf00001401f64,SCN,2024-06-26_12h34.48.885,LearnStrategy,2023.2.3,Win32,60.60606061,7,2,5,,,,,,,,8,09,,,,,,,,,,,8,1.407,1,,,,,,0.36018527,-0.392592607,1,0,0,1.4066,Pumice_rect,4,0,4,0,1,
5bf311373a5bf00001401f64,SCN,2024-06-26_12h34.48.885,LearnStrategy,2023.2.3,Win32,60.60606061,7,2,6,,,,,,,,7,06,,,,,,,,,,,6,5.158,0,,,,,,-0.124074088,-0.401851866,1,0,0,5.1578,Pegmatite_rect,5,0,5,0,1,
5bf311373a5bf00001401f64,SCN,2024-06-26_12h34.48.885,LearnStrategy,2023.2.3,Win32,60.60606061,7,2,7,,,,,,,,6,07,,,,,,,,,,,6,2.198,1,,,,,,-0.126851824,-0.402777778,1,0,0,2.1982,Pegmatite_rect,6,0,6,0,1,
5bf311373a5bf00001401f64,SCN,2024-06-26_12h34.48.885,LearnStrategy,2023.2.3,Win32,60.60606061,7,2,8,,,,,,,,4,05,,,,,,,,,,,4,2.91,1,,,,,,0.375,-0.237037023,1,0,0,2.9095,Gabbro_rect,7,0,7,0,1,
5bf311373a5bf00001401f64,SCN,2024-06-26_12h34.48.885,LearnStrategy,2023.2.3,Win32,60.60606061,7,2,9,,,,,,,,3,12,,,,,,,,,,,3,2.006,1,,,,,,0.137962977,-0.263888889,1,0,0,2.0056,Diorite_rect,8,0,8,0,1,
5bf311373a5bf00001401f64,SCN,2024-06-26_12h34.48.885,LearnStrategy,2023.2.3,Win32,60.60606061,7,2,10,,,,,,,,1,01,,,,,,,,,,,1,2.231,1,,,,,,-0.349074081,-0.259259259,1,0,0,2.2309,Andesite_rect,9,0,9,0,1,
5bf311373a5bf00001401f64,SCN,2024-06-26_12h34.48.885,LearnStrategy,2023.2.3,Win32,60.60606061,7,2,11,,,,,,,,6,13,,,,,,,,,,,6,5.514,1,,,,,,-0.163888861,-0.410185213,1,0,0,5.5142,Pegmatite_rect,10,0,10,0,1,
5bf311373a5bf00001401f64,SCN,2024-06-26_12h34.48.885,LearnStrategy,2023.2.3,Win32,60.60606061,7,2,12,,,,,,,,8,16,,,,,,,,,,,8,1.739,1,,,,,,0.358333305,-0.398148148,1,0,0,1.7388,Pumice_rect,11,0,11,0,1,
5bf311373a5bf00001401f64,SCN,2024-06-26_12h34.48.885,LearnStrategy,2023.2.3,Win32,60.60606061,7,2,13,,,,,,,,4,14,,,,,,,,,,,4,2.164,1,,,,,,0.37962963,-0.24537037,1,0,0,2.1638,Gabbro_rect,12,0,12,0,1,
5bf311373a5bf00001401f64,SCN,2024-06-26_12h34.48.885,LearnStrategy,2023.2.3,Win32,60.60606061,7,2,14,,,,,,,,2,14,,,,,,,,,,,8,1.565,0,,,,,,0.386111083,-0.402777778,1,0,0,1.5651,Pumice_rect,13,0,13,0,1,
5bf311373a5bf00001401f64,SCN,2024-06-26_12h34.48.885,LearnStrategy,2023.2.3,Win32,60.60606061,7,2,15,,,,,,,,5,09,,,,,,,,,,,5,1.599,1,,,,,,-0.373148141,-0.389814801,1,0,0,1.5993,Obsidian_rect,14,0,14,0,1,
5bf311373a5bf00001401f64,SCN,2024-06-26_12h34.48.885,LearnStrategy,2023.2.3,Win32,60.60606061,7,2,16,,,,,,,,2,02,,,,,,,,,,,2,1.666,1,,,,,,-0.118518476,-0.25,1,0,0,1.6662,Basalt_rect,15,0,15,0,1,
5bf311373a5bf00001401f64,SCN,2024-06-26_12h34.48.885,LearnStrategy,2023.2.3,Win32,60.60606061,8,1,1,-0.522222201,-0.093518504,1,0,0,5.2974,Pegmatite_12,6,12,3,1,5.297,-0.155555513,-0.405555584,1,0,0,2.1466,Pegmatite_rect,6,2.147,1,0,0,0,0,1,,,,,,,,,,,,,
5bf311373a5bf00001401f64,SCN,2024-06-26_12h34.48.885,LearnStrategy,2023.2.3,Win32,60.60606061,8,1,2,-0.369444423,-0.115740741,1,0,0,1.0553,Pegmatite_03,6,03,3,2,1.055,-0.112962935,-0.387037065,1,0,0,2.2634,Pegmatite_rect,6,2.263,1,1,0,1,0,1,,,,,,,,,,,,,
5bf311373a5bf00001401f64,SCN,2024-06-26_12h34.48.885,LearnStrategy,2023.2.3,Win32,60.60606061,8,1,3,-0.205555527,-0.091666681,1,0,0,0.9815,Pegmatite_05,6,05,3,3,0.981,-0.12962963,-0.396296325,1,0,0,3.1345,Pegmatite_rect,6,3.134,1,2,0,2,0,1,,,,,,,,,,,,,
5bf311373a5bf00001401f64,SCN,2024-06-26_12h34.48.885,LearnStrategy,2023.2.3,Win32,60.60606061,8,1,4,-0.062037009,-0.132407436,1,0,0,1.3548,Gabbro_15,4,15,3,4,1.355,-0.362037023,-0.236111111,1,0,0,1.9995,Andesite_rect,1,1.999,0,3,0,3,0,1,,,,,,,,,,,,,
5bf311373a5bf00001401f64,SCN,2024-06-26_12h34.48.885,LearnStrategy,2023.2.3,Win32,60.60606061,8,1,5,0.555555556,-0.113888917,1,0,0,1.7059,Gabbro_09,4,09,3,8,1.706,0.439814815,-0.249074088,1,0,0,1.4218,Gabbro_rect,4,1.422,1,4,0,4,0,1,,,,,,,,,,,,,
5bf311373a5bf00001401f64,SCN,2024-06-26_12h34.48.885,LearnStrategy,2023.2.3,Win32,60.60606061,8,1,6,-0.084259245,-0.112037023,1,0,0,0.9645,Gabbro_15,4,15,3,4,0.964,0.383333418,-0.240740741,1,0,0,1.4675,Gabbro_rect,4,1.467,1,5,0,5,0,1,,,,,,,,,,,,,
5bf311373a5bf00001401f64,SCN,2024-06-26_12h34.48.885,LearnStrategy,2023.2.3,Win32,60.60606061,8,1,7,0.073148162,-0.119444459,1,0,0,0.9644,Peridotite_05,7,05,3,5,0.964,0.095370399,-0.396296325,1,0,0,2.5564,Peridotite_rect,7,2.556,1,6,0,6,0,1,,,,,,,,,,,,,
5bf311373a5bf00001401f64,SCN,2024-06-26_12h34.48.885,LearnStrategy,2023.2.3,Win32,60.60606061,8,1,8,0.24537037,-0.100000028,1,0,0,1.0977,Peridotite_14,7,14,3,6,1.098,0.119444459,-0.404629672,1,0,0,6.3584,Peridotite_rect,7,6.358,1,7,0,7,0,1,,,,,,,,,,,,,
5bf311373a5bf00001401f64,SCN,2024-06-26_12h34.48.885,LearnStrategy,2023.2.3,Win32,60.60606061,8,1,9,0.554629714,-0.250925912,1,0,0,4.1139,Pegmatite_15,6,15,2,8,4.114,-0.076851809,-0.407407407,1,0,0,1.7392,Pegmatite_rect,6,1.739,1,8,0,8,0,1,,,,,,,,,,,,,
5bf311373a5bf00001401f64,SCN,2024-06-26_12h34.48.885,LearnStrategy,2023.2.3,Win32,60.60606061,8,1,10,0.412963019,-0.267592607,1,0,0,1.1821,Gabbro_11,4,11,2,7,1.182,0.40833339,-0.249074088,1,0,0,2.5497,Gabbro_rect,4,2.55,1,9,0,9,0,1,,,,,,,,,,,,,
5bf311373a5bf00001401f64,SCN,2024-06-26_12h34.48.885,LearnStrategy,2023.2.3,Win32,60.60606061,8,1,11,0.234259288,-0.281481496,1,0,0,2.6972,Gabbro_08,4,08,2,6,2.697,0.411111196,-0.262037065,1,0,0,2.4016,Gabbro_rect,4,2.402,1,10,0,10,0,1,,,,,,,,,,,,,
5bf311373a5bf00001401f64,SCN,2024-06-26_12h34.48.885,LearnStrategy,2023.2.3,Win32,60.60606061,8,1,12,0.079629616,-0.289814843,1,0,0,1.514,Basalt_10,2,10,2,5,1.514,-0.131481453,-0.242592635,1,0,0,1.9102,Basalt_rect,2,1.91,1,11,0,11,0,1,,,,,,,,,,,,,
5bf311373a5bf00001401f64,SCN,2024-06-26_12h34.48.885,LearnStrategy,2023.2.3,Win32,60.60606061,8,1,13,-0.210185157,-0.247222265,1,0,0,1.4654,Andesite_11,1,11,2,3,1.465,-0.36296297,-0.25462963,1,0,0,2.2596,Andesite_rect,1,2.26,1,12,0,12,0,1,,,,,,,,,,,,,
5bf311373a5bf00001401f64,SCN,2024-06-26_12h34.48.885,LearnStrategy,2023.2.3,Win32,60.60606061,8,1,14,-0.229629587,-0.383333347,1,0,0,1.2488,Gabbro_03,4,03,1,3,1.249,0.425000085,-0.257407436,1,0,0,3.7644,Gabbro_rect,4,3.764,1,13,0,13,0,1,,,,,,,,,,,,,
5bf311373a5bf00001401f64,SCN,2024-06-26_12h34.48.885,LearnStrategy,2023.2.3,Win32,60.60606061,8,1,15,-0.07222218,-0.404629672,1,0,0,1.3457,Pegmatite_11,6,11,1,4,1.346,-0.073148162,-0.404629672,1,0,0,0.7565,Pegmatite_rect,6,0.756,1,14,0,14,0,1,,,,,,,,,,,,,
5bf311373a5bf00001401f64,SCN,2024-06-26_12h34.48.885,LearnStrategy,2023.2.3,Win32,60.60606061,8,1,16,0.376851824,-0.436111097,1,0,0,1.1135,Andesite_10,1,10,1,7,1.113,-0.377777771,-0.235185199,1,0,0,2.285,Andesite_rect,1,2.285,1,15,0,15,0,1,,,,,,,,,,,,,
5bf311373a5bf00001401f64,SCN,2024-06-26_12h34.48.885,LearnStrategy,2023.2.3,Win32,60.60606061,8,2,1,,,,,,,,5,07,,,,,,,,,,,5,1.692,1,,,,,,-0.429629608,-0.401851866,1,0,0,1.6924,Obsidian_rect,0,0,0,0,1,
5bf311373a5bf00001401f64,SCN,2024-06-26_12h34.48.885,LearnStrategy,2023.2.3,Win32,60.60606061,8,2,2,,,,,,,,7,10,,,,,,,,,,,7,3.194,1,,,,,,0.132407436,-0.410185213,1,0,0,3.1938,Peridotite_rect,1,0,1,0,1,
5bf311373a5bf00001401f64,SCN,2024-06-26_12h34.48.885,LearnStrategy,2023.2.3,Win32,60.60606061,8,2,3,,,,,,,,8,08,,,,,,,,,,,8,2.91,1,,,,,,0.405555584,-0.411111125,1,0,0,2.9103,Pumice_rect,2,0,2,0,1,
5bf311373a5bf00001401f64,SCN,2024-06-26_12h34.48.885,LearnStrategy,2023.2.3,Win32,60.60606061,8,2,4,,,,,,,,4,10,,,,,,,,,,,4,3.537,1,,,,,,0.41851849,-0.248148176,1,0,0,3.5366,Gabbro_rect,3,0,3,0,1,
5bf311373a5bf00001401f64,SCN,2024-06-26_12h34.48.885,LearnStrategy,2023.2.3,Win32,60.60606061,8,2,5,,,,,,,,5,14,,,,,,,,,,,5,1.668,1,,,,,,-0.392592571,-0.397222236,1,0,0,1.6675,Obsidian_rect,4,0,4,0,1,
5bf311373a5bf00001401f64,SCN,2024-06-26_12h34.48.885,LearnStrategy,2023.2.3,Win32,60.60606061,8,2,6,,,,,,,,8,10,,,,,,,,,,,8,1.449,1,,,,,,0.392592677,-0.412037037,1,0,0,1.4489,Pumice_rect,5,0,5,0,1,
5bf311373a5bf00001401f64,SCN,2024-06-26_12h34.48.885,LearnStrategy,2023.2.3,Win32,60.60606061,8,2,7,,,,,,,,3,06,,,,,,,,,,,3,19.056,1,,,,,,0.127777806,-0.265740783,1,0,0,19.0565,Diorite_rect,6,0,6,0,1,
5bf311373a5bf00001401f64,SCN,2024-06-26_12h34.48.885,LearnStrategy,2023.2.3,Win32,60.60606061,8,2,8,,,,,,,,6,16,,,,,,,,,,,6,3.821,1,,,,,,-0.125925912,-0.40370369,1,0,0,3.8209,Pegmatite_rect,7,0,7,0,1,
5bf311373a5bf00001401f64,SCN,2024-06-26_12h34.48.885,LearnStrategy,2023.2.3,Win32,60.60606061,8,2,9,,,,,,,,2,08,,,,,,,,,,,2,1.426,1,,,,,,-0.128703718,-0.244444459,1,0,0,1.4262,Basalt_rect,8,0,8,0,1,
5bf311373a5bf00001401f64,SCN,2024-06-26_12h34.48.885,LearnStrategy,2023.2.3,Win32,60.60606061,8,2,10,,,,,,,,7,15,,,,,,,,,,,7,1.358,1,,,,,,0.114814829,-0.412037037,1,0,0,1.358,Peridotite_rect,9,0,9,0,1,
5bf311373a5bf00001401f64,SCN,2024-06-26_12h34.48.885,LearnStrategy,2023.2.3,Win32,60.60606061,8,2,11,,,,,,,,1,04,,,,,,,,,,,1,2.556,1,,,,,,-0.39907406,-0.25,1,0,0,2.556,Andesite_rect,10,0,10,0,1,
5bf311373a5bf00001401f64,SCN,2024-06-26_12h34.48.885,LearnStrategy,2023.2.3,Win32,60.60606061,8,2,12,,,,,,,,3,08,,,,,,,,,,,3,1.484,1,,,,,,0.10555557,-0.265740783,1,0,0,1.4844,Diorite_rect,11,0,11,0,1,
5bf311373a5bf00001401f64,SCN,2024-06-26_12h34.48.885,LearnStrategy,2023.2.3,Win32,60.60606061,8,2,13,,,,,,,,4,12,,,,,,,,,,,4,1.522,1,,,,,,0.400925954,-0.260185171,1,0,0,1.5221,Gabbro_rect,12,0,12,0,1,
5bf311373a5bf00001401f64,SCN,2024-06-26_12h34.48.885,LearnStrategy,2023.2.3,Win32,60.60606061,8,2,14,,,,,,,,6,08,,,,,,,,,,,6,1.284,1,,,,,,-0.108333305,-0.412037037,1,0,0,1.2842,Pegmatite_rect,13,0,13,0,1,
5bf311373a5bf00001401f64,SCN,2024-06-26_12h34.48.885,LearnStrategy,2023.2.3,Win32,60.60606061,8,2,15,,,,,,,,1,03,,,,,,,,,,,1,1.331,1,,,,,,-0.446296303,-0.237963005,1,0,0,1.3312,Andesite_rect,14,0,14,0,1,
5bf311373a5bf00001401f64,SCN,2024-06-26_12h34.48.885,LearnStrategy,2023.2.3,Win32,60.60606061,8,2,16,,,,,,,,2,11,,,,,,,,,,,8,2.113,0,,,,,,0.374074159,-0.402777778,1,0,0,2.1131,Pumice_rect,15,0,15,0,1,
5bf311373a5bf00001401f64,SCN,2024-06-26_12h34.48.885,LearnStrategy,2023.2.3,Win32,60.60606061,9,1,1,0.07222225,0.065740727,1,0,0,1.145,Basalt_09,2,09,4,5,1.145,0.412963019,-0.248148176,1,0,0,1.9891,Gabbro_rect,4,1.989,0,0,0,0,0,1,,,,,,,,,,,,,
5bf311373a5bf00001401f64,SCN,2024-06-26_12h34.48.885,LearnStrategy,2023.2.3,Win32,60.60606061,9,1,2,0.059259273,0.263888889,1,0,0,2.6214,Peridotite_08,7,08,5,5,2.621,0.114814829,-0.384259259,1,0,0,2.3398,Peridotite_rect,7,2.34,1,1,0,1,0,1,,,,,,,,,,,,,
5bf311373a5bf00001401f64,SCN,2024-06-26_12h34.48.885,LearnStrategy,2023.2.3,Win32,60.60606061,9,1,3,-0.381481489,0.268518519,1,0,0,1.1311,Diorite_15,3,15,5,2,1.131,0.3648149,-0.264814801,1,0,0,11.4789,Gabbro_rect,4,11.479,0,2,0,2,0,1,,,,,,,,,,,,,
5bf311373a5bf00001401f64,SCN,2024-06-26_12h34.48.885,LearnStrategy,2023.2.3,Win32,60.60606061,9,1,4,0.208333333,0.271296289,1,0,0,2.355,Diorite_11,3,11,5,6,2.355,0.159259302,-0.261111153,1,0,0,1.5626,Diorite_rect,3,1.563,1,3,0,3,0,1,,,,,,,,,,,,,
5bf311373a5bf00001401f64,SCN,2024-06-26_12h34.48.885,LearnStrategy,2023.2.3,Win32,60.60606061,9,1,5,-0.053703661,-0.25462963,1,0,0,2.3873,Peridotite_12,7,12,2,4,2.387,0.113888917,-0.257407436,1,0,0,5.9934,Diorite_rect,3,5.993,0,4,0,4,0,1,,,,,,,,,,,,,
5bf311373a5bf00001401f64,SCN,2024-06-26_12h34.48.885,LearnStrategy,2023.2.3,Win32,60.60606061,9,1,6,-0.095370328,-0.247222265,1,0,0,2.3044,Peridotite_12,7,12,2,4,2.304,-0.137962977,-0.39907406,1,0,0,1.5824,Pegmatite_rect,6,1.582,0,5,0,5,0,1,,,,,,,,,,,,,
5bf311373a5bf00001401f64,SCN,2024-06-26_12h34.48.885,LearnStrategy,2023.2.3,Win32,60.60606061,9,1,7,-0.060185185,0.086111104,1,0,0,2.1377,Peridotite_13,7,13,4,4,2.138,0.102777764,-0.405555584,1,0,0,2.3625,Peridotite_rect,7,2.362,1,6,0,6,0,1,,,,,,,,,,,,,
5bf311373a5bf00001401f64,SCN,2024-06-26_12h34.48.885,LearnStrategy,2023.2.3,Win32,60.60606061,9,1,8,-0.398148148,-0.376851894,1,0,0,2.2323,Diorite_07,3,07,1,2,2.232,0.126851894,-0.244444459,1,0,0,1.482,Diorite_rect,3,1.482,1,7,0,7,0,1,,,,,,,,,,,,,
5bf311373a5bf00001401f64,SCN,2024-06-26_12h34.48.885,LearnStrategy,2023.2.3,Win32,60.60606061,9,1,9,0.250925912,0.096296275,1,0,0,2.8851,Diorite_09,3,09,4,6,2.885,0.127777806,-0.239814829,1,0,0,3.0183,Diorite_rect,3,3.018,1,8,0,8,0,1,,,,,,,,,,,,,
5bf311373a5bf00001401f64,SCN,2024-06-26_12h34.48.885,LearnStrategy,2023.2.3,Win32,60.60606061,9,1,10,-0.3675926,-0.413888931,1,0,0,0.9713,Diorite_07,3,07,1,2,0.971,0.109259288,-0.259259259,1,0,0,3.5095,Diorite_rect,3,3.509,1,9,0,9,0,1,,,,,,,,,,,,,
5bf311373a5bf00001401f64,SCN,2024-06-26_12h34.48.885,LearnStrategy,2023.2.3,Win32,60.60606061,9,1,11,0.237037023,0.260185189,1,0,0,1.7374,Diorite_11,3,11,5,6,1.737,0.121296282,-0.252777806,1,0,0,2.2078,Diorite_rect,3,2.208,1,10,0,10,0,1,,,,,,,,,,,,,
5bf311373a5bf00001401f64,SCN,2024-06-26_12h34.48.885,LearnStrategy,2023.2.3,Win32,60.60606061,9,1,12,-0.244444459,-0.10092594,1,0,0,1.865,Pegmatite_05,6,05,3,3,1.865,-0.166666667,-0.398148148,1,0,0,2.6081,Pegmatite_rect,6,2.608,1,11,0,11,0,1,,,,,,,,,,,,,
5bf311373a5bf00001401f64,SCN,2024-06-26_12h34.48.885,LearnStrategy,2023.2.3,Win32,60.60606061,9,1,13,-0.560185185,0.247222212,1,0,0,2.5304,Gabbro_01,4,01,5,1,2.53,0.378703788,-0.238888917,1,0,0,3.2816,Gabbro_rect,4,3.282,1,12,0,12,0,1,,,,,,,,,,,,,
5bf311373a5bf00001401f64,SCN,2024-06-26_12h34.48.885,LearnStrategy,2023.2.3,Win32,60.60606061,9,1,14,0.580555527,0.110185164,1,0,0,1.2221,Basalt_05,2,05,4,8,1.222,-0.15370369,-0.258333347,1,0,0,1.2628,Basalt_rect,2,1.263,1,13,0,13,0,1,,,,,,,,,,,,,
5bf311373a5bf00001401f64,SCN,2024-06-26_12h34.48.885,LearnStrategy,2023.2.3,Win32,60.60606061,9,1,15,0.237963005,0.388888889,1,0,0,1.3654,Andesite_05,1,05,6,6,1.365,-0.396296289,-0.249074088,1,0,0,1.6776,Andesite_rect,1,1.678,1,14,0,14,0,1,,,,,,,,,,,,,
5bf311373a5bf00001401f64,SCN,2024-06-26_12h34.48.885,LearnStrategy,2023.2.3,Win32,60.60606061,9,1,16,0.044444473,0.092592593,1,0,0,2.0238,Basalt_09,2,09,4,5,2.024,-0.170370384,-0.233333376,1,0,0,1.0319,Basalt_rect,2,1.032,1,15,0,15,0,1,,,,,,,,,,,,,
5bf311373a5bf00001401f64,SCN,2024-06-26_12h34.48.885,LearnStrategy,2023.2.3,Win32,60.60606061,9,2,1,,,,,,,,6,09,,,,,,,,,,,6,3.352,1,,,,,,-0.101851852,-0.396296325,1,0,0,3.3521,Pegmatite_rect,0,0,0,0,1,
5bf311373a5bf00001401f64,SCN,2024-06-26_12h34.48.885,LearnStrategy,2023.2.3,Win32,60.60606061,9,2,2,,,,,,,,8,15,,,,,,,,,,,8,1.717,1,,,,,,0.367592564,-0.393518519,1,0,0,1.717,Pumice_rect,1,0,1,0,1,
5bf311373a5bf00001401f64,SCN,2024-06-26_12h34.48.885,LearnStrategy,2023.2.3,Win32,60.60606061,9,2,3,,,,,,,,2,01,,,,,,,,,,,2,1.381,1,,,,,,-0.134259259,-0.264814801,1,0,0,1.3813,Basalt_rect,2,0,2,0,1,
5bf311373a5bf00001401f64,SCN,2024-06-26_12h34.48.885,LearnStrategy,2023.2.3,Win32,60.60606061,9,2,4,,,,,,,,7,02,,,,,,,,,,,7,1.824,1,,,,,,0.108333376,-0.406481496,1,0,0,1.8241,Peridotite_rect,3,0,3,0,1,
5bf311373a5bf00001401f64,SCN,2024-06-26_12h34.48.885,LearnStrategy,2023.2.3,Win32,60.60606061,9,2,5,,,,,,,,4,16,,,,,,,,,,,4,4.187,1,,,,,,0.394444501,-0.229629658,1,0,0,4.1865,Gabbro_rect,4,0,4,0,1,
5bf311373a5bf00001401f64,SCN,2024-06-26_12h34.48.885,LearnStrategy,2023.2.3,Win32,60.60606061,9,2,6,,,,,,,,3,16,,,,,,,,,,,3,1.754,1,,,,,,0.136111153,-0.252777806,1,0,0,1.7535,Diorite_rect,5,0,5,0,1,
5bf311373a5bf00001401f64,SCN,2024-06-26_12h34.48.885,LearnStrategy,2023.2.3,Win32,60.60606061,9,2,7,,,,,,,,1,07,,,,,,,,,,,3,2.684,0,,,,,,0.125,-0.264814801,1,0,0,2.6836,Diorite_rect,6,0,6,0,1,
5bf311373a5bf00001401f64,SCN,2024-06-26_12h34.48.885,LearnStrategy,2023.2.3,Win32,60.60606061,9,2,8,,,,,,,,8,14,,,,,,,,,,,8,1.402,1,,,,,,0.390740712,-0.408333319,1,0,0,1.4025,Pumice_rect,7,0,7,0,1,
5bf311373a5bf00001401f64,SCN,2024-06-26_12h34.48.885,LearnStrategy,2023.2.3,Win32,60.60606061,9,2,9,,,,,,,,5,08,,,,,,,,,,,5,1.373,1,,,,,,-0.375925912,-0.39444443,1,0,0,1.373,Obsidian_rect,8,0,8,0,1,
5bf311373a5bf00001401f64,SCN,2024-06-26_12h34.48.885,LearnStrategy,2023.2.3,Win32,60.60606061,9,2,10,,,,,,,,4,13,,,,,,,,,,,4,2.599,1,,,,,,0.385185242,-0.237963005,1,0,0,2.5989,Gabbro_rect,9,0,9,0,1,
5bf311373a5bf00001401f64,SCN,2024-06-26_12h34.48.885,LearnStrategy,2023.2.3,Win32,60.60606061,9,2,11,,,,,,,,3,02,,,,,,,,,,,3,1.395,1,,,,,,0.150000042,-0.266666695,1,0,0,1.3946,Diorite_rect,10,0,10,0,1,
5bf311373a5bf00001401f64,SCN,2024-06-26_12h34.48.885,LearnStrategy,2023.2.3,Win32,60.60606061,9,2,12,,,,,,,,2,12,,,,,,,,,,,8,1.306,0,,,,,,0.373148176,-0.397222236,1,0,0,1.3064,Pumice_rect,11,0,11,0,1,
5bf311373a5bf00001401f64,SCN,2024-06-26_12h34.48.885,LearnStrategy,2023.2.3,Win32,60.60606061,9,2,13,,,,,,,,5,06,,,,,,,,,,,5,1.389,1,,,,,,-0.408333319,-0.388888889,1,0,0,1.3892,Obsidian_rect,12,0,12,0,1,
5bf311373a5bf00001401f64,SCN,2024-06-26_12h34.48.885,LearnStrategy,2023.2.3,Win32,60.60606061,9,2,14,,,,,,,,6,06,,,,,,,,,,,6,1.312,1,,,,,,-0.139814801,-0.396296325,1,0,0,1.3122,Pegmatite_rect,13,0,13,0,1,
5bf311373a5bf00001401f64,SCN,2024-06-26_12h34.48.885,LearnStrategy,2023.2.3,Win32,60.60606061,9,2,15,,,,,,,,7,16,,,,,,,,,,,7,3.4,1,,,,,,0.087962963,-0.382407436,1,0,0,3.3997,Peridotite_rect,14,0,14,0,1,
5bf311373a5bf00001401f64,SCN,2024-06-26_12h34.48.885,LearnStrategy,2023.2.3,Win32,60.60606061,9,2,16,,,,,,,,1,14,,,,,,,,,,,1,1.993,1,,,,,,-0.378703683,-0.25462963,1,0,0,1.9934,Andesite_rect,15,0,15,0,1,
5bf311373a5bf00001401f64,SCN,2024-06-26_12h34.48.885,LearnStrategy,2023.2.3,Win32,60.60606061,,,,,,,,,,,,,,,,,,,,,,,,,,,,,,,,,,,,,,,,,,,1
5bf311373a5bf00001401f64,SCN,2024-06-26_12h34.48.885,LearnStrategy,2023.2.3,Win32,60.60606061,,,,,,,,,,,,,,,,,,,,,,,,,,,,,,,,,,,,,,,,,,,
5bf311373a5bf00001401f64,SCN,2024-06-26_12h34.48.885,LearnStrategy,2023.2.3,Win32,60.60606061,,,,,,,,,,,2,06,1,1,,,,,,,,,,,,,,,,,,,,,,,,,,,,,
5bf311373a5bf00001401f64,SCN,2024-06-26_12h34.48.885,LearnStrategy,2023.2.3,Win32,60.60606061,,,,,,,,,,,3,07,1,2,,,,,,,,,,,,,,,,,,,,,,,,,,,,,
5bf311373a5bf00001401f64,SCN,2024-06-26_12h34.48.885,LearnStrategy,2023.2.3,Win32,60.60606061,,,,,,,,,,,4,03,1,3,,,,,,,,,,,,,,,,,,,,,,,,,,,,,
5bf311373a5bf00001401f64,SCN,2024-06-26_12h34.48.885,LearnStrategy,2023.2.3,Win32,60.60606061,,,,,,,,,,,6,11,1,4,,,,,,,,,,,,,,,,,,,,,,,,,,,,,
5bf311373a5bf00001401f64,SCN,2024-06-26_12h34.48.885,LearnStrategy,2023.2.3,Win32,60.60606061,,,,,,,,,,,1,09,1,5,,,,,,,,,,,,,,,,,,,,,,,,,,,,,
5bf311373a5bf00001401f64,SCN,2024-06-26_12h34.48.885,LearnStrategy,2023.2.3,Win32,60.60606061,,,,,,,,,,,1,06,1,6,,,,,,,,,,,,,,,,,,,,,,,,,,,,,
5bf311373a5bf00001401f64,SCN,2024-06-26_12h34.48.885,LearnStrategy,2023.2.3,Win32,60.60606061,,,,,,,,,,,1,10,1,7,,,,,,,,,,,,,,,,,,,,,,,,,,,,,
5bf311373a5bf00001401f64,SCN,2024-06-26_12h34.48.885,LearnStrategy,2023.2.3,Win32,60.60606061,,,,,,,,,,,7,07,1,8,,,,,,,,,,,,,,,,,,,,,,,,,,,,,
5bf311373a5bf00001401f64,SCN,2024-06-26_12h34.48.885,LearnStrategy,2023.2.3,Win32,60.60606061,,,,,,,,,,,8,06,2,1,,,,,,,,,,,,,,,,,,,,,,,,,,,,,
5bf311373a5bf00001401f64,SCN,2024-06-26_12h34.48.885,LearnStrategy,2023.2.3,Win32,60.60606061,,,,,,,,,,,8,03,2,2,,,,,,,,,,,,,,,,,,,,,,,,,,,,,
5bf311373a5bf00001401f64,SCN,2024-06-26_12h34.48.885,LearnStrategy,2023.2.3,Win32,60.60606061,,,,,,,,,,,1,11,2,3,,,,,,,,,,,,,,,,,,,,,,,,,,,,,
5bf311373a5bf00001401f64,SCN,2024-06-26_12h34.48.885,LearnStrategy,2023.2.3,Win32,60.60606061,,,,,,,,,,,7,12,2,4,,,,,,,,,,,,,,,,,,,,,,,,,,,,,
5bf311373a5bf00001401f64,SCN,2024-06-26_12h34.48.885,LearnStrategy,2023.2.3,Win32,60.60606061,,,,,,,,,,,2,10,2,5,,,,,,,,,,,,,,,,,,,,,,,,,,,,,
5bf311373a5bf00001401f64,SCN,2024-06-26_12h34.48.885,LearnStrategy,2023.2.3,Win32,60.60606061,,,,,,,,,,,4,08,2,6,,,,,,,,,,,,,,,,,,,,,,,,,,,,,
5bf311373a5bf00001401f64,SCN,2024-06-26_12h34.48.885,LearnStrategy,2023.2.3,Win32,60.60606061,,,,,,,,,,,4,11,2,7,,,,,,,,,,,,,,,,,,,,,,,,,,,,,
5bf311373a5bf00001401f64,SCN,2024-06-26_12h34.48.885,LearnStrategy,2023.2.3,Win32,60.60606061,,,,,,,,,,,6,15,2,8,,,,,,,,,,,,,,,,,,,,,,,,,,,,,
5bf311373a5bf00001401f64,SCN,2024-06-26_12h34.48.885,LearnStrategy,2023.2.3,Win32,60.60606061,,,,,,,,,,,6,12,3,1,,,,,,,,,,,,,,,,,,,,,,,,,,,,,
5bf311373a5bf00001401f64,SCN,2024-06-26_12h34.48.885,LearnStrategy,2023.2.3,Win32,60.60606061,,,,,,,,,,,6,03,3,2,,,,,,,,,,,,,,,,,,,,,,,,,,,,,
5bf311373a5bf00001401f64,SCN,2024-06-26_12h34.48.885,LearnStrategy,2023.2.3,Win32,60.60606061,,,,,,,,,,,6,05,3,3,,,,,,,,,,,,,,,,,,,,,,,,,,,,,
5bf311373a5bf00001401f64,SCN,2024-06-26_12h34.48.885,LearnStrategy,2023.2.3,Win32,60.60606061,,,,,,,,,,,4,15,3,4,,,,,,,,,,,,,,,,,,,,,,,,,,,,,
5bf311373a5bf00001401f64,SCN,2024-06-26_12h34.48.885,LearnStrategy,2023.2.3,Win32,60.60606061,,,,,,,,,,,7,05,3,5,,,,,,,,,,,,,,,,,,,,,,,,,,,,,
5bf311373a5bf00001401f64,SCN,2024-06-26_12h34.48.885,LearnStrategy,2023.2.3,Win32,60.60606061,,,,,,,,,,,7,14,3,6,,,,,,,,,,,,,,,,,,,,,,,,,,,,,
5bf311373a5bf00001401f64,SCN,2024-06-26_12h34.48.885,LearnStrategy,2023.2.3,Win32,60.60606061,,,,,,,,,,,5,04,3,7,,,,,,,,,,,,,,,,,,,,,,,,,,,,,
5bf311373a5bf00001401f64,SCN,2024-06-26_12h34.48.885,LearnStrategy,2023.2.3,Win32,60.60606061,,,,,,,,,,,4,09,3,8,,,,,,,,,,,,,,,,,,,,,,,,,,,,,
5bf311373a5bf00001401f64,SCN,2024-06-26_12h34.48.885,LearnStrategy,2023.2.3,Win32,60.60606061,,,,,,,,,,,2,04,4,1,,,,,,,,,,,,,,,,,,,,,,,,,,,,,
5bf311373a5bf00001401f64,SCN,2024-06-26_12h34.48.885,LearnStrategy,2023.2.3,Win32,60.60606061,,,,,,,,,,,3,10,4,2,,,,,,,,,,,,,,,,,,,,,,,,,,,,,
5bf311373a5bf00001401f64,SCN,2024-06-26_12h34.48.885,LearnStrategy,2023.2.3,Win32,60.60606061,,,,,,,,,,,8,05,4,3,,,,,,,,,,,,,,,,,,,,,,,,,,,,,
5bf311373a5bf00001401f64,SCN,2024-06-26_12h34.48.885,LearnStrategy,2023.2.3,Win32,60.60606061,,,,,,,,,,,7,13,4,4,,,,,,,,,,,,,,,,,,,,,,,,,,,,,
5bf311373a5bf00001401f64,SCN,2024-06-26_12h34.48.885,LearnStrategy,2023.2.3,Win32,60.60606061,,,,,,,,,,,2,09,4,5,,,,,,,,,,,,,,,,,,,,,,,,,,,,,
5bf311373a5bf00001401f64,SCN,2024-06-26_12h34.48.885,LearnStrategy,2023.2.3,Win32,60.60606061,,,,,,,,,,,3,09,4,6,,,,,,,,,,,,,,,,,,,,,,,,,,,,,
5bf311373a5bf00001401f64,SCN,2024-06-26_12h34.48.885,LearnStrategy,2023.2.3,Win32,60.60606061,,,,,,,,,,,5,10,4,7,,,,,,,,,,,,,,,,,,,,,,,,,,,,,
5bf311373a5bf00001401f64,SCN,2024-06-26_12h34.48.885,LearnStrategy,2023.2.3,Win32,60.60606061,,,,,,,,,,,2,05,4,8,,,,,,,,,,,,,,,,,,,,,,,,,,,,,
5bf311373a5bf00001401f64,SCN,2024-06-26_12h34.48.885,LearnStrategy,2023.2.3,Win32,60.60606061,,,,,,,,,,,4,01,5,1,,,,,,,,,,,,,,,,,,,,,,,,,,,,,
5bf311373a5bf00001401f64,SCN,2024-06-26_12h34.48.885,LearnStrategy,2023.2.3,Win32,60.60606061,,,,,,,,,,,3,15,5,2,,,,,,,,,,,,,,,,,,,,,,,,,,,,,
5bf311373a5bf00001401f64,SCN,2024-06-26_12h34.48.885,LearnStrategy,2023.2.3,Win32,60.60606061,,,,,,,,,,,1,02,5,3,,,,,,,,,,,,,,,,,,,,,,,,,,,,,
5bf311373a5bf00001401f64,SCN,2024-06-26_12h34.48.885,LearnStrategy,2023.2.3,Win32,60.60606061,,,,,,,,,,,5,11,5,4,,,,,,,,,,,,,,,,,,,,,,,,,,,,,
5bf311373a5bf00001401f64,SCN,2024-06-26_12h34.48.885,LearnStrategy,2023.2.3,Win32,60.60606061,,,,,,,,,,,7,08,5,5,,,,,,,,,,,,,,,,,,,,,,,,,,,,,
5bf311373a5bf00001401f64,SCN,2024-06-26_12h34.48.885,LearnStrategy,2023.2.3,Win32,60.60606061,,,,,,,,,,,3,11,5,6,,,,,,,,,,,,,,,,,,,,,,,,,,,,,
5bf311373a5bf00001401f64,SCN,2024-06-26_12h34.48.885,LearnStrategy,2023.2.3,Win32,60.60606061,,,,,,,,,,,5,02,5,7,,,,,,,,,,,,,,,,,,,,,,,,,,,,,
5bf311373a5bf00001401f64,SCN,2024-06-26_12h34.48.885,LearnStrategy,2023.2.3,Win32,60.60606061,,,,,,,,,,,8,02,5,8,,,,,,,,,,,,,,,,,,,,,,,,,,,,,
5bf311373a5bf00001401f64,SCN,2024-06-26_12h34.48.885,LearnStrategy,2023.2.3,Win32,60.60606061,,,,,,,,,,,6,10,6,1,,,,,,,,,,,,,,,,,,,,,,,,,,,,,
5bf311373a5bf00001401f64,SCN,2024-06-26_12h34.48.885,LearnStrategy,2023.2.3,Win32,60.60606061,,,,,,,,,,,8,13,6,2,,,,,,,,,,,,,,,,,,,,,,,,,,,,,
5bf311373a5bf00001401f64,SCN,2024-06-26_12h34.48.885,LearnStrategy,2023.2.3,Win32,60.60606061,,,,,,,,,,,2,16,6,3,,,,,,,,,,,,,,,,,,,,,,,,,,,,,
5bf311373a5bf00001401f64,SCN,2024-06-26_12h34.48.885,LearnStrategy,2023.2.3,Win32,60.60606061,,,,,,,,,,,5,16,6,4,,,,,,,,,,,,,,,,,,,,,,,,,,,,,
5bf311373a5bf00001401f64,SCN,2024-06-26_12h34.48.885,LearnStrategy,2023.2.3,Win32,60.60606061,,,,,,,,,,,3,13,6,5,,,,,,,,,,,,,,,,,,,,,,,,,,,,,
5bf311373a5bf00001401f64,SCN,2024-06-26_12h34.48.885,LearnStrategy,2023.2.3,Win32,60.60606061,,,,,,,,,,,1,05,6,6,,,,,,,,,,,,,,,,,,,,,,,,,,,,,
5bf311373a5bf00001401f64,SCN,2024-06-26_12h34.48.885,LearnStrategy,2023.2.3,Win32,60.60606061,,,,,,,,,,,8,04,6,7,,,,,,,,,,,,,,,,,,,,,,,,,,,,,
5bf311373a5bf00001401f64,SCN,2024-06-26_12h34.48.885,LearnStrategy,2023.2.3,Win32,60.60606061,,,,,,,,,,,5,12,6,8,,,,,,,,,,,,,,,,,,,,,,,,,,,,,