participant,condition,date,expName,psychopyVersion,OS,frameRate,block,phase,trial,learn_mouse.x,learn_mouse.y,learn_mouse.leftButton,learn_mouse.midButton,learn_mouse.rightButton,learn_mouse.time,learn_mouse.clicked_name,cat,token,row,col,t_select,cat_rec,token_rec,cat_mouse_l.x,cat_mouse_l.y,cat_mouse_l.leftButton,cat_mouse_l.midButton,cat_mouse_l.rightButton,cat_mouse_l.time,cat_mouse_l.clicked_name,resp,t_resp,corr,train_trials.thisRepN,train_trials.thisTrialN,train_trials.thisN,train_trials.thisIndex,train_trials.ran,cat_mouse_t.x,cat_mouse_t.y,cat_mouse_t.leftButton,cat_mouse_t.midButton,cat_mouse_t.rightButton,cat_mouse_t.time,cat_mouse_t.clicked_name,test_trials.thisRepN,test_trials.thisTrialN,test_trials.thisN,test_trials.thisIndex,test_trials.ran,Bonus
5c1976c90d57c30001b4162c,SCR,2024-06-11_12h15.04.325,LearnStrategy,2023.2.3,Win32,60.24096386,,,,,,,,,,,,,,,,,,,,,,,,,,,,,,,,,,,,,,,,,,,,,
5c1976c90d57c30001b4162c,SCR,2024-06-11_12h15.04.325,LearnStrategy,2023.2.3,Win32,60.24096386,1,1,1,-0.565740727,-0.08888891,1,0,0,3.6965,Basalt_16,2,16,3,1,3.696,2,16,0.416666667,-0.390740783,1,0,0,15.5851,Pumice_rect,8,15.585,0,0,0,0,0,1,,,,,,,,,,,,,
5c1976c90d57c30001b4162c,SCR,2024-06-11_12h15.04.325,LearnStrategy,2023.2.3,Win32,60.24096386,1,1,2,0.053703732,0.224999993,1,0,0,2.2392,Andesite_14,1,14,5,5,2.239,1,14,0.416666667,-0.252777806,1,0,0,8.2806,Gabbro_rect,4,8.281,0,1,0,1,0,1,,,,,,,,,,,,,
5c1976c90d57c30001b4162c,SCR,2024-06-11_12h15.04.325,LearnStrategy,2023.2.3,Win32,60.24096386,1,1,3,-0.534259266,0.25462963,1,0,0,1.9493,Pegmatite_08,6,08,5,1,1.949,6,08,0.443518603,-0.238888917,1,0,0,9.8517,Gabbro_rect,4,9.852,0,2,0,2,0,1,,,,,,,,,,,,,
5c1976c90d57c30001b4162c,SCR,2024-06-11_12h15.04.325,LearnStrategy,2023.2.3,Win32,60.24096386,1,1,4,-0.437962956,-0.078703704,1,0,0,1.7779,Pegmatite_06,6,06,3,2,1.778,6,06,0.437037009,-0.235185199,1,0,0,8.34,Gabbro_rect,4,8.34,0,3,0,3,0,1,,,,,,,,,,,,,
5c1976c90d57c30001b4162c,SCR,2024-06-11_12h15.04.325,LearnStrategy,2023.2.3,Win32,60.24096386,1,1,5,0.244444459,-0.08888891,1,0,0,1.7058,Obsidian_07,5,07,3,6,1.706,5,07,-0.435185185,-0.397222236,1,0,0,6.8725,Obsidian_rect,5,6.873,1,4,0,4,0,1,,,,,,,,,,,,,
5c1976c90d57c30001b4162c,SCR,2024-06-11_12h15.04.325,LearnStrategy,2023.2.3,Win32,60.24096386,1,1,6,0.25462963,-0.250925912,1,0,0,2.2297,Basalt_01,2,01,2,6,2.23,2,01,0.150925954,-0.24537037,1,0,0,13.7693,Diorite_rect,3,13.769,0,5,0,5,0,1,,,,,,,,,,,,,
5c1976c90d57c30001b4162c,SCR,2024-06-11_12h15.04.325,LearnStrategy,2023.2.3,Win32,60.24096386,1,1,7,-0.529629637,-0.251851894,1,0,0,2.0853,Andesite_11,1,11,2,1,2.085,1,11,-0.424074067,-0.233333376,1,0,0,5.574,Andesite_rect,1,5.574,1,6,0,6,0,1,,,,,,,,,,,,,
5c1976c90d57c30001b4162c,SCR,2024-06-11_12h15.04.325,LearnStrategy,2023.2.3,Win32,60.24096386,1,1,8,-0.234259217,0.232407411,1,0,0,1.5894,Pumice_13,8,13,5,3,1.589,8,13,0.157407407,-0.252777806,1,0,0,8.6431,Diorite_rect,3,8.643,0,7,0,7,0,1,,,,,,,,,,,,,
5c1976c90d57c30001b4162c,SCR,2024-06-11_12h15.04.325,LearnStrategy,2023.2.3,Win32,60.24096386,1,1,9,-0.250925912,0.089814822,1,0,0,2.0179,Pumice_14,8,14,4,3,2.018,8,14,-0.131481453,-0.250925912,1,0,0,8.4005,Basalt_rect,2,8.401,0,8,0,8,0,1,,,,,,,,,,,,,
5c1976c90d57c30001b4162c,SCR,2024-06-11_12h15.04.325,LearnStrategy,2023.2.3,Win32,60.24096386,1,1,10,0.405555584,-0.264814801,1,0,0,1.9121,Peridotite_04,7,04,2,7,1.912,7,04,0.440740797,-0.237963005,1,0,0,4.3765,Gabbro_rect,4,4.377,0,9,0,9,0,1,,,,,,,,,,,,,
5c1976c90d57c30001b4162c,SCR,2024-06-11_12h15.04.325,LearnStrategy,2023.2.3,Win32,60.24096386,1,1,11,0.564814815,0.453703704,1,0,0,1.7766,Obsidian_16,5,16,6,8,1.777,5,16,-0.412962949,-0.406481496,1,0,0,3.6348,Obsidian_rect,5,3.635,1,10,0,10,0,1,,,,,,,,,,,,,
5c1976c90d57c30001b4162c,SCR,2024-06-11_12h15.04.325,LearnStrategy,2023.2.3,Win32,60.24096386,1,1,12,-0.592592593,0.424074076,1,0,0,2.3393,Diorite_07,3,07,6,1,2.339,3,07,-0.410185178,-0.248148176,1,0,0,18.5675,Andesite_rect,1,18.567,0,11,0,11,0,1,,,,,,,,,,,,,
5c1976c90d57c30001b4162c,SCR,2024-06-11_12h15.04.325,LearnStrategy,2023.2.3,Win32,60.24096386,1,1,13,-0.397222201,-0.388888889,1,0,0,1.7505,Peridotite_12,7,12,1,2,1.75,7,12,0.113888917,-0.40370369,1,0,0,2.666,Peridotite_rect,7,2.666,1,12,0,12,0,1,,,,,,,,,,,,,
5c1976c90d57c30001b4162c,SCR,2024-06-11_12h15.04.325,LearnStrategy,2023.2.3,Win32,60.24096386,1,1,14,-0.554629608,-0.422222208,1,0,0,1.6432,Gabbro_14,4,14,1,1,1.643,4,14,-0.125,-0.240740741,1,0,0,11.5824,Basalt_rect,2,11.582,0,13,0,13,0,1,,,,,,,,,,,,,
5c1976c90d57c30001b4162c,SCR,2024-06-11_12h15.04.325,LearnStrategy,2023.2.3,Win32,60.24096386,1,1,15,0.369444529,0.092592593,1,0,0,2.1626,Diorite_16,3,16,4,7,2.163,3,16,-0.434259238,-0.252777806,1,0,0,13.4229,Andesite_rect,1,13.423,0,14,0,14,0,1,,,,,,,,,,,,,
5c1976c90d57c30001b4162c,SCR,2024-06-11_12h15.04.325,LearnStrategy,2023.2.3,Win32,60.24096386,1,1,16,0.056481467,0.418518517,1,0,0,1.533,Gabbro_16,4,16,6,5,1.533,4,16,-0.139814801,-0.248148176,1,0,0,3.3134,Basalt_rect,2,3.313,0,15,0,15,0,1,,,,,,,,,,,,,
5c1976c90d57c30001b4162c,SCR,2024-06-11_12h15.04.325,LearnStrategy,2023.2.3,Win32,60.24096386,1,2,1,,,,,,,,7,14,,,,,,,,,,,,,7,7.356,1,,,,,,0.162962949,-0.400925954,1,0,0,7.3562,Peridotite_rect,0,0,0,0,1,
5c1976c90d57c30001b4162c,SCR,2024-06-11_12h15.04.325,LearnStrategy,2023.2.3,Win32,60.24096386,1,2,2,,,,,,,,2,14,,,,,,,,,,,,,4,8.439,0,,,,,,0.435185185,-0.237963005,1,0,0,8.4387,Gabbro_rect,1,0,1,0,1,
5c1976c90d57c30001b4162c,SCR,2024-06-11_12h15.04.325,LearnStrategy,2023.2.3,Win32,60.24096386,1,2,3,,,,,,,,4,13,,,,,,,,,,,,,3,6.232,0,,,,,,0.176851838,-0.256481524,1,0,0,6.2324,Diorite_rect,2,0,2,0,1,
5c1976c90d57c30001b4162c,SCR,2024-06-11_12h15.04.325,LearnStrategy,2023.2.3,Win32,60.24096386,1,2,4,,,,,,,,8,05,,,,,,,,,,,,,8,3.034,1,,,,,,0.421296296,-0.40370369,1,0,0,3.0344,Pumice_rect,3,0,3,0,1,
5c1976c90d57c30001b4162c,SCR,2024-06-11_12h15.04.325,LearnStrategy,2023.2.3,Win32,60.24096386,1,2,5,,,,,,,,5,02,,,,,,,,,,,,,5,2.235,1,,,,,,-0.390740748,-0.401851866,1,0,0,2.235,Obsidian_rect,4,0,4,0,1,
5c1976c90d57c30001b4162c,SCR,2024-06-11_12h15.04.325,LearnStrategy,2023.2.3,Win32,60.24096386,1,2,6,,,,,,,,6,12,,,,,,,,,,,,,6,18.513,1,,,,,,-0.094444416,-0.404629672,1,0,0,18.5126,Pegmatite_rect,5,0,5,0,1,
5c1976c90d57c30001b4162c,SCR,2024-06-11_12h15.04.325,LearnStrategy,2023.2.3,Win32,60.24096386,1,2,7,,,,,,,,3,09,,,,,,,,,,,,,3,11.183,1,,,,,,0.162037037,-0.236111111,1,0,0,11.183,Diorite_rect,6,0,6,0,1,
5c1976c90d57c30001b4162c,SCR,2024-06-11_12h15.04.325,LearnStrategy,2023.2.3,Win32,60.24096386,1,2,8,,,,,,,,4,09,,,,,,,,,,,,,4,14.433,1,,,,,,0.389814871,-0.246296282,1,0,0,14.4334,Gabbro_rect,7,0,7,0,1,
5c1976c90d57c30001b4162c,SCR,2024-06-11_12h15.04.325,LearnStrategy,2023.2.3,Win32,60.24096386,1,2,9,,,,,,,,1,04,,,,,,,,,,,,,7,8.67,0,,,,,,0.137962977,-0.388888889,1,0,0,8.6698,Peridotite_rect,8,0,8,0,1,
5c1976c90d57c30001b4162c,SCR,2024-06-11_12h15.04.325,LearnStrategy,2023.2.3,Win32,60.24096386,1,2,10,,,,,,,,2,10,,,,,,,,,,,,,2,3.75,1,,,,,,-0.128703718,-0.24537037,1,0,0,3.7503,Basalt_rect,9,0,9,0,1,
5c1976c90d57c30001b4162c,SCR,2024-06-11_12h15.04.325,LearnStrategy,2023.2.3,Win32,60.24096386,1,2,11,,,,,,,,7,06,,,,,,,,,,,,,7,2.78,1,,,,,,0.166666667,-0.402777778,1,0,0,2.7799,Peridotite_rect,10,0,10,0,1,
5c1976c90d57c30001b4162c,SCR,2024-06-11_12h15.04.325,LearnStrategy,2023.2.3,Win32,60.24096386,1,2,12,,,,,,,,8,03,,,,,,,,,,,,,8,2.671,1,,,,,,0.371296353,-0.404629672,1,0,0,2.6711,Pumice_rect,11,0,11,0,1,
5c1976c90d57c30001b4162c,SCR,2024-06-11_12h15.04.325,LearnStrategy,2023.2.3,Win32,60.24096386,1,2,13,,,,,,,,1,03,,,,,,,,,,,,,3,7.526,0,,,,,,0.162037037,-0.248148176,1,0,0,7.5263,Diorite_rect,12,0,12,0,1,
5c1976c90d57c30001b4162c,SCR,2024-06-11_12h15.04.325,LearnStrategy,2023.2.3,Win32,60.24096386,1,2,14,,,,,,,,3,15,,,,,,,,,,,,,3,5.748,1,,,,,,0.162037037,-0.248148176,1,0,0,5.7482,Diorite_rect,13,0,13,0,1,
5c1976c90d57c30001b4162c,SCR,2024-06-11_12h15.04.325,LearnStrategy,2023.2.3,Win32,60.24096386,1,2,15,,,,,,,,6,09,,,,,,,,,,,,,7,12.224,0,,,,,,0.159259302,-0.410185213,1,0,0,12.2239,Peridotite_rect,14,0,14,0,1,
5c1976c90d57c30001b4162c,SCR,2024-06-11_12h15.04.325,LearnStrategy,2023.2.3,Win32,60.24096386,1,2,16,,,,,,,,5,06,,,,,,,,,,,,,5,2.172,1,,,,,,-0.407407407,-0.400000042,1,0,0,2.1724,Obsidian_rect,15,0,15,0,1,
5c1976c90d57c30001b4162c,SCR,2024-06-11_12h15.04.325,LearnStrategy,2023.2.3,Win32,60.24096386,2,1,1,-0.083333333,-0.410185213,1,0,0,2.5406,Peridotite_07,7,07,1,4,2.541,7,07,0.112037023,-0.388888889,1,0,0,6.5752,Peridotite_rect,7,6.575,1,0,0,0,0,1,,,,,,,,,,,,,
5c1976c90d57c30001b4162c,SCR,2024-06-11_12h15.04.325,LearnStrategy,2023.2.3,Win32,60.24096386,2,1,2,0.534259231,-0.079629651,1,0,0,2.3089,Pumice_10,8,10,3,8,2.309,8,10,0.428703732,-0.380555541,1,0,0,7.3378,Pumice_rect,8,7.338,1,1,0,1,0,1,,,,,,,,,,,,,
5c1976c90d57c30001b4162c,SCR,2024-06-11_12h15.04.325,LearnStrategy,2023.2.3,Win32,60.24096386,2,1,3,0.226851852,0.2537037,1,0,0,1.8116,Basalt_08,2,08,5,6,1.812,2,08,-0.134259259,-0.241666653,1,0,0,4.1535,Basalt_rect,2,4.154,1,2,0,2,0,1,,,,,,,,,,,,,
5c1976c90d57c30001b4162c,SCR,2024-06-11_12h15.04.325,LearnStrategy,2023.2.3,Win32,60.24096386,2,1,4,-0.577777757,0.113888882,1,0,0,1.962,Gabbro_12,4,12,4,1,1.962,4,12,0.442592621,-0.247222265,1,0,0,13.7494,Gabbro_rect,4,13.749,1,3,0,3,0,1,,,,,,,,,,,,,
5c1976c90d57c30001b4162c,SCR,2024-06-11_12h15.04.325,LearnStrategy,2023.2.3,Win32,60.24096386,2,1,5,0.234259288,0.089814822,1,0,0,1.4719,Andesite_07,1,07,4,6,1.472,1,07,0.141666695,-0.251851894,1,0,0,24.0635,Diorite_rect,3,24.063,0,4,0,4,0,1,,,,,,,,,,,,,
5c1976c90d57c30001b4162c,SCR,2024-06-11_12h15.04.325,LearnStrategy,2023.2.3,Win32,60.24096386,2,1,6,0.37037037,-0.400925954,1,0,0,2.7839,Basalt_12,2,12,1,7,2.784,2,12,0.37037037,-0.400925954,1,0,0,10.588,Pumice_rect,8,10.588,0,5,0,5,0,1,,,,,,,,,,,,,
5c1976c90d57c30001b4162c,SCR,2024-06-11_12h15.04.325,LearnStrategy,2023.2.3,Win32,60.24096386,2,1,7,0.602777834,-0.271296325,1,0,0,2.0239,Obsidian_08,5,08,2,8,2.024,5,08,-0.346296275,-0.419444473,1,0,0,2.8039,Obsidian_rect,5,2.804,1,6,0,6,0,1,,,,,,,,,,,,,
5c1976c90d57c30001b4162c,SCR,2024-06-11_12h15.04.325,LearnStrategy,2023.2.3,Win32,60.24096386,2,1,8,-0.430555556,0.25833333,1,0,0,1.5662,Andesite_05,1,05,5,2,1.566,1,05,-0.127777735,-0.395370413,1,0,0,22.8972,Pegmatite_rect,6,22.897,0,7,0,7,0,1,,,,,,,,,,,,,
5c1976c90d57c30001b4162c,SCR,2024-06-11_12h15.04.325,LearnStrategy,2023.2.3,Win32,60.24096386,2,1,9,0.406481566,-0.099074116,1,0,0,1.6481,Pegmatite_07,6,07,3,7,1.648,6,07,-0.099999958,-0.387962977,1,0,0,9.7736,Pegmatite_rect,6,9.774,1,8,0,8,0,1,,,,,,,,,,,,,
5c1976c90d57c30001b4162c,SCR,2024-06-11_12h15.04.325,LearnStrategy,2023.2.3,Win32,60.24096386,2,1,10,-0.092592593,0.405555557,1,0,0,2.1878,Pegmatite_15,6,15,6,4,2.188,6,15,-0.124074088,-0.393518519,1,0,0,10.8212,Pegmatite_rect,6,10.821,1,9,0,9,0,1,,,,,,,,,,,,,
5c1976c90d57c30001b4162c,SCR,2024-06-11_12h15.04.325,LearnStrategy,2023.2.3,Win32,60.24096386,2,1,11,0.222222222,0.10833334,1,0,0,1.2796,Andesite_07,1,07,4,6,1.28,1,07,-0.416666667,-0.239814829,1,0,0,1.7149,Andesite_rect,1,1.715,1,10,0,10,0,1,,,,,,,,,,,,,
5c1976c90d57c30001b4162c,SCR,2024-06-11_12h15.04.325,LearnStrategy,2023.2.3,Win32,60.24096386,2,1,12,-0.235185199,0.43888889,1,0,0,1.6003,Andesite_10,1,10,6,3,1.6,1,10,-0.400000007,-0.260185171,1,0,0,8.3591,Andesite_rect,1,8.359,1,11,0,11,0,1,,,,,,,,,,,,,
5c1976c90d57c30001b4162c,SCR,2024-06-11_12h15.04.325,LearnStrategy,2023.2.3,Win32,60.24096386,2,1,13,0.554629714,0.262962959,1,0,0,1.8631,Pegmatite_05,6,05,5,8,1.863,6,05,0.12962963,-0.25,1,0,0,17.7662,Diorite_rect,3,17.766,0,12,0,12,0,1,,,,,,,,,,,,,
5c1976c90d57c30001b4162c,SCR,2024-06-11_12h15.04.325,LearnStrategy,2023.2.3,Win32,60.24096386,2,1,14,-0.407407407,0.424999996,1,0,0,1.7794,Diorite_12,3,12,6,2,1.779,3,12,0.136111153,-0.248148176,1,0,0,5.617,Diorite_rect,3,5.617,1,13,0,13,0,1,,,,,,,,,,,,,
5c1976c90d57c30001b4162c,SCR,2024-06-11_12h15.04.325,LearnStrategy,2023.2.3,Win32,60.24096386,2,1,15,-0.227777764,-0.423148191,1,0,0,1.9985,Gabbro_08,4,08,1,3,1.998,4,08,0.375,-0.233333376,1,0,0,9.2556,Gabbro_rect,4,9.256,1,14,0,14,0,1,,,,,,,,,,,,,
5c1976c90d57c30001b4162c,SCR,2024-06-11_12h15.04.325,LearnStrategy,2023.2.3,Win32,60.24096386,2,1,16,-0.578703704,-0.400000042,1,0,0,2.1589,Gabbro_14,4,14,1,1,2.159,4,14,0.445370427,-0.249074088,1,0,0,10.9599,Gabbro_rect,4,10.96,1,15,0,15,0,1,,,,,,,,,,,,,
5c1976c90d57c30001b4162c,SCR,2024-06-11_12h15.04.325,LearnStrategy,2023.2.3,Win32,60.24096386,2,2,1,,,,,,,,5,10,,,,,,,,,,,,,5,2.219,1,,,,,,-0.39166666,-0.39444443,1,0,0,2.2194,Obsidian_rect,0,0,0,0,1,
5c1976c90d57c30001b4162c,SCR,2024-06-11_12h15.04.325,LearnStrategy,2023.2.3,Win32,60.24096386,2,2,2,,,,,,,,7,10,,,,,,,,,,,,,7,3.741,1,,,,,,0.155555584,-0.397222236,1,0,0,3.7409,Peridotite_rect,1,0,1,0,1,
5c1976c90d57c30001b4162c,SCR,2024-06-11_12h15.04.325,LearnStrategy,2023.2.3,Win32,60.24096386,2,2,3,,,,,,,,8,04,,,,,,,,,,,,,8,3.57,1,,,,,,0.444444444,-0.388888889,1,0,0,3.5697,Pumice_rect,2,0,2,0,1,
5c1976c90d57c30001b4162c,SCR,2024-06-11_12h15.04.325,LearnStrategy,2023.2.3,Win32,60.24096386,2,2,4,,,,,,,,6,11,,,,,,,,,,,,,6,8.606,1,,,,,,-0.128703718,-0.404629672,1,0,0,8.6056,Pegmatite_rect,3,0,3,0,1,
5c1976c90d57c30001b4162c,SCR,2024-06-11_12h15.04.325,LearnStrategy,2023.2.3,Win32,60.24096386,2,2,5,,,,,,,,3,06,,,,,,,,,,,,,3,21.288,1,,,,,,0.132407436,-0.271296325,1,0,0,21.2885,Diorite_rect,4,0,4,0,1,
5c1976c90d57c30001b4162c,SCR,2024-06-11_12h15.04.325,LearnStrategy,2023.2.3,Win32,60.24096386,2,2,6,,,,,,,,4,03,,,,,,,,,,,,,4,4.539,1,,,,,,0.410185213,-0.241666653,1,0,0,4.5394,Gabbro_rect,5,0,5,0,1,
5c1976c90d57c30001b4162c,SCR,2024-06-11_12h15.04.325,LearnStrategy,2023.2.3,Win32,60.24096386,2,2,7,,,,,,,,8,16,,,,,,,,,,,,,2,14.36,0,,,,,,-0.10092594,-0.244444459,1,0,0,14.3604,Basalt_rect,6,0,6,0,1,
5c1976c90d57c30001b4162c,SCR,2024-06-11_12h15.04.325,LearnStrategy,2023.2.3,Win32,60.24096386,2,2,8,,,,,,,,1,09,,,,,,,,,,,,,1,2.658,1,,,,,,-0.438888868,-0.244444459,1,0,0,2.6578,Andesite_rect,7,0,7,0,1,
5c1976c90d57c30001b4162c,SCR,2024-06-11_12h15.04.325,LearnStrategy,2023.2.3,Win32,60.24096386,2,2,9,,,,,,,,2,09,,,,,,,,,,,,,2,2.443,1,,,,,,-0.132407365,-0.241666653,1,0,0,2.4426,Basalt_rect,8,0,8,0,1,
5c1976c90d57c30001b4162c,SCR,2024-06-11_12h15.04.325,LearnStrategy,2023.2.3,Win32,60.24096386,2,2,10,,,,,,,,2,05,,,,,,,,,,,,,4,5.933,0,,,,,,0.441666638,-0.238888917,1,0,0,5.9333,Gabbro_rect,9,0,9,0,1,
5c1976c90d57c30001b4162c,SCR,2024-06-11_12h15.04.325,LearnStrategy,2023.2.3,Win32,60.24096386,2,2,11,,,,,,,,6,13,,,,,,,,,,,,,6,10.18,1,,,,,,-0.092592593,-0.402777778,1,0,0,10.18,Pegmatite_rect,10,0,10,0,1,
5c1976c90d57c30001b4162c,SCR,2024-06-11_12h15.04.325,LearnStrategy,2023.2.3,Win32,60.24096386,2,2,12,,,,,,,,1,01,,,,,,,,,,,,,1,2.408,1,,,,,,-0.435185185,-0.257407436,1,0,0,2.4075,Andesite_rect,11,0,11,0,1,
5c1976c90d57c30001b4162c,SCR,2024-06-11_12h15.04.325,LearnStrategy,2023.2.3,Win32,60.24096386,2,2,13,,,,,,,,7,16,,,,,,,,,,,,,7,2.376,1,,,,,,0.14444443,-0.402777778,1,0,0,2.3763,Peridotite_rect,12,0,12,0,1,
5c1976c90d57c30001b4162c,SCR,2024-06-11_12h15.04.325,LearnStrategy,2023.2.3,Win32,60.24096386,2,2,14,,,,,,,,4,05,,,,,,,,,,,,,7,16.813,0,,,,,,0.145370413,-0.40370369,1,0,0,16.8134,Peridotite_rect,13,0,13,0,1,
5c1976c90d57c30001b4162c,SCR,2024-06-11_12h15.04.325,LearnStrategy,2023.2.3,Win32,60.24096386,2,2,15,,,,,,,,5,04,,,,,,,,,,,,,5,1.96,1,,,,,,-0.40370369,-0.412037037,1,0,0,1.9602,Obsidian_rect,14,0,14,0,1,
5c1976c90d57c30001b4162c,SCR,2024-06-11_12h15.04.325,LearnStrategy,2023.2.3,Win32,60.24096386,2,2,16,,,,,,,,3,13,,,,,,,,,,,,,3,6.511,1,,,,,,0.130555541,-0.237037023,1,0,0,6.5114,Diorite_rect,15,0,15,0,1,
5c1976c90d57c30001b4162c,SCR,2024-06-11_12h15.04.325,LearnStrategy,2023.2.3,Win32,60.24096386,3,1,1,-0.09629631,0.1324074,1,0,0,1.7056,Diorite_14,3,14,4,4,1.706,3,14,-0.39444443,-0.239814829,1,0,0,7.9165,Andesite_rect,1,7.917,0,0,0,0,0,1,,,,,,,,,,,,,
5c1976c90d57c30001b4162c,SCR,2024-06-11_12h15.04.325,LearnStrategy,2023.2.3,Win32,60.24096386,3,1,2,-0.241666653,0.395370369,1,0,0,1.6272,Andesite_10,1,10,6,3,1.627,1,10,-0.436111097,-0.249074088,1,0,0,7.1502,Andesite_rect,1,7.15,1,1,0,1,0,1,,,,,,,,,,,,,
5c1976c90d57c30001b4162c,SCR,2024-06-11_12h15.04.325,LearnStrategy,2023.2.3,Win32,60.24096386,3,1,3,0.069444444,0.417592587,1,0,0,1.6632,Gabbro_16,4,16,6,5,1.663,4,16,0.41851849,-0.251851894,1,0,0,4.8008,Gabbro_rect,4,4.801,1,2,0,2,0,1,,,,,,,,,,,,,
5c1976c90d57c30001b4162c,SCR,2024-06-11_12h15.04.325,LearnStrategy,2023.2.3,Win32,60.24096386,3,1,4,0.210185228,-0.077777792,1,0,0,1.5951,Obsidian_07,5,07,3,6,1.595,5,07,-0.397222201,-0.418518561,1,0,0,1.5753,Obsidian_rect,5,1.575,1,3,0,3,0,1,,,,,,,,,,,,,
5c1976c90d57c30001b4162c,SCR,2024-06-11_12h15.04.325,LearnStrategy,2023.2.3,Win32,60.24096386,3,1,5,0.374074159,0.231481481,1,0,0,1.4457,Pumice_06,8,06,5,7,1.446,8,06,0.437962991,-0.393518519,1,0,0,7.4161,Pumice_rect,8,7.416,1,4,0,4,0,1,,,,,,,,,,,,,
5c1976c90d57c30001b4162c,SCR,2024-06-11_12h15.04.325,LearnStrategy,2023.2.3,Win32,60.24096386,3,1,6,-0.554629608,-0.412037037,1,0,0,2.1721,Gabbro_14,4,14,1,1,2.172,4,14,0.372222194,-0.244444459,1,0,0,4.0928,Gabbro_rect,4,4.093,1,5,0,5,0,1,,,,,,,,,,,,,
5c1976c90d57c30001b4162c,SCR,2024-06-11_12h15.04.325,LearnStrategy,2023.2.3,Win32,60.24096386,3,1,7,0.212037051,0.237962952,1,0,0,1.5365,Basalt_08,2,08,5,6,1.536,2,08,-0.148148148,-0.262962977,1,0,0,7.2329,Basalt_rect,2,7.233,1,6,0,6,0,1,,,,,,,,,,,,,
5c1976c90d57c30001b4162c,SCR,2024-06-11_12h15.04.325,LearnStrategy,2023.2.3,Win32,60.24096386,3,1,8,-0.227777764,0.281481478,1,0,0,1.5288,Pumice_13,8,13,5,3,1.529,8,13,0.394444501,-0.235185199,1,0,0,7.3221,Gabbro_rect,4,7.322,0,7,0,7,0,1,,,,,,,,,,,,,
5c1976c90d57c30001b4162c,SCR,2024-06-11_12h15.04.325,LearnStrategy,2023.2.3,Win32,60.24096386,3,1,9,-0.398148148,-0.248148176,1,0,0,1.4863,Basalt_04,2,04,2,2,1.486,2,04,0.437037009,-0.251851894,1,0,0,9.7246,Gabbro_rect,4,9.725,0,8,0,8,0,1,,,,,,,,,,,,,
5c1976c90d57c30001b4162c,SCR,2024-06-11_12h15.04.325,LearnStrategy,2023.2.3,Win32,60.24096386,3,1,10,0.25,-0.410185213,1,0,0,2.5921,Pegmatite_10,6,10,1,6,2.592,6,10,0.107407393,-0.395370413,1,0,0,2.1266,Peridotite_rect,7,2.127,0,9,0,9,0,1,,,,,,,,,,,,,
5c1976c90d57c30001b4162c,SCR,2024-06-11_12h15.04.325,LearnStrategy,2023.2.3,Win32,60.24096386,3,1,11,0.082407422,-0.10092594,1,0,0,1.1176,Gabbro_10,4,10,3,5,1.118,4,10,0.420370455,-0.390740783,1,0,0,5.7606,Pumice_rect,8,5.761,0,10,0,10,0,1,,,,,,,,,,,,,
5c1976c90d57c30001b4162c,SCR,2024-06-11_12h15.04.325,LearnStrategy,2023.2.3,Win32,60.24096386,3,1,12,-0.064814815,0.421296296,1,0,0,1.6085,Pegmatite_15,6,15,6,4,1.609,6,15,-0.111111111,-0.396296325,1,0,0,5.2549,Pegmatite_rect,6,5.255,1,11,0,11,0,1,,,,,,,,,,,,,
5c1976c90d57c30001b4162c,SCR,2024-06-11_12h15.04.325,LearnStrategy,2023.2.3,Win32,60.24096386,3,1,13,0.049074102,0.247222212,1,0,0,1.6326,Andesite_14,1,14,5,5,1.633,1,14,-0.419444437,-0.239814829,1,0,0,4.329,Andesite_rect,1,4.329,1,12,0,12,0,1,,,,,,,,,,,,,
5c1976c90d57c30001b4162c,SCR,2024-06-11_12h15.04.325,LearnStrategy,2023.2.3,Win32,60.24096386,3,1,14,-0.256481453,-0.425000014,1,0,0,1.3789,Gabbro_08,4,08,1,3,1.379,4,08,0.462962963,-0.264814801,1,0,0,8.234,Gabbro_rect,4,8.234,1,13,0,13,0,1,,,,,,,,,,,,,
5c1976c90d57c30001b4162c,SCR,2024-06-11_12h15.04.325,LearnStrategy,2023.2.3,Win32,60.24096386,3,1,15,0.233333376,0.244444441,1,0,0,1.4792,Basalt_08,2,08,5,6,1.479,2,08,-0.187037009,-0.257407436,1,0,0,2.3309,Basalt_rect,2,2.331,1,14,0,14,0,1,,,,,,,,,,,,,
5c1976c90d57c30001b4162c,SCR,2024-06-11_12h15.04.325,LearnStrategy,2023.2.3,Win32,60.24096386,3,1,16,0.05277782,-0.260185171,1,0,0,1.7544,Peridotite_02,7,02,2,5,1.754,7,02,0.14444443,-0.378703718,1,0,0,5.4534,Peridotite_rect,7,5.453,1,15,0,15,0,1,,,,,,,,,,,,,
5c1976c90d57c30001b4162c,SCR,2024-06-11_12h15.04.325,LearnStrategy,2023.2.3,Win32,60.24096386,3,2,1,,,,,,,,1,02,,,,,,,,,,,,,3,25.986,0,,,,,,0.15370369,-0.247222265,1,0,0,25.9862,Diorite_rect,0,0,0,0,1,
5c1976c90d57c30001b4162c,SCR,2024-06-11_12h15.04.325,LearnStrategy,2023.2.3,Win32,60.24096386,3,2,2,,,,,,,,5,14,,,,,,,,,,,,,5,2.297,1,,,,,,-0.437962956,-0.404629672,1,0,0,2.2968,Obsidian_rect,1,0,1,0,1,
5c1976c90d57c30001b4162c,SCR,2024-06-11_12h15.04.325,LearnStrategy,2023.2.3,Win32,60.24096386,3,2,3,,,,,,,,1,06,,,,,,,,,,,,,1,2.333,1,,,,,,-0.407407407,-0.228703746,1,0,0,2.3325,Andesite_rect,2,0,2,0,1,
5c1976c90d57c30001b4162c,SCR,2024-06-11_12h15.04.325,LearnStrategy,2023.2.3,Win32,60.24096386,3,2,4,,,,,,,,6,03,,,,,,,,,,,,,6,7.86,1,,,,,,-0.09629631,-0.413888931,1,0,0,7.8595,Pegmatite_rect,3,0,3,0,1,
5c1976c90d57c30001b4162c,SCR,2024-06-11_12h15.04.325,LearnStrategy,2023.2.3,Win32,60.24096386,3,2,5,,,,,,,,4,15,,,,,,,,,,,,,3,7.708,0,,,,,,0.158333319,-0.237037023,1,0,0,7.7082,Diorite_rect,4,0,4,0,1,
5c1976c90d57c30001b4162c,SCR,2024-06-11_12h15.04.325,LearnStrategy,2023.2.3,Win32,60.24096386,3,2,6,,,,,,,,3,10,,,,,,,,,,,,,4,4.56,0,,,,,,0.45185188,-0.237963005,1,0,0,4.5595,Gabbro_rect,5,0,5,0,1,
5c1976c90d57c30001b4162c,SCR,2024-06-11_12h15.04.325,LearnStrategy,2023.2.3,Win32,60.24096386,3,2,7,,,,,,,,7,13,,,,,,,,,,,,,7,8.387,1,,,,,,0.175925926,-0.406481496,1,0,0,8.3869,Peridotite_rect,6,0,6,0,1,
5c1976c90d57c30001b4162c,SCR,2024-06-11_12h15.04.325,LearnStrategy,2023.2.3,Win32,60.24096386,3,2,8,,,,,,,,6,16,,,,,,,,,,,,,6,6.236,1,,,,,,-0.113888847,-0.401851866,1,0,0,6.2357,Pegmatite_rect,7,0,7,0,1,
5c1976c90d57c30001b4162c,SCR,2024-06-11_12h15.04.325,LearnStrategy,2023.2.3,Win32,60.24096386,3,2,9,,,,,,,,5,09,,,,,,,,,,,,,5,1.578,1,,,,,,-0.408333319,-0.421296296,1,0,0,1.5777,Obsidian_rect,8,0,8,0,1,
5c1976c90d57c30001b4162c,SCR,2024-06-11_12h15.04.325,LearnStrategy,2023.2.3,Win32,60.24096386,3,2,10,,,,,,,,8,09,,,,,,,,,,,,,8,2.401,1,,,,,,0.42777775,-0.384259259,1,0,0,2.4006,Pumice_rect,9,0,9,0,1,
5c1976c90d57c30001b4162c,SCR,2024-06-11_12h15.04.325,LearnStrategy,2023.2.3,Win32,60.24096386,3,2,11,,,,,,,,8,08,,,,,,,,,,,,,4,6.66,0,,,,,,0.461111139,-0.265740783,1,0,0,6.6604,Gabbro_rect,10,0,10,0,1,
5c1976c90d57c30001b4162c,SCR,2024-06-11_12h15.04.325,LearnStrategy,2023.2.3,Win32,60.24096386,3,2,12,,,,,,,,2,06,,,,,,,,,,,,,2,3.637,1,,,,,,-0.087962963,-0.24537037,1,0,0,3.6367,Basalt_rect,11,0,11,0,1,
5c1976c90d57c30001b4162c,SCR,2024-06-11_12h15.04.325,LearnStrategy,2023.2.3,Win32,60.24096386,3,2,13,,,,,,,,3,02,,,,,,,,,,,,,3,4.643,1,,,,,,0.171296296,-0.265740783,1,0,0,4.6435,Diorite_rect,12,0,12,0,1,
5c1976c90d57c30001b4162c,SCR,2024-06-11_12h15.04.325,LearnStrategy,2023.2.3,Win32,60.24096386,3,2,14,,,,,,,,7,08,,,,,,,,,,,,,7,8.561,1,,,,,,0.174074102,-0.412962949,1,0,0,8.5613,Peridotite_rect,13,0,13,0,1,
5c1976c90d57c30001b4162c,SCR,2024-06-11_12h15.04.325,LearnStrategy,2023.2.3,Win32,60.24096386,3,2,15,,,,,,,,2,02,,,,,,,,,,,,,2,2.448,1,,,,,,-0.143518519,-0.257407436,1,0,0,2.4483,Basalt_rect,14,0,14,0,1,
5c1976c90d57c30001b4162c,SCR,2024-06-11_12h15.04.325,LearnStrategy,2023.2.3,Win32,60.24096386,3,2,16,,,,,,,,4,01,,,,,,,,,,,,,4,8.331,1,,,,,,0.434259344,-0.250925912,1,0,0,8.3313,Gabbro_rect,15,0,15,0,1,
5c1976c90d57c30001b4162c,SCR,2024-06-11_12h15.04.325,LearnStrategy,2023.2.3,Win32,60.24096386,4,1,1,0.555555556,-0.082407422,1,0,0,2.6245,Pumice_10,8,10,3,8,2.624,8,10,0.409259231,-0.237037023,1,0,0,4.9339,Gabbro_rect,4,4.934,0,0,0,0,0,1,,,,,,,,,,,,,
5c1976c90d57c30001b4162c,SCR,2024-06-11_12h15.04.325,LearnStrategy,2023.2.3,Win32,60.24096386,4,1,2,-0.255555541,-0.439814815,1,0,0,1.897,Gabbro_08,4,08,1,3,1.897,4,08,0.410185213,-0.252777806,1,0,0,12.0152,Gabbro_rect,4,12.015,1,1,0,1,0,1,,,,,,,,,,,,,
5c1976c90d57c30001b4162c,SCR,2024-06-11_12h15.04.325,LearnStrategy,2023.2.3,Win32,60.24096386,4,1,3,0.05740745,-0.083333333,1,0,0,1.2799,Gabbro_10,4,10,3,5,1.28,4,10,0.412963019,-0.24537037,1,0,0,11.1348,Gabbro_rect,4,11.135,1,2,0,2,0,1,,,,,,,,,,,,,
5c1976c90d57c30001b4162c,SCR,2024-06-11_12h15.04.325,LearnStrategy,2023.2.3,Win32,60.24096386,4,1,4,-0.544444437,0.394444439,1,0,0,1.6233,Diorite_07,3,07,6,1,1.623,3,07,0.159259302,-0.253703718,1,0,0,7.3888,Diorite_rect,3,7.389,1,3,0,3,0,1,,,,,,,,,,,,,
5c1976c90d57c30001b4162c,SCR,2024-06-11_12h15.04.325,LearnStrategy,2023.2.3,Win32,60.24096386,4,1,5,-0.217592593,-0.125,1,0,0,1.1936,Gabbro_11,4,11,3,3,1.194,4,11,0.426851908,-0.267592607,1,0,0,7.7049,Gabbro_rect,4,7.705,1,4,0,4,0,1,,,,,,,,,,,,,
5c1976c90d57c30001b4162c,SCR,2024-06-11_12h15.04.325,LearnStrategy,2023.2.3,Win32,60.24096386,4,1,6,0.056481467,-0.077777792,1,0,0,1.3356,Gabbro_10,4,10,3,5,1.336,4,10,0.421296296,-0.247222265,1,0,0,2.3408,Gabbro_rect,4,2.341,1,5,0,5,0,1,,,,,,,,,,,,,
5c1976c90d57c30001b4162c,SCR,2024-06-11_12h15.04.325,LearnStrategy,2023.2.3,Win32,60.24096386,4,1,7,0.075925968,-0.423148191,1,0,0,2.5779,Diorite_08,3,08,1,5,2.578,3,08,0.12962963,-0.235185199,1,0,0,21.8456,Diorite_rect,3,21.846,1,6,0,6,0,1,,,,,,,,,,,,,
5c1976c90d57c30001b4162c,SCR,2024-06-11_12h15.04.325,LearnStrategy,2023.2.3,Win32,60.24096386,4,1,8,-0.39166666,-0.240740741,1,0,0,1.5754,Basalt_04,2,04,2,2,1.575,2,04,-0.104629587,-0.265740783,1,0,0,11.7169,Basalt_rect,2,11.717,1,7,0,7,0,1,,,,,,,,,,,,,
5c1976c90d57c30001b4162c,SCR,2024-06-11_12h15.04.325,LearnStrategy,2023.2.3,Win32,60.24096386,4,1,9,0.079629616,0.26666666,1,0,0,1.3752,Andesite_14,1,14,5,5,1.375,1,14,-0.423148155,-0.256481524,1,0,0,3.4277,Andesite_rect,1,3.428,1,8,0,8,0,1,,,,,,,,,,,,,
5c1976c90d57c30001b4162c,SCR,2024-06-11_12h15.04.325,LearnStrategy,2023.2.3,Win32,60.24096386,4,1,10,0.530555584,-0.26944443,1,0,0,1.9955,Obsidian_08,5,08,2,8,1.995,5,08,-0.395370377,-0.400925954,1,0,0,1.7168,Obsidian_rect,5,1.717,1,9,0,9,0,1,,,,,,,,,,,,,
5c1976c90d57c30001b4162c,SCR,2024-06-11_12h15.04.325,LearnStrategy,2023.2.3,Win32,60.24096386,4,1,11,-0.544444437,0.227777781,1,0,0,1.5262,Pegmatite_08,6,08,5,1,1.526,6,08,-0.108333305,-0.420370384,1,0,0,8.0179,Pegmatite_rect,6,8.018,1,10,0,10,0,1,,,,,,,,,,,,,
5c1976c90d57c30001b4162c,SCR,2024-06-11_12h15.04.325,LearnStrategy,2023.2.3,Win32,60.24096386,4,1,12,0.396296325,-0.271296325,1,0,0,1.5634,Peridotite_04,7,04,2,7,1.563,7,04,0.166666667,-0.384259259,1,0,0,11.7628,Peridotite_rect,7,11.763,1,11,0,11,0,1,,,,,,,,,,,,,
5c1976c90d57c30001b4162c,SCR,2024-06-11_12h15.04.325,LearnStrategy,2023.2.3,Win32,60.24096386,4,1,13,0.243518547,0.122222229,1,0,0,1.3294,Andesite_07,1,07,4,6,1.329,1,07,-0.433333326,-0.233333376,1,0,0,1.6621,Andesite_rect,1,1.662,1,12,0,12,0,1,,,,,,,,,,,,,
5c1976c90d57c30001b4162c,SCR,2024-06-11_12h15.04.325,LearnStrategy,2023.2.3,Win32,60.24096386,4,1,14,0.248148176,0.394444439,1,0,0,1.33,Pumice_15,8,15,6,6,1.33,8,15,0.428703732,-0.251851894,1,0,0,18.9525,Gabbro_rect,4,18.953,0,13,0,13,0,1,,,,,,,,,,,,,
5c1976c90d57c30001b4162c,SCR,2024-06-11_12h15.04.325,LearnStrategy,2023.2.3,Win32,60.24096386,4,1,15,0.267592607,0.25,1,0,0,6.5665,Basalt_08,2,08,5,6,6.566,2,08,-0.138888889,-0.249074088,1,0,0,3.8144,Basalt_rect,2,3.814,1,14,0,14,0,1,,,,,,,,,,,,,
5c1976c90d57c30001b4162c,SCR,2024-06-11_12h15.04.325,LearnStrategy,2023.2.3,Win32,60.24096386,4,1,16,0.25,0.408333328,1,0,0,1.6461,Pumice_15,8,15,6,6,1.646,8,15,0.375,-0.390740783,1,0,0,2.5188,Pumice_rect,8,2.519,1,15,0,15,0,1,,,,,,,,,,,,,
5c1976c90d57c30001b4162c,SCR,2024-06-11_12h15.04.325,LearnStrategy,2023.2.3,Win32,60.24096386,4,2,1,,,,,,,,3,10,,,,,,,,,,,,,4,10.053,0,,,,,,0.399074131,-0.259259259,1,0,0,10.0525,Gabbro_rect,0,0,0,0,1,
5c1976c90d57c30001b4162c,SCR,2024-06-11_12h15.04.325,LearnStrategy,2023.2.3,Win32,60.24096386,4,2,2,,,,,,,,2,06,,,,,,,,,,,,,4,17.874,0,,,,,,0.399074131,-0.259259259,1,0,0,17.8739,Gabbro_rect,1,0,1,0,1,
5c1976c90d57c30001b4162c,SCR,2024-06-11_12h15.04.325,LearnStrategy,2023.2.3,Win32,60.24096386,4,2,3,,,,,,,,2,02,,,,,,,,,,,,,2,2.334,1,,,,,,-0.14444443,-0.23055557,1,0,0,2.3336,Basalt_rect,2,0,2,0,1,
5c1976c90d57c30001b4162c,SCR,2024-06-11_12h15.04.325,LearnStrategy,2023.2.3,Win32,60.24096386,4,2,4,,,,,,,,6,03,,,,,,,,,,,,,6,4.635,1,,,,,,-0.149999972,-0.396296325,1,0,0,4.6348,Pegmatite_rect,3,0,3,0,1,
5c1976c90d57c30001b4162c,SCR,2024-06-11_12h15.04.325,LearnStrategy,2023.2.3,Win32,60.24096386,4,2,5,,,,,,,,6,11,,,,,,,,,,,,,6,3.54,1,,,,,,-0.109259217,-0.405555584,1,0,0,3.5399,Pegmatite_rect,4,0,4,0,1,
5c1976c90d57c30001b4162c,SCR,2024-06-11_12h15.04.325,LearnStrategy,2023.2.3,Win32,60.24096386,4,2,6,,,,,,,,7,16,,,,,,,,,,,,,4,11.576,0,,,,,,0.448148233,-0.256481524,1,0,0,11.5765,Gabbro_rect,5,0,5,0,1,
5c1976c90d57c30001b4162c,SCR,2024-06-11_12h15.04.325,LearnStrategy,2023.2.3,Win32,60.24096386,4,2,7,,,,,,,,4,15,,,,,,,,,,,,,3,8.239,0,,,,,,0.169444473,-0.264814801,1,0,0,8.2391,Diorite_rect,6,0,6,0,1,
5c1976c90d57c30001b4162c,SCR,2024-06-11_12h15.04.325,LearnStrategy,2023.2.3,Win32,60.24096386,4,2,8,,,,,,,,1,06,,,,,,,,,,,,,1,1.863,1,,,,,,-0.408333319,-0.25462963,1,0,0,1.8626,Andesite_rect,7,0,7,0,1,
5c1976c90d57c30001b4162c,SCR,2024-06-11_12h15.04.325,LearnStrategy,2023.2.3,Win32,60.24096386,4,2,9,,,,,,,,7,08,,,,,,,,,,,,,7,8.694,1,,,,,,0.15370369,-0.402777778,1,0,0,8.6943,Peridotite_rect,8,0,8,0,1,
5c1976c90d57c30001b4162c,SCR,2024-06-11_12h15.04.325,LearnStrategy,2023.2.3,Win32,60.24096386,4,2,10,,,,,,,,8,16,,,,,,,,,,,,,8,2.321,1,,,,,,0.424074102,-0.39907406,1,0,0,2.3206,Pumice_rect,9,0,9,0,1,
5c1976c90d57c30001b4162c,SCR,2024-06-11_12h15.04.325,LearnStrategy,2023.2.3,Win32,60.24096386,4,2,11,,,,,,,,3,13,,,,,,,,,,,,,3,3.035,1,,,,,,0.180555556,-0.253703718,1,0,0,3.0351,Diorite_rect,10,0,10,0,1,
5c1976c90d57c30001b4162c,SCR,2024-06-11_12h15.04.325,LearnStrategy,2023.2.3,Win32,60.24096386,4,2,12,,,,,,,,4,05,,,,,,,,,,,,,1,32.824,0,,,,,,-0.3824074,-0.252777806,1,0,0,32.8244,Andesite_rect,11,0,11,0,1,
5c1976c90d57c30001b4162c,SCR,2024-06-11_12h15.04.325,LearnStrategy,2023.2.3,Win32,60.24096386,4,2,13,,,,,,,,1,04,,,,,,,,,,,,,1,1.477,1,,,,,,-0.3824074,-0.252777806,1,0,0,1.4767,Andesite_rect,12,0,12,0,1,
5c1976c90d57c30001b4162c,SCR,2024-06-11_12h15.04.325,LearnStrategy,2023.2.3,Win32,60.24096386,4,2,14,,,,,,,,5,10,,,,,,,,,,,,,5,2.148,1,,,,,,-0.400000007,-0.400000042,1,0,0,2.1481,Obsidian_rect,13,0,13,0,1,
5c1976c90d57c30001b4162c,SCR,2024-06-11_12h15.04.325,LearnStrategy,2023.2.3,Win32,60.24096386,4,2,15,,,,,,,,5,02,,,,,,,,,,,,,5,1.415,1,,,,,,-0.400000007,-0.400000042,1,0,0,1.4149,Obsidian_rect,14,0,14,0,1,
5c1976c90d57c30001b4162c,SCR,2024-06-11_12h15.04.325,LearnStrategy,2023.2.3,Win32,60.24096386,4,2,16,,,,,,,,8,05,,,,,,,,,,,,,8,2.674,1,,,,,,0.412963019,-0.391666695,1,0,0,2.6744,Pumice_rect,15,0,15,0,1,
5c1976c90d57c30001b4162c,SCR,2024-06-11_12h15.04.325,LearnStrategy,2023.2.3,Win32,60.24096386,5,1,1,0.401851937,0.404629628,1,0,0,19.7959,Peridotite_05,7,05,6,7,19.796,1,07,0.415740826,-0.244444459,1,0,0,6.1754,Gabbro_rect,4,6.175,0,0,0,0,0,1,,,,,,,,,,,,,
5c1976c90d57c30001b4162c,SCR,2024-06-11_12h15.04.325,LearnStrategy,2023.2.3,Win32,60.24096386,5,1,2,0.575925898,-0.409259302,1,0,0,24.9177,Basalt_11,2,11,1,8,24.918,6,15,0.462037122,-0.406481496,1,0,0,2.8292,Pumice_rect,8,2.829,0,1,0,1,0,1,,,,,,,,,,,,,
5c1976c90d57c30001b4162c,SCR,2024-06-11_12h15.04.325,LearnStrategy,2023.2.3,Win32,60.24096386,5,1,3,0.067592621,-0.244444459,1,0,0,2.5399,Peridotite_02,7,02,2,5,2.54,7,02,0.146296325,-0.400000042,1,0,0,2.3337,Peridotite_rect,7,2.334,1,2,0,2,0,1,,,,,,,,,,,,,
5c1976c90d57c30001b4162c,SCR,2024-06-11_12h15.04.325,LearnStrategy,2023.2.3,Win32,60.24096386,5,1,4,0.385185242,0.077777757,1,0,0,2.6837,Diorite_16,3,16,4,7,2.684,3,16,0.150925954,-0.246296282,1,0,0,4.8773,Diorite_rect,3,4.877,1,3,0,3,0,1,,,,,,,,,,,,,
5c1976c90d57c30001b4162c,SCR,2024-06-11_12h15.04.325,LearnStrategy,2023.2.3,Win32,60.24096386,5,1,5,0.392592677,-0.392592607,1,0,0,9.2308,Basalt_12,2,12,1,7,9.231,5,16,0.437037009,-0.239814829,1,0,0,3.8511,Gabbro_rect,4,3.851,0,4,0,4,0,1,,,,,,,,,,,,,
5c1976c90d57c30001b4162c,SCR,2024-06-11_12h15.04.325,LearnStrategy,2023.2.3,Win32,60.24096386,5,1,6,-0.071296268,-0.398148148,1,0,0,4.6132,Peridotite_07,7,07,1,4,4.613,3,07,0.15370369,-0.390740783,1,0,0,2.3562,Peridotite_rect,7,2.356,1,5,0,5,0,1,,,,,,,,,,,,,
5c1976c90d57c30001b4162c,SCR,2024-06-11_12h15.04.325,LearnStrategy,2023.2.3,Win32,60.24096386,5,1,7,-0.237962935,-0.384259259,1,0,0,2.3958,Gabbro_08,4,08,1,3,2.396,4,08,0.429629714,-0.241666653,1,0,0,9.3224,Gabbro_rect,4,9.322,1,6,0,6,0,1,,,,,,,,,,,,,
5c1976c90d57c30001b4162c,SCR,2024-06-11_12h15.04.325,LearnStrategy,2023.2.3,Win32,60.24096386,5,1,8,-0.402777778,-0.397222236,1,0,0,3.9433,Peridotite_12,7,12,1,2,3.943,3,16,0.179629644,-0.40370369,1,0,0,2.2992,Peridotite_rect,7,2.299,1,7,0,7,0,1,,,,,,,,,,,,,
5c1976c90d57c30001b4162c,SCR,2024-06-11_12h15.04.325,LearnStrategy,2023.2.3,Win32,60.24096386,5,1,9,-0.204629616,-0.101851852,1,0,0,22.6278,Gabbro_11,4,11,3,3,22.628,2,01,0.396296325,-0.229629658,1,0,0,2.6977,Gabbro_rect,4,2.698,1,8,0,8,0,1,,,,,,,,,,,,,
5c1976c90d57c30001b4162c,SCR,2024-06-11_12h15.04.325,LearnStrategy,2023.2.3,Win32,60.24096386,5,1,10,-0.562037044,-0.097222222,1,0,0,6.8137,Basalt_16,2,16,3,1,6.814,7,12,-0.136111083,-0.246296282,1,0,0,3.9189,Basalt_rect,2,3.919,1,9,0,9,0,1,,,,,,,,,,,,,
5c1976c90d57c30001b4162c,SCR,2024-06-11_12h15.04.325,LearnStrategy,2023.2.3,Win32,60.24096386,5,1,11,0.561111168,0.131481489,1,0,0,2.8462,Diorite_11,3,11,4,8,2.846,8,10,0.171296296,-0.25,1,0,0,3.135,Diorite_rect,3,3.135,1,10,0,10,0,1,,,,,,,,,,,,,
5c1976c90d57c30001b4162c,SCR,2024-06-11_12h15.04.325,LearnStrategy,2023.2.3,Win32,60.24096386,5,1,12,-0.25462963,-0.124074088,1,0,0,2.4651,Gabbro_11,4,11,3,3,2.465,4,11,0.382407436,-0.268518519,1,0,0,2.0272,Gabbro_rect,4,2.027,1,11,0,11,0,1,,,,,,,,,,,,,
5c1976c90d57c30001b4162c,SCR,2024-06-11_12h15.04.325,LearnStrategy,2023.2.3,Win32,60.24096386,5,1,13,0.393518519,0.110185164,1,0,0,9.0288,Diorite_16,3,16,4,7,9.029,4,10,0.145370413,-0.249074088,1,0,0,2.17,Diorite_rect,3,2.17,1,12,0,12,0,1,,,,,,,,,,,,,
5c1976c90d57c30001b4162c,SCR,2024-06-11_12h15.04.325,LearnStrategy,2023.2.3,Win32,60.24096386,5,1,14,-0.556481467,0.069444444,1,0,0,2.3164,Gabbro_12,4,12,4,1,2.316,8,15,0.409259231,-0.252777806,1,0,0,2.7035,Gabbro_rect,4,2.704,1,13,0,13,0,1,,,,,,,,,,,,,
5c1976c90d57c30001b4162c,SCR,2024-06-11_12h15.04.325,LearnStrategy,2023.2.3,Win32,60.24096386,5,1,15,-0.584259245,-0.446296339,1,0,0,2.5447,Gabbro_14,4,14,1,1,2.545,4,14,0.435185185,-0.239814829,1,0,0,9.6063,Gabbro_rect,4,9.606,1,14,0,14,0,1,,,,,,,,,,,,,
5c1976c90d57c30001b4162c,SCR,2024-06-11_12h15.04.325,LearnStrategy,2023.2.3,Win32,60.24096386,5,1,16,0.580555527,0.243518511,1,0,0,4.53,Pegmatite_05,6,05,5,8,4.53,4,16,-0.104629587,-0.391666695,1,0,0,4.4489,Pegmatite_rect,6,4.449,1,15,0,15,0,1,,,,,,,,,,,,,
5c1976c90d57c30001b4162c,SCR,2024-06-11_12h15.04.325,LearnStrategy,2023.2.3,Win32,60.24096386,5,2,1,,,,,,,,5,09,,,,,,,,,,,,,5,2.053,1,,,,,,-0.373148141,-0.391666695,1,0,0,2.0526,Obsidian_rect,0,0,0,0,1,
5c1976c90d57c30001b4162c,SCR,2024-06-11_12h15.04.325,LearnStrategy,2023.2.3,Win32,60.24096386,5,2,2,,,,,,,,8,09,,,,,,,,,,,,,8,2.832,1,,,,,,0.420370455,-0.388888889,1,0,0,2.8324,Pumice_rect,1,0,1,0,1,
5c1976c90d57c30001b4162c,SCR,2024-06-11_12h15.04.325,LearnStrategy,2023.2.3,Win32,60.24096386,5,2,3,,,,,,,,6,09,,,,,,,,,,,,,6,3.429,1,,,,,,-0.108333305,-0.400000042,1,0,0,3.4295,Pegmatite_rect,2,0,2,0,1,
5c1976c90d57c30001b4162c,SCR,2024-06-11_12h15.04.325,LearnStrategy,2023.2.3,Win32,60.24096386,5,2,4,,,,,,,,4,13,,,,,,,,,,,,,3,14.009,0,,,,,,0.174074102,-0.256481524,1,0,0,14.0088,Diorite_rect,3,0,3,0,1,
5c1976c90d57c30001b4162c,SCR,2024-06-11_12h15.04.325,LearnStrategy,2023.2.3,Win32,60.24096386,5,2,5,,,,,,,,7,06,,,,,,,,,,,,,7,3.629,1,,,,,,0.14444443,-0.392592607,1,0,0,3.6285,Peridotite_rect,4,0,4,0,1,
5c1976c90d57c30001b4162c,SCR,2024-06-11_12h15.04.325,LearnStrategy,2023.2.3,Win32,60.24096386,5,2,6,,,,,,,,6,13,,,,,,,,,,,,,3,13.733,0,,,,,,0.12962963,-0.262037065,1,0,0,13.7329,Diorite_rect,5,0,5,0,1,
5c1976c90d57c30001b4162c,SCR,2024-06-11_12h15.04.325,LearnStrategy,2023.2.3,Win32,60.24096386,5,2,7,,,,,,,,1,03,,,,,,,,,,,,,1,10.446,1,,,,,,-0.405555548,-0.262037065,1,0,0,10.4459,Andesite_rect,6,0,6,0,1,
5c1976c90d57c30001b4162c,SCR,2024-06-11_12h15.04.325,LearnStrategy,2023.2.3,Win32,60.24096386,5,2,8,,,,,,,,8,03,,,,,,,,,,,,,8,2.855,1,,,,,,0.462962963,-0.401851866,1,0,0,2.8551,Pumice_rect,7,0,7,0,1,
5c1976c90d57c30001b4162c,SCR,2024-06-11_12h15.04.325,LearnStrategy,2023.2.3,Win32,60.24096386,5,2,9,,,,,,,,4,01,,,,,,,,,,,,,4,3.178,1,,,,,,0.406481566,-0.249074088,1,0,0,3.1777,Gabbro_rect,8,0,8,0,1,
5c1976c90d57c30001b4162c,SCR,2024-06-11_12h15.04.325,LearnStrategy,2023.2.3,Win32,60.24096386,5,2,10,,,,,,,,2,09,,,,,,,,,,,,,4,3.874,0,,,,,,0.406481566,-0.249074088,1,0,0,3.8737,Gabbro_rect,9,0,9,0,1,
5c1976c90d57c30001b4162c,SCR,2024-06-11_12h15.04.325,LearnStrategy,2023.2.3,Win32,60.24096386,5,2,11,,,,,,,,1,02,,,,,,,,,,,,,3,3.315,0,,,,,,0.162037037,-0.251851894,1,0,0,3.3154,Diorite_rect,10,0,10,0,1,
5c1976c90d57c30001b4162c,SCR,2024-06-11_12h15.04.325,LearnStrategy,2023.2.3,Win32,60.24096386,5,2,12,,,,,,,,7,14,,,,,,,,,,,,,7,1.991,1,,,,,,0.156481496,-0.388888889,1,0,0,1.9908,Peridotite_rect,11,0,11,0,1,
5c1976c90d57c30001b4162c,SCR,2024-06-11_12h15.04.325,LearnStrategy,2023.2.3,Win32,60.24096386,5,2,13,,,,,,,,2,10,,,,,,,,,,,,,4,4.303,0,,,,,,0.399999972,-0.249074088,1,0,0,4.3035,Gabbro_rect,12,0,12,0,1,
5c1976c90d57c30001b4162c,SCR,2024-06-11_12h15.04.325,LearnStrategy,2023.2.3,Win32,60.24096386,5,2,14,,,,,,,,5,06,,,,,,,,,,,,,5,2.014,1,,,,,,-0.357407393,-0.397222236,1,0,0,2.0144,Obsidian_rect,13,0,13,0,1,
5c1976c90d57c30001b4162c,SCR,2024-06-11_12h15.04.325,LearnStrategy,2023.2.3,Win32,60.24096386,5,2,15,,,,,,,,3,06,,,,,,,,,,,,,3,7.671,1,,,,,,0.134259259,-0.240740741,1,0,0,7.6708,Diorite_rect,14,0,14,0,1,
5c1976c90d57c30001b4162c,SCR,2024-06-11_12h15.04.325,LearnStrategy,2023.2.3,Win32,60.24096386,5,2,16,,,,,,,,3,09,,,,,,,,,,,,,3,1.874,1,,,,,,0.181481467,-0.238888917,1,0,0,1.8735,Diorite_rect,15,0,15,0,1,
5c1976c90d57c30001b4162c,SCR,2024-06-11_12h15.04.325,LearnStrategy,2023.2.3,Win32,60.24096386,6,1,1,0.399074131,0.412962958,1,0,0,11.0645,Peridotite_05,7,05,6,7,11.065,5,16,0.128703718,-0.401851866,1,0,0,2.5678,Peridotite_rect,7,2.568,1,0,0,0,0,1,,,,,,,,,,,,,
5c1976c90d57c30001b4162c,SCR,2024-06-11_12h15.04.325,LearnStrategy,2023.2.3,Win32,60.24096386,6,1,2,-0.209259245,0.395370369,1,0,0,7.4956,Andesite_10,1,10,6,3,7.496,6,08,-0.421296296,-0.255555541,1,0,0,10.4623,Andesite_rect,1,10.462,1,1,0,1,0,1,,,,,,,,,,,,,
5c1976c90d57c30001b4162c,SCR,2024-06-11_12h15.04.325,LearnStrategy,2023.2.3,Win32,60.24096386,6,1,3,0.078703704,0.230555552,1,0,0,12.1146,Andesite_14,1,14,5,5,12.115,4,12,-0.428703697,-0.243518547,1,0,0,3.2349,Andesite_rect,1,3.235,1,2,0,2,0,1,,,,,,,,,,,,,
5c1976c90d57c30001b4162c,SCR,2024-06-11_12h15.04.325,LearnStrategy,2023.2.3,Win32,60.24096386,6,1,4,0.399999972,-0.425000014,1,0,0,23.7718,Basalt_12,2,12,1,7,23.772,6,10,-0.109259217,-0.268518519,1,0,0,5.1061,Basalt_rect,2,5.106,1,3,0,3,0,1,,,,,,,,,,,,,
5c1976c90d57c30001b4162c,SCR,2024-06-11_12h15.04.325,LearnStrategy,2023.2.3,Win32,60.24096386,6,1,5,-0.397222201,-0.244444459,1,0,0,11.1764,Basalt_04,2,04,2,2,11.176,2,16,-0.083333333,-0.262037065,1,0,0,2.6203,Basalt_rect,2,2.62,1,4,0,4,0,1,,,,,,,,,,,,,
5c1976c90d57c30001b4162c,SCR,2024-06-11_12h15.04.325,LearnStrategy,2023.2.3,Win32,60.24096386,6,1,6,0.261111153,-0.249074088,1,0,0,2.9785,Basalt_01,2,01,2,6,2.979,2,01,-0.122222194,-0.242592635,1,0,0,2.8638,Basalt_rect,2,2.864,1,5,0,5,0,1,,,,,,,,,,,,,
5c1976c90d57c30001b4162c,SCR,2024-06-11_12h15.04.325,LearnStrategy,2023.2.3,Win32,60.24096386,6,1,7,-0.060185185,0.080555563,1,0,0,2.6037,Diorite_14,3,14,4,4,2.604,3,14,0.158333319,-0.24537037,1,0,0,7.8916,Diorite_rect,3,7.892,1,6,0,6,0,1,,,,,,,,,,,,,
5c1976c90d57c30001b4162c,SCR,2024-06-11_12h15.04.325,LearnStrategy,2023.2.3,Win32,60.24096386,6,1,8,-0.390740748,0.249074071,1,0,0,12.3318,Andesite_05,1,05,5,2,12.332,3,16,-0.39166666,-0.258333347,1,0,0,13.7097,Andesite_rect,1,13.71,1,7,0,7,0,1,,,,,,,,,,,,,
5c1976c90d57c30001b4162c,SCR,2024-06-11_12h15.04.325,LearnStrategy,2023.2.3,Win32,60.24096386,6,1,9,-0.050925926,-0.090740734,1,0,0,1.8788,Pumice_02,8,02,3,4,1.879,8,02,0.430555556,-0.40370369,1,0,0,2.7811,Pumice_rect,8,2.781,1,8,0,8,0,1,,,,,,,,,,,,,
5c1976c90d57c30001b4162c,SCR,2024-06-11_12h15.04.325,LearnStrategy,2023.2.3,Win32,60.24096386,6,1,10,0.565740797,-0.400000042,1,0,0,10.696,Basalt_11,2,11,1,8,10.696,1,14,-0.091666681,-0.267592607,1,0,0,5.2913,Basalt_rect,2,5.291,1,9,0,9,0,1,,,,,,,,,,,,,
5c1976c90d57c30001b4162c,SCR,2024-06-11_12h15.04.325,LearnStrategy,2023.2.3,Win32,60.24096386,6,1,11,-0.234259217,-0.10092594,1,0,0,2.3313,Gabbro_11,4,11,3,3,2.331,4,11,0.439814815,-0.241666653,1,0,0,2.3857,Gabbro_rect,4,2.386,1,10,0,10,0,1,,,,,,,,,,,,,
5c1976c90d57c30001b4162c,SCR,2024-06-11_12h15.04.325,LearnStrategy,2023.2.3,Win32,60.24096386,6,1,12,-0.561111097,0.419444446,1,0,0,14.2759,Diorite_07,3,07,6,1,14.276,7,04,0.085185228,-0.236111111,1,0,0,2.643,Diorite_rect,3,2.643,1,11,0,11,0,1,,,,,,,,,,,,,
5c1976c90d57c30001b4162c,SCR,2024-06-11_12h15.04.325,LearnStrategy,2023.2.3,Win32,60.24096386,6,1,13,-0.548148155,-0.250925912,1,0,0,5.3144,Andesite_11,1,11,2,1,5.314,1,11,-0.425925926,-0.242592635,1,0,0,3.3141,Andesite_rect,1,3.314,1,12,0,12,0,1,,,,,,,,,,,,,
5c1976c90d57c30001b4162c,SCR,2024-06-11_12h15.04.325,LearnStrategy,2023.2.3,Win32,60.24096386,6,1,14,-0.401851831,0.406481478,1,0,0,1.5528,Diorite_12,3,12,6,2,1.553,4,11,0.142592607,-0.25,1,0,0,3.6082,Diorite_rect,3,3.608,1,13,0,13,0,1,,,,,,,,,,,,,
5c1976c90d57c30001b4162c,SCR,2024-06-11_12h15.04.325,LearnStrategy,2023.2.3,Win32,60.24096386,6,1,15,-0.071296268,0.25,1,0,0,13.9058,Andesite_16,1,16,5,4,13.906,4,11,-0.440740727,-0.25,1,0,0,9.5068,Andesite_rect,1,9.507,1,14,0,14,0,1,,,,,,,,,,,,,
5c1976c90d57c30001b4162c,SCR,2024-06-11_12h15.04.325,LearnStrategy,2023.2.3,Win32,60.24096386,6,1,16,-0.53148146,-0.242592635,1,0,0,13.9303,Andesite_11,1,11,2,1,13.93,2,08,-0.448148127,-0.242592635,1,0,0,2.0552,Andesite_rect,1,2.055,1,15,0,15,0,1,,,,,,,,,,,,,
5c1976c90d57c30001b4162c,SCR,2024-06-11_12h15.04.325,LearnStrategy,2023.2.3,Win32,60.24096386,6,2,1,,,,,,,,1,01,,,,,,,,,,,,,1,6.984,1,,,,,,-0.387962942,-0.25,1,0,0,6.9837,Andesite_rect,0,0,0,0,1,
5c1976c90d57c30001b4162c,SCR,2024-06-11_12h15.04.325,LearnStrategy,2023.2.3,Win32,60.24096386,6,2,2,,,,,,,,5,14,,,,,,,,,,,,,5,3.615,1,,,,,,-0.405555548,-0.413888931,1,0,0,3.6152,Obsidian_rect,1,0,1,0,1,
5c1976c90d57c30001b4162c,SCR,2024-06-11_12h15.04.325,LearnStrategy,2023.2.3,Win32,60.24096386,6,2,3,,,,,,,,6,12,,,,,,,,,,,,,6,9.832,1,,,,,,-0.143518519,-0.412037037,1,0,0,9.8323,Pegmatite_rect,2,0,2,0,1,
5c1976c90d57c30001b4162c,SCR,2024-06-11_12h15.04.325,LearnStrategy,2023.2.3,Win32,60.24096386,6,2,4,,,,,,,,6,16,,,,,,,,,,,,,6,2.316,1,,,,,,-0.143518519,-0.412037037,1,0,0,2.3155,Pegmatite_rect,3,0,3,0,1,
5c1976c90d57c30001b4162c,SCR,2024-06-11_12h15.04.325,LearnStrategy,2023.2.3,Win32,60.24096386,6,2,5,,,,,,,,3,15,,,,,,,,,,,,,3,2.908,1,,,,,,0.166666667,-0.25,1,0,0,2.9076,Diorite_rect,4,0,4,0,1,
5c1976c90d57c30001b4162c,SCR,2024-06-11_12h15.04.325,LearnStrategy,2023.2.3,Win32,60.24096386,6,2,6,,,,,,,,3,02,,,,,,,,,,,,,3,2.208,1,,,,,,0.158333319,-0.250925912,1,0,0,2.2082,Diorite_rect,5,0,5,0,1,
5c1976c90d57c30001b4162c,SCR,2024-06-11_12h15.04.325,LearnStrategy,2023.2.3,Win32,60.24096386,6,2,7,,,,,,,,1,09,,,,,,,,,,,,,1,2.563,1,,,,,,-0.437962956,-0.252777806,1,0,0,2.5627,Andesite_rect,6,0,6,0,1,
5c1976c90d57c30001b4162c,SCR,2024-06-11_12h15.04.325,LearnStrategy,2023.2.3,Win32,60.24096386,6,2,8,,,,,,,,7,13,,,,,,,,,,,,,7,1.972,1,,,,,,0.181481467,-0.402777778,1,0,0,1.9717,Peridotite_rect,7,0,7,0,1,
5c1976c90d57c30001b4162c,SCR,2024-06-11_12h15.04.325,LearnStrategy,2023.2.3,Win32,60.24096386,6,2,9,,,,,,,,4,09,,,,,,,,,,,,,4,14.95,1,,,,,,0.424074102,-0.248148176,1,0,0,14.9499,Gabbro_rect,8,0,8,0,1,
5c1976c90d57c30001b4162c,SCR,2024-06-11_12h15.04.325,LearnStrategy,2023.2.3,Win32,60.24096386,6,2,10,,,,,,,,5,04,,,,,,,,,,,,,5,1.941,1,,,,,,-0.437962956,-0.407407407,1,0,0,1.9412,Obsidian_rect,9,0,9,0,1,
5c1976c90d57c30001b4162c,SCR,2024-06-11_12h15.04.325,LearnStrategy,2023.2.3,Win32,60.24096386,6,2,11,,,,,,,,2,14,,,,,,,,,,,,,4,9.817,0,,,,,,0.443518603,-0.248148176,1,0,0,9.8171,Gabbro_rect,10,0,10,0,1,
5c1976c90d57c30001b4162c,SCR,2024-06-11_12h15.04.325,LearnStrategy,2023.2.3,Win32,60.24096386,6,2,12,,,,,,,,8,08,,,,,,,,,,,,,4,7.762,0,,,,,,0.443518603,-0.248148176,1,0,0,7.7619,Gabbro_rect,11,0,11,0,1,
5c1976c90d57c30001b4162c,SCR,2024-06-11_12h15.04.325,LearnStrategy,2023.2.3,Win32,60.24096386,6,2,13,,,,,,,,4,03,,,,,,,,,,,,,3,11.404,0,,,,,,0.138888889,-0.263888889,1,0,0,11.4039,Diorite_rect,12,0,12,0,1,
5c1976c90d57c30001b4162c,SCR,2024-06-11_12h15.04.325,LearnStrategy,2023.2.3,Win32,60.24096386,6,2,14,,,,,,,,8,04,,,,,,,,,,,,,8,2.045,1,,,,,,0.399074131,-0.409259302,1,0,0,2.0446,Pumice_rect,13,0,13,0,1,
5c1976c90d57c30001b4162c,SCR,2024-06-11_12h15.04.325,LearnStrategy,2023.2.3,Win32,60.24096386,6,2,15,,,,,,,,7,10,,,,,,,,,,,,,7,1.627,1,,,,,,0.136111153,-0.409259302,1,0,0,1.6274,Peridotite_rect,14,0,14,0,1,
5c1976c90d57c30001b4162c,SCR,2024-06-11_12h15.04.325,LearnStrategy,2023.2.3,Win32,60.24096386,6,2,16,,,,,,,,2,05,,,,,,,,,,,,,2,1.737,1,,,,,,-0.15370369,-0.241666653,1,0,0,1.7371,Basalt_rect,15,0,15,0,1,
5c1976c90d57c30001b4162c,SCR,2024-06-11_12h15.04.325,LearnStrategy,2023.2.3,Win32,60.24096386,7,1,1,0.231481481,0.25,1,0,0,2.7447,Basalt_08,2,08,5,6,2.745,2,08,-0.137036995,-0.242592635,1,0,0,1.9884,Basalt_rect,2,1.988,1,0,0,0,0,1,,,,,,,,,,,,,
5c1976c90d57c30001b4162c,SCR,2024-06-11_12h15.04.325,LearnStrategy,2023.2.3,Win32,60.24096386,7,1,2,-0.386111118,-0.247222265,1,0,0,1.573,Basalt_04,2,04,2,2,1.573,2,04,-0.14907406,-0.244444459,1,0,0,2.597,Basalt_rect,2,2.597,1,1,0,1,0,1,,,,,,,,,,,,,
5c1976c90d57c30001b4162c,SCR,2024-06-11_12h15.04.325,LearnStrategy,2023.2.3,Win32,60.24096386,7,1,3,-0.062962921,-0.072222215,1,0,0,1.3661,Pumice_02,8,02,3,4,1.366,8,02,0.450000057,-0.381481524,1,0,0,4.2129,Pumice_rect,8,4.213,1,2,0,2,0,1,,,,,,,,,,,,,
5c1976c90d57c30001b4162c,SCR,2024-06-11_12h15.04.325,LearnStrategy,2023.2.3,Win32,60.24096386,7,1,4,0.398148148,0.12037037,1,0,0,1.5244,Diorite_16,3,16,4,7,1.524,3,16,0.115740741,-0.262962977,1,0,0,1.8053,Diorite_rect,3,1.805,1,3,0,3,0,1,,,,,,,,,,,,,
5c1976c90d57c30001b4162c,SCR,2024-06-11_12h15.04.325,LearnStrategy,2023.2.3,Win32,60.24096386,7,1,5,0.062962991,-0.074074074,1,0,0,1.2462,Gabbro_10,4,10,3,5,1.246,4,10,0.40833339,-0.247222265,1,0,0,3.1752,Gabbro_rect,4,3.175,1,4,0,4,0,1,,,,,,,,,,,,,
5c1976c90d57c30001b4162c,SCR,2024-06-11_12h15.04.325,LearnStrategy,2023.2.3,Win32,60.24096386,7,1,6,-0.070370356,0.089814822,1,0,0,1.5142,Diorite_14,3,14,4,4,1.514,3,14,0.148148148,-0.234259288,1,0,0,6.1041,Diorite_rect,3,6.104,1,5,0,5,0,1,,,,,,,,,,,,,
5c1976c90d57c30001b4162c,SCR,2024-06-11_12h15.04.325,LearnStrategy,2023.2.3,Win32,60.24096386,7,1,7,0.579629686,0.24166667,1,0,0,4.6015,Pegmatite_05,6,05,5,8,4.602,5,16,-0.117592564,-0.389814801,1,0,0,5.5137,Pegmatite_rect,6,5.514,1,6,0,6,0,1,,,,,,,,,,,,,
5c1976c90d57c30001b4162c,SCR,2024-06-11_12h15.04.325,LearnStrategy,2023.2.3,Win32,60.24096386,7,1,8,-0.229629587,-0.125925912,1,0,0,2.2893,Gabbro_11,4,11,3,3,2.289,4,11,0.425000085,-0.253703718,1,0,0,2.508,Gabbro_rect,4,2.508,1,7,0,7,0,1,,,,,,,,,,,,,
5c1976c90d57c30001b4162c,SCR,2024-06-11_12h15.04.325,LearnStrategy,2023.2.3,Win32,60.24096386,7,1,9,-0.380555541,0.256481471,1,0,0,1.5308,Andesite_05,1,05,5,2,1.531,1,05,-0.440740727,-0.255555541,1,0,0,4.18,Andesite_rect,1,4.18,1,8,0,8,0,1,,,,,,,,,,,,,
5c1976c90d57c30001b4162c,SCR,2024-06-11_12h15.04.325,LearnStrategy,2023.2.3,Win32,60.24096386,7,1,10,0.068518533,0.396296298,1,0,0,1.662,Gabbro_16,4,16,6,5,1.662,4,16,0.420370455,-0.265740783,1,0,0,3.8307,Gabbro_rect,4,3.831,1,9,0,9,0,1,,,,,,,,,,,,,
5c1976c90d57c30001b4162c,SCR,2024-06-11_12h15.04.325,LearnStrategy,2023.2.3,Win32,60.24096386,7,1,11,0.555555556,-0.389814801,1,0,0,2.379,Basalt_11,2,11,1,8,2.379,2,11,-0.127777735,-0.237963005,1,0,0,3.4591,Basalt_rect,2,3.459,1,10,0,10,0,1,,,,,,,,,,,,,
5c1976c90d57c30001b4162c,SCR,2024-06-11_12h15.04.325,LearnStrategy,2023.2.3,Win32,60.24096386,7,1,12,-0.236111111,-0.087962963,1,0,0,1.9463,Gabbro_11,4,11,3,3,1.946,4,11,0.405555584,-0.236111111,1,0,0,1.7864,Gabbro_rect,4,1.786,1,11,0,11,0,1,,,,,,,,,,,,,
5c1976c90d57c30001b4162c,SCR,2024-06-11_12h15.04.325,LearnStrategy,2023.2.3,Win32,60.24096386,7,1,13,-0.252777735,0.38981481,1,0,0,2.1527,Andesite_10,1,10,6,3,2.153,1,10,-0.384259259,-0.240740741,1,0,0,8.357,Andesite_rect,1,8.357,1,12,0,12,0,1,,,,,,,,,,,,,
5c1976c90d57c30001b4162c,SCR,2024-06-11_12h15.04.325,LearnStrategy,2023.2.3,Win32,60.24096386,7,1,14,0.223148134,-0.402777778,1,0,0,2.3286,Pegmatite_10,6,10,1,6,2.329,6,10,-0.10092594,-0.402777778,1,0,0,2.3553,Pegmatite_rect,6,2.355,1,13,0,13,0,1,,,,,,,,,,,,,
5c1976c90d57c30001b4162c,SCR,2024-06-11_12h15.04.325,LearnStrategy,2023.2.3,Win32,60.24096386,7,1,15,0.054629644,-0.267592607,1,0,0,2.0609,Peridotite_02,7,02,2,5,2.061,7,02,0.160185213,-0.409259302,1,0,0,2.0532,Peridotite_rect,7,2.053,1,14,0,14,0,1,,,,,,,,,,,,,
5c1976c90d57c30001b4162c,SCR,2024-06-11_12h15.04.325,LearnStrategy,2023.2.3,Win32,60.24096386,7,1,16,-0.251851824,0.261111101,1,0,0,1.7168,Pumice_13,8,13,5,3,1.717,8,13,0.386111083,-0.411111125,1,0,0,2.0384,Pumice_rect,8,2.038,1,15,0,15,0,1,,,,,,,,,,,,,
5c1976c90d57c30001b4162c,SCR,2024-06-11_12h15.04.325,LearnStrategy,2023.2.3,Win32,60.24096386,7,2,1,,,,,,,,3,13,,,,,,,,,,,,,3,2.837,1,,,,,,0.166666667,-0.234259288,1,0,0,2.8368,Diorite_rect,0,0,0,0,1,
5c1976c90d57c30001b4162c,SCR,2024-06-11_12h15.04.325,LearnStrategy,2023.2.3,Win32,60.24096386,7,2,2,,,,,,,,4,13,,,,,,,,,,,,,3,6.584,0,,,,,,0.150925954,-0.243518547,1,0,0,6.5843,Diorite_rect,1,0,1,0,1,
5c1976c90d57c30001b4162c,SCR,2024-06-11_12h15.04.325,LearnStrategy,2023.2.3,Win32,60.24096386,7,2,3,,,,,,,,4,15,,,,,,,,,,,,,3,2.53,0,,,,,,0.150925954,-0.243518547,1,0,0,2.5303,Diorite_rect,2,0,2,0,1,
5c1976c90d57c30001b4162c,SCR,2024-06-11_12h15.04.325,LearnStrategy,2023.2.3,Win32,60.24096386,7,2,4,,,,,,,,7,06,,,,,,,,,,,,,7,8.88,1,,,,,,0.147222236,-0.410185213,1,0,0,8.8796,Peridotite_rect,3,0,3,0,1,
5c1976c90d57c30001b4162c,SCR,2024-06-11_12h15.04.325,LearnStrategy,2023.2.3,Win32,60.24096386,7,2,5,,,,,,,,3,02,,,,,,,,,,,,,3,1.627,1,,,,,,0.136111153,-0.253703718,1,0,0,1.627,Diorite_rect,4,0,4,0,1,
5c1976c90d57c30001b4162c,SCR,2024-06-11_12h15.04.325,LearnStrategy,2023.2.3,Win32,60.24096386,7,2,6,,,,,,,,5,10,,,,,,,,,,,,,5,1.682,1,,,,,,-0.457407386,-0.410185213,1,0,0,1.6825,Obsidian_rect,5,0,5,0,1,
5c1976c90d57c30001b4162c,SCR,2024-06-11_12h15.04.325,LearnStrategy,2023.2.3,Win32,60.24096386,7,2,7,,,,,,,,5,14,,,,,,,,,,,,,5,7.423,1,,,,,,-0.457407386,-0.410185213,1,0,0,7.423,Obsidian_rect,6,0,6,0,1,
5c1976c90d57c30001b4162c,SCR,2024-06-11_12h15.04.325,LearnStrategy,2023.2.3,Win32,60.24096386,7,2,8,,,,,,,,6,03,,,,,,,,,,,,,6,3.982,1,,,,,,-0.145370342,-0.407407407,1,0,0,3.9821,Pegmatite_rect,7,0,7,0,1,
5c1976c90d57c30001b4162c,SCR,2024-06-11_12h15.04.325,LearnStrategy,2023.2.3,Win32,60.24096386,7,2,9,,,,,,,,2,06,,,,,,,,,,,,,2,2.677,1,,,,,,-0.093518504,-0.265740783,1,0,0,2.6769,Basalt_rect,8,0,8,0,1,
5c1976c90d57c30001b4162c,SCR,2024-06-11_12h15.04.325,LearnStrategy,2023.2.3,Win32,60.24096386,7,2,10,,,,,,,,1,02,,,,,,,,,,,,,3,11.736,0,,,,,,0.15370369,-0.251851894,1,0,0,11.7358,Diorite_rect,9,0,9,0,1,
5c1976c90d57c30001b4162c,SCR,2024-06-11_12h15.04.325,LearnStrategy,2023.2.3,Win32,60.24096386,7,2,11,,,,,,,,6,11,,,,,,,,,,,,,6,3.476,1,,,,,,-0.095370328,-0.407407407,1,0,0,3.4762,Pegmatite_rect,10,0,10,0,1,
5c1976c90d57c30001b4162c,SCR,2024-06-11_12h15.04.325,LearnStrategy,2023.2.3,Win32,60.24096386,7,2,12,,,,,,,,1,09,,,,,,,,,,,,,1,2.594,1,,,,,,-0.39166666,-0.260185171,1,0,0,2.5941,Andesite_rect,11,0,11,0,1,
5c1976c90d57c30001b4162c,SCR,2024-06-11_12h15.04.325,LearnStrategy,2023.2.3,Win32,60.24096386,7,2,13,,,,,,,,8,05,,,,,,,,,,,,,8,1.84,1,,,,,,0.450925898,-0.404629672,1,0,0,1.8399,Pumice_rect,12,0,12,0,1,
5c1976c90d57c30001b4162c,SCR,2024-06-11_12h15.04.325,LearnStrategy,2023.2.3,Win32,60.24096386,7,2,14,,,,,,,,7,16,,,,,,,,,,,,,7,2.005,1,,,,,,0.173148191,-0.393518519,1,0,0,2.0049,Peridotite_rect,13,0,13,0,1,
5c1976c90d57c30001b4162c,SCR,2024-06-11_12h15.04.325,LearnStrategy,2023.2.3,Win32,60.24096386,7,2,15,,,,,,,,8,08,,,,,,,,,,,,,2,13.278,0,,,,,,-0.155555513,-0.247222265,1,0,0,13.2779,Basalt_rect,14,0,14,0,1,
5c1976c90d57c30001b4162c,SCR,2024-06-11_12h15.04.325,LearnStrategy,2023.2.3,Win32,60.24096386,7,2,16,,,,,,,,2,10,,,,,,,,,,,,,4,4.624,0,,,,,,0.404629601,-0.251851894,1,0,0,4.6241,Gabbro_rect,15,0,15,0,1,
5c1976c90d57c30001b4162c,SCR,2024-06-11_12h15.04.325,LearnStrategy,2023.2.3,Win32,60.24096386,8,1,1,-0.074074074,-0.405555584,1,0,0,5.6866,Peridotite_07,7,07,1,4,5.687,3,08,0.119444459,-0.400925954,1,0,0,2.8328,Peridotite_rect,7,2.833,1,0,0,0,0,1,,,,,,,,,,,,,
5c1976c90d57c30001b4162c,SCR,2024-06-11_12h15.04.325,LearnStrategy,2023.2.3,Win32,60.24096386,8,1,2,-0.056481467,-0.083333333,1,0,0,1.9743,Pumice_02,8,02,3,4,1.974,8,02,0.434259344,-0.395370413,1,0,0,2.1158,Pumice_rect,8,2.116,1,1,0,1,0,1,,,,,,,,,,,,,
5c1976c90d57c30001b4162c,SCR,2024-06-11_12h15.04.325,LearnStrategy,2023.2.3,Win32,60.24096386,8,1,3,-0.545370349,0.073148127,1,0,0,2.414,Gabbro_12,4,12,4,1,2.414,4,12,0.419444473,-0.251851894,1,0,0,8.4236,Gabbro_rect,4,8.424,1,2,0,2,0,1,,,,,,,,,,,,,
5c1976c90d57c30001b4162c,SCR,2024-06-11_12h15.04.325,LearnStrategy,2023.2.3,Win32,60.24096386,8,1,4,-0.585185192,0.417592587,1,0,0,10.4768,Diorite_07,3,07,6,1,10.477,6,08,0.191666709,-0.255555541,1,0,0,2.1827,Diorite_rect,3,2.183,1,3,0,3,0,1,,,,,,,,,,,,,
5c1976c90d57c30001b4162c,SCR,2024-06-11_12h15.04.325,LearnStrategy,2023.2.3,Win32,60.24096386,8,1,5,0.094444487,-0.262962977,1,0,0,2.8867,Peridotite_02,7,02,2,5,2.887,7,02,0.121296282,-0.395370413,1,0,0,1.7288,Peridotite_rect,7,1.729,1,4,0,4,0,1,,,,,,,,,,,,,
5c1976c90d57c30001b4162c,SCR,2024-06-11_12h15.04.325,LearnStrategy,2023.2.3,Win32,60.24096386,8,1,6,-0.397222201,0.412962958,1,0,0,2.8163,Diorite_12,3,12,6,2,2.816,2,08,0.164814843,-0.24537037,1,0,0,1.9917,Diorite_rect,3,1.992,1,5,0,5,0,1,,,,,,,,,,,,,
5c1976c90d57c30001b4162c,SCR,2024-06-11_12h15.04.325,LearnStrategy,2023.2.3,Win32,60.24096386,8,1,7,-0.231481481,0.420370367,1,0,0,4.4991,Andesite_10,1,10,6,3,4.499,2,04,-0.427777785,-0.240740741,1,0,0,12.8155,Andesite_rect,1,12.816,1,6,0,6,0,1,,,,,,,,,,,,,
5c1976c90d57c30001b4162c,SCR,2024-06-11_12h15.04.325,LearnStrategy,2023.2.3,Win32,60.24096386,8,1,8,-0.227777764,-0.400000042,1,0,0,2.827,Gabbro_08,4,08,1,3,2.827,4,08,0.415740826,-0.246296282,1,0,0,2.524,Gabbro_rect,4,2.524,1,7,0,7,0,1,,,,,,,,,,,,,
5c1976c90d57c30001b4162c,SCR,2024-06-11_12h15.04.325,LearnStrategy,2023.2.3,Win32,60.24096386,8,1,9,-0.086111069,0.113888882,1,0,0,1.9797,Diorite_14,3,14,4,4,1.98,3,14,0.162962949,-0.233333376,1,0,0,1.7019,Diorite_rect,3,1.702,1,8,0,8,0,1,,,,,,,,,,,,,
5c1976c90d57c30001b4162c,SCR,2024-06-11_12h15.04.325,LearnStrategy,2023.2.3,Win32,60.24096386,8,1,10,0.102777764,0.406481478,1,0,0,5.6905,Gabbro_16,4,16,6,5,5.691,2,16,0.399999972,-0.258333347,1,0,0,2.0859,Gabbro_rect,4,2.086,1,9,0,9,0,1,,,,,,,,,,,,,
5c1976c90d57c30001b4162c,SCR,2024-06-11_12h15.04.325,LearnStrategy,2023.2.3,Win32,60.24096386,8,1,11,0.391666695,-0.418518561,1,0,0,11.3458,Basalt_12,2,12,1,7,11.346,4,11,-0.075925898,-0.255555541,1,0,0,2.2005,Basalt_rect,2,2.2,1,10,0,10,0,1,,,,,,,,,,,,,
5c1976c90d57c30001b4162c,SCR,2024-06-11_12h15.04.325,LearnStrategy,2023.2.3,Win32,60.24096386,8,1,12,-0.06759255,0.25462963,1,0,0,1.761,Andesite_16,1,16,5,4,1.761,1,16,-0.422222208,-0.255555541,1,0,0,5.2061,Andesite_rect,1,5.206,1,11,0,11,0,1,,,,,,,,,,,,,
5c1976c90d57c30001b4162c,SCR,2024-06-11_12h15.04.325,LearnStrategy,2023.2.3,Win32,60.24096386,8,1,13,-0.555555556,-0.442592621,1,0,0,2.8992,Gabbro_14,4,14,1,1,2.899,4,14,0.437037009,-0.249074088,1,0,0,4.0142,Gabbro_rect,4,4.014,1,12,0,12,0,1,,,,,,,,,,,,,
5c1976c90d57c30001b4162c,SCR,2024-06-11_12h15.04.325,LearnStrategy,2023.2.3,Win32,60.24096386,8,1,14,0.561111168,-0.081481474,1,0,0,2.5304,Pumice_10,8,10,3,8,2.53,8,10,0.419444473,-0.397222236,1,0,0,1.6,Pumice_rect,8,1.6,1,13,0,13,0,1,,,,,,,,,,,,,
5c1976c90d57c30001b4162c,SCR,2024-06-11_12h15.04.325,LearnStrategy,2023.2.3,Win32,60.24096386,8,1,15,0.562962991,0.116666653,1,0,0,8.3136,Diorite_11,3,11,4,8,8.314,5,08,0.159259302,-0.241666653,1,0,0,2.4578,Diorite_rect,3,2.458,1,14,0,14,0,1,,,,,,,,,,,,,
5c1976c90d57c30001b4162c,SCR,2024-06-11_12h15.04.325,LearnStrategy,2023.2.3,Win32,60.24096386,8,1,16,0.089814857,0.421296296,1,0,0,3.4306,Gabbro_16,4,16,6,5,3.431,4,16,0.405555584,-0.256481524,1,0,0,4.0159,Gabbro_rect,4,4.016,1,15,0,15,0,1,,,,,,,,,,,,,
5c1976c90d57c30001b4162c,SCR,2024-06-11_12h15.04.325,LearnStrategy,2023.2.3,Win32,60.24096386,8,2,1,,,,,,,,1,04,,,,,,,,,,,,,1,2.956,1,,,,,,-0.372222229,-0.263888889,1,0,0,2.9555,Andesite_rect,0,0,0,0,1,
5c1976c90d57c30001b4162c,SCR,2024-06-11_12h15.04.325,LearnStrategy,2023.2.3,Win32,60.24096386,8,2,2,,,,,,,,2,14,,,,,,,,,,,,,8,9.311,0,,,,,,0.428703732,-0.400925954,1,0,0,9.3113,Pumice_rect,1,0,1,0,1,
5c1976c90d57c30001b4162c,SCR,2024-06-11_12h15.04.325,LearnStrategy,2023.2.3,Win32,60.24096386,8,2,3,,,,,,,,4,05,,,,,,,,,,,,,4,10.382,1,,,,,,0.42314812,-0.23055557,1,0,0,10.3824,Gabbro_rect,2,0,2,0,1,
5c1976c90d57c30001b4162c,SCR,2024-06-11_12h15.04.325,LearnStrategy,2023.2.3,Win32,60.24096386,8,2,4,,,,,,,,6,12,,,,,,,,,,,,,6,5.522,1,,,,,,-0.115740741,-0.395370413,1,0,0,5.5223,Pegmatite_rect,3,0,3,0,1,
5c1976c90d57c30001b4162c,SCR,2024-06-11_12h15.04.325,LearnStrategy,2023.2.3,Win32,60.24096386,8,2,5,,,,,,,,5,09,,,,,,,,,,,,,5,1.651,1,,,,,,-0.383333312,-0.415740755,1,0,0,1.6513,Obsidian_rect,4,0,4,0,1,
5c1976c90d57c30001b4162c,SCR,2024-06-11_12h15.04.325,LearnStrategy,2023.2.3,Win32,60.24096386,8,2,6,,,,,,,,5,06,,,,,,,,,,,,,5,1.388,1,,,,,,-0.383333312,-0.415740755,1,0,0,1.3877,Obsidian_rect,5,0,5,0,1,
5c1976c90d57c30001b4162c,SCR,2024-06-11_12h15.04.325,LearnStrategy,2023.2.3,Win32,60.24096386,8,2,7,,,,,,,,3,09,,,,,,,,,,,,,3,2.287,1,,,,,,0.174074102,-0.246296282,1,0,0,2.2875,Diorite_rect,6,0,6,0,1,
5c1976c90d57c30001b4162c,SCR,2024-06-11_12h15.04.325,LearnStrategy,2023.2.3,Win32,60.24096386,8,2,8,,,,,,,,1,03,,,,,,,,,,,,,1,1.563,1,,,,,,-0.417592578,-0.235185199,1,0,0,1.5625,Andesite_rect,7,0,7,0,1,
5c1976c90d57c30001b4162c,SCR,2024-06-11_12h15.04.325,LearnStrategy,2023.2.3,Win32,60.24096386,8,2,9,,,,,,,,6,13,,,,,,,,,,,,,3,34.18,0,,,,,,0.17777782,-0.249074088,1,0,0,34.1799,Diorite_rect,8,0,8,0,1,
5c1976c90d57c30001b4162c,SCR,2024-06-11_12h15.04.325,LearnStrategy,2023.2.3,Win32,60.24096386,8,2,10,,,,,,,,3,15,,,,,,,,,,,,,3,3.868,1,,,,,,0.180555556,-0.250925912,1,0,0,3.8675,Diorite_rect,9,0,9,0,1,
5c1976c90d57c30001b4162c,SCR,2024-06-11_12h15.04.325,LearnStrategy,2023.2.3,Win32,60.24096386,8,2,11,,,,,,,,7,08,,,,,,,,,,,,,7,2.237,1,,,,,,0.172222208,-0.414814843,1,0,0,2.237,Peridotite_rect,10,0,10,0,1,
5c1976c90d57c30001b4162c,SCR,2024-06-11_12h15.04.325,LearnStrategy,2023.2.3,Win32,60.24096386,8,2,12,,,,,,,,2,02,,,,,,,,,,,,,2,1.68,1,,,,,,-0.163888861,-0.243518547,1,0,0,1.6802,Basalt_rect,11,0,11,0,1,
5c1976c90d57c30001b4162c,SCR,2024-06-11_12h15.04.325,LearnStrategy,2023.2.3,Win32,60.24096386,8,2,13,,,,,,,,8,04,,,,,,,,,,,,,8,2.133,1,,,,,,0.415740826,-0.401851866,1,0,0,2.1325,Pumice_rect,12,0,12,0,1,
5c1976c90d57c30001b4162c,SCR,2024-06-11_12h15.04.325,LearnStrategy,2023.2.3,Win32,60.24096386,8,2,14,,,,,,,,8,09,,,,,,,,,,,,,8,1.126,1,,,,,,0.415740826,-0.401851866,1,0,0,1.1256,Pumice_rect,13,0,13,0,1,
5c1976c90d57c30001b4162c,SCR,2024-06-11_12h15.04.325,LearnStrategy,2023.2.3,Win32,60.24096386,8,2,15,,,,,,,,4,03,,,,,,,,,,,,,4,4.354,1,,,,,,0.415740826,-0.235185199,1,0,0,4.3542,Gabbro_rect,14,0,14,0,1,
5c1976c90d57c30001b4162c,SCR,2024-06-11_12h15.04.325,LearnStrategy,2023.2.3,Win32,60.24096386,8,2,16,,,,,,,,7,14,,,,,,,,,,,,,7,3.13,1,,,,,,0.14907406,-0.419444473,1,0,0,3.1302,Peridotite_rect,15,0,15,0,1,
5c1976c90d57c30001b4162c,SCR,2024-06-11_12h15.04.325,LearnStrategy,2023.2.3,Win32,60.24096386,9,1,1,-0.074074074,-0.436111097,1,0,0,2.7919,Peridotite_07,7,07,1,4,2.792,7,07,0.183333362,-0.413888931,1,0,0,2.8453,Peridotite_rect,7,2.845,1,0,0,0,0,1,,,,,,,,,,,,,
5c1976c90d57c30001b4162c,SCR,2024-06-11_12h15.04.325,LearnStrategy,2023.2.3,Win32,60.24096386,9,1,2,-0.224999958,0.285185178,1,0,0,1.8172,Pumice_13,8,13,5,3,1.817,8,13,0.425925926,-0.386111153,1,0,0,1.4141,Pumice_rect,8,1.414,1,1,0,1,0,1,,,,,,,,,,,,,
5c1976c90d57c30001b4162c,SCR,2024-06-11_12h15.04.325,LearnStrategy,2023.2.3,Win32,60.24096386,9,1,3,0.223148134,0.26666666,1,0,0,2.1059,Basalt_08,2,08,5,6,2.106,2,08,-0.146296254,-0.253703718,1,0,0,1.8755,Basalt_rect,2,1.875,1,2,0,2,0,1,,,,,,,,,,,,,
5c1976c90d57c30001b4162c,SCR,2024-06-11_12h15.04.325,LearnStrategy,2023.2.3,Win32,60.24096386,9,1,4,-0.253703718,-0.10092594,1,0,0,1.7182,Gabbro_11,4,11,3,3,1.718,4,11,0.410185213,-0.241666653,1,0,0,2.4282,Gabbro_rect,4,2.428,1,3,0,3,0,1,,,,,,,,,,,,,
5c1976c90d57c30001b4162c,SCR,2024-06-11_12h15.04.325,LearnStrategy,2023.2.3,Win32,60.24096386,9,1,5,0.071296339,-0.109259288,1,0,0,1.8944,Gabbro_10,4,10,3,5,1.894,4,10,0.428703732,-0.246296282,1,0,0,6.6113,Gabbro_rect,4,6.611,1,4,0,4,0,1,,,,,,,,,,,,,
5c1976c90d57c30001b4162c,SCR,2024-06-11_12h15.04.325,LearnStrategy,2023.2.3,Win32,60.24096386,9,1,6,-0.375925912,-0.22592594,1,0,0,1.702,Basalt_04,2,04,2,2,1.702,2,04,-0.111111111,-0.250925912,1,0,0,1.8605,Basalt_rect,2,1.86,1,5,0,5,0,1,,,,,,,,,,,,,
5c1976c90d57c30001b4162c,SCR,2024-06-11_12h15.04.325,LearnStrategy,2023.2.3,Win32,60.24096386,9,1,7,-0.53611109,0.387962959,1,0,0,2.5662,Diorite_07,3,07,6,1,2.566,3,07,0.155555584,-0.241666653,1,0,0,1.7899,Diorite_rect,3,1.79,1,6,0,6,0,1,,,,,,,,,,,,,
5c1976c90d57c30001b4162c,SCR,2024-06-11_12h15.04.325,LearnStrategy,2023.2.3,Win32,60.24096386,9,1,8,-0.066666638,0.230555552,1,0,0,1.3934,Andesite_16,1,16,5,4,1.393,1,16,-0.40648146,-0.240740741,1,0,0,2.0089,Andesite_rect,1,2.009,1,7,0,7,0,1,,,,,,,,,,,,,
5c1976c90d57c30001b4162c,SCR,2024-06-11_12h15.04.325,LearnStrategy,2023.2.3,Win32,60.24096386,9,1,9,0.551851908,0.088888875,1,0,0,1.643,Diorite_11,3,11,4,8,1.643,3,11,0.137037065,-0.257407436,1,0,0,3.0836,Diorite_rect,3,3.084,1,8,0,8,0,1,,,,,,,,,,,,,
5c1976c90d57c30001b4162c,SCR,2024-06-11_12h15.04.325,LearnStrategy,2023.2.3,Win32,60.24096386,9,1,10,0.538888861,-0.409259302,1,0,0,2.4622,Basalt_11,2,11,1,8,2.462,2,11,-0.080555527,-0.255555541,1,0,0,2.2515,Basalt_rect,2,2.251,1,9,0,9,0,1,,,,,,,,,,,,,
5c1976c90d57c30001b4162c,SCR,2024-06-11_12h15.04.325,LearnStrategy,2023.2.3,Win32,60.24096386,9,1,11,0.07685188,-0.100000028,1,0,0,2.312,Gabbro_10,4,10,3,5,2.312,4,10,0.417592649,-0.247222265,1,0,0,6.5661,Gabbro_rect,4,6.566,1,10,0,10,0,1,,,,,,,,,,,,,
5c1976c90d57c30001b4162c,SCR,2024-06-11_12h15.04.325,LearnStrategy,2023.2.3,Win32,60.24096386,9,1,12,0.191666709,-0.400925954,1,0,0,1.7374,Pegmatite_10,6,10,1,6,1.737,6,10,-0.149999972,-0.406481496,1,0,0,2.5482,Pegmatite_rect,6,2.548,1,11,0,11,0,1,,,,,,,,,,,,,
5c1976c90d57c30001b4162c,SCR,2024-06-11_12h15.04.325,LearnStrategy,2023.2.3,Win32,60.24096386,9,1,13,0.243518547,-0.262037065,1,0,0,13.2131,Basalt_01,2,01,2,6,13.213,5,16,-0.143518519,-0.247222265,1,0,0,2.1021,Basalt_rect,2,2.102,1,12,0,12,0,1,,,,,,,,,,,,,
5c1976c90d57c30001b4162c,SCR,2024-06-11_12h15.04.325,LearnStrategy,2023.2.3,Win32,60.24096386,9,1,14,0.529629601,-0.39907406,1,0,0,3.9962,Basalt_11,2,11,1,8,3.996,8,10,-0.145370342,-0.255555541,1,0,0,1.8175,Basalt_rect,2,1.818,1,13,0,13,0,1,,,,,,,,,,,,,
5c1976c90d57c30001b4162c,SCR,2024-06-11_12h15.04.325,LearnStrategy,2023.2.3,Win32,60.24096386,9,1,15,-0.243518476,-0.412037037,1,0,0,5.6361,Gabbro_08,4,08,1,3,5.636,6,10,0.424074102,-0.241666653,1,0,0,5.0204,Gabbro_rect,4,5.02,1,14,0,14,0,1,,,,,,,,,,,,,
5c1976c90d57c30001b4162c,SCR,2024-06-11_12h15.04.325,LearnStrategy,2023.2.3,Win32,60.24096386,9,1,16,0.562037009,-0.410185213,1,0,0,6.9509,Basalt_11,2,11,1,8,6.951,2,11,-0.158333319,-0.255555541,1,0,0,2.1454,Basalt_rect,2,2.145,1,15,0,15,0,1,,,,,,,,,,,,,
5c1976c90d57c30001b4162c,SCR,2024-06-11_12h15.04.325,LearnStrategy,2023.2.3,Win32,60.24096386,9,2,1,,,,,,,,5,04,,,,,,,,,,,,,5,1.958,1,,,,,,-0.380555541,-0.411111125,1,0,0,1.9576,Obsidian_rect,0,0,0,0,1,
5c1976c90d57c30001b4162c,SCR,2024-06-11_12h15.04.325,LearnStrategy,2023.2.3,Win32,60.24096386,9,2,2,,,,,,,,8,16,,,,,,,,,,,,,8,2.522,1,,,,,,0.383333418,-0.398148148,1,0,0,2.5218,Pumice_rect,1,0,1,0,1,
5c1976c90d57c30001b4162c,SCR,2024-06-11_12h15.04.325,LearnStrategy,2023.2.3,Win32,60.24096386,9,2,3,,,,,,,,4,01,,,,,,,,,,,,,4,3.59,1,,,,,,0.369444529,-0.241666653,1,0,0,3.5896,Gabbro_rect,2,0,2,0,1,
5c1976c90d57c30001b4162c,SCR,2024-06-11_12h15.04.325,LearnStrategy,2023.2.3,Win32,60.24096386,9,2,4,,,,,,,,4,09,,,,,,,,,,,,,4,16.872,1,,,,,,0.386111083,-0.248148176,1,0,0,16.8719,Gabbro_rect,3,0,3,0,1,
5c1976c90d57c30001b4162c,SCR,2024-06-11_12h15.04.325,LearnStrategy,2023.2.3,Win32,60.24096386,9,2,5,,,,,,,,2,09,,,,,,,,,,,,,2,2.151,1,,,,,,-0.110185199,-0.264814801,1,0,0,2.1512,Basalt_rect,4,0,4,0,1,
5c1976c90d57c30001b4162c,SCR,2024-06-11_12h15.04.325,LearnStrategy,2023.2.3,Win32,60.24096386,9,2,6,,,,,,,,7,13,,,,,,,,,,,,,7,2.263,1,,,,,,0.136111153,-0.401851866,1,0,0,2.2634,Peridotite_rect,5,0,5,0,1,
5c1976c90d57c30001b4162c,SCR,2024-06-11_12h15.04.325,LearnStrategy,2023.2.3,Win32,60.24096386,9,2,7,,,,,,,,1,06,,,,,,,,,,,,,1,3.194,1,,,,,,-0.435185185,-0.258333347,1,0,0,3.1943,Andesite_rect,6,0,6,0,1,
5c1976c90d57c30001b4162c,SCR,2024-06-11_12h15.04.325,LearnStrategy,2023.2.3,Win32,60.24096386,9,2,8,,,,,,,,6,09,,,,,,,,,,,,,6,2.121,1,,,,,,-0.146296254,-0.402777778,1,0,0,2.121,Pegmatite_rect,7,0,7,0,1,
5c1976c90d57c30001b4162c,SCR,2024-06-11_12h15.04.325,LearnStrategy,2023.2.3,Win32,60.24096386,9,2,9,,,,,,,,1,01,,,,,,,,,,,,,1,5.514,1,,,,,,-0.376851859,-0.246296282,1,0,0,5.5139,Andesite_rect,8,0,8,0,1,
5c1976c90d57c30001b4162c,SCR,2024-06-11_12h15.04.325,LearnStrategy,2023.2.3,Win32,60.24096386,9,2,10,,,,,,,,5,02,,,,,,,,,,,,,5,1.615,1,,,,,,-0.401851831,-0.400000042,1,0,0,1.6151,Obsidian_rect,9,0,9,0,1,
5c1976c90d57c30001b4162c,SCR,2024-06-11_12h15.04.325,LearnStrategy,2023.2.3,Win32,60.24096386,9,2,11,,,,,,,,3,06,,,,,,,,,,,,,3,19.579,1,,,,,,0.175000014,-0.23055557,1,0,0,19.5791,Diorite_rect,10,0,10,0,1,
5c1976c90d57c30001b4162c,SCR,2024-06-11_12h15.04.325,LearnStrategy,2023.2.3,Win32,60.24096386,9,2,12,,,,,,,,3,10,,,,,,,,,,,,,3,11.474,1,,,,,,0.185185185,-0.241666653,1,0,0,11.4743,Diorite_rect,11,0,11,0,1,
5c1976c90d57c30001b4162c,SCR,2024-06-11_12h15.04.325,LearnStrategy,2023.2.3,Win32,60.24096386,9,2,13,,,,,,,,2,05,,,,,,,,,,,,,2,2.046,1,,,,,,-0.141666624,-0.247222265,1,0,0,2.0461,Basalt_rect,12,0,12,0,1,
5c1976c90d57c30001b4162c,SCR,2024-06-11_12h15.04.325,LearnStrategy,2023.2.3,Win32,60.24096386,9,2,14,,,,,,,,7,10,,,,,,,,,,,,,7,2.121,1,,,,,,0.174074102,-0.396296325,1,0,0,2.1208,Peridotite_rect,13,0,13,0,1,
5c1976c90d57c30001b4162c,SCR,2024-06-11_12h15.04.325,LearnStrategy,2023.2.3,Win32,60.24096386,9,2,15,,,,,,,,6,16,,,,,,,,,,,,,6,3.374,1,,,,,,-0.140740712,-0.400000042,1,0,0,3.3745,Pegmatite_rect,14,0,14,0,1,
5c1976c90d57c30001b4162c,SCR,2024-06-11_12h15.04.325,LearnStrategy,2023.2.3,Win32,60.24096386,9,2,16,,,,,,,,8,03,,,,,,,,,,,,,8,2.948,1,,,,,,0.416666667,-0.409259302,1,0,0,2.948,Pumice_rect,15,0,15,0,1,
5c1976c90d57c30001b4162c,SCR,2024-06-11_12h15.04.325,LearnStrategy,2023.2.3,Win32,60.24096386,,,,,,,,,,,,,,,,,,,,,,,,,,,,,,,,,,,,,,,,,,,,,1
5c1976c90d57c30001b4162c,SCR,2024-06-11_12h15.04.325,LearnStrategy,2023.2.3,Win32,60.24096386,,,,,,,,,,,,,,,,,,,,,,,,,,,,,,,,,,,,,,,,,,,,,
5c1976c90d57c30001b4162c,SCR,2024-06-11_12h15.04.325,LearnStrategy,2023.2.3,Win32,60.24096386,,,,,,,,,,,4,14,1,1,,,,,,,,,,,,,,,,,,,,,,,,,,,,,,,
5c1976c90d57c30001b4162c,SCR,2024-06-11_12h15.04.325,LearnStrategy,2023.2.3,Win32,60.24096386,,,,,,,,,,,7,12,1,2,,,,,,,,,,,,,,,,,,,,,,,,,,,,,,,
5c1976c90d57c30001b4162c,SCR,2024-06-11_12h15.04.325,LearnStrategy,2023.2.3,Win32,60.24096386,,,,,,,,,,,4,08,1,3,,,,,,,,,,,,,,,,,,,,,,,,,,,,,,,
5c1976c90d57c30001b4162c,SCR,2024-06-11_12h15.04.325,LearnStrategy,2023.2.3,Win32,60.24096386,,,,,,,,,,,7,07,1,4,,,,,,,,,,,,,,,,,,,,,,,,,,,,,,,
5c1976c90d57c30001b4162c,SCR,2024-06-11_12h15.04.325,LearnStrategy,2023.2.3,Win32,60.24096386,,,,,,,,,,,3,08,1,5,,,,,,,,,,,,,,,,,,,,,,,,,,,,,,,
5c1976c90d57c30001b4162c,SCR,2024-06-11_12h15.04.325,LearnStrategy,2023.2.3,Win32,60.24096386,,,,,,,,,,,6,10,1,6,,,,,,,,,,,,,,,,,,,,,,,,,,,,,,,
5c1976c90d57c30001b4162c,SCR,2024-06-11_12h15.04.325,LearnStrategy,2023.2.3,Win32,60.24096386,,,,,,,,,,,2,12,1,7,,,,,,,,,,,,,,,,,,,,,,,,,,,,,,,
5c1976c90d57c30001b4162c,SCR,2024-06-11_12h15.04.325,LearnStrategy,2023.2.3,Win32,60.24096386,,,,,,,,,,,2,11,1,8,,,,,,,,,,,,,,,,,,,,,,,,,,,,,,,
5c1976c90d57c30001b4162c,SCR,2024-06-11_12h15.04.325,LearnStrategy,2023.2.3,Win32,60.24096386,,,,,,,,,,,1,11,2,1,,,,,,,,,,,,,,,,,,,,,,,,,,,,,,,
5c1976c90d57c30001b4162c,SCR,2024-06-11_12h15.04.325,LearnStrategy,2023.2.3,Win32,60.24096386,,,,,,,,,,,2,04,2,2,,,,,,,,,,,,,,,,,,,,,,,,,,,,,,,
5c1976c90d57c30001b4162c,SCR,2024-06-11_12h15.04.325,LearnStrategy,2023.2.3,Win32,60.24096386,,,,,,,,,,,7,15,2,3,,,,,,,,,,,,,,,,,,,,,,,,,,,,,,,
5c1976c90d57c30001b4162c,SCR,2024-06-11_12h15.04.325,LearnStrategy,2023.2.3,Win32,60.24096386,,,,,,,,,,,5,12,2,4,,,,,,,,,,,,,,,,,,,,,,,,,,,,,,,
5c1976c90d57c30001b4162c,SCR,2024-06-11_12h15.04.325,LearnStrategy,2023.2.3,Win32,60.24096386,,,,,,,,,,,7,02,2,5,,,,,,,,,,,,,,,,,,,,,,,,,,,,,,,
5c1976c90d57c30001b4162c,SCR,2024-06-11_12h15.04.325,LearnStrategy,2023.2.3,Win32,60.24096386,,,,,,,,,,,2,01,2,6,,,,,,,,,,,,,,,,,,,,,,,,,,,,,,,
5c1976c90d57c30001b4162c,SCR,2024-06-11_12h15.04.325,LearnStrategy,2023.2.3,Win32,60.24096386,,,,,,,,,,,7,04,2,7,,,,,,,,,,,,,,,,,,,,,,,,,,,,,,,
5c1976c90d57c30001b4162c,SCR,2024-06-11_12h15.04.325,LearnStrategy,2023.2.3,Win32,60.24096386,,,,,,,,,,,5,08,2,8,,,,,,,,,,,,,,,,,,,,,,,,,,,,,,,
5c1976c90d57c30001b4162c,SCR,2024-06-11_12h15.04.325,LearnStrategy,2023.2.3,Win32,60.24096386,,,,,,,,,,,2,16,3,1,,,,,,,,,,,,,,,,,,,,,,,,,,,,,,,
5c1976c90d57c30001b4162c,SCR,2024-06-11_12h15.04.325,LearnStrategy,2023.2.3,Win32,60.24096386,,,,,,,,,,,6,06,3,2,,,,,,,,,,,,,,,,,,,,,,,,,,,,,,,
5c1976c90d57c30001b4162c,SCR,2024-06-11_12h15.04.325,LearnStrategy,2023.2.3,Win32,60.24096386,,,,,,,,,,,4,11,3,3,,,,,,,,,,,,,,,,,,,,,,,,,,,,,,,
5c1976c90d57c30001b4162c,SCR,2024-06-11_12h15.04.325,LearnStrategy,2023.2.3,Win32,60.24096386,,,,,,,,,,,8,02,3,4,,,,,,,,,,,,,,,,,,,,,,,,,,,,,,,
5c1976c90d57c30001b4162c,SCR,2024-06-11_12h15.04.325,LearnStrategy,2023.2.3,Win32,60.24096386,,,,,,,,,,,4,10,3,5,,,,,,,,,,,,,,,,,,,,,,,,,,,,,,,
5c1976c90d57c30001b4162c,SCR,2024-06-11_12h15.04.325,LearnStrategy,2023.2.3,Win32,60.24096386,,,,,,,,,,,5,07,3,6,,,,,,,,,,,,,,,,,,,,,,,,,,,,,,,
5c1976c90d57c30001b4162c,SCR,2024-06-11_12h15.04.325,LearnStrategy,2023.2.3,Win32,60.24096386,,,,,,,,,,,6,07,3,7,,,,,,,,,,,,,,,,,,,,,,,,,,,,,,,
5c1976c90d57c30001b4162c,SCR,2024-06-11_12h15.04.325,LearnStrategy,2023.2.3,Win32,60.24096386,,,,,,,,,,,8,10,3,8,,,,,,,,,,,,,,,,,,,,,,,,,,,,,,,
5c1976c90d57c30001b4162c,SCR,2024-06-11_12h15.04.325,LearnStrategy,2023.2.3,Win32,60.24096386,,,,,,,,,,,4,12,4,1,,,,,,,,,,,,,,,,,,,,,,,,,,,,,,,
5c1976c90d57c30001b4162c,SCR,2024-06-11_12h15.04.325,LearnStrategy,2023.2.3,Win32,60.24096386,,,,,,,,,,,5,05,4,2,,,,,,,,,,,,,,,,,,,,,,,,,,,,,,,
5c1976c90d57c30001b4162c,SCR,2024-06-11_12h15.04.325,LearnStrategy,2023.2.3,Win32,60.24096386,,,,,,,,,,,8,14,4,3,,,,,,,,,,,,,,,,,,,,,,,,,,,,,,,
5c1976c90d57c30001b4162c,SCR,2024-06-11_12h15.04.325,LearnStrategy,2023.2.3,Win32,60.24096386,,,,,,,,,,,3,14,4,4,,,,,,,,,,,,,,,,,,,,,,,,,,,,,,,
5c1976c90d57c30001b4162c,SCR,2024-06-11_12h15.04.325,LearnStrategy,2023.2.3,Win32,60.24096386,,,,,,,,,,,5,11,4,5,,,,,,,,,,,,,,,,,,,,,,,,,,,,,,,
5c1976c90d57c30001b4162c,SCR,2024-06-11_12h15.04.325,LearnStrategy,2023.2.3,Win32,60.24096386,,,,,,,,,,,1,07,4,6,,,,,,,,,,,,,,,,,,,,,,,,,,,,,,,
5c1976c90d57c30001b4162c,SCR,2024-06-11_12h15.04.325,LearnStrategy,2023.2.3,Win32,60.24096386,,,,,,,,,,,3,16,4,7,,,,,,,,,,,,,,,,,,,,,,,,,,,,,,,
5c1976c90d57c30001b4162c,SCR,2024-06-11_12h15.04.325,LearnStrategy,2023.2.3,Win32,60.24096386,,,,,,,,,,,3,11,4,8,,,,,,,,,,,,,,,,,,,,,,,,,,,,,,,
5c1976c90d57c30001b4162c,SCR,2024-06-11_12h15.04.325,LearnStrategy,2023.2.3,Win32,60.24096386,,,,,,,,,,,6,08,5,1,,,,,,,,,,,,,,,,,,,,,,,,,,,,,,,
5c1976c90d57c30001b4162c,SCR,2024-06-11_12h15.04.325,LearnStrategy,2023.2.3,Win32,60.24096386,,,,,,,,,,,1,05,5,2,,,,,,,,,,,,,,,,,,,,,,,,,,,,,,,
5c1976c90d57c30001b4162c,SCR,2024-06-11_12h15.04.325,LearnStrategy,2023.2.3,Win32,60.24096386,,,,,,,,,,,8,13,5,3,,,,,,,,,,,,,,,,,,,,,,,,,,,,,,,
5c1976c90d57c30001b4162c,SCR,2024-06-11_12h15.04.325,LearnStrategy,2023.2.3,Win32,60.24096386,,,,,,,,,,,1,16,5,4,,,,,,,,,,,,,,,,,,,,,,,,,,,,,,,
5c1976c90d57c30001b4162c,SCR,2024-06-11_12h15.04.325,LearnStrategy,2023.2.3,Win32,60.24096386,,,,,,,,,,,1,14,5,5,,,,,,,,,,,,,,,,,,,,,,,,,,,,,,,
5c1976c90d57c30001b4162c,SCR,2024-06-11_12h15.04.325,LearnStrategy,2023.2.3,Win32,60.24096386,,,,,,,,,,,2,08,5,6,,,,,,,,,,,,,,,,,,,,,,,,,,,,,,,
5c1976c90d57c30001b4162c,SCR,2024-06-11_12h15.04.325,LearnStrategy,2023.2.3,Win32,60.24096386,,,,,,,,,,,8,06,5,7,,,,,,,,,,,,,,,,,,,,,,,,,,,,,,,
5c1976c90d57c30001b4162c,SCR,2024-06-11_12h15.04.325,LearnStrategy,2023.2.3,Win32,60.24096386,,,,,,,,,,,6,05,5,8,,,,,,,,,,,,,,,,,,,,,,,,,,,,,,,
5c1976c90d57c30001b4162c,SCR,2024-06-11_12h15.04.325,LearnStrategy,2023.2.3,Win32,60.24096386,,,,,,,,,,,3,07,6,1,,,,,,,,,,,,,,,,,,,,,,,,,,,,,,,
5c1976c90d57c30001b4162c,SCR,2024-06-11_12h15.04.325,LearnStrategy,2023.2.3,Win32,60.24096386,,,,,,,,,,,3,12,6,2,,,,,,,,,,,,,,,,,,,,,,,,,,,,,,,
5c1976c90d57c30001b4162c,SCR,2024-06-11_12h15.04.325,LearnStrategy,2023.2.3,Win32,60.24096386,,,,,,,,,,,1,10,6,3,,,,,,,,,,,,,,,,,,,,,,,,,,,,,,,
5c1976c90d57c30001b4162c,SCR,2024-06-11_12h15.04.325,LearnStrategy,2023.2.3,Win32,60.24096386,,,,,,,,,,,6,15,6,4,,,,,,,,,,,,,,,,,,,,,,,,,,,,,,,
5c1976c90d57c30001b4162c,SCR,2024-06-11_12h15.04.325,LearnStrategy,2023.2.3,Win32,60.24096386,,,,,,,,,,,4,16,6,5,,,,,,,,,,,,,,,,,,,,,,,,,,,,,,,
5c1976c90d57c30001b4162c,SCR,2024-06-11_12h15.04.325,LearnStrategy,2023.2.3,Win32,60.24096386,,,,,,,,,,,8,15,6,6,,,,,,,,,,,,,,,,,,,,,,,,,,,,,,,
5c1976c90d57c30001b4162c,SCR,2024-06-11_12h15.04.325,LearnStrategy,2023.2.3,Win32,60.24096386,,,,,,,,,,,7,05,6,7,,,,,,,,,,,,,,,,,,,,,,,,,,,,,,,
5c1976c90d57c30001b4162c,SCR,2024-06-11_12h15.04.325,LearnStrategy,2023.2.3,Win32,60.24096386,,,,,,,,,,,5,16,6,8,,,,,,,,,,,,,,,,,,,,,,,,,,,,,,,