participant,condition,date,expName,psychopyVersion,OS,frameRate,block,phase,trial,learn_mouse.x,learn_mouse.y,learn_mouse.leftButton,learn_mouse.midButton,learn_mouse.rightButton,learn_mouse.time,learn_mouse.clicked_name,cat,token,row,col,t_select,cat_rec,token_rec,cat_mouse_l.x,cat_mouse_l.y,cat_mouse_l.leftButton,cat_mouse_l.midButton,cat_mouse_l.rightButton,cat_mouse_l.time,cat_mouse_l.clicked_name,resp,t_resp,corr,train_trials.thisRepN,train_trials.thisTrialN,train_trials.thisN,train_trials.thisIndex,train_trials.ran,cat_mouse_t.x,cat_mouse_t.y,cat_mouse_t.leftButton,cat_mouse_t.midButton,cat_mouse_t.rightButton,cat_mouse_t.time,cat_mouse_t.clicked_name,test_trials.thisRepN,test_trials.thisTrialN,test_trials.thisN,test_trials.thisIndex,test_trials.ran,Bonus
5c2ab2de9136140001b90737,SCR,2024-06-24_14h46.44.173,LearnStrategy,2023.2.3,Linux x86_64,59.88023952,,,,,,,,,,,,,,,,,,,,,,,,,,,,,,,,,,,,,,,,,,,,,
5c2ab2de9136140001b90737,SCR,2024-06-24_14h46.44.173,LearnStrategy,2023.2.3,Linux x86_64,59.88023952,1,1,1,0.386029833,0.251734404,1,0,0,3.661,Peridotite_07,7,07,5,7,3.661,7,07,0.410976969,-0.419554161,1,0,0,8.0254,Pumice_rect,8,8.025,0,0,0,0,0,1,,,,,,,,,,,,,
5c2ab2de9136140001b90737,SCR,2024-06-24_14h46.44.173,LearnStrategy,2023.2.3,Linux x86_64,59.88023952,1,1,2,-0.247905127,-0.108498255,1,0,0,3.4899,Pegmatite_13,6,13,3,3,3.49,6,13,0.147277331,-0.254207347,1,0,0,5.2695,Diorite_rect,3,5.269,0,1,0,1,0,1,,,,,,,,,,,,,
5c2ab2de9136140001b90737,SCR,2024-06-24_14h46.44.173,LearnStrategy,2023.2.3,Linux x86_64,59.88023952,1,1,3,0.238032244,-0.070794663,1,0,0,2.0652,Obsidian_09,5,09,3,6,2.065,5,09,-0.450488646,-0.381365115,1,0,0,4.9981,Obsidian_rect,5,4.998,1,2,0,2,0,1,,,,,,,,,,,,,
5c2ab2de9136140001b90737,SCR,2024-06-24_14h46.44.173,LearnStrategy,2023.2.3,Linux x86_64,59.88023952,1,1,4,0.081252819,0.260866655,1,0,0,2.1115,Basalt_16,2,16,5,5,2.112,2,16,-0.148815517,-0.264478927,1,0,0,8.5401,Basalt_rect,2,8.54,1,3,0,3,0,1,,,,,,,,,,,,,
5c2ab2de9136140001b90737,SCR,2024-06-24_14h46.44.173,LearnStrategy,2023.2.3,Linux x86_64,59.88023952,1,1,5,-0.094578804,0.45735833,1,0,0,1.8555,Pegmatite_11,6,11,6,4,1.856,6,11,-0.371770145,-0.230561698,1,0,0,8.3247,Andesite_rect,1,8.325,0,4,0,4,0,1,,,,,,,,,,,,,
5c2ab2de9136140001b90737,SCR,2024-06-24_14h46.44.173,LearnStrategy,2023.2.3,Linux x86_64,59.88023952,1,1,6,-0.405014772,-0.094988735,1,0,0,3.0063,Diorite_11,3,11,3,2,3.006,3,11,0.111530478,-0.242752272,1,0,0,3.4144,Diorite_rect,3,3.414,1,5,0,5,0,1,,,,,,,,,,,,,
5c2ab2de9136140001b90737,SCR,2024-06-24_14h46.44.173,LearnStrategy,2023.2.3,Linux x86_64,59.88023952,1,1,7,0.046807668,0.44408292,1,0,0,1.6079,Basalt_12,2,12,6,5,1.608,2,12,0.39486612,-0.387743039,1,0,0,5.8087,Pumice_rect,8,5.809,0,6,0,6,0,1,,,,,,,,,,,,,
5c2ab2de9136140001b90737,SCR,2024-06-24_14h46.44.173,LearnStrategy,2023.2.3,Linux x86_64,59.88023952,1,1,8,-0.397301802,0.278987352,1,0,0,2.0771,Pumice_04,8,04,5,2,2.077,8,04,-0.137575174,-0.258764019,1,0,0,3.7,Basalt_rect,2,3.7,0,7,0,7,0,1,,,,,,,,,,,,,
5c2ab2de9136140001b90737,SCR,2024-06-24_14h46.44.173,LearnStrategy,2023.2.3,Linux x86_64,59.88023952,1,1,9,0.259776358,0.285132709,1,0,0,1.5806,Pumice_02,8,02,5,6,1.581,8,02,-0.127690842,-0.253103419,1,0,0,4.2423,Basalt_rect,2,4.242,0,8,0,8,0,1,,,,,,,,,,,,,
5c2ab2de9136140001b90737,SCR,2024-06-24_14h46.44.173,LearnStrategy,2023.2.3,Linux x86_64,59.88023952,1,1,10,-0.404999423,-0.414223209,1,0,0,1.743,Diorite_14,3,14,1,2,1.743,3,14,0.159637988,-0.264540392,1,0,0,3.1954,Diorite_rect,3,3.195,1,9,0,9,0,1,,,,,,,,,,,,,
5c2ab2de9136140001b90737,SCR,2024-06-24_14h46.44.173,LearnStrategy,2023.2.3,Linux x86_64,59.88023952,1,1,11,0.097086112,0.11969055,1,0,0,1.2979,Gabbro_12,4,12,4,5,1.298,4,12,-0.159132534,-0.399299577,1,0,0,10.045,Pegmatite_rect,6,10.045,0,10,0,10,0,1,,,,,,,,,,,,,
5c2ab2de9136140001b90737,SCR,2024-06-24_14h46.44.173,LearnStrategy,2023.2.3,Linux x86_64,59.88023952,1,1,12,0.082992643,-0.288287504,1,0,0,1.3004,Obsidian_16,5,16,2,5,1.3,5,16,-0.489592611,-0.401935537,1,0,0,3.0531,Obsidian_rect,5,3.053,1,11,0,11,0,1,,,,,,,,,,,,,
5c2ab2de9136140001b90737,SCR,2024-06-24_14h46.44.173,LearnStrategy,2023.2.3,Linux x86_64,59.88023952,1,1,13,-0.535164944,0.252236727,1,0,0,1.5443,Peridotite_06,7,06,5,1,1.544,7,06,0.158665933,-0.236841307,1,0,0,5.0958,Diorite_rect,3,5.096,0,12,0,12,0,1,,,,,,,,,,,,,
5c2ab2de9136140001b90737,SCR,2024-06-24_14h46.44.173,LearnStrategy,2023.2.3,Linux x86_64,59.88023952,1,1,14,0.07021669,-0.075100003,1,0,0,1.4796,Andesite_07,1,07,3,5,1.48,1,07,0.131198467,-0.235153502,1,0,0,1.7425,Diorite_rect,3,1.743,0,13,0,13,0,1,,,,,,,,,,,,,
5c2ab2de9136140001b90737,SCR,2024-06-24_14h46.44.173,LearnStrategy,2023.2.3,Linux x86_64,59.88023952,1,1,15,-0.213254403,0.131340894,1,0,0,1.7118,Gabbro_10,4,10,4,3,1.712,4,10,-0.08574681,-0.244088176,1,0,0,7.139,Basalt_rect,2,7.139,0,14,0,14,0,1,,,,,,,,,,,,,
5c2ab2de9136140001b90737,SCR,2024-06-24_14h46.44.173,LearnStrategy,2023.2.3,Linux x86_64,59.88023952,1,1,16,-0.59289168,0.424312524,1,0,0,1.3883,Andesite_06,1,06,6,1,1.388,1,06,0.113345577,-0.253604795,1,0,0,5.0528,Diorite_rect,3,5.053,0,15,0,15,0,1,,,,,,,,,,,,,
5c2ab2de9136140001b90737,SCR,2024-06-24_14h46.44.173,LearnStrategy,2023.2.3,Linux x86_64,59.88023952,1,2,1,,,,,,,,2,08,,,,,,,,,,,,,4,12.222,0,,,,,,0.408740349,-0.251568382,1,0,0,12.222,Gabbro_rect,0,0,0,0,1,
5c2ab2de9136140001b90737,SCR,2024-06-24_14h46.44.173,LearnStrategy,2023.2.3,Linux x86_64,59.88023952,1,2,2,,,,,,,,3,12,,,,,,,,,,,,,3,3.828,1,,,,,,0.075993707,-0.253254898,1,0,0,3.8281,Diorite_rect,1,0,1,0,1,
5c2ab2de9136140001b90737,SCR,2024-06-24_14h46.44.173,LearnStrategy,2023.2.3,Linux x86_64,59.88023952,1,2,3,,,,,,,,7,14,,,,,,,,,,,,,6,10.834,0,,,,,,-0.105400559,-0.379811975,1,0,0,10.8336,Pegmatite_rect,2,0,2,0,1,
5c2ab2de9136140001b90737,SCR,2024-06-24_14h46.44.173,LearnStrategy,2023.2.3,Linux x86_64,59.88023952,1,2,4,,,,,,,,8,16,,,,,,,,,,,,,2,8.069,0,,,,,,-0.1743129,-0.2467607,1,0,0,8.0689,Basalt_rect,3,0,3,0,1,
5c2ab2de9136140001b90737,SCR,2024-06-24_14h46.44.173,LearnStrategy,2023.2.3,Linux x86_64,59.88023952,1,2,5,,,,,,,,3,06,,,,,,,,,,,,,1,6.262,0,,,,,,-0.437528443,-0.2467607,1,0,0,6.2616,Andesite_rect,4,0,4,0,1,
5c2ab2de9136140001b90737,SCR,2024-06-24_14h46.44.173,LearnStrategy,2023.2.3,Linux x86_64,59.88023952,1,2,6,,,,,,,,1,11,,,,,,,,,,,,,4,13.52,0,,,,,,0.398890863,-0.243872228,1,0,0,13.52,Gabbro_rect,5,0,5,0,1,
5c2ab2de9136140001b90737,SCR,2024-06-24_14h46.44.173,LearnStrategy,2023.2.3,Linux x86_64,59.88023952,1,2,7,,,,,,,,6,07,,,,,,,,,,,,,6,7.87,1,,,,,,-0.190325291,-0.379695628,1,0,0,7.8703,Pegmatite_rect,6,0,6,0,1,
5c2ab2de9136140001b90737,SCR,2024-06-24_14h46.44.173,LearnStrategy,2023.2.3,Linux x86_64,59.88023952,1,2,8,,,,,,,,2,14,,,,,,,,,,,,,2,5.188,1,,,,,,-0.111491482,-0.250017101,1,0,0,5.1884,Basalt_rect,7,0,7,0,1,
5c2ab2de9136140001b90737,SCR,2024-06-24_14h46.44.173,LearnStrategy,2023.2.3,Linux x86_64,59.88023952,1,2,9,,,,,,,,7,08,,,,,,,,,,,,,1,7.703,0,,,,,,-0.456006282,-0.244473206,1,0,0,7.7028,Andesite_rect,8,0,8,0,1,
5c2ab2de9136140001b90737,SCR,2024-06-24_14h46.44.173,LearnStrategy,2023.2.3,Linux x86_64,59.88023952,1,2,10,,,,,,,,4,09,,,,,,,,,,,,,4,5.596,1,,,,,,0.398982309,-0.263876518,1,0,0,5.5962,Gabbro_rect,9,0,9,0,1,
5c2ab2de9136140001b90737,SCR,2024-06-24_14h46.44.173,LearnStrategy,2023.2.3,Linux x86_64,59.88023952,1,2,11,,,,,,,,5,02,,,,,,,,,,,,,5,4.029,1,,,,,,-0.440908237,-0.394156023,1,0,0,4.029,Obsidian_rect,10,0,10,0,1,
5c2ab2de9136140001b90737,SCR,2024-06-24_14h46.44.173,LearnStrategy,2023.2.3,Linux x86_64,59.88023952,1,2,12,,,,,,,,6,08,,,,,,,,,,,,,6,5.657,1,,,,,,-0.192385961,-0.399699919,1,0,0,5.6572,Pegmatite_rect,11,0,11,0,1,
5c2ab2de9136140001b90737,SCR,2024-06-24_14h46.44.173,LearnStrategy,2023.2.3,Linux x86_64,59.88023952,1,2,13,,,,,,,,8,03,,,,,,,,,,,,,2,8.493,0,,,,,,-0.129583146,-0.244473206,1,0,0,8.4932,Basalt_rect,12,0,12,0,1,
5c2ab2de9136140001b90737,SCR,2024-06-24_14h46.44.173,LearnStrategy,2023.2.3,Linux x86_64,59.88023952,1,2,14,,,,,,,,4,03,,,,,,,,,,,,,1,3.063,0,,,,,,-0.412085762,-0.230613646,1,0,0,3.0629,Andesite_rect,13,0,13,0,1,
5c2ab2de9136140001b90737,SCR,2024-06-24_14h46.44.173,LearnStrategy,2023.2.3,Linux x86_64,59.88023952,1,2,15,,,,,,,,1,04,,,,,,,,,,,,,6,9.611,0,,,,,,-0.066546638,-0.40778282,1,0,0,9.611,Pegmatite_rect,14,0,14,0,1,
5c2ab2de9136140001b90737,SCR,2024-06-24_14h46.44.173,LearnStrategy,2023.2.3,Linux x86_64,59.88023952,1,2,16,,,,,,,,5,06,,,,,,,,,,,,,5,6.879,1,,,,,,-0.389309703,-0.381750216,1,0,0,6.8793,Obsidian_rect,15,0,15,0,1,
5c2ab2de9136140001b90737,SCR,2024-06-24_14h46.44.173,LearnStrategy,2023.2.3,Linux x86_64,59.88023952,2,1,1,-0.374847913,-0.229351799,1,0,0,1.9736,Basalt_05,2,05,2,2,1.974,2,05,-0.162980825,-0.411814074,1,0,0,5.6098,Pegmatite_rect,6,5.61,0,0,0,0,0,1,,,,,,,,,,,,,
5c2ab2de9136140001b90737,SCR,2024-06-24_14h46.44.173,LearnStrategy,2023.2.3,Linux x86_64,59.88023952,2,1,2,-0.407259119,0.269127634,1,0,0,2.2582,Pumice_04,8,04,5,2,2.258,8,04,0.428034757,-0.388901204,1,0,0,2.2829,Pumice_rect,8,2.283,1,1,0,1,0,1,,,,,,,,,,,,,
5c2ab2de9136140001b90737,SCR,2024-06-24_14h46.44.173,LearnStrategy,2023.2.3,Linux x86_64,59.88023952,2,1,3,0.118665295,-0.112426829,1,0,0,1.5271,Andesite_07,1,07,3,5,1.527,1,07,0.090945746,-0.264881702,1,0,0,3.6762,Diorite_rect,3,3.676,0,2,0,2,0,1,,,,,,,,,,,,,
5c2ab2de9136140001b90737,SCR,2024-06-24_14h46.44.173,LearnStrategy,2023.2.3,Linux x86_64,59.88023952,2,1,4,-0.550452318,0.283725841,1,0,0,1.8595,Peridotite_06,7,06,5,1,1.859,7,06,-0.395225641,-0.264880414,1,0,0,3.4807,Andesite_rect,1,3.481,0,3,0,3,0,1,,,,,,,,,,,,,
5c2ab2de9136140001b90737,SCR,2024-06-24_14h46.44.173,LearnStrategy,2023.2.3,Linux x86_64,59.88023952,2,1,5,0.222678002,0.259981359,1,0,0,1.6119,Pumice_02,8,02,5,6,1.612,8,02,0.451660586,-0.401304578,1,0,0,2.0356,Pumice_rect,8,2.036,1,4,0,4,0,1,,,,,,,,,,,,,
5c2ab2de9136140001b90737,SCR,2024-06-24_14h46.44.173,LearnStrategy,2023.2.3,Linux x86_64,59.88023952,2,1,6,-0.558770988,-0.392134994,1,0,0,2.2368,Diorite_13,3,13,1,1,2.237,3,13,-0.387862068,-0.2313646,1,0,0,2.5885,Andesite_rect,1,2.588,0,5,0,5,0,1,,,,,,,,,,,,,
5c2ab2de9136140001b90737,SCR,2024-06-24_14h46.44.173,LearnStrategy,2023.2.3,Linux x86_64,59.88023952,2,1,7,0.374316378,-0.405510137,1,0,0,1.4706,Diorite_08,3,08,1,7,1.471,3,08,0.138336146,-0.245941627,1,0,0,1.5723,Diorite_rect,3,1.572,1,6,0,6,0,1,,,,,,,,,,,,,
5c2ab2de9136140001b90737,SCR,2024-06-24_14h46.44.173,LearnStrategy,2023.2.3,Linux x86_64,59.88023952,2,1,8,-0.43641922,0.230596312,1,0,0,1.5322,Pumice_04,8,04,5,2,1.532,8,04,-0.117047613,-0.262804503,1,0,0,3.5362,Basalt_rect,2,3.536,0,7,0,7,0,1,,,,,,,,,,,,,
5c2ab2de9136140001b90737,SCR,2024-06-24_14h46.44.173,LearnStrategy,2023.2.3,Linux x86_64,59.88023952,2,1,9,-0.560070257,0.387394501,1,0,0,1.3993,Andesite_06,1,06,6,1,1.399,1,06,-0.374352047,-0.250765766,1,0,0,3.0844,Andesite_rect,1,3.084,1,8,0,8,0,1,,,,,,,,,,,,,
5c2ab2de9136140001b90737,SCR,2024-06-24_14h46.44.173,LearnStrategy,2023.2.3,Linux x86_64,59.88023952,2,1,10,0.426265667,-0.103969704,1,0,0,3.3627,Peridotite_13,7,13,3,7,3.363,7,13,0.170281503,-0.398878198,1,0,0,4.6989,Peridotite_rect,7,4.699,1,9,0,9,0,1,,,,,,,,,,,,,
5c2ab2de9136140001b90737,SCR,2024-06-24_14h46.44.173,LearnStrategy,2023.2.3,Linux x86_64,59.88023952,2,1,11,0.076152985,0.281578824,1,0,0,1.6801,Basalt_16,2,16,5,5,1.68,2,16,-0.09113064,-0.236536775,1,0,0,5.6821,Basalt_rect,2,5.682,1,10,0,10,0,1,,,,,,,,,,,,,
5c2ab2de9136140001b90737,SCR,2024-06-24_14h46.44.173,LearnStrategy,2023.2.3,Linux x86_64,59.88023952,2,1,12,-0.560418651,0.108034337,1,0,0,2.0631,Peridotite_02,7,02,4,1,2.063,7,02,0.140759163,-0.414655249,1,0,0,2.8243,Peridotite_rect,7,2.824,1,11,0,11,0,1,,,,,,,,,,,,,
5c2ab2de9136140001b90737,SCR,2024-06-24_14h46.44.173,LearnStrategy,2023.2.3,Linux x86_64,59.88023952,2,1,13,-0.222496328,0.135153409,1,0,0,1.5948,Gabbro_10,4,10,4,3,1.595,4,10,-0.129337002,-0.237620167,1,0,0,3.5096,Basalt_rect,2,3.51,0,12,0,12,0,1,,,,,,,,,,,,,
5c2ab2de9136140001b90737,SCR,2024-06-24_14h46.44.173,LearnStrategy,2023.2.3,Linux x86_64,59.88023952,2,1,14,-0.048951769,0.3811189,1,0,0,1.4242,Pegmatite_11,6,11,6,4,1.424,6,11,-0.110670477,-0.392632005,1,0,0,16.0466,Pegmatite_rect,6,16.047,1,13,0,13,0,1,,,,,,,,,,,,,
5c2ab2de9136140001b90737,SCR,2024-06-24_14h46.44.173,LearnStrategy,2023.2.3,Linux x86_64,59.88023952,2,1,15,-0.396546627,0.075240069,1,0,0,1.5229,Andesite_10,1,10,4,2,1.523,1,10,0.424792094,-0.26607407,1,0,0,6.8387,Gabbro_rect,4,6.839,0,14,0,14,0,1,,,,,,,,,,,,,
5c2ab2de9136140001b90737,SCR,2024-06-24_14h46.44.173,LearnStrategy,2023.2.3,Linux x86_64,59.88023952,2,1,16,-0.103809782,0.111275318,1,0,0,1.1587,Gabbro_11,4,11,4,4,1.159,4,11,-0.081634557,-0.266189844,1,0,0,3.094,Basalt_rect,2,3.094,0,15,0,15,0,1,,,,,,,,,,,,,
5c2ab2de9136140001b90737,SCR,2024-06-24_14h46.44.173,LearnStrategy,2023.2.3,Linux x86_64,59.88023952,2,2,1,,,,,,,,4,05,,,,,,,,,,,,,1,14.089,0,,,,,,-0.384626525,-0.260936956,1,0,0,14.0894,Andesite_rect,0,0,0,0,1,
5c2ab2de9136140001b90737,SCR,2024-06-24_14h46.44.173,LearnStrategy,2023.2.3,Linux x86_64,59.88023952,2,2,2,,,,,,,,2,02,,,,,,,,,,,,,4,4.365,0,,,,,,0.375012737,-0.241533715,1,0,0,4.3648,Gabbro_rect,1,0,1,0,1,
5c2ab2de9136140001b90737,SCR,2024-06-24_14h46.44.173,LearnStrategy,2023.2.3,Linux x86_64,59.88023952,2,2,3,,,,,,,,8,10,,,,,,,,,,,,,2,4.617,0,,,,,,-0.127323057,-0.233217908,1,0,0,4.6168,Basalt_rect,2,0,2,0,1,
5c2ab2de9136140001b90737,SCR,2024-06-24_14h46.44.173,LearnStrategy,2023.2.3,Linux x86_64,59.88023952,2,2,4,,,,,,,,5,07,,,,,,,,,,,,,5,1.854,1,,,,,,-0.391624245,-0.399532126,1,0,0,1.8536,Obsidian_rect,3,0,3,0,1,
5c2ab2de9136140001b90737,SCR,2024-06-24_14h46.44.173,LearnStrategy,2023.2.3,Linux x86_64,59.88023952,2,2,5,,,,,,,,1,09,,,,,,,,,,,,,4,3.631,0,,,,,,0.400911248,-0.230445996,1,0,0,3.6307,Gabbro_rect,4,0,4,0,1,
5c2ab2de9136140001b90737,SCR,2024-06-24_14h46.44.173,LearnStrategy,2023.2.3,Linux x86_64,59.88023952,2,2,6,,,,,,,,3,02,,,,,,,,,,,,,3,1.761,1,,,,,,0.108289962,-0.244305484,1,0,0,1.761,Diorite_rect,5,0,5,0,1,
5c2ab2de9136140001b90737,SCR,2024-06-24_14h46.44.173,LearnStrategy,2023.2.3,Linux x86_64,59.88023952,2,2,7,,,,,,,,5,04,,,,,,,,,,,,,5,1.955,1,,,,,,-0.506358175,-0.388444549,1,0,0,1.9551,Obsidian_rect,6,0,6,0,1,
5c2ab2de9136140001b90737,SCR,2024-06-24_14h46.44.173,LearnStrategy,2023.2.3,Linux x86_64,59.88023952,2,2,8,,,,,,,,3,09,,,,,,,,,,,,,3,5.182,1,,,,,,0.177103631,-0.23598982,1,0,0,5.1822,Diorite_rect,7,0,7,0,1,
5c2ab2de9136140001b90737,SCR,2024-06-24_14h46.44.173,LearnStrategy,2023.2.3,Linux x86_64,59.88023952,2,2,9,,,,,,,,2,11,,,,,,,,,,,,,4,7.039,0,,,,,,0.342700739,-0.269252764,1,0,0,7.0386,Gabbro_rect,8,0,8,0,1,
5c2ab2de9136140001b90737,SCR,2024-06-24_14h46.44.173,LearnStrategy,2023.2.3,Linux x86_64,59.88023952,2,2,10,,,,,,,,8,05,,,,,,,,,,,,,2,4.71,0,,,,,,-0.087448496,-0.241533715,1,0,0,4.7103,Basalt_rect,9,0,9,0,1,
5c2ab2de9136140001b90737,SCR,2024-06-24_14h46.44.173,LearnStrategy,2023.2.3,Linux x86_64,59.88023952,2,2,11,,,,,,,,7,15,,,,,,,,,,,,,7,2.744,1,,,,,,0.14515856,-0.403873994,1,0,0,2.7439,Peridotite_rect,10,0,10,0,1,
5c2ab2de9136140001b90737,SCR,2024-06-24_14h46.44.173,LearnStrategy,2023.2.3,Linux x86_64,59.88023952,2,2,12,,,,,,,,7,05,,,,,,,,,,,,,6,5.597,0,,,,,,-0.151670217,-0.403873994,1,0,0,5.5971,Pegmatite_rect,11,0,11,0,1,
5c2ab2de9136140001b90737,SCR,2024-06-24_14h46.44.173,LearnStrategy,2023.2.3,Linux x86_64,59.88023952,2,2,13,,,,,,,,1,01,,,,,,,,,,,,,1,2.433,1,,,,,,-0.410310698,-0.240331688,1,0,0,2.4325,Andesite_rect,12,0,12,0,1,
5c2ab2de9136140001b90737,SCR,2024-06-24_14h46.44.173,LearnStrategy,2023.2.3,Linux x86_64,59.88023952,2,2,14,,,,,,,,6,06,,,,,,,,,,,,,6,7.416,1,,,,,,-0.115267075,-0.406645906,1,0,0,7.4163,Pegmatite_rect,13,0,13,0,1,
5c2ab2de9136140001b90737,SCR,2024-06-24_14h46.44.173,LearnStrategy,2023.2.3,Linux x86_64,59.88023952,2,2,15,,,,,,,,6,03,,,,,,,,,,,,,7,2.022,0,,,,,,0.106853525,-0.406645906,1,0,0,2.0218,Peridotite_rect,14,0,14,0,1,
5c2ab2de9136140001b90737,SCR,2024-06-24_14h46.44.173,LearnStrategy,2023.2.3,Linux x86_64,59.88023952,2,2,16,,,,,,,,4,15,,,,,,,,,,,,,1,4.268,0,,,,,,-0.372202722,-0.251419264,1,0,0,4.2676,Andesite_rect,15,0,15,0,1,
5c2ab2de9136140001b90737,SCR,2024-06-24_14h46.44.173,LearnStrategy,2023.2.3,Linux x86_64,59.88023952,3,1,1,0.219049809,0.10020835,1,0,0,9.12,Gabbro_16,4,16,4,6,9.12,4,16,-0.165044572,-0.417305091,1,0,0,14.9906,Pegmatite_rect,6,14.991,0,0,0,0,0,1,,,,,,,,,,,,,
5c2ab2de9136140001b90737,SCR,2024-06-24_14h46.44.173,LearnStrategy,2023.2.3,Linux x86_64,59.88023952,3,1,2,0.237133174,-0.242073229,1,0,0,2.5971,Pegmatite_12,6,12,2,6,2.597,6,12,-0.199026772,-0.397299942,1,0,0,4.476,Pegmatite_rect,6,4.476,1,1,0,1,0,1,,,,,,,,,,,,,
5c2ab2de9136140001b90737,SCR,2024-06-24_14h46.44.173,LearnStrategy,2023.2.3,Linux x86_64,59.88023952,3,1,3,0.39875577,-0.089849689,1,0,0,1.2457,Peridotite_13,7,13,3,7,1.246,7,13,0.119393495,-0.379214431,1,0,0,1.1011,Peridotite_rect,7,1.101,1,2,0,2,0,1,,,,,,,,,,,,,
5c2ab2de9136140001b90737,SCR,2024-06-24_14h46.44.173,LearnStrategy,2023.2.3,Linux x86_64,59.88023952,3,1,4,-0.229517017,0.239659729,1,0,0,1.4592,Andesite_16,1,16,5,3,1.459,1,16,-0.41860851,-0.251939029,1,0,0,2.5663,Andesite_rect,1,2.566,1,3,0,3,0,1,,,,,,,,,,,,,
5c2ab2de9136140001b90737,SCR,2024-06-24_14h46.44.173,LearnStrategy,2023.2.3,Linux x86_64,59.88023952,3,1,5,-0.547300708,0.406459339,1,0,0,1.6963,Andesite_06,1,06,6,1,1.696,1,06,-0.394845835,-0.25785028,1,0,0,3.5147,Andesite_rect,1,3.515,1,4,0,4,0,1,,,,,,,,,,,,,
5c2ab2de9136140001b90737,SCR,2024-06-24_14h46.44.173,LearnStrategy,2023.2.3,Linux x86_64,59.88023952,3,1,6,0.385651458,0.438533278,1,0,0,1.645,Pumice_06,8,06,6,7,1.645,8,06,0.37456381,-0.419926669,1,0,0,2.1592,Pumice_rect,8,2.159,1,5,0,5,0,1,,,,,,,,,,,,,
5c2ab2de9136140001b90737,SCR,2024-06-24_14h46.44.173,LearnStrategy,2023.2.3,Linux x86_64,59.88023952,3,1,7,0.103031995,-0.095477231,1,0,0,1.1306,Andesite_07,1,07,3,5,1.131,1,07,0.105803907,-0.246614016,1,0,0,1.6077,Diorite_rect,3,1.608,0,6,0,6,0,1,,,,,,,,,,,,,
5c2ab2de9136140001b90737,SCR,2024-06-24_14h46.44.173,LearnStrategy,2023.2.3,Linux x86_64,59.88023952,3,1,8,0.434944681,0.2354673,1,0,0,1.3976,Peridotite_07,7,07,5,7,1.398,7,07,0.146666336,-0.392071311,1,0,0,3.6761,Peridotite_rect,7,3.676,1,7,0,7,0,1,,,,,,,,,,,,,
5c2ab2de9136140001b90737,SCR,2024-06-24_14h46.44.173,LearnStrategy,2023.2.3,Linux x86_64,59.88023952,3,1,9,0.077000751,0.294665481,1,0,0,1.6665,Basalt_16,2,16,5,5,1.667,2,16,-0.103173027,-0.242853663,1,0,0,2.0727,Basalt_rect,2,2.073,1,8,0,8,0,1,,,,,,,,,,,,,
5c2ab2de9136140001b90737,SCR,2024-06-24_14h46.44.173,LearnStrategy,2023.2.3,Linux x86_64,59.88023952,3,1,10,-0.398566976,0.288017908,1,0,0,3.3969,Pumice_04,8,04,5,2,3.397,8,04,0.42348982,-0.386526271,1,0,0,1.8054,Pumice_rect,8,1.805,1,9,0,9,0,1,,,,,,,,,,,,,
5c2ab2de9136140001b90737,SCR,2024-06-24_14h46.44.173,LearnStrategy,2023.2.3,Linux x86_64,59.88023952,3,1,11,-0.093171919,-0.299143175,1,0,0,1.2521,Pumice_14,8,14,2,4,1.252,8,14,0.374932024,-0.404475544,1,0,0,1.8051,Pumice_rect,8,1.805,1,10,0,10,0,1,,,,,,,,,,,,,
5c2ab2de9136140001b90737,SCR,2024-06-24_14h46.44.173,LearnStrategy,2023.2.3,Linux x86_64,59.88023952,3,1,12,-0.246946382,0.096640691,1,0,0,1.3903,Gabbro_10,4,10,4,3,1.39,4,10,0.391078936,-0.247076752,1,0,0,5.2325,Gabbro_rect,4,5.232,1,11,0,11,0,1,,,,,,,,,,,,,
5c2ab2de9136140001b90737,SCR,2024-06-24_14h46.44.173,LearnStrategy,2023.2.3,Linux x86_64,59.88023952,3,1,13,-0.258769743,0.095575259,1,0,0,1.4472,Gabbro_10,4,10,4,3,1.447,4,10,0.370221942,-0.245370129,1,0,0,1.9967,Gabbro_rect,4,1.997,1,12,0,12,0,1,,,,,,,,,,,,,
5c2ab2de9136140001b90737,SCR,2024-06-24_14h46.44.173,LearnStrategy,2023.2.3,Linux x86_64,59.88023952,3,1,14,-0.580428988,-0.404085721,1,0,0,2.1349,Diorite_13,3,13,1,1,2.135,3,13,0.113518879,-0.259946512,1,0,0,2.9158,Diorite_rect,3,2.916,1,13,0,13,0,1,,,,,,,,,,,,,
5c2ab2de9136140001b90737,SCR,2024-06-24_14h46.44.173,LearnStrategy,2023.2.3,Linux x86_64,59.88023952,3,1,15,-0.39193858,-0.273321011,1,0,0,1.4148,Basalt_05,2,05,2,2,1.415,2,05,0.359502079,-0.245601963,1,0,0,5.6723,Gabbro_rect,4,5.672,0,14,0,14,0,1,,,,,,,,,,,,,
5c2ab2de9136140001b90737,SCR,2024-06-24_14h46.44.173,LearnStrategy,2023.2.3,Linux x86_64,59.88023952,3,1,16,0.092913038,0.300737245,1,0,0,1.2606,Basalt_16,2,16,5,5,1.261,2,16,-0.119322371,-0.238468148,1,0,0,4.1843,Basalt_rect,2,4.184,1,15,0,15,0,1,,,,,,,,,,,,,
5c2ab2de9136140001b90737,SCR,2024-06-24_14h46.44.173,LearnStrategy,2023.2.3,Linux x86_64,59.88023952,3,2,1,,,,,,,,3,15,,,,,,,,,,,,,3,1.934,1,,,,,,0.103515553,-0.239069054,1,0,0,1.9343,Diorite_rect,0,0,0,0,1,
5c2ab2de9136140001b90737,SCR,2024-06-24_14h46.44.173,LearnStrategy,2023.2.3,Linux x86_64,59.88023952,3,2,2,,,,,,,,8,15,,,,,,,,,,,,,8,2.235,1,,,,,,0.406775775,-0.402611432,1,0,0,2.2354,Pumice_rect,1,0,1,0,1,
5c2ab2de9136140001b90737,SCR,2024-06-24_14h46.44.173,LearnStrategy,2023.2.3,Linux x86_64,59.88023952,3,2,3,,,,,,,,2,01,,,,,,,,,,,,,2,3.607,1,,,,,,-0.125934847,-0.264016191,1,0,0,3.6072,Basalt_rect,2,0,2,0,1,
5c2ab2de9136140001b90737,SCR,2024-06-24_14h46.44.173,LearnStrategy,2023.2.3,Linux x86_64,59.88023952,3,2,4,,,,,,,,5,10,,,,,,,,,,,,,5,3.347,1,,,,,,-0.403010056,-0.399238542,1,0,0,3.3466,Obsidian_rect,3,0,3,0,1,
5c2ab2de9136140001b90737,SCR,2024-06-24_14h46.44.173,LearnStrategy,2023.2.3,Linux x86_64,59.88023952,3,2,5,,,,,,,,1,03,,,,,,,,,,,,,1,3.164,1,,,,,,-0.353115784,-0.234242483,1,0,0,3.1642,Andesite_rect,4,0,4,0,1,
5c2ab2de9136140001b90737,SCR,2024-06-24_14h46.44.173,LearnStrategy,2023.2.3,Linux x86_64,59.88023952,3,2,6,,,,,,,,6,15,,,,,,,,,,,,,6,2.956,1,,,,,,-0.130277144,-0.383925515,1,0,0,2.9561,Pegmatite_rect,5,0,5,0,1,
5c2ab2de9136140001b90737,SCR,2024-06-24_14h46.44.173,LearnStrategy,2023.2.3,Linux x86_64,59.88023952,3,2,7,,,,,,,,3,07,,,,,,,,,,,,,3,2.974,1,,,,,,0.124039537,-0.234242698,1,0,0,2.9743,Diorite_rect,6,0,6,0,1,
5c2ab2de9136140001b90737,SCR,2024-06-24_14h46.44.173,LearnStrategy,2023.2.3,Linux x86_64,59.88023952,3,2,8,,,,,,,,4,13,,,,,,,,,,,,,1,4.378,0,,,,,,-0.341176685,-0.239786521,1,0,0,4.3779,Andesite_rect,7,0,7,0,1,
5c2ab2de9136140001b90737,SCR,2024-06-24_14h46.44.173,LearnStrategy,2023.2.3,Linux x86_64,59.88023952,3,2,9,,,,,,,,5,05,,,,,,,,,,,,,5,3.07,1,,,,,,-0.363352016,-0.399490267,1,0,0,3.0702,Obsidian_rect,8,0,8,0,1,
5c2ab2de9136140001b90737,SCR,2024-06-24_14h46.44.173,LearnStrategy,2023.2.3,Linux x86_64,59.88023952,3,2,10,,,,,,,,4,01,,,,,,,,,,,,,1,3.673,0,,,,,,-0.343948668,-0.237750108,1,0,0,3.6732,Andesite_rect,9,0,9,0,1,
5c2ab2de9136140001b90737,SCR,2024-06-24_14h46.44.173,LearnStrategy,2023.2.3,Linux x86_64,59.88023952,3,2,11,,,,,,,,8,08,,,,,,,,,,,,,8,5.368,1,,,,,,0.380391844,-0.406836238,1,0,0,5.368,Pumice_rect,10,0,10,0,1,
5c2ab2de9136140001b90737,SCR,2024-06-24_14h46.44.173,LearnStrategy,2023.2.3,Linux x86_64,59.88023952,3,2,12,,,,,,,,7,12,,,,,,,,,,,,,7,2.049,1,,,,,,0.145478905,-0.412380062,1,0,0,2.0491,Peridotite_rect,11,0,11,0,1,
5c2ab2de9136140001b90737,SCR,2024-06-24_14h46.44.173,LearnStrategy,2023.2.3,Linux x86_64,59.88023952,3,2,13,,,,,,,,1,02,,,,,,,,,,,,,1,5.62,1,,,,,,-0.331425299,-0.252812125,1,0,0,5.6202,Andesite_rect,12,0,12,0,1,
5c2ab2de9136140001b90737,SCR,2024-06-24_14h46.44.173,LearnStrategy,2023.2.3,Linux x86_64,59.88023952,3,2,14,,,,,,,,2,06,,,,,,,,,,,,,2,2.232,1,,,,,,-0.176314395,-0.252812125,1,0,0,2.232,Basalt_rect,13,0,13,0,1,
5c2ab2de9136140001b90737,SCR,2024-06-24_14h46.44.173,LearnStrategy,2023.2.3,Linux x86_64,59.88023952,3,2,15,,,,,,,,7,16,,,,,,,,,,,,,7,1.779,1,,,,,,0.189713437,-0.405266855,1,0,0,1.7793,Peridotite_rect,14,0,14,0,1,
5c2ab2de9136140001b90737,SCR,2024-06-24_14h46.44.173,LearnStrategy,2023.2.3,Linux x86_64,59.88023952,3,2,16,,,,,,,,6,10,,,,,,,,,,,,,7,1.975,0,,,,,,0.189713437,-0.405266855,1,0,0,1.9754,Peridotite_rect,15,0,15,0,1,
5c2ab2de9136140001b90737,SCR,2024-06-24_14h46.44.173,LearnStrategy,2023.2.3,Linux x86_64,59.88023952,4,1,1,-0.398416928,-0.417070825,1,0,0,9.9843,Diorite_14,3,14,1,2,9.984,2,16,0.077770953,-0.2590722,1,0,0,5.0295,Diorite_rect,3,5.03,1,0,0,0,0,1,,,,,,,,,,,,,
5c2ab2de9136140001b90737,SCR,2024-06-24_14h46.44.173,LearnStrategy,2023.2.3,Linux x86_64,59.88023952,4,1,2,-0.570507805,-0.266418743,1,0,0,3.7308,Diorite_10,3,10,2,1,3.731,7,07,-0.400451803,-0.229182146,1,0,0,2.3129,Andesite_rect,1,2.313,0,1,0,1,0,1,,,,,,,,,,,,,
5c2ab2de9136140001b90737,SCR,2024-06-24_14h46.44.173,LearnStrategy,2023.2.3,Linux x86_64,59.88023952,4,1,3,0.054510763,0.083696265,1,0,0,1.1647,Gabbro_12,4,12,4,5,1.165,4,12,0.440292019,-0.251356512,1,0,0,7.8644,Gabbro_rect,4,7.864,1,2,0,2,0,1,,,,,,,,,,,,,
5c2ab2de9136140001b90737,SCR,2024-06-24_14h46.44.173,LearnStrategy,2023.2.3,Linux x86_64,59.88023952,4,1,4,0.371361646,-0.262559647,1,0,0,2.5598,Pegmatite_05,6,05,2,7,2.56,6,05,0.371361646,-0.262559647,1,0,0,0.0675,Gabbro_rect,4,0.068,0,3,0,3,0,1,,,,,,,,,,,,,
5c2ab2de9136140001b90737,SCR,2024-06-24_14h46.44.173,LearnStrategy,2023.2.3,Linux x86_64,59.88023952,4,1,5,-0.228475126,0.285446614,1,0,0,2.3699,Andesite_16,1,16,5,3,2.37,1,16,0.132241574,-0.244725432,1,0,0,3.864,Diorite_rect,3,3.864,0,4,0,4,0,1,,,,,,,,,,,,,
5c2ab2de9136140001b90737,SCR,2024-06-24_14h46.44.173,LearnStrategy,2023.2.3,Linux x86_64,59.88023952,4,1,6,-0.225102164,0.083213815,1,0,0,1.2944,Gabbro_10,4,10,4,3,1.294,4,10,-0.093620703,-0.239549035,1,0,0,3.8642,Basalt_rect,2,3.864,0,5,0,5,0,1,,,,,,,,,,,,,
5c2ab2de9136140001b90737,SCR,2024-06-24_14h46.44.173,LearnStrategy,2023.2.3,Linux x86_64,59.88023952,4,1,7,0.204912049,0.066815,1,0,0,1.4139,Gabbro_16,4,16,4,6,1.414,4,16,-0.12543018,-0.253041239,1,0,0,2.5653,Basalt_rect,2,2.565,0,6,0,6,0,1,,,,,,,,,,,,,
5c2ab2de9136140001b90737,SCR,2024-06-24_14h46.44.173,LearnStrategy,2023.2.3,Linux x86_64,59.88023952,4,1,8,-0.104940828,-0.267366327,1,0,0,1.0804,Pumice_14,8,14,2,4,1.08,8,14,0.353995463,-0.411505463,1,0,0,1.4195,Pumice_rect,8,1.419,1,7,0,7,0,1,,,,,,,,,,,,,
5c2ab2de9136140001b90737,SCR,2024-06-24_14h46.44.173,LearnStrategy,2023.2.3,Linux x86_64,59.88023952,4,1,9,-0.098911871,0.269184037,1,0,0,1.7073,Gabbro_14,4,14,5,4,1.707,4,14,-0.082280471,-0.249532183,1,0,0,2.1306,Basalt_rect,2,2.131,0,8,0,8,0,1,,,,,,,,,,,,,
5c2ab2de9136140001b90737,SCR,2024-06-24_14h46.44.173,LearnStrategy,2023.2.3,Linux x86_64,59.88023952,4,1,10,-0.07227829,0.404175189,1,0,0,1.4993,Pegmatite_11,6,11,6,4,1.499,6,11,-0.137117446,-0.398729725,1,0,0,2.5896,Pegmatite_rect,6,2.59,1,9,0,9,0,1,,,,,,,,,,,,,
5c2ab2de9136140001b90737,SCR,2024-06-24_14h46.44.173,LearnStrategy,2023.2.3,Linux x86_64,59.88023952,4,1,11,0.577666342,-0.266394916,1,0,0,2.2242,Obsidian_14,5,14,2,8,2.224,5,14,-0.374438627,-0.39944619,1,0,0,3.8989,Obsidian_rect,5,3.899,1,10,0,10,0,1,,,,,,,,,,,,,
5c2ab2de9136140001b90737,SCR,2024-06-24_14h46.44.173,LearnStrategy,2023.2.3,Linux x86_64,59.88023952,4,1,12,0.388089859,0.453470174,1,0,0,2.0309,Pumice_06,8,06,6,7,2.031,8,06,0.390861842,-0.385470356,1,0,0,2.825,Pumice_rect,8,2.825,1,11,0,11,0,1,,,,,,,,,,,,,
5c2ab2de9136140001b90737,SCR,2024-06-24_14h46.44.173,LearnStrategy,2023.2.3,Linux x86_64,59.88023952,4,1,13,0.394719436,-0.067533468,1,0,0,1.8805,Peridotite_13,7,13,3,7,1.88,7,13,0.117528882,-0.378840206,1,0,0,1.3937,Peridotite_rect,7,1.394,1,12,0,12,0,1,,,,,,,,,,,,,
5c2ab2de9136140001b90737,SCR,2024-06-24_14h46.44.173,LearnStrategy,2023.2.3,Linux x86_64,59.88023952,4,1,14,0.404722618,-0.424876742,1,0,0,1.3328,Diorite_08,3,08,1,7,1.333,3,08,0.140906277,-0.241329502,1,0,0,1.8072,Diorite_rect,3,1.807,1,13,0,13,0,1,,,,,,,,,,,,,
5c2ab2de9136140001b90737,SCR,2024-06-24_14h46.44.173,LearnStrategy,2023.2.3,Linux x86_64,59.88023952,4,1,15,-0.413476119,-0.23229544,1,0,0,1.7952,Basalt_05,2,05,2,2,1.795,2,05,0.339670018,-0.257242576,1,0,0,3.087,Gabbro_rect,4,3.087,0,14,0,14,0,1,,,,,,,,,,,,,
5c2ab2de9136140001b90737,SCR,2024-06-24_14h46.44.173,LearnStrategy,2023.2.3,Linux x86_64,59.88023952,4,1,16,-0.559902536,0.454074189,1,0,0,1.7809,Andesite_06,1,06,6,1,1.781,1,06,-0.374184326,-0.252899492,1,0,0,1.5051,Andesite_rect,1,1.505,1,15,0,15,0,1,,,,,,,,,,,,,
5c2ab2de9136140001b90737,SCR,2024-06-24_14h46.44.173,LearnStrategy,2023.2.3,Linux x86_64,59.88023952,4,2,1,,,,,,,,4,03,,,,,,,,,,,,,1,6.119,0,,,,,,-0.438907923,-0.244700245,1,0,0,6.119,Andesite_rect,0,0,0,0,1,
5c2ab2de9136140001b90737,SCR,2024-06-24_14h46.44.173,LearnStrategy,2023.2.3,Linux x86_64,59.88023952,4,2,2,,,,,,,,1,09,,,,,,,,,,,,,4,4.964,0,,,,,,0.337363419,-0.264103557,1,0,0,4.9644,Gabbro_rect,1,0,1,0,1,
5c2ab2de9136140001b90737,SCR,2024-06-24_14h46.44.173,LearnStrategy,2023.2.3,Linux x86_64,59.88023952,4,2,3,,,,,,,,7,08,,,,,,,,,,,,,7,3.807,1,,,,,,0.167424585,-0.412584777,1,0,0,3.807,Peridotite_rect,2,0,2,0,1,
5c2ab2de9136140001b90737,SCR,2024-06-24_14h46.44.173,LearnStrategy,2023.2.3,Linux x86_64,59.88023952,4,2,4,,,,,,,,5,10,,,,,,,,,,,,,5,1.346,1,,,,,,-0.360809612,-0.409812865,1,0,0,1.3465,Obsidian_rect,3,0,3,0,1,
5c2ab2de9136140001b90737,SCR,2024-06-24_14h46.44.173,LearnStrategy,2023.2.3,Linux x86_64,59.88023952,4,2,5,,,,,,,,2,11,,,,,,,,,,,,,2,6.736,1,,,,,,-0.131090278,-0.268445783,1,0,0,6.7365,Basalt_rect,4,0,4,0,1,
5c2ab2de9136140001b90737,SCR,2024-06-24_14h46.44.173,LearnStrategy,2023.2.3,Linux x86_64,59.88023952,4,2,6,,,,,,,,8,15,,,,,,,,,,,,,2,3.605,0,,,,,,-0.131090278,-0.268445783,1,0,0,3.6049,Basalt_rect,5,0,5,0,1,
5c2ab2de9136140001b90737,SCR,2024-06-24_14h46.44.173,LearnStrategy,2023.2.3,Linux x86_64,59.88023952,4,2,7,,,,,,,,7,12,,,,,,,,,,,,,7,4.353,1,,,,,,0.117063068,-0.401497272,1,0,0,4.3532,Peridotite_rect,6,0,6,0,1,
5c2ab2de9136140001b90737,SCR,2024-06-24_14h46.44.173,LearnStrategy,2023.2.3,Linux x86_64,59.88023952,4,2,8,,,,,,,,2,06,,,,,,,,,,,,,4,3.127,0,,,,,,0.327127687,-0.260130047,1,0,0,3.1274,Gabbro_rect,7,0,7,0,1,
5c2ab2de9136140001b90737,SCR,2024-06-24_14h46.44.173,LearnStrategy,2023.2.3,Linux x86_64,59.88023952,4,2,9,,,,,,,,5,04,,,,,,,,,,,,,5,3.04,1,,,,,,-0.400083481,-0.398725574,1,0,0,3.0402,Obsidian_rect,8,0,8,0,1,
5c2ab2de9136140001b90737,SCR,2024-06-24_14h46.44.173,LearnStrategy,2023.2.3,Linux x86_64,59.88023952,4,2,10,,,,,,,,6,07,,,,,,,,,,,,,6,5.11,1,,,,,,-0.160613191,-0.38763807,1,0,0,5.1102,Pegmatite_rect,9,0,9,0,1,
5c2ab2de9136140001b90737,SCR,2024-06-24_14h46.44.173,LearnStrategy,2023.2.3,Linux x86_64,59.88023952,4,2,11,,,,,,,,3,12,,,,,,,,,,,,,1,1.732,0,,,,,,-0.365134164,-0.251814669,1,0,0,1.7322,Andesite_rect,10,0,10,0,1,
5c2ab2de9136140001b90737,SCR,2024-06-24_14h46.44.173,LearnStrategy,2023.2.3,Linux x86_64,59.88023952,4,2,12,,,,,,,,4,01,,,,,,,,,,,,,4,4.65,1,,,,,,0.493074621,-0.250729202,1,0,0,4.6502,Gabbro_rect,11,0,11,0,1,
5c2ab2de9136140001b90737,SCR,2024-06-24_14h46.44.173,LearnStrategy,2023.2.3,Linux x86_64,59.88023952,4,2,13,,,,,,,,1,04,,,,,,,,,,,,,1,3.404,1,,,,,,-0.335262321,-0.228553978,1,0,0,3.4038,Andesite_rect,12,0,12,0,1,
5c2ab2de9136140001b90737,SCR,2024-06-24_14h46.44.173,LearnStrategy,2023.2.3,Linux x86_64,59.88023952,4,2,14,,,,,,,,3,07,,,,,,,,,,,,,3,2.25,1,,,,,,0.042202841,-0.245185378,1,0,0,2.2497,Diorite_rect,13,0,13,0,1,
5c2ab2de9136140001b90737,SCR,2024-06-24_14h46.44.173,LearnStrategy,2023.2.3,Linux x86_64,59.88023952,4,2,15,,,,,,,,8,08,,,,,,,,,,,,,8,1.589,1,,,,,,0.462332651,-0.40041202,1,0,0,1.5893,Pumice_rect,14,0,14,0,1,
5c2ab2de9136140001b90737,SCR,2024-06-24_14h46.44.173,LearnStrategy,2023.2.3,Linux x86_64,59.88023952,4,2,16,,,,,,,,6,06,,,,,,,,,,,,,6,2.212,1,,,,,,-0.111705928,-0.405238376,1,0,0,2.2123,Pegmatite_rect,15,0,15,0,1,
5c2ab2de9136140001b90737,SCR,2024-06-24_14h46.44.173,LearnStrategy,2023.2.3,Linux x86_64,59.88023952,5,1,1,0.230925977,0.416468952,1,0,0,1.7647,Pumice_13,8,13,6,6,1.765,8,13,0.452678506,-0.403184003,1,0,0,2.9385,Pumice_rect,8,2.938,1,0,0,0,0,1,,,,,,,,,,,,,
5c2ab2de9136140001b90737,SCR,2024-06-24_14h46.44.173,LearnStrategy,2023.2.3,Linux x86_64,59.88023952,5,1,2,0.583927991,0.245696306,1,0,0,1.6985,Diorite_16,3,16,5,8,1.699,3,16,-0.448311451,-0.233845361,1,0,0,2.8124,Andesite_rect,1,2.812,0,1,0,1,0,1,,,,,,,,,,,,,
5c2ab2de9136140001b90737,SCR,2024-06-24_14h46.44.173,LearnStrategy,2023.2.3,Linux x86_64,59.88023952,5,1,3,0.389408304,-0.388838237,1,0,0,1.731,Diorite_08,3,08,1,7,1.731,3,08,0.180061582,-0.233611524,1,0,0,1.0538,Diorite_rect,3,1.054,1,2,0,2,0,1,,,,,,,,,,,,,
5c2ab2de9136140001b90737,SCR,2024-06-24_14h46.44.173,LearnStrategy,2023.2.3,Linux x86_64,59.88023952,5,1,4,-0.049890337,0.285105232,1,0,0,1.2373,Gabbro_14,4,14,5,4,1.237,4,14,-0.110872186,-0.259877535,1,0,0,3.5556,Basalt_rect,2,3.556,0,3,0,3,0,1,,,,,,,,,,,,,
5c2ab2de9136140001b90737,SCR,2024-06-24_14h46.44.173,LearnStrategy,2023.2.3,Linux x86_64,59.88023952,5,1,5,-0.218725386,0.427561976,1,0,0,3.6245,Basalt_10,2,10,6,3,3.625,5,08,0.454132617,-0.253262841,1,0,0,3.1506,Gabbro_rect,4,3.151,0,4,0,4,0,1,,,,,,,,,,,,,
5c2ab2de9136140001b90737,SCR,2024-06-24_14h46.44.173,LearnStrategy,2023.2.3,Linux x86_64,59.88023952,5,1,6,-0.052894655,0.055156426,1,0,0,2.7307,Gabbro_11,4,11,4,4,2.731,8,02,0.403269653,-0.251207967,1,0,0,3.309,Gabbro_rect,4,3.309,1,5,0,5,0,1,,,,,,,,,,,,,
5c2ab2de9136140001b90737,SCR,2024-06-24_14h46.44.173,LearnStrategy,2023.2.3,Linux x86_64,59.88023952,5,1,7,0.115708489,0.110479178,1,0,0,1.3126,Gabbro_12,4,12,4,5,1.313,1,05,-0.175109434,-0.239867949,1,0,0,2.3807,Basalt_rect,2,2.381,0,6,0,6,0,1,,,,,,,,,,,,,
5c2ab2de9136140001b90737,SCR,2024-06-24_14h46.44.173,LearnStrategy,2023.2.3,Linux x86_64,59.88023952,5,1,8,-0.098213509,0.084214133,1,0,0,1.2331,Gabbro_11,4,11,4,4,1.233,7,02,0.429536236,-0.2450427,1,0,0,1.189,Gabbro_rect,4,1.189,1,7,0,7,0,1,,,,,,,,,,,,,
5c2ab2de9136140001b90737,SCR,2024-06-24_14h46.44.173,LearnStrategy,2023.2.3,Linux x86_64,59.88023952,5,1,9,0.080507589,0.139052254,1,0,0,1.4426,Gabbro_12,4,12,4,5,1.443,4,16,0.426395609,-0.254694841,1,0,0,1.2883,Gabbro_rect,4,1.288,1,8,0,8,0,1,,,,,,,,,,,,,
5c2ab2de9136140001b90737,SCR,2024-06-24_14h46.44.173,LearnStrategy,2023.2.3,Linux x86_64,59.88023952,5,1,10,-0.243806828,-0.276017148,1,0,0,1.637,Basalt_09,2,09,2,3,1.637,4,10,0.436281587,-0.23769444,1,0,0,2.236,Gabbro_rect,4,2.236,0,9,0,9,0,1,,,,,,,,,,,,,
5c2ab2de9136140001b90737,SCR,2024-06-24_14h46.44.173,LearnStrategy,2023.2.3,Linux x86_64,59.88023952,5,1,11,-0.401322288,-0.282761425,1,0,0,2.1512,Basalt_05,2,05,2,2,2.151,1,05,0.378089252,-0.246726569,1,0,0,3.3849,Gabbro_rect,4,3.385,0,10,0,10,0,1,,,,,,,,,,,,,
5c2ab2de9136140001b90737,SCR,2024-06-24_14h46.44.173,LearnStrategy,2023.2.3,Linux x86_64,59.88023952,5,1,12,-0.343579166,0.121356817,1,0,0,7.4156,Andesite_10,1,10,4,2,7.416,2,16,-0.182808164,-0.268882474,1,0,0,2.795,Basalt_rect,2,2.795,0,11,0,11,0,1,,,,,,,,,,,,,
5c2ab2de9136140001b90737,SCR,2024-06-24_14h46.44.173,LearnStrategy,2023.2.3,Linux x86_64,59.88023952,5,1,13,-0.397215294,0.089432031,1,0,0,3.0464,Andesite_10,1,10,4,2,3.046,1,14,-0.172806627,-0.239224111,1,0,0,3.7354,Basalt_rect,2,3.735,0,12,0,12,0,1,,,,,,,,,,,,,
5c2ab2de9136140001b90737,SCR,2024-06-24_14h46.44.173,LearnStrategy,2023.2.3,Linux x86_64,59.88023952,5,1,14,-0.376610956,0.083888851,1,0,0,3.4583,Andesite_10,1,10,4,2,3.458,2,05,-0.354435732,-0.244282873,1,0,0,1.3059,Andesite_rect,1,1.306,1,13,0,13,0,1,,,,,,,,,,,,,
5c2ab2de9136140001b90737,SCR,2024-06-24_14h46.44.173,LearnStrategy,2023.2.3,Linux x86_64,59.88023952,5,1,15,0.102096647,0.116803222,1,0,0,1.4437,Gabbro_12,4,12,4,5,1.444,4,11,0.412550145,-0.266322361,1,0,0,4.0014,Gabbro_rect,4,4.001,1,14,0,14,0,1,,,,,,,,,,,,,
5c2ab2de9136140001b90737,SCR,2024-06-24_14h46.44.173,LearnStrategy,2023.2.3,Linux x86_64,59.88023952,5,1,16,-0.058809913,0.089703934,1,0,0,1.0322,Gabbro_11,4,11,4,4,1.032,6,13,0.400494091,-0.268958392,1,0,0,1.5195,Gabbro_rect,4,1.52,1,15,0,15,0,1,,,,,,,,,,,,,
5c2ab2de9136140001b90737,SCR,2024-06-24_14h46.44.173,LearnStrategy,2023.2.3,Linux x86_64,59.88023952,5,2,1,,,,,,,,3,15,,,,,,,,,,,,,3,6.8,1,,,,,,0.095699404,-0.236799734,1,0,0,6.8,Diorite_rect,0,0,0,0,1,
5c2ab2de9136140001b90737,SCR,2024-06-24_14h46.44.173,LearnStrategy,2023.2.3,Linux x86_64,59.88023952,5,2,2,,,,,,,,5,02,,,,,,,,,,,,,5,1.861,1,,,,,,-0.425905395,-0.416973941,1,0,0,1.8609,Obsidian_rect,1,0,1,0,1,
5c2ab2de9136140001b90737,SCR,2024-06-24_14h46.44.173,LearnStrategy,2023.2.3,Linux x86_64,59.88023952,5,2,3,,,,,,,,1,03,,,,,,,,,,,,,1,4.149,1,,,,,,-0.306480631,-0.244263482,1,0,0,4.1492,Andesite_rect,2,0,2,0,1,
5c2ab2de9136140001b90737,SCR,2024-06-24_14h46.44.173,LearnStrategy,2023.2.3,Linux x86_64,59.88023952,5,2,4,,,,,,,,4,15,,,,,,,,,,,,,3,1.913,0,,,,,,0.124736468,-0.249807163,1,0,0,1.9132,Diorite_rect,3,0,3,0,1,
5c2ab2de9136140001b90737,SCR,2024-06-24_14h46.44.173,LearnStrategy,2023.2.3,Linux x86_64,59.88023952,5,2,5,,,,,,,,8,05,,,,,,,,,,,,,8,1.405,1,,,,,,0.363004767,-0.416121596,1,0,0,1.4049,Pumice_rect,4,0,4,0,1,
5c2ab2de9136140001b90737,SCR,2024-06-24_14h46.44.173,LearnStrategy,2023.2.3,Linux x86_64,59.88023952,5,2,6,,,,,,,,7,05,,,,,,,,,,,,,7,1.46,1,,,,,,0.075927162,-0.405033948,1,0,0,1.4603,Peridotite_rect,5,0,5,0,1,
5c2ab2de9136140001b90737,SCR,2024-06-24_14h46.44.173,LearnStrategy,2023.2.3,Linux x86_64,59.88023952,5,2,7,,,,,,,,2,14,,,,,,,,,,,,,2,6.815,1,,,,,,-0.126072444,-0.247035466,1,0,0,6.8149,Basalt_rect,6,0,6,0,1,
5c2ab2de9136140001b90737,SCR,2024-06-24_14h46.44.173,LearnStrategy,2023.2.3,Linux x86_64,59.88023952,5,2,8,,,,,,,,8,10,,,,,,,,,,,,,8,1.519,1,,,,,,0.396985536,-0.382858724,1,0,0,1.519,Pumice_rect,7,0,7,0,1,
5c2ab2de9136140001b90737,SCR,2024-06-24_14h46.44.173,LearnStrategy,2023.2.3,Linux x86_64,59.88023952,5,2,9,,,,,,,,6,15,,,,,,,,,,,,,6,1.918,1,,,,,,-0.106785192,-0.385630636,1,0,0,1.9176,Pegmatite_rect,8,0,8,0,1,
5c2ab2de9136140001b90737,SCR,2024-06-24_14h46.44.173,LearnStrategy,2023.2.3,Linux x86_64,59.88023952,5,2,10,,,,,,,,2,08,,,,,,,,,,,,,2,6.493,1,,,,,,-0.118608982,-0.248237136,1,0,0,6.4927,Basalt_rect,9,0,9,0,1,
5c2ab2de9136140001b90737,SCR,2024-06-24_14h46.44.173,LearnStrategy,2023.2.3,Linux x86_64,59.88023952,5,2,11,,,,,,,,5,07,,,,,,,,,,,,,5,1.82,1,,,,,,-0.353872462,-0.390689827,1,0,0,1.8204,Obsidian_rect,10,0,10,0,1,
5c2ab2de9136140001b90737,SCR,2024-06-24_14h46.44.173,LearnStrategy,2023.2.3,Linux x86_64,59.88023952,5,2,12,,,,,,,,1,11,,,,,,,,,,,,,1,2.156,1,,,,,,-0.31783775,-0.265702492,1,0,0,2.1559,Andesite_rect,11,0,11,0,1,
5c2ab2de9136140001b90737,SCR,2024-06-24_14h46.44.173,LearnStrategy,2023.2.3,Linux x86_64,59.88023952,5,2,13,,,,,,,,3,02,,,,,,,,,,,,,3,1.391,1,,,,,,0.107835311,-0.257386757,1,0,0,1.3909,Diorite_rect,12,0,12,0,1,
5c2ab2de9136140001b90737,SCR,2024-06-24_14h46.44.173,LearnStrategy,2023.2.3,Linux x86_64,59.88023952,5,2,14,,,,,,,,4,09,,,,,,,,,,,,,2,4.219,0,,,,,,-0.059816385,-0.249071164,1,0,0,4.2188,Basalt_rect,13,0,13,0,1,
5c2ab2de9136140001b90737,SCR,2024-06-24_14h46.44.173,LearnStrategy,2023.2.3,Linux x86_64,59.88023952,5,2,15,,,,,,,,6,10,,,,,,,,,,,,,7,3.224,0,,,,,,0.108669697,-0.387666691,1,0,0,3.2241,Peridotite_rect,14,0,14,0,1,
5c2ab2de9136140001b90737,SCR,2024-06-24_14h46.44.173,LearnStrategy,2023.2.3,Linux x86_64,59.88023952,5,2,16,,,,,,,,7,16,,,,,,,,,,,,,7,1.145,1,,,,,,0.108669697,-0.387666691,1,0,0,1.1445,Peridotite_rect,15,0,15,0,1,
5c2ab2de9136140001b90737,SCR,2024-06-24_14h46.44.173,LearnStrategy,2023.2.3,Linux x86_64,59.88023952,6,1,1,-0.236733404,-0.408757092,1,0,0,4.671,Pegmatite_09,6,09,1,3,4.671,5,08,0.18037241,-0.394897532,1,0,0,3.1807,Peridotite_rect,7,3.181,0,0,0,0,0,1,,,,,,,,,,,,,
5c2ab2de9136140001b90737,SCR,2024-06-24_14h46.44.173,LearnStrategy,2023.2.3,Linux x86_64,59.88023952,6,1,2,0.234475103,-0.273165597,1,0,0,14.4093,Pegmatite_12,6,12,2,6,14.409,2,16,-0.393566637,-0.234359044,1,0,0,4.6251,Andesite_rect,1,4.625,0,1,0,1,0,1,,,,,,,,,,,,,
5c2ab2de9136140001b90737,SCR,2024-06-24_14h46.44.173,LearnStrategy,2023.2.3,Linux x86_64,59.88023952,6,1,3,0.559370535,-0.115999354,1,0,0,4.3058,Andesite_05,1,05,3,8,4.306,2,09,0.114293804,-0.240735321,1,0,0,1.4538,Diorite_rect,3,1.454,0,2,0,2,0,1,,,,,,,,,,,,,
5c2ab2de9136140001b90737,SCR,2024-06-24_14h46.44.173,LearnStrategy,2023.2.3,Linux x86_64,59.88023952,6,1,4,-0.556994064,0.084063334,1,0,0,3.918,Peridotite_02,7,02,4,1,3.918,4,16,0.160582709,-0.392705562,1,0,0,2.1807,Peridotite_rect,7,2.181,1,3,0,3,0,1,,,,,,,,,,,,,
5c2ab2de9136140001b90737,SCR,2024-06-24_14h46.44.173,LearnStrategy,2023.2.3,Linux x86_64,59.88023952,6,1,5,0.598544659,0.408262166,1,0,0,5.0471,Pegmatite_16,6,16,6,8,5.047,7,02,-0.111317177,-0.416082313,1,0,0,3.0612,Pegmatite_rect,6,3.061,1,4,0,4,0,1,,,,,,,,,,,,,
5c2ab2de9136140001b90737,SCR,2024-06-24_14h46.44.173,LearnStrategy,2023.2.3,Linux x86_64,59.88023952,6,1,6,-0.568721007,0.11494215,1,0,0,7.7651,Peridotite_02,7,02,4,1,7.765,4,08,0.172213663,-0.391348979,1,0,0,4.6758,Peridotite_rect,7,4.676,1,5,0,5,0,1,,,,,,,,,,,,,
5c2ab2de9136140001b90737,SCR,2024-06-24_14h46.44.173,LearnStrategy,2023.2.3,Linux x86_64,59.88023952,6,1,7,-0.231049264,0.233184993,1,0,0,5.0975,Andesite_16,1,16,5,3,5.098,4,16,0.18196512,-0.265508439,1,0,0,2.5317,Diorite_rect,3,2.532,0,6,0,6,0,1,,,,,,,,,,,,,
5c2ab2de9136140001b90737,SCR,2024-06-24_14h46.44.173,LearnStrategy,2023.2.3,Linux x86_64,59.88023952,6,1,8,-0.400020693,-0.115456763,1,0,0,1.9004,Diorite_11,3,11,3,2,1.9,1,06,0.140386655,-0.23019055,1,0,0,3.8261,Diorite_rect,3,3.826,1,7,0,7,0,1,,,,,,,,,,,,,
5c2ab2de9136140001b90737,SCR,2024-06-24_14h46.44.173,LearnStrategy,2023.2.3,Linux x86_64,59.88023952,6,1,9,0.50013495,-0.431104188,1,0,0,3.4474,Basalt_04,2,04,1,8,3.447,1,16,0.37997297,-0.271768156,1,0,0,4.9239,Gabbro_rect,4,4.924,0,8,0,8,0,1,,,,,,,,,,,,,
5c2ab2de9136140001b90737,SCR,2024-06-24_14h46.44.173,LearnStrategy,2023.2.3,Linux x86_64,59.88023952,6,1,10,0.232692705,-0.206094185,1,0,0,1.578,Pegmatite_12,6,12,2,6,1.578,6,12,-0.124767952,-0.380724282,1,0,0,1.9036,Pegmatite_rect,6,1.904,1,9,0,9,0,1,,,,,,,,,,,,,
5c2ab2de9136140001b90737,SCR,2024-06-24_14h46.44.173,LearnStrategy,2023.2.3,Linux x86_64,59.88023952,6,1,11,0.385749057,0.441789768,1,0,0,1.8136,Pumice_06,8,06,6,7,1.814,8,06,0.405152369,-0.380384188,1,0,0,3.7241,Pumice_rect,8,3.724,1,10,0,10,0,1,,,,,,,,,,,,,
5c2ab2de9136140001b90737,SCR,2024-06-24_14h46.44.173,LearnStrategy,2023.2.3,Linux x86_64,59.88023952,6,1,12,0.256069098,-0.273965637,1,0,0,2.3118,Pegmatite_12,6,12,2,6,2.312,6,12,-0.170456594,-0.387613813,1,0,0,1.49,Pegmatite_rect,6,1.49,1,11,0,11,0,1,,,,,,,,,,,,,
5c2ab2de9136140001b90737,SCR,2024-06-24_14h46.44.173,LearnStrategy,2023.2.3,Linux x86_64,59.88023952,6,1,13,-0.065357061,-0.45762908,1,0,0,1.4046,Pumice_09,8,09,1,4,1.405,8,09,0.387200878,-0.388331495,1,0,0,1.7616,Pumice_rect,8,1.762,1,12,0,12,0,1,,,,,,,,,,,,,
5c2ab2de9136140001b90737,SCR,2024-06-24_14h46.44.173,LearnStrategy,2023.2.3,Linux x86_64,59.88023952,6,1,14,-0.061248243,0.262835987,1,0,0,1.2482,Gabbro_14,4,14,5,4,1.248,4,14,-0.108370603,-0.247681594,1,0,0,1.7914,Basalt_rect,2,1.791,0,13,0,13,0,1,,,,,,,,,,,,,
5c2ab2de9136140001b90737,SCR,2024-06-24_14h46.44.173,LearnStrategy,2023.2.3,Linux x86_64,59.88023952,6,1,15,0.53436544,0.264038462,1,0,0,1.5369,Diorite_16,3,16,5,8,1.537,3,16,-0.373388579,-0.251537757,1,0,0,2.7866,Andesite_rect,1,2.787,0,14,0,14,0,1,,,,,,,,,,,,,
5c2ab2de9136140001b90737,SCR,2024-06-24_14h46.44.173,LearnStrategy,2023.2.3,Linux x86_64,59.88023952,6,1,16,0.105920754,0.082313743,1,0,0,1.3644,Gabbro_12,4,12,4,5,1.364,4,12,0.420232704,-0.246826673,1,0,0,5.0861,Gabbro_rect,4,5.086,1,15,0,15,0,1,,,,,,,,,,,,,
5c2ab2de9136140001b90737,SCR,2024-06-24_14h46.44.173,LearnStrategy,2023.2.3,Linux x86_64,59.88023952,6,2,1,,,,,,,,4,05,,,,,,,,,,,,,1,12.154,0,,,,,,-0.341461146,-0.263691051,1,0,0,12.1541,Andesite_rect,0,0,0,0,1,
5c2ab2de9136140001b90737,SCR,2024-06-24_14h46.44.173,LearnStrategy,2023.2.3,Linux x86_64,59.88023952,6,2,2,,,,,,,,2,02,,,,,,,,,,,,,2,3.911,1,,,,,,-0.096078566,-0.25343736,1,0,0,3.9112,Basalt_rect,1,0,1,0,1,
5c2ab2de9136140001b90737,SCR,2024-06-24_14h46.44.173,LearnStrategy,2023.2.3,Linux x86_64,59.88023952,6,2,3,,,,,,,,4,13,,,,,,,,,,,,,1,3.653,0,,,,,,-0.409072429,-0.245121552,1,0,0,3.6526,Andesite_rect,2,0,2,0,1,
5c2ab2de9136140001b90737,SCR,2024-06-24_14h46.44.173,LearnStrategy,2023.2.3,Linux x86_64,59.88023952,6,2,4,,,,,,,,5,06,,,,,,,,,,,,,5,2.774,1,,,,,,-0.389669116,-0.389628975,1,0,0,2.7742,Obsidian_rect,3,0,3,0,1,
5c2ab2de9136140001b90737,SCR,2024-06-24_14h46.44.173,LearnStrategy,2023.2.3,Linux x86_64,59.88023952,6,2,5,,,,,,,,1,02,,,,,,,,,,,,,6,2.833,0,,,,,,-0.102224227,-0.392400887,1,0,0,2.8329,Pegmatite_rect,4,0,4,0,1,
5c2ab2de9136140001b90737,SCR,2024-06-24_14h46.44.173,LearnStrategy,2023.2.3,Linux x86_64,59.88023952,6,2,6,,,,,,,,3,06,,,,,,,,,,,,,1,6.398,0,,,,,,-0.430629359,-0.245489981,1,0,0,6.3984,Andesite_rect,5,0,5,0,1,
5c2ab2de9136140001b90737,SCR,2024-06-24_14h46.44.173,LearnStrategy,2023.2.3,Linux x86_64,59.88023952,6,2,7,,,,,,,,7,14,,,,,,,,,,,,,7,2.153,1,,,,,,0.180528969,-0.381313239,1,0,0,2.1527,Peridotite_rect,6,0,6,0,1,
5c2ab2de9136140001b90737,SCR,2024-06-24_14h46.44.173,LearnStrategy,2023.2.3,Linux x86_64,59.88023952,6,2,8,,,,,,,,2,01,,,,,,,,,,,,,2,3.219,1,,,,,,-0.062332064,-0.252720322,1,0,0,3.2189,Basalt_rect,7,0,7,0,1,
5c2ab2de9136140001b90737,SCR,2024-06-24_14h46.44.173,LearnStrategy,2023.2.3,Linux x86_64,59.88023952,6,2,9,,,,,,,,6,03,,,,,,,,,,,,,6,3.777,1,,,,,,-0.088616249,-0.385771596,1,0,0,3.7771,Pegmatite_rect,8,0,8,0,1,
5c2ab2de9136140001b90737,SCR,2024-06-24_14h46.44.173,LearnStrategy,2023.2.3,Linux x86_64,59.88023952,6,2,10,,,,,,,,3,09,,,,,,,,,,,,,3,1.938,1,,,,,,0.133504637,-0.236088778,1,0,0,1.9378,Diorite_rect,9,0,9,0,1,
5c2ab2de9136140001b90737,SCR,2024-06-24_14h46.44.173,LearnStrategy,2023.2.3,Linux x86_64,59.88023952,6,2,11,,,,,,,,7,15,,,,,,,,,,,,,7,2.949,1,,,,,,0.137362016,-0.395909085,1,0,0,2.9487,Peridotite_rect,10,0,10,0,1,
5c2ab2de9136140001b90737,SCR,2024-06-24_14h46.44.173,LearnStrategy,2023.2.3,Linux x86_64,59.88023952,6,2,12,,,,,,,,1,01,,,,,,,,,,,,,1,4.343,1,,,,,,-0.391589577,-0.262857667,1,0,0,4.3435,Andesite_rect,11,0,11,0,1,
5c2ab2de9136140001b90737,SCR,2024-06-24_14h46.44.173,LearnStrategy,2023.2.3,Linux x86_64,59.88023952,6,2,13,,,,,,,,5,05,,,,,,,,,,,,,5,1.65,1,,,,,,-0.322892649,-0.4218257,1,0,0,1.6499,Obsidian_rect,12,0,12,0,1,
5c2ab2de9136140001b90737,SCR,2024-06-24_14h46.44.173,LearnStrategy,2023.2.3,Linux x86_64,59.88023952,6,2,14,,,,,,,,8,03,,,,,,,,,,,,,8,1.976,1,,,,,,0.468073247,-0.4218257,1,0,0,1.9757,Pumice_rect,13,0,13,0,1,
5c2ab2de9136140001b90737,SCR,2024-06-24_14h46.44.173,LearnStrategy,2023.2.3,Linux x86_64,59.88023952,6,2,15,,,,,,,,6,08,,,,,,,,,,,,,6,4.214,1,,,,,,-0.14537458,-0.391334739,1,0,0,4.2136,Pegmatite_rect,14,0,14,0,1,
5c2ab2de9136140001b90737,SCR,2024-06-24_14h46.44.173,LearnStrategy,2023.2.3,Linux x86_64,59.88023952,6,2,16,,,,,,,,8,16,,,,,,,,,,,,,8,1.767,1,,,,,,0.47830583,-0.394106651,1,0,0,1.7673,Pumice_rect,15,0,15,0,1,
5c2ab2de9136140001b90737,SCR,2024-06-24_14h46.44.173,LearnStrategy,2023.2.3,Linux x86_64,59.88023952,7,1,1,0.549405419,0.275630258,1,0,0,2.728,Diorite_16,3,16,5,8,2.728,3,16,-0.373643023,-0.242717998,1,0,0,1.8501,Andesite_rect,1,1.85,0,0,0,0,0,1,,,,,,,,,,,,,
5c2ab2de9136140001b90737,SCR,2024-06-24_14h46.44.173,LearnStrategy,2023.2.3,Linux x86_64,59.88023952,7,1,2,-0.541761499,0.123660196,1,0,0,1.4594,Peridotite_02,7,02,4,1,1.459,7,02,-0.43173665,-0.228372947,1,0,0,6.7092,Andesite_rect,1,6.709,0,1,0,1,0,1,,,,,,,,,,,,,
5c2ab2de9136140001b90737,SCR,2024-06-24_14h46.44.173,LearnStrategy,2023.2.3,Linux x86_64,59.88023952,7,1,3,-0.068364026,0.294686178,1,0,0,1.2937,Gabbro_14,4,14,5,4,1.294,4,14,0.389368663,-0.237889566,1,0,0,3.8581,Gabbro_rect,4,3.858,1,2,0,2,0,1,,,,,,,,,,,,,
5c2ab2de9136140001b90737,SCR,2024-06-24_14h46.44.173,LearnStrategy,2023.2.3,Linux x86_64,59.88023952,7,1,4,-0.284323439,0.109452886,1,0,0,1.7406,Gabbro_10,4,10,4,3,1.741,4,10,0.42637171,-0.267527322,1,0,0,4.8538,Gabbro_rect,4,4.854,1,3,0,3,0,1,,,,,,,,,,,,,
5c2ab2de9136140001b90737,SCR,2024-06-24_14h46.44.173,LearnStrategy,2023.2.3,Linux x86_64,59.88023952,7,1,5,-0.245886459,0.122479742,1,0,0,1.6472,Gabbro_10,4,10,4,3,1.647,4,10,0.343815686,-0.254500931,1,0,0,2.3247,Gabbro_rect,4,2.325,1,4,0,4,0,1,,,,,,,,,,,,,
5c2ab2de9136140001b90737,SCR,2024-06-24_14h46.44.173,LearnStrategy,2023.2.3,Linux x86_64,59.88023952,7,1,6,0.243058092,-0.273420327,1,0,0,1.7996,Pegmatite_12,6,12,2,6,1.8,6,12,-0.141753972,-0.384296592,1,0,0,3.1714,Pegmatite_rect,6,3.171,1,5,0,5,0,1,,,,,,,,,,,,,
5c2ab2de9136140001b90737,SCR,2024-06-24_14h46.44.173,LearnStrategy,2023.2.3,Linux x86_64,59.88023952,7,1,7,-0.542345268,-0.388987641,1,0,0,1.6079,Diorite_13,3,13,1,1,1.608,3,13,0.396131187,-0.250392328,1,0,0,6.3678,Gabbro_rect,4,6.368,0,6,0,6,0,1,,,,,,,,,,,,,
5c2ab2de9136140001b90737,SCR,2024-06-24_14h46.44.173,LearnStrategy,2023.2.3,Linux x86_64,59.88023952,7,1,8,0.096763978,0.274120335,1,0,0,1.6816,Basalt_16,2,16,5,5,1.682,2,16,0.385042966,-0.243375718,1,0,0,3.1327,Gabbro_rect,4,3.133,0,7,0,7,0,1,,,,,,,,,,,,,
5c2ab2de9136140001b90737,SCR,2024-06-24_14h46.44.173,LearnStrategy,2023.2.3,Linux x86_64,59.88023952,7,1,9,-0.265272026,0.265823955,1,0,0,1.3161,Andesite_16,1,16,5,3,1.316,1,16,0.094592901,-0.238781123,1,0,0,3.4982,Diorite_rect,3,3.498,0,8,0,8,0,1,,,,,,,,,,,,,
5c2ab2de9136140001b90737,SCR,2024-06-24_14h46.44.173,LearnStrategy,2023.2.3,Linux x86_64,59.88023952,7,1,10,-0.231290757,0.271251683,1,0,0,1.031,Andesite_16,1,16,5,3,1.031,1,16,-0.360369165,-0.256497847,1,0,0,2.0017,Andesite_rect,1,2.002,1,9,0,9,0,1,,,,,,,,,,,,,
5c2ab2de9136140001b90737,SCR,2024-06-24_14h46.44.173,LearnStrategy,2023.2.3,Linux x86_64,59.88023952,7,1,11,0.394077028,0.434675894,1,0,0,1.549,Pumice_06,8,06,6,7,1.549,8,06,0.432883796,-0.395813274,1,0,0,2.5981,Pumice_rect,8,2.598,1,10,0,10,0,1,,,,,,,,,,,,,
5c2ab2de9136140001b90737,SCR,2024-06-24_14h46.44.173,LearnStrategy,2023.2.3,Linux x86_64,59.88023952,7,1,12,0.572080015,-0.231417478,1,0,0,1.8336,Obsidian_14,5,14,2,8,1.834,5,14,-0.363626138,-0.406047647,1,0,0,1.735,Obsidian_rect,5,1.735,1,11,0,11,0,1,,,,,,,,,,,,,
5c2ab2de9136140001b90737,SCR,2024-06-24_14h46.44.173,LearnStrategy,2023.2.3,Linux x86_64,59.88023952,7,1,13,0.258252196,-0.226957905,1,0,0,1.7175,Pegmatite_12,6,12,2,6,1.717,6,12,-0.139818234,-0.387128108,1,0,0,1.6101,Pegmatite_rect,6,1.61,1,12,0,12,0,1,,,,,,,,,,,,,
5c2ab2de9136140001b90737,SCR,2024-06-24_14h46.44.173,LearnStrategy,2023.2.3,Linux x86_64,59.88023952,7,1,14,0.069411713,-0.062328844,1,0,0,1.4421,Andesite_07,1,07,3,5,1.442,1,07,0.155340626,-0.236726249,1,0,0,2.1122,Diorite_rect,3,2.112,0,13,0,13,0,1,,,,,,,,,,,,,
5c2ab2de9136140001b90737,SCR,2024-06-24_14h46.44.173,LearnStrategy,2023.2.3,Linux x86_64,59.88023952,7,1,15,-0.070269139,0.229091345,1,0,0,1.577,Gabbro_14,4,14,5,4,1.577,4,14,-0.181863872,-0.254074902,1,0,0,6.0628,Basalt_rect,2,6.063,0,14,0,14,0,1,,,,,,,,,,,,,
5c2ab2de9136140001b90737,SCR,2024-06-24_14h46.44.173,LearnStrategy,2023.2.3,Linux x86_64,59.88023952,7,1,16,0.213569096,0.075783518,1,0,0,1.6034,Gabbro_16,4,16,4,6,1.603,4,16,-0.203052516,-0.240214984,1,0,0,1.7062,Basalt_rect,2,1.706,0,15,0,15,0,1,,,,,,,,,,,,,
5c2ab2de9136140001b90737,SCR,2024-06-24_14h46.44.173,LearnStrategy,2023.2.3,Linux x86_64,59.88023952,7,2,1,,,,,,,,8,05,,,,,,,,,,,,,8,2.835,1,,,,,,0.485350131,-0.412072954,1,0,0,2.8349,Pumice_rect,0,0,0,0,1,
5c2ab2de9136140001b90737,SCR,2024-06-24_14h46.44.173,LearnStrategy,2023.2.3,Linux x86_64,59.88023952,7,2,2,,,,,,,,7,16,,,,,,,,,,,,,7,1.71,1,,,,,,0.081367663,-0.398213394,1,0,0,1.7104,Peridotite_rect,1,0,1,0,1,
5c2ab2de9136140001b90737,SCR,2024-06-24_14h46.44.173,LearnStrategy,2023.2.3,Linux x86_64,59.88023952,7,2,3,,,,,,,,4,15,,,,,,,,,,,,,1,5.424,0,,,,,,-0.409862344,-0.248530577,1,0,0,5.4241,Andesite_rect,2,0,2,0,1,
5c2ab2de9136140001b90737,SCR,2024-06-24_14h46.44.173,LearnStrategy,2023.2.3,Linux x86_64,59.88023952,7,2,4,,,,,,,,4,05,,,,,,,,,,,,,1,7.399,0,,,,,,-0.409862344,-0.248530577,1,0,0,7.3988,Andesite_rect,3,0,3,0,1,
5c2ab2de9136140001b90737,SCR,2024-06-24_14h46.44.173,LearnStrategy,2023.2.3,Linux x86_64,59.88023952,7,2,5,,,,,,,,8,15,,,,,,,,,,,,,8,3.456,1,,,,,,0.434854809,-0.403389219,1,0,0,3.4564,Pumice_rect,4,0,4,0,1,
5c2ab2de9136140001b90737,SCR,2024-06-24_14h46.44.173,LearnStrategy,2023.2.3,Linux x86_64,59.88023952,7,2,6,,,,,,,,5,07,,,,,,,,,,,,,5,1.526,1,,,,,,-0.494822494,-0.397845395,1,0,0,1.526,Obsidian_rect,5,0,5,0,1,
5c2ab2de9136140001b90737,SCR,2024-06-24_14h46.44.173,LearnStrategy,2023.2.3,Linux x86_64,59.88023952,7,2,7,,,,,,,,7,05,,,,,,,,,,,,,7,3.388,1,,,,,,0.162373408,-0.410619416,1,0,0,3.388,Peridotite_rect,6,0,6,0,1,
5c2ab2de9136140001b90737,SCR,2024-06-24_14h46.44.173,LearnStrategy,2023.2.3,Linux x86_64,59.88023952,7,2,8,,,,,,,,5,02,,,,,,,,,,,,,5,1.491,1,,,,,,-0.44973551,-0.393988016,1,0,0,1.4915,Obsidian_rect,7,0,7,0,1,
5c2ab2de9136140001b90737,SCR,2024-06-24_14h46.44.173,LearnStrategy,2023.2.3,Linux x86_64,59.88023952,7,2,9,,,,,,,,1,11,,,,,,,,,,,,,6,1.956,0,,,,,,-0.187722031,-0.418935152,1,0,0,1.9561,Pegmatite_rect,8,0,8,0,1,
5c2ab2de9136140001b90737,SCR,2024-06-24_14h46.44.173,LearnStrategy,2023.2.3,Linux x86_64,59.88023952,7,2,10,,,,,,,,6,07,,,,,,,,,,,,,6,1.496,1,,,,,,-0.187722031,-0.418935152,1,0,0,1.4959,Pegmatite_rect,9,0,9,0,1,
5c2ab2de9136140001b90737,SCR,2024-06-24_14h46.44.173,LearnStrategy,2023.2.3,Linux x86_64,59.88023952,7,2,11,,,,,,,,2,02,,,,,,,,,,,,,2,2.851,1,,,,,,-0.090705398,-0.268865731,1,0,0,2.8515,Basalt_rect,10,0,10,0,1,
5c2ab2de9136140001b90737,SCR,2024-06-24_14h46.44.173,LearnStrategy,2023.2.3,Linux x86_64,59.88023952,7,2,12,,,,,,,,2,06,,,,,,,,,,,,,2,2.73,1,,,,,,-0.090705398,-0.268865731,1,0,0,2.7299,Basalt_rect,11,0,11,0,1,
5c2ab2de9136140001b90737,SCR,2024-06-24_14h46.44.173,LearnStrategy,2023.2.3,Linux x86_64,59.88023952,7,2,13,,,,,,,,3,07,,,,,,,,,,,,,6,8.441,0,,,,,,-0.132283934,-0.412422493,1,0,0,8.4412,Pegmatite_rect,12,0,12,0,1,
5c2ab2de9136140001b90737,SCR,2024-06-24_14h46.44.173,LearnStrategy,2023.2.3,Linux x86_64,59.88023952,7,2,14,,,,,,,,1,02,,,,,,,,,,,,,6,4.669,0,,,,,,-0.161088521,-0.392534764,1,0,0,4.6693,Pegmatite_rect,13,0,13,0,1,
5c2ab2de9136140001b90737,SCR,2024-06-24_14h46.44.173,LearnStrategy,2023.2.3,Linux x86_64,59.88023952,7,2,15,,,,,,,,3,02,,,,,,,,,,,,,3,1.649,1,,,,,,0.158049786,-0.251167682,1,0,0,1.6486,Diorite_rect,14,0,14,0,1,
5c2ab2de9136140001b90737,SCR,2024-06-24_14h46.44.173,LearnStrategy,2023.2.3,Linux x86_64,59.88023952,7,2,16,,,,,,,,6,10,,,,,,,,,,,,,7,3.828,0,,,,,,0.105383601,-0.388579499,1,0,0,3.8285,Peridotite_rect,15,0,15,0,1,
5c2ab2de9136140001b90737,SCR,2024-06-24_14h46.44.173,LearnStrategy,2023.2.3,Linux x86_64,59.88023952,8,1,1,-0.260392362,0.442879081,1,0,0,1.341,Basalt_10,2,10,6,3,1.341,2,10,-0.127340945,-0.238429867,1,0,0,5.024,Basalt_rect,2,5.024,1,0,0,0,0,1,,,,,,,,,,,,,
5c2ab2de9136140001b90737,SCR,2024-06-24_14h46.44.173,LearnStrategy,2023.2.3,Linux x86_64,59.88023952,8,1,2,0.267723307,-0.226391129,1,0,0,1.5525,Pegmatite_12,6,12,2,6,1.553,6,12,-0.122282683,-0.390417996,1,0,0,1.8605,Pegmatite_rect,6,1.861,1,1,0,1,0,1,,,,,,,,,,,,,
5c2ab2de9136140001b90737,SCR,2024-06-24_14h46.44.173,LearnStrategy,2023.2.3,Linux x86_64,59.88023952,8,1,3,-0.591570927,-0.411758977,1,0,0,1.6448,Diorite_13,3,13,1,1,1.645,3,13,0.125405208,-0.229414194,1,0,0,4.3032,Diorite_rect,3,4.303,1,2,0,2,0,1,,,,,,,,,,,,,
5c2ab2de9136140001b90737,SCR,2024-06-24_14h46.44.173,LearnStrategy,2023.2.3,Linux x86_64,59.88023952,8,1,4,0.230639763,0.084297171,1,0,0,1.4525,Gabbro_16,4,16,4,6,1.453,4,16,0.43021671,-0.244125742,1,0,0,1.6176,Gabbro_rect,4,1.618,1,3,0,3,0,1,,,,,,,,,,,,,
5c2ab2de9136140001b90737,SCR,2024-06-24_14h46.44.173,LearnStrategy,2023.2.3,Linux x86_64,59.88023952,8,1,5,-0.582618239,0.26362016,1,0,0,1.7953,Peridotite_06,7,06,5,1,1.795,7,06,0.121331952,-0.396095195,1,0,0,1.8076,Peridotite_rect,7,1.808,1,4,0,4,0,1,,,,,,,,,,,,,
5c2ab2de9136140001b90737,SCR,2024-06-24_14h46.44.173,LearnStrategy,2023.2.3,Linux x86_64,59.88023952,8,1,6,-0.065722628,-0.084554835,1,0,0,0.9815,Andesite_14,1,14,3,4,0.982,1,14,-0.40426464,-0.248097535,1,0,0,4.4268,Andesite_rect,1,4.427,1,5,0,5,0,1,,,,,,,,,,,,,
5c2ab2de9136140001b90737,SCR,2024-06-24_14h46.44.173,LearnStrategy,2023.2.3,Linux x86_64,59.88023952,8,1,7,-0.082937332,0.101183588,1,0,0,1.1172,Gabbro_11,4,11,4,4,1.117,4,11,0.42963455,-0.265193604,1,0,0,5.0748,Gabbro_rect,4,5.075,1,6,0,6,0,1,,,,,,,,,,,,,
5c2ab2de9136140001b90737,SCR,2024-06-24_14h46.44.173,LearnStrategy,2023.2.3,Linux x86_64,59.88023952,8,1,8,-0.394109406,0.292096709,1,0,0,1.1632,Pumice_04,8,04,5,2,1.163,8,04,0.401314095,-0.420285224,1,0,0,1.7509,Pumice_rect,8,1.751,1,7,0,7,0,1,,,,,,,,,,,,,
5c2ab2de9136140001b90737,SCR,2024-06-24_14h46.44.173,LearnStrategy,2023.2.3,Linux x86_64,59.88023952,8,1,9,-0.559339552,0.425052173,1,0,0,1.3256,Andesite_06,1,06,6,1,1.326,1,06,0.155698609,-0.235749042,1,0,0,3.2218,Diorite_rect,3,3.222,0,8,0,8,0,1,,,,,,,,,,,,,
5c2ab2de9136140001b90737,SCR,2024-06-24_14h46.44.173,LearnStrategy,2023.2.3,Linux x86_64,59.88023952,8,1,10,0.376249611,-0.411445645,1,0,0,1.8132,Diorite_08,3,08,1,7,1.813,3,08,0.107974841,-0.254648976,1,0,0,2.1143,Diorite_rect,3,2.114,1,9,0,9,0,1,,,,,,,,,,,,,
5c2ab2de9136140001b90737,SCR,2024-06-24_14h46.44.173,LearnStrategy,2023.2.3,Linux x86_64,59.88023952,8,1,11,-0.041707977,0.246118203,1,0,0,1.2075,Gabbro_14,4,14,5,4,1.207,4,14,0.340581753,-0.257168447,1,0,0,5.1267,Gabbro_rect,4,5.127,1,10,0,10,0,1,,,,,,,,,,,,,
5c2ab2de9136140001b90737,SCR,2024-06-24_14h46.44.173,LearnStrategy,2023.2.3,Linux x86_64,59.88023952,8,1,12,-0.245862775,0.115372867,1,0,0,1.8296,Gabbro_10,4,10,4,3,1.83,4,10,0.361922735,-0.261607341,1,0,0,1.8328,Gabbro_rect,4,1.833,1,11,0,11,0,1,,,,,,,,,,,,,
5c2ab2de9136140001b90737,SCR,2024-06-24_14h46.44.173,LearnStrategy,2023.2.3,Linux x86_64,59.88023952,8,1,13,-0.053748288,0.391867384,1,0,0,1.4976,Pegmatite_11,6,11,6,4,1.498,6,11,-0.11473028,-0.380779879,1,0,0,2.5198,Pegmatite_rect,6,2.52,1,12,0,12,0,1,,,,,,,,,,,,,
5c2ab2de9136140001b90737,SCR,2024-06-24_14h46.44.173,LearnStrategy,2023.2.3,Linux x86_64,59.88023952,8,1,14,0.572975579,-0.119133899,1,0,0,1.7425,Andesite_05,1,05,3,8,1.743,1,05,-0.481806479,-0.246641564,1,0,0,1.9794,Andesite_rect,1,1.979,1,13,0,13,0,1,,,,,,,,,,,,,
5c2ab2de9136140001b90737,SCR,2024-06-24_14h46.44.173,LearnStrategy,2023.2.3,Linux x86_64,59.88023952,8,1,15,-0.215817951,0.270040479,1,0,0,1.9786,Andesite_16,1,16,5,3,1.979,1,16,-0.445887289,-0.240476584,1,0,0,1.512,Andesite_rect,1,1.512,1,14,0,14,0,1,,,,,,,,,,,,,
5c2ab2de9136140001b90737,SCR,2024-06-24_14h46.44.173,LearnStrategy,2023.2.3,Linux x86_64,59.88023952,8,1,16,0.258314019,0.093626821,1,0,0,1.3789,Gabbro_16,4,16,4,6,1.379,4,16,0.413540732,-0.243228318,1,0,0,3.3055,Gabbro_rect,4,3.305,1,15,0,15,0,1,,,,,,,,,,,,,
5c2ab2de9136140001b90737,SCR,2024-06-24_14h46.44.173,LearnStrategy,2023.2.3,Linux x86_64,59.88023952,8,2,1,,,,,,,,5,05,,,,,,,,,,,,,5,2.01,1,,,,,,-0.42466387,-0.392911207,1,0,0,2.0104,Obsidian_rect,0,0,0,0,1,
5c2ab2de9136140001b90737,SCR,2024-06-24_14h46.44.173,LearnStrategy,2023.2.3,Linux x86_64,59.88023952,8,2,2,,,,,,,,4,03,,,,,,,,,,,,,1,9.674,0,,,,,,-0.370912183,-0.268659657,1,0,0,9.6736,Andesite_rect,1,0,1,0,1,
5c2ab2de9136140001b90737,SCR,2024-06-24_14h46.44.173,LearnStrategy,2023.2.3,Linux x86_64,59.88023952,8,2,3,,,,,,,,1,01,,,,,,,,,,,,,6,7.948,0,,,,,,-0.115411327,-0.39989018,1,0,0,7.948,Pegmatite_rect,2,0,2,0,1,
5c2ab2de9136140001b90737,SCR,2024-06-24_14h46.44.173,LearnStrategy,2023.2.3,Linux x86_64,59.88023952,8,2,4,,,,,,,,1,09,,,,,,,,,,,,,4,6.345,0,,,,,,0.418250385,-0.258038466,1,0,0,6.3446,Gabbro_rect,3,0,3,0,1,
5c2ab2de9136140001b90737,SCR,2024-06-24_14h46.44.173,LearnStrategy,2023.2.3,Linux x86_64,59.88023952,8,2,5,,,,,,,,4,01,,,,,,,,,,,,,6,9.112,0,,,,,,-0.127817492,-0.396527379,1,0,0,9.112,Pegmatite_rect,4,0,4,0,1,
5c2ab2de9136140001b90737,SCR,2024-06-24_14h46.44.173,LearnStrategy,2023.2.3,Linux x86_64,59.88023952,8,2,6,,,,,,,,7,08,,,,,,,,,,,,,7,3.287,1,,,,,,0.110333603,-0.399299291,1,0,0,3.2872,Peridotite_rect,5,0,5,0,1,
5c2ab2de9136140001b90737,SCR,2024-06-24_14h46.44.173,LearnStrategy,2023.2.3,Linux x86_64,59.88023952,8,2,7,,,,,,,,2,08,,,,,,,,,,,,,2,3.689,1,,,,,,-0.177461041,-0.236958798,1,0,0,3.6894,Basalt_rect,6,0,6,0,1,
5c2ab2de9136140001b90737,SCR,2024-06-24_14h46.44.173,LearnStrategy,2023.2.3,Linux x86_64,59.88023952,8,2,8,,,,,,,,8,10,,,,,,,,,,,,,8,2.188,1,,,,,,0.40681284,-0.391818012,1,0,0,2.1883,Pumice_rect,7,0,7,0,1,
5c2ab2de9136140001b90737,SCR,2024-06-24_14h46.44.173,LearnStrategy,2023.2.3,Linux x86_64,59.88023952,8,2,9,,,,,,,,7,12,,,,,,,,,,,,,7,1.623,1,,,,,,0.096959247,-0.391818012,1,0,0,1.6227,Peridotite_rect,8,0,8,0,1,
5c2ab2de9136140001b90737,SCR,2024-06-24_14h46.44.173,LearnStrategy,2023.2.3,Linux x86_64,59.88023952,8,2,10,,,,,,,,6,15,,,,,,,,,,,,,6,1.739,1,,,,,,-0.183372292,-0.383502348,1,0,0,1.7387,Pegmatite_rect,9,0,9,0,1,
5c2ab2de9136140001b90737,SCR,2024-06-24_14h46.44.173,LearnStrategy,2023.2.3,Linux x86_64,59.88023952,8,2,11,,,,,,,,6,08,,,,,,,,,,,,,6,0.796,1,,,,,,-0.183372292,-0.383502348,1,0,0,0.7964,Pegmatite_rect,10,0,10,0,1,
5c2ab2de9136140001b90737,SCR,2024-06-24_14h46.44.173,LearnStrategy,2023.2.3,Linux x86_64,59.88023952,8,2,12,,,,,,,,8,08,,,,,,,,,,,,,8,3.611,1,,,,,,0.421506499,-0.391818012,1,0,0,3.6106,Pumice_rect,11,0,11,0,1,
5c2ab2de9136140001b90737,SCR,2024-06-24_14h46.44.173,LearnStrategy,2023.2.3,Linux x86_64,59.88023952,8,2,13,,,,,,,,5,04,,,,,,,,,,,,,5,1.538,1,,,,,,-0.476478138,-0.394589924,1,0,0,1.5381,Obsidian_rect,12,0,12,0,1,
5c2ab2de9136140001b90737,SCR,2024-06-24_14h46.44.173,LearnStrategy,2023.2.3,Linux x86_64,59.88023952,8,2,14,,,,,,,,3,09,,,,,,,,,,,,,1,3.905,0,,,,,,-0.362829855,-0.230194986,1,0,0,3.9047,Andesite_rect,13,0,13,0,1,
5c2ab2de9136140001b90737,SCR,2024-06-24_14h46.44.173,LearnStrategy,2023.2.3,Linux x86_64,59.88023952,8,2,15,,,,,,,,2,14,,,,,,,,,,,,,4,3.753,0,,,,,,0.451395981,-0.269001682,1,0,0,3.7528,Gabbro_rect,14,0,14,0,1,
5c2ab2de9136140001b90737,SCR,2024-06-24_14h46.44.173,LearnStrategy,2023.2.3,Linux x86_64,59.88023952,8,2,16,,,,,,,,3,15,,,,,,,,,,,,,1,3.092,0,,,,,,-0.411038255,-0.230679475,1,0,0,3.0924,Andesite_rect,15,0,15,0,1,
5c2ab2de9136140001b90737,SCR,2024-06-24_14h46.44.173,LearnStrategy,2023.2.3,Linux x86_64,59.88023952,9,1,1,-0.538914098,0.104256168,1,0,0,2.0289,Peridotite_02,7,02,4,1,2.029,7,02,0.085018395,-0.389144486,1,0,0,1.7544,Peridotite_rect,7,1.754,1,0,0,0,0,1,,,,,,,,,,,,,
5c2ab2de9136140001b90737,SCR,2024-06-24_14h46.44.173,LearnStrategy,2023.2.3,Linux x86_64,59.88023952,9,1,2,0.388727114,-0.430355094,1,0,0,1.7212,Diorite_08,3,08,1,7,1.721,3,08,0.135881717,-0.244152932,1,0,0,1.5748,Diorite_rect,3,1.575,1,1,0,1,0,1,,,,,,,,,,,,,
5c2ab2de9136140001b90737,SCR,2024-06-24_14h46.44.173,LearnStrategy,2023.2.3,Linux x86_64,59.88023952,9,1,3,-0.079609593,0.087294191,1,0,0,1.0608,Gabbro_11,4,11,4,4,1.061,4,11,0.467543751,-0.242563514,1,0,0,5.0311,Gabbro_rect,4,5.031,1,2,0,2,0,1,,,,,,,,,,,,,
5c2ab2de9136140001b90737,SCR,2024-06-24_14h46.44.173,LearnStrategy,2023.2.3,Linux x86_64,59.88023952,9,1,4,-0.230028267,0.275920568,1,0,0,1.6264,Andesite_16,1,16,5,3,1.626,1,16,-0.427550626,-0.231223568,1,0,0,3.5611,Andesite_rect,1,3.561,1,3,0,3,0,1,,,,,,,,,,,,,
5c2ab2de9136140001b90737,SCR,2024-06-24_14h46.44.173,LearnStrategy,2023.2.3,Linux x86_64,59.88023952,9,1,5,0.098996448,0.419226813,1,0,0,1.8327,Basalt_12,2,12,6,5,1.833,2,12,0.373298457,-0.390540424,1,0,0,1.5612,Pumice_rect,8,1.561,0,4,0,4,0,1,,,,,,,,,,,,,
5c2ab2de9136140001b90737,SCR,2024-06-24_14h46.44.173,LearnStrategy,2023.2.3,Linux x86_64,59.88023952,9,1,6,-0.049970763,-0.397169715,1,0,0,1.4435,Pumice_09,8,09,1,4,1.444,8,09,0.44643403,-0.411029131,1,0,0,1.7468,Pumice_rect,8,1.747,1,5,0,5,0,1,,,,,,,,,,,,,
5c2ab2de9136140001b90737,SCR,2024-06-24_14h46.44.173,LearnStrategy,2023.2.3,Linux x86_64,59.88023952,9,1,7,-0.533990464,-0.052482685,1,0,0,1.244,Gabbro_08,4,08,3,1,1.244,4,08,0.421118679,-0.254832081,1,0,0,2.7758,Gabbro_rect,4,2.776,1,6,0,6,0,1,,,,,,,,,,,,,
5c2ab2de9136140001b90737,SCR,2024-06-24_14h46.44.173,LearnStrategy,2023.2.3,Linux x86_64,59.88023952,9,1,8,-0.604257242,-0.253745469,1,0,0,1.3458,Diorite_10,3,10,2,1,1.346,3,10,-0.441547711,-0.256517381,1,0,0,1.4208,Andesite_rect,1,1.421,0,7,0,7,0,1,,,,,,,,,,,,,
5c2ab2de9136140001b90737,SCR,2024-06-24_14h46.44.173,LearnStrategy,2023.2.3,Linux x86_64,59.88023952,9,1,9,0.547910523,0.422386366,1,0,0,1.4628,Pegmatite_16,6,16,6,8,1.463,6,16,-0.173640082,-0.394378125,1,0,0,2.1201,Pegmatite_rect,6,2.12,1,8,0,8,0,1,,,,,,,,,,,,,
5c2ab2de9136140001b90737,SCR,2024-06-24_14h46.44.173,LearnStrategy,2023.2.3,Linux x86_64,59.88023952,9,1,10,-0.079510992,-0.097182172,1,0,0,0.9992,Andesite_14,1,14,3,4,0.999,1,14,0.468727246,-0.269040536,1,0,0,3.7468,Gabbro_rect,4,3.747,0,9,0,9,0,1,,,,,,,,,,,,,
5c2ab2de9136140001b90737,SCR,2024-06-24_14h46.44.173,LearnStrategy,2023.2.3,Linux x86_64,59.88023952,9,1,11,0.102717016,-0.097413862,1,0,0,1.051,Andesite_07,1,07,3,5,1.051,1,07,0.10717523,-0.233489239,1,0,0,2.0357,Diorite_rect,3,2.036,0,10,0,10,0,1,,,,,,,,,,,,,
5c2ab2de9136140001b90737,SCR,2024-06-24_14h46.44.173,LearnStrategy,2023.2.3,Linux x86_64,59.88023952,9,1,12,-0.441178853,0.136261809,1,0,0,1.3646,Andesite_10,1,10,4,2,1.365,1,10,-0.10697903,-0.240117957,1,0,0,2.6565,Basalt_rect,2,2.657,0,11,0,11,0,1,,,,,,,,,,,,,
5c2ab2de9136140001b90737,SCR,2024-06-24_14h46.44.173,LearnStrategy,2023.2.3,Linux x86_64,59.88023952,9,1,13,0.562022022,0.236904524,1,0,0,1.6651,Diorite_16,3,16,5,8,1.665,3,16,-0.421290909,-0.22986262,1,0,0,1.57,Andesite_rect,1,1.57,0,12,0,12,0,1,,,,,,,,,,,,,
5c2ab2de9136140001b90737,SCR,2024-06-24_14h46.44.173,LearnStrategy,2023.2.3,Linux x86_64,59.88023952,9,1,14,-0.271239662,0.113622918,1,0,0,1.0259,Gabbro_10,4,10,4,3,1.026,4,10,0.414527741,-0.246725997,1,0,0,2.0119,Gabbro_rect,4,2.012,1,13,0,13,0,1,,,,,,,,,,,,,
5c2ab2de9136140001b90737,SCR,2024-06-24_14h46.44.173,LearnStrategy,2023.2.3,Linux x86_64,59.88023952,9,1,15,-0.067067834,0.14401746,1,0,0,1.2122,Gabbro_11,4,11,4,4,1.212,4,11,0.452616541,-0.250563412,1,0,0,2.7807,Gabbro_rect,4,2.781,1,14,0,14,0,1,,,,,,,,,,,,,
5c2ab2de9136140001b90737,SCR,2024-06-24_14h46.44.173,LearnStrategy,2023.2.3,Linux x86_64,59.88023952,9,1,16,0.247377206,-0.245988065,1,0,0,1.7268,Pegmatite_12,6,12,2,6,1.727,6,12,-0.12334232,-0.413988728,1,0,0,1.2896,Pegmatite_rect,6,1.29,1,15,0,15,0,1,,,,,,,,,,,,,
5c2ab2de9136140001b90737,SCR,2024-06-24_14h46.44.173,LearnStrategy,2023.2.3,Linux x86_64,59.88023952,9,2,1,,,,,,,,1,03,,,,,,,,,,,,,1,14.252,1,,,,,,-0.493325487,-0.255990318,1,0,0,14.2518,Andesite_rect,0,0,0,0,1,
5c2ab2de9136140001b90737,SCR,2024-06-24_14h46.44.173,LearnStrategy,2023.2.3,Linux x86_64,59.88023952,9,2,2,,,,,,,,3,12,,,,,,,,,,,,,1,4.565,0,,,,,,-0.45114583,-0.238273308,1,0,0,4.5649,Andesite_rect,1,0,1,0,1,
5c2ab2de9136140001b90737,SCR,2024-06-24_14h46.44.173,LearnStrategy,2023.2.3,Linux x86_64,59.88023952,9,2,3,,,,,,,,8,16,,,,,,,,,,,,,8,8.327,1,,,,,,0.432028731,-0.387956268,1,0,0,8.3267,Pumice_rect,2,0,2,0,1,
5c2ab2de9136140001b90737,SCR,2024-06-24_14h46.44.173,LearnStrategy,2023.2.3,Linux x86_64,59.88023952,9,2,4,,,,,,,,5,10,,,,,,,,,,,,,5,1.466,1,,,,,,-0.412688386,-0.39072818,1,0,0,1.4662,Obsidian_rect,3,0,3,0,1,
5c2ab2de9136140001b90737,SCR,2024-06-24_14h46.44.173,LearnStrategy,2023.2.3,Linux x86_64,59.88023952,9,2,5,,,,,,,,6,06,,,,,,,,,,,,,6,2.644,1,,,,,,-0.065714184,-0.39072818,1,0,0,2.6442,Pegmatite_rect,4,0,4,0,1,
5c2ab2de9136140001b90737,SCR,2024-06-24_14h46.44.173,LearnStrategy,2023.2.3,Linux x86_64,59.88023952,9,2,6,,,,,,,,2,01,,,,,,,,,,,,,2,2.923,1,,,,,,-0.126696176,-0.257774648,1,0,0,2.9235,Basalt_rect,5,0,5,0,1,
5c2ab2de9136140001b90737,SCR,2024-06-24_14h46.44.173,LearnStrategy,2023.2.3,Linux x86_64,59.88023952,9,2,7,,,,,,,,4,13,,,,,,,,,,,,,1,2.887,0,,,,,,-0.450777508,-0.249458984,1,0,0,2.8871,Andesite_rect,6,0,6,0,1,
5c2ab2de9136140001b90737,SCR,2024-06-24_14h46.44.173,LearnStrategy,2023.2.3,Linux x86_64,59.88023952,9,2,8,,,,,,,,3,06,,,,,,,,,,,,,1,8.617,0,,,,,,-0.406892443,-0.263318472,1,0,0,8.6165,Andesite_rect,7,0,7,0,1,
5c2ab2de9136140001b90737,SCR,2024-06-24_14h46.44.173,LearnStrategy,2023.2.3,Linux x86_64,59.88023952,9,2,9,,,,,,,,7,14,,,,,,,,,,,,,7,1.441,1,,,,,,0.102306084,-0.393597977,1,0,0,1.4405,Peridotite_rect,8,0,8,0,1,
5c2ab2de9136140001b90737,SCR,2024-06-24_14h46.44.173,LearnStrategy,2023.2.3,Linux x86_64,59.88023952,9,2,10,,,,,,,,4,09,,,,,,,,,,,,,4,5.199,1,,,,,,0.377479473,-0.241143248,1,0,0,5.1992,Gabbro_rect,9,0,9,0,1,
5c2ab2de9136140001b90737,SCR,2024-06-24_14h46.44.173,LearnStrategy,2023.2.3,Linux x86_64,59.88023952,9,2,11,,,,,,,,1,04,,,,,,,,,,,,,1,1.977,1,,,,,,-0.354190017,-0.252230967,1,0,0,1.9774,Andesite_rect,10,0,10,0,1,
5c2ab2de9136140001b90737,SCR,2024-06-24_14h46.44.173,LearnStrategy,2023.2.3,Linux x86_64,59.88023952,9,2,12,,,,,,,,5,06,,,,,,,,,,,,,5,1.339,1,,,,,,-0.332014721,-0.407224631,1,0,0,1.3392,Obsidian_rect,11,0,11,0,1,
5c2ab2de9136140001b90737,SCR,2024-06-24_14h46.44.173,LearnStrategy,2023.2.3,Linux x86_64,59.88023952,9,2,13,,,,,,,,6,03,,,,,,,,,,,,,6,2.763,1,,,,,,-0.205475104,-0.411082009,1,0,0,2.7633,Pegmatite_rect,12,0,12,0,1,
5c2ab2de9136140001b90737,SCR,2024-06-24_14h46.44.173,LearnStrategy,2023.2.3,Linux x86_64,59.88023952,9,2,14,,,,,,,,8,03,,,,,,,,,,,,,8,1.952,1,,,,,,0.375425028,-0.388673807,1,0,0,1.9524,Pumice_rect,13,0,13,0,1,
5c2ab2de9136140001b90737,SCR,2024-06-24_14h46.44.173,LearnStrategy,2023.2.3,Linux x86_64,59.88023952,9,2,15,,,,,,,,7,15,,,,,,,,,,,,,7,2.659,1,,,,,,0.158111966,-0.402533367,1,0,0,2.659,Peridotite_rect,14,0,14,0,1,
5c2ab2de9136140001b90737,SCR,2024-06-24_14h46.44.173,LearnStrategy,2023.2.3,Linux x86_64,59.88023952,9,2,16,,,,,,,,2,11,,,,,,,,,,,,,2,3.741,1,,,,,,-0.108727584,-0.238990989,1,0,0,3.7414,Basalt_rect,15,0,15,0,1,
5c2ab2de9136140001b90737,SCR,2024-06-24_14h46.44.173,LearnStrategy,2023.2.3,Linux x86_64,59.88023952,,,,,,,,,,,,,,,,,,,,,,,,,,,,,,,,,,,,,,,,,,,,,1
5c2ab2de9136140001b90737,SCR,2024-06-24_14h46.44.173,LearnStrategy,2023.2.3,Linux x86_64,59.88023952,,,,,,,,,,,,,,,,,,,,,,,,,,,,,,,,,,,,,,,,,,,,,
5c2ab2de9136140001b90737,SCR,2024-06-24_14h46.44.173,LearnStrategy,2023.2.3,Linux x86_64,59.88023952,,,,,,,,,,,3,13,1,1,,,,,,,,,,,,,,,,,,,,,,,,,,,,,,,
5c2ab2de9136140001b90737,SCR,2024-06-24_14h46.44.173,LearnStrategy,2023.2.3,Linux x86_64,59.88023952,,,,,,,,,,,3,14,1,2,,,,,,,,,,,,,,,,,,,,,,,,,,,,,,,
5c2ab2de9136140001b90737,SCR,2024-06-24_14h46.44.173,LearnStrategy,2023.2.3,Linux x86_64,59.88023952,,,,,,,,,,,6,09,1,3,,,,,,,,,,,,,,,,,,,,,,,,,,,,,,,
5c2ab2de9136140001b90737,SCR,2024-06-24_14h46.44.173,LearnStrategy,2023.2.3,Linux x86_64,59.88023952,,,,,,,,,,,8,09,1,4,,,,,,,,,,,,,,,,,,,,,,,,,,,,,,,
5c2ab2de9136140001b90737,SCR,2024-06-24_14h46.44.173,LearnStrategy,2023.2.3,Linux x86_64,59.88023952,,,,,,,,,,,7,04,1,5,,,,,,,,,,,,,,,,,,,,,,,,,,,,,,,
5c2ab2de9136140001b90737,SCR,2024-06-24_14h46.44.173,LearnStrategy,2023.2.3,Linux x86_64,59.88023952,,,,,,,,,,,7,10,1,6,,,,,,,,,,,,,,,,,,,,,,,,,,,,,,,
5c2ab2de9136140001b90737,SCR,2024-06-24_14h46.44.173,LearnStrategy,2023.2.3,Linux x86_64,59.88023952,,,,,,,,,,,3,08,1,7,,,,,,,,,,,,,,,,,,,,,,,,,,,,,,,
5c2ab2de9136140001b90737,SCR,2024-06-24_14h46.44.173,LearnStrategy,2023.2.3,Linux x86_64,59.88023952,,,,,,,,,,,2,04,1,8,,,,,,,,,,,,,,,,,,,,,,,,,,,,,,,
5c2ab2de9136140001b90737,SCR,2024-06-24_14h46.44.173,LearnStrategy,2023.2.3,Linux x86_64,59.88023952,,,,,,,,,,,3,10,2,1,,,,,,,,,,,,,,,,,,,,,,,,,,,,,,,
5c2ab2de9136140001b90737,SCR,2024-06-24_14h46.44.173,LearnStrategy,2023.2.3,Linux x86_64,59.88023952,,,,,,,,,,,2,05,2,2,,,,,,,,,,,,,,,,,,,,,,,,,,,,,,,
5c2ab2de9136140001b90737,SCR,2024-06-24_14h46.44.173,LearnStrategy,2023.2.3,Linux x86_64,59.88023952,,,,,,,,,,,2,09,2,3,,,,,,,,,,,,,,,,,,,,,,,,,,,,,,,
5c2ab2de9136140001b90737,SCR,2024-06-24_14h46.44.173,LearnStrategy,2023.2.3,Linux x86_64,59.88023952,,,,,,,,,,,8,14,2,4,,,,,,,,,,,,,,,,,,,,,,,,,,,,,,,
5c2ab2de9136140001b90737,SCR,2024-06-24_14h46.44.173,LearnStrategy,2023.2.3,Linux x86_64,59.88023952,,,,,,,,,,,5,16,2,5,,,,,,,,,,,,,,,,,,,,,,,,,,,,,,,
5c2ab2de9136140001b90737,SCR,2024-06-24_14h46.44.173,LearnStrategy,2023.2.3,Linux x86_64,59.88023952,,,,,,,,,,,6,12,2,6,,,,,,,,,,,,,,,,,,,,,,,,,,,,,,,
5c2ab2de9136140001b90737,SCR,2024-06-24_14h46.44.173,LearnStrategy,2023.2.3,Linux x86_64,59.88023952,,,,,,,,,,,6,05,2,7,,,,,,,,,,,,,,,,,,,,,,,,,,,,,,,
5c2ab2de9136140001b90737,SCR,2024-06-24_14h46.44.173,LearnStrategy,2023.2.3,Linux x86_64,59.88023952,,,,,,,,,,,5,14,2,8,,,,,,,,,,,,,,,,,,,,,,,,,,,,,,,
5c2ab2de9136140001b90737,SCR,2024-06-24_14h46.44.173,LearnStrategy,2023.2.3,Linux x86_64,59.88023952,,,,,,,,,,,4,08,3,1,,,,,,,,,,,,,,,,,,,,,,,,,,,,,,,
5c2ab2de9136140001b90737,SCR,2024-06-24_14h46.44.173,LearnStrategy,2023.2.3,Linux x86_64,59.88023952,,,,,,,,,,,3,11,3,2,,,,,,,,,,,,,,,,,,,,,,,,,,,,,,,
5c2ab2de9136140001b90737,SCR,2024-06-24_14h46.44.173,LearnStrategy,2023.2.3,Linux x86_64,59.88023952,,,,,,,,,,,6,13,3,3,,,,,,,,,,,,,,,,,,,,,,,,,,,,,,,
5c2ab2de9136140001b90737,SCR,2024-06-24_14h46.44.173,LearnStrategy,2023.2.3,Linux x86_64,59.88023952,,,,,,,,,,,1,14,3,4,,,,,,,,,,,,,,,,,,,,,,,,,,,,,,,
5c2ab2de9136140001b90737,SCR,2024-06-24_14h46.44.173,LearnStrategy,2023.2.3,Linux x86_64,59.88023952,,,,,,,,,,,1,07,3,5,,,,,,,,,,,,,,,,,,,,,,,,,,,,,,,
5c2ab2de9136140001b90737,SCR,2024-06-24_14h46.44.173,LearnStrategy,2023.2.3,Linux x86_64,59.88023952,,,,,,,,,,,5,09,3,6,,,,,,,,,,,,,,,,,,,,,,,,,,,,,,,
5c2ab2de9136140001b90737,SCR,2024-06-24_14h46.44.173,LearnStrategy,2023.2.3,Linux x86_64,59.88023952,,,,,,,,,,,7,13,3,7,,,,,,,,,,,,,,,,,,,,,,,,,,,,,,,
5c2ab2de9136140001b90737,SCR,2024-06-24_14h46.44.173,LearnStrategy,2023.2.3,Linux x86_64,59.88023952,,,,,,,,,,,1,05,3,8,,,,,,,,,,,,,,,,,,,,,,,,,,,,,,,
5c2ab2de9136140001b90737,SCR,2024-06-24_14h46.44.173,LearnStrategy,2023.2.3,Linux x86_64,59.88023952,,,,,,,,,,,7,02,4,1,,,,,,,,,,,,,,,,,,,,,,,,,,,,,,,
5c2ab2de9136140001b90737,SCR,2024-06-24_14h46.44.173,LearnStrategy,2023.2.3,Linux x86_64,59.88023952,,,,,,,,,,,1,10,4,2,,,,,,,,,,,,,,,,,,,,,,,,,,,,,,,
5c2ab2de9136140001b90737,SCR,2024-06-24_14h46.44.173,LearnStrategy,2023.2.3,Linux x86_64,59.88023952,,,,,,,,,,,4,10,4,3,,,,,,,,,,,,,,,,,,,,,,,,,,,,,,,
5c2ab2de9136140001b90737,SCR,2024-06-24_14h46.44.173,LearnStrategy,2023.2.3,Linux x86_64,59.88023952,,,,,,,,,,,4,11,4,4,,,,,,,,,,,,,,,,,,,,,,,,,,,,,,,
5c2ab2de9136140001b90737,SCR,2024-06-24_14h46.44.173,LearnStrategy,2023.2.3,Linux x86_64,59.88023952,,,,,,,,,,,4,12,4,5,,,,,,,,,,,,,,,,,,,,,,,,,,,,,,,
5c2ab2de9136140001b90737,SCR,2024-06-24_14h46.44.173,LearnStrategy,2023.2.3,Linux x86_64,59.88023952,,,,,,,,,,,4,16,4,6,,,,,,,,,,,,,,,,,,,,,,,,,,,,,,,
5c2ab2de9136140001b90737,SCR,2024-06-24_14h46.44.173,LearnStrategy,2023.2.3,Linux x86_64,59.88023952,,,,,,,,,,,5,12,4,7,,,,,,,,,,,,,,,,,,,,,,,,,,,,,,,
5c2ab2de9136140001b90737,SCR,2024-06-24_14h46.44.173,LearnStrategy,2023.2.3,Linux x86_64,59.88023952,,,,,,,,,,,5,11,4,8,,,,,,,,,,,,,,,,,,,,,,,,,,,,,,,
5c2ab2de9136140001b90737,SCR,2024-06-24_14h46.44.173,LearnStrategy,2023.2.3,Linux x86_64,59.88023952,,,,,,,,,,,7,06,5,1,,,,,,,,,,,,,,,,,,,,,,,,,,,,,,,
5c2ab2de9136140001b90737,SCR,2024-06-24_14h46.44.173,LearnStrategy,2023.2.3,Linux x86_64,59.88023952,,,,,,,,,,,8,04,5,2,,,,,,,,,,,,,,,,,,,,,,,,,,,,,,,
5c2ab2de9136140001b90737,SCR,2024-06-24_14h46.44.173,LearnStrategy,2023.2.3,Linux x86_64,59.88023952,,,,,,,,,,,1,16,5,3,,,,,,,,,,,,,,,,,,,,,,,,,,,,,,,
5c2ab2de9136140001b90737,SCR,2024-06-24_14h46.44.173,LearnStrategy,2023.2.3,Linux x86_64,59.88023952,,,,,,,,,,,4,14,5,4,,,,,,,,,,,,,,,,,,,,,,,,,,,,,,,
5c2ab2de9136140001b90737,SCR,2024-06-24_14h46.44.173,LearnStrategy,2023.2.3,Linux x86_64,59.88023952,,,,,,,,,,,2,16,5,5,,,,,,,,,,,,,,,,,,,,,,,,,,,,,,,
5c2ab2de9136140001b90737,SCR,2024-06-24_14h46.44.173,LearnStrategy,2023.2.3,Linux x86_64,59.88023952,,,,,,,,,,,8,02,5,6,,,,,,,,,,,,,,,,,,,,,,,,,,,,,,,
5c2ab2de9136140001b90737,SCR,2024-06-24_14h46.44.173,LearnStrategy,2023.2.3,Linux x86_64,59.88023952,,,,,,,,,,,7,07,5,7,,,,,,,,,,,,,,,,,,,,,,,,,,,,,,,
5c2ab2de9136140001b90737,SCR,2024-06-24_14h46.44.173,LearnStrategy,2023.2.3,Linux x86_64,59.88023952,,,,,,,,,,,3,16,5,8,,,,,,,,,,,,,,,,,,,,,,,,,,,,,,,
5c2ab2de9136140001b90737,SCR,2024-06-24_14h46.44.173,LearnStrategy,2023.2.3,Linux x86_64,59.88023952,,,,,,,,,,,1,06,6,1,,,,,,,,,,,,,,,,,,,,,,,,,,,,,,,
5c2ab2de9136140001b90737,SCR,2024-06-24_14h46.44.173,LearnStrategy,2023.2.3,Linux x86_64,59.88023952,,,,,,,,,,,5,08,6,2,,,,,,,,,,,,,,,,,,,,,,,,,,,,,,,
5c2ab2de9136140001b90737,SCR,2024-06-24_14h46.44.173,LearnStrategy,2023.2.3,Linux x86_64,59.88023952,,,,,,,,,,,2,10,6,3,,,,,,,,,,,,,,,,,,,,,,,,,,,,,,,
5c2ab2de9136140001b90737,SCR,2024-06-24_14h46.44.173,LearnStrategy,2023.2.3,Linux x86_64,59.88023952,,,,,,,,,,,6,11,6,4,,,,,,,,,,,,,,,,,,,,,,,,,,,,,,,
5c2ab2de9136140001b90737,SCR,2024-06-24_14h46.44.173,LearnStrategy,2023.2.3,Linux x86_64,59.88023952,,,,,,,,,,,2,12,6,5,,,,,,,,,,,,,,,,,,,,,,,,,,,,,,,
5c2ab2de9136140001b90737,SCR,2024-06-24_14h46.44.173,LearnStrategy,2023.2.3,Linux x86_64,59.88023952,,,,,,,,,,,8,13,6,6,,,,,,,,,,,,,,,,,,,,,,,,,,,,,,,
5c2ab2de9136140001b90737,SCR,2024-06-24_14h46.44.173,LearnStrategy,2023.2.3,Linux x86_64,59.88023952,,,,,,,,,,,8,06,6,7,,,,,,,,,,,,,,,,,,,,,,,,,,,,,,,
5c2ab2de9136140001b90737,SCR,2024-06-24_14h46.44.173,LearnStrategy,2023.2.3,Linux x86_64,59.88023952,,,,,,,,,,,6,16,6,8,,,,,,,,,,,,,,,,,,,,,,,,,,,,,,,