participant,condition,date,expName,psychopyVersion,OS,frameRate,block,phase,trial,learn_mouse.x,learn_mouse.y,learn_mouse.leftButton,learn_mouse.midButton,learn_mouse.rightButton,learn_mouse.time,learn_mouse.clicked_name,cat,token,row,col,t_select,cat_mouse_l.x,cat_mouse_l.y,cat_mouse_l.leftButton,cat_mouse_l.midButton,cat_mouse_l.rightButton,cat_mouse_l.time,cat_mouse_l.clicked_name,resp,t_resp,corr,train_trials.thisRepN,train_trials.thisTrialN,train_trials.thisN,train_trials.thisIndex,train_trials.ran,cat_mouse_t.x,cat_mouse_t.y,cat_mouse_t.leftButton,cat_mouse_t.midButton,cat_mouse_t.rightButton,cat_mouse_t.time,cat_mouse_t.clicked_name,test_trials.thisRepN,test_trials.thisTrialN,test_trials.thisN,test_trials.thisIndex,test_trials.ran,Bonus
5c2c189b867f660001af5dc5,SCN,2024-06-20_15h43.12.619,LearnStrategy,2023.2.3,Win32,60.24096386,,,,,,,,,,,,,,,,,,,,,,,,,,,,,,,,,,,,,,,,,,,
5c2c189b867f660001af5dc5,SCN,2024-06-20_15h43.12.619,LearnStrategy,2023.2.3,Win32,60.24096386,1,1,1,0.567592621,0.231481481,1,0,0,4.1772,Obsidian_06,5,06,5,8,4.177,0.032407407,-0.37962963,1,0,0,9.4592,Peridotite_rect,7,9.459,0,0,0,0,0,1,,,,,,,,,,,,,
5c2c189b867f660001af5dc5,SCN,2024-06-20_15h43.12.619,LearnStrategy,2023.2.3,Win32,60.24096386,1,1,2,0.562962991,0.224999993,1,0,0,6.463,Obsidian_06,5,06,5,8,6.463,-0.317592586,-0.407407407,1,0,0,1.7724,Obsidian_rect,5,1.772,1,1,0,1,0,1,,,,,,,,,,,,,
5c2c189b867f660001af5dc5,SCN,2024-06-20_15h43.12.619,LearnStrategy,2023.2.3,Win32,60.24096386,1,1,3,-0.359259252,-0.414814843,1,0,0,5.5147,Diorite_02,3,02,1,2,5.515,0.114814829,-0.267592607,1,0,0,9.2008,Diorite_rect,3,9.201,1,2,0,2,0,1,,,,,,,,,,,,,
5c2c189b867f660001af5dc5,SCN,2024-06-20_15h43.12.619,LearnStrategy,2023.2.3,Win32,60.24096386,1,1,4,0.256481524,-0.268518519,1,0,0,6.281,Obsidian_04,5,04,2,6,6.281,0.327777863,-0.400000042,1,0,0,6.5838,Pumice_rect,8,6.584,0,3,0,3,0,1,,,,,,,,,,,,,
5c2c189b867f660001af5dc5,SCN,2024-06-20_15h43.12.619,LearnStrategy,2023.2.3,Win32,60.24096386,1,1,5,-0.045370384,0.382407409,1,0,0,7.748,Peridotite_04,7,04,6,4,7.748,-0.083333333,-0.240740741,1,0,0,4.8363,Basalt_rect,2,4.836,0,4,0,4,0,1,,,,,,,,,,,,,
5c2c189b867f660001af5dc5,SCN,2024-06-20_15h43.12.619,LearnStrategy,2023.2.3,Win32,60.24096386,1,1,6,0.562962991,-0.116666653,1,0,0,7.2311,Obsidian_05,5,05,3,8,7.231,-0.338888875,-0.405555584,1,0,0,1.6709,Obsidian_rect,5,1.671,1,5,0,5,0,1,,,,,,,,,,,,,
5c2c189b867f660001af5dc5,SCN,2024-06-20_15h43.12.619,LearnStrategy,2023.2.3,Win32,60.24096386,1,1,7,0.075925968,-0.441666709,1,0,0,6.4808,Pegmatite_11,6,11,1,5,6.481,0.309259344,-0.392592607,1,0,0,2.9274,Pumice_rect,8,2.927,0,6,0,6,0,1,,,,,,,,,,,,,
5c2c189b867f660001af5dc5,SCN,2024-06-20_15h43.12.619,LearnStrategy,2023.2.3,Win32,60.24096386,1,1,8,0.512037065,0.408333328,1,0,0,9.3664,Pumice_02,8,02,6,8,9.366,-0.081481439,-0.228703746,1,0,0,1.9773,Basalt_rect,2,1.977,0,7,0,7,0,1,,,,,,,,,,,,,
5c2c189b867f660001af5dc5,SCN,2024-06-20_15h43.12.619,LearnStrategy,2023.2.3,Win32,60.24096386,1,1,9,0.531481566,-0.262962977,1,0,0,6.396,Pumice_16,8,16,2,8,6.396,-0.348148134,-0.228703746,1,0,0,2.7017,Andesite_rect,1,2.702,0,8,0,8,0,1,,,,,,,,,,,,,
5c2c189b867f660001af5dc5,SCN,2024-06-20_15h43.12.619,LearnStrategy,2023.2.3,Win32,60.24096386,1,1,10,0.068518533,-0.09629631,1,0,0,1.4481,Pegmatite_08,6,08,3,5,1.448,-0.324074074,-0.404629672,1,0,0,1.2236,Obsidian_rect,5,1.224,0,9,0,9,0,1,,,,,,,,,,,,,
5c2c189b867f660001af5dc5,SCN,2024-06-20_15h43.12.619,LearnStrategy,2023.2.3,Win32,60.24096386,1,1,11,-0.266666624,0.073148127,1,0,0,3.7304,Basalt_04,2,04,4,3,3.73,0.372222194,-0.406481496,1,0,0,1.6026,Pumice_rect,8,1.603,0,10,0,10,0,1,,,,,,,,,,,,,
5c2c189b867f660001af5dc5,SCN,2024-06-20_15h43.12.619,LearnStrategy,2023.2.3,Win32,60.24096386,1,1,12,-0.374074053,0.224999993,1,0,0,3.8312,Andesite_16,1,16,5,2,3.831,0.312962991,-0.253703718,1,0,0,1.9021,Gabbro_rect,4,1.902,0,11,0,11,0,1,,,,,,,,,,,,,
5c2c189b867f660001af5dc5,SCN,2024-06-20_15h43.12.619,LearnStrategy,2023.2.3,Win32,60.24096386,1,1,13,-0.111111111,-0.280555584,1,0,0,2.7966,Gabbro_08,4,08,2,4,2.797,0.356481481,-0.400000042,1,0,0,1.2539,Pumice_rect,8,1.254,0,12,0,12,0,1,,,,,,,,,,,,,
5c2c189b867f660001af5dc5,SCN,2024-06-20_15h43.12.619,LearnStrategy,2023.2.3,Win32,60.24096386,1,1,14,-0.389814801,-0.099074116,1,0,0,1.9145,Gabbro_12,4,12,3,2,1.914,0.358333305,-0.252777806,1,0,0,3.5752,Gabbro_rect,4,3.575,1,13,0,13,0,1,,,,,,,,,,,,,
5c2c189b867f660001af5dc5,SCN,2024-06-20_15h43.12.619,LearnStrategy,2023.2.3,Win32,60.24096386,1,1,15,0.219444487,0.098148134,1,0,0,1.5132,Pegmatite_09,6,09,4,6,1.513,0.087037051,-0.386111153,1,0,0,2.9406,Peridotite_rect,7,2.941,0,14,0,14,0,1,,,,,,,,,,,,,
5c2c189b867f660001af5dc5,SCN,2024-06-20_15h43.12.619,LearnStrategy,2023.2.3,Win32,60.24096386,1,1,16,0.260185171,-0.429629644,1,0,0,7.2298,Gabbro_05,4,05,1,6,7.23,-0.077777792,-0.393518519,1,0,0,5.5358,Pegmatite_rect,6,5.536,0,15,0,15,0,1,,,,,,,,,,,,,
5c2c189b867f660001af5dc5,SCN,2024-06-20_15h43.12.619,LearnStrategy,2023.2.3,Win32,60.24096386,1,2,1,,,,,,,,4,03,,,,,,,,,,,2,5.006,0,,,,,,-0.088888875,-0.250925912,1,0,0,5.006,Basalt_rect,0,0,0,0,1,
5c2c189b867f660001af5dc5,SCN,2024-06-20_15h43.12.619,LearnStrategy,2023.2.3,Win32,60.24096386,1,2,2,,,,,,,,1,07,,,,,,,,,,,3,2.641,0,,,,,,0.112963005,-0.228703746,1,0,0,2.641,Diorite_rect,1,0,1,0,1,
5c2c189b867f660001af5dc5,SCN,2024-06-20_15h43.12.619,LearnStrategy,2023.2.3,Win32,60.24096386,1,2,3,,,,,,,,8,14,,,,,,,,,,,8,1.895,1,,,,,,0.37037037,-0.382407436,1,0,0,1.8952,Pumice_rect,2,0,2,0,1,
5c2c189b867f660001af5dc5,SCN,2024-06-20_15h43.12.619,LearnStrategy,2023.2.3,Win32,60.24096386,1,2,4,,,,,,,,6,15,,,,,,,,,,,6,5.358,1,,,,,,-0.087037051,-0.396296325,1,0,0,5.3577,Pegmatite_rect,3,0,3,0,1,
5c2c189b867f660001af5dc5,SCN,2024-06-20_15h43.12.619,LearnStrategy,2023.2.3,Win32,60.24096386,1,2,5,,,,,,,,2,10,,,,,,,,,,,4,2.741,0,,,,,,0.344444416,-0.236111111,1,0,0,2.7414,Gabbro_rect,4,0,4,0,1,
5c2c189b867f660001af5dc5,SCN,2024-06-20_15h43.12.619,LearnStrategy,2023.2.3,Win32,60.24096386,1,2,6,,,,,,,,6,05,,,,,,,,,,,1,1.539,0,,,,,,-0.380555541,-0.253703718,1,0,0,1.5394,Andesite_rect,5,0,5,0,1,
5c2c189b867f660001af5dc5,SCN,2024-06-20_15h43.12.619,LearnStrategy,2023.2.3,Win32,60.24096386,1,2,7,,,,,,,,7,06,,,,,,,,,,,6,2.966,0,,,,,,-0.086111069,-0.400925954,1,0,0,2.9658,Pegmatite_rect,6,0,6,0,1,
5c2c189b867f660001af5dc5,SCN,2024-06-20_15h43.12.619,LearnStrategy,2023.2.3,Win32,60.24096386,1,2,8,,,,,,,,2,02,,,,,,,,,,,3,5.015,0,,,,,,0.05740745,-0.26944443,1,0,0,5.0154,Diorite_rect,7,0,7,0,1,
5c2c189b867f660001af5dc5,SCN,2024-06-20_15h43.12.619,LearnStrategy,2023.2.3,Win32,60.24096386,1,2,9,,,,,,,,8,15,,,,,,,,,,,8,1.469,1,,,,,,0.391666695,-0.385185171,1,0,0,1.4686,Pumice_rect,8,0,8,0,1,
5c2c189b867f660001af5dc5,SCN,2024-06-20_15h43.12.619,LearnStrategy,2023.2.3,Win32,60.24096386,1,2,10,,,,,,,,4,10,,,,,,,,,,,8,1.355,0,,,,,,0.385185242,-0.398148148,1,0,0,1.3547,Pumice_rect,9,0,9,0,1,
5c2c189b867f660001af5dc5,SCN,2024-06-20_15h43.12.619,LearnStrategy,2023.2.3,Win32,60.24096386,1,2,11,,,,,,,,1,05,,,,,,,,,,,1,3.718,1,,,,,,-0.329629616,-0.246296282,1,0,0,3.7179,Andesite_rect,10,0,10,0,1,
5c2c189b867f660001af5dc5,SCN,2024-06-20_15h43.12.619,LearnStrategy,2023.2.3,Win32,60.24096386,1,2,12,,,,,,,,5,12,,,,,,,,,,,5,1.431,1,,,,,,-0.375925912,-0.390740783,1,0,0,1.4312,Obsidian_rect,11,0,11,0,1,
5c2c189b867f660001af5dc5,SCN,2024-06-20_15h43.12.619,LearnStrategy,2023.2.3,Win32,60.24096386,1,2,13,,,,,,,,7,07,,,,,,,,,,,6,2.326,0,,,,,,-0.050000014,-0.397222236,1,0,0,2.3255,Pegmatite_rect,12,0,12,0,1,
5c2c189b867f660001af5dc5,SCN,2024-06-20_15h43.12.619,LearnStrategy,2023.2.3,Win32,60.24096386,1,2,14,,,,,,,,3,16,,,,,,,,,,,3,2.706,1,,,,,,0.215740769,-0.257407436,1,0,0,2.7063,Diorite_rect,13,0,13,0,1,
5c2c189b867f660001af5dc5,SCN,2024-06-20_15h43.12.619,LearnStrategy,2023.2.3,Win32,60.24096386,1,2,15,,,,,,,,3,15,,,,,,,,,,,7,4.041,0,,,,,,0.118518547,-0.387037065,1,0,0,4.0405,Peridotite_rect,14,0,14,0,1,
5c2c189b867f660001af5dc5,SCN,2024-06-20_15h43.12.619,LearnStrategy,2023.2.3,Win32,60.24096386,1,2,16,,,,,,,,5,02,,,,,,,,,,,5,2.057,1,,,,,,-0.359259252,-0.391666695,1,0,0,2.0572,Obsidian_rect,15,0,15,0,1,
5c2c189b867f660001af5dc5,SCN,2024-06-20_15h43.12.619,LearnStrategy,2023.2.3,Win32,60.24096386,2,1,1,0.374074159,0.088888875,1,0,0,3.8793,Andesite_03,1,03,4,7,3.879,0.086111139,-0.248148176,1,0,0,0.9517,Diorite_rect,3,0.952,0,0,0,0,0,1,,,,,,,,,,,,,
5c2c189b867f660001af5dc5,SCN,2024-06-20_15h43.12.619,LearnStrategy,2023.2.3,Win32,60.24096386,2,1,2,-0.073148162,0.252777771,1,0,0,2.3941,Peridotite_15,7,15,5,4,2.394,-0.315740727,-0.241666653,1,0,0,1.7007,Andesite_rect,1,1.701,0,1,0,1,0,1,,,,,,,,,,,,,
5c2c189b867f660001af5dc5,SCN,2024-06-20_15h43.12.619,LearnStrategy,2023.2.3,Win32,60.24096386,2,1,3,0.086111139,0.426851851,1,0,0,4.0559,Diorite_09,3,09,6,5,4.056,0.3648149,-0.255555541,1,0,0,1.9263,Gabbro_rect,4,1.926,0,2,0,2,0,1,,,,,,,,,,,,,
5c2c189b867f660001af5dc5,SCN,2024-06-20_15h43.12.619,LearnStrategy,2023.2.3,Win32,60.24096386,2,1,4,0.419444473,0.384259259,1,0,0,1.4634,Peridotite_13,7,13,6,7,1.463,0.162037037,-0.25,1,0,0,1.3417,Diorite_rect,3,1.342,0,3,0,3,0,1,,,,,,,,,,,,,
5c2c189b867f660001af5dc5,SCN,2024-06-20_15h43.12.619,LearnStrategy,2023.2.3,Win32,60.24096386,2,1,5,-0.220370328,-0.373148176,1,0,0,2.5637,Obsidian_07,5,07,1,3,2.564,-0.369444423,-0.383333347,1,0,0,0.8954,Obsidian_rect,5,0.895,1,4,0,4,0,1,,,,,,,,,,,,,
5c2c189b867f660001af5dc5,SCN,2024-06-20_15h43.12.619,LearnStrategy,2023.2.3,Win32,60.24096386,2,1,6,0.388888889,-0.092592593,1,0,0,2.2874,Pegmatite_16,6,16,3,7,2.287,-0.347222222,-0.247222265,1,0,0,3.5753,Andesite_rect,1,3.575,0,5,0,5,0,1,,,,,,,,,,,,,
5c2c189b867f660001af5dc5,SCN,2024-06-20_15h43.12.619,LearnStrategy,2023.2.3,Win32,60.24096386,2,1,7,-0.555555556,0.073148127,1,0,0,3.6798,Pumice_03,8,03,4,1,3.68,0.411111196,-0.398148148,1,0,0,1.719,Pumice_rect,8,1.719,1,6,0,6,0,1,,,,,,,,,,,,,
5c2c189b867f660001af5dc5,SCN,2024-06-20_15h43.12.619,LearnStrategy,2023.2.3,Win32,60.24096386,2,1,8,-0.514814801,0.267592589,1,0,0,1.3657,Peridotite_14,7,14,5,1,1.366,-0.359259252,-0.249074088,1,0,0,1.2249,Andesite_rect,1,1.225,0,7,0,7,0,1,,,,,,,,,,,,,
5c2c189b867f660001af5dc5,SCN,2024-06-20_15h43.12.619,LearnStrategy,2023.2.3,Win32,60.24096386,2,1,9,-0.499074053,0.405555557,1,0,0,2.7799,Pegmatite_03,6,03,6,1,2.78,-0.307407414,-0.253703718,1,0,0,2.589,Andesite_rect,1,2.589,0,8,0,8,0,1,,,,,,,,,,,,,
5c2c189b867f660001af5dc5,SCN,2024-06-20_15h43.12.619,LearnStrategy,2023.2.3,Win32,60.24096386,2,1,10,-0.222222222,0.461111108,1,0,0,6.48,Basalt_09,2,09,6,3,6.48,0.064814815,-0.233333376,1,0,0,1.1288,Diorite_rect,3,1.129,0,9,0,9,0,1,,,,,,,,,,,,,
5c2c189b867f660001af5dc5,SCN,2024-06-20_15h43.12.619,LearnStrategy,2023.2.3,Win32,60.24096386,2,1,11,0.244444459,-0.108333376,1,0,0,3.5407,Pumice_05,8,05,3,6,3.541,-0.061111097,-0.418518561,1,0,0,1.6498,Pegmatite_rect,6,1.65,0,10,0,10,0,1,,,,,,,,,,,,,
5c2c189b867f660001af5dc5,SCN,2024-06-20_15h43.12.619,LearnStrategy,2023.2.3,Win32,60.24096386,2,1,12,0.385185242,-0.252777806,1,0,0,6.2487,Gabbro_15,4,15,2,7,6.249,0.193518533,-0.255555541,1,0,0,1.1511,Diorite_rect,3,1.151,0,11,0,11,0,1,,,,,,,,,,,,,
5c2c189b867f660001af5dc5,SCN,2024-06-20_15h43.12.619,LearnStrategy,2023.2.3,Win32,60.24096386,2,1,13,-0.510185171,-0.261111153,1,0,0,3.0653,Gabbro_09,4,09,2,1,3.065,0.348148205,-0.25462963,1,0,0,2.437,Gabbro_rect,4,2.437,1,12,0,12,0,1,,,,,,,,,,,,,
5c2c189b867f660001af5dc5,SCN,2024-06-20_15h43.12.619,LearnStrategy,2023.2.3,Win32,60.24096386,2,1,14,-0.392592571,0.406481478,1,0,0,4.7786,Pumice_06,8,06,6,2,4.779,0.333333333,-0.39907406,1,0,0,1.2369,Pumice_rect,8,1.237,1,13,0,13,0,1,,,,,,,,,,,,,
5c2c189b867f660001af5dc5,SCN,2024-06-20_15h43.12.619,LearnStrategy,2023.2.3,Win32,60.24096386,2,1,15,-0.40648146,-0.402777778,1,0,0,1.8318,Diorite_02,3,02,1,2,1.832,-0.049074032,-0.407407407,1,0,0,1.1754,Pegmatite_rect,6,1.175,0,14,0,14,0,1,,,,,,,,,,,,,
5c2c189b867f660001af5dc5,SCN,2024-06-20_15h43.12.619,LearnStrategy,2023.2.3,Win32,60.24096386,2,1,16,0.390740712,0.087037016,1,0,0,1.7312,Andesite_03,1,03,4,7,1.731,-0.10092594,-0.400925954,1,0,0,0.9089,Pegmatite_rect,6,0.909,0,15,0,15,0,1,,,,,,,,,,,,,
5c2c189b867f660001af5dc5,SCN,2024-06-20_15h43.12.619,LearnStrategy,2023.2.3,Win32,60.24096386,2,2,1,,,,,,,,4,01,,,,,,,,,,,1,5.024,0,,,,,,-0.301851838,-0.25,1,0,0,5.0238,Andesite_rect,0,0,0,0,1,
5c2c189b867f660001af5dc5,SCN,2024-06-20_15h43.12.619,LearnStrategy,2023.2.3,Win32,60.24096386,2,2,2,,,,,,,,5,10,,,,,,,,,,,5,1.677,1,,,,,,-0.342592593,-0.407407407,1,0,0,1.6766,Obsidian_rect,1,0,1,0,1,
5c2c189b867f660001af5dc5,SCN,2024-06-20_15h43.12.619,LearnStrategy,2023.2.3,Win32,60.24096386,2,2,3,,,,,,,,7,02,,,,,,,,,,,6,1.558,0,,,,,,-0.087962963,-0.401851866,1,0,0,1.5584,Pegmatite_rect,2,0,2,0,1,
5c2c189b867f660001af5dc5,SCN,2024-06-20_15h43.12.619,LearnStrategy,2023.2.3,Win32,60.24096386,2,2,4,,,,,,,,2,11,,,,,,,,,,,4,4.191,0,,,,,,0.296296296,-0.262037065,1,0,0,4.1906,Gabbro_rect,3,0,3,0,1,
5c2c189b867f660001af5dc5,SCN,2024-06-20_15h43.12.619,LearnStrategy,2023.2.3,Win32,60.24096386,2,2,5,,,,,,,,6,13,,,,,,,,,,,1,7.223,0,,,,,,-0.374074053,-0.237963005,1,0,0,7.2226,Andesite_rect,4,0,4,0,1,
5c2c189b867f660001af5dc5,SCN,2024-06-20_15h43.12.619,LearnStrategy,2023.2.3,Win32,60.24096386,2,2,6,,,,,,,,7,16,,,,,,,,,,,6,2.158,0,,,,,,-0.05277775,-0.404629672,1,0,0,2.1577,Pegmatite_rect,5,0,5,0,1,
5c2c189b867f660001af5dc5,SCN,2024-06-20_15h43.12.619,LearnStrategy,2023.2.3,Win32,60.24096386,2,2,7,,,,,,,,3,14,,,,,,,,,,,3,1.306,1,,,,,,0.136111153,-0.255555541,1,0,0,1.3059,Diorite_rect,6,0,6,0,1,
5c2c189b867f660001af5dc5,SCN,2024-06-20_15h43.12.619,LearnStrategy,2023.2.3,Win32,60.24096386,2,2,8,,,,,,,,6,06,,,,,,,,,,,2,2.409,0,,,,,,-0.055555556,-0.258333347,1,0,0,2.4085,Basalt_rect,7,0,7,0,1,
5c2c189b867f660001af5dc5,SCN,2024-06-20_15h43.12.619,LearnStrategy,2023.2.3,Win32,60.24096386,2,2,9,,,,,,,,1,01,,,,,,,,,,,5,2.256,0,,,,,,-0.324074074,-0.390740783,1,0,0,2.2556,Obsidian_rect,8,0,8,0,1,
5c2c189b867f660001af5dc5,SCN,2024-06-20_15h43.12.619,LearnStrategy,2023.2.3,Win32,60.24096386,2,2,10,,,,,,,,3,08,,,,,,,,,,,4,4.005,0,,,,,,0.37037037,-0.256481524,1,0,0,4.0055,Gabbro_rect,9,0,9,0,1,
5c2c189b867f660001af5dc5,SCN,2024-06-20_15h43.12.619,LearnStrategy,2023.2.3,Win32,60.24096386,2,2,11,,,,,,,,5,16,,,,,,,,,,,5,1.108,1,,,,,,-0.432407414,-0.406481496,1,0,0,1.1079,Obsidian_rect,10,0,10,0,1,
5c2c189b867f660001af5dc5,SCN,2024-06-20_15h43.12.619,LearnStrategy,2023.2.3,Win32,60.24096386,2,2,12,,,,,,,,2,12,,,,,,,,,,,8,1.29,0,,,,,,0.383333418,-0.411111125,1,0,0,1.2897,Pumice_rect,11,0,11,0,1,
5c2c189b867f660001af5dc5,SCN,2024-06-20_15h43.12.619,LearnStrategy,2023.2.3,Win32,60.24096386,2,2,13,,,,,,,,8,13,,,,,,,,,,,8,1.155,1,,,,,,0.386111083,-0.413888931,1,0,0,1.155,Pumice_rect,12,0,12,0,1,
5c2c189b867f660001af5dc5,SCN,2024-06-20_15h43.12.619,LearnStrategy,2023.2.3,Win32,60.24096386,2,2,14,,,,,,,,8,08,,,,,,,,,,,8,4.257,1,,,,,,0.399999972,-0.406481496,1,0,0,4.2575,Pumice_rect,13,0,13,0,1,
5c2c189b867f660001af5dc5,SCN,2024-06-20_15h43.12.619,LearnStrategy,2023.2.3,Win32,60.24096386,2,2,15,,,,,,,,1,04,,,,,,,,,,,3,4.427,0,,,,,,0.133333347,-0.255555541,1,0,0,4.4273,Diorite_rect,14,0,14,0,1,
5c2c189b867f660001af5dc5,SCN,2024-06-20_15h43.12.619,LearnStrategy,2023.2.3,Win32,60.24096386,2,2,16,,,,,,,,4,11,,,,,,,,,,,2,1.092,0,,,,,,-0.054629644,-0.246296282,1,0,0,1.0919,Basalt_rect,15,0,15,0,1,
5c2c189b867f660001af5dc5,SCN,2024-06-20_15h43.12.619,LearnStrategy,2023.2.3,Win32,60.24096386,3,1,1,-0.040740755,0.217592593,1,0,0,2.5687,Peridotite_15,7,15,5,4,2.569,-0.068518533,-0.404629672,1,0,0,2.1743,Pegmatite_rect,6,2.174,0,0,0,0,0,1,,,,,,,,,,,,,
5c2c189b867f660001af5dc5,SCN,2024-06-20_15h43.12.619,LearnStrategy,2023.2.3,Win32,60.24096386,3,1,2,0.411111196,0.411111108,1,0,0,1.8644,Peridotite_13,7,13,6,7,1.864,0.161111125,-0.406481496,1,0,0,1.8583,Peridotite_rect,7,1.858,1,1,0,1,0,1,,,,,,,,,,,,,
5c2c189b867f660001af5dc5,SCN,2024-06-20_15h43.12.619,LearnStrategy,2023.2.3,Win32,60.24096386,3,1,3,-0.558333326,0.264814818,1,0,0,6.3809,Peridotite_14,7,14,5,1,6.381,0.127777806,-0.395370413,1,0,0,1.2371,Peridotite_rect,7,1.237,1,2,0,2,0,1,,,,,,,,,,,,,
5c2c189b867f660001af5dc5,SCN,2024-06-20_15h43.12.619,LearnStrategy,2023.2.3,Win32,60.24096386,3,1,4,0.066666709,-0.091666681,1,0,0,1.2656,Pegmatite_08,6,08,3,5,1.266,0.168518561,-0.257407436,1,0,0,2.1193,Diorite_rect,3,2.119,0,3,0,3,0,1,,,,,,,,,,,,,
5c2c189b867f660001af5dc5,SCN,2024-06-20_15h43.12.619,LearnStrategy,2023.2.3,Win32,60.24096386,3,1,5,0.112037023,-0.266666695,1,0,0,2.033,Basalt_14,2,14,2,5,2.033,0.388888889,-0.400925954,1,0,0,1.2981,Pumice_rect,8,1.298,0,4,0,4,0,1,,,,,,,,,,,,,
5c2c189b867f660001af5dc5,SCN,2024-06-20_15h43.12.619,LearnStrategy,2023.2.3,Win32,60.24096386,3,1,6,0.268518519,-0.125925912,1,0,0,76.4307,Pumice_05,8,05,3,6,76.431,0.33148151,-0.415740755,1,0,0,1.269,Pumice_rect,8,1.269,1,5,0,5,0,1,,,,,,,,,,,,,
5c2c189b867f660001af5dc5,SCN,2024-06-20_15h43.12.619,LearnStrategy,2023.2.3,Win32,60.24096386,3,1,7,-0.537962949,-0.227777764,1,0,0,3.4483,Gabbro_09,4,09,2,1,3.448,0.118518547,-0.240740741,1,0,0,2.3515,Diorite_rect,3,2.351,0,6,0,6,0,1,,,,,,,,,,,,,
5c2c189b867f660001af5dc5,SCN,2024-06-20_15h43.12.619,LearnStrategy,2023.2.3,Win32,60.24096386,3,1,8,0.568518603,0.404629628,1,0,0,4.9645,Pumice_02,8,02,6,8,4.965,-0.077777792,-0.410185213,1,0,0,2.0206,Pegmatite_rect,6,2.021,0,7,0,7,0,1,,,,,,,,,,,,,
5c2c189b867f660001af5dc5,SCN,2024-06-20_15h43.12.619,LearnStrategy,2023.2.3,Win32,60.24096386,3,1,9,-0.218518504,-0.087962963,1,0,0,1.3644,Basalt_06,2,06,3,3,1.364,0.049074102,-0.238888917,1,0,0,1.2243,Diorite_rect,3,1.224,0,8,0,8,0,1,,,,,,,,,,,,,
5c2c189b867f660001af5dc5,SCN,2024-06-20_15h43.12.619,LearnStrategy,2023.2.3,Win32,60.24096386,3,1,10,0.539814843,0.075925933,1,0,0,2.6809,Basalt_08,2,08,4,8,2.681,-0.04814812,-0.25462963,1,0,0,1.1358,Basalt_rect,2,1.136,1,9,0,9,0,1,,,,,,,,,,,,,
5c2c189b867f660001af5dc5,SCN,2024-06-20_15h43.12.619,LearnStrategy,2023.2.3,Win32,60.24096386,3,1,11,0.382407436,0.219444434,1,0,0,8.897,Diorite_06,3,06,5,7,8.897,0.090740769,-0.242592635,1,0,0,5.1226,Diorite_rect,3,5.123,1,10,0,10,0,1,,,,,,,,,,,,,
5c2c189b867f660001af5dc5,SCN,2024-06-20_15h43.12.619,LearnStrategy,2023.2.3,Win32,60.24096386,3,1,12,0.381481453,-0.248148176,1,0,0,18.5968,Gabbro_15,4,15,2,7,18.597,0.208333333,-0.271296325,1,0,0,6.9167,Diorite_rect,3,6.917,0,11,0,11,0,1,,,,,,,,,,,,,
5c2c189b867f660001af5dc5,SCN,2024-06-20_15h43.12.619,LearnStrategy,2023.2.3,Win32,60.24096386,3,1,13,-0.060185185,0.074074074,1,0,0,4.5643,Andesite_11,1,11,4,4,4.564,0.083333333,-0.246296282,1,0,0,1.9353,Diorite_rect,3,1.935,0,12,0,12,0,1,,,,,,,,,,,,,
5c2c189b867f660001af5dc5,SCN,2024-06-20_15h43.12.619,LearnStrategy,2023.2.3,Win32,60.24096386,3,1,14,0.10092594,0.38055555,1,0,0,2.9829,Diorite_09,3,09,6,5,2.983,0.107407393,-0.247222265,1,0,0,2.5576,Diorite_rect,3,2.558,1,13,0,13,0,1,,,,,,,,,,,,,
5c2c189b867f660001af5dc5,SCN,2024-06-20_15h43.12.619,LearnStrategy,2023.2.3,Win32,60.24096386,3,1,15,-0.398148148,0.395370369,1,0,0,5.8642,Pumice_06,8,06,6,2,5.864,0.349074046,-0.398148148,1,0,0,1.2688,Pumice_rect,8,1.269,1,14,0,14,0,1,,,,,,,,,,,,,
5c2c189b867f660001af5dc5,SCN,2024-06-20_15h43.12.619,LearnStrategy,2023.2.3,Win32,60.24096386,3,1,16,0.573148233,-0.437037079,1,0,0,14.0975,Andesite_10,1,10,1,8,14.097,0.400925954,-0.387962977,1,0,0,0.687,Pumice_rect,8,0.687,0,15,0,15,0,1,,,,,,,,,,,,,
5c2c189b867f660001af5dc5,SCN,2024-06-20_15h43.12.619,LearnStrategy,2023.2.3,Win32,60.24096386,3,2,1,,,,,,,,2,16,,,,,,,,,,,8,3.539,0,,,,,,0.338888945,-0.418518561,1,0,0,3.5394,Pumice_rect,0,0,0,0,1,
5c2c189b867f660001af5dc5,SCN,2024-06-20_15h43.12.619,LearnStrategy,2023.2.3,Win32,60.24096386,3,2,2,,,,,,,,2,01,,,,,,,,,,,2,1.608,1,,,,,,-0.10555557,-0.24537037,1,0,0,1.6077,Basalt_rect,1,0,1,0,1,
5c2c189b867f660001af5dc5,SCN,2024-06-20_15h43.12.619,LearnStrategy,2023.2.3,Win32,60.24096386,3,2,3,,,,,,,,7,10,,,,,,,,,,,1,1.337,0,,,,,,-0.390740748,-0.25,1,0,0,1.337,Andesite_rect,2,0,2,0,1,
5c2c189b867f660001af5dc5,SCN,2024-06-20_15h43.12.619,LearnStrategy,2023.2.3,Win32,60.24096386,3,2,4,,,,,,,,4,14,,,,,,,,,,,3,3.757,0,,,,,,0.211111139,-0.259259259,1,0,0,3.7567,Diorite_rect,3,0,3,0,1,
5c2c189b867f660001af5dc5,SCN,2024-06-20_15h43.12.619,LearnStrategy,2023.2.3,Win32,60.24096386,3,2,5,,,,,,,,4,13,,,,,,,,,,,4,1.857,1,,,,,,0.389814871,-0.262962977,1,0,0,1.8573,Gabbro_rect,4,0,4,0,1,
5c2c189b867f660001af5dc5,SCN,2024-06-20_15h43.12.619,LearnStrategy,2023.2.3,Win32,60.24096386,3,2,6,,,,,,,,3,07,,,,,,,,,,,3,6.407,1,,,,,,0.079629616,-0.262962977,1,0,0,6.4065,Diorite_rect,5,0,5,0,1,
5c2c189b867f660001af5dc5,SCN,2024-06-20_15h43.12.619,LearnStrategy,2023.2.3,Win32,60.24096386,3,2,7,,,,,,,,8,10,,,,,,,,,,,1,6.072,0,,,,,,-0.335185192,-0.248148176,1,0,0,6.072,Andesite_rect,6,0,6,0,1,
5c2c189b867f660001af5dc5,SCN,2024-06-20_15h43.12.619,LearnStrategy,2023.2.3,Win32,60.24096386,3,2,8,,,,,,,,1,14,,,,,,,,,,,2,2.64,0,,,,,,-0.089814787,-0.261111153,1,0,0,2.6404,Basalt_rect,7,0,7,0,1,
5c2c189b867f660001af5dc5,SCN,2024-06-20_15h43.12.619,LearnStrategy,2023.2.3,Win32,60.24096386,3,2,9,,,,,,,,7,08,,,,,,,,,,,6,2.091,0,,,,,,-0.116666653,-0.411111125,1,0,0,2.0908,Pegmatite_rect,8,0,8,0,1,
5c2c189b867f660001af5dc5,SCN,2024-06-20_15h43.12.619,LearnStrategy,2023.2.3,Win32,60.24096386,3,2,10,,,,,,,,1,09,,,,,,,,,,,2,6.524,0,,,,,,-0.04814812,-0.24537037,1,0,0,6.5235,Basalt_rect,9,0,9,0,1,
5c2c189b867f660001af5dc5,SCN,2024-06-20_15h43.12.619,LearnStrategy,2023.2.3,Win32,60.24096386,3,2,11,,,,,,,,5,08,,,,,,,,,,,5,1.231,1,,,,,,-0.458333333,-0.415740755,1,0,0,1.2311,Obsidian_rect,10,0,10,0,1,
5c2c189b867f660001af5dc5,SCN,2024-06-20_15h43.12.619,LearnStrategy,2023.2.3,Win32,60.24096386,3,2,12,,,,,,,,6,07,,,,,,,,,,,7,3.235,0,,,,,,0.043518561,-0.400000042,1,0,0,3.2348,Peridotite_rect,11,0,11,0,1,
5c2c189b867f660001af5dc5,SCN,2024-06-20_15h43.12.619,LearnStrategy,2023.2.3,Win32,60.24096386,3,2,13,,,,,,,,8,09,,,,,,,,,,,8,2.84,1,,,,,,0.290740755,-0.378703718,1,0,0,2.8396,Pumice_rect,12,0,12,0,1,
5c2c189b867f660001af5dc5,SCN,2024-06-20_15h43.12.619,LearnStrategy,2023.2.3,Win32,60.24096386,3,2,14,,,,,,,,5,11,,,,,,,,,,,5,1.189,1,,,,,,-0.373148141,-0.388888889,1,0,0,1.1887,Obsidian_rect,13,0,13,0,1,
5c2c189b867f660001af5dc5,SCN,2024-06-20_15h43.12.619,LearnStrategy,2023.2.3,Win32,60.24096386,3,2,15,,,,,,,,6,10,,,,,,,,,,,6,5.056,1,,,,,,-0.12037037,-0.402777778,1,0,0,5.0561,Pegmatite_rect,14,0,14,0,1,
5c2c189b867f660001af5dc5,SCN,2024-06-20_15h43.12.619,LearnStrategy,2023.2.3,Win32,60.24096386,3,2,16,,,,,,,,3,12,,,,,,,,,,,3,2.606,1,,,,,,0.162962949,-0.264814801,1,0,0,2.606,Diorite_rect,15,0,15,0,1,
5c2c189b867f660001af5dc5,SCN,2024-06-20_15h43.12.619,LearnStrategy,2023.2.3,Win32,60.24096386,4,1,1,0.060185185,0.231481481,1,0,0,2.5994,Basalt_05,2,05,5,5,2.599,-0.099999958,-0.240740741,1,0,0,1.7516,Basalt_rect,2,1.752,1,0,0,0,0,1,,,,,,,,,,,,,
5c2c189b867f660001af5dc5,SCN,2024-06-20_15h43.12.619,LearnStrategy,2023.2.3,Win32,60.24096386,4,1,2,0.394444501,0.393518519,1,0,0,1.7472,Peridotite_13,7,13,6,7,1.747,-0.04351849,-0.405555584,1,0,0,1.8757,Pegmatite_rect,6,1.876,0,1,0,1,0,1,,,,,,,,,,,,,
5c2c189b867f660001af5dc5,SCN,2024-06-20_15h43.12.619,LearnStrategy,2023.2.3,Win32,60.24096386,4,1,3,-0.063888903,0.262962959,1,0,0,1.7961,Peridotite_15,7,15,5,4,1.796,0.116666653,-0.395370413,1,0,0,0.8075,Peridotite_rect,7,0.807,1,2,0,2,0,1,,,,,,,,,,,,,
5c2c189b867f660001af5dc5,SCN,2024-06-20_15h43.12.619,LearnStrategy,2023.2.3,Win32,60.24096386,4,1,4,-0.548148155,0.240740741,1,0,0,1.2155,Peridotite_14,7,14,5,1,1.215,0.05740745,-0.408333319,1,0,0,1.6578,Peridotite_rect,7,1.658,1,3,0,3,0,1,,,,,,,,,,,,,
5c2c189b867f660001af5dc5,SCN,2024-06-20_15h43.12.619,LearnStrategy,2023.2.3,Win32,60.24096386,4,1,5,-0.069444444,0.26574073,1,0,0,3.5965,Peridotite_15,7,15,5,4,3.596,-0.086111069,-0.412037037,1,0,0,2.4025,Pegmatite_rect,6,2.402,0,4,0,4,0,1,,,,,,,,,,,,,
5c2c189b867f660001af5dc5,SCN,2024-06-20_15h43.12.619,LearnStrategy,2023.2.3,Win32,60.24096386,4,1,6,0.578703704,0.202777757,1,0,0,2.0134,Obsidian_06,5,06,5,8,2.013,-0.349074081,-0.393518519,1,0,0,1.7585,Obsidian_rect,5,1.758,1,5,0,5,0,1,,,,,,,,,,,,,
5c2c189b867f660001af5dc5,SCN,2024-06-20_15h43.12.619,LearnStrategy,2023.2.3,Win32,60.24096386,4,1,7,-0.266666624,-0.43240745,1,0,0,1.1146,Obsidian_07,5,07,1,3,1.115,-0.337962963,-0.39444443,1,0,0,0.6592,Obsidian_rect,5,0.659,1,6,0,6,0,1,,,,,,,,,,,,,
5c2c189b867f660001af5dc5,SCN,2024-06-20_15h43.12.619,LearnStrategy,2023.2.3,Win32,60.24096386,4,1,8,-0.054629644,-0.118518547,1,0,0,1.0167,Obsidian_09,5,09,3,4,1.017,-0.380555541,-0.406481496,1,0,0,0.705,Obsidian_rect,5,0.705,1,7,0,7,0,1,,,,,,,,,,,,,
5c2c189b867f660001af5dc5,SCN,2024-06-20_15h43.12.619,LearnStrategy,2023.2.3,Win32,60.24096386,4,1,9,0.112963005,-0.110185199,1,0,0,1.0147,Pegmatite_08,6,08,3,5,1.015,-0.312037044,-0.405555584,1,0,0,0.7419,Obsidian_rect,5,0.742,0,8,0,8,0,1,,,,,,,,,,,,,
5c2c189b867f660001af5dc5,SCN,2024-06-20_15h43.12.619,LearnStrategy,2023.2.3,Win32,60.24096386,4,1,10,0.234259288,0.054629608,1,0,0,1.2319,Pegmatite_09,6,09,4,6,1.232,-0.041666667,-0.407407407,1,0,0,1.1058,Pegmatite_rect,6,1.106,1,9,0,9,0,1,,,,,,,,,,,,,
5c2c189b867f660001af5dc5,SCN,2024-06-20_15h43.12.619,LearnStrategy,2023.2.3,Win32,60.24096386,4,1,11,0.406481566,-0.121296282,1,0,0,1.7643,Pegmatite_16,6,16,3,7,1.764,-0.04351849,-0.384259259,1,0,0,1.077,Pegmatite_rect,6,1.077,1,10,0,10,0,1,,,,,,,,,,,,,
5c2c189b867f660001af5dc5,SCN,2024-06-20_15h43.12.619,LearnStrategy,2023.2.3,Win32,60.24096386,4,1,12,0.531481566,-0.10092594,1,0,0,1.4648,Obsidian_05,5,05,3,8,1.465,-0.324999986,-0.410185213,1,0,0,1.0096,Obsidian_rect,5,1.01,1,11,0,11,0,1,,,,,,,,,,,,,
5c2c189b867f660001af5dc5,SCN,2024-06-20_15h43.12.619,LearnStrategy,2023.2.3,Win32,60.24096386,4,1,13,-0.231481481,-0.275000042,1,0,0,4.9151,Peridotite_05,7,05,2,3,4.915,-0.116666653,-0.25,1,0,0,1.5888,Basalt_rect,2,1.589,0,12,0,12,0,1,,,,,,,,,,,,,
5c2c189b867f660001af5dc5,SCN,2024-06-20_15h43.12.619,LearnStrategy,2023.2.3,Win32,60.24096386,4,1,14,0.117592635,-0.437962991,1,0,0,1.4467,Pegmatite_11,6,11,1,5,1.447,0.118518547,-0.24537037,1,0,0,1.3758,Diorite_rect,3,1.376,0,13,0,13,0,1,,,,,,,,,,,,,
5c2c189b867f660001af5dc5,SCN,2024-06-20_15h43.12.619,LearnStrategy,2023.2.3,Win32,60.24096386,4,1,15,0.275925954,-0.435185185,1,0,0,2.3473,Gabbro_05,4,05,1,6,2.347,0.365740741,-0.401851866,1,0,0,1.5244,Pumice_rect,8,1.524,0,14,0,14,0,1,,,,,,,,,,,,,
5c2c189b867f660001af5dc5,SCN,2024-06-20_15h43.12.619,LearnStrategy,2023.2.3,Win32,60.24096386,4,1,16,0.525925954,0.419444446,1,0,0,1.7984,Pumice_02,8,02,6,8,1.798,0.337962963,-0.241666653,1,0,0,2.7086,Gabbro_rect,4,2.709,0,15,0,15,0,1,,,,,,,,,,,,,
5c2c189b867f660001af5dc5,SCN,2024-06-20_15h43.12.619,LearnStrategy,2023.2.3,Win32,60.24096386,4,2,1,,,,,,,,3,15,,,,,,,,,,,3,1.773,1,,,,,,0.104629658,-0.251851894,1,0,0,1.7729,Diorite_rect,0,0,0,0,1,
5c2c189b867f660001af5dc5,SCN,2024-06-20_15h43.12.619,LearnStrategy,2023.2.3,Win32,60.24096386,4,2,2,,,,,,,,4,13,,,,,,,,,,,4,1.256,1,,,,,,0.319444444,-0.250925912,1,0,0,1.2565,Gabbro_rect,1,0,1,0,1,
5c2c189b867f660001af5dc5,SCN,2024-06-20_15h43.12.619,LearnStrategy,2023.2.3,Win32,60.24096386,4,2,3,,,,,,,,6,05,,,,,,,,,,,6,4.723,1,,,,,,-0.027777778,-0.408333319,1,0,0,4.7226,Pegmatite_rect,2,0,2,0,1,
5c2c189b867f660001af5dc5,SCN,2024-06-20_15h43.12.619,LearnStrategy,2023.2.3,Win32,60.24096386,4,2,4,,,,,,,,5,02,,,,,,,,,,,5,0.892,1,,,,,,-0.37037037,-0.407407407,1,0,0,0.8919,Obsidian_rect,3,0,3,0,1,
5c2c189b867f660001af5dc5,SCN,2024-06-20_15h43.12.619,LearnStrategy,2023.2.3,Win32,60.24096386,4,2,5,,,,,,,,1,04,,,,,,,,,,,3,2.006,0,,,,,,0.173148191,-0.257407436,1,0,0,2.0056,Diorite_rect,4,0,4,0,1,
5c2c189b867f660001af5dc5,SCN,2024-06-20_15h43.12.619,LearnStrategy,2023.2.3,Win32,60.24096386,4,2,6,,,,,,,,2,10,,,,,,,,,,,2,2.912,1,,,,,,-0.098148134,-0.236111111,1,0,0,2.912,Basalt_rect,5,0,5,0,1,
5c2c189b867f660001af5dc5,SCN,2024-06-20_15h43.12.619,LearnStrategy,2023.2.3,Win32,60.24096386,4,2,7,,,,,,,,7,02,,,,,,,,,,,6,1.338,0,,,,,,-0.04814812,-0.414814843,1,0,0,1.3381,Pegmatite_rect,6,0,6,0,1,
5c2c189b867f660001af5dc5,SCN,2024-06-20_15h43.12.619,LearnStrategy,2023.2.3,Win32,60.24096386,4,2,8,,,,,,,,2,16,,,,,,,,,,,8,2.574,0,,,,,,0.387963048,-0.414814843,1,0,0,2.5743,Pumice_rect,7,0,7,0,1,
5c2c189b867f660001af5dc5,SCN,2024-06-20_15h43.12.619,LearnStrategy,2023.2.3,Win32,60.24096386,4,2,9,,,,,,,,6,13,,,,,,,,,,,7,6.542,0,,,,,,0.055555556,-0.401851866,1,0,0,6.5417,Peridotite_rect,8,0,8,0,1,
5c2c189b867f660001af5dc5,SCN,2024-06-20_15h43.12.619,LearnStrategy,2023.2.3,Win32,60.24096386,4,2,10,,,,,,,,4,14,,,,,,,,,,,4,4.823,1,,,,,,0.405555584,-0.252777806,1,0,0,4.8226,Gabbro_rect,9,0,9,0,1,
5c2c189b867f660001af5dc5,SCN,2024-06-20_15h43.12.619,LearnStrategy,2023.2.3,Win32,60.24096386,4,2,11,,,,,,,,5,10,,,,,,,,,,,5,1.625,1,,,,,,-0.334259245,-0.407407407,1,0,0,1.625,Obsidian_rect,10,0,10,0,1,
5c2c189b867f660001af5dc5,SCN,2024-06-20_15h43.12.619,LearnStrategy,2023.2.3,Win32,60.24096386,4,2,12,,,,,,,,3,07,,,,,,,,,,,3,1.99,1,,,,,,0.114814829,-0.251851894,1,0,0,1.9899,Diorite_rect,11,0,11,0,1,
5c2c189b867f660001af5dc5,SCN,2024-06-20_15h43.12.619,LearnStrategy,2023.2.3,Win32,60.24096386,4,2,13,,,,,,,,1,09,,,,,,,,,,,2,1.225,0,,,,,,-0.098148134,-0.258333347,1,0,0,1.2254,Basalt_rect,12,0,12,0,1,
5c2c189b867f660001af5dc5,SCN,2024-06-20_15h43.12.619,LearnStrategy,2023.2.3,Win32,60.24096386,4,2,14,,,,,,,,8,08,,,,,,,,,,,2,0.823,0,,,,,,-0.098148134,-0.258333347,1,0,0,0.8228,Basalt_rect,13,0,13,0,1,
5c2c189b867f660001af5dc5,SCN,2024-06-20_15h43.12.619,LearnStrategy,2023.2.3,Win32,60.24096386,4,2,15,,,,,,,,7,10,,,,,,,,,,,1,1.341,0,,,,,,-0.324074074,-0.260185171,1,0,0,1.3414,Andesite_rect,14,0,14,0,1,
5c2c189b867f660001af5dc5,SCN,2024-06-20_15h43.12.619,LearnStrategy,2023.2.3,Win32,60.24096386,4,2,16,,,,,,,,8,09,,,,,,,,,,,8,1.723,1,,,,,,0.442592621,-0.419444473,1,0,0,1.7232,Pumice_rect,15,0,15,0,1,
5c2c189b867f660001af5dc5,SCN,2024-06-20_15h43.12.619,LearnStrategy,2023.2.3,Win32,60.24096386,5,1,1,-0.071296268,0.395370369,1,0,0,5.881,Peridotite_04,7,04,6,4,5.881,0.077777792,-0.402777778,1,0,0,1.8247,Peridotite_rect,7,1.825,1,0,0,0,0,1,,,,,,,,,,,,,
5c2c189b867f660001af5dc5,SCN,2024-06-20_15h43.12.619,LearnStrategy,2023.2.3,Win32,60.24096386,5,1,2,0.109259288,0.426851851,1,0,0,1.4978,Diorite_09,3,09,6,5,1.498,-0.107407393,-0.410185213,1,0,0,1.1907,Pegmatite_rect,6,1.191,0,1,0,1,0,1,,,,,,,,,,,,,
5c2c189b867f660001af5dc5,SCN,2024-06-20_15h43.12.619,LearnStrategy,2023.2.3,Win32,60.24096386,5,1,3,0.588888945,0.287962966,1,0,0,1.4148,Obsidian_06,5,06,5,8,1.415,-0.3824074,-0.405555584,1,0,0,0.9746,Obsidian_rect,5,0.975,1,2,0,2,0,1,,,,,,,,,,,,,
5c2c189b867f660001af5dc5,SCN,2024-06-20_15h43.12.619,LearnStrategy,2023.2.3,Win32,60.24096386,5,1,4,0.549074102,-0.090740734,1,0,0,1.2149,Obsidian_05,5,05,3,8,1.215,-0.355555534,-0.396296325,1,0,0,0.9094,Obsidian_rect,5,0.909,1,3,0,3,0,1,,,,,,,,,,,,,
5c2c189b867f660001af5dc5,SCN,2024-06-20_15h43.12.619,LearnStrategy,2023.2.3,Win32,60.24096386,5,1,5,-0.563888868,0.405555557,1,0,0,1.7652,Pegmatite_03,6,03,6,1,1.765,-0.058333291,-0.400925954,1,0,0,3.0237,Pegmatite_rect,6,3.024,1,4,0,4,0,1,,,,,,,,,,,,,
5c2c189b867f660001af5dc5,SCN,2024-06-20_15h43.12.619,LearnStrategy,2023.2.3,Win32,60.24096386,5,1,6,-0.552777785,0.217592593,1,0,0,2.1492,Peridotite_14,7,14,5,1,2.149,-0.098148134,-0.405555584,1,0,0,1.8264,Pegmatite_rect,6,1.826,0,5,0,5,0,1,,,,,,,,,,,,,
5c2c189b867f660001af5dc5,SCN,2024-06-20_15h43.12.619,LearnStrategy,2023.2.3,Win32,60.24096386,5,1,7,-0.23055557,-0.401851866,1,0,0,3.005,Obsidian_07,5,07,1,3,3.005,-0.349999993,-0.416666667,1,0,0,0.8749,Obsidian_rect,5,0.875,1,6,0,6,0,1,,,,,,,,,,,,,
5c2c189b867f660001af5dc5,SCN,2024-06-20_15h43.12.619,LearnStrategy,2023.2.3,Win32,60.24096386,5,1,8,0.229629658,-0.117592635,1,0,0,0.9478,Pumice_05,8,05,3,6,0.948,0.300925926,-0.381481524,1,0,0,0.9083,Pumice_rect,8,0.908,1,7,0,7,0,1,,,,,,,,,,,,,
5c2c189b867f660001af5dc5,SCN,2024-06-20_15h43.12.619,LearnStrategy,2023.2.3,Win32,60.24096386,5,1,9,0.411111196,-0.115740741,1,0,0,1.6319,Pegmatite_16,6,16,3,7,1.632,0.082407422,-0.260185171,1,0,0,1.0423,Diorite_rect,3,1.042,0,8,0,8,0,1,,,,,,,,,,,,,
5c2c189b867f660001af5dc5,SCN,2024-06-20_15h43.12.619,LearnStrategy,2023.2.3,Win32,60.24096386,5,1,10,-0.053703661,0.256481471,1,0,0,2.5161,Peridotite_15,7,15,5,4,2.516,-0.102777764,-0.393518519,1,0,0,1.4914,Pegmatite_rect,6,1.491,0,9,0,9,0,1,,,,,,,,,,,,,
5c2c189b867f660001af5dc5,SCN,2024-06-20_15h43.12.619,LearnStrategy,2023.2.3,Win32,60.24096386,5,1,11,-0.069444444,-0.138888889,1,0,0,3.9318,Obsidian_09,5,09,3,4,3.932,-0.347222222,-0.412962949,1,0,0,1.0022,Obsidian_rect,5,1.002,1,10,0,10,0,1,,,,,,,,,,,,,
5c2c189b867f660001af5dc5,SCN,2024-06-20_15h43.12.619,LearnStrategy,2023.2.3,Win32,60.24096386,5,1,12,0.075925968,-0.10092594,1,0,0,2.4806,Pegmatite_08,6,08,3,5,2.481,-0.357407393,-0.391666695,1,0,0,1.5903,Obsidian_rect,5,1.59,0,11,0,11,0,1,,,,,,,,,,,,,
5c2c189b867f660001af5dc5,SCN,2024-06-20_15h43.12.619,LearnStrategy,2023.2.3,Win32,60.24096386,5,1,13,0.282407407,-0.12037037,1,0,0,18.8975,Pumice_05,8,05,3,6,18.898,0.336111139,-0.404629672,1,0,0,1.3221,Pumice_rect,8,1.322,1,12,0,12,0,1,,,,,,,,,,,,,
5c2c189b867f660001af5dc5,SCN,2024-06-20_15h43.12.619,LearnStrategy,2023.2.3,Win32,60.24096386,5,1,14,-0.409259266,-0.458333333,1,0,0,4.2817,Diorite_02,3,02,1,2,4.282,-0.325925933,-0.231481481,1,0,0,3.279,Andesite_rect,1,3.279,0,13,0,13,0,1,,,,,,,,,,,,,
5c2c189b867f660001af5dc5,SCN,2024-06-20_15h43.12.619,LearnStrategy,2023.2.3,Win32,60.24096386,5,1,15,-0.218518504,-0.387962977,1,0,0,1.838,Obsidian_07,5,07,1,3,1.838,-0.340740734,-0.416666667,1,0,0,0.5981,Obsidian_rect,5,0.598,1,14,0,14,0,1,,,,,,,,,,,,,
5c2c189b867f660001af5dc5,SCN,2024-06-20_15h43.12.619,LearnStrategy,2023.2.3,Win32,60.24096386,5,1,16,0.262962977,0.089814822,1,0,0,1.5148,Pegmatite_09,6,09,4,6,1.515,-0.05277775,-0.412962949,1,0,0,1.4086,Pegmatite_rect,6,1.409,1,15,0,15,0,1,,,,,,,,,,,,,
5c2c189b867f660001af5dc5,SCN,2024-06-20_15h43.12.619,LearnStrategy,2023.2.3,Win32,60.24096386,5,2,1,,,,,,,,8,13,,,,,,,,,,,8,1.456,1,,,,,,0.312037009,-0.392592607,1,0,0,1.456,Pumice_rect,0,0,0,0,1,
5c2c189b867f660001af5dc5,SCN,2024-06-20_15h43.12.619,LearnStrategy,2023.2.3,Win32,60.24096386,5,2,2,,,,,,,,6,10,,,,,,,,,,,6,1.624,1,,,,,,-0.10092594,-0.388888889,1,0,0,1.6239,Pegmatite_rect,1,0,1,0,1,
5c2c189b867f660001af5dc5,SCN,2024-06-20_15h43.12.619,LearnStrategy,2023.2.3,Win32,60.24096386,5,2,3,,,,,,,,8,10,,,,,,,,,,,1,3.353,0,,,,,,-0.326851845,-0.23055557,1,0,0,3.3526,Andesite_rect,2,0,2,0,1,
5c2c189b867f660001af5dc5,SCN,2024-06-20_15h43.12.619,LearnStrategy,2023.2.3,Win32,60.24096386,5,2,4,,,,,,,,1,07,,,,,,,,,,,3,1.39,0,,,,,,0.163888931,-0.232407393,1,0,0,1.3897,Diorite_rect,3,0,3,0,1,
5c2c189b867f660001af5dc5,SCN,2024-06-20_15h43.12.619,LearnStrategy,2023.2.3,Win32,60.24096386,5,2,5,,,,,,,,7,07,,,,,,,,,,,4,1.474,0,,,,,,0.294444473,-0.244444459,1,0,0,1.4741,Gabbro_rect,4,0,4,0,1,
5c2c189b867f660001af5dc5,SCN,2024-06-20_15h43.12.619,LearnStrategy,2023.2.3,Win32,60.24096386,5,2,6,,,,,,,,6,06,,,,,,,,,,,3,1.625,0,,,,,,0.069444444,-0.258333347,1,0,0,1.6249,Diorite_rect,5,0,5,0,1,
5c2c189b867f660001af5dc5,SCN,2024-06-20_15h43.12.619,LearnStrategy,2023.2.3,Win32,60.24096386,5,2,7,,,,,,,,3,08,,,,,,,,,,,7,4.108,0,,,,,,0.066666709,-0.384259259,1,0,0,4.1083,Peridotite_rect,6,0,6,0,1,
5c2c189b867f660001af5dc5,SCN,2024-06-20_15h43.12.619,LearnStrategy,2023.2.3,Win32,60.24096386,5,2,8,,,,,,,,2,12,,,,,,,,,,,2,1.406,1,,,,,,-0.091666681,-0.231481481,1,0,0,1.4063,Basalt_rect,7,0,7,0,1,
5c2c189b867f660001af5dc5,SCN,2024-06-20_15h43.12.619,LearnStrategy,2023.2.3,Win32,60.24096386,5,2,9,,,,,,,,5,08,,,,,,,,,,,5,1.114,1,,,,,,-0.345370363,-0.393518519,1,0,0,1.1143,Obsidian_rect,8,0,8,0,1,
5c2c189b867f660001af5dc5,SCN,2024-06-20_15h43.12.619,LearnStrategy,2023.2.3,Win32,60.24096386,5,2,10,,,,,,,,7,16,,,,,,,,,,,6,4.831,0,,,,,,-0.079629616,-0.387962977,1,0,0,4.831,Pegmatite_rect,9,0,9,0,1,
5c2c189b867f660001af5dc5,SCN,2024-06-20_15h43.12.619,LearnStrategy,2023.2.3,Win32,60.24096386,5,2,11,,,,,,,,4,01,,,,,,,,,,,2,2.891,0,,,,,,-0.059259273,-0.26944443,1,0,0,2.8909,Basalt_rect,10,0,10,0,1,
5c2c189b867f660001af5dc5,SCN,2024-06-20_15h43.12.619,LearnStrategy,2023.2.3,Win32,60.24096386,5,2,12,,,,,,,,5,12,,,,,,,,,,,5,1.706,1,,,,,,-0.352777764,-0.389814801,1,0,0,1.7063,Obsidian_rect,11,0,11,0,1,
5c2c189b867f660001af5dc5,SCN,2024-06-20_15h43.12.619,LearnStrategy,2023.2.3,Win32,60.24096386,5,2,13,,,,,,,,3,12,,,,,,,,,,,3,5.092,1,,,,,,0.175925926,-0.250925912,1,0,0,5.0916,Diorite_rect,12,0,12,0,1,
5c2c189b867f660001af5dc5,SCN,2024-06-20_15h43.12.619,LearnStrategy,2023.2.3,Win32,60.24096386,5,2,14,,,,,,,,4,10,,,,,,,,,,,8,1.173,0,,,,,,0.30277775,-0.387962977,1,0,0,1.1727,Pumice_rect,13,0,13,0,1,
5c2c189b867f660001af5dc5,SCN,2024-06-20_15h43.12.619,LearnStrategy,2023.2.3,Win32,60.24096386,5,2,15,,,,,,,,2,01,,,,,,,,,,,8,1.363,0,,,,,,0.309259344,-0.382407436,1,0,0,1.3632,Pumice_rect,14,0,14,0,1,
5c2c189b867f660001af5dc5,SCN,2024-06-20_15h43.12.619,LearnStrategy,2023.2.3,Win32,60.24096386,5,2,16,,,,,,,,1,05,,,,,,,,,,,2,1.056,0,,,,,,-0.082407422,-0.249074088,1,0,0,1.0562,Basalt_rect,15,0,15,0,1,
5c2c189b867f660001af5dc5,SCN,2024-06-20_15h43.12.619,LearnStrategy,2023.2.3,Win32,60.24096386,6,1,1,0.258333347,0.075925933,1,0,0,1.3968,Pegmatite_09,6,09,4,6,1.397,-0.089814787,-0.385185171,1,0,0,1.0766,Pegmatite_rect,6,1.077,1,0,0,0,0,1,,,,,,,,,,,,,
5c2c189b867f660001af5dc5,SCN,2024-06-20_15h43.12.619,LearnStrategy,2023.2.3,Win32,60.24096386,6,1,2,-0.050925926,-0.066666674,1,0,0,1.2647,Obsidian_09,5,09,3,4,1.265,-0.368518511,-0.405555584,1,0,0,1.7576,Obsidian_rect,5,1.758,1,1,0,1,0,1,,,,,,,,,,,,,
5c2c189b867f660001af5dc5,SCN,2024-06-20_15h43.12.619,LearnStrategy,2023.2.3,Win32,60.24096386,6,1,3,0.05740745,-0.104629658,1,0,0,1.0464,Pegmatite_08,6,08,3,5,1.046,-0.334259245,-0.398148148,1,0,0,0.8249,Obsidian_rect,5,0.825,0,2,0,2,0,1,,,,,,,,,,,,,
5c2c189b867f660001af5dc5,SCN,2024-06-20_15h43.12.619,LearnStrategy,2023.2.3,Win32,60.24096386,6,1,4,0.263888889,-0.090740734,1,0,0,1.0148,Pumice_05,8,05,3,6,1.015,0.347222222,-0.410185213,1,0,0,0.575,Pumice_rect,8,0.575,1,3,0,3,0,1,,,,,,,,,,,,,
5c2c189b867f660001af5dc5,SCN,2024-06-20_15h43.12.619,LearnStrategy,2023.2.3,Win32,60.24096386,6,1,5,-0.217592593,0.248148141,1,0,0,1.1306,Pumice_04,8,04,5,3,1.131,0.367592564,-0.382407436,1,0,0,1.5266,Pumice_rect,8,1.527,1,4,0,4,0,1,,,,,,,,,,,,,
5c2c189b867f660001af5dc5,SCN,2024-06-20_15h43.12.619,LearnStrategy,2023.2.3,Win32,60.24096386,6,1,6,-0.203703704,0.391666668,1,0,0,1.7978,Basalt_09,2,09,6,3,1.798,-0.132407365,-0.25,1,0,0,0.8429,Basalt_rect,2,0.843,1,5,0,5,0,1,,,,,,,,,,,,,
5c2c189b867f660001af5dc5,SCN,2024-06-20_15h43.12.619,LearnStrategy,2023.2.3,Win32,60.24096386,6,1,7,-0.526851831,0.397222219,1,0,0,4.3315,Pegmatite_03,6,03,6,1,4.332,-0.142592607,-0.400925954,1,0,0,2.0722,Pegmatite_rect,6,2.072,1,6,0,6,0,1,,,,,,,,,,,,,
5c2c189b867f660001af5dc5,SCN,2024-06-20_15h43.12.619,LearnStrategy,2023.2.3,Win32,60.24096386,6,1,8,0.537037037,-0.267592607,1,0,0,3.5326,Pumice_16,8,16,2,8,3.533,0.354629658,-0.386111153,1,0,0,0.6702,Pumice_rect,8,0.67,1,7,0,7,0,1,,,,,,,,,,,,,
5c2c189b867f660001af5dc5,SCN,2024-06-20_15h43.12.619,LearnStrategy,2023.2.3,Win32,60.24096386,6,1,9,-0.22592594,-0.243518547,1,0,0,1.9148,Peridotite_05,7,05,2,3,1.915,-0.094444416,-0.39907406,1,0,0,1.909,Pegmatite_rect,6,1.909,0,8,0,8,0,1,,,,,,,,,,,,,
5c2c189b867f660001af5dc5,SCN,2024-06-20_15h43.12.619,LearnStrategy,2023.2.3,Win32,60.24096386,6,1,10,0.077777792,-0.381481524,1,0,0,5.3471,Pegmatite_11,6,11,1,5,5.347,-0.3675926,-0.400000042,1,0,0,0.9864,Obsidian_rect,5,0.986,0,9,0,9,0,1,,,,,,,,,,,,,
5c2c189b867f660001af5dc5,SCN,2024-06-20_15h43.12.619,LearnStrategy,2023.2.3,Win32,60.24096386,6,1,11,0.531481566,0.066666674,1,0,0,3.3479,Basalt_08,2,08,4,8,3.348,-0.174074032,-0.262962977,1,0,0,0.8536,Basalt_rect,2,0.854,1,10,0,10,0,1,,,,,,,,,,,,,
5c2c189b867f660001af5dc5,SCN,2024-06-20_15h43.12.619,LearnStrategy,2023.2.3,Win32,60.24096386,6,1,12,-0.599074063,-0.100000028,1,0,0,2.5644,Obsidian_14,5,14,3,1,2.564,-0.354629623,-0.418518561,1,0,0,2.3887,Obsidian_rect,5,2.389,1,11,0,11,0,1,,,,,,,,,,,,,
5c2c189b867f660001af5dc5,SCN,2024-06-20_15h43.12.619,LearnStrategy,2023.2.3,Win32,60.24096386,6,1,13,0.07222225,0.076851845,1,0,0,3.7468,Diorite_10,3,10,4,5,3.747,-0.311111097,-0.239814829,1,0,0,1.2878,Andesite_rect,1,1.288,0,12,0,12,0,1,,,,,,,,,,,,,
5c2c189b867f660001af5dc5,SCN,2024-06-20_15h43.12.619,LearnStrategy,2023.2.3,Win32,60.24096386,6,1,14,0.58148151,0.410185187,1,0,0,2.198,Pumice_02,8,02,6,8,2.198,0.336111139,-0.39907406,1,0,0,1.2911,Pumice_rect,8,1.291,1,13,0,13,0,1,,,,,,,,,,,,,
5c2c189b867f660001af5dc5,SCN,2024-06-20_15h43.12.619,LearnStrategy,2023.2.3,Win32,60.24096386,6,1,15,0.406481566,-0.246296282,1,0,0,3.3314,Gabbro_15,4,15,2,7,3.331,0.199999986,-0.25,1,0,0,1.0368,Diorite_rect,3,1.037,0,14,0,14,0,1,,,,,,,,,,,,,
5c2c189b867f660001af5dc5,SCN,2024-06-20_15h43.12.619,LearnStrategy,2023.2.3,Win32,60.24096386,6,1,16,-0.264814801,-0.392592607,1,0,0,2.7819,Obsidian_07,5,07,1,3,2.782,-0.363888882,-0.418518561,1,0,0,0.6201,Obsidian_rect,5,0.62,1,15,0,15,0,1,,,,,,,,,,,,,
5c2c189b867f660001af5dc5,SCN,2024-06-20_15h43.12.619,LearnStrategy,2023.2.3,Win32,60.24096386,6,2,1,,,,,,,,4,11,,,,,,,,,,,2,1.106,0,,,,,,-0.074074074,-0.262962977,1,0,0,1.1057,Basalt_rect,0,0,0,0,1,
5c2c189b867f660001af5dc5,SCN,2024-06-20_15h43.12.619,LearnStrategy,2023.2.3,Win32,60.24096386,6,2,2,,,,,,,,1,01,,,,,,,,,,,5,1.873,0,,,,,,-0.323148127,-0.390740783,1,0,0,1.8732,Obsidian_rect,1,0,1,0,1,
5c2c189b867f660001af5dc5,SCN,2024-06-20_15h43.12.619,LearnStrategy,2023.2.3,Win32,60.24096386,6,2,3,,,,,,,,6,07,,,,,,,,,,,6,1.024,1,,,,,,-0.125,-0.401851866,1,0,0,1.0235,Pegmatite_rect,2,0,2,0,1,
5c2c189b867f660001af5dc5,SCN,2024-06-20_15h43.12.619,LearnStrategy,2023.2.3,Win32,60.24096386,6,2,4,,,,,,,,8,15,,,,,,,,,,,8,1.323,1,,,,,,0.318518603,-0.381481524,1,0,0,1.3235,Pumice_rect,3,0,3,0,1,
5c2c189b867f660001af5dc5,SCN,2024-06-20_15h43.12.619,LearnStrategy,2023.2.3,Win32,60.24096386,6,2,5,,,,,,,,7,08,,,,,,,,,,,1,2.759,0,,,,,,-0.348148134,-0.249074088,1,0,0,2.7589,Andesite_rect,4,0,4,0,1,
5c2c189b867f660001af5dc5,SCN,2024-06-20_15h43.12.619,LearnStrategy,2023.2.3,Win32,60.24096386,6,2,6,,,,,,,,4,03,,,,,,,,,,,2,1.609,0,,,,,,-0.099999958,-0.25,1,0,0,1.6088,Basalt_rect,5,0,5,0,1,
5c2c189b867f660001af5dc5,SCN,2024-06-20_15h43.12.619,LearnStrategy,2023.2.3,Win32,60.24096386,6,2,7,,,,,,,,3,14,,,,,,,,,,,3,3.039,1,,,,,,0.10092594,-0.259259259,1,0,0,3.0388,Diorite_rect,6,0,6,0,1,
5c2c189b867f660001af5dc5,SCN,2024-06-20_15h43.12.619,LearnStrategy,2023.2.3,Win32,60.24096386,6,2,8,,,,,,,,1,14,,,,,,,,,,,4,2.273,0,,,,,,0.340740769,-0.253703718,1,0,0,2.2726,Gabbro_rect,7,0,7,0,1,
5c2c189b867f660001af5dc5,SCN,2024-06-20_15h43.12.619,LearnStrategy,2023.2.3,Win32,60.24096386,6,2,9,,,,,,,,8,14,,,,,,,,,,,8,1.041,1,,,,,,0.345370399,-0.400925954,1,0,0,1.0412,Pumice_rect,8,0,8,0,1,
5c2c189b867f660001af5dc5,SCN,2024-06-20_15h43.12.619,LearnStrategy,2023.2.3,Win32,60.24096386,6,2,10,,,,,,,,7,06,,,,,,,,,,,6,1.552,0,,,,,,-0.044444402,-0.410185213,1,0,0,1.5515,Pegmatite_rect,9,0,9,0,1,
5c2c189b867f660001af5dc5,SCN,2024-06-20_15h43.12.619,LearnStrategy,2023.2.3,Win32,60.24096386,6,2,11,,,,,,,,5,11,,,,,,,,,,,5,1.666,1,,,,,,-0.350925905,-0.382407436,1,0,0,1.6662,Obsidian_rect,10,0,10,0,1,
5c2c189b867f660001af5dc5,SCN,2024-06-20_15h43.12.619,LearnStrategy,2023.2.3,Win32,60.24096386,6,2,12,,,,,,,,3,16,,,,,,,,,,,3,3.567,1,,,,,,0.187037079,-0.264814801,1,0,0,3.5668,Diorite_rect,11,0,11,0,1,
5c2c189b867f660001af5dc5,SCN,2024-06-20_15h43.12.619,LearnStrategy,2023.2.3,Win32,60.24096386,6,2,13,,,,,,,,5,16,,,,,,,,,,,5,0.997,1,,,,,,-0.346296275,-0.411111125,1,0,0,0.9966,Obsidian_rect,12,0,12,0,1,
5c2c189b867f660001af5dc5,SCN,2024-06-20_15h43.12.619,LearnStrategy,2023.2.3,Win32,60.24096386,6,2,14,,,,,,,,2,11,,,,,,,,,,,1,3.007,0,,,,,,-0.322222215,-0.25,1,0,0,3.0071,Andesite_rect,13,0,13,0,1,
5c2c189b867f660001af5dc5,SCN,2024-06-20_15h43.12.619,LearnStrategy,2023.2.3,Win32,60.24096386,6,2,15,,,,,,,,6,15,,,,,,,,,,,6,1.272,1,,,,,,-0.05277775,-0.395370413,1,0,0,1.2721,Pegmatite_rect,14,0,14,0,1,
5c2c189b867f660001af5dc5,SCN,2024-06-20_15h43.12.619,LearnStrategy,2023.2.3,Win32,60.24096386,6,2,16,,,,,,,,2,02,,,,,,,,,,,2,1.672,1,,,,,,-0.110185199,-0.268518519,1,0,0,1.6723,Basalt_rect,15,0,15,0,1,
5c2c189b867f660001af5dc5,SCN,2024-06-20_15h43.12.619,LearnStrategy,2023.2.3,Win32,60.24096386,7,1,1,-0.057407379,0.215740734,1,0,0,4.5477,Peridotite_15,7,15,5,4,4.548,-0.095370328,-0.387962977,1,0,0,1.9188,Pegmatite_rect,6,1.919,0,0,0,0,0,1,,,,,,,,,,,,,
5c2c189b867f660001af5dc5,SCN,2024-06-20_15h43.12.619,LearnStrategy,2023.2.3,Win32,60.24096386,7,1,2,0.111111111,0.292592596,1,0,0,0.8813,Basalt_05,2,05,5,5,0.881,-0.111111111,-0.259259259,1,0,0,1.141,Basalt_rect,2,1.141,1,1,0,1,0,1,,,,,,,,,,,,,
5c2c189b867f660001af5dc5,SCN,2024-06-20_15h43.12.619,LearnStrategy,2023.2.3,Win32,60.24096386,7,1,3,0.227777764,0.295370367,1,0,0,0.7649,Diorite_13,3,13,5,6,0.765,-0.025925884,-0.257407436,1,0,0,0.7423,Basalt_rect,2,0.742,0,2,0,2,0,1,,,,,,,,,,,,,
5c2c189b867f660001af5dc5,SCN,2024-06-20_15h43.12.619,LearnStrategy,2023.2.3,Win32,60.24096386,7,1,4,0.421296296,0.224074063,1,0,0,1.365,Diorite_06,3,06,5,7,1.365,-0.124074088,-0.241666653,1,0,0,1.1746,Basalt_rect,2,1.175,0,3,0,3,0,1,,,,,,,,,,,,,
5c2c189b867f660001af5dc5,SCN,2024-06-20_15h43.12.619,LearnStrategy,2023.2.3,Win32,60.24096386,7,1,5,-0.562037044,0.431481481,1,0,0,1.1062,Pegmatite_03,6,03,6,1,1.106,-0.071296268,-0.393518519,1,0,0,0.8916,Pegmatite_rect,6,0.892,1,4,0,4,0,1,,,,,,,,,,,,,
5c2c189b867f660001af5dc5,SCN,2024-06-20_15h43.12.619,LearnStrategy,2023.2.3,Win32,60.24096386,7,1,6,-0.39907406,0.410185187,1,0,0,1.2151,Pumice_06,8,06,6,2,1.215,0.383333418,-0.400925954,1,0,0,0.8591,Pumice_rect,8,0.859,1,5,0,5,0,1,,,,,,,,,,,,,
5c2c189b867f660001af5dc5,SCN,2024-06-20_15h43.12.619,LearnStrategy,2023.2.3,Win32,60.24096386,7,1,7,-0.203703704,0.425925926,1,0,0,1.0977,Basalt_09,2,09,6,3,1.098,-0.045370384,-0.231481481,1,0,0,0.7918,Basalt_rect,2,0.792,1,6,0,6,0,1,,,,,,,,,,,,,
5c2c189b867f660001af5dc5,SCN,2024-06-20_15h43.12.619,LearnStrategy,2023.2.3,Win32,60.24096386,7,1,8,-0.090740698,0.452777779,1,0,0,0.9473,Peridotite_04,7,04,6,4,0.947,0.080555598,-0.380555541,1,0,0,1.0586,Peridotite_rect,7,1.059,1,7,0,7,0,1,,,,,,,,,,,,,
5c2c189b867f660001af5dc5,SCN,2024-06-20_15h43.12.619,LearnStrategy,2023.2.3,Win32,60.24096386,7,1,9,0.078703704,0.38333333,1,0,0,1.2141,Diorite_09,3,09,6,5,1.214,0.065740727,-0.261111153,1,0,0,1.4416,Diorite_rect,3,1.442,1,8,0,8,0,1,,,,,,,,,,,,,
5c2c189b867f660001af5dc5,SCN,2024-06-20_15h43.12.619,LearnStrategy,2023.2.3,Win32,60.24096386,7,1,10,0.252777806,0.367592591,1,0,0,1.9061,Diorite_11,3,11,6,6,1.906,0.132407436,-0.256481524,1,0,0,2.0751,Diorite_rect,3,2.075,1,9,0,9,0,1,,,,,,,,,,,,,
5c2c189b867f660001af5dc5,SCN,2024-06-20_15h43.12.619,LearnStrategy,2023.2.3,Win32,60.24096386,7,1,11,0.436111168,0.390740739,1,0,0,1.3635,Peridotite_13,7,13,6,7,1.363,-0.040740755,-0.398148148,1,0,0,1.0595,Pegmatite_rect,6,1.06,0,10,0,10,0,1,,,,,,,,,,,,,
5c2c189b867f660001af5dc5,SCN,2024-06-20_15h43.12.619,LearnStrategy,2023.2.3,Win32,60.24096386,7,1,12,0.573148233,0.390740739,1,0,0,1.3314,Pumice_02,8,02,6,8,1.331,0.324074074,-0.390740783,1,0,0,1.4597,Pumice_rect,8,1.46,1,11,0,11,0,1,,,,,,,,,,,,,
5c2c189b867f660001af5dc5,SCN,2024-06-20_15h43.12.619,LearnStrategy,2023.2.3,Win32,60.24096386,7,1,13,-0.53611109,0.232407411,1,0,0,1.0156,Peridotite_14,7,14,5,1,1.016,-0.19259255,-0.390740783,1,0,0,1.6074,Pegmatite_rect,6,1.607,0,12,0,12,0,1,,,,,,,,,,,,,
5c2c189b867f660001af5dc5,SCN,2024-06-20_15h43.12.619,LearnStrategy,2023.2.3,Win32,60.24096386,7,1,14,-0.40648146,0.247222212,1,0,0,1.0646,Andesite_16,1,16,5,2,1.065,-0.312037044,-0.265740783,1,0,0,1.8103,Andesite_rect,1,1.81,1,13,0,13,0,1,,,,,,,,,,,,,
5c2c189b867f660001af5dc5,SCN,2024-06-20_15h43.12.619,LearnStrategy,2023.2.3,Win32,60.24096386,7,1,15,-0.247222194,0.283333337,1,0,0,1.197,Pumice_04,8,04,5,3,1.197,0.393518519,-0.393518519,1,0,0,1.4919,Pumice_rect,8,1.492,1,14,0,14,0,1,,,,,,,,,,,,,
5c2c189b867f660001af5dc5,SCN,2024-06-20_15h43.12.619,LearnStrategy,2023.2.3,Win32,60.24096386,7,1,16,-0.112037023,0.199074074,1,0,0,0.7314,Peridotite_15,7,15,5,4,0.731,-0.035185143,-0.39444443,1,0,0,1.4091,Pegmatite_rect,6,1.409,0,15,0,15,0,1,,,,,,,,,,,,,
5c2c189b867f660001af5dc5,SCN,2024-06-20_15h43.12.619,LearnStrategy,2023.2.3,Win32,60.24096386,7,2,1,,,,,,,,7,06,,,,,,,,,,,7,2.007,1,,,,,,0.10092594,-0.393518519,1,0,0,2.007,Peridotite_rect,0,0,0,0,1,
5c2c189b867f660001af5dc5,SCN,2024-06-20_15h43.12.619,LearnStrategy,2023.2.3,Win32,60.24096386,7,2,2,,,,,,,,5,12,,,,,,,,,,,5,0.956,1,,,,,,-0.335185192,-0.413888931,1,0,0,0.956,Obsidian_rect,1,0,1,0,1,
5c2c189b867f660001af5dc5,SCN,2024-06-20_15h43.12.619,LearnStrategy,2023.2.3,Win32,60.24096386,7,2,3,,,,,,,,4,10,,,,,,,,,,,4,2.79,1,,,,,,0.357407464,-0.262962977,1,0,0,2.7902,Gabbro_rect,2,0,2,0,1,
5c2c189b867f660001af5dc5,SCN,2024-06-20_15h43.12.619,LearnStrategy,2023.2.3,Win32,60.24096386,7,2,4,,,,,,,,2,16,,,,,,,,,,,4,2.207,0,,,,,,0.353703675,-0.259259259,1,0,0,2.2074,Gabbro_rect,3,0,3,0,1,
5c2c189b867f660001af5dc5,SCN,2024-06-20_15h43.12.619,LearnStrategy,2023.2.3,Win32,60.24096386,7,2,5,,,,,,,,1,01,,,,,,,,,,,1,2.173,1,,,,,,-0.351851852,-0.24537037,1,0,0,2.1735,Andesite_rect,4,0,4,0,1,
5c2c189b867f660001af5dc5,SCN,2024-06-20_15h43.12.619,LearnStrategy,2023.2.3,Win32,60.24096386,7,2,6,,,,,,,,5,10,,,,,,,,,,,5,1.69,1,,,,,,-0.345370363,-0.420370384,1,0,0,1.6897,Obsidian_rect,5,0,5,0,1,
5c2c189b867f660001af5dc5,SCN,2024-06-20_15h43.12.619,LearnStrategy,2023.2.3,Win32,60.24096386,7,2,7,,,,,,,,8,08,,,,,,,,,,,8,1.107,1,,,,,,0.3648149,-0.421296296,1,0,0,1.1067,Pumice_rect,6,0,6,0,1,
5c2c189b867f660001af5dc5,SCN,2024-06-20_15h43.12.619,LearnStrategy,2023.2.3,Win32,60.24096386,7,2,8,,,,,,,,1,05,,,,,,,,,,,1,2.058,1,,,,,,-0.336111104,-0.259259259,1,0,0,2.0582,Andesite_rect,7,0,7,0,1,
5c2c189b867f660001af5dc5,SCN,2024-06-20_15h43.12.619,LearnStrategy,2023.2.3,Win32,60.24096386,7,2,9,,,,,,,,7,07,,,,,,,,,,,2,3.106,0,,,,,,-0.073148162,-0.251851894,1,0,0,3.1062,Basalt_rect,8,0,8,0,1,
5c2c189b867f660001af5dc5,SCN,2024-06-20_15h43.12.619,LearnStrategy,2023.2.3,Win32,60.24096386,7,2,10,,,,,,,,6,06,,,,,,,,,,,3,2.175,0,,,,,,0.193518533,-0.247222265,1,0,0,2.175,Diorite_rect,9,0,9,0,1,
5c2c189b867f660001af5dc5,SCN,2024-06-20_15h43.12.619,LearnStrategy,2023.2.3,Win32,60.24096386,7,2,11,,,,,,,,6,13,,,,,,,,,,,3,0.624,0,,,,,,0.193518533,-0.247222265,1,0,0,0.624,Diorite_rect,10,0,10,0,1,
5c2c189b867f660001af5dc5,SCN,2024-06-20_15h43.12.619,LearnStrategy,2023.2.3,Win32,60.24096386,7,2,12,,,,,,,,3,08,,,,,,,,,,,7,2.657,0,,,,,,0.174074102,-0.402777778,1,0,0,2.6567,Peridotite_rect,11,0,11,0,1,
5c2c189b867f660001af5dc5,SCN,2024-06-20_15h43.12.619,LearnStrategy,2023.2.3,Win32,60.24096386,7,2,13,,,,,,,,4,01,,,,,,,,,,,6,2.076,0,,,,,,-0.090740698,-0.400925954,1,0,0,2.0762,Pegmatite_rect,12,0,12,0,1,
5c2c189b867f660001af5dc5,SCN,2024-06-20_15h43.12.619,LearnStrategy,2023.2.3,Win32,60.24096386,7,2,14,,,,,,,,2,10,,,,,,,,,,,4,4.075,0,,,,,,0.437037009,-0.260185171,1,0,0,4.0745,Gabbro_rect,13,0,13,0,1,
5c2c189b867f660001af5dc5,SCN,2024-06-20_15h43.12.619,LearnStrategy,2023.2.3,Win32,60.24096386,7,2,15,,,,,,,,3,15,,,,,,,,,,,4,1.173,0,,,,,,0.409259231,-0.237037023,1,0,0,1.1729,Gabbro_rect,14,0,14,0,1,
5c2c189b867f660001af5dc5,SCN,2024-06-20_15h43.12.619,LearnStrategy,2023.2.3,Win32,60.24096386,7,2,16,,,,,,,,8,14,,,,,,,,,,,8,1.341,1,,,,,,0.437037009,-0.385185171,1,0,0,1.3407,Pumice_rect,15,0,15,0,1,
5c2c189b867f660001af5dc5,SCN,2024-06-20_15h43.12.619,LearnStrategy,2023.2.3,Win32,60.24096386,8,1,1,-0.064814815,0.244444441,1,0,0,1.7801,Peridotite_15,7,15,5,4,1.78,0.101851852,-0.412037037,1,0,0,1.7758,Peridotite_rect,7,1.776,1,0,0,0,0,1,,,,,,,,,,,,,
5c2c189b867f660001af5dc5,SCN,2024-06-20_15h43.12.619,LearnStrategy,2023.2.3,Win32,60.24096386,8,1,2,0.083333333,0.2462963,1,0,0,1.5482,Basalt_05,2,05,5,5,1.548,-0.086111069,-0.244444459,1,0,0,1.0623,Basalt_rect,2,1.062,1,1,0,1,0,1,,,,,,,,,,,,,
5c2c189b867f660001af5dc5,SCN,2024-06-20_15h43.12.619,LearnStrategy,2023.2.3,Win32,60.24096386,8,1,3,0.194444444,0.229629623,1,0,0,1.0487,Diorite_13,3,13,5,6,1.049,0.163888931,-0.243518547,1,0,0,1.2737,Diorite_rect,3,1.274,1,2,0,2,0,1,,,,,,,,,,,,,
5c2c189b867f660001af5dc5,SCN,2024-06-20_15h43.12.619,LearnStrategy,2023.2.3,Win32,60.24096386,8,1,4,0.411111196,0.202777757,1,0,0,0.8815,Diorite_06,3,06,5,7,0.881,-0.079629616,-0.231481481,1,0,0,1.1087,Basalt_rect,2,1.109,0,3,0,3,0,1,,,,,,,,,,,,,
5c2c189b867f660001af5dc5,SCN,2024-06-20_15h43.12.619,LearnStrategy,2023.2.3,Win32,60.24096386,8,1,5,0.574074074,0.237037041,1,0,0,1.1154,Obsidian_06,5,06,5,8,1.115,-0.336111104,-0.381481524,1,0,0,0.8628,Obsidian_rect,5,0.863,1,4,0,4,0,1,,,,,,,,,,,,,
5c2c189b867f660001af5dc5,SCN,2024-06-20_15h43.12.619,LearnStrategy,2023.2.3,Win32,60.24096386,8,1,6,-0.567592586,0.054629608,1,0,0,1.1811,Pumice_03,8,03,4,1,1.181,0.385185242,-0.398148148,1,0,0,1.5932,Pumice_rect,8,1.593,1,5,0,5,0,1,,,,,,,,,,,,,
5c2c189b867f660001af5dc5,SCN,2024-06-20_15h43.12.619,LearnStrategy,2023.2.3,Win32,60.24096386,8,1,7,-0.37037037,0.111111111,1,0,0,0.8318,Andesite_02,1,02,4,2,0.832,0.308333362,-0.409259302,1,0,0,1.1579,Pumice_rect,8,1.158,0,6,0,6,0,1,,,,,,,,,,,,,
5c2c189b867f660001af5dc5,SCN,2024-06-20_15h43.12.619,LearnStrategy,2023.2.3,Win32,60.24096386,8,1,8,-0.217592593,0.099074081,1,0,0,1.1981,Basalt_04,2,04,4,3,1.198,-0.10092594,-0.257407436,1,0,0,1.0916,Basalt_rect,2,1.092,1,7,0,7,0,1,,,,,,,,,,,,,
5c2c189b867f660001af5dc5,SCN,2024-06-20_15h43.12.619,LearnStrategy,2023.2.3,Win32,60.24096386,8,1,9,-0.051851838,0.089814822,1,0,0,0.6643,Andesite_11,1,11,4,4,0.664,-0.329629616,-0.228703746,1,0,0,1.8925,Andesite_rect,1,1.892,1,8,0,8,0,1,,,,,,,,,,,,,
5c2c189b867f660001af5dc5,SCN,2024-06-20_15h43.12.619,LearnStrategy,2023.2.3,Win32,60.24096386,8,1,10,0.063888903,0.083333333,1,0,0,0.8302,Diorite_10,3,10,4,5,0.83,-0.36296297,-0.23055557,1,0,0,0.9325,Andesite_rect,1,0.933,0,9,0,9,0,1,,,,,,,,,,,,,
5c2c189b867f660001af5dc5,SCN,2024-06-20_15h43.12.619,LearnStrategy,2023.2.3,Win32,60.24096386,8,1,11,0.208333333,0.087962963,1,0,0,0.891,Pegmatite_09,6,09,4,6,0.891,-0.05277775,-0.411111125,1,0,0,1.2743,Pegmatite_rect,6,1.274,1,10,0,10,0,1,,,,,,,,,,,,,
5c2c189b867f660001af5dc5,SCN,2024-06-20_15h43.12.619,LearnStrategy,2023.2.3,Win32,60.24096386,8,1,12,0.385185242,0.074999986,1,0,0,1.2713,Andesite_03,1,03,4,7,1.271,-0.324999986,-0.259259259,1,0,0,3.093,Andesite_rect,1,3.093,1,11,0,11,0,1,,,,,,,,,,,,,
5c2c189b867f660001af5dc5,SCN,2024-06-20_15h43.12.619,LearnStrategy,2023.2.3,Win32,60.24096386,8,1,13,0.529629601,0.062962956,1,0,0,1.6008,Basalt_08,2,08,4,8,1.601,-0.051851838,-0.244444459,1,0,0,1.1321,Basalt_rect,2,1.132,1,12,0,12,0,1,,,,,,,,,,,,,
5c2c189b867f660001af5dc5,SCN,2024-06-20_15h43.12.619,LearnStrategy,2023.2.3,Win32,60.24096386,8,1,14,-0.593518522,-0.150925954,1,0,0,1.1484,Obsidian_14,5,14,3,1,1.148,-0.439814815,-0.397222236,1,0,0,0.8429,Obsidian_rect,5,0.843,1,13,0,13,0,1,,,,,,,,,,,,,
5c2c189b867f660001af5dc5,SCN,2024-06-20_15h43.12.619,LearnStrategy,2023.2.3,Win32,60.24096386,8,1,15,-0.398148148,-0.083333333,1,0,0,0.863,Gabbro_12,4,12,3,2,0.863,-0.091666681,-0.233333376,1,0,0,0.7584,Basalt_rect,2,0.758,0,14,0,14,0,1,,,,,,,,,,,,,
5c2c189b867f660001af5dc5,SCN,2024-06-20_15h43.12.619,LearnStrategy,2023.2.3,Win32,60.24096386,8,1,16,-0.273148148,-0.083333333,1,0,0,0.7484,Basalt_06,2,06,3,3,0.748,-0.113888847,-0.244444459,1,0,0,0.7256,Basalt_rect,2,0.726,1,15,0,15,0,1,,,,,,,,,,,,,
5c2c189b867f660001af5dc5,SCN,2024-06-20_15h43.12.619,LearnStrategy,2023.2.3,Win32,60.24096386,8,2,1,,,,,,,,8,10,,,,,,,,,,,1,1.756,0,,,,,,-0.316666674,-0.257407436,1,0,0,1.7559,Andesite_rect,0,0,0,0,1,
5c2c189b867f660001af5dc5,SCN,2024-06-20_15h43.12.619,LearnStrategy,2023.2.3,Win32,60.24096386,8,2,2,,,,,,,,7,02,,,,,,,,,,,7,2.473,1,,,,,,0.045370384,-0.396296325,1,0,0,2.4731,Peridotite_rect,1,0,1,0,1,
5c2c189b867f660001af5dc5,SCN,2024-06-20_15h43.12.619,LearnStrategy,2023.2.3,Win32,60.24096386,8,2,3,,,,,,,,1,09,,,,,,,,,,,2,1,0,,,,,,-0.089814787,-0.23055557,1,0,0,0.9998,Basalt_rect,2,0,2,0,1,
5c2c189b867f660001af5dc5,SCN,2024-06-20_15h43.12.619,LearnStrategy,2023.2.3,Win32,60.24096386,8,2,4,,,,,,,,8,09,,,,,,,,,,,3,2.552,0,,,,,,0.137037065,-0.262037065,1,0,0,2.5524,Diorite_rect,3,0,3,0,1,
5c2c189b867f660001af5dc5,SCN,2024-06-20_15h43.12.619,LearnStrategy,2023.2.3,Win32,60.24096386,8,2,5,,,,,,,,4,13,,,,,,,,,,,4,1.018,1,,,,,,0.337037122,-0.233333376,1,0,0,1.0179,Gabbro_rect,4,0,4,0,1,
5c2c189b867f660001af5dc5,SCN,2024-06-20_15h43.12.619,LearnStrategy,2023.2.3,Win32,60.24096386,8,2,6,,,,,,,,2,12,,,,,,,,,,,2,0.961,1,,,,,,-0.083333333,-0.239814829,1,0,0,0.9611,Basalt_rect,5,0,5,0,1,
5c2c189b867f660001af5dc5,SCN,2024-06-20_15h43.12.619,LearnStrategy,2023.2.3,Win32,60.24096386,8,2,7,,,,,,,,2,01,,,,,,,,,,,2,1.203,1,,,,,,-0.066666638,-0.23055557,1,0,0,1.2025,Basalt_rect,6,0,6,0,1,
5c2c189b867f660001af5dc5,SCN,2024-06-20_15h43.12.619,LearnStrategy,2023.2.3,Win32,60.24096386,8,2,8,,,,,,,,4,11,,,,,,,,,,,2,2.266,0,,,,,,-0.112037023,-0.229629658,1,0,0,2.2661,Basalt_rect,7,0,7,0,1,
5c2c189b867f660001af5dc5,SCN,2024-06-20_15h43.12.619,LearnStrategy,2023.2.3,Win32,60.24096386,8,2,9,,,,,,,,5,08,,,,,,,,,,,5,1.299,1,,,,,,-0.363888882,-0.387962977,1,0,0,1.2986,Obsidian_rect,8,0,8,0,1,
5c2c189b867f660001af5dc5,SCN,2024-06-20_15h43.12.619,LearnStrategy,2023.2.3,Win32,60.24096386,8,2,10,,,,,,,,3,12,,,,,,,,,,,1,0.867,0,,,,,,-0.340740734,-0.25,1,0,0,0.8671,Andesite_rect,9,0,9,0,1,
5c2c189b867f660001af5dc5,SCN,2024-06-20_15h43.12.619,LearnStrategy,2023.2.3,Win32,60.24096386,8,2,11,,,,,,,,6,15,,,,,,,,,,,6,2.058,1,,,,,,-0.066666638,-0.397222236,1,0,0,2.058,Pegmatite_rect,10,0,10,0,1,
5c2c189b867f660001af5dc5,SCN,2024-06-20_15h43.12.619,LearnStrategy,2023.2.3,Win32,60.24096386,8,2,12,,,,,,,,1,14,,,,,,,,,,,3,2.058,0,,,,,,0.183333362,-0.26944443,1,0,0,2.0576,Diorite_rect,11,0,11,0,1,
5c2c189b867f660001af5dc5,SCN,2024-06-20_15h43.12.619,LearnStrategy,2023.2.3,Win32,60.24096386,8,2,13,,,,,,,,7,08,,,,,,,,,,,6,2.343,0,,,,,,-0.061111097,-0.37962963,1,0,0,2.343,Pegmatite_rect,12,0,12,0,1,
5c2c189b867f660001af5dc5,SCN,2024-06-20_15h43.12.619,LearnStrategy,2023.2.3,Win32,60.24096386,8,2,14,,,,,,,,5,02,,,,,,,,,,,5,2.064,1,,,,,,-0.326851845,-0.39444443,1,0,0,2.0639,Obsidian_rect,13,0,13,0,1,
5c2c189b867f660001af5dc5,SCN,2024-06-20_15h43.12.619,LearnStrategy,2023.2.3,Win32,60.24096386,8,2,15,,,,,,,,6,10,,,,,,,,,,,6,1.64,1,,,,,,-0.123148106,-0.40370369,1,0,0,1.6401,Pegmatite_rect,14,0,14,0,1,
5c2c189b867f660001af5dc5,SCN,2024-06-20_15h43.12.619,LearnStrategy,2023.2.3,Win32,60.24096386,8,2,16,,,,,,,,3,16,,,,,,,,,,,3,2.173,1,,,,,,0.095370399,-0.249074088,1,0,0,2.1725,Diorite_rect,15,0,15,0,1,
5c2c189b867f660001af5dc5,SCN,2024-06-20_15h43.12.619,LearnStrategy,2023.2.3,Win32,60.24096386,9,1,1,-0.088888875,-0.102777764,1,0,0,2.8641,Obsidian_09,5,09,3,4,2.864,-0.343518504,-0.40370369,1,0,0,1.4512,Obsidian_rect,5,1.451,1,0,0,0,0,1,,,,,,,,,,,,,
5c2c189b867f660001af5dc5,SCN,2024-06-20_15h43.12.619,LearnStrategy,2023.2.3,Win32,60.24096386,9,1,2,0.043518561,-0.093518504,1,0,0,0.8151,Pegmatite_08,6,08,3,5,0.815,-0.029629601,-0.388888889,1,0,0,1.2922,Pegmatite_rect,6,1.292,1,1,0,1,0,1,,,,,,,,,,,,,
5c2c189b867f660001af5dc5,SCN,2024-06-20_15h43.12.619,LearnStrategy,2023.2.3,Win32,60.24096386,9,1,3,0.273148148,-0.113888917,1,0,0,0.765,Pumice_05,8,05,3,6,0.765,0.399999972,-0.404629672,1,0,0,1.0086,Pumice_rect,8,1.009,1,2,0,2,0,1,,,,,,,,,,,,,
5c2c189b867f660001af5dc5,SCN,2024-06-20_15h43.12.619,LearnStrategy,2023.2.3,Win32,60.24096386,9,1,4,0.399074131,-0.115740741,1,0,0,0.7988,Pegmatite_16,6,16,3,7,0.799,0.093518504,-0.409259302,1,0,0,1.3584,Peridotite_rect,7,1.358,0,3,0,3,0,1,,,,,,,,,,,,,
5c2c189b867f660001af5dc5,SCN,2024-06-20_15h43.12.619,LearnStrategy,2023.2.3,Win32,60.24096386,9,1,5,0.54351849,-0.130555541,1,0,0,1.0651,Obsidian_05,5,05,3,8,1.065,-0.363888882,-0.39444443,1,0,0,1.7088,Obsidian_rect,5,1.709,1,4,0,4,0,1,,,,,,,,,,,,,
5c2c189b867f660001af5dc5,SCN,2024-06-20_15h43.12.619,LearnStrategy,2023.2.3,Win32,60.24096386,9,1,6,-0.574999986,-0.287037037,1,0,0,1.0638,Gabbro_09,4,09,2,1,1.064,0.107407393,-0.381481524,1,0,0,3.2935,Peridotite_rect,7,3.293,0,5,0,5,0,1,,,,,,,,,,,,,
5c2c189b867f660001af5dc5,SCN,2024-06-20_15h43.12.619,LearnStrategy,2023.2.3,Win32,60.24096386,9,1,7,-0.386111118,-0.271296325,1,0,0,2.5646,Gabbro_16,4,16,2,2,2.565,-0.095370328,-0.228703746,1,0,0,2.1213,Basalt_rect,2,2.121,0,6,0,6,0,1,,,,,,,,,,,,,
5c2c189b867f660001af5dc5,SCN,2024-06-20_15h43.12.619,LearnStrategy,2023.2.3,Win32,60.24096386,9,1,8,-0.184259273,-0.239814829,1,0,0,0.9983,Peridotite_05,7,05,2,3,0.998,-0.316666674,-0.244444459,1,0,0,1.325,Andesite_rect,1,1.325,0,7,0,7,0,1,,,,,,,,,,,,,
5c2c189b867f660001af5dc5,SCN,2024-06-20_15h43.12.619,LearnStrategy,2023.2.3,Win32,60.24096386,9,1,9,-0.074074074,-0.304629644,1,0,0,0.7664,Gabbro_08,4,08,2,4,0.766,-0.334259245,-0.260185171,1,0,0,0.9414,Andesite_rect,1,0.941,0,8,0,8,0,1,,,,,,,,,,,,,
5c2c189b867f660001af5dc5,SCN,2024-06-20_15h43.12.619,LearnStrategy,2023.2.3,Win32,60.24096386,9,1,10,0.074074074,-0.287037037,1,0,0,0.7646,Basalt_14,2,14,2,5,0.765,0.356481481,-0.253703718,1,0,0,1.4093,Gabbro_rect,4,1.409,0,9,0,9,0,1,,,,,,,,,,,,,
5c2c189b867f660001af5dc5,SCN,2024-06-20_15h43.12.619,LearnStrategy,2023.2.3,Win32,60.24096386,9,1,11,0.209259245,-0.237037023,1,0,0,0.9815,Obsidian_04,5,04,2,6,0.981,-0.321296303,-0.392592607,1,0,0,0.9329,Obsidian_rect,5,0.933,1,10,0,10,0,1,,,,,,,,,,,,,
5c2c189b867f660001af5dc5,SCN,2024-06-20_15h43.12.619,LearnStrategy,2023.2.3,Win32,60.24096386,9,1,12,0.384259259,-0.295370384,1,0,0,1.0766,Gabbro_15,4,15,2,7,1.077,0.411111196,-0.233333376,1,0,0,0.5291,Gabbro_rect,4,0.529,1,11,0,11,0,1,,,,,,,,,,,,,
5c2c189b867f660001af5dc5,SCN,2024-06-20_15h43.12.619,LearnStrategy,2023.2.3,Win32,60.24096386,9,1,13,0.555555556,-0.272222236,1,0,0,1.3988,Pumice_16,8,16,2,8,1.399,0.405555584,-0.37962963,1,0,0,1.4251,Pumice_rect,8,1.425,1,12,0,12,0,1,,,,,,,,,,,,,
5c2c189b867f660001af5dc5,SCN,2024-06-20_15h43.12.619,LearnStrategy,2023.2.3,Win32,60.24096386,9,1,14,-0.589814822,-0.438888903,1,0,0,1.1316,Pegmatite_12,6,12,1,1,1.132,-0.381481489,-0.256481524,1,0,0,1.3428,Andesite_rect,1,1.343,0,13,0,13,0,1,,,,,,,,,,,,,
5c2c189b867f660001af5dc5,SCN,2024-06-20_15h43.12.619,LearnStrategy,2023.2.3,Win32,60.24096386,9,1,15,-0.388888889,-0.387037065,1,0,0,0.8811,Diorite_02,3,02,1,2,0.881,-0.324999986,-0.258333347,1,0,0,0.9057,Andesite_rect,1,0.906,0,14,0,14,0,1,,,,,,,,,,,,,
5c2c189b867f660001af5dc5,SCN,2024-06-20_15h43.12.619,LearnStrategy,2023.2.3,Win32,60.24096386,9,1,16,-0.287037037,-0.426851838,1,0,0,0.8647,Obsidian_07,5,07,1,3,0.865,-0.343518504,-0.397222236,1,0,0,0.9749,Obsidian_rect,5,0.975,1,15,0,15,0,1,,,,,,,,,,,,,
5c2c189b867f660001af5dc5,SCN,2024-06-20_15h43.12.619,LearnStrategy,2023.2.3,Win32,60.24096386,9,2,1,,,,,,,,3,07,,,,,,,,,,,1,0.94,0,,,,,,-0.333333333,-0.268518519,1,0,0,0.9402,Andesite_rect,0,0,0,0,1,
5c2c189b867f660001af5dc5,SCN,2024-06-20_15h43.12.619,LearnStrategy,2023.2.3,Win32,60.24096386,9,2,2,,,,,,,,5,16,,,,,,,,,,,5,1.305,1,,,,,,-0.332407386,-0.384259259,1,0,0,1.3051,Obsidian_rect,1,0,1,0,1,
5c2c189b867f660001af5dc5,SCN,2024-06-20_15h43.12.619,LearnStrategy,2023.2.3,Win32,60.24096386,9,2,3,,,,,,,,1,07,,,,,,,,,,,3,1.441,0,,,,,,0.090740769,-0.256481524,1,0,0,1.4411,Diorite_rect,2,0,2,0,1,
5c2c189b867f660001af5dc5,SCN,2024-06-20_15h43.12.619,LearnStrategy,2023.2.3,Win32,60.24096386,9,2,4,,,,,,,,6,07,,,,,,,,,,,6,1.057,1,,,,,,-0.12037037,-0.391666695,1,0,0,1.057,Pegmatite_rect,3,0,3,0,1,
5c2c189b867f660001af5dc5,SCN,2024-06-20_15h43.12.619,LearnStrategy,2023.2.3,Win32,60.24096386,9,2,5,,,,,,,,1,04,,,,,,,,,,,4,1.824,0,,,,,,0.334259316,-0.26944443,1,0,0,1.8238,Gabbro_rect,4,0,4,0,1,
5c2c189b867f660001af5dc5,SCN,2024-06-20_15h43.12.619,LearnStrategy,2023.2.3,Win32,60.24096386,9,2,6,,,,,,,,5,11,,,,,,,,,,,5,0.941,1,,,,,,-0.452777757,-0.417592578,1,0,0,0.9409,Obsidian_rect,5,0,5,0,1,
5c2c189b867f660001af5dc5,SCN,2024-06-20_15h43.12.619,LearnStrategy,2023.2.3,Win32,60.24096386,9,2,7,,,,,,,,2,02,,,,,,,,,,,2,1.04,1,,,,,,-0.183333291,-0.236111111,1,0,0,1.0401,Basalt_rect,6,0,6,0,1,
5c2c189b867f660001af5dc5,SCN,2024-06-20_15h43.12.619,LearnStrategy,2023.2.3,Win32,60.24096386,9,2,8,,,,,,,,4,14,,,,,,,,,,,4,1.914,1,,,,,,0.338888945,-0.25462963,1,0,0,1.9145,Gabbro_rect,7,0,7,0,1,
5c2c189b867f660001af5dc5,SCN,2024-06-20_15h43.12.619,LearnStrategy,2023.2.3,Win32,60.24096386,9,2,9,,,,,,,,6,05,,,,,,,,,,,3,1.449,0,,,,,,0.071296339,-0.257407436,1,0,0,1.4492,Diorite_rect,8,0,8,0,1,
5c2c189b867f660001af5dc5,SCN,2024-06-20_15h43.12.619,LearnStrategy,2023.2.3,Win32,60.24096386,9,2,10,,,,,,,,8,15,,,,,,,,,,,8,1.565,1,,,,,,0.310185185,-0.382407436,1,0,0,1.5652,Pumice_rect,9,0,9,0,1,
5c2c189b867f660001af5dc5,SCN,2024-06-20_15h43.12.619,LearnStrategy,2023.2.3,Win32,60.24096386,9,2,11,,,,,,,,8,13,,,,,,,,,,,8,0.696,1,,,,,,0.310185185,-0.382407436,1,0,0,0.6959,Pumice_rect,10,0,10,0,1,
5c2c189b867f660001af5dc5,SCN,2024-06-20_15h43.12.619,LearnStrategy,2023.2.3,Win32,60.24096386,9,2,12,,,,,,,,3,14,,,,,,,,,,,3,1.299,1,,,,,,0.059259273,-0.237037023,1,0,0,1.2986,Diorite_rect,11,0,11,0,1,
5c2c189b867f660001af5dc5,SCN,2024-06-20_15h43.12.619,LearnStrategy,2023.2.3,Win32,60.24096386,9,2,13,,,,,,,,2,11,,,,,,,,,,,2,1.739,1,,,,,,-0.183333291,-0.271296325,1,0,0,1.7394,Basalt_rect,12,0,12,0,1,
5c2c189b867f660001af5dc5,SCN,2024-06-20_15h43.12.619,LearnStrategy,2023.2.3,Win32,60.24096386,9,2,14,,,,,,,,7,10,,,,,,,,,,,6,1.142,0,,,,,,-0.031481496,-0.387037065,1,0,0,1.1419,Pegmatite_rect,13,0,13,0,1,
5c2c189b867f660001af5dc5,SCN,2024-06-20_15h43.12.619,LearnStrategy,2023.2.3,Win32,60.24096386,9,2,15,,,,,,,,7,16,,,,,,,,,,,7,1.091,1,,,,,,0.086111139,-0.396296325,1,0,0,1.0907,Peridotite_rect,14,0,14,0,1,
5c2c189b867f660001af5dc5,SCN,2024-06-20_15h43.12.619,LearnStrategy,2023.2.3,Win32,60.24096386,9,2,16,,,,,,,,4,03,,,,,,,,,,,2,1.29,0,,,,,,-0.063888903,-0.233333376,1,0,0,1.2903,Basalt_rect,15,0,15,0,1,
5c2c189b867f660001af5dc5,SCN,2024-06-20_15h43.12.619,LearnStrategy,2023.2.3,Win32,60.24096386,,,,,,,,,,,,,,,,,,,,,,,,,,,,,,,,,,,,,,,,,,,0
5c2c189b867f660001af5dc5,SCN,2024-06-20_15h43.12.619,LearnStrategy,2023.2.3,Win32,60.24096386,,,,,,,,,,,,,,,,,,,,,,,,,,,,,,,,,,,,,,,,,,,
5c2c189b867f660001af5dc5,SCN,2024-06-20_15h43.12.619,LearnStrategy,2023.2.3,Win32,60.24096386,,,,,,,,,,,6,12,1,1,,,,,,,,,,,,,,,,,,,,,,,,,,,,,
5c2c189b867f660001af5dc5,SCN,2024-06-20_15h43.12.619,LearnStrategy,2023.2.3,Win32,60.24096386,,,,,,,,,,,3,02,1,2,,,,,,,,,,,,,,,,,,,,,,,,,,,,,
5c2c189b867f660001af5dc5,SCN,2024-06-20_15h43.12.619,LearnStrategy,2023.2.3,Win32,60.24096386,,,,,,,,,,,5,07,1,3,,,,,,,,,,,,,,,,,,,,,,,,,,,,,
5c2c189b867f660001af5dc5,SCN,2024-06-20_15h43.12.619,LearnStrategy,2023.2.3,Win32,60.24096386,,,,,,,,,,,7,12,1,4,,,,,,,,,,,,,,,,,,,,,,,,,,,,,
5c2c189b867f660001af5dc5,SCN,2024-06-20_15h43.12.619,LearnStrategy,2023.2.3,Win32,60.24096386,,,,,,,,,,,6,11,1,5,,,,,,,,,,,,,,,,,,,,,,,,,,,,,
5c2c189b867f660001af5dc5,SCN,2024-06-20_15h43.12.619,LearnStrategy,2023.2.3,Win32,60.24096386,,,,,,,,,,,4,05,1,6,,,,,,,,,,,,,,,,,,,,,,,,,,,,,
5c2c189b867f660001af5dc5,SCN,2024-06-20_15h43.12.619,LearnStrategy,2023.2.3,Win32,60.24096386,,,,,,,,,,,1,06,1,7,,,,,,,,,,,,,,,,,,,,,,,,,,,,,
5c2c189b867f660001af5dc5,SCN,2024-06-20_15h43.12.619,LearnStrategy,2023.2.3,Win32,60.24096386,,,,,,,,,,,1,10,1,8,,,,,,,,,,,,,,,,,,,,,,,,,,,,,
5c2c189b867f660001af5dc5,SCN,2024-06-20_15h43.12.619,LearnStrategy,2023.2.3,Win32,60.24096386,,,,,,,,,,,4,09,2,1,,,,,,,,,,,,,,,,,,,,,,,,,,,,,
5c2c189b867f660001af5dc5,SCN,2024-06-20_15h43.12.619,LearnStrategy,2023.2.3,Win32,60.24096386,,,,,,,,,,,4,16,2,2,,,,,,,,,,,,,,,,,,,,,,,,,,,,,
5c2c189b867f660001af5dc5,SCN,2024-06-20_15h43.12.619,LearnStrategy,2023.2.3,Win32,60.24096386,,,,,,,,,,,7,05,2,3,,,,,,,,,,,,,,,,,,,,,,,,,,,,,
5c2c189b867f660001af5dc5,SCN,2024-06-20_15h43.12.619,LearnStrategy,2023.2.3,Win32,60.24096386,,,,,,,,,,,4,08,2,4,,,,,,,,,,,,,,,,,,,,,,,,,,,,,
5c2c189b867f660001af5dc5,SCN,2024-06-20_15h43.12.619,LearnStrategy,2023.2.3,Win32,60.24096386,,,,,,,,,,,2,14,2,5,,,,,,,,,,,,,,,,,,,,,,,,,,,,,
5c2c189b867f660001af5dc5,SCN,2024-06-20_15h43.12.619,LearnStrategy,2023.2.3,Win32,60.24096386,,,,,,,,,,,5,04,2,6,,,,,,,,,,,,,,,,,,,,,,,,,,,,,
5c2c189b867f660001af5dc5,SCN,2024-06-20_15h43.12.619,LearnStrategy,2023.2.3,Win32,60.24096386,,,,,,,,,,,4,15,2,7,,,,,,,,,,,,,,,,,,,,,,,,,,,,,
5c2c189b867f660001af5dc5,SCN,2024-06-20_15h43.12.619,LearnStrategy,2023.2.3,Win32,60.24096386,,,,,,,,,,,8,16,2,8,,,,,,,,,,,,,,,,,,,,,,,,,,,,,
5c2c189b867f660001af5dc5,SCN,2024-06-20_15h43.12.619,LearnStrategy,2023.2.3,Win32,60.24096386,,,,,,,,,,,5,14,3,1,,,,,,,,,,,,,,,,,,,,,,,,,,,,,
5c2c189b867f660001af5dc5,SCN,2024-06-20_15h43.12.619,LearnStrategy,2023.2.3,Win32,60.24096386,,,,,,,,,,,4,12,3,2,,,,,,,,,,,,,,,,,,,,,,,,,,,,,
5c2c189b867f660001af5dc5,SCN,2024-06-20_15h43.12.619,LearnStrategy,2023.2.3,Win32,60.24096386,,,,,,,,,,,2,06,3,3,,,,,,,,,,,,,,,,,,,,,,,,,,,,,
5c2c189b867f660001af5dc5,SCN,2024-06-20_15h43.12.619,LearnStrategy,2023.2.3,Win32,60.24096386,,,,,,,,,,,5,09,3,4,,,,,,,,,,,,,,,,,,,,,,,,,,,,,
5c2c189b867f660001af5dc5,SCN,2024-06-20_15h43.12.619,LearnStrategy,2023.2.3,Win32,60.24096386,,,,,,,,,,,6,08,3,5,,,,,,,,,,,,,,,,,,,,,,,,,,,,,
5c2c189b867f660001af5dc5,SCN,2024-06-20_15h43.12.619,LearnStrategy,2023.2.3,Win32,60.24096386,,,,,,,,,,,8,05,3,6,,,,,,,,,,,,,,,,,,,,,,,,,,,,,
5c2c189b867f660001af5dc5,SCN,2024-06-20_15h43.12.619,LearnStrategy,2023.2.3,Win32,60.24096386,,,,,,,,,,,6,16,3,7,,,,,,,,,,,,,,,,,,,,,,,,,,,,,
5c2c189b867f660001af5dc5,SCN,2024-06-20_15h43.12.619,LearnStrategy,2023.2.3,Win32,60.24096386,,,,,,,,,,,5,05,3,8,,,,,,,,,,,,,,,,,,,,,,,,,,,,,
5c2c189b867f660001af5dc5,SCN,2024-06-20_15h43.12.619,LearnStrategy,2023.2.3,Win32,60.24096386,,,,,,,,,,,8,03,4,1,,,,,,,,,,,,,,,,,,,,,,,,,,,,,
5c2c189b867f660001af5dc5,SCN,2024-06-20_15h43.12.619,LearnStrategy,2023.2.3,Win32,60.24096386,,,,,,,,,,,1,02,4,2,,,,,,,,,,,,,,,,,,,,,,,,,,,,,
5c2c189b867f660001af5dc5,SCN,2024-06-20_15h43.12.619,LearnStrategy,2023.2.3,Win32,60.24096386,,,,,,,,,,,2,04,4,3,,,,,,,,,,,,,,,,,,,,,,,,,,,,,
5c2c189b867f660001af5dc5,SCN,2024-06-20_15h43.12.619,LearnStrategy,2023.2.3,Win32,60.24096386,,,,,,,,,,,1,11,4,4,,,,,,,,,,,,,,,,,,,,,,,,,,,,,
5c2c189b867f660001af5dc5,SCN,2024-06-20_15h43.12.619,LearnStrategy,2023.2.3,Win32,60.24096386,,,,,,,,,,,3,10,4,5,,,,,,,,,,,,,,,,,,,,,,,,,,,,,
5c2c189b867f660001af5dc5,SCN,2024-06-20_15h43.12.619,LearnStrategy,2023.2.3,Win32,60.24096386,,,,,,,,,,,6,09,4,6,,,,,,,,,,,,,,,,,,,,,,,,,,,,,
5c2c189b867f660001af5dc5,SCN,2024-06-20_15h43.12.619,LearnStrategy,2023.2.3,Win32,60.24096386,,,,,,,,,,,1,03,4,7,,,,,,,,,,,,,,,,,,,,,,,,,,,,,
5c2c189b867f660001af5dc5,SCN,2024-06-20_15h43.12.619,LearnStrategy,2023.2.3,Win32,60.24096386,,,,,,,,,,,2,08,4,8,,,,,,,,,,,,,,,,,,,,,,,,,,,,,
5c2c189b867f660001af5dc5,SCN,2024-06-20_15h43.12.619,LearnStrategy,2023.2.3,Win32,60.24096386,,,,,,,,,,,7,14,5,1,,,,,,,,,,,,,,,,,,,,,,,,,,,,,
5c2c189b867f660001af5dc5,SCN,2024-06-20_15h43.12.619,LearnStrategy,2023.2.3,Win32,60.24096386,,,,,,,,,,,1,16,5,2,,,,,,,,,,,,,,,,,,,,,,,,,,,,,
5c2c189b867f660001af5dc5,SCN,2024-06-20_15h43.12.619,LearnStrategy,2023.2.3,Win32,60.24096386,,,,,,,,,,,8,04,5,3,,,,,,,,,,,,,,,,,,,,,,,,,,,,,
5c2c189b867f660001af5dc5,SCN,2024-06-20_15h43.12.619,LearnStrategy,2023.2.3,Win32,60.24096386,,,,,,,,,,,7,15,5,4,,,,,,,,,,,,,,,,,,,,,,,,,,,,,
5c2c189b867f660001af5dc5,SCN,2024-06-20_15h43.12.619,LearnStrategy,2023.2.3,Win32,60.24096386,,,,,,,,,,,2,05,5,5,,,,,,,,,,,,,,,,,,,,,,,,,,,,,
5c2c189b867f660001af5dc5,SCN,2024-06-20_15h43.12.619,LearnStrategy,2023.2.3,Win32,60.24096386,,,,,,,,,,,3,13,5,6,,,,,,,,,,,,,,,,,,,,,,,,,,,,,
5c2c189b867f660001af5dc5,SCN,2024-06-20_15h43.12.619,LearnStrategy,2023.2.3,Win32,60.24096386,,,,,,,,,,,3,06,5,7,,,,,,,,,,,,,,,,,,,,,,,,,,,,,
5c2c189b867f660001af5dc5,SCN,2024-06-20_15h43.12.619,LearnStrategy,2023.2.3,Win32,60.24096386,,,,,,,,,,,5,06,5,8,,,,,,,,,,,,,,,,,,,,,,,,,,,,,
5c2c189b867f660001af5dc5,SCN,2024-06-20_15h43.12.619,LearnStrategy,2023.2.3,Win32,60.24096386,,,,,,,,,,,6,03,6,1,,,,,,,,,,,,,,,,,,,,,,,,,,,,,
5c2c189b867f660001af5dc5,SCN,2024-06-20_15h43.12.619,LearnStrategy,2023.2.3,Win32,60.24096386,,,,,,,,,,,8,06,6,2,,,,,,,,,,,,,,,,,,,,,,,,,,,,,
5c2c189b867f660001af5dc5,SCN,2024-06-20_15h43.12.619,LearnStrategy,2023.2.3,Win32,60.24096386,,,,,,,,,,,2,09,6,3,,,,,,,,,,,,,,,,,,,,,,,,,,,,,
5c2c189b867f660001af5dc5,SCN,2024-06-20_15h43.12.619,LearnStrategy,2023.2.3,Win32,60.24096386,,,,,,,,,,,7,04,6,4,,,,,,,,,,,,,,,,,,,,,,,,,,,,,
5c2c189b867f660001af5dc5,SCN,2024-06-20_15h43.12.619,LearnStrategy,2023.2.3,Win32,60.24096386,,,,,,,,,,,3,09,6,5,,,,,,,,,,,,,,,,,,,,,,,,,,,,,
5c2c189b867f660001af5dc5,SCN,2024-06-20_15h43.12.619,LearnStrategy,2023.2.3,Win32,60.24096386,,,,,,,,,,,3,11,6,6,,,,,,,,,,,,,,,,,,,,,,,,,,,,,
5c2c189b867f660001af5dc5,SCN,2024-06-20_15h43.12.619,LearnStrategy,2023.2.3,Win32,60.24096386,,,,,,,,,,,7,13,6,7,,,,,,,,,,,,,,,,,,,,,,,,,,,,,
5c2c189b867f660001af5dc5,SCN,2024-06-20_15h43.12.619,LearnStrategy,2023.2.3,Win32,60.24096386,,,,,,,,,,,8,02,6,8,,,,,,,,,,,,,,,,,,,,,,,,,,,,,