participant,condition,date,expName,psychopyVersion,OS,frameRate,block,phase,trial,learn_mouse_2.x,learn_mouse_2.y,learn_mouse_2.leftButton,learn_mouse_2.midButton,learn_mouse_2.rightButton,learn_mouse_2.time,learn_mouse_2.clicked_name,cat,token,row,col,t_select,cat_mouse_l.x,cat_mouse_l.y,cat_mouse_l.leftButton,cat_mouse_l.midButton,cat_mouse_l.rightButton,cat_mouse_l.time,cat_mouse_l.clicked_name,resp,t_resp,corr,train_trials.thisRepN,train_trials.thisTrialN,train_trials.thisN,train_trials.thisIndex,train_trials.ran,cat_mouse_t.x,cat_mouse_t.y,cat_mouse_t.leftButton,cat_mouse_t.midButton,cat_mouse_t.rightButton,cat_mouse_t.time,cat_mouse_t.clicked_name,test_trials.thisRepN,test_trials.thisTrialN,test_trials.thisN,test_trials.thisIndex,test_trials.ran,Bonus
5c82c9a4d8302a00010639b8,TCN,2024-06-25_13h24.29.968,LearnStrategy,2023.2.3,Win32,75.75757576,,,,,,,,,,,,,,,,,,,,,,,,,,,,,,,,,,,,,,,,,,,
5c82c9a4d8302a00010639b8,TCN,2024-06-25_13h24.29.968,LearnStrategy,2023.2.3,Win32,75.75757576,1,1,1,-0.024074074,-0.00462963,1,0,0,3.8204,rock_grid_rect_2,1,14,-1,-1,3.82,-0.123148148,-0.27037037,1,0,0,3.9525,Basalt_rect,2,3.953,0,0,0,0,0,1,,,,,,,,,,,,,
5c82c9a4d8302a00010639b8,TCN,2024-06-25_13h24.29.968,LearnStrategy,2023.2.3,Win32,75.75757576,1,1,2,-0.041666667,-0.014814815,1,0,0,2.1016,rock_grid_rect_2,2,12,-1,-1,2.102,-0.362962963,-0.265740741,1,0,0,3.1975,Andesite_rect,1,3.197,0,1,0,1,0,1,,,,,,,,,,,,,
5c82c9a4d8302a00010639b8,TCN,2024-06-25_13h24.29.968,LearnStrategy,2023.2.3,Win32,75.75757576,1,1,3,-0.021296296,0.000925926,1,0,0,1.106,rock_grid_rect_2,3,07,-1,-1,1.106,0.172222222,-0.250925926,1,0,0,1.3434,Diorite_rect,3,1.343,1,2,0,2,0,1,,,,,,,,,,,,,
5c82c9a4d8302a00010639b8,TCN,2024-06-25_13h24.29.968,LearnStrategy,2023.2.3,Win32,75.75757576,1,1,4,0.001851852,0.005555556,1,0,0,1.2796,rock_grid_rect_2,6,09,-1,-1,1.28,0.396296296,-0.259259259,1,0,0,1.5437,Gabbro_rect,4,1.544,0,3,0,3,0,1,,,,,,,,,,,,,
5c82c9a4d8302a00010639b8,TCN,2024-06-25_13h24.29.968,LearnStrategy,2023.2.3,Win32,75.75757576,1,1,5,0.023148148,-0.003703704,1,0,0,1.5149,rock_grid_rect_2,6,03,-1,-1,1.515,-0.141666667,-0.416666667,1,0,0,4.1579,Pegmatite_rect,6,4.158,1,4,0,4,0,1,,,,,,,,,,,,,
5c82c9a4d8302a00010639b8,TCN,2024-06-25_13h24.29.968,LearnStrategy,2023.2.3,Win32,75.75757576,1,1,6,-0.017592593,-0.006481481,1,0,0,0.9858,rock_grid_rect_2,4,14,-1,-1,0.986,0.34537037,-0.253703704,1,0,0,3.3449,Gabbro_rect,4,3.345,1,5,0,5,0,1,,,,,,,,,,,,,
5c82c9a4d8302a00010639b8,TCN,2024-06-25_13h24.29.968,LearnStrategy,2023.2.3,Win32,75.75757576,1,1,7,0.000925926,0.017592593,1,0,0,0.9326,rock_grid_rect_2,3,15,-1,-1,0.933,0.113888889,-0.413888889,1,0,0,3.4245,Peridotite_rect,7,3.424,0,6,0,6,0,1,,,,,,,,,,,,,
5c82c9a4d8302a00010639b8,TCN,2024-06-25_13h24.29.968,LearnStrategy,2023.2.3,Win32,75.75757576,1,1,8,0.011111111,-0.013888889,1,0,0,0.9193,rock_grid_rect_2,5,05,-1,-1,0.919,0.399074074,-0.410185185,1,0,0,2.3438,Pumice_rect,8,2.344,0,7,0,7,0,1,,,,,,,,,,,,,
5c82c9a4d8302a00010639b8,TCN,2024-06-25_13h24.29.968,LearnStrategy,2023.2.3,Win32,75.75757576,1,1,9,0.043518519,0.003703704,1,0,0,0.9325,rock_grid_rect_2,7,04,-1,-1,0.933,0.067592593,-0.398148148,1,0,0,4.6785,Peridotite_rect,7,4.679,1,8,0,8,0,1,,,,,,,,,,,,,
5c82c9a4d8302a00010639b8,TCN,2024-06-25_13h24.29.968,LearnStrategy,2023.2.3,Win32,75.75757576,1,1,10,-0.002777778,0.002777778,1,0,0,0.8392,rock_grid_rect_2,5,16,-1,-1,0.839,-0.42962963,-0.410185185,1,0,0,2.1571,Obsidian_rect,5,2.157,1,9,0,9,0,1,,,,,,,,,,,,,
5c82c9a4d8302a00010639b8,TCN,2024-06-25_13h24.29.968,LearnStrategy,2023.2.3,Win32,75.75757576,1,1,11,0.07037037,0.022222222,1,0,0,0.7461,rock_grid_rect_2,4,03,-1,-1,0.746,-0.378703704,-0.263888889,1,0,0,5.7585,Andesite_rect,1,5.758,0,10,0,10,0,1,,,,,,,,,,,,,
5c82c9a4d8302a00010639b8,TCN,2024-06-25_13h24.29.968,LearnStrategy,2023.2.3,Win32,75.75757576,1,1,12,-0.014814815,0,1,0,0,0.9191,rock_grid_rect_2,2,02,-1,-1,0.919,0.403703704,-0.412962963,1,0,0,3.3176,Pumice_rect,8,3.318,0,11,0,11,0,1,,,,,,,,,,,,,
5c82c9a4d8302a00010639b8,TCN,2024-06-25_13h24.29.968,LearnStrategy,2023.2.3,Win32,75.75757576,1,1,13,-0.037962963,-0.003703704,1,0,0,0.7328,rock_grid_rect_2,8,10,-1,-1,0.733,-0.375925926,-0.265740741,1,0,0,7.7596,Andesite_rect,1,7.76,0,12,0,12,0,1,,,,,,,,,,,,,
5c82c9a4d8302a00010639b8,TCN,2024-06-25_13h24.29.968,LearnStrategy,2023.2.3,Win32,75.75757576,1,1,14,0.058333333,-0.008333333,1,0,0,0.666,rock_grid_rect_2,8,03,-1,-1,0.666,-0.42962963,-0.258333333,1,0,0,8.0529,Andesite_rect,1,8.053,0,13,0,13,0,1,,,,,,,,,,,,,
5c82c9a4d8302a00010639b8,TCN,2024-06-25_13h24.29.968,LearnStrategy,2023.2.3,Win32,75.75757576,1,1,15,-0.013888889,-0.002777778,1,0,0,0.9059,rock_grid_rect_2,1,07,-1,-1,0.906,-0.082407407,-0.409259259,1,0,0,6.0922,Pegmatite_rect,6,6.092,0,14,0,14,0,1,,,,,,,,,,,,,
5c82c9a4d8302a00010639b8,TCN,2024-06-25_13h24.29.968,LearnStrategy,2023.2.3,Win32,75.75757576,1,1,16,0.012037037,0.000925926,1,0,0,0.6393,rock_grid_rect_2,7,15,-1,-1,0.639,-0.169444444,-0.393518519,1,0,0,7.212,Pegmatite_rect,6,7.212,0,15,0,15,0,1,,,,,,,,,,,,,
5c82c9a4d8302a00010639b8,TCN,2024-06-25_13h24.29.968,LearnStrategy,2023.2.3,Win32,75.75757576,1,2,1,,,,,,,,6,10,,,,,,,,,,,6,14.121,1,,,,,,-0.118518519,-0.390740741,1,0,0,14.1214,Pegmatite_rect,0,0,0,0,1,
5c82c9a4d8302a00010639b8,TCN,2024-06-25_13h24.29.968,LearnStrategy,2023.2.3,Win32,75.75757576,1,2,2,,,,,,,,5,02,,,,,,,,,,,5,1.13,1,,,,,,-0.417592593,-0.382407407,1,0,0,1.1298,Obsidian_rect,1,0,1,0,1,
5c82c9a4d8302a00010639b8,TCN,2024-06-25_13h24.29.968,LearnStrategy,2023.2.3,Win32,75.75757576,1,2,3,,,,,,,,1,02,,,,,,,,,,,1,6.265,1,,,,,,-0.374074074,-0.256481481,1,0,0,6.2654,Andesite_rect,2,0,2,0,1,
5c82c9a4d8302a00010639b8,TCN,2024-06-25_13h24.29.968,LearnStrategy,2023.2.3,Win32,75.75757576,1,2,4,,,,,,,,7,12,,,,,,,,,,,7,2.33,1,,,,,,0.109259259,-0.418518519,1,0,0,2.3304,Peridotite_rect,3,0,3,0,1,
5c82c9a4d8302a00010639b8,TCN,2024-06-25_13h24.29.968,LearnStrategy,2023.2.3,Win32,75.75757576,1,2,5,,,,,,,,7,14,,,,,,,,,,,4,3.718,0,,,,,,0.369444444,-0.242592593,1,0,0,3.7181,Gabbro_rect,4,0,4,0,1,
5c82c9a4d8302a00010639b8,TCN,2024-06-25_13h24.29.968,LearnStrategy,2023.2.3,Win32,75.75757576,1,2,6,,,,,,,,4,15,,,,,,,,,,,3,5.412,0,,,,,,0.114814815,-0.247222222,1,0,0,5.4117,Diorite_rect,5,0,5,0,1,
5c82c9a4d8302a00010639b8,TCN,2024-06-25_13h24.29.968,LearnStrategy,2023.2.3,Win32,75.75757576,1,2,7,,,,,,,,4,13,,,,,,,,,,,3,1.877,0,,,,,,0.086111111,-0.25,1,0,0,1.8771,Diorite_rect,6,0,6,0,1,
5c82c9a4d8302a00010639b8,TCN,2024-06-25_13h24.29.968,LearnStrategy,2023.2.3,Win32,75.75757576,1,2,8,,,,,,,,8,08,,,,,,,,,,,4,3.838,0,,,,,,0.383333333,-0.265740741,1,0,0,3.8377,Gabbro_rect,7,0,7,0,1,
5c82c9a4d8302a00010639b8,TCN,2024-06-25_13h24.29.968,LearnStrategy,2023.2.3,Win32,75.75757576,1,2,9,,,,,,,,3,13,,,,,,,,,,,1,4.758,0,,,,,,-0.42037037,-0.246296296,1,0,0,4.7582,Andesite_rect,8,0,8,0,1,
5c82c9a4d8302a00010639b8,TCN,2024-06-25_13h24.29.968,LearnStrategy,2023.2.3,Win32,75.75757576,1,2,10,,,,,,,,3,12,,,,,,,,,,,2,2.037,0,,,,,,-0.162962963,-0.251851852,1,0,0,2.0371,Basalt_rect,9,0,9,0,1,
5c82c9a4d8302a00010639b8,TCN,2024-06-25_13h24.29.968,LearnStrategy,2023.2.3,Win32,75.75757576,1,2,11,,,,,,,,6,15,,,,,,,,,,,3,6.279,0,,,,,,0.134259259,-0.263888889,1,0,0,6.279,Diorite_rect,10,0,10,0,1,
5c82c9a4d8302a00010639b8,TCN,2024-06-25_13h24.29.968,LearnStrategy,2023.2.3,Win32,75.75757576,1,2,12,,,,,,,,2,08,,,,,,,,,,,8,1.797,0,,,,,,0.39537037,-0.412962963,1,0,0,1.7968,Pumice_rect,11,0,11,0,1,
5c82c9a4d8302a00010639b8,TCN,2024-06-25_13h24.29.968,LearnStrategy,2023.2.3,Win32,75.75757576,1,2,13,,,,,,,,5,10,,,,,,,,,,,5,4.598,1,,,,,,-0.378703704,-0.409259259,1,0,0,4.598,Obsidian_rect,12,0,12,0,1,
5c82c9a4d8302a00010639b8,TCN,2024-06-25_13h24.29.968,LearnStrategy,2023.2.3,Win32,75.75757576,1,2,14,,,,,,,,1,06,,,,,,,,,,,1,1.517,1,,,,,,-0.378703704,-0.247222222,1,0,0,1.5169,Andesite_rect,13,0,13,0,1,
5c82c9a4d8302a00010639b8,TCN,2024-06-25_13h24.29.968,LearnStrategy,2023.2.3,Win32,75.75757576,1,2,15,,,,,,,,8,15,,,,,,,,,,,4,2.944,0,,,,,,0.385185185,-0.265740741,1,0,0,2.9443,Gabbro_rect,14,0,14,0,1,
5c82c9a4d8302a00010639b8,TCN,2024-06-25_13h24.29.968,LearnStrategy,2023.2.3,Win32,75.75757576,1,2,16,,,,,,,,2,06,,,,,,,,,,,2,1.944,1,,,,,,-0.111111111,-0.25462963,1,0,0,1.9436,Basalt_rect,15,0,15,0,1,
5c82c9a4d8302a00010639b8,TCN,2024-06-25_13h24.29.968,LearnStrategy,2023.2.3,Win32,75.75757576,2,1,1,0.05462963,0.021296296,1,0,0,1.1463,rock_grid_rect_2,6,16,-1,-1,1.146,0.109259259,-0.258333333,1,0,0,12.0943,Diorite_rect,3,12.094,0,0,0,0,0,1,,,,,,,,,,,,,
5c82c9a4d8302a00010639b8,TCN,2024-06-25_13h24.29.968,LearnStrategy,2023.2.3,Win32,75.75757576,2,1,2,0.09537037,-0.006481481,1,0,0,1.0794,rock_grid_rect_2,2,11,-1,-1,1.079,-0.384259259,-0.256481481,1,0,0,1.944,Andesite_rect,1,1.944,0,1,0,1,0,1,,,,,,,,,,,,,
5c82c9a4d8302a00010639b8,TCN,2024-06-25_13h24.29.968,LearnStrategy,2023.2.3,Win32,75.75757576,2,1,3,-0.022222222,0.006481481,1,0,0,1.3063,rock_grid_rect_2,3,16,-1,-1,1.306,-0.411111111,-0.239814815,1,0,0,1.9173,Andesite_rect,1,1.917,0,2,0,2,0,1,,,,,,,,,,,,,
5c82c9a4d8302a00010639b8,TCN,2024-06-25_13h24.29.968,LearnStrategy,2023.2.3,Win32,75.75757576,2,1,4,-0.090740741,0.003703704,1,0,0,0.7858,rock_grid_rect_2,7,07,-1,-1,0.786,0.132407407,-0.421296296,1,0,0,5.0918,Peridotite_rect,7,5.092,1,3,0,3,0,1,,,,,,,,,,,,,
5c82c9a4d8302a00010639b8,TCN,2024-06-25_13h24.29.968,LearnStrategy,2023.2.3,Win32,75.75757576,2,1,5,-0.038888889,0.000925926,1,0,0,1.0927,rock_grid_rect_2,8,02,-1,-1,1.093,0.362037037,-0.24537037,1,0,0,3.918,Gabbro_rect,4,3.918,0,4,0,4,0,1,,,,,,,,,,,,,
5c82c9a4d8302a00010639b8,TCN,2024-06-25_13h24.29.968,LearnStrategy,2023.2.3,Win32,75.75757576,2,1,6,0.034259259,-0.02037037,1,0,0,0.7458,rock_grid_rect_2,4,16,-1,-1,0.746,0.384259259,-0.241666667,1,0,0,7.2793,Gabbro_rect,4,7.279,1,5,0,5,0,1,,,,,,,,,,,,,
5c82c9a4d8302a00010639b8,TCN,2024-06-25_13h24.29.968,LearnStrategy,2023.2.3,Win32,75.75757576,2,1,7,0.055555556,-0.001851852,1,0,0,0.7727,rock_grid_rect_2,6,11,-1,-1,0.773,0.37037037,-0.393518519,1,0,0,3.8246,Pumice_rect,8,3.825,0,6,0,6,0,1,,,,,,,,,,,,,
5c82c9a4d8302a00010639b8,TCN,2024-06-25_13h24.29.968,LearnStrategy,2023.2.3,Win32,75.75757576,2,1,8,0.019444444,0.000925926,1,0,0,0.7327,rock_grid_rect_2,8,14,-1,-1,0.733,-0.381481481,-0.257407407,1,0,0,2.3308,Andesite_rect,1,2.331,0,7,0,7,0,1,,,,,,,,,,,,,
5c82c9a4d8302a00010639b8,TCN,2024-06-25_13h24.29.968,LearnStrategy,2023.2.3,Win32,75.75757576,2,1,9,0.042592593,-0.016666667,1,0,0,0.6661,rock_grid_rect_2,5,08,-1,-1,0.666,-0.459259259,-0.412037037,1,0,0,1.1173,Obsidian_rect,5,1.117,1,8,0,8,0,1,,,,,,,,,,,,,
5c82c9a4d8302a00010639b8,TCN,2024-06-25_13h24.29.968,LearnStrategy,2023.2.3,Win32,75.75757576,2,1,10,0.048148148,0.006481481,1,0,0,0.7996,rock_grid_rect_2,5,12,-1,-1,0.8,-0.396296296,-0.416666667,1,0,0,1.077,Obsidian_rect,5,1.077,1,9,0,9,0,1,,,,,,,,,,,,,
5c82c9a4d8302a00010639b8,TCN,2024-06-25_13h24.29.968,LearnStrategy,2023.2.3,Win32,75.75757576,2,1,11,0.025,-0.010185185,1,0,0,0.8129,rock_grid_rect_2,1,05,-1,-1,0.813,0.164814815,-0.407407407,1,0,0,4.7453,Peridotite_rect,7,4.745,0,10,0,10,0,1,,,,,,,,,,,,,
5c82c9a4d8302a00010639b8,TCN,2024-06-25_13h24.29.968,LearnStrategy,2023.2.3,Win32,75.75757576,2,1,12,0.027777778,-0.013888889,1,0,0,0.6524,rock_grid_rect_2,4,10,-1,-1,0.652,-0.113888889,-0.409259259,1,0,0,4.3451,Pegmatite_rect,6,4.345,0,11,0,11,0,1,,,,,,,,,,,,,
5c82c9a4d8302a00010639b8,TCN,2024-06-25_13h24.29.968,LearnStrategy,2023.2.3,Win32,75.75757576,2,1,13,0.018518519,-0.007407407,1,0,0,0.8527,rock_grid_rect_2,1,03,-1,-1,0.853,-0.367592593,-0.234259259,1,0,0,4.2116,Andesite_rect,1,4.212,1,12,0,12,0,1,,,,,,,,,,,,,
5c82c9a4d8302a00010639b8,TCN,2024-06-25_13h24.29.968,LearnStrategy,2023.2.3,Win32,75.75757576,2,1,14,0.046296296,0.016666667,1,0,0,0.679,rock_grid_rect_2,3,10,-1,-1,0.679,0.376851852,-0.413888889,1,0,0,5.8787,Pumice_rect,8,5.879,0,13,0,13,0,1,,,,,,,,,,,,,
5c82c9a4d8302a00010639b8,TCN,2024-06-25_13h24.29.968,LearnStrategy,2023.2.3,Win32,75.75757576,2,1,15,0.037962963,0.002777778,1,0,0,0.6258,rock_grid_rect_2,7,16,-1,-1,0.626,-0.075,-0.391666667,1,0,0,3.0511,Pegmatite_rect,6,3.051,0,14,0,14,0,1,,,,,,,,,,,,,
5c82c9a4d8302a00010639b8,TCN,2024-06-25_13h24.29.968,LearnStrategy,2023.2.3,Win32,75.75757576,2,1,16,0.007407407,0.00462963,1,0,0,0.7458,rock_grid_rect_2,2,10,-1,-1,0.746,0.386111111,-0.251851852,1,0,0,1.504,Gabbro_rect,4,1.504,0,15,0,15,0,1,,,,,,,,,,,,,
5c82c9a4d8302a00010639b8,TCN,2024-06-25_13h24.29.968,LearnStrategy,2023.2.3,Win32,75.75757576,2,2,1,,,,,,,,3,09,,,,,,,,,,,1,3.585,0,,,,,,-0.344444444,-0.242592593,1,0,0,3.5847,Andesite_rect,0,0,0,0,1,
5c82c9a4d8302a00010639b8,TCN,2024-06-25_13h24.29.968,LearnStrategy,2023.2.3,Win32,75.75757576,2,2,2,,,,,,,,7,08,,,,,,,,,,,7,1.784,1,,,,,,0.098148148,-0.40462963,1,0,0,1.7838,Peridotite_rect,1,0,1,0,1,
5c82c9a4d8302a00010639b8,TCN,2024-06-25_13h24.29.968,LearnStrategy,2023.2.3,Win32,75.75757576,2,2,3,,,,,,,,6,05,,,,,,,,,,,6,15.129,1,,,,,,-0.085185185,-0.396296296,1,0,0,15.129,Pegmatite_rect,2,0,2,0,1,
5c82c9a4d8302a00010639b8,TCN,2024-06-25_13h24.29.968,LearnStrategy,2023.2.3,Win32,75.75757576,2,2,4,,,,,,,,8,13,,,,,,,,,,,4,3.589,0,,,,,,0.377777778,-0.232407407,1,0,0,3.5894,Gabbro_rect,3,0,3,0,1,
5c82c9a4d8302a00010639b8,TCN,2024-06-25_13h24.29.968,LearnStrategy,2023.2.3,Win32,75.75757576,2,2,5,,,,,,,,7,06,,,,,,,,,,,7,1.335,1,,,,,,0.158333333,-0.412037037,1,0,0,1.3349,Peridotite_rect,4,0,4,0,1,
5c82c9a4d8302a00010639b8,TCN,2024-06-25_13h24.29.968,LearnStrategy,2023.2.3,Win32,75.75757576,2,2,6,,,,,,,,5,14,,,,,,,,,,,5,1.109,1,,,,,,-0.418518519,-0.396296296,1,0,0,1.1086,Obsidian_rect,5,0,5,0,1,
5c82c9a4d8302a00010639b8,TCN,2024-06-25_13h24.29.968,LearnStrategy,2023.2.3,Win32,75.75757576,2,2,7,,,,,,,,1,01,,,,,,,,,,,1,4.845,1,,,,,,-0.37037037,-0.256481481,1,0,0,4.8447,Andesite_rect,6,0,6,0,1,
5c82c9a4d8302a00010639b8,TCN,2024-06-25_13h24.29.968,LearnStrategy,2023.2.3,Win32,75.75757576,2,2,8,,,,,,,,4,05,,,,,,,,,,,6,6.951,0,,,,,,-0.103703704,-0.384259259,1,0,0,6.9506,Pegmatite_rect,7,0,7,0,1,
5c82c9a4d8302a00010639b8,TCN,2024-06-25_13h24.29.968,LearnStrategy,2023.2.3,Win32,75.75757576,2,2,9,,,,,,,,5,11,,,,,,,,,,,5,0.933,1,,,,,,-0.368518519,-0.389814815,1,0,0,0.9331,Obsidian_rect,8,0,8,0,1,
5c82c9a4d8302a00010639b8,TCN,2024-06-25_13h24.29.968,LearnStrategy,2023.2.3,Win32,75.75757576,2,2,10,,,,,,,,2,04,,,,,,,,,,,4,5.83,0,,,,,,0.381481481,-0.25,1,0,0,5.8299,Gabbro_rect,9,0,9,0,1,
5c82c9a4d8302a00010639b8,TCN,2024-06-25_13h24.29.968,LearnStrategy,2023.2.3,Win32,75.75757576,2,2,11,,,,,,,,2,05,,,,,,,,,,,2,1.346,1,,,,,,-0.081481481,-0.240740741,1,0,0,1.3462,Basalt_rect,10,0,10,0,1,
5c82c9a4d8302a00010639b8,TCN,2024-06-25_13h24.29.968,LearnStrategy,2023.2.3,Win32,75.75757576,2,2,12,,,,,,,,3,02,,,,,,,,,,,7,3.334,0,,,,,,0.115740741,-0.393518519,1,0,0,3.3343,Peridotite_rect,11,0,11,0,1,
5c82c9a4d8302a00010639b8,TCN,2024-06-25_13h24.29.968,LearnStrategy,2023.2.3,Win32,75.75757576,2,2,13,,,,,,,,8,05,,,,,,,,,,,2,3.267,0,,,,,,-0.148148148,-0.255555556,1,0,0,3.2672,Basalt_rect,12,0,12,0,1,
5c82c9a4d8302a00010639b8,TCN,2024-06-25_13h24.29.968,LearnStrategy,2023.2.3,Win32,75.75757576,2,2,14,,,,,,,,4,12,,,,,,,,,,,6,2.222,0,,,,,,-0.12962963,-0.392592593,1,0,0,2.2221,Pegmatite_rect,13,0,13,0,1,
5c82c9a4d8302a00010639b8,TCN,2024-06-25_13h24.29.968,LearnStrategy,2023.2.3,Win32,75.75757576,2,2,15,,,,,,,,6,07,,,,,,,,,,,6,1.157,1,,,,,,-0.12962963,-0.393518519,1,0,0,1.1569,Pegmatite_rect,14,0,14,0,1,
5c82c9a4d8302a00010639b8,TCN,2024-06-25_13h24.29.968,LearnStrategy,2023.2.3,Win32,75.75757576,2,2,16,,,,,,,,1,09,,,,,,,,,,,8,4.972,0,,,,,,0.357407407,-0.392592593,1,0,0,4.972,Pumice_rect,15,0,15,0,1,
5c82c9a4d8302a00010639b8,TCN,2024-06-25_13h24.29.968,LearnStrategy,2023.2.3,Win32,75.75757576,3,1,1,0.042592593,-0.009259259,1,0,0,1.333,rock_grid_rect_2,4,11,-1,-1,1.333,-0.092592593,-0.231481481,1,0,0,7.5729,Basalt_rect,2,7.573,0,0,0,0,0,1,,,,,,,,,,,,,
5c82c9a4d8302a00010639b8,TCN,2024-06-25_13h24.29.968,LearnStrategy,2023.2.3,Win32,75.75757576,3,1,2,-0.001851852,0.003703704,1,0,0,0.8793,rock_grid_rect_2,6,06,-1,-1,0.879,-0.075,-0.418518519,1,0,0,6.9992,Pegmatite_rect,6,6.999,1,1,0,1,0,1,,,,,,,,,,,,,
5c82c9a4d8302a00010639b8,TCN,2024-06-25_13h24.29.968,LearnStrategy,2023.2.3,Win32,75.75757576,3,1,3,-0.018518519,0,1,0,0,0.8393,rock_grid_rect_2,7,02,-1,-1,0.839,0.125925926,-0.4,1,0,0,1.7037,Peridotite_rect,7,1.704,1,2,0,2,0,1,,,,,,,,,,,,,
5c82c9a4d8302a00010639b8,TCN,2024-06-25_13h24.29.968,LearnStrategy,2023.2.3,Win32,75.75757576,3,1,4,0.017592593,-0.005555556,1,0,0,0.8259,rock_grid_rect_2,5,09,-1,-1,0.826,-0.384259259,-0.391666667,1,0,0,1.1304,Obsidian_rect,5,1.13,1,3,0,3,0,1,,,,,,,,,,,,,
5c82c9a4d8302a00010639b8,TCN,2024-06-25_13h24.29.968,LearnStrategy,2023.2.3,Win32,75.75757576,3,1,5,0.051851852,0.014814815,1,0,0,0.7995,rock_grid_rect_2,2,16,-1,-1,0.799,0.405555556,-0.233333333,1,0,0,3.7716,Gabbro_rect,4,3.772,0,4,0,4,0,1,,,,,,,,,,,,,
5c82c9a4d8302a00010639b8,TCN,2024-06-25_13h24.29.968,LearnStrategy,2023.2.3,Win32,75.75757576,3,1,6,0.030555556,0.016666667,1,0,0,0.7324,rock_grid_rect_2,1,11,-1,-1,0.732,0.094444444,-0.257407407,1,0,0,5.6657,Diorite_rect,3,5.666,0,5,0,5,0,1,,,,,,,,,,,,,
5c82c9a4d8302a00010639b8,TCN,2024-06-25_13h24.29.968,LearnStrategy,2023.2.3,Win32,75.75757576,3,1,7,-0.002777778,0.003703704,1,0,0,0.5856,rock_grid_rect_2,2,09,-1,-1,0.586,-0.12962963,-0.243518519,1,0,0,4.3183,Basalt_rect,2,4.318,1,6,0,6,0,1,,,,,,,,,,,,,
5c82c9a4d8302a00010639b8,TCN,2024-06-25_13h24.29.968,LearnStrategy,2023.2.3,Win32,75.75757576,3,1,8,0.015740741,-0.014814815,1,0,0,0.6258,rock_grid_rect_2,1,10,-1,-1,0.626,-0.425925926,-0.262037037,1,0,0,6.906,Andesite_rect,1,6.906,1,7,0,7,0,1,,,,,,,,,,,,,
5c82c9a4d8302a00010639b8,TCN,2024-06-25_13h24.29.968,LearnStrategy,2023.2.3,Win32,75.75757576,3,1,9,0.00462963,-0.011111111,1,0,0,1.0259,rock_grid_rect_2,3,06,-1,-1,1.026,0.328703704,-0.4,1,0,0,9.9205,Pumice_rect,8,9.92,0,8,0,8,0,1,,,,,,,,,,,,,
5c82c9a4d8302a00010639b8,TCN,2024-06-25_13h24.29.968,LearnStrategy,2023.2.3,Win32,75.75757576,3,1,10,0.056481481,-0.000925926,1,0,0,1.2126,rock_grid_rect_2,3,14,-1,-1,1.213,0.100925926,-0.409259259,1,0,0,7.4663,Peridotite_rect,7,7.466,0,9,0,9,0,1,,,,,,,,,,,,,
5c82c9a4d8302a00010639b8,TCN,2024-06-25_13h24.29.968,LearnStrategy,2023.2.3,Win32,75.75757576,3,1,11,0.036111111,-0.016666667,1,0,0,0.6791,rock_grid_rect_2,8,16,-1,-1,0.679,-0.094444444,-0.401851852,1,0,0,4.3719,Pegmatite_rect,6,4.372,0,10,0,10,0,1,,,,,,,,,,,,,
5c82c9a4d8302a00010639b8,TCN,2024-06-25_13h24.29.968,LearnStrategy,2023.2.3,Win32,75.75757576,3,1,12,0.043518519,0.005555556,1,0,0,0.5856,rock_grid_rect_2,7,05,-1,-1,0.586,0.10462963,-0.408333333,1,0,0,2.0908,Peridotite_rect,7,2.091,1,11,0,11,0,1,,,,,,,,,,,,,
5c82c9a4d8302a00010639b8,TCN,2024-06-25_13h24.29.968,LearnStrategy,2023.2.3,Win32,75.75757576,3,1,13,0.077777778,-0.005555556,1,0,0,0.7326,rock_grid_rect_2,4,01,-1,-1,0.733,0.337962963,-0.399074074,1,0,0,9.0402,Pumice_rect,8,9.04,0,12,0,12,0,1,,,,,,,,,,,,,
5c82c9a4d8302a00010639b8,TCN,2024-06-25_13h24.29.968,LearnStrategy,2023.2.3,Win32,75.75757576,3,1,14,0.044444444,-0.006481481,1,0,0,0.6124,rock_grid_rect_2,8,06,-1,-1,0.612,0.390740741,-0.408333333,1,0,0,7.5861,Pumice_rect,8,7.586,1,13,0,13,0,1,,,,,,,,,,,,,
5c82c9a4d8302a00010639b8,TCN,2024-06-25_13h24.29.968,LearnStrategy,2023.2.3,Win32,75.75757576,3,1,15,0.050925926,-0.006481481,1,0,0,1.0393,rock_grid_rect_2,5,07,-1,-1,1.039,-0.347222222,-0.381481481,1,0,0,3.2245,Obsidian_rect,5,3.224,1,14,0,14,0,1,,,,,,,,,,,,,
5c82c9a4d8302a00010639b8,TCN,2024-06-25_13h24.29.968,LearnStrategy,2023.2.3,Win32,75.75757576,3,1,16,0.056481481,-0.00462963,1,0,0,0.8257,rock_grid_rect_2,6,08,-1,-1,0.826,0.118518519,-0.409259259,1,0,0,5.4123,Peridotite_rect,7,5.412,0,15,0,15,0,1,,,,,,,,,,,,,
5c82c9a4d8302a00010639b8,TCN,2024-06-25_13h24.29.968,LearnStrategy,2023.2.3,Win32,75.75757576,3,2,1,,,,,,,,5,04,,,,,,,,,,,5,1.023,1,,,,,,-0.396296296,-0.406481481,1,0,0,1.0234,Obsidian_rect,0,0,0,0,1,
5c82c9a4d8302a00010639b8,TCN,2024-06-25_13h24.29.968,LearnStrategy,2023.2.3,Win32,75.75757576,3,2,2,,,,,,,,1,16,,,,,,,,,,,7,13.922,0,,,,,,0.099074074,-0.410185185,1,0,0,13.922,Peridotite_rect,1,0,1,0,1,
5c82c9a4d8302a00010639b8,TCN,2024-06-25_13h24.29.968,LearnStrategy,2023.2.3,Win32,75.75757576,3,2,3,,,,,,,,4,08,,,,,,,,,,,3,6.959,0,,,,,,0.109259259,-0.243518519,1,0,0,6.959,Diorite_rect,2,0,2,0,1,
5c82c9a4d8302a00010639b8,TCN,2024-06-25_13h24.29.968,LearnStrategy,2023.2.3,Win32,75.75757576,3,2,4,,,,,,,,4,09,,,,,,,,,,,6,9.92,0,,,,,,-0.116666667,-0.396296296,1,0,0,9.92,Pegmatite_rect,3,0,3,0,1,
5c82c9a4d8302a00010639b8,TCN,2024-06-25_13h24.29.968,LearnStrategy,2023.2.3,Win32,75.75757576,3,2,5,,,,,,,,7,10,,,,,,,,,,,7,1.037,1,,,,,,0.137037037,-0.406481481,1,0,0,1.0367,Peridotite_rect,4,0,4,0,1,
5c82c9a4d8302a00010639b8,TCN,2024-06-25_13h24.29.968,LearnStrategy,2023.2.3,Win32,75.75757576,3,2,6,,,,,,,,1,04,,,,,,,,,,,8,3.678,0,,,,,,0.389814815,-0.413888889,1,0,0,3.6781,Pumice_rect,5,0,5,0,1,
5c82c9a4d8302a00010639b8,TCN,2024-06-25_13h24.29.968,LearnStrategy,2023.2.3,Win32,75.75757576,3,2,7,,,,,,,,2,14,,,,,,,,,,,3,4.625,0,,,,,,0.110185185,-0.25462963,1,0,0,4.6251,Diorite_rect,6,0,6,0,1,
5c82c9a4d8302a00010639b8,TCN,2024-06-25_13h24.29.968,LearnStrategy,2023.2.3,Win32,75.75757576,3,2,8,,,,,,,,2,01,,,,,,,,,,,4,1.89,0,,,,,,0.353703704,-0.25462963,1,0,0,1.8904,Gabbro_rect,7,0,7,0,1,
5c82c9a4d8302a00010639b8,TCN,2024-06-25_13h24.29.968,LearnStrategy,2023.2.3,Win32,75.75757576,3,2,9,,,,,,,,6,12,,,,,,,,,,,3,10.347,0,,,,,,0.105555556,-0.256481481,1,0,0,10.3471,Diorite_rect,8,0,8,0,1,
5c82c9a4d8302a00010639b8,TCN,2024-06-25_13h24.29.968,LearnStrategy,2023.2.3,Win32,75.75757576,3,2,10,,,,,,,,3,08,,,,,,,,,,,8,6.067,0,,,,,,0.377777778,-0.410185185,1,0,0,6.0669,Pumice_rect,9,0,9,0,1,
5c82c9a4d8302a00010639b8,TCN,2024-06-25_13h24.29.968,LearnStrategy,2023.2.3,Win32,75.75757576,3,2,11,,,,,,,,3,11,,,,,,,,,,,1,2.184,0,,,,,,-0.392592593,-0.24537037,1,0,0,2.1839,Andesite_rect,10,0,10,0,1,
5c82c9a4d8302a00010639b8,TCN,2024-06-25_13h24.29.968,LearnStrategy,2023.2.3,Win32,75.75757576,3,2,12,,,,,,,,5,06,,,,,,,,,,,5,1.13,1,,,,,,-0.380555556,-0.391666667,1,0,0,1.1302,Obsidian_rect,11,0,11,0,1,
5c82c9a4d8302a00010639b8,TCN,2024-06-25_13h24.29.968,LearnStrategy,2023.2.3,Win32,75.75757576,3,2,13,,,,,,,,7,13,,,,,,,,,,,7,1.557,1,,,,,,0.10462963,-0.403703704,1,0,0,1.557,Peridotite_rect,12,0,12,0,1,
5c82c9a4d8302a00010639b8,TCN,2024-06-25_13h24.29.968,LearnStrategy,2023.2.3,Win32,75.75757576,3,2,14,,,,,,,,6,13,,,,,,,,,,,6,6.573,1,,,,,,-0.12962963,-0.39537037,1,0,0,6.5726,Pegmatite_rect,13,0,13,0,1,
5c82c9a4d8302a00010639b8,TCN,2024-06-25_13h24.29.968,LearnStrategy,2023.2.3,Win32,75.75757576,3,2,15,,,,,,,,8,04,,,,,,,,,,,8,8.146,1,,,,,,0.381481481,-0.399074074,1,0,0,8.1463,Pumice_rect,14,0,14,0,1,
5c82c9a4d8302a00010639b8,TCN,2024-06-25_13h24.29.968,LearnStrategy,2023.2.3,Win32,75.75757576,3,2,16,,,,,,,,8,09,,,,,,,,,,,2,2.437,0,,,,,,-0.110185185,-0.247222222,1,0,0,2.4372,Basalt_rect,15,0,15,0,1,
5c82c9a4d8302a00010639b8,TCN,2024-06-25_13h24.29.968,LearnStrategy,2023.2.3,Win32,75.75757576,4,1,1,-0.015740741,-0.013888889,1,0,0,2.707,rock_grid_rect_2,5,16,-1,-1,2.707,-0.383333333,-0.409259259,1,0,0,2.2642,Obsidian_rect,5,2.264,1,0,0,0,0,1,,,,,,,,,,,,,
5c82c9a4d8302a00010639b8,TCN,2024-06-25_13h24.29.968,LearnStrategy,2023.2.3,Win32,75.75757576,4,1,2,-0.07037037,-0.02037037,1,0,0,1.0526,rock_grid_rect_2,7,05,-1,-1,1.053,0.074074074,-0.407407407,1,0,0,14.6338,Peridotite_rect,7,14.634,1,1,0,1,0,1,,,,,,,,,,,,,
5c82c9a4d8302a00010639b8,TCN,2024-06-25_13h24.29.968,LearnStrategy,2023.2.3,Win32,75.75757576,4,1,3,-0.012037037,-0.006481481,1,0,0,1.146,rock_grid_rect_2,1,10,-1,-1,1.146,-0.406481481,-0.263888889,1,0,0,3.3093,Andesite_rect,1,3.309,1,2,0,2,0,1,,,,,,,,,,,,,
5c82c9a4d8302a00010639b8,TCN,2024-06-25_13h24.29.968,LearnStrategy,2023.2.3,Win32,75.75757576,4,1,4,0.000925926,-0.002777778,1,0,0,1.0389,rock_grid_rect_2,4,01,-1,-1,1.039,-0.106481481,-0.268518519,1,0,0,22.2151,Basalt_rect,2,22.215,0,3,0,3,0,1,,,,,,,,,,,,,
5c82c9a4d8302a00010639b8,TCN,2024-06-25_13h24.29.968,LearnStrategy,2023.2.3,Win32,75.75757576,4,1,5,-0.024074074,-0.011111111,1,0,0,1.0124,rock_grid_rect_2,8,03,-1,-1,1.012,-0.135185185,-0.243518519,1,0,0,4.1317,Basalt_rect,2,4.132,0,4,0,4,0,1,,,,,,,,,,,,,
5c82c9a4d8302a00010639b8,TCN,2024-06-25_13h24.29.968,LearnStrategy,2023.2.3,Win32,75.75757576,4,1,6,-0.005555556,-0.000925926,1,0,0,0.808,rock_grid_rect_2,3,07,-1,-1,0.808,-0.09537037,-0.396296296,1,0,0,4.5986,Pegmatite_rect,6,4.599,0,5,0,5,0,1,,,,,,,,,,,,,
5c82c9a4d8302a00010639b8,TCN,2024-06-25_13h24.29.968,LearnStrategy,2023.2.3,Win32,75.75757576,4,1,7,-0.009259259,-0.011111111,1,0,0,0.7992,rock_grid_rect_2,6,06,-1,-1,0.799,-0.125,-0.403703704,1,0,0,3.4515,Pegmatite_rect,6,3.452,1,6,0,6,0,1,,,,,,,,,,,,,
5c82c9a4d8302a00010639b8,TCN,2024-06-25_13h24.29.968,LearnStrategy,2023.2.3,Win32,75.75757576,4,1,8,0.04537037,0.007407407,1,0,0,0.8125,rock_grid_rect_2,4,11,-1,-1,0.813,-0.094444444,-0.261111111,1,0,0,3.0647,Basalt_rect,2,3.065,0,7,0,7,0,1,,,,,,,,,,,,,
5c82c9a4d8302a00010639b8,TCN,2024-06-25_13h24.29.968,LearnStrategy,2023.2.3,Win32,75.75757576,4,1,9,0.012962963,0.003703704,1,0,0,0.5857,rock_grid_rect_2,5,07,-1,-1,0.586,-0.438888889,-0.42037037,1,0,0,1.0506,Obsidian_rect,5,1.051,1,8,0,8,0,1,,,,,,,,,,,,,
5c82c9a4d8302a00010639b8,TCN,2024-06-25_13h24.29.968,LearnStrategy,2023.2.3,Win32,75.75757576,4,1,10,-0.014814815,0,1,0,0,0.9598,rock_grid_rect_2,2,12,-1,-1,0.96,-0.096296296,-0.237037037,1,0,0,5.1721,Basalt_rect,2,5.172,1,9,0,9,0,1,,,,,,,,,,,,,
5c82c9a4d8302a00010639b8,TCN,2024-06-25_13h24.29.968,LearnStrategy,2023.2.3,Win32,75.75757576,4,1,11,-0.031481481,0.017592593,1,0,0,0.7058,rock_grid_rect_2,3,15,-1,-1,0.706,0.122222222,-0.257407407,1,0,0,5.1719,Diorite_rect,3,5.172,1,10,0,10,0,1,,,,,,,,,,,,,
5c82c9a4d8302a00010639b8,TCN,2024-06-25_13h24.29.968,LearnStrategy,2023.2.3,Win32,75.75757576,4,1,12,-0.006481481,0.009259259,1,0,0,1.0659,rock_grid_rect_2,8,06,-1,-1,1.066,0.388888889,-0.4,1,0,0,4.9854,Pumice_rect,8,4.985,1,11,0,11,0,1,,,,,,,,,,,,,
5c82c9a4d8302a00010639b8,TCN,2024-06-25_13h24.29.968,LearnStrategy,2023.2.3,Win32,75.75757576,4,1,13,0.012037037,0.005555556,1,0,0,0.6791,rock_grid_rect_2,6,11,-1,-1,0.679,-0.075925926,-0.412037037,1,0,0,2.5176,Pegmatite_rect,6,2.518,1,12,0,12,0,1,,,,,,,,,,,,,
5c82c9a4d8302a00010639b8,TCN,2024-06-25_13h24.29.968,LearnStrategy,2023.2.3,Win32,75.75757576,4,1,14,0.053703704,0.006481481,1,0,0,0.6525,rock_grid_rect_2,2,02,-1,-1,0.653,0.437962963,-0.243518519,1,0,0,3.6113,Gabbro_rect,4,3.611,0,13,0,13,0,1,,,,,,,,,,,,,
5c82c9a4d8302a00010639b8,TCN,2024-06-25_13h24.29.968,LearnStrategy,2023.2.3,Win32,75.75757576,4,1,15,0.039814815,-0.00462963,1,0,0,0.5456,rock_grid_rect_2,1,07,-1,-1,0.546,-0.430555556,-0.240740741,1,0,0,3.598,Andesite_rect,1,3.598,1,14,0,14,0,1,,,,,,,,,,,,,
5c82c9a4d8302a00010639b8,TCN,2024-06-25_13h24.29.968,LearnStrategy,2023.2.3,Win32,75.75757576,4,1,16,-0.05462963,0.005555556,1,0,0,0.6523,rock_grid_rect_2,7,16,-1,-1,0.652,0.053703704,-0.39537037,1,0,0,2.5575,Peridotite_rect,7,2.558,1,15,0,15,0,1,,,,,,,,,,,,,
5c82c9a4d8302a00010639b8,TCN,2024-06-25_13h24.29.968,LearnStrategy,2023.2.3,Win32,75.75757576,4,2,1,,,,,,,,5,04,,,,,,,,,,,5,1.023,1,,,,,,-0.382407407,-0.401851852,1,0,0,1.0235,Obsidian_rect,0,0,0,0,1,
5c82c9a4d8302a00010639b8,TCN,2024-06-25_13h24.29.968,LearnStrategy,2023.2.3,Win32,75.75757576,4,2,2,,,,,,,,8,05,,,,,,,,,,,8,2.851,1,,,,,,0.390740741,-0.417592593,1,0,0,2.8509,Pumice_rect,1,0,1,0,1,
5c82c9a4d8302a00010639b8,TCN,2024-06-25_13h24.29.968,LearnStrategy,2023.2.3,Win32,75.75757576,4,2,3,,,,,,,,4,05,,,,,,,,,,,1,10.334,0,,,,,,-0.390740741,-0.246296296,1,0,0,10.3339,Andesite_rect,2,0,2,0,1,
5c82c9a4d8302a00010639b8,TCN,2024-06-25_13h24.29.968,LearnStrategy,2023.2.3,Win32,75.75757576,4,2,4,,,,,,,,2,05,,,,,,,,,,,4,2.704,0,,,,,,0.450925926,-0.251851852,1,0,0,2.7039,Gabbro_rect,3,0,3,0,1,
5c82c9a4d8302a00010639b8,TCN,2024-06-25_13h24.29.968,LearnStrategy,2023.2.3,Win32,75.75757576,4,2,5,,,,,,,,2,01,,,,,,,,,,,4,3.144,0,,,,,,0.375925926,-0.239814815,1,0,0,3.1444,Gabbro_rect,4,0,4,0,1,
5c82c9a4d8302a00010639b8,TCN,2024-06-25_13h24.29.968,LearnStrategy,2023.2.3,Win32,75.75757576,4,2,6,,,,,,,,3,02,,,,,,,,,,,7,7.84,0,,,,,,0.110185185,-0.418518519,1,0,0,7.8395,Peridotite_rect,5,0,5,0,1,
5c82c9a4d8302a00010639b8,TCN,2024-06-25_13h24.29.968,LearnStrategy,2023.2.3,Win32,75.75757576,4,2,7,,,,,,,,5,10,,,,,,,,,,,5,0.997,1,,,,,,-0.443518519,-0.403703704,1,0,0,0.9967,Obsidian_rect,6,0,6,0,1,
5c82c9a4d8302a00010639b8,TCN,2024-06-25_13h24.29.968,LearnStrategy,2023.2.3,Win32,75.75757576,4,2,8,,,,,,,,6,12,,,,,,,,,,,6,2.744,1,,,,,,-0.146296296,-0.410185185,1,0,0,2.7444,Pegmatite_rect,7,0,7,0,1,
5c82c9a4d8302a00010639b8,TCN,2024-06-25_13h24.29.968,LearnStrategy,2023.2.3,Win32,75.75757576,4,2,9,,,,,,,,3,09,,,,,,,,,,,1,1.476,0,,,,,,-0.392592593,-0.256481481,1,0,0,1.4765,Andesite_rect,8,0,8,0,1,
5c82c9a4d8302a00010639b8,TCN,2024-06-25_13h24.29.968,LearnStrategy,2023.2.3,Win32,75.75757576,4,2,10,,,,,,,,1,04,,,,,,,,,,,2,4.852,0,,,,,,-0.143518519,-0.237037037,1,0,0,4.8518,Basalt_rect,9,0,9,0,1,
5c82c9a4d8302a00010639b8,TCN,2024-06-25_13h24.29.968,LearnStrategy,2023.2.3,Win32,75.75757576,4,2,11,,,,,,,,4,09,,,,,,,,,,,3,6.092,0,,,,,,0.075925926,-0.250925926,1,0,0,6.0921,Diorite_rect,10,0,10,0,1,
5c82c9a4d8302a00010639b8,TCN,2024-06-25_13h24.29.968,LearnStrategy,2023.2.3,Win32,75.75757576,4,2,12,,,,,,,,8,04,,,,,,,,,,,8,1.584,1,,,,,,0.386111111,-0.401851852,1,0,0,1.5837,Pumice_rect,11,0,11,0,1,
5c82c9a4d8302a00010639b8,TCN,2024-06-25_13h24.29.968,LearnStrategy,2023.2.3,Win32,75.75757576,4,2,13,,,,,,,,6,13,,,,,,,,,,,6,1.877,1,,,,,,-0.081481481,-0.418518519,1,0,0,1.8773,Pegmatite_rect,12,0,12,0,1,
5c82c9a4d8302a00010639b8,TCN,2024-06-25_13h24.29.968,LearnStrategy,2023.2.3,Win32,75.75757576,4,2,14,,,,,,,,7,12,,,,,,,,,,,7,1.45,1,,,,,,0.125925926,-0.401851852,1,0,0,1.4502,Peridotite_rect,13,0,13,0,1,
5c82c9a4d8302a00010639b8,TCN,2024-06-25_13h24.29.968,LearnStrategy,2023.2.3,Win32,75.75757576,4,2,15,,,,,,,,1,06,,,,,,,,,,,1,2.21,1,,,,,,-0.360185185,-0.242592593,1,0,0,2.2103,Andesite_rect,14,0,14,0,1,
5c82c9a4d8302a00010639b8,TCN,2024-06-25_13h24.29.968,LearnStrategy,2023.2.3,Win32,75.75757576,4,2,16,,,,,,,,7,14,,,,,,,,,,,3,1.944,0,,,,,,0.118518519,-0.246296296,1,0,0,1.9436,Diorite_rect,15,0,15,0,1,
5c82c9a4d8302a00010639b8,TCN,2024-06-25_13h24.29.968,LearnStrategy,2023.2.3,Win32,75.75757576,5,1,1,0.012037037,0,1,0,0,1.4266,rock_grid_rect_2,5,12,-1,-1,1.427,-0.4,-0.417592593,1,0,0,1.944,Obsidian_rect,5,1.944,1,0,0,0,0,1,,,,,,,,,,,,,
5c82c9a4d8302a00010639b8,TCN,2024-06-25_13h24.29.968,LearnStrategy,2023.2.3,Win32,75.75757576,5,1,2,0.103703704,0.00462963,1,0,0,1.1193,rock_grid_rect_2,1,05,-1,-1,1.119,0.074074074,-0.234259259,1,0,0,7.271,Diorite_rect,3,7.271,0,1,0,1,0,1,,,,,,,,,,,,,
5c82c9a4d8302a00010639b8,TCN,2024-06-25_13h24.29.968,LearnStrategy,2023.2.3,Win32,75.75757576,5,1,3,0.025925926,0.012037037,1,0,0,0.7093,rock_grid_rect_2,4,10,-1,-1,0.709,0.085185185,-0.244444444,1,0,0,3.1858,Diorite_rect,3,3.186,0,2,0,2,0,1,,,,,,,,,,,,,
5c82c9a4d8302a00010639b8,TCN,2024-06-25_13h24.29.968,LearnStrategy,2023.2.3,Win32,75.75757576,5,1,4,0.035185185,0.008333333,1,0,0,0.6957,rock_grid_rect_2,8,02,-1,-1,0.696,0.367592593,-0.394444444,1,0,0,5.9078,Pumice_rect,8,5.908,1,3,0,3,0,1,,,,,,,,,,,,,
5c82c9a4d8302a00010639b8,TCN,2024-06-25_13h24.29.968,LearnStrategy,2023.2.3,Win32,75.75757576,5,1,5,0.041666667,0.010185185,1,0,0,0.6428,rock_grid_rect_2,6,03,-1,-1,0.643,-0.137037037,-0.408333333,1,0,0,1.9906,Pegmatite_rect,6,1.991,1,4,0,4,0,1,,,,,,,,,,,,,
5c82c9a4d8302a00010639b8,TCN,2024-06-25_13h24.29.968,LearnStrategy,2023.2.3,Win32,75.75757576,5,1,6,0.033333333,0.012037037,1,0,0,0.6538,rock_grid_rect_2,1,14,-1,-1,0.654,0.075925926,-0.246296296,1,0,0,9.2836,Diorite_rect,3,9.284,0,5,0,5,0,1,,,,,,,,,,,,,
5c82c9a4d8302a00010639b8,TCN,2024-06-25_13h24.29.968,LearnStrategy,2023.2.3,Win32,75.75757576,5,1,7,0.013888889,0.023148148,1,0,0,0.5738,rock_grid_rect_2,3,10,-1,-1,0.574,0.138888889,-0.234259259,1,0,0,4.1595,Diorite_rect,3,4.16,1,6,0,6,0,1,,,,,,,,,,,,,
5c82c9a4d8302a00010639b8,TCN,2024-06-25_13h24.29.968,LearnStrategy,2023.2.3,Win32,75.75757576,5,1,8,0.031481481,0.008333333,1,0,0,0.6921,rock_grid_rect_2,3,16,-1,-1,0.692,-0.1,-0.244444444,1,0,0,10.2954,Basalt_rect,2,10.295,0,7,0,7,0,1,,,,,,,,,,,,,
5c82c9a4d8302a00010639b8,TCN,2024-06-25_13h24.29.968,LearnStrategy,2023.2.3,Win32,75.75757576,5,1,9,0.012962963,0.007407407,1,0,0,0.782,rock_grid_rect_2,2,10,-1,-1,0.782,-0.108333333,-0.241666667,1,0,0,2.6256,Basalt_rect,2,2.626,1,8,0,8,0,1,,,,,,,,,,,,,
5c82c9a4d8302a00010639b8,TCN,2024-06-25_13h24.29.968,LearnStrategy,2023.2.3,Win32,75.75757576,5,1,10,-0.019444444,0.007407407,1,0,0,0.7492,rock_grid_rect_2,7,02,-1,-1,0.749,0.131481481,-0.413888889,1,0,0,2.4256,Peridotite_rect,7,2.426,1,9,0,9,0,1,,,,,,,,,,,,,
5c82c9a4d8302a00010639b8,TCN,2024-06-25_13h24.29.968,LearnStrategy,2023.2.3,Win32,75.75757576,5,1,11,-0.006481481,0.001851852,1,0,0,0.7741,rock_grid_rect_2,2,11,-1,-1,0.774,0.378703704,-0.401851852,1,0,0,3.3595,Pumice_rect,8,3.36,0,10,0,10,0,1,,,,,,,,,,,,,
5c82c9a4d8302a00010639b8,TCN,2024-06-25_13h24.29.968,LearnStrategy,2023.2.3,Win32,75.75757576,5,1,12,0.007407407,0.022222222,1,0,0,0.5333,rock_grid_rect_2,6,16,-1,-1,0.533,-0.148148148,-0.402777778,1,0,0,1.8787,Pegmatite_rect,6,1.879,1,11,0,11,0,1,,,,,,,,,,,,,
5c82c9a4d8302a00010639b8,TCN,2024-06-25_13h24.29.968,LearnStrategy,2023.2.3,Win32,75.75757576,5,1,13,-0.00462963,0.010185185,1,0,0,0.5493,rock_grid_rect_2,5,08,-1,-1,0.549,-0.374074074,-0.39537037,1,0,0,1.1851,Obsidian_rect,5,1.185,1,12,0,12,0,1,,,,,,,,,,,,,
5c82c9a4d8302a00010639b8,TCN,2024-06-25_13h24.29.968,LearnStrategy,2023.2.3,Win32,75.75757576,5,1,14,0.024074074,0.022222222,1,0,0,0.7629,rock_grid_rect_2,8,14,-1,-1,0.763,0.380555556,-0.406481481,1,0,0,1.959,Pumice_rect,8,1.959,1,13,0,13,0,1,,,,,,,,,,,,,
5c82c9a4d8302a00010639b8,TCN,2024-06-25_13h24.29.968,LearnStrategy,2023.2.3,Win32,75.75757576,5,1,15,0.009259259,0.003703704,1,0,0,0.5606,rock_grid_rect_2,7,15,-1,-1,0.561,0.141666667,-0.402777778,1,0,0,1.1319,Peridotite_rect,7,1.132,1,14,0,14,0,1,,,,,,,,,,,,,
5c82c9a4d8302a00010639b8,TCN,2024-06-25_13h24.29.968,LearnStrategy,2023.2.3,Win32,75.75757576,5,1,16,0.028703704,0,1,0,0,0.6829,rock_grid_rect_2,4,16,-1,-1,0.683,0.378703704,-0.267592593,1,0,0,6.2811,Gabbro_rect,4,6.281,1,15,0,15,0,1,,,,,,,,,,,,,
5c82c9a4d8302a00010639b8,TCN,2024-06-25_13h24.29.968,LearnStrategy,2023.2.3,Win32,75.75757576,5,2,1,,,,,,,,7,08,,,,,,,,,,,7,1.668,1,,,,,,0.12962963,-0.419444444,1,0,0,1.6683,Peridotite_rect,0,0,0,0,1,
5c82c9a4d8302a00010639b8,TCN,2024-06-25_13h24.29.968,LearnStrategy,2023.2.3,Win32,75.75757576,5,2,2,,,,,,,,2,04,,,,,,,,,,,2,4.963,1,,,,,,-0.139814815,-0.238888889,1,0,0,4.9632,Basalt_rect,1,0,1,0,1,
5c82c9a4d8302a00010639b8,TCN,2024-06-25_13h24.29.968,LearnStrategy,2023.2.3,Win32,75.75757576,5,2,3,,,,,,,,2,06,,,,,,,,,,,2,4.463,1,,,,,,-0.127777778,-0.248148148,1,0,0,4.4625,Basalt_rect,2,0,2,0,1,
5c82c9a4d8302a00010639b8,TCN,2024-06-25_13h24.29.968,LearnStrategy,2023.2.3,Win32,75.75757576,5,2,4,,,,,,,,6,07,,,,,,,,,,,6,1.813,1,,,,,,-0.134259259,-0.406481481,1,0,0,1.8135,Pegmatite_rect,3,0,3,0,1,
5c82c9a4d8302a00010639b8,TCN,2024-06-25_13h24.29.968,LearnStrategy,2023.2.3,Win32,75.75757576,5,2,5,,,,,,,,8,09,,,,,,,,,,,8,1.253,1,,,,,,0.424074074,-0.407407407,1,0,0,1.2532,Pumice_rect,4,0,4,0,1,
5c82c9a4d8302a00010639b8,TCN,2024-06-25_13h24.29.968,LearnStrategy,2023.2.3,Win32,75.75757576,5,2,6,,,,,,,,7,13,,,,,,,,,,,7,1.042,1,,,,,,0.17037037,-0.413888889,1,0,0,1.0416,Peridotite_rect,5,0,5,0,1,
5c82c9a4d8302a00010639b8,TCN,2024-06-25_13h24.29.968,LearnStrategy,2023.2.3,Win32,75.75757576,5,2,7,,,,,,,,1,16,,,,,,,,,,,1,2.558,1,,,,,,-0.393518519,-0.244444444,1,0,0,2.5584,Andesite_rect,6,0,6,0,1,
5c82c9a4d8302a00010639b8,TCN,2024-06-25_13h24.29.968,LearnStrategy,2023.2.3,Win32,75.75757576,5,2,8,,,,,,,,6,15,,,,,,,,,,,6,2.762,1,,,,,,-0.087037037,-0.394444444,1,0,0,2.7622,Pegmatite_rect,7,0,7,0,1,
5c82c9a4d8302a00010639b8,TCN,2024-06-25_13h24.29.968,LearnStrategy,2023.2.3,Win32,75.75757576,5,2,9,,,,,,,,5,06,,,,,,,,,,,5,0.975,1,,,,,,-0.383333333,-0.388888889,1,0,0,0.9749,Obsidian_rect,8,0,8,0,1,
5c82c9a4d8302a00010639b8,TCN,2024-06-25_13h24.29.968,LearnStrategy,2023.2.3,Win32,75.75757576,5,2,10,,,,,,,,4,12,,,,,,,,,,,4,6.204,1,,,,,,0.387037037,-0.243518519,1,0,0,6.204,Gabbro_rect,9,0,9,0,1,
5c82c9a4d8302a00010639b8,TCN,2024-06-25_13h24.29.968,LearnStrategy,2023.2.3,Win32,75.75757576,5,2,11,,,,,,,,3,08,,,,,,,,,,,3,1.868,1,,,,,,0.138888889,-0.257407407,1,0,0,1.8683,Diorite_rect,10,0,10,0,1,
5c82c9a4d8302a00010639b8,TCN,2024-06-25_13h24.29.968,LearnStrategy,2023.2.3,Win32,75.75757576,5,2,12,,,,,,,,8,15,,,,,,,,,,,8,1.416,1,,,,,,0.372222222,-0.407407407,1,0,0,1.4159,Pumice_rect,11,0,11,0,1,
5c82c9a4d8302a00010639b8,TCN,2024-06-25_13h24.29.968,LearnStrategy,2023.2.3,Win32,75.75757576,5,2,13,,,,,,,,5,11,,,,,,,,,,,5,1.094,1,,,,,,-0.387962963,-0.402777778,1,0,0,1.0945,Obsidian_rect,12,0,12,0,1,
5c82c9a4d8302a00010639b8,TCN,2024-06-25_13h24.29.968,LearnStrategy,2023.2.3,Win32,75.75757576,5,2,14,,,,,,,,4,08,,,,,,,,,,,4,2.522,1,,,,,,0.396296296,-0.257407407,1,0,0,2.522,Gabbro_rect,13,0,13,0,1,
5c82c9a4d8302a00010639b8,TCN,2024-06-25_13h24.29.968,LearnStrategy,2023.2.3,Win32,75.75757576,5,2,15,,,,,,,,1,01,,,,,,,,,,,1,2.625,1,,,,,,-0.355555556,-0.25462963,1,0,0,2.625,Andesite_rect,14,0,14,0,1,
5c82c9a4d8302a00010639b8,TCN,2024-06-25_13h24.29.968,LearnStrategy,2023.2.3,Win32,75.75757576,5,2,16,,,,,,,,3,13,,,,,,,,,,,3,4.404,1,,,,,,0.158333333,-0.248148148,1,0,0,4.4043,Diorite_rect,15,0,15,0,1,
5c82c9a4d8302a00010639b8,TCN,2024-06-25_13h24.29.968,LearnStrategy,2023.2.3,Win32,75.75757576,6,1,1,-0.028703704,0.014814815,1,0,0,0.8395,rock_grid_rect_2,4,14,-1,-1,0.839,0.359259259,-0.237037037,1,0,0,4.3177,Gabbro_rect,4,4.318,1,0,0,0,0,1,,,,,,,,,,,,,
5c82c9a4d8302a00010639b8,TCN,2024-06-25_13h24.29.968,LearnStrategy,2023.2.3,Win32,75.75757576,6,1,2,0.076851852,0.013888889,1,0,0,0.7991,rock_grid_rect_2,1,03,-1,-1,0.799,-0.380555556,-0.240740741,1,0,0,1.6505,Andesite_rect,1,1.65,1,1,0,1,0,1,,,,,,,,,,,,,
5c82c9a4d8302a00010639b8,TCN,2024-06-25_13h24.29.968,LearnStrategy,2023.2.3,Win32,75.75757576,6,1,3,0.063888889,-0.00462963,1,0,0,0.5862,rock_grid_rect_2,6,09,-1,-1,0.586,-0.10462963,-0.387962963,1,0,0,1.437,Pegmatite_rect,6,1.437,1,2,0,2,0,1,,,,,,,,,,,,,
5c82c9a4d8302a00010639b8,TCN,2024-06-25_13h24.29.968,LearnStrategy,2023.2.3,Win32,75.75757576,6,1,4,0.038888889,0.000925926,1,0,0,0.8127,rock_grid_rect_2,6,08,-1,-1,0.813,-0.04537037,-0.392592593,1,0,0,6.7191,Pegmatite_rect,6,6.719,1,3,0,3,0,1,,,,,,,,,,,,,
5c82c9a4d8302a00010639b8,TCN,2024-06-25_13h24.29.968,LearnStrategy,2023.2.3,Win32,75.75757576,6,1,5,0.075925926,0.016666667,1,0,0,0.4924,rock_grid_rect_2,7,07,-1,-1,0.492,0.130555556,-0.265740741,1,0,0,5.0253,Diorite_rect,3,5.025,0,4,0,4,0,1,,,,,,,,,,,,,
5c82c9a4d8302a00010639b8,TCN,2024-06-25_13h24.29.968,LearnStrategy,2023.2.3,Win32,75.75757576,6,1,6,0.055555556,0.000925926,1,0,0,0.6525,rock_grid_rect_2,1,11,-1,-1,0.652,0.410185185,-0.265740741,1,0,0,4.5192,Gabbro_rect,4,4.519,0,5,0,5,0,1,,,,,,,,,,,,,
5c82c9a4d8302a00010639b8,TCN,2024-06-25_13h24.29.968,LearnStrategy,2023.2.3,Win32,75.75757576,6,1,7,-0.042592593,0,1,0,0,0.4524,rock_grid_rect_2,5,09,-1,-1,0.452,-0.376851852,-0.4,1,0,0,2.0642,Obsidian_rect,5,2.064,1,6,0,6,0,1,,,,,,,,,,,,,
5c82c9a4d8302a00010639b8,TCN,2024-06-25_13h24.29.968,LearnStrategy,2023.2.3,Win32,75.75757576,6,1,8,-0.012037037,-0.005555556,1,0,0,0.7061,rock_grid_rect_2,2,16,-1,-1,0.706,0.415740741,-0.228703704,1,0,0,4.025,Gabbro_rect,4,4.025,0,7,0,7,0,1,,,,,,,,,,,,,
5c82c9a4d8302a00010639b8,TCN,2024-06-25_13h24.29.968,LearnStrategy,2023.2.3,Win32,75.75757576,6,1,9,0.068518519,0.007407407,1,0,0,0.759,rock_grid_rect_2,8,16,-1,-1,0.759,0.477777778,-0.40462963,1,0,0,1.144,Pumice_rect,8,1.144,1,8,0,8,0,1,,,,,,,,,,,,,
5c82c9a4d8302a00010639b8,TCN,2024-06-25_13h24.29.968,LearnStrategy,2023.2.3,Win32,75.75757576,6,1,10,0.007407407,0.023148148,1,0,0,0.6796,rock_grid_rect_2,4,03,-1,-1,0.68,0.398148148,-0.252777778,1,0,0,5.012,Gabbro_rect,4,5.012,1,9,0,9,0,1,,,,,,,,,,,,,
5c82c9a4d8302a00010639b8,TCN,2024-06-25_13h24.29.968,LearnStrategy,2023.2.3,Win32,75.75757576,6,1,11,0.026851852,0.009259259,1,0,0,0.5592,rock_grid_rect_2,5,05,-1,-1,0.559,-0.382407407,-0.419444444,1,0,0,1.3304,Obsidian_rect,5,1.33,1,10,0,10,0,1,,,,,,,,,,,,,
5c82c9a4d8302a00010639b8,TCN,2024-06-25_13h24.29.968,LearnStrategy,2023.2.3,Win32,75.75757576,6,1,12,0.005555556,-0.011111111,1,0,0,0.7462,rock_grid_rect_2,3,14,-1,-1,0.746,0.099074074,-0.228703704,1,0,0,1.6907,Diorite_rect,3,1.691,1,11,0,11,0,1,,,,,,,,,,,,,
5c82c9a4d8302a00010639b8,TCN,2024-06-25_13h24.29.968,LearnStrategy,2023.2.3,Win32,75.75757576,6,1,13,0.011111111,-0.001851852,1,0,0,0.5195,rock_grid_rect_2,7,04,-1,-1,0.519,0.115740741,-0.239814815,1,0,0,3.1441,Diorite_rect,3,3.144,0,12,0,12,0,1,,,,,,,,,,,,,
5c82c9a4d8302a00010639b8,TCN,2024-06-25_13h24.29.968,LearnStrategy,2023.2.3,Win32,75.75757576,6,1,14,0.050925926,0.008333333,1,0,0,0.5324,rock_grid_rect_2,8,10,-1,-1,0.532,0.365740741,-0.387037037,1,0,0,1.1572,Pumice_rect,8,1.157,1,13,0,13,0,1,,,,,,,,,,,,,
5c82c9a4d8302a00010639b8,TCN,2024-06-25_13h24.29.968,LearnStrategy,2023.2.3,Win32,75.75757576,6,1,15,0.016666667,0.018518519,1,0,0,0.5729,rock_grid_rect_2,2,09,-1,-1,0.573,-0.088888889,-0.260185185,1,0,0,2.2777,Basalt_rect,2,2.278,1,14,0,14,0,1,,,,,,,,,,,,,
5c82c9a4d8302a00010639b8,TCN,2024-06-25_13h24.29.968,LearnStrategy,2023.2.3,Win32,75.75757576,6,1,16,0.024074074,0.023148148,1,0,0,0.6258,rock_grid_rect_2,3,06,-1,-1,0.626,0.12962963,-0.258333333,1,0,0,4.1184,Diorite_rect,3,4.118,1,15,0,15,0,1,,,,,,,,,,,,,
5c82c9a4d8302a00010639b8,TCN,2024-06-25_13h24.29.968,LearnStrategy,2023.2.3,Win32,75.75757576,6,2,1,,,,,,,,8,13,,,,,,,,,,,8,1.557,1,,,,,,0.393518519,-0.399074074,1,0,0,1.557,Pumice_rect,0,0,0,0,1,
5c82c9a4d8302a00010639b8,TCN,2024-06-25_13h24.29.968,LearnStrategy,2023.2.3,Win32,75.75757576,6,2,2,,,,,,,,5,14,,,,,,,,,,,5,1.023,1,,,,,,-0.392592593,-0.418518519,1,0,0,1.0234,Obsidian_rect,1,0,1,0,1,
5c82c9a4d8302a00010639b8,TCN,2024-06-25_13h24.29.968,LearnStrategy,2023.2.3,Win32,75.75757576,6,2,3,,,,,,,,5,02,,,,,,,,,,,5,1.077,1,,,,,,-0.347222222,-0.396296296,1,0,0,1.077,Obsidian_rect,2,0,2,0,1,
5c82c9a4d8302a00010639b8,TCN,2024-06-25_13h24.29.968,LearnStrategy,2023.2.3,Win32,75.75757576,6,2,4,,,,,,,,1,02,,,,,,,,,,,1,3.624,1,,,,,,-0.415740741,-0.248148148,1,0,0,3.6244,Andesite_rect,3,0,3,0,1,
5c82c9a4d8302a00010639b8,TCN,2024-06-25_13h24.29.968,LearnStrategy,2023.2.3,Win32,75.75757576,6,2,5,,,,,,,,1,09,,,,,,,,,,,4,8.426,0,,,,,,0.376851852,-0.249074074,1,0,0,8.426,Gabbro_rect,4,0,4,0,1,
5c82c9a4d8302a00010639b8,TCN,2024-06-25_13h24.29.968,LearnStrategy,2023.2.3,Win32,75.75757576,6,2,6,,,,,,,,7,06,,,,,,,,,,,7,1.437,1,,,,,,0.113888889,-0.401851852,1,0,0,1.4372,Peridotite_rect,5,0,5,0,1,
5c82c9a4d8302a00010639b8,TCN,2024-06-25_13h24.29.968,LearnStrategy,2023.2.3,Win32,75.75757576,6,2,7,,,,,,,,6,10,,,,,,,,,,,6,1.837,1,,,,,,-0.116666667,-0.40462963,1,0,0,1.8369,Pegmatite_rect,6,0,6,0,1,
5c82c9a4d8302a00010639b8,TCN,2024-06-25_13h24.29.968,LearnStrategy,2023.2.3,Win32,75.75757576,6,2,8,,,,,,,,2,14,,,,,,,,,,,4,1.65,0,,,,,,0.362962963,-0.25,1,0,0,1.6504,Gabbro_rect,7,0,7,0,1,
5c82c9a4d8302a00010639b8,TCN,2024-06-25_13h24.29.968,LearnStrategy,2023.2.3,Win32,75.75757576,6,2,9,,,,,,,,3,12,,,,,,,,,,,1,1.57,0,,,,,,-0.371296296,-0.240740741,1,0,0,1.5702,Andesite_rect,8,0,8,0,1,
5c82c9a4d8302a00010639b8,TCN,2024-06-25_13h24.29.968,LearnStrategy,2023.2.3,Win32,75.75757576,6,2,10,,,,,,,,4,13,,,,,,,,,,,3,17.435,0,,,,,,0.12962963,-0.256481481,1,0,0,17.4346,Diorite_rect,9,0,9,0,1,
5c82c9a4d8302a00010639b8,TCN,2024-06-25_13h24.29.968,LearnStrategy,2023.2.3,Win32,75.75757576,6,2,11,,,,,,,,7,10,,,,,,,,,,,7,1.707,1,,,,,,0.082407407,-0.42037037,1,0,0,1.707,Peridotite_rect,10,0,10,0,1,
5c82c9a4d8302a00010639b8,TCN,2024-06-25_13h24.29.968,LearnStrategy,2023.2.3,Win32,75.75757576,6,2,12,,,,,,,,8,08,,,,,,,,,,,8,1.957,1,,,,,,0.384259259,-0.414814815,1,0,0,1.9571,Pumice_rect,11,0,11,0,1,
5c82c9a4d8302a00010639b8,TCN,2024-06-25_13h24.29.968,LearnStrategy,2023.2.3,Win32,75.75757576,6,2,13,,,,,,,,2,08,,,,,,,,,,,2,2.024,1,,,,,,-0.126851852,-0.237962963,1,0,0,2.0239,Basalt_rect,12,0,12,0,1,
5c82c9a4d8302a00010639b8,TCN,2024-06-25_13h24.29.968,LearnStrategy,2023.2.3,Win32,75.75757576,6,2,14,,,,,,,,6,05,,,,,,,,,,,3,5.852,0,,,,,,0.102777778,-0.241666667,1,0,0,5.8521,Diorite_rect,13,0,13,0,1,
5c82c9a4d8302a00010639b8,TCN,2024-06-25_13h24.29.968,LearnStrategy,2023.2.3,Win32,75.75757576,6,2,15,,,,,,,,3,11,,,,,,,,,,,4,3.611,0,,,,,,0.393518519,-0.237962963,1,0,0,3.6111,Gabbro_rect,14,0,14,0,1,
5c82c9a4d8302a00010639b8,TCN,2024-06-25_13h24.29.968,LearnStrategy,2023.2.3,Win32,75.75757576,6,2,16,,,,,,,,4,15,,,,,,,,,,,3,5.159,0,,,,,,0.199074074,-0.265740741,1,0,0,5.1585,Diorite_rect,15,0,15,0,1,
5c82c9a4d8302a00010639b8,TCN,2024-06-25_13h24.29.968,LearnStrategy,2023.2.3,Win32,75.75757576,7,1,1,-0.003703704,0.001851852,1,0,0,1.3331,rock_grid_rect_2,8,02,-1,-1,1.333,0.373148148,-0.398148148,1,0,0,1.8822,Pumice_rect,8,1.882,1,0,0,0,0,1,,,,,,,,,,,,,
5c82c9a4d8302a00010639b8,TCN,2024-06-25_13h24.29.968,LearnStrategy,2023.2.3,Win32,75.75757576,7,1,2,0.009259259,0,1,0,0,0.8381,rock_grid_rect_2,1,14,-1,-1,0.838,-0.399074074,-0.240740741,1,0,0,6.7853,Andesite_rect,1,6.785,1,1,0,1,0,1,,,,,,,,,,,,,
5c82c9a4d8302a00010639b8,TCN,2024-06-25_13h24.29.968,LearnStrategy,2023.2.3,Win32,75.75757576,7,1,3,-0.003703704,-0.003703704,1,0,0,0.6124,rock_grid_rect_2,5,05,-1,-1,0.612,-0.387962963,-0.412962963,1,0,0,1.0639,Obsidian_rect,5,1.064,1,2,0,2,0,1,,,,,,,,,,,,,
5c82c9a4d8302a00010639b8,TCN,2024-06-25_13h24.29.968,LearnStrategy,2023.2.3,Win32,75.75757576,7,1,4,-0.010185185,-0.001851852,1,0,0,0.5994,rock_grid_rect_2,4,03,-1,-1,0.599,0.432407407,-0.244444444,1,0,0,5.9855,Gabbro_rect,4,5.986,1,3,0,3,0,1,,,,,,,,,,,,,
5c82c9a4d8302a00010639b8,TCN,2024-06-25_13h24.29.968,LearnStrategy,2023.2.3,Win32,75.75757576,7,1,5,0.040740741,-0.006481481,1,0,0,0.5324,rock_grid_rect_2,1,10,-1,-1,0.532,-0.375925926,-0.241666667,1,0,0,8.6265,Andesite_rect,1,8.626,1,4,0,4,0,1,,,,,,,,,,,,,
5c82c9a4d8302a00010639b8,TCN,2024-06-25_13h24.29.968,LearnStrategy,2023.2.3,Win32,75.75757576,7,1,6,0.015740741,0.02037037,1,0,0,0.5058,rock_grid_rect_2,3,15,-1,-1,0.506,0.143518519,-0.265740741,1,0,0,2.4373,Diorite_rect,3,2.437,1,5,0,5,0,1,,,,,,,,,,,,,
5c82c9a4d8302a00010639b8,TCN,2024-06-25_13h24.29.968,LearnStrategy,2023.2.3,Win32,75.75757576,7,1,7,0.032407407,-0.001851852,1,0,0,0.5729,rock_grid_rect_2,5,12,-1,-1,0.573,-0.333333333,-0.418518519,1,0,0,0.9849,Obsidian_rect,5,0.985,1,6,0,6,0,1,,,,,,,,,,,,,
5c82c9a4d8302a00010639b8,TCN,2024-06-25_13h24.29.968,LearnStrategy,2023.2.3,Win32,75.75757576,7,1,8,-0.007407407,0.00462963,1,0,0,0.5462,rock_grid_rect_2,6,08,-1,-1,0.546,-0.124074074,-0.412962963,1,0,0,1.3571,Pegmatite_rect,6,1.357,1,7,0,7,0,1,,,,,,,,,,,,,
5c82c9a4d8302a00010639b8,TCN,2024-06-25_13h24.29.968,LearnStrategy,2023.2.3,Win32,75.75757576,7,1,9,-0.044444444,0.006481481,1,0,0,0.5597,rock_grid_rect_2,2,12,-1,-1,0.56,0.343518519,-0.392592593,1,0,0,15.0423,Pumice_rect,8,15.042,0,8,0,8,0,1,,,,,,,,,,,,,
5c82c9a4d8302a00010639b8,TCN,2024-06-25_13h24.29.968,LearnStrategy,2023.2.3,Win32,75.75757576,7,1,10,-0.008333333,-0.003703704,1,0,0,0.6527,rock_grid_rect_2,8,16,-1,-1,0.653,0.408333333,-0.40462963,1,0,0,1.9574,Pumice_rect,8,1.957,1,9,0,9,0,1,,,,,,,,,,,,,
5c82c9a4d8302a00010639b8,TCN,2024-06-25_13h24.29.968,LearnStrategy,2023.2.3,Win32,75.75757576,7,1,11,-0.009259259,0.010185185,1,0,0,0.6392,rock_grid_rect_2,3,10,-1,-1,0.639,0.136111111,-0.249074074,1,0,0,4.0649,Diorite_rect,3,4.065,1,10,0,10,0,1,,,,,,,,,,,,,
5c82c9a4d8302a00010639b8,TCN,2024-06-25_13h24.29.968,LearnStrategy,2023.2.3,Win32,75.75757576,7,1,12,0.032407407,0.010185185,1,0,0,0.5991,rock_grid_rect_2,7,04,-1,-1,0.599,0.098148148,-0.410185185,1,0,0,1.9842,Peridotite_rect,7,1.984,1,11,0,11,0,1,,,,,,,,,,,,,
5c82c9a4d8302a00010639b8,TCN,2024-06-25_13h24.29.968,LearnStrategy,2023.2.3,Win32,75.75757576,7,1,13,0.022222222,0.007407407,1,0,0,0.5056,rock_grid_rect_2,7,16,-1,-1,0.506,0.085185185,-0.237037037,1,0,0,2.6511,Diorite_rect,3,2.651,0,12,0,12,0,1,,,,,,,,,,,,,
5c82c9a4d8302a00010639b8,TCN,2024-06-25_13h24.29.968,LearnStrategy,2023.2.3,Win32,75.75757576,7,1,14,0.044444444,0.018518519,1,0,0,0.5858,rock_grid_rect_2,4,01,-1,-1,0.586,0.383333333,-0.235185185,1,0,0,3.3714,Gabbro_rect,4,3.371,1,13,0,13,0,1,,,,,,,,,,,,,
5c82c9a4d8302a00010639b8,TCN,2024-06-25_13h24.29.968,LearnStrategy,2023.2.3,Win32,75.75757576,7,1,15,0.021296296,-0.007407407,1,0,0,0.7858,rock_grid_rect_2,2,10,-1,-1,0.786,-0.098148148,-0.269444444,1,0,0,1.1171,Basalt_rect,2,1.117,1,14,0,14,0,1,,,,,,,,,,,,,
5c82c9a4d8302a00010639b8,TCN,2024-06-25_13h24.29.968,LearnStrategy,2023.2.3,Win32,75.75757576,7,1,16,0.037962963,0.012962963,1,0,0,0.5728,rock_grid_rect_2,6,09,-1,-1,0.573,-0.119444444,-0.413888889,1,0,0,1.7706,Pegmatite_rect,6,1.771,1,15,0,15,0,1,,,,,,,,,,,,,
5c82c9a4d8302a00010639b8,TCN,2024-06-25_13h24.29.968,LearnStrategy,2023.2.3,Win32,75.75757576,7,2,1,,,,,,,,8,15,,,,,,,,,,,8,1.782,1,,,,,,0.451851852,-0.411111111,1,0,0,1.7815,Pumice_rect,0,0,0,0,1,
5c82c9a4d8302a00010639b8,TCN,2024-06-25_13h24.29.968,LearnStrategy,2023.2.3,Win32,75.75757576,7,2,2,,,,,,,,3,13,,,,,,,,,,,3,17.966,1,,,,,,0.105555556,-0.255555556,1,0,0,17.9663,Diorite_rect,1,0,1,0,1,
5c82c9a4d8302a00010639b8,TCN,2024-06-25_13h24.29.968,LearnStrategy,2023.2.3,Win32,75.75757576,7,2,3,,,,,,,,5,14,,,,,,,,,,,5,1.228,1,,,,,,-0.375,-0.405555556,1,0,0,1.2281,Obsidian_rect,2,0,2,0,1,
5c82c9a4d8302a00010639b8,TCN,2024-06-25_13h24.29.968,LearnStrategy,2023.2.3,Win32,75.75757576,7,2,4,,,,,,,,7,14,,,,,,,,,,,4,6.764,0,,,,,,0.408333333,-0.248148148,1,0,0,6.7637,Gabbro_rect,3,0,3,0,1,
5c82c9a4d8302a00010639b8,TCN,2024-06-25_13h24.29.968,LearnStrategy,2023.2.3,Win32,75.75757576,7,2,5,,,,,,,,4,09,,,,,,,,,,,3,8.246,0,,,,,,0.144444444,-0.247222222,1,0,0,8.2462,Diorite_rect,4,0,4,0,1,
5c82c9a4d8302a00010639b8,TCN,2024-06-25_13h24.29.968,LearnStrategy,2023.2.3,Win32,75.75757576,7,2,6,,,,,,,,6,12,,,,,,,,,,,3,13.179,0,,,,,,0.066666667,-0.262037037,1,0,0,13.1795,Diorite_rect,5,0,5,0,1,
5c82c9a4d8302a00010639b8,TCN,2024-06-25_13h24.29.968,LearnStrategy,2023.2.3,Win32,75.75757576,7,2,7,,,,,,,,5,04,,,,,,,,,,,5,1.482,1,,,,,,-0.358333333,-0.399074074,1,0,0,1.482,Obsidian_rect,6,0,6,0,1,
5c82c9a4d8302a00010639b8,TCN,2024-06-25_13h24.29.968,LearnStrategy,2023.2.3,Win32,75.75757576,7,2,8,,,,,,,,1,02,,,,,,,,,,,1,1.173,1,,,,,,-0.377777778,-0.263888889,1,0,0,1.1731,Andesite_rect,7,0,7,0,1,
5c82c9a4d8302a00010639b8,TCN,2024-06-25_13h24.29.968,LearnStrategy,2023.2.3,Win32,75.75757576,7,2,9,,,,,,,,2,06,,,,,,,,,,,2,1.135,1,,,,,,-0.139814815,-0.237037037,1,0,0,1.135,Basalt_rect,8,0,8,0,1,
5c82c9a4d8302a00010639b8,TCN,2024-06-25_13h24.29.968,LearnStrategy,2023.2.3,Win32,75.75757576,7,2,10,,,,,,,,7,08,,,,,,,,,,,7,6.626,1,,,,,,0.074074074,-0.408333333,1,0,0,6.6257,Peridotite_rect,9,0,9,0,1,
5c82c9a4d8302a00010639b8,TCN,2024-06-25_13h24.29.968,LearnStrategy,2023.2.3,Win32,75.75757576,7,2,11,,,,,,,,6,13,,,,,,,,,,,6,1.037,1,,,,,,-0.159259259,-0.387962963,1,0,0,1.0367,Pegmatite_rect,10,0,10,0,1,
5c82c9a4d8302a00010639b8,TCN,2024-06-25_13h24.29.968,LearnStrategy,2023.2.3,Win32,75.75757576,7,2,12,,,,,,,,3,12,,,,,,,,,,,1,2.211,0,,,,,,-0.362962963,-0.247222222,1,0,0,2.2107,Andesite_rect,11,0,11,0,1,
5c82c9a4d8302a00010639b8,TCN,2024-06-25_13h24.29.968,LearnStrategy,2023.2.3,Win32,75.75757576,7,2,13,,,,,,,,2,08,,,,,,,,,,,2,0.823,1,,,,,,-0.089814815,-0.253703704,1,0,0,0.8232,Basalt_rect,12,0,12,0,1,
5c82c9a4d8302a00010639b8,TCN,2024-06-25_13h24.29.968,LearnStrategy,2023.2.3,Win32,75.75757576,7,2,14,,,,,,,,1,06,,,,,,,,,,,1,2.998,1,,,,,,-0.355555556,-0.250925926,1,0,0,2.9977,Andesite_rect,13,0,13,0,1,
5c82c9a4d8302a00010639b8,TCN,2024-06-25_13h24.29.968,LearnStrategy,2023.2.3,Win32,75.75757576,7,2,15,,,,,,,,4,12,,,,,,,,,,,4,2.024,1,,,,,,0.342592593,-0.24537037,1,0,0,2.0238,Gabbro_rect,14,0,14,0,1,
5c82c9a4d8302a00010639b8,TCN,2024-06-25_13h24.29.968,LearnStrategy,2023.2.3,Win32,75.75757576,7,2,16,,,,,,,,8,04,,,,,,,,,,,8,0.997,1,,,,,,0.348148148,-0.402777778,1,0,0,0.9971,Pumice_rect,15,0,15,0,1,
5c82c9a4d8302a00010639b8,TCN,2024-06-25_13h24.29.968,LearnStrategy,2023.2.3,Win32,75.75757576,8,1,1,0.032407407,0,1,0,0,0.8924,rock_grid_rect_2,5,09,-1,-1,0.892,-0.335185185,-0.378703704,1,0,0,1.0509,Obsidian_rect,5,1.051,1,0,0,0,0,1,,,,,,,,,,,,,
5c82c9a4d8302a00010639b8,TCN,2024-06-25_13h24.29.968,LearnStrategy,2023.2.3,Win32,75.75757576,8,1,2,0.015740741,-0.005555556,1,0,0,1.0027,rock_grid_rect_2,2,02,-1,-1,1.003,-0.135185185,-0.241666667,1,0,0,3.773,Basalt_rect,2,3.773,1,1,0,1,0,1,,,,,,,,,,,,,
5c82c9a4d8302a00010639b8,TCN,2024-06-25_13h24.29.968,LearnStrategy,2023.2.3,Win32,75.75757576,8,1,3,0.021296296,-0.014814815,1,0,0,0.5493,rock_grid_rect_2,7,07,-1,-1,0.549,0.122222222,-0.255555556,1,0,0,3.4671,Diorite_rect,3,3.467,0,2,0,2,0,1,,,,,,,,,,,,,
5c82c9a4d8302a00010639b8,TCN,2024-06-25_13h24.29.968,LearnStrategy,2023.2.3,Win32,75.75757576,8,1,4,0.023148148,-0.008333333,1,0,0,0.5865,rock_grid_rect_2,6,03,-1,-1,0.586,-0.118518519,-0.411111111,1,0,0,1.1329,Pegmatite_rect,6,1.133,1,3,0,3,0,1,,,,,,,,,,,,,
5c82c9a4d8302a00010639b8,TCN,2024-06-25_13h24.29.968,LearnStrategy,2023.2.3,Win32,75.75757576,8,1,5,0.040740741,0.012037037,1,0,0,0.584,rock_grid_rect_2,4,10,-1,-1,0.584,0.124074074,-0.242592593,1,0,0,1.2691,Diorite_rect,3,1.269,0,4,0,4,0,1,,,,,,,,,,,,,
5c82c9a4d8302a00010639b8,TCN,2024-06-25_13h24.29.968,LearnStrategy,2023.2.3,Win32,75.75757576,8,1,6,0.07962963,-0.000925926,1,0,0,0.6028,rock_grid_rect_2,8,14,-1,-1,0.603,0.402777778,-0.387962963,1,0,0,1.0008,Pumice_rect,8,1.001,1,5,0,5,0,1,,,,,,,,,,,,,
5c82c9a4d8302a00010639b8,TCN,2024-06-25_13h24.29.968,LearnStrategy,2023.2.3,Win32,75.75757576,8,1,7,0.023148148,0.014814815,1,0,0,0.5695,rock_grid_rect_2,7,05,-1,-1,0.57,0.123148148,-0.239814815,1,0,0,2.0956,Diorite_rect,3,2.096,0,6,0,6,0,1,,,,,,,,,,,,,
5c82c9a4d8302a00010639b8,TCN,2024-06-25_13h24.29.968,LearnStrategy,2023.2.3,Win32,75.75757576,8,1,8,0.078703704,-0.008333333,1,0,0,0.5604,rock_grid_rect_2,3,07,-1,-1,0.56,-0.39537037,-0.255555556,1,0,0,2.1057,Andesite_rect,1,2.106,0,7,0,7,0,1,,,,,,,,,,,,,
5c82c9a4d8302a00010639b8,TCN,2024-06-25_13h24.29.968,LearnStrategy,2023.2.3,Win32,75.75757576,8,1,9,0.02962963,-0.022222222,1,0,0,0.561,rock_grid_rect_2,3,14,-1,-1,0.561,-0.400925926,-0.247222222,1,0,0,1.2997,Andesite_rect,1,1.3,0,8,0,8,0,1,,,,,,,,,,,,,
5c82c9a4d8302a00010639b8,TCN,2024-06-25_13h24.29.968,LearnStrategy,2023.2.3,Win32,75.75757576,8,1,10,-0.022222222,0.002777778,1,0,0,0.7731,rock_grid_rect_2,4,16,-1,-1,0.773,0.35,-0.238888889,1,0,0,1.4906,Gabbro_rect,4,1.491,1,9,0,9,0,1,,,,,,,,,,,,,
5c82c9a4d8302a00010639b8,TCN,2024-06-25_13h24.29.968,LearnStrategy,2023.2.3,Win32,75.75757576,8,1,11,-0.015740741,-0.006481481,1,0,0,0.4926,rock_grid_rect_2,2,11,-1,-1,0.493,0.336111111,-0.405555556,1,0,0,2.6508,Pumice_rect,8,2.651,0,10,0,10,0,1,,,,,,,,,,,,,
5c82c9a4d8302a00010639b8,TCN,2024-06-25_13h24.29.968,LearnStrategy,2023.2.3,Win32,75.75757576,8,1,12,-0.027777778,-0.007407407,1,0,0,0.466,rock_grid_rect_2,5,08,-1,-1,0.466,-0.409259259,-0.411111111,1,0,0,3.8647,Obsidian_rect,5,3.865,1,11,0,11,0,1,,,,,,,,,,,,,
5c82c9a4d8302a00010639b8,TCN,2024-06-25_13h24.29.968,LearnStrategy,2023.2.3,Win32,75.75757576,8,1,13,-0.017592593,-0.017592593,1,0,0,0.5592,rock_grid_rect_2,1,03,-1,-1,0.559,-0.397222222,-0.251851852,1,0,0,1.3306,Andesite_rect,1,1.331,1,12,0,12,0,1,,,,,,,,,,,,,
5c82c9a4d8302a00010639b8,TCN,2024-06-25_13h24.29.968,LearnStrategy,2023.2.3,Win32,75.75757576,8,1,14,-0.036111111,0.024074074,1,0,0,0.6129,rock_grid_rect_2,1,05,-1,-1,0.613,-0.417592593,-0.264814815,1,0,0,1.5174,Andesite_rect,1,1.517,1,13,0,13,0,1,,,,,,,,,,,,,
5c82c9a4d8302a00010639b8,TCN,2024-06-25_13h24.29.968,LearnStrategy,2023.2.3,Win32,75.75757576,8,1,15,0.005555556,0.017592593,1,0,0,0.4789,rock_grid_rect_2,6,06,-1,-1,0.479,-0.143518519,-0.401851852,1,0,0,1.2506,Pegmatite_rect,6,1.251,1,14,0,14,0,1,,,,,,,,,,,,,
5c82c9a4d8302a00010639b8,TCN,2024-06-25_13h24.29.968,LearnStrategy,2023.2.3,Win32,75.75757576,8,1,16,0.001851852,0,1,0,0,0.5996,rock_grid_rect_2,8,06,-1,-1,0.6,0.382407407,-0.381481481,1,0,0,0.957,Pumice_rect,8,0.957,1,15,0,15,0,1,,,,,,,,,,,,,
5c82c9a4d8302a00010639b8,TCN,2024-06-25_13h24.29.968,LearnStrategy,2023.2.3,Win32,75.75757576,8,2,1,,,,,,,,4,15,,,,,,,,,,,4,16.189,1,,,,,,0.373148148,-0.247222222,1,0,0,16.1893,Gabbro_rect,0,0,0,0,1,
5c82c9a4d8302a00010639b8,TCN,2024-06-25_13h24.29.968,LearnStrategy,2023.2.3,Win32,75.75757576,8,2,2,,,,,,,,4,05,,,,,,,,,,,4,19.964,1,,,,,,0.385185185,-0.260185185,1,0,0,19.964,Gabbro_rect,1,0,1,0,1,
5c82c9a4d8302a00010639b8,TCN,2024-06-25_13h24.29.968,LearnStrategy,2023.2.3,Win32,75.75757576,8,2,3,,,,,,,,3,09,,,,,,,,,,,3,3.411,1,,,,,,0.126851852,-0.259259259,1,0,0,3.411,Diorite_rect,2,0,2,0,1,
5c82c9a4d8302a00010639b8,TCN,2024-06-25_13h24.29.968,LearnStrategy,2023.2.3,Win32,75.75757576,8,2,4,,,,,,,,2,04,,,,,,,,,,,2,0.917,1,,,,,,-0.09537037,-0.252777778,1,0,0,0.9168,Basalt_rect,3,0,3,0,1,
5c82c9a4d8302a00010639b8,TCN,2024-06-25_13h24.29.968,LearnStrategy,2023.2.3,Win32,75.75757576,8,2,5,,,,,,,,5,11,,,,,,,,,,,5,0.944,1,,,,,,-0.325,-0.400925926,1,0,0,0.9436,Obsidian_rect,4,0,4,0,1,
5c82c9a4d8302a00010639b8,TCN,2024-06-25_13h24.29.968,LearnStrategy,2023.2.3,Win32,75.75757576,8,2,6,,,,,,,,7,13,,,,,,,,,,,7,1.29,1,,,,,,0.149074074,-0.410185185,1,0,0,1.2904,Peridotite_rect,5,0,5,0,1,
5c82c9a4d8302a00010639b8,TCN,2024-06-25_13h24.29.968,LearnStrategy,2023.2.3,Win32,75.75757576,8,2,7,,,,,,,,2,05,,,,,,,,,,,2,0.997,1,,,,,,-0.10462963,-0.248148148,1,0,0,0.9969,Basalt_rect,6,0,6,0,1,
5c82c9a4d8302a00010639b8,TCN,2024-06-25_13h24.29.968,LearnStrategy,2023.2.3,Win32,75.75757576,8,2,8,,,,,,,,3,11,,,,,,,,,,,1,1.317,0,,,,,,-0.408333333,-0.267592593,1,0,0,1.3169,Andesite_rect,7,0,7,0,1,
5c82c9a4d8302a00010639b8,TCN,2024-06-25_13h24.29.968,LearnStrategy,2023.2.3,Win32,75.75757576,8,2,9,,,,,,,,1,09,,,,,,,,,,,4,9.653,0,,,,,,0.388888889,-0.249074074,1,0,0,9.6534,Gabbro_rect,8,0,8,0,1,
5c82c9a4d8302a00010639b8,TCN,2024-06-25_13h24.29.968,LearnStrategy,2023.2.3,Win32,75.75757576,8,2,10,,,,,,,,8,09,,,,,,,,,,,8,1.024,1,,,,,,0.387962963,-0.407407407,1,0,0,1.0236,Pumice_rect,9,0,9,0,1,
5c82c9a4d8302a00010639b8,TCN,2024-06-25_13h24.29.968,LearnStrategy,2023.2.3,Win32,75.75757576,8,2,11,,,,,,,,5,10,,,,,,,,,,,5,1.024,1,,,,,,-0.388888889,-0.411111111,1,0,0,1.0236,Obsidian_rect,10,0,10,0,1,
5c82c9a4d8302a00010639b8,TCN,2024-06-25_13h24.29.968,LearnStrategy,2023.2.3,Win32,75.75757576,8,2,12,,,,,,,,1,01,,,,,,,,,,,1,3.691,1,,,,,,-0.40462963,-0.249074074,1,0,0,3.6911,Andesite_rect,11,0,11,0,1,
5c82c9a4d8302a00010639b8,TCN,2024-06-25_13h24.29.968,LearnStrategy,2023.2.3,Win32,75.75757576,8,2,13,,,,,,,,7,10,,,,,,,,,,,7,1.13,1,,,,,,0.123148148,-0.389814815,1,0,0,1.1303,Peridotite_rect,12,0,12,0,1,
5c82c9a4d8302a00010639b8,TCN,2024-06-25_13h24.29.968,LearnStrategy,2023.2.3,Win32,75.75757576,8,2,14,,,,,,,,6,07,,,,,,,,,,,6,1.024,1,,,,,,-0.15,-0.4,1,0,0,1.0235,Pegmatite_rect,13,0,13,0,1,
5c82c9a4d8302a00010639b8,TCN,2024-06-25_13h24.29.968,LearnStrategy,2023.2.3,Win32,75.75757576,8,2,15,,,,,,,,8,13,,,,,,,,,,,8,0.903,1,,,,,,0.374074074,-0.406481481,1,0,0,0.9034,Pumice_rect,14,0,14,0,1,
5c82c9a4d8302a00010639b8,TCN,2024-06-25_13h24.29.968,LearnStrategy,2023.2.3,Win32,75.75757576,8,2,16,,,,,,,,6,15,,,,,,,,,,,6,0.89,1,,,,,,-0.149074074,-0.402777778,1,0,0,0.8903,Pegmatite_rect,15,0,15,0,1,
5c82c9a4d8302a00010639b8,TCN,2024-06-25_13h24.29.968,LearnStrategy,2023.2.3,Win32,75.75757576,9,1,1,0.050925926,-0.001851852,1,0,0,0.6663,rock_grid_rect_2,1,07,-1,-1,0.666,-0.368518519,-0.240740741,1,0,0,6.9505,Andesite_rect,1,6.95,1,0,0,0,0,1,,,,,,,,,,,,,
5c82c9a4d8302a00010639b8,TCN,2024-06-25_13h24.29.968,LearnStrategy,2023.2.3,Win32,75.75757576,9,1,2,0.005555556,-0.010185185,1,0,0,0.5322,rock_grid_rect_2,3,16,-1,-1,0.532,0.37037037,-0.246296296,1,0,0,3.9764,Gabbro_rect,4,3.976,0,1,0,1,0,1,,,,,,,,,,,,,
5c82c9a4d8302a00010639b8,TCN,2024-06-25_13h24.29.968,LearnStrategy,2023.2.3,Win32,75.75757576,9,1,3,0.075,-0.013888889,1,0,0,0.5717,rock_grid_rect_2,5,07,-1,-1,0.572,-0.374074074,-0.398148148,1,0,0,0.9337,Obsidian_rect,5,0.934,1,2,0,2,0,1,,,,,,,,,,,,,
5c82c9a4d8302a00010639b8,TCN,2024-06-25_13h24.29.968,LearnStrategy,2023.2.3,Win32,75.75757576,9,1,4,0.033333333,0,1,0,0,0.9302,rock_grid_rect_2,7,02,-1,-1,0.93,0.161111111,-0.4,1,0,0,1.0562,Peridotite_rect,7,1.056,1,3,0,3,0,1,,,,,,,,,,,,,
5c82c9a4d8302a00010639b8,TCN,2024-06-25_13h24.29.968,LearnStrategy,2023.2.3,Win32,75.75757576,9,1,5,0.044444444,0,1,0,0,0.5843,rock_grid_rect_2,8,10,-1,-1,0.584,0.411111111,-0.399074074,1,0,0,0.8952,Pumice_rect,8,0.895,1,4,0,4,0,1,,,,,,,,,,,,,
5c82c9a4d8302a00010639b8,TCN,2024-06-25_13h24.29.968,LearnStrategy,2023.2.3,Win32,75.75757576,9,1,6,0.017592593,0.000925926,1,0,0,0.5477,rock_grid_rect_2,2,16,-1,-1,0.548,0.459259259,-0.266666667,1,0,0,3.1062,Gabbro_rect,4,3.106,0,5,0,5,0,1,,,,,,,,,,,,,
5c82c9a4d8302a00010639b8,TCN,2024-06-25_13h24.29.968,LearnStrategy,2023.2.3,Win32,75.75757576,9,1,7,-0.001851852,-0.019444444,1,0,0,0.5174,rock_grid_rect_2,4,11,-1,-1,0.517,0.382407407,-0.237037037,1,0,0,2.7879,Gabbro_rect,4,2.788,1,6,0,6,0,1,,,,,,,,,,,,,
5c82c9a4d8302a00010639b8,TCN,2024-06-25_13h24.29.968,LearnStrategy,2023.2.3,Win32,75.75757576,9,1,8,0.008333333,-0.011111111,1,0,0,0.8808,rock_grid_rect_2,1,11,-1,-1,0.881,-0.390740741,-0.239814815,1,0,0,4.5731,Andesite_rect,1,4.573,1,7,0,7,0,1,,,,,,,,,,,,,
5c82c9a4d8302a00010639b8,TCN,2024-06-25_13h24.29.968,LearnStrategy,2023.2.3,Win32,75.75757576,9,1,9,-0.018518519,0.002777778,1,0,0,0.5074,rock_grid_rect_2,3,06,-1,-1,0.507,0.09537037,-0.249074074,1,0,0,3.3203,Diorite_rect,3,3.32,1,8,0,8,0,1,,,,,,,,,,,,,
5c82c9a4d8302a00010639b8,TCN,2024-06-25_13h24.29.968,LearnStrategy,2023.2.3,Win32,75.75757576,9,1,10,0.022222222,0.022222222,1,0,0,0.505,rock_grid_rect_2,8,03,-1,-1,0.505,0.364814815,-0.392592593,1,0,0,0.9985,Pumice_rect,8,0.998,1,9,0,9,0,1,,,,,,,,,,,,,
5c82c9a4d8302a00010639b8,TCN,2024-06-25_13h24.29.968,LearnStrategy,2023.2.3,Win32,75.75757576,9,1,11,-0.051851852,0.009259259,1,0,0,0.5589,rock_grid_rect_2,6,11,-1,-1,0.559,-0.1,-0.413888889,1,0,0,1.0794,Pegmatite_rect,6,1.079,1,10,0,10,0,1,,,,,,,,,,,,,
5c82c9a4d8302a00010639b8,TCN,2024-06-25_13h24.29.968,LearnStrategy,2023.2.3,Win32,75.75757576,9,1,12,-0.003703704,0.005555556,1,0,0,0.5052,rock_grid_rect_2,5,16,-1,-1,0.505,-0.369444444,-0.417592593,1,0,0,1.5187,Obsidian_rect,5,1.519,1,11,0,11,0,1,,,,,,,,,,,,,
5c82c9a4d8302a00010639b8,TCN,2024-06-25_13h24.29.968,LearnStrategy,2023.2.3,Win32,75.75757576,9,1,13,0.002777778,-0.012037037,1,0,0,0.5049,rock_grid_rect_2,4,14,-1,-1,0.505,0.335185185,-0.250925926,1,0,0,3.5244,Gabbro_rect,4,3.524,1,12,0,12,0,1,,,,,,,,,,,,,
5c82c9a4d8302a00010639b8,TCN,2024-06-25_13h24.29.968,LearnStrategy,2023.2.3,Win32,75.75757576,9,1,14,-0.002777778,-0.005555556,1,0,0,0.5755,rock_grid_rect_2,6,16,-1,-1,0.576,-0.128703704,-0.391666667,1,0,0,1.3045,Pegmatite_rect,6,1.304,1,13,0,13,0,1,,,,,,,,,,,,,
5c82c9a4d8302a00010639b8,TCN,2024-06-25_13h24.29.968,LearnStrategy,2023.2.3,Win32,75.75757576,9,1,15,0,0.015740741,1,0,0,0.531,rock_grid_rect_2,2,09,-1,-1,0.531,-0.109259259,-0.256481481,1,0,0,1.0286,Basalt_rect,2,1.029,1,14,0,14,0,1,,,,,,,,,,,,,
5c82c9a4d8302a00010639b8,TCN,2024-06-25_13h24.29.968,LearnStrategy,2023.2.3,Win32,75.75757576,9,1,16,0.048148148,0.000925926,1,0,0,0.5497,rock_grid_rect_2,7,15,-1,-1,0.55,0.124074074,-0.413888889,1,0,0,0.8784,Peridotite_rect,7,0.878,1,15,0,15,0,1,,,,,,,,,,,,,
5c82c9a4d8302a00010639b8,TCN,2024-06-25_13h24.29.968,LearnStrategy,2023.2.3,Win32,75.75757576,9,2,1,,,,,,,,6,10,,,,,,,,,,,6,1.095,1,,,,,,-0.133333333,-0.413888889,1,0,0,1.0949,Pegmatite_rect,0,0,0,0,1,
5c82c9a4d8302a00010639b8,TCN,2024-06-25_13h24.29.968,LearnStrategy,2023.2.3,Win32,75.75757576,9,2,2,,,,,,,,7,12,,,,,,,,,,,7,8.737,1,,,,,,0.122222222,-0.398148148,1,0,0,8.7371,Peridotite_rect,1,0,1,0,1,
5c82c9a4d8302a00010639b8,TCN,2024-06-25_13h24.29.968,LearnStrategy,2023.2.3,Win32,75.75757576,9,2,3,,,,,,,,4,13,,,,,,,,,,,1,13.76,0,,,,,,-0.373148148,-0.237037037,1,0,0,13.7597,Andesite_rect,2,0,2,0,1,
5c82c9a4d8302a00010639b8,TCN,2024-06-25_13h24.29.968,LearnStrategy,2023.2.3,Win32,75.75757576,9,2,4,,,,,,,,8,05,,,,,,,,,,,8,1.09,1,,,,,,0.417592593,-0.39537037,1,0,0,1.0903,Pumice_rect,3,0,3,0,1,
5c82c9a4d8302a00010639b8,TCN,2024-06-25_13h24.29.968,LearnStrategy,2023.2.3,Win32,75.75757576,9,2,5,,,,,,,,3,08,,,,,,,,,,,7,4.932,0,,,,,,0.122222222,-0.405555556,1,0,0,4.9317,Peridotite_rect,4,0,4,0,1,
5c82c9a4d8302a00010639b8,TCN,2024-06-25_13h24.29.968,LearnStrategy,2023.2.3,Win32,75.75757576,9,2,6,,,,,,,,6,05,,,,,,,,,,,6,5.519,1,,,,,,-0.15,-0.40462963,1,0,0,5.5187,Pegmatite_rect,5,0,5,0,1,
5c82c9a4d8302a00010639b8,TCN,2024-06-25_13h24.29.968,LearnStrategy,2023.2.3,Win32,75.75757576,9,2,7,,,,,,,,3,02,,,,,,,,,,,3,1.277,1,,,,,,0.137037037,-0.240740741,1,0,0,1.2768,Diorite_rect,6,0,6,0,1,
5c82c9a4d8302a00010639b8,TCN,2024-06-25_13h24.29.968,LearnStrategy,2023.2.3,Win32,75.75757576,9,2,8,,,,,,,,8,08,,,,,,,,,,,8,1.303,1,,,,,,0.390740741,-0.403703704,1,0,0,1.3035,Pumice_rect,7,0,7,0,1,
5c82c9a4d8302a00010639b8,TCN,2024-06-25_13h24.29.968,LearnStrategy,2023.2.3,Win32,75.75757576,9,2,9,,,,,,,,5,02,,,,,,,,,,,5,0.863,1,,,,,,-0.389814815,-0.414814815,1,0,0,0.8632,Obsidian_rect,8,0,8,0,1,
5c82c9a4d8302a00010639b8,TCN,2024-06-25_13h24.29.968,LearnStrategy,2023.2.3,Win32,75.75757576,9,2,10,,,,,,,,4,08,,,,,,,,,,,4,2.837,1,,,,,,0.384259259,-0.250925926,1,0,0,2.8374,Gabbro_rect,9,0,9,0,1,
5c82c9a4d8302a00010639b8,TCN,2024-06-25_13h24.29.968,LearnStrategy,2023.2.3,Win32,75.75757576,9,2,11,,,,,,,,5,06,,,,,,,,,,,5,0.957,1,,,,,,-0.412962963,-0.412962963,1,0,0,0.9567,Obsidian_rect,10,0,10,0,1,
5c82c9a4d8302a00010639b8,TCN,2024-06-25_13h24.29.968,LearnStrategy,2023.2.3,Win32,75.75757576,9,2,12,,,,,,,,1,16,,,,,,,,,,,4,16.31,0,,,,,,0.362962963,-0.262037037,1,0,0,16.3095,Gabbro_rect,11,0,11,0,1,
5c82c9a4d8302a00010639b8,TCN,2024-06-25_13h24.29.968,LearnStrategy,2023.2.3,Win32,75.75757576,9,2,13,,,,,,,,1,04,,,,,,,,,,,4,4.611,0,,,,,,0.346296296,-0.243518519,1,0,0,4.6114,Gabbro_rect,12,0,12,0,1,
5c82c9a4d8302a00010639b8,TCN,2024-06-25_13h24.29.968,LearnStrategy,2023.2.3,Win32,75.75757576,9,2,14,,,,,,,,2,01,,,,,,,,,,,2,0.81,1,,,,,,-0.106481481,-0.237037037,1,0,0,0.81,Basalt_rect,13,0,13,0,1,
5c82c9a4d8302a00010639b8,TCN,2024-06-25_13h24.29.968,LearnStrategy,2023.2.3,Win32,75.75757576,9,2,15,,,,,,,,7,06,,,,,,,,,,,6,1.317,0,,,,,,-0.118518519,-0.414814815,1,0,0,1.3171,Pegmatite_rect,14,0,14,0,1,
5c82c9a4d8302a00010639b8,TCN,2024-06-25_13h24.29.968,LearnStrategy,2023.2.3,Win32,75.75757576,9,2,16,,,,,,,,2,14,,,,,,,,,,,4,5.452,0,,,,,,0.406481481,-0.262037037,1,0,0,5.4518,Gabbro_rect,15,0,15,0,1,
5c82c9a4d8302a00010639b8,TCN,2024-06-25_13h24.29.968,LearnStrategy,2023.2.3,Win32,75.75757576,,,,,,,,,,,,,,,,,,,,,,,,,,,,,,,,,,,,,,,,,,,1
5c82c9a4d8302a00010639b8,TCN,2024-06-25_13h24.29.968,LearnStrategy,2023.2.3,Win32,75.75757576,,,,,,,,,,,,,,,,,,,,,,,,,,,,,,,,,,,,,,,,,,,
5c82c9a4d8302a00010639b8,TCN,2024-06-25_13h24.29.968,LearnStrategy,2023.2.3,Win32,75.75757576,,,,,,,,,,,4,11,1,1,,,,,,,,,,,,,,,,,,,,,,,,,,,,,
5c82c9a4d8302a00010639b8,TCN,2024-06-25_13h24.29.968,LearnStrategy,2023.2.3,Win32,75.75757576,,,,,,,,,,,8,14,1,2,,,,,,,,,,,,,,,,,,,,,,,,,,,,,
5c82c9a4d8302a00010639b8,TCN,2024-06-25_13h24.29.968,LearnStrategy,2023.2.3,Win32,75.75757576,,,,,,,,,,,5,16,1,3,,,,,,,,,,,,,,,,,,,,,,,,,,,,,
5c82c9a4d8302a00010639b8,TCN,2024-06-25_13h24.29.968,LearnStrategy,2023.2.3,Win32,75.75757576,,,,,,,,,,,5,08,1,4,,,,,,,,,,,,,,,,,,,,,,,,,,,,,
5c82c9a4d8302a00010639b8,TCN,2024-06-25_13h24.29.968,LearnStrategy,2023.2.3,Win32,75.75757576,,,,,,,,,,,8,02,1,5,,,,,,,,,,,,,,,,,,,,,,,,,,,,,
5c82c9a4d8302a00010639b8,TCN,2024-06-25_13h24.29.968,LearnStrategy,2023.2.3,Win32,75.75757576,,,,,,,,,,,4,10,1,6,,,,,,,,,,,,,,,,,,,,,,,,,,,,,
5c82c9a4d8302a00010639b8,TCN,2024-06-25_13h24.29.968,LearnStrategy,2023.2.3,Win32,75.75757576,,,,,,,,,,,1,14,1,7,,,,,,,,,,,,,,,,,,,,,,,,,,,,,
5c82c9a4d8302a00010639b8,TCN,2024-06-25_13h24.29.968,LearnStrategy,2023.2.3,Win32,75.75757576,,,,,,,,,,,7,05,1,8,,,,,,,,,,,,,,,,,,,,,,,,,,,,,
5c82c9a4d8302a00010639b8,TCN,2024-06-25_13h24.29.968,LearnStrategy,2023.2.3,Win32,75.75757576,,,,,,,,,,,8,06,2,1,,,,,,,,,,,,,,,,,,,,,,,,,,,,,
5c82c9a4d8302a00010639b8,TCN,2024-06-25_13h24.29.968,LearnStrategy,2023.2.3,Win32,75.75757576,,,,,,,,,,,7,07,2,2,,,,,,,,,,,,,,,,,,,,,,,,,,,,,
5c82c9a4d8302a00010639b8,TCN,2024-06-25_13h24.29.968,LearnStrategy,2023.2.3,Win32,75.75757576,,,,,,,,,,,2,09,2,3,,,,,,,,,,,,,,,,,,,,,,,,,,,,,
5c82c9a4d8302a00010639b8,TCN,2024-06-25_13h24.29.968,LearnStrategy,2023.2.3,Win32,75.75757576,,,,,,,,,,,4,01,2,4,,,,,,,,,,,,,,,,,,,,,,,,,,,,,
5c82c9a4d8302a00010639b8,TCN,2024-06-25_13h24.29.968,LearnStrategy,2023.2.3,Win32,75.75757576,,,,,,,,,,,2,02,2,5,,,,,,,,,,,,,,,,,,,,,,,,,,,,,
5c82c9a4d8302a00010639b8,TCN,2024-06-25_13h24.29.968,LearnStrategy,2023.2.3,Win32,75.75757576,,,,,,,,,,,3,16,2,6,,,,,,,,,,,,,,,,,,,,,,,,,,,,,
5c82c9a4d8302a00010639b8,TCN,2024-06-25_13h24.29.968,LearnStrategy,2023.2.3,Win32,75.75757576,,,,,,,,,,,6,11,2,7,,,,,,,,,,,,,,,,,,,,,,,,,,,,,
5c82c9a4d8302a00010639b8,TCN,2024-06-25_13h24.29.968,LearnStrategy,2023.2.3,Win32,75.75757576,,,,,,,,,,,6,16,2,8,,,,,,,,,,,,,,,,,,,,,,,,,,,,,
5c82c9a4d8302a00010639b8,TCN,2024-06-25_13h24.29.968,LearnStrategy,2023.2.3,Win32,75.75757576,,,,,,,,,,,6,08,3,1,,,,,,,,,,,,,,,,,,,,,,,,,,,,,
5c82c9a4d8302a00010639b8,TCN,2024-06-25_13h24.29.968,LearnStrategy,2023.2.3,Win32,75.75757576,,,,,,,,,,,2,12,3,2,,,,,,,,,,,,,,,,,,,,,,,,,,,,,
5c82c9a4d8302a00010639b8,TCN,2024-06-25_13h24.29.968,LearnStrategy,2023.2.3,Win32,75.75757576,,,,,,,,,,,3,07,3,3,,,,,,,,,,,,,,,,,,,,,,,,,,,,,
5c82c9a4d8302a00010639b8,TCN,2024-06-25_13h24.29.968,LearnStrategy,2023.2.3,Win32,75.75757576,,,,,,,,,,,5,07,3,4,,,,,,,,,,,,,,,,,,,,,,,,,,,,,
5c82c9a4d8302a00010639b8,TCN,2024-06-25_13h24.29.968,LearnStrategy,2023.2.3,Win32,75.75757576,,,,,,,,,,,5,05,3,5,,,,,,,,,,,,,,,,,,,,,,,,,,,,,
5c82c9a4d8302a00010639b8,TCN,2024-06-25_13h24.29.968,LearnStrategy,2023.2.3,Win32,75.75757576,,,,,,,,,,,3,06,3,6,,,,,,,,,,,,,,,,,,,,,,,,,,,,,
5c82c9a4d8302a00010639b8,TCN,2024-06-25_13h24.29.968,LearnStrategy,2023.2.3,Win32,75.75757576,,,,,,,,,,,1,07,3,7,,,,,,,,,,,,,,,,,,,,,,,,,,,,,
5c82c9a4d8302a00010639b8,TCN,2024-06-25_13h24.29.968,LearnStrategy,2023.2.3,Win32,75.75757576,,,,,,,,,,,5,09,3,8,,,,,,,,,,,,,,,,,,,,,,,,,,,,,
5c82c9a4d8302a00010639b8,TCN,2024-06-25_13h24.29.968,LearnStrategy,2023.2.3,Win32,75.75757576,,,,,,,,,,,3,14,4,1,,,,,,,,,,,,,,,,,,,,,,,,,,,,,
5c82c9a4d8302a00010639b8,TCN,2024-06-25_13h24.29.968,LearnStrategy,2023.2.3,Win32,75.75757576,,,,,,,,,,,2,16,4,2,,,,,,,,,,,,,,,,,,,,,,,,,,,,,
5c82c9a4d8302a00010639b8,TCN,2024-06-25_13h24.29.968,LearnStrategy,2023.2.3,Win32,75.75757576,,,,,,,,,,,7,15,4,3,,,,,,,,,,,,,,,,,,,,,,,,,,,,,
5c82c9a4d8302a00010639b8,TCN,2024-06-25_13h24.29.968,LearnStrategy,2023.2.3,Win32,75.75757576,,,,,,,,,,,6,06,4,4,,,,,,,,,,,,,,,,,,,,,,,,,,,,,
5c82c9a4d8302a00010639b8,TCN,2024-06-25_13h24.29.968,LearnStrategy,2023.2.3,Win32,75.75757576,,,,,,,,,,,4,14,4,5,,,,,,,,,,,,,,,,,,,,,,,,,,,,,
5c82c9a4d8302a00010639b8,TCN,2024-06-25_13h24.29.968,LearnStrategy,2023.2.3,Win32,75.75757576,,,,,,,,,,,8,03,4,6,,,,,,,,,,,,,,,,,,,,,,,,,,,,,
5c82c9a4d8302a00010639b8,TCN,2024-06-25_13h24.29.968,LearnStrategy,2023.2.3,Win32,75.75757576,,,,,,,,,,,1,10,4,7,,,,,,,,,,,,,,,,,,,,,,,,,,,,,
5c82c9a4d8302a00010639b8,TCN,2024-06-25_13h24.29.968,LearnStrategy,2023.2.3,Win32,75.75757576,,,,,,,,,,,8,10,4,8,,,,,,,,,,,,,,,,,,,,,,,,,,,,,
5c82c9a4d8302a00010639b8,TCN,2024-06-25_13h24.29.968,LearnStrategy,2023.2.3,Win32,75.75757576,,,,,,,,,,,1,05,5,1,,,,,,,,,,,,,,,,,,,,,,,,,,,,,
5c82c9a4d8302a00010639b8,TCN,2024-06-25_13h24.29.968,LearnStrategy,2023.2.3,Win32,75.75757576,,,,,,,,,,,4,03,5,2,,,,,,,,,,,,,,,,,,,,,,,,,,,,,
5c82c9a4d8302a00010639b8,TCN,2024-06-25_13h24.29.968,LearnStrategy,2023.2.3,Win32,75.75757576,,,,,,,,,,,1,11,5,3,,,,,,,,,,,,,,,,,,,,,,,,,,,,,
5c82c9a4d8302a00010639b8,TCN,2024-06-25_13h24.29.968,LearnStrategy,2023.2.3,Win32,75.75757576,,,,,,,,,,,7,16,5,4,,,,,,,,,,,,,,,,,,,,,,,,,,,,,
5c82c9a4d8302a00010639b8,TCN,2024-06-25_13h24.29.968,LearnStrategy,2023.2.3,Win32,75.75757576,,,,,,,,,,,2,11,5,5,,,,,,,,,,,,,,,,,,,,,,,,,,,,,
5c82c9a4d8302a00010639b8,TCN,2024-06-25_13h24.29.968,LearnStrategy,2023.2.3,Win32,75.75757576,,,,,,,,,,,1,03,5,6,,,,,,,,,,,,,,,,,,,,,,,,,,,,,
5c82c9a4d8302a00010639b8,TCN,2024-06-25_13h24.29.968,LearnStrategy,2023.2.3,Win32,75.75757576,,,,,,,,,,,7,02,5,7,,,,,,,,,,,,,,,,,,,,,,,,,,,,,
5c82c9a4d8302a00010639b8,TCN,2024-06-25_13h24.29.968,LearnStrategy,2023.2.3,Win32,75.75757576,,,,,,,,,,,8,16,5,8,,,,,,,,,,,,,,,,,,,,,,,,,,,,,
5c82c9a4d8302a00010639b8,TCN,2024-06-25_13h24.29.968,LearnStrategy,2023.2.3,Win32,75.75757576,,,,,,,,,,,4,16,6,1,,,,,,,,,,,,,,,,,,,,,,,,,,,,,
5c82c9a4d8302a00010639b8,TCN,2024-06-25_13h24.29.968,LearnStrategy,2023.2.3,Win32,75.75757576,,,,,,,,,,,6,03,6,2,,,,,,,,,,,,,,,,,,,,,,,,,,,,,
5c82c9a4d8302a00010639b8,TCN,2024-06-25_13h24.29.968,LearnStrategy,2023.2.3,Win32,75.75757576,,,,,,,,,,,6,09,6,3,,,,,,,,,,,,,,,,,,,,,,,,,,,,,
5c82c9a4d8302a00010639b8,TCN,2024-06-25_13h24.29.968,LearnStrategy,2023.2.3,Win32,75.75757576,,,,,,,,,,,7,04,6,4,,,,,,,,,,,,,,,,,,,,,,,,,,,,,
5c82c9a4d8302a00010639b8,TCN,2024-06-25_13h24.29.968,LearnStrategy,2023.2.3,Win32,75.75757576,,,,,,,,,,,3,15,6,5,,,,,,,,,,,,,,,,,,,,,,,,,,,,,
5c82c9a4d8302a00010639b8,TCN,2024-06-25_13h24.29.968,LearnStrategy,2023.2.3,Win32,75.75757576,,,,,,,,,,,2,10,6,6,,,,,,,,,,,,,,,,,,,,,,,,,,,,,
5c82c9a4d8302a00010639b8,TCN,2024-06-25_13h24.29.968,LearnStrategy,2023.2.3,Win32,75.75757576,,,,,,,,,,,5,12,6,7,,,,,,,,,,,,,,,,,,,,,,,,,,,,,
5c82c9a4d8302a00010639b8,TCN,2024-06-25_13h24.29.968,LearnStrategy,2023.2.3,Win32,75.75757576,,,,,,,,,,,3,10,6,8,,,,,,,,,,,,,,,,,,,,,,,,,,,,,