participant,condition,date,expName,psychopyVersion,OS,frameRate,block,phase,trial,learn_mouse.x,learn_mouse.y,learn_mouse.leftButton,learn_mouse.midButton,learn_mouse.rightButton,learn_mouse.time,learn_mouse.clicked_name,cat,token,row,col,t_select,cat_rec,token_rec,cat_mouse_l.x,cat_mouse_l.y,cat_mouse_l.leftButton,cat_mouse_l.midButton,cat_mouse_l.rightButton,cat_mouse_l.time,cat_mouse_l.clicked_name,resp,t_resp,corr,train_trials.thisRepN,train_trials.thisTrialN,train_trials.thisN,train_trials.thisIndex,train_trials.ran,cat_mouse_t.x,cat_mouse_t.y,cat_mouse_t.leftButton,cat_mouse_t.midButton,cat_mouse_t.rightButton,cat_mouse_t.time,cat_mouse_t.clicked_name,test_trials.thisRepN,test_trials.thisTrialN,test_trials.thisN,test_trials.thisIndex,test_trials.ran,Bonus
5ccc60abe787e000167f8143,SCR,2024-06-20_17h18.45.406,LearnStrategy,2023.2.3,Win32,142.8571429,,,,,,,,,,,,,,,,,,,,,,,,,,,,,,,,,,,,,,,,,,,,,
5ccc60abe787e000167f8143,SCR,2024-06-20_17h18.45.406,LearnStrategy,2023.2.3,Win32,142.8571429,1,1,1,-0.217361111,0.047222222,1,0,0,2.2302,Obsidian_14,5,14,4,3,2.23,5,14,-0.129166667,-0.254861111,1,0,0,1.8094,Basalt_rect,2,1.809,0,0,0,0,0,1,,,,,,,,,,,,,
5ccc60abe787e000167f8143,SCR,2024-06-20_17h18.45.406,LearnStrategy,2023.2.3,Win32,142.8571429,1,1,2,-0.072916667,-0.383333333,1,0,0,1.9916,Pumice_03,8,03,1,4,1.992,8,03,-0.109722222,-0.398611111,1,0,0,1.7524,Pegmatite_rect,6,1.752,0,1,0,1,0,1,,,,,,,,,,,,,
5ccc60abe787e000167f8143,SCR,2024-06-20_17h18.45.406,LearnStrategy,2023.2.3,Win32,142.8571429,1,1,3,-0.390972222,0.247916667,1,0,0,2.9014,Pumice_13,8,13,5,2,2.901,8,13,0.336111111,-0.380555556,1,0,0,2.4765,Pumice_rect,8,2.476,1,2,0,2,0,1,,,,,,,,,,,,,
5ccc60abe787e000167f8143,SCR,2024-06-20_17h18.45.406,LearnStrategy,2023.2.3,Win32,142.8571429,1,1,4,0.395138889,0.431944444,1,0,0,1.2965,Gabbro_10,4,10,6,7,1.297,4,10,0.079861111,-0.236111111,1,0,0,1.19,Diorite_rect,3,1.19,0,3,0,3,0,1,,,,,,,,,,,,,
5ccc60abe787e000167f8143,SCR,2024-06-20_17h18.45.406,LearnStrategy,2023.2.3,Win32,142.8571429,1,1,5,-0.553472222,0.130555556,1,0,0,1.0747,Basalt_09,2,09,4,1,1.075,2,09,-0.169444444,-0.390277778,1,0,0,2.8916,Pegmatite_rect,6,2.892,0,4,0,4,0,1,,,,,,,,,,,,,
5ccc60abe787e000167f8143,SCR,2024-06-20_17h18.45.406,LearnStrategy,2023.2.3,Win32,142.8571429,1,1,6,-0.233333333,-0.377083333,1,0,0,0.9709,Diorite_12,3,12,1,3,0.971,3,12,-0.395833333,-0.247916667,1,0,0,3.7319,Andesite_rect,1,3.732,0,5,0,5,0,1,,,,,,,,,,,,,
5ccc60abe787e000167f8143,SCR,2024-06-20_17h18.45.406,LearnStrategy,2023.2.3,Win32,142.8571429,1,1,7,-0.091666667,-0.203472222,1,0,0,1.2761,Peridotite_05,7,05,2,4,1.276,3,08,-0.124305556,-0.240277778,1,0,0,1.343,Basalt_rect,2,1.343,0,6,0,6,0,1,,,,,,,,,,,,,
5ccc60abe787e000167f8143,SCR,2024-06-20_17h18.45.406,LearnStrategy,2023.2.3,Win32,142.8571429,1,1,8,-0.235416667,0.081944444,1,0,0,1.158,Obsidian_14,5,14,4,3,1.158,4,03,-0.101388889,-0.247222222,1,0,0,1.6624,Basalt_rect,2,1.662,0,7,0,7,0,1,,,,,,,,,,,,,
5ccc60abe787e000167f8143,SCR,2024-06-20_17h18.45.406,LearnStrategy,2023.2.3,Win32,142.8571429,1,1,9,-0.206944444,0.1,1,0,0,0.7485,Obsidian_14,5,14,4,3,0.749,7,02,-0.429861111,-0.415277778,1,0,0,1.5094,Obsidian_rect,5,1.509,1,8,0,8,0,1,,,,,,,,,,,,,
5ccc60abe787e000167f8143,SCR,2024-06-20_17h18.45.406,LearnStrategy,2023.2.3,Win32,142.8571429,1,1,10,-0.363194444,-0.086805556,1,0,0,1.1374,Pegmatite_03,6,03,3,2,1.137,6,03,-0.425694444,-0.252777778,1,0,0,1.3268,Andesite_rect,1,1.327,0,9,0,9,0,1,,,,,,,,,,,,,
5ccc60abe787e000167f8143,SCR,2024-06-20_17h18.45.406,LearnStrategy,2023.2.3,Win32,142.8571429,1,1,11,0.355555556,-0.385416667,1,0,0,0.9848,Peridotite_10,7,10,1,7,0.985,7,10,-0.177083333,-0.390972222,1,0,0,1.8904,Pegmatite_rect,6,1.89,0,10,0,10,0,1,,,,,,,,,,,,,
5ccc60abe787e000167f8143,SCR,2024-06-20_17h18.45.406,LearnStrategy,2023.2.3,Win32,142.8571429,1,1,12,-0.384027778,0.398611111,1,0,0,0.8804,Basalt_05,2,05,6,2,0.88,2,05,-0.400694444,-0.235416667,1,0,0,1.5402,Andesite_rect,1,1.54,0,11,0,11,0,1,,,,,,,,,,,,,
5ccc60abe787e000167f8143,SCR,2024-06-20_17h18.45.406,LearnStrategy,2023.2.3,Win32,142.8571429,1,1,13,-0.515972222,-0.110416667,1,0,0,0.9847,Andesite_10,1,10,3,1,0.985,1,10,0.308333333,-0.245138889,1,0,0,1.1279,Gabbro_rect,4,1.128,0,12,0,12,0,1,,,,,,,,,,,,,
5ccc60abe787e000167f8143,SCR,2024-06-20_17h18.45.406,LearnStrategy,2023.2.3,Win32,142.8571429,1,1,14,0.230555556,-0.229166667,1,0,0,1.8026,Andesite_06,1,06,2,6,1.803,1,06,0.313888889,-0.249305556,1,0,0,3.4334,Gabbro_rect,4,3.433,0,13,0,13,0,1,,,,,,,,,,,,,
5ccc60abe787e000167f8143,SCR,2024-06-20_17h18.45.406,LearnStrategy,2023.2.3,Win32,142.8571429,1,1,15,0.033333333,0.238194444,1,0,0,0.9082,Pegmatite_16,6,16,5,5,0.908,6,16,0.14375,-0.25,1,0,0,1.4613,Diorite_rect,3,1.461,0,14,0,14,0,1,,,,,,,,,,,,,
5ccc60abe787e000167f8143,SCR,2024-06-20_17h18.45.406,LearnStrategy,2023.2.3,Win32,142.8571429,1,1,16,-0.510416667,-0.390277778,1,0,0,1.1717,Obsidian_07,5,07,1,1,1.172,5,07,-0.172222222,-0.255555556,1,0,0,1.329,Basalt_rect,2,1.329,0,15,0,15,0,1,,,,,,,,,,,,,
5ccc60abe787e000167f8143,SCR,2024-06-20_17h18.45.406,LearnStrategy,2023.2.3,Win32,142.8571429,1,2,1,,,,,,,,1,05,,,,,,,,,,,,,3,4.079,0,,,,,,0.104861111,-0.255555556,1,0,0,4.0789,Diorite_rect,0,0,0,0,1,
5ccc60abe787e000167f8143,SCR,2024-06-20_17h18.45.406,LearnStrategy,2023.2.3,Win32,142.8571429,1,2,2,,,,,,,,2,06,,,,,,,,,,,,,5,2.1,0,,,,,,-0.419444444,-0.393055556,1,0,0,2.1,Obsidian_rect,1,0,1,0,1,
5ccc60abe787e000167f8143,SCR,2024-06-20_17h18.45.406,LearnStrategy,2023.2.3,Win32,142.8571429,1,2,3,,,,,,,,7,16,,,,,,,,,,,,,1,1.134,0,,,,,,-0.314583333,-0.256944444,1,0,0,1.1343,Andesite_rect,2,0,2,0,1,
5ccc60abe787e000167f8143,SCR,2024-06-20_17h18.45.406,LearnStrategy,2023.2.3,Win32,142.8571429,1,2,4,,,,,,,,4,16,,,,,,,,,,,,,8,2.165,0,,,,,,0.348611111,-0.400694444,1,0,0,2.165,Pumice_rect,3,0,3,0,1,
5ccc60abe787e000167f8143,SCR,2024-06-20_17h18.45.406,LearnStrategy,2023.2.3,Win32,142.8571429,1,2,5,,,,,,,,5,06,,,,,,,,,,,,,5,1.392,1,,,,,,-0.449305556,-0.395833333,1,0,0,1.3916,Obsidian_rect,4,0,4,0,1,
5ccc60abe787e000167f8143,SCR,2024-06-20_17h18.45.406,LearnStrategy,2023.2.3,Win32,142.8571429,1,2,6,,,,,,,,8,09,,,,,,,,,,,,,4,1.912,0,,,,,,0.410416667,-0.241666667,1,0,0,1.9124,Gabbro_rect,5,0,5,0,1,
5ccc60abe787e000167f8143,SCR,2024-06-20_17h18.45.406,LearnStrategy,2023.2.3,Win32,142.8571429,1,2,7,,,,,,,,7,08,,,,,,,,,,,,,1,1.794,0,,,,,,-0.33125,-0.244444444,1,0,0,1.7944,Andesite_rect,6,0,6,0,1,
5ccc60abe787e000167f8143,SCR,2024-06-20_17h18.45.406,LearnStrategy,2023.2.3,Win32,142.8571429,1,2,8,,,,,,,,3,13,,,,,,,,,,,,,2,2.1,0,,,,,,-0.188888889,-0.251388889,1,0,0,2.1,Basalt_rect,7,0,7,0,1,
5ccc60abe787e000167f8143,SCR,2024-06-20_17h18.45.406,LearnStrategy,2023.2.3,Win32,142.8571429,1,2,9,,,,,,,,6,15,,,,,,,,,,,,,4,1.968,0,,,,,,0.366666667,-0.254166667,1,0,0,1.9678,Gabbro_rect,8,0,8,0,1,
5ccc60abe787e000167f8143,SCR,2024-06-20_17h18.45.406,LearnStrategy,2023.2.3,Win32,142.8571429,1,2,10,,,,,,,,1,02,,,,,,,,,,,,,4,1.044,0,,,,,,0.305555556,-0.245833333,1,0,0,1.0444,Gabbro_rect,9,0,9,0,1,
5ccc60abe787e000167f8143,SCR,2024-06-20_17h18.45.406,LearnStrategy,2023.2.3,Win32,142.8571429,1,2,11,,,,,,,,2,11,,,,,,,,,,,,,6,1.655,0,,,,,,-0.059027778,-0.394444444,1,0,0,1.6554,Pegmatite_rect,10,0,10,0,1,
5ccc60abe787e000167f8143,SCR,2024-06-20_17h18.45.406,LearnStrategy,2023.2.3,Win32,142.8571429,1,2,12,,,,,,,,6,10,,,,,,,,,,,,,7,1.558,0,,,,,,0.074305556,-0.409027778,1,0,0,1.5582,Peridotite_rect,11,0,11,0,1,
5ccc60abe787e000167f8143,SCR,2024-06-20_17h18.45.406,LearnStrategy,2023.2.3,Win32,142.8571429,1,2,13,,,,,,,,8,05,,,,,,,,,,,,,8,1.663,1,,,,,,0.295138889,-0.403472222,1,0,0,1.6626,Pumice_rect,12,0,12,0,1,
5ccc60abe787e000167f8143,SCR,2024-06-20_17h18.45.406,LearnStrategy,2023.2.3,Win32,142.8571429,1,2,14,,,,,,,,4,01,,,,,,,,,,,,,1,2.544,0,,,,,,-0.327777778,-0.268055556,1,0,0,2.5439,Andesite_rect,13,0,13,0,1,
5ccc60abe787e000167f8143,SCR,2024-06-20_17h18.45.406,LearnStrategy,2023.2.3,Win32,142.8571429,1,2,15,,,,,,,,3,07,,,,,,,,,,,,,2,1.253,0,,,,,,-0.051388889,-0.265972222,1,0,0,1.2528,Basalt_rect,14,0,14,0,1,
5ccc60abe787e000167f8143,SCR,2024-06-20_17h18.45.406,LearnStrategy,2023.2.3,Win32,142.8571429,1,2,16,,,,,,,,5,12,,,,,,,,,,,,,5,1.378,1,,,,,,-0.393055556,-0.401388889,1,0,0,1.3778,Obsidian_rect,15,0,15,0,1,
5ccc60abe787e000167f8143,SCR,2024-06-20_17h18.45.406,LearnStrategy,2023.2.3,Win32,142.8571429,2,1,1,-0.518055556,0.236805556,1,0,0,1.3322,Andesite_01,1,01,5,1,1.332,1,01,0.320833333,-0.396527778,1,0,0,2.7317,Pumice_rect,8,2.732,0,0,0,0,0,1,,,,,,,,,,,,,
5ccc60abe787e000167f8143,SCR,2024-06-20_17h18.45.406,LearnStrategy,2023.2.3,Win32,142.8571429,2,1,2,0.499305556,0.399305556,1,0,0,1.3114,Gabbro_03,4,03,6,8,1.311,4,03,0.170833333,-0.405555556,1,0,0,2.6345,Peridotite_rect,7,2.635,0,1,0,1,0,1,,,,,,,,,,,,,
5ccc60abe787e000167f8143,SCR,2024-06-20_17h18.45.406,LearnStrategy,2023.2.3,Win32,142.8571429,2,1,3,0.4,0.240277778,1,0,0,0.79,Basalt_10,2,10,5,7,0.79,2,10,-0.398611111,-0.395138889,1,0,0,1.2044,Obsidian_rect,5,1.204,0,2,0,2,0,1,,,,,,,,,,,,,
5ccc60abe787e000167f8143,SCR,2024-06-20_17h18.45.406,LearnStrategy,2023.2.3,Win32,142.8571429,2,1,4,-0.347222222,-0.36875,1,0,0,0.9915,Andesite_03,1,03,1,2,0.992,1,03,-0.157638889,-0.253472222,1,0,0,2.6901,Basalt_rect,2,2.69,0,3,0,3,0,1,,,,,,,,,,,,,
5ccc60abe787e000167f8143,SCR,2024-06-20_17h18.45.406,LearnStrategy,2023.2.3,Win32,142.8571429,2,1,5,-0.400694444,-0.249305556,1,0,0,0.9154,Diorite_16,3,16,2,2,0.915,3,16,0.304166667,-0.379166667,1,0,0,2.9046,Pumice_rect,8,2.905,0,4,0,4,0,1,,,,,,,,,,,,,
5ccc60abe787e000167f8143,SCR,2024-06-20_17h18.45.406,LearnStrategy,2023.2.3,Win32,142.8571429,2,1,6,0.061111111,0.063194444,1,0,0,0.5472,Gabbro_14,4,14,4,5,0.547,4,14,0.315277778,-0.268055556,1,0,0,1.072,Gabbro_rect,4,1.072,1,5,0,5,0,1,,,,,,,,,,,,,
5ccc60abe787e000167f8143,SCR,2024-06-20_17h18.45.406,LearnStrategy,2023.2.3,Win32,142.8571429,2,1,7,0.218055556,0.261111111,1,0,0,1.4218,Basalt_01,2,01,5,6,1.422,2,01,0.334027778,-0.238888889,1,0,0,0.5649,Gabbro_rect,4,0.565,0,6,0,6,0,1,,,,,,,,,,,,,
5ccc60abe787e000167f8143,SCR,2024-06-20_17h18.45.406,LearnStrategy,2023.2.3,Win32,142.8571429,2,1,8,0.203472222,-0.390972222,1,0,0,0.7975,Pumice_08,8,08,1,6,0.797,8,08,0.334027778,-0.4,1,0,0,1.1695,Pumice_rect,8,1.17,1,7,0,7,0,1,,,,,,,,,,,,,
5ccc60abe787e000167f8143,SCR,2024-06-20_17h18.45.406,LearnStrategy,2023.2.3,Win32,142.8571429,2,1,9,0.347222222,0.127083333,1,0,0,0.9499,Peridotite_15,7,15,4,7,0.95,7,15,0.091666667,-0.421527778,1,0,0,1.2109,Peridotite_rect,7,1.211,1,8,0,8,0,1,,,,,,,,,,,,,
5ccc60abe787e000167f8143,SCR,2024-06-20_17h18.45.406,LearnStrategy,2023.2.3,Win32,142.8571429,2,1,10,0.196527778,-0.252083333,1,0,0,0.8877,Andesite_06,1,06,2,6,0.888,1,06,-0.11875,-0.265277778,1,0,0,1.2874,Basalt_rect,2,1.287,0,9,0,9,0,1,,,,,,,,,,,,,
5ccc60abe787e000167f8143,SCR,2024-06-20_17h18.45.406,LearnStrategy,2023.2.3,Win32,142.8571429,2,1,11,-0.107638889,0.371527778,1,0,0,0.8735,Gabbro_08,4,08,6,4,0.873,4,08,0.082638889,-0.249305556,1,0,0,2.1348,Diorite_rect,3,2.135,0,10,0,10,0,1,,,,,,,,,,,,,
5ccc60abe787e000167f8143,SCR,2024-06-20_17h18.45.406,LearnStrategy,2023.2.3,Win32,142.8571429,2,1,12,-0.405555556,-0.136805556,1,0,0,1.0544,Pegmatite_03,6,03,3,2,1.054,6,03,0.370833333,-0.236805556,1,0,0,0.8919,Gabbro_rect,4,0.892,0,11,0,11,0,1,,,,,,,,,,,,,
5ccc60abe787e000167f8143,SCR,2024-06-20_17h18.45.406,LearnStrategy,2023.2.3,Win32,142.8571429,2,1,13,-0.370138889,0.111805556,1,0,0,0.8041,Pegmatite_05,6,05,4,2,0.804,6,05,-0.088194444,-0.411805556,1,0,0,1.2314,Pegmatite_rect,6,1.231,1,12,0,12,0,1,,,,,,,,,,,,,
5ccc60abe787e000167f8143,SCR,2024-06-20_17h18.45.406,LearnStrategy,2023.2.3,Win32,142.8571429,2,1,14,0.5,-0.239583333,1,0,0,1.0962,Peridotite_06,7,06,2,8,1.096,7,06,0.326388889,-0.389583333,1,0,0,2.006,Pumice_rect,8,2.006,0,13,0,13,0,1,,,,,,,,,,,,,
5ccc60abe787e000167f8143,SCR,2024-06-20_17h18.45.406,LearnStrategy,2023.2.3,Win32,142.8571429,2,1,15,-0.188194444,-0.075694444,1,0,0,0.5613,Basalt_16,2,16,3,3,0.561,2,16,-0.197222222,-0.240972222,1,0,0,1.8013,Basalt_rect,2,1.801,1,14,0,14,0,1,,,,,,,,,,,,,
5ccc60abe787e000167f8143,SCR,2024-06-20_17h18.45.406,LearnStrategy,2023.2.3,Win32,142.8571429,2,1,16,-0.222916667,0.376388889,1,0,0,1.0401,Diorite_09,3,09,6,3,1.04,3,09,0.125,-0.255555556,1,0,0,1.1279,Diorite_rect,3,1.128,1,15,0,15,0,1,,,,,,,,,,,,,
5ccc60abe787e000167f8143,SCR,2024-06-20_17h18.45.406,LearnStrategy,2023.2.3,Win32,142.8571429,2,2,1,,,,,,,,4,12,,,,,,,,,,,,,1,4.538,0,,,,,,-0.377777778,-0.242361111,1,0,0,4.5378,Andesite_rect,0,0,0,0,1,
5ccc60abe787e000167f8143,SCR,2024-06-20_17h18.45.406,LearnStrategy,2023.2.3,Win32,142.8571429,2,2,2,,,,,,,,2,04,,,,,,,,,,,,,6,6.635,0,,,,,,-0.076388889,-0.404166667,1,0,0,6.6347,Pegmatite_rect,1,0,1,0,1,
5ccc60abe787e000167f8143,SCR,2024-06-20_17h18.45.406,LearnStrategy,2023.2.3,Win32,142.8571429,2,2,3,,,,,,,,3,06,,,,,,,,,,,,,3,6.003,1,,,,,,0.158333333,-0.263888889,1,0,0,6.0032,Diorite_rect,2,0,2,0,1,
5ccc60abe787e000167f8143,SCR,2024-06-20_17h18.45.406,LearnStrategy,2023.2.3,Win32,142.8571429,2,2,4,,,,,,,,4,11,,,,,,,,,,,,,6,1.53,0,,,,,,-0.157638889,-0.4125,1,0,0,1.5305,Pegmatite_rect,3,0,3,0,1,
5ccc60abe787e000167f8143,SCR,2024-06-20_17h18.45.406,LearnStrategy,2023.2.3,Win32,142.8571429,2,2,5,,,,,,,,1,07,,,,,,,,,,,,,4,2.038,0,,,,,,0.315277778,-0.26875,1,0,0,2.0378,Gabbro_rect,4,0,4,0,1,
5ccc60abe787e000167f8143,SCR,2024-06-20_17h18.45.406,LearnStrategy,2023.2.3,Win32,142.8571429,2,2,6,,,,,,,,5,16,,,,,,,,,,,,,5,0.913,1,,,,,,-0.39375,-0.420138889,1,0,0,0.9126,Obsidian_rect,5,0,5,0,1,
5ccc60abe787e000167f8143,SCR,2024-06-20_17h18.45.406,LearnStrategy,2023.2.3,Win32,142.8571429,2,2,7,,,,,,,,8,02,,,,,,,,,,,,,8,2.155,1,,,,,,0.35625,-0.392361111,1,0,0,2.1554,Pumice_rect,6,0,6,0,1,
5ccc60abe787e000167f8143,SCR,2024-06-20_17h18.45.406,LearnStrategy,2023.2.3,Win32,142.8571429,2,2,8,,,,,,,,7,07,,,,,,,,,,,,,7,2.378,1,,,,,,0.161805556,-0.386111111,1,0,0,2.3776,Peridotite_rect,7,0,7,0,1,
5ccc60abe787e000167f8143,SCR,2024-06-20_17h18.45.406,LearnStrategy,2023.2.3,Win32,142.8571429,2,2,9,,,,,,,,6,13,,,,,,,,,,,,,3,2.114,0,,,,,,0.0375,-0.246527778,1,0,0,2.1136,Diorite_rect,8,0,8,0,1,
5ccc60abe787e000167f8143,SCR,2024-06-20_17h18.45.406,LearnStrategy,2023.2.3,Win32,142.8571429,2,2,10,,,,,,,,2,12,,,,,,,,,,,,,8,2.468,0,,,,,,0.340277778,-0.4,1,0,0,2.468,Pumice_rect,9,0,9,0,1,
5ccc60abe787e000167f8143,SCR,2024-06-20_17h18.45.406,LearnStrategy,2023.2.3,Win32,142.8571429,2,2,11,,,,,,,,3,10,,,,,,,,,,,,,1,1.42,0,,,,,,-0.343055556,-0.254166667,1,0,0,1.4196,Andesite_rect,10,0,10,0,1,
5ccc60abe787e000167f8143,SCR,2024-06-20_17h18.45.406,LearnStrategy,2023.2.3,Win32,142.8571429,2,2,12,,,,,,,,1,14,,,,,,,,,,,,,4,1.377,0,,,,,,0.359722222,-0.271527778,1,0,0,1.3772,Gabbro_rect,11,0,11,0,1,
5ccc60abe787e000167f8143,SCR,2024-06-20_17h18.45.406,LearnStrategy,2023.2.3,Win32,142.8571429,2,2,13,,,,,,,,8,04,,,,,,,,,,,,,8,1.961,1,,,,,,0.320833333,-0.396527778,1,0,0,1.9612,Pumice_rect,12,0,12,0,1,
5ccc60abe787e000167f8143,SCR,2024-06-20_17h18.45.406,LearnStrategy,2023.2.3,Win32,142.8571429,2,2,14,,,,,,,,6,06,,,,,,,,,,,,,2,2.482,0,,,,,,-0.118055556,-0.234027778,1,0,0,2.482,Basalt_rect,13,0,13,0,1,
5ccc60abe787e000167f8143,SCR,2024-06-20_17h18.45.406,LearnStrategy,2023.2.3,Win32,142.8571429,2,2,15,,,,,,,,5,08,,,,,,,,,,,,,5,1.121,1,,,,,,-0.393055556,-0.401388889,1,0,0,1.121,Obsidian_rect,14,0,14,0,1,
5ccc60abe787e000167f8143,SCR,2024-06-20_17h18.45.406,LearnStrategy,2023.2.3,Win32,142.8571429,2,2,16,,,,,,,,7,13,,,,,,,,,,,,,3,1.378,0,,,,,,0.100694444,-0.241666667,1,0,0,1.3781,Diorite_rect,15,0,15,0,1,
5ccc60abe787e000167f8143,SCR,2024-06-20_17h18.45.406,LearnStrategy,2023.2.3,Win32,142.8571429,3,1,1,0.1125,0.263194444,1,0,0,1.5824,Pegmatite_16,6,16,5,5,1.582,6,16,0.3375,-0.247916667,1,0,0,5.9543,Gabbro_rect,4,5.954,0,0,0,0,0,1,,,,,,,,,,,,,
5ccc60abe787e000167f8143,SCR,2024-06-20_17h18.45.406,LearnStrategy,2023.2.3,Win32,142.8571429,3,1,2,0.065277778,0.102777778,1,0,0,0.5613,Gabbro_14,4,14,4,5,0.561,4,14,-0.136111111,-0.411805556,1,0,0,1.1833,Pegmatite_rect,6,1.183,0,1,0,1,0,1,,,,,,,,,,,,,
5ccc60abe787e000167f8143,SCR,2024-06-20_17h18.45.406,LearnStrategy,2023.2.3,Win32,142.8571429,3,1,3,0.503472222,0.101388889,1,0,0,1.2902,Pumice_06,8,06,4,8,1.29,8,06,0.369444444,-0.396527778,1,0,0,1.1346,Pumice_rect,8,1.135,1,2,0,2,0,1,,,,,,,,,,,,,
5ccc60abe787e000167f8143,SCR,2024-06-20_17h18.45.406,LearnStrategy,2023.2.3,Win32,142.8571429,3,1,4,-0.395833333,0.091666667,1,0,0,0.61,Pegmatite_05,6,05,4,2,0.61,6,05,-0.407638889,-0.391666667,1,0,0,0.961,Obsidian_rect,5,0.961,0,3,0,3,0,1,,,,,,,,,,,,,
5ccc60abe787e000167f8143,SCR,2024-06-20_17h18.45.406,LearnStrategy,2023.2.3,Win32,142.8571429,3,1,5,-0.547916667,-0.050694444,1,0,0,1.1654,Andesite_10,1,10,3,1,1.165,1,10,-0.338888889,-0.254861111,1,0,0,0.7666,Andesite_rect,1,0.767,1,4,0,4,0,1,,,,,,,,,,,,,
5ccc60abe787e000167f8143,SCR,2024-06-20_17h18.45.406,LearnStrategy,2023.2.3,Win32,142.8571429,3,1,6,-0.406944444,-0.421527778,1,0,0,0.7005,Andesite_03,1,03,1,2,0.701,1,03,-0.171527778,-0.254166667,1,0,0,0.9632,Basalt_rect,2,0.963,0,5,0,5,0,1,,,,,,,,,,,,,
5ccc60abe787e000167f8143,SCR,2024-06-20_17h18.45.406,LearnStrategy,2023.2.3,Win32,142.8571429,3,1,7,0.236805556,0.422916667,1,0,0,0.8111,Peridotite_02,7,02,6,6,0.811,7,02,0.345833333,-0.260416667,1,0,0,1.1869,Gabbro_rect,4,1.187,0,6,0,6,0,1,,,,,,,,,,,,,
5ccc60abe787e000167f8143,SCR,2024-06-20_17h18.45.406,LearnStrategy,2023.2.3,Win32,142.8571429,3,1,8,-0.357638889,-0.366666667,1,0,0,0.8462,Andesite_03,1,03,1,2,0.846,1,03,0.072916667,-0.254861111,1,0,0,1.8641,Diorite_rect,3,1.864,0,7,0,7,0,1,,,,,,,,,,,,,
5ccc60abe787e000167f8143,SCR,2024-06-20_17h18.45.406,LearnStrategy,2023.2.3,Win32,142.8571429,3,1,9,0.052777778,0.233333333,1,0,0,0.7003,Pegmatite_16,6,16,5,5,0.7,6,16,-0.125694444,-0.250694444,1,0,0,1.0447,Basalt_rect,2,1.045,0,8,0,8,0,1,,,,,,,,,,,,,
5ccc60abe787e000167f8143,SCR,2024-06-20_17h18.45.406,LearnStrategy,2023.2.3,Win32,142.8571429,3,1,10,0.553472222,0.361805556,1,0,0,1.1793,Gabbro_03,4,03,6,8,1.179,4,03,-0.321527778,-0.260416667,1,0,0,1.0232,Andesite_rect,1,1.023,0,9,0,9,0,1,,,,,,,,,,,,,
5ccc60abe787e000167f8143,SCR,2024-06-20_17h18.45.406,LearnStrategy,2023.2.3,Win32,142.8571429,3,1,11,-0.098611111,-0.266666667,1,0,0,0.9425,Peridotite_05,7,05,2,4,0.942,7,05,0.221527778,-0.24375,1,0,0,5.0654,Diorite_rect,3,5.065,0,10,0,10,0,1,,,,,,,,,,,,,
5ccc60abe787e000167f8143,SCR,2024-06-20_17h18.45.406,LearnStrategy,2023.2.3,Win32,142.8571429,3,1,12,0.405555556,0.227083333,1,0,0,1.0405,Basalt_10,2,10,5,7,1.041,2,10,-0.427083333,-0.379166667,1,0,0,1.3082,Obsidian_rect,5,1.308,0,11,0,11,0,1,,,,,,,,,,,,,
5ccc60abe787e000167f8143,SCR,2024-06-20_17h18.45.406,LearnStrategy,2023.2.3,Win32,142.8571429,3,1,13,0.508333333,0.265972222,1,0,0,0.8875,Diorite_14,3,14,5,8,0.887,3,14,0.368055556,-0.259027778,1,0,0,1.85,Gabbro_rect,4,1.85,0,12,0,12,0,1,,,,,,,,,,,,,
5ccc60abe787e000167f8143,SCR,2024-06-20_17h18.45.406,LearnStrategy,2023.2.3,Win32,142.8571429,3,1,14,0.370138889,-0.117361111,1,0,0,0.7346,Basalt_02,2,02,3,7,0.735,2,02,0.319444444,-0.383333333,1,0,0,0.732,Pumice_rect,8,0.732,0,13,0,13,0,1,,,,,,,,,,,,,
5ccc60abe787e000167f8143,SCR,2024-06-20_17h18.45.406,LearnStrategy,2023.2.3,Win32,142.8571429,3,1,15,0.361111111,0.357638889,1,0,0,0.9779,Gabbro_10,4,10,6,7,0.978,4,10,-0.115972222,-0.2375,1,0,0,0.7802,Basalt_rect,2,0.78,0,14,0,14,0,1,,,,,,,,,,,,,
5ccc60abe787e000167f8143,SCR,2024-06-20_17h18.45.406,LearnStrategy,2023.2.3,Win32,142.8571429,3,1,16,-0.280555556,-0.375694444,1,0,0,0.6519,Diorite_12,3,12,1,3,0.652,3,12,0.361111111,-0.398611111,1,0,0,2.0507,Pumice_rect,8,2.051,0,15,0,15,0,1,,,,,,,,,,,,,
5ccc60abe787e000167f8143,SCR,2024-06-20_17h18.45.406,LearnStrategy,2023.2.3,Win32,142.8571429,3,2,1,,,,,,,,8,15,,,,,,,,,,,,,8,4.142,1,,,,,,0.404861111,-0.418055556,1,0,0,4.1419,Pumice_rect,0,0,0,0,1,
5ccc60abe787e000167f8143,SCR,2024-06-20_17h18.45.406,LearnStrategy,2023.2.3,Win32,142.8571429,3,2,2,,,,,,,,4,13,,,,,,,,,,,,,3,1.704,0,,,,,,0.082638889,-0.265972222,1,0,0,1.7042,Diorite_rect,1,0,1,0,1,
5ccc60abe787e000167f8143,SCR,2024-06-20_17h18.45.406,LearnStrategy,2023.2.3,Win32,142.8571429,3,2,3,,,,,,,,6,08,,,,,,,,,,,,,4,7.767,0,,,,,,0.453472222,-0.253472222,1,0,0,7.7668,Gabbro_rect,2,0,2,0,1,
5ccc60abe787e000167f8143,SCR,2024-06-20_17h18.45.406,LearnStrategy,2023.2.3,Win32,142.8571429,3,2,4,,,,,,,,3,02,,,,,,,,,,,,,6,2.593,0,,,,,,-0.049305556,-0.421527778,1,0,0,2.5933,Pegmatite_rect,3,0,3,0,1,
5ccc60abe787e000167f8143,SCR,2024-06-20_17h18.45.406,LearnStrategy,2023.2.3,Win32,142.8571429,3,2,5,,,,,,,,1,04,,,,,,,,,,,,,8,4.142,0,,,,,,0.403472222,-0.4125,1,0,0,4.142,Pumice_rect,4,0,4,0,1,
5ccc60abe787e000167f8143,SCR,2024-06-20_17h18.45.406,LearnStrategy,2023.2.3,Win32,142.8571429,3,2,6,,,,,,,,2,14,,,,,,,,,,,,,8,1.024,0,,,,,,0.402083333,-0.4125,1,0,0,1.0236,Pumice_rect,5,0,5,0,1,
5ccc60abe787e000167f8143,SCR,2024-06-20_17h18.45.406,LearnStrategy,2023.2.3,Win32,142.8571429,3,2,7,,,,,,,,6,12,,,,,,,,,,,,,6,1.537,1,,,,,,-0.083333333,-0.408333333,1,0,0,1.5374,Pegmatite_rect,6,0,6,0,1,
5ccc60abe787e000167f8143,SCR,2024-06-20_17h18.45.406,LearnStrategy,2023.2.3,Win32,142.8571429,3,2,8,,,,,,,,3,11,,,,,,,,,,,,,3,1.407,1,,,,,,0.215972222,-0.257638889,1,0,0,1.4067,Diorite_rect,7,0,7,0,1,
5ccc60abe787e000167f8143,SCR,2024-06-20_17h18.45.406,LearnStrategy,2023.2.3,Win32,142.8571429,3,2,9,,,,,,,,2,08,,,,,,,,,,,,,5,1.617,0,,,,,,-0.405555556,-0.397222222,1,0,0,1.6168,Obsidian_rect,8,0,8,0,1,
5ccc60abe787e000167f8143,SCR,2024-06-20_17h18.45.406,LearnStrategy,2023.2.3,Win32,142.8571429,3,2,10,,,,,,,,4,15,,,,,,,,,,,,,4,3.086,1,,,,,,0.3625,-0.248611111,1,0,0,3.0861,Gabbro_rect,9,0,9,0,1,
5ccc60abe787e000167f8143,SCR,2024-06-20_17h18.45.406,LearnStrategy,2023.2.3,Win32,142.8571429,3,2,11,,,,,,,,7,14,,,,,,,,,,,,,8,2.704,0,,,,,,0.311805556,-0.404166667,1,0,0,2.7042,Pumice_rect,10,0,10,0,1,
5ccc60abe787e000167f8143,SCR,2024-06-20_17h18.45.406,LearnStrategy,2023.2.3,Win32,142.8571429,3,2,12,,,,,,,,7,12,,,,,,,,,,,,,7,3.753,1,,,,,,0.188194444,-0.407638889,1,0,0,3.7527,Peridotite_rect,11,0,11,0,1,
5ccc60abe787e000167f8143,SCR,2024-06-20_17h18.45.406,LearnStrategy,2023.2.3,Win32,142.8571429,3,2,13,,,,,,,,5,10,,,,,,,,,,,,,5,1.538,1,,,,,,-0.395833333,-0.390277778,1,0,0,1.5377,Obsidian_rect,12,0,12,0,1,
5ccc60abe787e000167f8143,SCR,2024-06-20_17h18.45.406,LearnStrategy,2023.2.3,Win32,142.8571429,3,2,14,,,,,,,,1,11,,,,,,,,,,,,,1,2.767,1,,,,,,-0.322916667,-0.257638889,1,0,0,2.7668,Andesite_rect,13,0,13,0,1,
5ccc60abe787e000167f8143,SCR,2024-06-20_17h18.45.406,LearnStrategy,2023.2.3,Win32,142.8571429,3,2,15,,,,,,,,8,14,,,,,,,,,,,,,8,1.364,1,,,,,,0.320833333,-0.397916667,1,0,0,1.3639,Pumice_rect,14,0,14,0,1,
5ccc60abe787e000167f8143,SCR,2024-06-20_17h18.45.406,LearnStrategy,2023.2.3,Win32,142.8571429,3,2,16,,,,,,,,5,09,,,,,,,,,,,,,5,1.427,1,,,,,,-0.363194444,-0.415972222,1,0,0,1.4266,Obsidian_rect,15,0,15,0,1,
5ccc60abe787e000167f8143,SCR,2024-06-20_17h18.45.406,LearnStrategy,2023.2.3,Win32,142.8571429,4,1,1,0.229166667,0.371527778,1,0,0,1.2486,Peridotite_02,7,02,6,6,1.249,7,02,0.297916667,-0.254861111,1,0,0,2.8568,Gabbro_rect,4,2.857,0,0,0,0,0,1,,,,,,,,,,,,,
5ccc60abe787e000167f8143,SCR,2024-06-20_17h18.45.406,LearnStrategy,2023.2.3,Win32,142.8571429,4,1,2,0.511111111,0.134722222,1,0,0,0.7905,Pumice_06,8,06,4,8,0.791,8,06,0.360416667,-0.405555556,1,0,0,1.2807,Pumice_rect,8,1.281,1,1,0,1,0,1,,,,,,,,,,,,,
5ccc60abe787e000167f8143,SCR,2024-06-20_17h18.45.406,LearnStrategy,2023.2.3,Win32,142.8571429,4,1,3,0.091666667,0.231944444,1,0,0,0.867,Pegmatite_16,6,16,5,5,0.867,6,16,0.080555556,-0.231944444,1,0,0,2.4609,Diorite_rect,3,2.461,0,2,0,2,0,1,,,,,,,,,,,,,
5ccc60abe787e000167f8143,SCR,2024-06-20_17h18.45.406,LearnStrategy,2023.2.3,Win32,142.8571429,4,1,4,-0.521527778,-0.075,1,0,0,1.0611,Andesite_10,1,10,3,1,1.061,1,10,0.319444444,-0.257638889,1,0,0,1.8239,Gabbro_rect,4,1.824,0,3,0,3,0,1,,,,,,,,,,,,,
5ccc60abe787e000167f8143,SCR,2024-06-20_17h18.45.406,LearnStrategy,2023.2.3,Win32,142.8571429,4,1,5,-0.425,-0.361111111,1,0,0,1.0474,Andesite_03,1,03,1,2,1.047,1,03,-0.095138889,-0.403472222,1,0,0,2.8499,Pegmatite_rect,6,2.85,0,4,0,4,0,1,,,,,,,,,,,,,
5ccc60abe787e000167f8143,SCR,2024-06-20_17h18.45.406,LearnStrategy,2023.2.3,Win32,142.8571429,4,1,6,0.563888889,0.433333333,1,0,0,1.3598,Gabbro_03,4,03,6,8,1.36,4,03,-0.352083333,-0.251388889,1,0,0,1.4748,Andesite_rect,1,1.475,0,5,0,5,0,1,,,,,,,,,,,,,
5ccc60abe787e000167f8143,SCR,2024-06-20_17h18.45.406,LearnStrategy,2023.2.3,Win32,142.8571429,4,1,7,0.088888889,0.090972222,1,0,0,0.6308,Gabbro_14,4,14,4,5,0.631,4,14,0.139583333,-0.396527778,1,0,0,1.697,Peridotite_rect,7,1.697,0,6,0,6,0,1,,,,,,,,,,,,,
5ccc60abe787e000167f8143,SCR,2024-06-20_17h18.45.406,LearnStrategy,2023.2.3,Win32,142.8571429,4,1,8,0.048611111,-0.224305556,1,0,0,0.5683,Diorite_08,3,08,2,5,0.568,3,08,0.188194444,-0.261111111,1,0,0,2.4333,Diorite_rect,3,2.433,1,7,0,7,0,1,,,,,,,,,,,,,
5ccc60abe787e000167f8143,SCR,2024-06-20_17h18.45.406,LearnStrategy,2023.2.3,Win32,142.8571429,4,1,9,0.052083333,0.263888889,1,0,0,0.6169,Pegmatite_16,6,16,5,5,0.617,6,16,-0.041666667,-0.411805556,1,0,0,7.621,Pegmatite_rect,6,7.621,1,8,0,8,0,1,,,,,,,,,,,,,
5ccc60abe787e000167f8143,SCR,2024-06-20_17h18.45.406,LearnStrategy,2023.2.3,Win32,142.8571429,4,1,10,0.354861111,0.452777778,1,0,0,1.596,Gabbro_10,4,10,6,7,1.596,4,10,-0.377083333,-0.265972222,1,0,0,3.1969,Andesite_rect,1,3.197,0,9,0,9,0,1,,,,,,,,,,,,,
5ccc60abe787e000167f8143,SCR,2024-06-20_17h18.45.406,LearnStrategy,2023.2.3,Win32,142.8571429,4,1,11,-0.2,-0.097222222,1,0,0,0.5891,Basalt_16,2,16,3,3,0.589,2,16,0.155555556,-0.249305556,1,0,0,1.1906,Diorite_rect,3,1.191,0,10,0,10,0,1,,,,,,,,,,,,,
5ccc60abe787e000167f8143,SCR,2024-06-20_17h18.45.406,LearnStrategy,2023.2.3,Win32,142.8571429,4,1,12,0.547222222,-0.241666667,1,0,0,0.7837,Peridotite_06,7,06,2,8,0.784,7,06,0.379861111,-0.409027778,1,0,0,1.8086,Pumice_rect,8,1.809,0,11,0,11,0,1,,,,,,,,,,,,,
5ccc60abe787e000167f8143,SCR,2024-06-20_17h18.45.406,LearnStrategy,2023.2.3,Win32,142.8571429,4,1,13,0.183333333,-0.067361111,1,0,0,0.8253,Diorite_15,3,15,3,6,0.825,3,15,-0.134027778,-0.253472222,1,0,0,1.0785,Basalt_rect,2,1.078,0,12,0,12,0,1,,,,,,,,,,,,,
5ccc60abe787e000167f8143,SCR,2024-06-20_17h18.45.406,LearnStrategy,2023.2.3,Win32,142.8571429,4,1,14,0.208333333,0.204861111,1,0,0,0.6031,Basalt_01,2,01,5,6,0.603,2,01,0.39375,-0.265972222,1,0,0,1.832,Gabbro_rect,4,1.832,0,13,0,13,0,1,,,,,,,,,,,,,
5ccc60abe787e000167f8143,SCR,2024-06-20_17h18.45.406,LearnStrategy,2023.2.3,Win32,142.8571429,4,1,15,0.054166667,-0.407638889,1,0,0,0.7486,Pegmatite_11,6,11,1,5,0.749,6,11,-0.110416667,-0.415972222,1,0,0,1.6065,Pegmatite_rect,6,1.606,1,14,0,14,0,1,,,,,,,,,,,,,
5ccc60abe787e000167f8143,SCR,2024-06-20_17h18.45.406,LearnStrategy,2023.2.3,Win32,142.8571429,4,1,16,-0.570833333,0.115972222,1,0,0,0.978,Basalt_09,2,09,4,1,0.978,2,09,0.422916667,-0.400694444,1,0,0,2.4054,Pumice_rect,8,2.405,0,15,0,15,0,1,,,,,,,,,,,,,
5ccc60abe787e000167f8143,SCR,2024-06-20_17h18.45.406,LearnStrategy,2023.2.3,Win32,142.8571429,4,2,1,,,,,,,,7,08,,,,,,,,,,,,,4,1.705,0,,,,,,0.350694444,-0.252083333,1,0,0,1.7045,Gabbro_rect,0,0,0,0,1,
5ccc60abe787e000167f8143,SCR,2024-06-20_17h18.45.406,LearnStrategy,2023.2.3,Win32,142.8571429,4,2,2,,,,,,,,5,12,,,,,,,,,,,,,5,1.579,1,,,,,,-0.464583333,-0.393055556,1,0,0,1.5792,Obsidian_rect,1,0,1,0,1,
5ccc60abe787e000167f8143,SCR,2024-06-20_17h18.45.406,LearnStrategy,2023.2.3,Win32,142.8571429,4,2,3,,,,,,,,2,08,,,,,,,,,,,,,2,4.594,1,,,,,,-0.172222222,-0.239583333,1,0,0,4.5939,Basalt_rect,2,0,2,0,1,
5ccc60abe787e000167f8143,SCR,2024-06-20_17h18.45.406,LearnStrategy,2023.2.3,Win32,142.8571429,4,2,4,,,,,,,,3,06,,,,,,,,,,,,,4,7.114,0,,,,,,0.31875,-0.257638889,1,0,0,7.1138,Gabbro_rect,3,0,3,0,1,
5ccc60abe787e000167f8143,SCR,2024-06-20_17h18.45.406,LearnStrategy,2023.2.3,Win32,142.8571429,4,2,5,,,,,,,,3,11,,,,,,,,,,,,,1,1.523,0,,,,,,-0.440277778,-0.246527778,1,0,0,1.5232,Andesite_rect,4,0,4,0,1,
5ccc60abe787e000167f8143,SCR,2024-06-20_17h18.45.406,LearnStrategy,2023.2.3,Win32,142.8571429,4,2,6,,,,,,,,8,02,,,,,,,,,,,,,8,1.509,1,,,,,,0.348611111,-0.4125,1,0,0,1.5092,Pumice_rect,5,0,5,0,1,
5ccc60abe787e000167f8143,SCR,2024-06-20_17h18.45.406,LearnStrategy,2023.2.3,Win32,142.8571429,4,2,7,,,,,,,,5,08,,,,,,,,,,,,,5,1.406,1,,,,,,-0.345833333,-0.406944444,1,0,0,1.4057,Obsidian_rect,6,0,6,0,1,
5ccc60abe787e000167f8143,SCR,2024-06-20_17h18.45.406,LearnStrategy,2023.2.3,Win32,142.8571429,4,2,8,,,,,,,,4,16,,,,,,,,,,,,,2,1.517,0,,,,,,-0.091666667,-0.246527778,1,0,0,1.5167,Basalt_rect,7,0,7,0,1,
5ccc60abe787e000167f8143,SCR,2024-06-20_17h18.45.406,LearnStrategy,2023.2.3,Win32,142.8571429,4,2,9,,,,,,,,6,06,,,,,,,,,,,,,1,1.677,0,,,,,,-0.425694444,-0.231944444,1,0,0,1.6771,Andesite_rect,8,0,8,0,1,
5ccc60abe787e000167f8143,SCR,2024-06-20_17h18.45.406,LearnStrategy,2023.2.3,Win32,142.8571429,4,2,10,,,,,,,,7,14,,,,,,,,,,,,,3,2.086,0,,,,,,0.127083333,-0.249305556,1,0,0,2.0858,Diorite_rect,9,0,9,0,1,
5ccc60abe787e000167f8143,SCR,2024-06-20_17h18.45.406,LearnStrategy,2023.2.3,Win32,142.8571429,4,2,11,,,,,,,,1,05,,,,,,,,,,,,,7,4.205,0,,,,,,0.227777778,-0.416666667,1,0,0,4.2045,Peridotite_rect,10,0,10,0,1,
5ccc60abe787e000167f8143,SCR,2024-06-20_17h18.45.406,LearnStrategy,2023.2.3,Win32,142.8571429,4,2,12,,,,,,,,6,10,,,,,,,,,,,,,8,6.128,0,,,,,,0.313888889,-0.3875,1,0,0,6.1279,Pumice_rect,11,0,11,0,1,
5ccc60abe787e000167f8143,SCR,2024-06-20_17h18.45.406,LearnStrategy,2023.2.3,Win32,142.8571429,4,2,13,,,,,,,,4,01,,,,,,,,,,,,,7,2.135,0,,,,,,0.097916667,-0.402083333,1,0,0,2.1347,Peridotite_rect,12,0,12,0,1,
5ccc60abe787e000167f8143,SCR,2024-06-20_17h18.45.406,LearnStrategy,2023.2.3,Win32,142.8571429,4,2,14,,,,,,,,8,14,,,,,,,,,,,,,8,1.753,1,,,,,,0.340277778,-0.394444444,1,0,0,1.7531,Pumice_rect,13,0,13,0,1,
5ccc60abe787e000167f8143,SCR,2024-06-20_17h18.45.406,LearnStrategy,2023.2.3,Win32,142.8571429,4,2,15,,,,,,,,1,11,,,,,,,,,,,,,4,3.079,0,,,,,,0.335416667,-0.255555556,1,0,0,3.0792,Gabbro_rect,14,0,14,0,1,
5ccc60abe787e000167f8143,SCR,2024-06-20_17h18.45.406,LearnStrategy,2023.2.3,Win32,142.8571429,4,2,16,,,,,,,,2,11,,,,,,,,,,,,,8,1.735,0,,,,,,0.313888889,-0.388888889,1,0,0,1.7354,Pumice_rect,15,0,15,0,1,
5ccc60abe787e000167f8143,SCR,2024-06-20_17h18.45.406,LearnStrategy,2023.2.3,Win32,142.8571429,5,1,1,-0.375,-0.390972222,1,0,0,0.9012,Andesite_03,1,03,1,2,0.901,1,03,-0.127083333,-0.235416667,1,0,0,2.0935,Basalt_rect,2,2.094,0,0,0,0,0,1,,,,,,,,,,,,,
5ccc60abe787e000167f8143,SCR,2024-06-20_17h18.45.406,LearnStrategy,2023.2.3,Win32,142.8571429,5,1,2,0.073611111,0.093055556,1,0,0,0.4709,Gabbro_14,4,14,4,5,0.471,4,14,0.152777778,-0.402777778,1,0,0,1.9052,Peridotite_rect,7,1.905,0,1,0,1,0,1,,,,,,,,,,,,,
5ccc60abe787e000167f8143,SCR,2024-06-20_17h18.45.406,LearnStrategy,2023.2.3,Win32,142.8571429,5,1,3,0.190277778,-0.260416667,1,0,0,0.7491,Andesite_06,1,06,2,6,0.749,1,06,0.188194444,-0.269444444,1,0,0,1.3017,Diorite_rect,3,1.302,0,2,0,2,0,1,,,,,,,,,,,,,
5ccc60abe787e000167f8143,SCR,2024-06-20_17h18.45.406,LearnStrategy,2023.2.3,Win32,142.8571429,5,1,4,0.513194444,-0.073611111,1,0,0,1.8875,Pegmatite_09,6,09,3,8,1.887,6,09,0.205555556,-0.402777778,1,0,0,1.6894,Peridotite_rect,7,1.689,0,3,0,3,0,1,,,,,,,,,,,,,
5ccc60abe787e000167f8143,SCR,2024-06-20_17h18.45.406,LearnStrategy,2023.2.3,Win32,142.8571429,5,1,5,-0.221527778,0.374305556,1,0,0,0.8739,Diorite_09,3,09,6,3,0.874,3,09,-0.355555556,-0.265972222,1,0,0,4.1277,Andesite_rect,1,4.128,0,4,0,4,0,1,,,,,,,,,,,,,
5ccc60abe787e000167f8143,SCR,2024-06-20_17h18.45.406,LearnStrategy,2023.2.3,Win32,142.8571429,5,1,6,-0.222222222,-0.400694444,1,0,0,0.7904,Diorite_12,3,12,1,3,0.79,3,12,0.321527778,-0.386805556,1,0,0,1.8087,Pumice_rect,8,1.809,0,5,0,5,0,1,,,,,,,,,,,,,
5ccc60abe787e000167f8143,SCR,2024-06-20_17h18.45.406,LearnStrategy,2023.2.3,Win32,142.8571429,5,1,7,0.038194444,-0.052777778,1,0,0,0.5952,Peridotite_04,7,04,3,5,0.595,7,04,-0.1,-0.418055556,1,0,0,1.6141,Pegmatite_rect,6,1.614,0,6,0,6,0,1,,,,,,,,,,,,,
5ccc60abe787e000167f8143,SCR,2024-06-20_17h18.45.406,LearnStrategy,2023.2.3,Win32,142.8571429,5,1,8,0.354166667,0.113888889,1,0,0,1.1584,Peridotite_15,7,15,4,7,1.158,7,15,0.0875,-0.409722222,1,0,0,2.3847,Peridotite_rect,7,2.385,1,7,0,7,0,1,,,,,,,,,,,,,
5ccc60abe787e000167f8143,SCR,2024-06-20_17h18.45.406,LearnStrategy,2023.2.3,Win32,142.8571429,5,1,9,0.056944444,0.099305556,1,0,0,0.6374,Gabbro_14,4,14,4,5,0.637,4,14,-0.192361111,-0.259722222,1,0,0,3.5167,Basalt_rect,2,3.517,0,8,0,8,0,1,,,,,,,,,,,,,
5ccc60abe787e000167f8143,SCR,2024-06-20_17h18.45.406,LearnStrategy,2023.2.3,Win32,142.8571429,5,1,10,0.369444444,0.256944444,1,0,0,0.6862,Basalt_10,2,10,5,7,0.686,2,10,-0.177777778,-0.23125,1,0,0,1.6139,Basalt_rect,2,1.614,1,9,0,9,0,1,,,,,,,,,,,,,
5ccc60abe787e000167f8143,SCR,2024-06-20_17h18.45.406,LearnStrategy,2023.2.3,Win32,142.8571429,5,1,11,0.078472222,0.240277778,1,0,0,0.6166,Pegmatite_16,6,16,5,5,0.617,6,16,-0.113194444,-0.384722222,1,0,0,0.9462,Pegmatite_rect,6,0.946,1,10,0,10,0,1,,,,,,,,,,,,,
5ccc60abe787e000167f8143,SCR,2024-06-20_17h18.45.406,LearnStrategy,2023.2.3,Win32,142.8571429,5,1,12,0.196527778,-0.240972222,1,0,0,0.8044,Andesite_06,1,06,2,6,0.804,1,06,0.052777778,-0.395138889,1,0,0,4.1899,Peridotite_rect,7,4.19,0,11,0,11,0,1,,,,,,,,,,,,,
5ccc60abe787e000167f8143,SCR,2024-06-20_17h18.45.406,LearnStrategy,2023.2.3,Win32,142.8571429,5,1,13,-0.576388889,0.120833333,1,0,0,0.81,Basalt_09,2,09,4,1,0.81,2,09,-0.119444444,-0.390972222,1,0,0,2.0094,Pegmatite_rect,6,2.009,0,12,0,12,0,1,,,,,,,,,,,,,
5ccc60abe787e000167f8143,SCR,2024-06-20_17h18.45.406,LearnStrategy,2023.2.3,Win32,142.8571429,5,1,14,0.515972222,-0.125,1,0,0,1.2907,Pegmatite_09,6,09,3,8,1.291,6,09,0.179166667,-0.238194444,1,0,0,2.1131,Diorite_rect,3,2.113,0,13,0,13,0,1,,,,,,,,,,,,,
5ccc60abe787e000167f8143,SCR,2024-06-20_17h18.45.406,LearnStrategy,2023.2.3,Win32,142.8571429,5,1,15,-0.110416667,0.463888889,1,0,0,1.0125,Gabbro_08,4,08,6,4,1.013,4,08,0.339583333,-0.388888889,1,0,0,1.2249,Pumice_rect,8,1.225,0,14,0,14,0,1,,,,,,,,,,,,,
5ccc60abe787e000167f8143,SCR,2024-06-20_17h18.45.406,LearnStrategy,2023.2.3,Win32,142.8571429,5,1,16,-0.397916667,0.229861111,1,0,0,0.6722,Pumice_13,8,13,5,2,0.672,8,13,0.341666667,-0.4125,1,0,0,0.9026,Pumice_rect,8,0.903,1,15,0,15,0,1,,,,,,,,,,,,,
5ccc60abe787e000167f8143,SCR,2024-06-20_17h18.45.406,LearnStrategy,2023.2.3,Win32,142.8571429,5,2,1,,,,,,,,5,16,,,,,,,,,,,,,5,1.953,1,,,,,,-0.388194444,-0.420138889,1,0,0,1.9531,Obsidian_rect,0,0,0,0,1,
5ccc60abe787e000167f8143,SCR,2024-06-20_17h18.45.406,LearnStrategy,2023.2.3,Win32,142.8571429,5,2,2,,,,,,,,6,13,,,,,,,,,,,,,6,2.343,1,,,,,,-0.079166667,-0.386805556,1,0,0,2.3433,Pegmatite_rect,1,0,1,0,1,
5ccc60abe787e000167f8143,SCR,2024-06-20_17h18.45.406,LearnStrategy,2023.2.3,Win32,142.8571429,5,2,3,,,,,,,,1,04,,,,,,,,,,,,,4,1.871,0,,,,,,0.336111111,-0.268055556,1,0,0,1.8706,Gabbro_rect,2,0,2,0,1,
5ccc60abe787e000167f8143,SCR,2024-06-20_17h18.45.406,LearnStrategy,2023.2.3,Win32,142.8571429,5,2,4,,,,,,,,4,13,,,,,,,,,,,,,7,5.816,0,,,,,,0.147916667,-0.413888889,1,0,0,5.816,Peridotite_rect,3,0,3,0,1,
5ccc60abe787e000167f8143,SCR,2024-06-20_17h18.45.406,LearnStrategy,2023.2.3,Win32,142.8571429,5,2,5,,,,,,,,5,09,,,,,,,,,,,,,5,1.523,1,,,,,,-0.395138889,-0.390277778,1,0,0,1.5234,Obsidian_rect,4,0,4,0,1,
5ccc60abe787e000167f8143,SCR,2024-06-20_17h18.45.406,LearnStrategy,2023.2.3,Win32,142.8571429,5,2,6,,,,,,,,8,15,,,,,,,,,,,,,8,1.023,1,,,,,,0.345833333,-0.411111111,1,0,0,1.0234,Pumice_rect,5,0,5,0,1,
5ccc60abe787e000167f8143,SCR,2024-06-20_17h18.45.406,LearnStrategy,2023.2.3,Win32,142.8571429,5,2,7,,,,,,,,2,12,,,,,,,,,,,,,8,1.148,0,,,,,,0.345833333,-0.411111111,1,0,0,1.1482,Pumice_rect,6,0,6,0,1,
5ccc60abe787e000167f8143,SCR,2024-06-20_17h18.45.406,LearnStrategy,2023.2.3,Win32,142.8571429,5,2,8,,,,,,,,3,13,,,,,,,,,,,,,1,5.399,0,,,,,,-0.420833333,-0.257638889,1,0,0,5.3988,Andesite_rect,7,0,7,0,1,
5ccc60abe787e000167f8143,SCR,2024-06-20_17h18.45.406,LearnStrategy,2023.2.3,Win32,142.8571429,5,2,9,,,,,,,,4,15,,,,,,,,,,,,,7,2.989,0,,,,,,0.183333333,-0.389583333,1,0,0,2.9888,Peridotite_rect,8,0,8,0,1,
5ccc60abe787e000167f8143,SCR,2024-06-20_17h18.45.406,LearnStrategy,2023.2.3,Win32,142.8571429,5,2,10,,,,,,,,7,16,,,,,,,,,,,,,3,2.843,0,,,,,,0.085416667,-0.249305556,1,0,0,2.8433,Diorite_rect,9,0,9,0,1,
5ccc60abe787e000167f8143,SCR,2024-06-20_17h18.45.406,LearnStrategy,2023.2.3,Win32,142.8571429,5,2,11,,,,,,,,2,06,,,,,,,,,,,,,2,4.017,1,,,,,,-0.213194444,-0.247916667,1,0,0,4.017,Basalt_rect,10,0,10,0,1,
5ccc60abe787e000167f8143,SCR,2024-06-20_17h18.45.406,LearnStrategy,2023.2.3,Win32,142.8571429,5,2,12,,,,,,,,6,15,,,,,,,,,,,,,4,1.552,0,,,,,,0.363194444,-0.243055556,1,0,0,1.5517,Gabbro_rect,11,0,11,0,1,
5ccc60abe787e000167f8143,SCR,2024-06-20_17h18.45.406,LearnStrategy,2023.2.3,Win32,142.8571429,5,2,13,,,,,,,,1,02,,,,,,,,,,,,,7,2.107,0,,,,,,0.220833333,-0.411111111,1,0,0,2.1072,Peridotite_rect,12,0,12,0,1,
5ccc60abe787e000167f8143,SCR,2024-06-20_17h18.45.406,LearnStrategy,2023.2.3,Win32,142.8571429,5,2,14,,,,,,,,7,07,,,,,,,,,,,,,1,1.246,0,,,,,,-0.330555556,-0.242361111,1,0,0,1.2457,Andesite_rect,13,0,13,0,1,
5ccc60abe787e000167f8143,SCR,2024-06-20_17h18.45.406,LearnStrategy,2023.2.3,Win32,142.8571429,5,2,15,,,,,,,,3,02,,,,,,,,,,,,,6,1.086,0,,,,,,-0.0875,-0.3875,1,0,0,1.086,Pegmatite_rect,14,0,14,0,1,
5ccc60abe787e000167f8143,SCR,2024-06-20_17h18.45.406,LearnStrategy,2023.2.3,Win32,142.8571429,5,2,16,,,,,,,,8,05,,,,,,,,,,,,,8,1.1,1,,,,,,0.320833333,-0.397222222,1,0,0,1.1003,Pumice_rect,15,0,15,0,1,
5ccc60abe787e000167f8143,SCR,2024-06-20_17h18.45.406,LearnStrategy,2023.2.3,Win32,142.8571429,6,1,1,-0.556944444,-0.283333333,1,0,0,1.9641,Andesite_16,1,16,2,1,1.964,1,16,-0.440277778,-0.259027778,1,0,0,1.7876,Andesite_rect,1,1.788,1,0,0,0,0,1,,,,,,,,,,,,,
5ccc60abe787e000167f8143,SCR,2024-06-20_17h18.45.406,LearnStrategy,2023.2.3,Win32,142.8571429,6,1,2,0.059027778,0.071527778,1,0,0,0.6723,Gabbro_14,4,14,4,5,0.672,4,14,0.331944444,-0.25625,1,0,0,1.956,Gabbro_rect,4,1.956,1,1,0,1,0,1,,,,,,,,,,,,,
5ccc60abe787e000167f8143,SCR,2024-06-20_17h18.45.406,LearnStrategy,2023.2.3,Win32,142.8571429,6,1,3,0.215277778,-0.092361111,1,0,0,0.707,Diorite_15,3,15,3,6,0.707,3,15,0.05,-0.265972222,1,0,0,1.8498,Diorite_rect,3,1.85,1,2,0,2,0,1,,,,,,,,,,,,,
5ccc60abe787e000167f8143,SCR,2024-06-20_17h18.45.406,LearnStrategy,2023.2.3,Win32,142.8571429,6,1,4,0.0375,-0.1,1,0,0,0.4504,Peridotite_04,7,04,3,5,0.45,7,04,0.315972222,-0.397916667,1,0,0,2.2463,Pumice_rect,8,2.246,0,3,0,3,0,1,,,,,,,,,,,,,
5ccc60abe787e000167f8143,SCR,2024-06-20_17h18.45.406,LearnStrategy,2023.2.3,Win32,142.8571429,6,1,5,-0.110416667,0.209722222,1,0,0,1.0471,Gabbro_09,4,09,5,4,1.047,4,09,-0.064583333,-0.390277778,1,0,0,1.4341,Pegmatite_rect,6,1.434,0,4,0,4,0,1,,,,,,,,,,,,,
5ccc60abe787e000167f8143,SCR,2024-06-20_17h18.45.406,LearnStrategy,2023.2.3,Win32,142.8571429,6,1,6,-0.263194444,0.218055556,1,0,0,0.6303,Pumice_10,8,10,5,3,0.63,8,10,0.343055556,-0.390972222,1,0,0,1.4055,Pumice_rect,8,1.405,1,5,0,5,0,1,,,,,,,,,,,,,
5ccc60abe787e000167f8143,SCR,2024-06-20_17h18.45.406,LearnStrategy,2023.2.3,Win32,142.8571429,6,1,7,0.045833333,0.218055556,1,0,0,0.5682,Pegmatite_16,6,16,5,5,0.568,6,16,-0.095833333,-0.406944444,1,0,0,0.7114,Pegmatite_rect,6,0.711,1,6,0,6,0,1,,,,,,,,,,,,,
5ccc60abe787e000167f8143,SCR,2024-06-20_17h18.45.406,LearnStrategy,2023.2.3,Win32,142.8571429,6,1,8,0.557638889,-0.133333333,1,0,0,1.1588,Pegmatite_09,6,09,3,8,1.159,6,09,0.063194444,-0.413194444,1,0,0,3.0156,Peridotite_rect,7,3.016,0,7,0,7,0,1,,,,,,,,,,,,,
5ccc60abe787e000167f8143,SCR,2024-06-20_17h18.45.406,LearnStrategy,2023.2.3,Win32,142.8571429,6,1,9,0.213194444,-0.268055556,1,0,0,0.5892,Andesite_06,1,06,2,6,0.589,1,06,-0.338194444,-0.241666667,1,0,0,1.3081,Andesite_rect,1,1.308,1,8,0,8,0,1,,,,,,,,,,,,,
5ccc60abe787e000167f8143,SCR,2024-06-20_17h18.45.406,LearnStrategy,2023.2.3,Win32,142.8571429,6,1,10,0.404861111,0.384722222,1,0,0,0.8879,Gabbro_10,4,10,6,7,0.888,4,10,0.361111111,-0.398611111,1,0,0,1.4889,Pumice_rect,8,1.489,0,9,0,9,0,1,,,,,,,,,,,,,
5ccc60abe787e000167f8143,SCR,2024-06-20_17h18.45.406,LearnStrategy,2023.2.3,Win32,142.8571429,6,1,11,0.38125,-0.413888889,1,0,0,0.8884,Peridotite_10,7,10,1,7,0.888,7,10,-0.070138889,-0.404166667,1,0,0,2.6393,Pegmatite_rect,6,2.639,0,10,0,10,0,1,,,,,,,,,,,,,
5ccc60abe787e000167f8143,SCR,2024-06-20_17h18.45.406,LearnStrategy,2023.2.3,Win32,142.8571429,6,1,12,-0.546527778,-0.099305556,1,0,0,1.1098,Andesite_10,1,10,3,1,1.11,1,10,0.338194444,-0.394444444,1,0,0,2.1205,Pumice_rect,8,2.12,0,11,0,11,0,1,,,,,,,,,,,,,
5ccc60abe787e000167f8143,SCR,2024-06-20_17h18.45.406,LearnStrategy,2023.2.3,Win32,142.8571429,6,1,13,0.052777778,-0.252083333,1,0,0,0.6863,Diorite_08,3,08,2,5,0.686,3,08,0.111111111,-0.402083333,1,0,0,3.3987,Peridotite_rect,7,3.399,0,12,0,12,0,1,,,,,,,,,,,,,
5ccc60abe787e000167f8143,SCR,2024-06-20_17h18.45.406,LearnStrategy,2023.2.3,Win32,142.8571429,6,1,14,-0.539583333,0.114583333,1,0,0,0.7625,Basalt_09,2,09,4,1,0.763,2,09,-0.173611111,-0.228472222,1,0,0,1.7945,Basalt_rect,2,1.794,1,13,0,13,0,1,,,,,,,,,,,,,
5ccc60abe787e000167f8143,SCR,2024-06-20_17h18.45.406,LearnStrategy,2023.2.3,Win32,142.8571429,6,1,15,-0.106944444,-0.247222222,1,0,0,0.6865,Peridotite_05,7,05,2,4,0.687,7,05,0.077777778,-0.384722222,1,0,0,2.0455,Peridotite_rect,7,2.045,1,14,0,14,0,1,,,,,,,,,,,,,
5ccc60abe787e000167f8143,SCR,2024-06-20_17h18.45.406,LearnStrategy,2023.2.3,Win32,142.8571429,6,1,16,0.4125,0.259722222,1,0,0,0.8877,Basalt_10,2,10,5,7,0.888,2,10,-0.133333333,-0.25,1,0,0,2.3089,Basalt_rect,2,2.309,1,15,0,15,0,1,,,,,,,,,,,,,
5ccc60abe787e000167f8143,SCR,2024-06-20_17h18.45.406,LearnStrategy,2023.2.3,Win32,142.8571429,6,2,1,,,,,,,,1,14,,,,,,,,,,,,,7,2.885,0,,,,,,0.063888889,-0.414583333,1,0,0,2.8852,Peridotite_rect,0,0,0,0,1,
5ccc60abe787e000167f8143,SCR,2024-06-20_17h18.45.406,LearnStrategy,2023.2.3,Win32,142.8571429,6,2,2,,,,,,,,8,04,,,,,,,,,,,,,8,1.183,1,,,,,,0.343055556,-0.386111111,1,0,0,1.1828,Pumice_rect,1,0,1,0,1,
5ccc60abe787e000167f8143,SCR,2024-06-20_17h18.45.406,LearnStrategy,2023.2.3,Win32,142.8571429,6,2,3,,,,,,,,2,14,,,,,,,,,,,,,8,3.469,0,,,,,,0.365972222,-0.39375,1,0,0,3.4686,Pumice_rect,2,0,2,0,1,
5ccc60abe787e000167f8143,SCR,2024-06-20_17h18.45.406,LearnStrategy,2023.2.3,Win32,142.8571429,6,2,4,,,,,,,,5,10,,,,,,,,,,,,,5,1.914,1,,,,,,-0.484722222,-0.39375,1,0,0,1.914,Obsidian_rect,3,0,3,0,1,
5ccc60abe787e000167f8143,SCR,2024-06-20_17h18.45.406,LearnStrategy,2023.2.3,Win32,142.8571429,6,2,5,,,,,,,,6,08,,,,,,,,,,,,,1,3.878,0,,,,,,-0.395138889,-0.248611111,1,0,0,3.8783,Andesite_rect,4,0,4,0,1,
5ccc60abe787e000167f8143,SCR,2024-06-20_17h18.45.406,LearnStrategy,2023.2.3,Win32,142.8571429,6,2,6,,,,,,,,8,09,,,,,,,,,,,,,8,1.114,1,,,,,,0.331944444,-0.411111111,1,0,0,1.1139,Pumice_rect,5,0,5,0,1,
5ccc60abe787e000167f8143,SCR,2024-06-20_17h18.45.406,LearnStrategy,2023.2.3,Win32,142.8571429,6,2,7,,,,,,,,4,12,,,,,,,,,,,,,7,7.03,0,,,,,,0.099305556,-0.405555556,1,0,0,7.0303,Peridotite_rect,6,0,6,0,1,
5ccc60abe787e000167f8143,SCR,2024-06-20_17h18.45.406,LearnStrategy,2023.2.3,Win32,142.8571429,6,2,8,,,,,,,,2,04,,,,,,,,,,,,,5,2.149,0,,,,,,-0.4,-0.420138889,1,0,0,2.1486,Obsidian_rect,7,0,7,0,1,
5ccc60abe787e000167f8143,SCR,2024-06-20_17h18.45.406,LearnStrategy,2023.2.3,Win32,142.8571429,6,2,9,,,,,,,,3,10,,,,,,,,,,,,,1,2.475,0,,,,,,-0.380555556,-0.257638889,1,0,0,2.475,Andesite_rect,8,0,8,0,1,
5ccc60abe787e000167f8143,SCR,2024-06-20_17h18.45.406,LearnStrategy,2023.2.3,Win32,142.8571429,6,2,10,,,,,,,,6,12,,,,,,,,,,,,,6,2.017,1,,,,,,-0.129166667,-0.404861111,1,0,0,2.0168,Pegmatite_rect,9,0,9,0,1,
5ccc60abe787e000167f8143,SCR,2024-06-20_17h18.45.406,LearnStrategy,2023.2.3,Win32,142.8571429,6,2,11,,,,,,,,4,11,,,,,,,,,,,,,3,1.76,0,,,,,,0.191666667,-0.256944444,1,0,0,1.76,Diorite_rect,10,0,10,0,1,
5ccc60abe787e000167f8143,SCR,2024-06-20_17h18.45.406,LearnStrategy,2023.2.3,Win32,142.8571429,6,2,12,,,,,,,,7,12,,,,,,,,,,,,,7,2.732,1,,,,,,0.089583333,-0.404166667,1,0,0,2.7322,Peridotite_rect,11,0,11,0,1,
5ccc60abe787e000167f8143,SCR,2024-06-20_17h18.45.406,LearnStrategy,2023.2.3,Win32,142.8571429,6,2,13,,,,,,,,5,06,,,,,,,,,,,,,5,1.357,1,,,,,,-0.40625,-0.383333333,1,0,0,1.3567,Obsidian_rect,12,0,12,0,1,
5ccc60abe787e000167f8143,SCR,2024-06-20_17h18.45.406,LearnStrategy,2023.2.3,Win32,142.8571429,6,2,14,,,,,,,,7,13,,,,,,,,,,,,,3,3.62,0,,,,,,0.134722222,-0.231944444,1,0,0,3.6205,Diorite_rect,13,0,13,0,1,
5ccc60abe787e000167f8143,SCR,2024-06-20_17h18.45.406,LearnStrategy,2023.2.3,Win32,142.8571429,6,2,15,,,,,,,,3,07,,,,,,,,,,,,,1,4.537,0,,,,,,-0.397916667,-0.255555556,1,0,0,4.5374,Andesite_rect,14,0,14,0,1,
5ccc60abe787e000167f8143,SCR,2024-06-20_17h18.45.406,LearnStrategy,2023.2.3,Win32,142.8571429,6,2,16,,,,,,,,1,07,,,,,,,,,,,,,1,2.17,1,,,,,,-0.356944444,-0.238194444,1,0,0,2.1697,Andesite_rect,15,0,15,0,1,
5ccc60abe787e000167f8143,SCR,2024-06-20_17h18.45.406,LearnStrategy,2023.2.3,Win32,142.8571429,7,1,1,-0.099305556,0.41875,1,0,0,1.0408,Gabbro_08,4,08,6,4,1.041,4,08,-0.384722222,-0.398611111,1,0,0,9.2735,Obsidian_rect,5,9.274,0,0,0,0,0,1,,,,,,,,,,,,,
5ccc60abe787e000167f8143,SCR,2024-06-20_17h18.45.406,LearnStrategy,2023.2.3,Win32,142.8571429,7,1,2,-0.384027778,-0.110416667,1,0,0,0.7833,Pegmatite_03,6,03,3,2,0.783,6,03,0.332638889,-0.390277778,1,0,0,2.3221,Pumice_rect,8,2.322,0,1,0,1,0,1,,,,,,,,,,,,,
5ccc60abe787e000167f8143,SCR,2024-06-20_17h18.45.406,LearnStrategy,2023.2.3,Win32,142.8571429,7,1,3,0.382638889,0.432638889,1,0,0,0.8942,Gabbro_10,4,10,6,7,0.894,4,10,-0.388888889,-0.247916667,1,0,0,2.6971,Andesite_rect,1,2.697,0,2,0,2,0,1,,,,,,,,,,,,,
5ccc60abe787e000167f8143,SCR,2024-06-20_17h18.45.406,LearnStrategy,2023.2.3,Win32,142.8571429,7,1,4,0.380555556,-0.385416667,1,0,0,0.9361,Peridotite_10,7,10,1,7,0.936,7,10,-0.336111111,-0.2625,1,0,0,1.9678,Andesite_rect,1,1.968,0,3,0,3,0,1,,,,,,,,,,,,,
5ccc60abe787e000167f8143,SCR,2024-06-20_17h18.45.406,LearnStrategy,2023.2.3,Win32,142.8571429,7,1,5,0.528472222,0.243055556,1,0,0,0.7071,Diorite_14,3,14,5,8,0.707,3,14,-0.347916667,-0.2625,1,0,0,1.5097,Andesite_rect,1,1.51,0,4,0,4,0,1,,,,,,,,,,,,,
5ccc60abe787e000167f8143,SCR,2024-06-20_17h18.45.406,LearnStrategy,2023.2.3,Win32,142.8571429,7,1,6,0.196527778,-0.118055556,1,0,0,0.5893,Diorite_15,3,15,3,6,0.589,3,15,-0.425,-0.228472222,1,0,0,1.4056,Andesite_rect,1,1.406,0,5,0,5,0,1,,,,,,,,,,,,,
5ccc60abe787e000167f8143,SCR,2024-06-20_17h18.45.406,LearnStrategy,2023.2.3,Win32,142.8571429,7,1,7,-0.504166667,0.23125,1,0,0,1.1378,Andesite_01,1,01,5,1,1.138,1,01,-0.384027778,-0.264583333,1,0,0,0.8223,Andesite_rect,1,0.822,1,6,0,6,0,1,,,,,,,,,,,,,
5ccc60abe787e000167f8143,SCR,2024-06-20_17h18.45.406,LearnStrategy,2023.2.3,Win32,142.8571429,7,1,8,-0.4,0.136805556,1,0,0,0.603,Pegmatite_05,6,05,4,2,0.603,6,05,-0.36875,-0.269444444,1,0,0,1.1512,Andesite_rect,1,1.151,0,7,0,7,0,1,,,,,,,,,,,,,
5ccc60abe787e000167f8143,SCR,2024-06-20_17h18.45.406,LearnStrategy,2023.2.3,Win32,142.8571429,7,1,9,-0.363194444,-0.366666667,1,0,0,0.9571,Andesite_03,1,03,1,2,0.957,1,03,-0.375,-0.230555556,1,0,0,1.0723,Andesite_rect,1,1.072,1,8,0,8,0,1,,,,,,,,,,,,,
5ccc60abe787e000167f8143,SCR,2024-06-20_17h18.45.406,LearnStrategy,2023.2.3,Win32,142.8571429,7,1,10,0.061111111,-0.225694444,1,0,0,0.5891,Diorite_08,3,08,2,5,0.589,3,08,-0.376388889,-0.253472222,1,0,0,2.2806,Andesite_rect,1,2.281,0,9,0,9,0,1,,,,,,,,,,,,,
5ccc60abe787e000167f8143,SCR,2024-06-20_17h18.45.406,LearnStrategy,2023.2.3,Win32,142.8571429,7,1,11,0.240277778,0.254166667,1,0,0,0.6446,Basalt_01,2,01,5,6,0.645,2,01,-0.381944444,-0.249305556,1,0,0,1.3435,Andesite_rect,1,1.344,0,10,0,10,0,1,,,,,,,,,,,,,
5ccc60abe787e000167f8143,SCR,2024-06-20_17h18.45.406,LearnStrategy,2023.2.3,Win32,142.8571429,7,1,12,0.077083333,0.059722222,1,0,0,0.5683,Gabbro_14,4,14,4,5,0.568,4,14,-0.350694444,-0.259027778,1,0,0,7.9399,Andesite_rect,1,7.94,0,11,0,11,0,1,,,,,,,,,,,,,
5ccc60abe787e000167f8143,SCR,2024-06-20_17h18.45.406,LearnStrategy,2023.2.3,Win32,142.8571429,7,1,13,0.227083333,-0.410416667,1,0,0,0.8766,Pumice_08,8,08,1,6,0.877,8,08,0.384722222,-0.415972222,1,0,0,3.0097,Pumice_rect,8,3.01,1,12,0,12,0,1,,,,,,,,,,,,,
5ccc60abe787e000167f8143,SCR,2024-06-20_17h18.45.406,LearnStrategy,2023.2.3,Win32,142.8571429,7,1,14,0.220138889,0.413194444,1,0,0,2.1656,Peridotite_02,7,02,6,6,2.166,7,02,-0.334722222,-0.247222222,1,0,0,1.7803,Andesite_rect,1,1.78,0,13,0,13,0,1,,,,,,,,,,,,,
5ccc60abe787e000167f8143,SCR,2024-06-20_17h18.45.406,LearnStrategy,2023.2.3,Win32,142.8571429,7,1,15,0.389583333,-0.097916667,1,0,0,2.089,Basalt_02,2,02,3,7,2.089,2,02,-0.340972222,-0.398611111,1,0,0,2.5584,Obsidian_rect,5,2.558,0,14,0,14,0,1,,,,,,,,,,,,,
5ccc60abe787e000167f8143,SCR,2024-06-20_17h18.45.406,LearnStrategy,2023.2.3,Win32,142.8571429,7,1,16,-0.518055556,-0.238194444,1,0,0,0.9567,Andesite_16,1,16,2,1,0.957,1,16,-0.385416667,-0.238194444,1,0,0,4.8011,Andesite_rect,1,4.801,1,15,0,15,0,1,,,,,,,,,,,,,
5ccc60abe787e000167f8143,SCR,2024-06-20_17h18.45.406,LearnStrategy,2023.2.3,Win32,142.8571429,7,2,1,,,,,,,,5,09,,,,,,,,,,,,,5,1.912,1,,,,,,-0.441666667,-0.420833333,1,0,0,1.9116,Obsidian_rect,0,0,0,0,1,
5ccc60abe787e000167f8143,SCR,2024-06-20_17h18.45.406,LearnStrategy,2023.2.3,Win32,142.8571429,7,2,2,,,,,,,,7,07,,,,,,,,,,,,,1,2.934,0,,,,,,-0.370833333,-0.253472222,1,0,0,2.9336,Andesite_rect,1,0,1,0,1,
5ccc60abe787e000167f8143,SCR,2024-06-20_17h18.45.406,LearnStrategy,2023.2.3,Win32,142.8571429,7,2,3,,,,,,,,3,11,,,,,,,,,,,,,8,3.218,0,,,,,,0.445833333,-0.395833333,1,0,0,3.2182,Pumice_rect,2,0,2,0,1,
5ccc60abe787e000167f8143,SCR,2024-06-20_17h18.45.406,LearnStrategy,2023.2.3,Win32,142.8571429,7,2,4,,,,,,,,1,04,,,,,,,,,,,,,1,3.878,1,,,,,,-0.398611111,-0.25,1,0,0,3.8782,Andesite_rect,3,0,3,0,1,
5ccc60abe787e000167f8143,SCR,2024-06-20_17h18.45.406,LearnStrategy,2023.2.3,Win32,142.8571429,7,2,5,,,,,,,,5,12,,,,,,,,,,,,,5,2.531,1,,,,,,-0.367361111,-0.413888889,1,0,0,2.5305,Obsidian_rect,4,0,4,0,1,
5ccc60abe787e000167f8143,SCR,2024-06-20_17h18.45.406,LearnStrategy,2023.2.3,Win32,142.8571429,7,2,6,,,,,,,,6,12,,,,,,,,,,,,,4,1.725,0,,,,,,0.372916667,-0.265972222,1,0,0,1.7247,Gabbro_rect,5,0,5,0,1,
5ccc60abe787e000167f8143,SCR,2024-06-20_17h18.45.406,LearnStrategy,2023.2.3,Win32,142.8571429,7,2,7,,,,,,,,1,05,,,,,,,,,,,,,1,1.225,1,,,,,,-0.361805556,-0.249305556,1,0,0,1.2248,Andesite_rect,6,0,6,0,1,
5ccc60abe787e000167f8143,SCR,2024-06-20_17h18.45.406,LearnStrategy,2023.2.3,Win32,142.8571429,7,2,8,,,,,,,,2,08,,,,,,,,,,,,,4,2.815,0,,,,,,0.384027778,-0.247222222,1,0,0,2.8154,Gabbro_rect,7,0,7,0,1,
5ccc60abe787e000167f8143,SCR,2024-06-20_17h18.45.406,LearnStrategy,2023.2.3,Win32,142.8571429,7,2,9,,,,,,,,4,13,,,,,,,,,,,,,1,6.323,0,,,,,,-0.372916667,-0.246527778,1,0,0,6.3228,Andesite_rect,8,0,8,0,1,
5ccc60abe787e000167f8143,SCR,2024-06-20_17h18.45.406,LearnStrategy,2023.2.3,Win32,142.8571429,7,2,10,,,,,,,,3,13,,,,,,,,,,,,,1,5.253,0,,,,,,-0.361805556,-0.24375,1,0,0,5.2528,Andesite_rect,9,0,9,0,1,
5ccc60abe787e000167f8143,SCR,2024-06-20_17h18.45.406,LearnStrategy,2023.2.3,Win32,142.8571429,7,2,11,,,,,,,,6,15,,,,,,,,,,,,,5,3.42,0,,,,,,-0.429166667,-0.386805556,1,0,0,3.4199,Obsidian_rect,10,0,10,0,1,
5ccc60abe787e000167f8143,SCR,2024-06-20_17h18.45.406,LearnStrategy,2023.2.3,Win32,142.8571429,7,2,12,,,,,,,,8,14,,,,,,,,,,,,,8,1.392,1,,,,,,0.345138889,-0.392361111,1,0,0,1.3917,Pumice_rect,11,0,11,0,1,
5ccc60abe787e000167f8143,SCR,2024-06-20_17h18.45.406,LearnStrategy,2023.2.3,Win32,142.8571429,7,2,13,,,,,,,,2,14,,,,,,,,,,,,,8,1.149,0,,,,,,0.316666667,-0.390972222,1,0,0,1.1488,Pumice_rect,12,0,12,0,1,
5ccc60abe787e000167f8143,SCR,2024-06-20_17h18.45.406,LearnStrategy,2023.2.3,Win32,142.8571429,7,2,14,,,,,,,,4,12,,,,,,,,,,,,,3,1.537,0,,,,,,0.134027778,-0.263888889,1,0,0,1.5371,Diorite_rect,13,0,13,0,1,
5ccc60abe787e000167f8143,SCR,2024-06-20_17h18.45.406,LearnStrategy,2023.2.3,Win32,142.8571429,7,2,15,,,,,,,,7,13,,,,,,,,,,,,,1,5.031,0,,,,,,-0.447222222,-0.238194444,1,0,0,5.0309,Andesite_rect,14,0,14,0,1,
5ccc60abe787e000167f8143,SCR,2024-06-20_17h18.45.406,LearnStrategy,2023.2.3,Win32,142.8571429,7,2,16,,,,,,,,8,05,,,,,,,,,,,,,8,1.1,1,,,,,,0.377083333,-0.401388889,1,0,0,1.0997,Pumice_rect,15,0,15,0,1,
5ccc60abe787e000167f8143,SCR,2024-06-20_17h18.45.406,LearnStrategy,2023.2.3,Win32,142.8571429,8,1,1,0.042361111,0.235416667,1,0,0,1.0684,Pegmatite_16,6,16,5,5,1.068,6,16,-0.186805556,-0.392361111,1,0,0,1.8099,Pegmatite_rect,6,1.81,1,0,0,0,0,1,,,,,,,,,,,,,
5ccc60abe787e000167f8143,SCR,2024-06-20_17h18.45.406,LearnStrategy,2023.2.3,Win32,142.8571429,8,1,2,-0.113888889,0.408333333,1,0,0,0.978,Gabbro_08,4,08,6,4,0.978,4,08,0.351388889,-0.414583333,1,0,0,3.2945,Pumice_rect,8,3.294,0,1,0,1,0,1,,,,,,,,,,,,,
5ccc60abe787e000167f8143,SCR,2024-06-20_17h18.45.406,LearnStrategy,2023.2.3,Win32,142.8571429,8,1,3,-0.075694444,-0.384722222,1,0,0,0.8043,Pumice_03,8,03,1,4,0.804,8,03,0.360416667,-0.402083333,1,0,0,2.19,Pumice_rect,8,2.19,1,2,0,2,0,1,,,,,,,,,,,,,
5ccc60abe787e000167f8143,SCR,2024-06-20_17h18.45.406,LearnStrategy,2023.2.3,Win32,142.8571429,8,1,4,-0.527083333,0.426388889,1,0,0,0.9913,Andesite_09,1,09,6,1,0.991,1,09,-0.411805556,-0.386805556,1,0,0,1.5951,Obsidian_rect,5,1.595,0,3,0,3,0,1,,,,,,,,,,,,,
5ccc60abe787e000167f8143,SCR,2024-06-20_17h18.45.406,LearnStrategy,2023.2.3,Win32,142.8571429,8,1,5,0.540277778,-0.238194444,1,0,0,0.8393,Peridotite_06,7,06,2,8,0.839,7,06,-0.428472222,-0.2375,1,0,0,1.0384,Andesite_rect,1,1.038,0,4,0,4,0,1,,,,,,,,,,,,,
5ccc60abe787e000167f8143,SCR,2024-06-20_17h18.45.406,LearnStrategy,2023.2.3,Win32,142.8571429,8,1,6,0.513194444,-0.100694444,1,0,0,0.9363,Pegmatite_09,6,09,3,8,0.936,6,09,0.3875,-0.404166667,1,0,0,0.6345,Pumice_rect,8,0.635,0,5,0,5,0,1,,,,,,,,,,,,,
5ccc60abe787e000167f8143,SCR,2024-06-20_17h18.45.406,LearnStrategy,2023.2.3,Win32,142.8571429,8,1,7,-0.372222222,0.382638889,1,0,0,0.6933,Basalt_05,2,05,6,2,0.693,2,05,-0.389583333,-0.390277778,1,0,0,1.1421,Obsidian_rect,5,1.142,0,6,0,6,0,1,,,,,,,,,,,,,
5ccc60abe787e000167f8143,SCR,2024-06-20_17h18.45.406,LearnStrategy,2023.2.3,Win32,142.8571429,8,1,8,0.495833333,0.236805556,1,0,0,0.7488,Diorite_14,3,14,5,8,0.749,3,14,-0.363194444,-0.25625,1,0,0,1.1416,Andesite_rect,1,1.142,0,7,0,7,0,1,,,,,,,,,,,,,
5ccc60abe787e000167f8143,SCR,2024-06-20_17h18.45.406,LearnStrategy,2023.2.3,Win32,142.8571429,8,1,9,0.243055556,0.372916667,1,0,0,1.2904,Peridotite_02,7,02,6,6,1.29,7,02,-0.370833333,-0.236111111,1,0,0,2.1919,Andesite_rect,1,2.192,0,8,0,8,0,1,,,,,,,,,,,,,
5ccc60abe787e000167f8143,SCR,2024-06-20_17h18.45.406,LearnStrategy,2023.2.3,Win32,142.8571429,8,1,10,0.398611111,0.275694444,1,0,0,0.6448,Basalt_10,2,10,5,7,0.645,2,10,-0.404861111,-0.395833333,1,0,0,1.0624,Obsidian_rect,5,1.062,0,9,0,9,0,1,,,,,,,,,,,,,
5ccc60abe787e000167f8143,SCR,2024-06-20_17h18.45.406,LearnStrategy,2023.2.3,Win32,142.8571429,8,1,11,0.36875,0.400694444,1,0,0,0.6999,Gabbro_10,4,10,6,7,0.7,4,10,0.401388889,-0.4,1,0,0,1.2248,Pumice_rect,8,1.225,0,10,0,10,0,1,,,,,,,,,,,,,
5ccc60abe787e000167f8143,SCR,2024-06-20_17h18.45.406,LearnStrategy,2023.2.3,Win32,142.8571429,8,1,12,-0.078472222,0.243055556,1,0,0,0.5544,Gabbro_09,4,09,5,4,0.554,4,09,0.3875,-0.255555556,1,0,0,2.3361,Gabbro_rect,4,2.336,1,11,0,11,0,1,,,,,,,,,,,,,
5ccc60abe787e000167f8143,SCR,2024-06-20_17h18.45.406,LearnStrategy,2023.2.3,Win32,142.8571429,8,1,13,-0.581944444,-0.098611111,1,0,0,1.2553,Andesite_10,1,10,3,1,1.255,1,10,0.327083333,-0.399305556,1,0,0,1.5579,Pumice_rect,8,1.558,0,12,0,12,0,1,,,,,,,,,,,,,
5ccc60abe787e000167f8143,SCR,2024-06-20_17h18.45.406,LearnStrategy,2023.2.3,Win32,142.8571429,8,1,14,-0.252777778,0.365972222,1,0,0,1.0541,Diorite_09,3,09,6,3,1.054,3,09,0.118055556,-0.401388889,1,0,0,3.1759,Peridotite_rect,7,3.176,0,13,0,13,0,1,,,,,,,,,,,,,
5ccc60abe787e000167f8143,SCR,2024-06-20_17h18.45.406,LearnStrategy,2023.2.3,Win32,142.8571429,8,1,15,0.05625,-0.070833333,1,0,0,0.8113,Peridotite_04,7,04,3,5,0.811,7,04,0.094444444,-0.250694444,1,0,0,1.0537,Diorite_rect,3,1.054,0,14,0,14,0,1,,,,,,,,,,,,,
5ccc60abe787e000167f8143,SCR,2024-06-20_17h18.45.406,LearnStrategy,2023.2.3,Win32,142.8571429,8,1,16,-0.354861111,-0.261805556,1,0,0,1.228,Diorite_16,3,16,2,2,1.228,3,16,-0.102777778,-0.411111111,1,0,0,3.1069,Pegmatite_rect,6,3.107,0,15,0,15,0,1,,,,,,,,,,,,,
5ccc60abe787e000167f8143,SCR,2024-06-20_17h18.45.406,LearnStrategy,2023.2.3,Win32,142.8571429,8,2,1,,,,,,,,2,11,,,,,,,,,,,,,8,1.58,0,,,,,,0.328472222,-0.391666667,1,0,0,1.5796,Pumice_rect,0,0,0,0,1,
5ccc60abe787e000167f8143,SCR,2024-06-20_17h18.45.406,LearnStrategy,2023.2.3,Win32,142.8571429,8,2,2,,,,,,,,5,16,,,,,,,,,,,,,5,1.718,1,,,,,,-0.475,-0.386805556,1,0,0,1.718,Obsidian_rect,1,0,1,0,1,
5ccc60abe787e000167f8143,SCR,2024-06-20_17h18.45.406,LearnStrategy,2023.2.3,Win32,142.8571429,8,2,3,,,,,,,,1,07,,,,,,,,,,,,,1,2.621,1,,,,,,-0.381944444,-0.261805556,1,0,0,2.6208,Andesite_rect,2,0,2,0,1,
5ccc60abe787e000167f8143,SCR,2024-06-20_17h18.45.406,LearnStrategy,2023.2.3,Win32,142.8571429,8,2,4,,,,,,,,7,16,,,,,,,,,,,,,3,3.017,0,,,,,,0.172222222,-0.25625,1,0,0,3.0168,Diorite_rect,3,0,3,0,1,
5ccc60abe787e000167f8143,SCR,2024-06-20_17h18.45.406,LearnStrategy,2023.2.3,Win32,142.8571429,8,2,5,,,,,,,,8,15,,,,,,,,,,,,,8,1.01,1,,,,,,0.340277778,-0.402083333,1,0,0,1.0097,Pumice_rect,4,0,4,0,1,
5ccc60abe787e000167f8143,SCR,2024-06-20_17h18.45.406,LearnStrategy,2023.2.3,Win32,142.8571429,8,2,6,,,,,,,,3,10,,,,,,,,,,,,,1,1.336,0,,,,,,-0.340972222,-0.247916667,1,0,0,1.336,Andesite_rect,5,0,5,0,1,
5ccc60abe787e000167f8143,SCR,2024-06-20_17h18.45.406,LearnStrategy,2023.2.3,Win32,142.8571429,8,2,7,,,,,,,,4,16,,,,,,,,,,,,,2,2.107,0,,,,,,-0.140277778,-0.235416667,1,0,0,2.1073,Basalt_rect,6,0,6,0,1,
5ccc60abe787e000167f8143,SCR,2024-06-20_17h18.45.406,LearnStrategy,2023.2.3,Win32,142.8571429,8,2,8,,,,,,,,4,15,,,,,,,,,,,,,3,2.065,0,,,,,,0.061111111,-0.270833333,1,0,0,2.0655,Diorite_rect,7,0,7,0,1,
5ccc60abe787e000167f8143,SCR,2024-06-20_17h18.45.406,LearnStrategy,2023.2.3,Win32,142.8571429,8,2,9,,,,,,,,7,14,,,,,,,,,,,,,4,1.238,0,,,,,,0.325,-0.263888889,1,0,0,1.2384,Gabbro_rect,8,0,8,0,1,
5ccc60abe787e000167f8143,SCR,2024-06-20_17h18.45.406,LearnStrategy,2023.2.3,Win32,142.8571429,8,2,10,,,,,,,,3,02,,,,,,,,,,,,,7,2.309,0,,,,,,0.0375,-0.395138889,1,0,0,2.3087,Peridotite_rect,9,0,9,0,1,
5ccc60abe787e000167f8143,SCR,2024-06-20_17h18.45.406,LearnStrategy,2023.2.3,Win32,142.8571429,8,2,11,,,,,,,,1,02,,,,,,,,,,,,,4,3.517,0,,,,,,0.316666667,-0.270833333,1,0,0,3.5171,Gabbro_rect,10,0,10,0,1,
5ccc60abe787e000167f8143,SCR,2024-06-20_17h18.45.406,LearnStrategy,2023.2.3,Win32,142.8571429,8,2,12,,,,,,,,6,13,,,,,,,,,,,,,6,3.274,1,,,,,,-0.096527778,-0.383333333,1,0,0,3.2739,Pegmatite_rect,11,0,11,0,1,
5ccc60abe787e000167f8143,SCR,2024-06-20_17h18.45.406,LearnStrategy,2023.2.3,Win32,142.8571429,8,2,13,,,,,,,,2,12,,,,,,,,,,,,,8,1.422,0,,,,,,0.309027778,-0.390277778,1,0,0,1.4219,Pumice_rect,12,0,12,0,1,
5ccc60abe787e000167f8143,SCR,2024-06-20_17h18.45.406,LearnStrategy,2023.2.3,Win32,142.8571429,8,2,14,,,,,,,,6,06,,,,,,,,,,,,,1,2.24,0,,,,,,-0.350694444,-0.23125,1,0,0,2.2399,Andesite_rect,13,0,13,0,1,
5ccc60abe787e000167f8143,SCR,2024-06-20_17h18.45.406,LearnStrategy,2023.2.3,Win32,142.8571429,8,2,15,,,,,,,,8,02,,,,,,,,,,,,,8,1.635,1,,,,,,0.327777778,-0.379166667,1,0,0,1.635,Pumice_rect,14,0,14,0,1,
5ccc60abe787e000167f8143,SCR,2024-06-20_17h18.45.406,LearnStrategy,2023.2.3,Win32,142.8571429,8,2,16,,,,,,,,5,06,,,,,,,,,,,,,5,1.315,1,,,,,,-0.415277778,-0.395138889,1,0,0,1.3153,Obsidian_rect,15,0,15,0,1,
5ccc60abe787e000167f8143,SCR,2024-06-20_17h18.45.406,LearnStrategy,2023.2.3,Win32,142.8571429,9,1,1,0.089583333,-0.432638889,1,0,0,1.0617,Pegmatite_11,6,11,1,5,1.062,6,11,-0.110416667,-0.407638889,1,0,0,5.5023,Pegmatite_rect,6,5.502,1,0,0,0,0,1,,,,,,,,,,,,,
5ccc60abe787e000167f8143,SCR,2024-06-20_17h18.45.406,LearnStrategy,2023.2.3,Win32,142.8571429,9,1,2,-0.286805556,-0.458333333,1,0,0,0.6029,Diorite_12,3,12,1,3,0.603,3,12,0.355555556,-0.41875,1,0,0,1.3919,Pumice_rect,8,1.392,0,1,0,1,0,1,,,,,,,,,,,,,
5ccc60abe787e000167f8143,SCR,2024-06-20_17h18.45.406,LearnStrategy,2023.2.3,Win32,142.8571429,9,1,3,0.511805556,-0.078472222,1,0,0,0.8392,Pegmatite_09,6,09,3,8,0.839,6,09,0.09375,-0.247222222,1,0,0,1.447,Diorite_rect,3,1.447,0,2,0,2,0,1,,,,,,,,,,,,,
5ccc60abe787e000167f8143,SCR,2024-06-20_17h18.45.406,LearnStrategy,2023.2.3,Win32,142.8571429,9,1,4,0.052083333,-0.088888889,1,0,0,0.485,Peridotite_04,7,04,3,5,0.485,7,04,0.153472222,-0.259722222,1,0,0,3.3984,Diorite_rect,3,3.398,0,3,0,3,0,1,,,,,,,,,,,,,
5ccc60abe787e000167f8143,SCR,2024-06-20_17h18.45.406,LearnStrategy,2023.2.3,Win32,142.8571429,9,1,5,0.505555556,-0.225694444,1,0,0,0.8182,Peridotite_06,7,06,2,8,0.818,7,06,0.113194444,-0.386111111,1,0,0,1.3314,Peridotite_rect,7,1.331,1,4,0,4,0,1,,,,,,,,,,,,,
5ccc60abe787e000167f8143,SCR,2024-06-20_17h18.45.406,LearnStrategy,2023.2.3,Win32,142.8571429,9,1,6,0.515277778,-0.388194444,1,0,0,0.7555,Gabbro_05,4,05,1,8,0.756,4,05,-0.084722222,-0.249305556,1,0,0,2.1769,Basalt_rect,2,2.177,0,5,0,5,0,1,,,,,,,,,,,,,
5ccc60abe787e000167f8143,SCR,2024-06-20_17h18.45.406,LearnStrategy,2023.2.3,Win32,142.8571429,9,1,7,-0.392361111,0.379166667,1,0,0,0.8463,Basalt_05,2,05,6,2,0.846,2,05,-0.14375,-0.238888889,1,0,0,2.3008,Basalt_rect,2,2.301,1,6,0,6,0,1,,,,,,,,,,,,,
5ccc60abe787e000167f8143,SCR,2024-06-20_17h18.45.406,LearnStrategy,2023.2.3,Win32,142.8571429,9,1,8,0.593055556,0.396527778,1,0,0,0.7349,Gabbro_03,4,03,6,8,0.735,4,03,-0.338194444,-0.238888889,1,0,0,3.1554,Andesite_rect,1,3.155,0,7,0,7,0,1,,,,,,,,,,,,,
5ccc60abe787e000167f8143,SCR,2024-06-20_17h18.45.406,LearnStrategy,2023.2.3,Win32,142.8571429,9,1,9,-0.536111111,-0.109722222,1,0,0,0.971,Andesite_10,1,10,3,1,0.971,1,10,0.294444444,-0.385416667,1,0,0,1.6842,Pumice_rect,8,1.684,0,8,0,8,0,1,,,,,,,,,,,,,
5ccc60abe787e000167f8143,SCR,2024-06-20_17h18.45.406,LearnStrategy,2023.2.3,Win32,142.8571429,9,1,10,0.347916667,-0.411111111,1,0,0,0.7767,Peridotite_10,7,10,1,7,0.777,7,10,0.080555556,-0.402083333,1,0,0,2.6555,Peridotite_rect,7,2.656,1,9,0,9,0,1,,,,,,,,,,,,,
5ccc60abe787e000167f8143,SCR,2024-06-20_17h18.45.406,LearnStrategy,2023.2.3,Win32,142.8571429,9,1,11,-0.107638889,0.406944444,1,0,0,0.6031,Gabbro_08,4,08,6,4,0.603,4,08,0.31875,-0.243055556,1,0,0,2.0588,Gabbro_rect,4,2.059,1,10,0,10,0,1,,,,,,,,,,,,,
5ccc60abe787e000167f8143,SCR,2024-06-20_17h18.45.406,LearnStrategy,2023.2.3,Win32,142.8571429,9,1,12,-0.354861111,-0.288888889,1,0,0,0.8113,Diorite_16,3,16,2,2,0.811,3,16,-0.352777778,-0.245138889,1,0,0,1.5307,Andesite_rect,1,1.531,0,11,0,11,0,1,,,,,,,,,,,,,
5ccc60abe787e000167f8143,SCR,2024-06-20_17h18.45.406,LearnStrategy,2023.2.3,Win32,142.8571429,9,1,13,-0.496527778,-0.276388889,1,0,0,1.0705,Andesite_16,1,16,2,1,1.071,1,16,-0.341666667,-0.24375,1,0,0,0.8965,Andesite_rect,1,0.897,1,12,0,12,0,1,,,,,,,,,,,,,
5ccc60abe787e000167f8143,SCR,2024-06-20_17h18.45.406,LearnStrategy,2023.2.3,Win32,142.8571429,9,1,14,-0.202777778,-0.382638889,1,0,0,0.8114,Diorite_12,3,12,1,3,0.811,3,12,-0.329166667,-0.269444444,1,0,0,1.2413,Andesite_rect,1,1.241,0,13,0,13,0,1,,,,,,,,,,,,,
5ccc60abe787e000167f8143,SCR,2024-06-20_17h18.45.406,LearnStrategy,2023.2.3,Win32,142.8571429,9,1,15,0.355555556,-0.093055556,1,0,0,0.9502,Basalt_02,2,02,3,7,0.95,2,02,-0.15625,-0.259722222,1,0,0,2.2944,Basalt_rect,2,2.294,1,14,0,14,0,1,,,,,,,,,,,,,
5ccc60abe787e000167f8143,SCR,2024-06-20_17h18.45.406,LearnStrategy,2023.2.3,Win32,142.8571429,9,1,16,-0.347916667,0.3875,1,0,0,0.8947,Basalt_05,2,05,6,2,0.895,2,05,-0.096527778,-0.239583333,1,0,0,0.8571,Basalt_rect,2,0.857,1,15,0,15,0,1,,,,,,,,,,,,,
5ccc60abe787e000167f8143,SCR,2024-06-20_17h18.45.406,LearnStrategy,2023.2.3,Win32,142.8571429,9,2,1,,,,,,,,3,06,,,,,,,,,,,,,4,2.684,0,,,,,,0.327777778,-0.246527778,1,0,0,2.6837,Gabbro_rect,0,0,0,0,1,
5ccc60abe787e000167f8143,SCR,2024-06-20_17h18.45.406,LearnStrategy,2023.2.3,Win32,142.8571429,9,2,2,,,,,,,,8,09,,,,,,,,,,,,,8,1.141,1,,,,,,0.338194444,-0.38125,1,0,0,1.1415,Pumice_rect,1,0,1,0,1,
5ccc60abe787e000167f8143,SCR,2024-06-20_17h18.45.406,LearnStrategy,2023.2.3,Win32,142.8571429,9,2,3,,,,,,,,5,10,,,,,,,,,,,,,5,1.642,1,,,,,,-0.365277778,-0.388194444,1,0,0,1.642,Obsidian_rect,2,0,2,0,1,
5ccc60abe787e000167f8143,SCR,2024-06-20_17h18.45.406,LearnStrategy,2023.2.3,Win32,142.8571429,9,2,4,,,,,,,,1,11,,,,,,,,,,,,,1,3.864,1,,,,,,-0.395138889,-0.250694444,1,0,0,3.8644,Andesite_rect,3,0,3,0,1,
5ccc60abe787e000167f8143,SCR,2024-06-20_17h18.45.406,LearnStrategy,2023.2.3,Win32,142.8571429,9,2,5,,,,,,,,3,07,,,,,,,,,,,,,7,2.378,0,,,,,,0.090972222,-0.419444444,1,0,0,2.3777,Peridotite_rect,4,0,4,0,1,
5ccc60abe787e000167f8143,SCR,2024-06-20_17h18.45.406,LearnStrategy,2023.2.3,Win32,142.8571429,9,2,6,,,,,,,,6,08,,,,,,,,,,,,,7,5.996,0,,,,,,0.146527778,-0.417361111,1,0,0,5.9961,Peridotite_rect,5,0,5,0,1,
5ccc60abe787e000167f8143,SCR,2024-06-20_17h18.45.406,LearnStrategy,2023.2.3,Win32,142.8571429,9,2,7,,,,,,,,8,04,,,,,,,,,,,,,8,0.767,1,,,,,,0.342361111,-0.381944444,1,0,0,0.7667,Pumice_rect,6,0,6,0,1,
5ccc60abe787e000167f8143,SCR,2024-06-20_17h18.45.406,LearnStrategy,2023.2.3,Win32,142.8571429,9,2,8,,,,,,,,4,11,,,,,,,,,,,,,3,4.685,0,,,,,,0.117361111,-0.234722222,1,0,0,4.6853,Diorite_rect,7,0,7,0,1,
5ccc60abe787e000167f8143,SCR,2024-06-20_17h18.45.406,LearnStrategy,2023.2.3,Win32,142.8571429,9,2,9,,,,,,,,7,12,,,,,,,,,,,,,5,1.711,0,,,,,,-0.341666667,-0.404166667,1,0,0,1.7113,Obsidian_rect,8,0,8,0,1,
5ccc60abe787e000167f8143,SCR,2024-06-20_17h18.45.406,LearnStrategy,2023.2.3,Win32,142.8571429,9,2,10,,,,,,,,2,04,,,,,,,,,,,,,2,1.878,1,,,,,,-0.132638889,-0.24375,1,0,0,1.8779,Basalt_rect,9,0,9,0,1,
5ccc60abe787e000167f8143,SCR,2024-06-20_17h18.45.406,LearnStrategy,2023.2.3,Win32,142.8571429,9,2,11,,,,,,,,2,06,,,,,,,,,,,,,2,1.239,1,,,,,,-0.132638889,-0.24375,1,0,0,1.2392,Basalt_rect,10,0,10,0,1,
5ccc60abe787e000167f8143,SCR,2024-06-20_17h18.45.406,LearnStrategy,2023.2.3,Win32,142.8571429,9,2,12,,,,,,,,5,08,,,,,,,,,,,,,5,1.051,1,,,,,,-0.354861111,-0.395138889,1,0,0,1.0513,Obsidian_rect,11,0,11,0,1,
5ccc60abe787e000167f8143,SCR,2024-06-20_17h18.45.406,LearnStrategy,2023.2.3,Win32,142.8571429,9,2,13,,,,,,,,4,01,,,,,,,,,,,,,3,2.697,0,,,,,,0.236805556,-0.25625,1,0,0,2.6975,Diorite_rect,12,0,12,0,1,
5ccc60abe787e000167f8143,SCR,2024-06-20_17h18.45.406,LearnStrategy,2023.2.3,Win32,142.8571429,9,2,14,,,,,,,,6,10,,,,,,,,,,,,,6,2.044,1,,,,,,-0.109722222,-0.402083333,1,0,0,2.0441,Pegmatite_rect,13,0,13,0,1,
5ccc60abe787e000167f8143,SCR,2024-06-20_17h18.45.406,LearnStrategy,2023.2.3,Win32,142.8571429,9,2,15,,,,,,,,7,08,,,,,,,,,,,,,1,5.649,0,,,,,,-0.347222222,-0.257638889,1,0,0,5.6489,Andesite_rect,14,0,14,0,1,
5ccc60abe787e000167f8143,SCR,2024-06-20_17h18.45.406,LearnStrategy,2023.2.3,Win32,142.8571429,9,2,16,,,,,,,,1,14,,,,,,,,,,,,,1,2.142,1,,,,,,-0.375694444,-0.265972222,1,0,0,2.1423,Andesite_rect,15,0,15,0,1,
5ccc60abe787e000167f8143,SCR,2024-06-20_17h18.45.406,LearnStrategy,2023.2.3,Win32,142.8571429,,,,,,,,,,,,,,,,,,,,,,,,,,,,,,,,,,,,,,,,,,,,,0
5ccc60abe787e000167f8143,SCR,2024-06-20_17h18.45.406,LearnStrategy,2023.2.3,Win32,142.8571429,,,,,,,,,,,,,,,,,,,,,,,,,,,,,,,,,,,,,,,,,,,,,
5ccc60abe787e000167f8143,SCR,2024-06-20_17h18.45.406,LearnStrategy,2023.2.3,Win32,142.8571429,,,,,,,,,,,5,07,1,1,,,,,,,,,,,,,,,,,,,,,,,,,,,,,,,
5ccc60abe787e000167f8143,SCR,2024-06-20_17h18.45.406,LearnStrategy,2023.2.3,Win32,142.8571429,,,,,,,,,,,1,03,1,2,,,,,,,,,,,,,,,,,,,,,,,,,,,,,,,
5ccc60abe787e000167f8143,SCR,2024-06-20_17h18.45.406,LearnStrategy,2023.2.3,Win32,142.8571429,,,,,,,,,,,3,12,1,3,,,,,,,,,,,,,,,,,,,,,,,,,,,,,,,
5ccc60abe787e000167f8143,SCR,2024-06-20_17h18.45.406,LearnStrategy,2023.2.3,Win32,142.8571429,,,,,,,,,,,8,03,1,4,,,,,,,,,,,,,,,,,,,,,,,,,,,,,,,
5ccc60abe787e000167f8143,SCR,2024-06-20_17h18.45.406,LearnStrategy,2023.2.3,Win32,142.8571429,,,,,,,,,,,6,11,1,5,,,,,,,,,,,,,,,,,,,,,,,,,,,,,,,
5ccc60abe787e000167f8143,SCR,2024-06-20_17h18.45.406,LearnStrategy,2023.2.3,Win32,142.8571429,,,,,,,,,,,8,08,1,6,,,,,,,,,,,,,,,,,,,,,,,,,,,,,,,
5ccc60abe787e000167f8143,SCR,2024-06-20_17h18.45.406,LearnStrategy,2023.2.3,Win32,142.8571429,,,,,,,,,,,7,10,1,7,,,,,,,,,,,,,,,,,,,,,,,,,,,,,,,
5ccc60abe787e000167f8143,SCR,2024-06-20_17h18.45.406,LearnStrategy,2023.2.3,Win32,142.8571429,,,,,,,,,,,4,05,1,8,,,,,,,,,,,,,,,,,,,,,,,,,,,,,,,
5ccc60abe787e000167f8143,SCR,2024-06-20_17h18.45.406,LearnStrategy,2023.2.3,Win32,142.8571429,,,,,,,,,,,1,16,2,1,,,,,,,,,,,,,,,,,,,,,,,,,,,,,,,
5ccc60abe787e000167f8143,SCR,2024-06-20_17h18.45.406,LearnStrategy,2023.2.3,Win32,142.8571429,,,,,,,,,,,3,16,2,2,,,,,,,,,,,,,,,,,,,,,,,,,,,,,,,
5ccc60abe787e000167f8143,SCR,2024-06-20_17h18.45.406,LearnStrategy,2023.2.3,Win32,142.8571429,,,,,,,,,,,5,02,2,3,,,,,,,,,,,,,,,,,,,,,,,,,,,,,,,
5ccc60abe787e000167f8143,SCR,2024-06-20_17h18.45.406,LearnStrategy,2023.2.3,Win32,142.8571429,,,,,,,,,,,7,05,2,4,,,,,,,,,,,,,,,,,,,,,,,,,,,,,,,
5ccc60abe787e000167f8143,SCR,2024-06-20_17h18.45.406,LearnStrategy,2023.2.3,Win32,142.8571429,,,,,,,,,,,3,08,2,5,,,,,,,,,,,,,,,,,,,,,,,,,,,,,,,
5ccc60abe787e000167f8143,SCR,2024-06-20_17h18.45.406,LearnStrategy,2023.2.3,Win32,142.8571429,,,,,,,,,,,1,06,2,6,,,,,,,,,,,,,,,,,,,,,,,,,,,,,,,
5ccc60abe787e000167f8143,SCR,2024-06-20_17h18.45.406,LearnStrategy,2023.2.3,Win32,142.8571429,,,,,,,,,,,5,04,2,7,,,,,,,,,,,,,,,,,,,,,,,,,,,,,,,
5ccc60abe787e000167f8143,SCR,2024-06-20_17h18.45.406,LearnStrategy,2023.2.3,Win32,142.8571429,,,,,,,,,,,7,06,2,8,,,,,,,,,,,,,,,,,,,,,,,,,,,,,,,
5ccc60abe787e000167f8143,SCR,2024-06-20_17h18.45.406,LearnStrategy,2023.2.3,Win32,142.8571429,,,,,,,,,,,1,10,3,1,,,,,,,,,,,,,,,,,,,,,,,,,,,,,,,
5ccc60abe787e000167f8143,SCR,2024-06-20_17h18.45.406,LearnStrategy,2023.2.3,Win32,142.8571429,,,,,,,,,,,6,03,3,2,,,,,,,,,,,,,,,,,,,,,,,,,,,,,,,
5ccc60abe787e000167f8143,SCR,2024-06-20_17h18.45.406,LearnStrategy,2023.2.3,Win32,142.8571429,,,,,,,,,,,2,16,3,3,,,,,,,,,,,,,,,,,,,,,,,,,,,,,,,
5ccc60abe787e000167f8143,SCR,2024-06-20_17h18.45.406,LearnStrategy,2023.2.3,Win32,142.8571429,,,,,,,,,,,5,11,3,4,,,,,,,,,,,,,,,,,,,,,,,,,,,,,,,
5ccc60abe787e000167f8143,SCR,2024-06-20_17h18.45.406,LearnStrategy,2023.2.3,Win32,142.8571429,,,,,,,,,,,7,04,3,5,,,,,,,,,,,,,,,,,,,,,,,,,,,,,,,
5ccc60abe787e000167f8143,SCR,2024-06-20_17h18.45.406,LearnStrategy,2023.2.3,Win32,142.8571429,,,,,,,,,,,3,15,3,6,,,,,,,,,,,,,,,,,,,,,,,,,,,,,,,
5ccc60abe787e000167f8143,SCR,2024-06-20_17h18.45.406,LearnStrategy,2023.2.3,Win32,142.8571429,,,,,,,,,,,2,02,3,7,,,,,,,,,,,,,,,,,,,,,,,,,,,,,,,
5ccc60abe787e000167f8143,SCR,2024-06-20_17h18.45.406,LearnStrategy,2023.2.3,Win32,142.8571429,,,,,,,,,,,6,09,3,8,,,,,,,,,,,,,,,,,,,,,,,,,,,,,,,
5ccc60abe787e000167f8143,SCR,2024-06-20_17h18.45.406,LearnStrategy,2023.2.3,Win32,142.8571429,,,,,,,,,,,2,09,4,1,,,,,,,,,,,,,,,,,,,,,,,,,,,,,,,
5ccc60abe787e000167f8143,SCR,2024-06-20_17h18.45.406,LearnStrategy,2023.2.3,Win32,142.8571429,,,,,,,,,,,6,05,4,2,,,,,,,,,,,,,,,,,,,,,,,,,,,,,,,
5ccc60abe787e000167f8143,SCR,2024-06-20_17h18.45.406,LearnStrategy,2023.2.3,Win32,142.8571429,,,,,,,,,,,5,14,4,3,,,,,,,,,,,,,,,,,,,,,,,,,,,,,,,
5ccc60abe787e000167f8143,SCR,2024-06-20_17h18.45.406,LearnStrategy,2023.2.3,Win32,142.8571429,,,,,,,,,,,5,05,4,4,,,,,,,,,,,,,,,,,,,,,,,,,,,,,,,
5ccc60abe787e000167f8143,SCR,2024-06-20_17h18.45.406,LearnStrategy,2023.2.3,Win32,142.8571429,,,,,,,,,,,4,14,4,5,,,,,,,,,,,,,,,,,,,,,,,,,,,,,,,
5ccc60abe787e000167f8143,SCR,2024-06-20_17h18.45.406,LearnStrategy,2023.2.3,Win32,142.8571429,,,,,,,,,,,6,07,4,6,,,,,,,,,,,,,,,,,,,,,,,,,,,,,,,
5ccc60abe787e000167f8143,SCR,2024-06-20_17h18.45.406,LearnStrategy,2023.2.3,Win32,142.8571429,,,,,,,,,,,7,15,4,7,,,,,,,,,,,,,,,,,,,,,,,,,,,,,,,
5ccc60abe787e000167f8143,SCR,2024-06-20_17h18.45.406,LearnStrategy,2023.2.3,Win32,142.8571429,,,,,,,,,,,8,06,4,8,,,,,,,,,,,,,,,,,,,,,,,,,,,,,,,
5ccc60abe787e000167f8143,SCR,2024-06-20_17h18.45.406,LearnStrategy,2023.2.3,Win32,142.8571429,,,,,,,,,,,1,01,5,1,,,,,,,,,,,,,,,,,,,,,,,,,,,,,,,
5ccc60abe787e000167f8143,SCR,2024-06-20_17h18.45.406,LearnStrategy,2023.2.3,Win32,142.8571429,,,,,,,,,,,8,13,5,2,,,,,,,,,,,,,,,,,,,,,,,,,,,,,,,
5ccc60abe787e000167f8143,SCR,2024-06-20_17h18.45.406,LearnStrategy,2023.2.3,Win32,142.8571429,,,,,,,,,,,8,10,5,3,,,,,,,,,,,,,,,,,,,,,,,,,,,,,,,
5ccc60abe787e000167f8143,SCR,2024-06-20_17h18.45.406,LearnStrategy,2023.2.3,Win32,142.8571429,,,,,,,,,,,4,09,5,4,,,,,,,,,,,,,,,,,,,,,,,,,,,,,,,
5ccc60abe787e000167f8143,SCR,2024-06-20_17h18.45.406,LearnStrategy,2023.2.3,Win32,142.8571429,,,,,,,,,,,6,16,5,5,,,,,,,,,,,,,,,,,,,,,,,,,,,,,,,
5ccc60abe787e000167f8143,SCR,2024-06-20_17h18.45.406,LearnStrategy,2023.2.3,Win32,142.8571429,,,,,,,,,,,2,01,5,6,,,,,,,,,,,,,,,,,,,,,,,,,,,,,,,
5ccc60abe787e000167f8143,SCR,2024-06-20_17h18.45.406,LearnStrategy,2023.2.3,Win32,142.8571429,,,,,,,,,,,2,10,5,7,,,,,,,,,,,,,,,,,,,,,,,,,,,,,,,
5ccc60abe787e000167f8143,SCR,2024-06-20_17h18.45.406,LearnStrategy,2023.2.3,Win32,142.8571429,,,,,,,,,,,3,14,5,8,,,,,,,,,,,,,,,,,,,,,,,,,,,,,,,
5ccc60abe787e000167f8143,SCR,2024-06-20_17h18.45.406,LearnStrategy,2023.2.3,Win32,142.8571429,,,,,,,,,,,1,09,6,1,,,,,,,,,,,,,,,,,,,,,,,,,,,,,,,
5ccc60abe787e000167f8143,SCR,2024-06-20_17h18.45.406,LearnStrategy,2023.2.3,Win32,142.8571429,,,,,,,,,,,2,05,6,2,,,,,,,,,,,,,,,,,,,,,,,,,,,,,,,
5ccc60abe787e000167f8143,SCR,2024-06-20_17h18.45.406,LearnStrategy,2023.2.3,Win32,142.8571429,,,,,,,,,,,3,09,6,3,,,,,,,,,,,,,,,,,,,,,,,,,,,,,,,
5ccc60abe787e000167f8143,SCR,2024-06-20_17h18.45.406,LearnStrategy,2023.2.3,Win32,142.8571429,,,,,,,,,,,4,08,6,4,,,,,,,,,,,,,,,,,,,,,,,,,,,,,,,
5ccc60abe787e000167f8143,SCR,2024-06-20_17h18.45.406,LearnStrategy,2023.2.3,Win32,142.8571429,,,,,,,,,,,8,16,6,5,,,,,,,,,,,,,,,,,,,,,,,,,,,,,,,
5ccc60abe787e000167f8143,SCR,2024-06-20_17h18.45.406,LearnStrategy,2023.2.3,Win32,142.8571429,,,,,,,,,,,7,02,6,6,,,,,,,,,,,,,,,,,,,,,,,,,,,,,,,
5ccc60abe787e000167f8143,SCR,2024-06-20_17h18.45.406,LearnStrategy,2023.2.3,Win32,142.8571429,,,,,,,,,,,4,10,6,7,,,,,,,,,,,,,,,,,,,,,,,,,,,,,,,
5ccc60abe787e000167f8143,SCR,2024-06-20_17h18.45.406,LearnStrategy,2023.2.3,Win32,142.8571429,,,,,,,,,,,4,03,6,8,,,,,,,,,,,,,,,,,,,,,,,,,,,,,,,