participant,condition,date,expName,psychopyVersion,OS,frameRate,block,phase,trial,learn_mouse.x,learn_mouse.y,learn_mouse.leftButton,learn_mouse.midButton,learn_mouse.rightButton,learn_mouse.time,learn_mouse.clicked_name,cat,token,row,col,t_select,cat_rec,token_rec,cat_mouse_l.x,cat_mouse_l.y,cat_mouse_l.leftButton,cat_mouse_l.midButton,cat_mouse_l.rightButton,cat_mouse_l.time,cat_mouse_l.clicked_name,resp,t_resp,corr,train_trials.thisRepN,train_trials.thisTrialN,train_trials.thisN,train_trials.thisIndex,train_trials.ran,cat_mouse_t.x,cat_mouse_t.y,cat_mouse_t.leftButton,cat_mouse_t.midButton,cat_mouse_t.rightButton,cat_mouse_t.time,cat_mouse_t.clicked_name,test_trials.thisRepN,test_trials.thisTrialN,test_trials.thisN,test_trials.thisIndex,test_trials.ran
5cf6150ce42af100015a90c4,SCR,2024-06-10_12h07.51.423,LearnStrategy,2023.2.3,Win32,2.608242045,,,,,,,,,,,,,,,,,,,,,,,,,,,,,,,,,,,,,,,,,,,,
5cf6150ce42af100015a90c4,SCR,2024-06-10_12h07.51.423,LearnStrategy,2023.2.3,Win32,2.608242045,1,1,1,-0.375384267,0.122208195,1,0,0,8.191,Pegmatite_09,6,09,4,2,8.191,2,02,-0.360568896,-0.239842133,1,0,0,12.824,Andesite_rect,1,12.824,0,0,0,0,0,1,,,,,,,,,,,,
5cf6150ce42af100015a90c4,SCR,2024-06-10_12h07.51.423,LearnStrategy,2023.2.3,Win32,2.608242045,1,1,2,0.214452283,-0.250027748,1,0,0,11.041,Obsidian_10,5,10,2,6,11.041,4,05,-0.351309331,-0.391699762,1,0,0,3.765,Obsidian_rect,5,3.765,1,1,0,1,0,1,,,,,,,,,,,,
5cf6150ce42af100015a90c4,SCR,2024-06-10_12h07.51.423,LearnStrategy,2023.2.3,Win32,2.608242045,1,1,3,0.57928068,-0.253731619,1,0,0,13.895,Andesite_10,1,10,2,8,13.895,1,10,0.133893852,-0.393551586,1,0,0,12.361,Peridotite_rect,7,12.361,0,2,0,2,0,1,,,,,,,,,,,,
5cf6150ce42af100015a90c4,SCR,2024-06-10_12h07.51.423,LearnStrategy,2023.2.3,Win32,2.608242045,1,1,4,-0.385569827,-0.06576167,1,0,0,3.952,Diorite_07,3,07,3,2,3.952,6,12,0.385755037,-0.416700692,1,0,0,8.702,Pumice_rect,8,8.702,0,3,0,3,0,1,,,,,,,,,,,,
5cf6150ce42af100015a90c4,SCR,2024-06-10_12h07.51.423,LearnStrategy,2023.2.3,Win32,2.608242045,1,1,5,0.074632371,0.274065713,1,0,0,19.389,Diorite_11,3,11,5,5,19.389,2,11,0.157042792,-0.236138373,1,0,0,9.155,Diorite_rect,3,9.155,1,4,0,4,0,1,,,,,,,,,,,,
5cf6150ce42af100015a90c4,SCR,2024-06-10_12h07.51.423,LearnStrategy,2023.2.3,Win32,2.608242045,1,1,6,0.57465087,-0.419478567,1,0,0,13.412,Andesite_11,1,11,1,8,13.412,6,15,0.408903866,-0.418552516,1,0,0,5.65,Pumice_rect,8,5.65,0,5,0,5,0,1,,,,,,,,,,,,
5cf6150ce42af100015a90c4,SCR,2024-06-10_12h07.51.423,LearnStrategy,2023.2.3,Win32,2.608242045,1,1,7,-0.5309456,-0.100022221,1,0,0,14.255,Pumice_09,8,09,3,1,14.255,7,08,0.455202189,-0.391699762,1,0,0,3.85,Pumice_rect,8,3.85,1,6,0,6,0,1,,,,,,,,,,,,
5cf6150ce42af100015a90c4,SCR,2024-06-10_12h07.51.423,LearnStrategy,2023.2.3,Win32,2.608242045,1,1,8,-0.214267239,-0.408366901,1,0,0,7.367,Peridotite_05,7,05,1,3,7.367,3,07,0.111670742,-0.387069896,1,0,0,5.657,Peridotite_rect,7,5.657,1,7,0,7,0,1,,,,,,,,,,,,
5cf6150ce42af100015a90c4,SCR,2024-06-10_12h07.51.423,LearnStrategy,2023.2.3,Win32,2.608242045,1,1,9,0.082966052,0.088873668,1,0,0,10.695,Pegmatite_16,6,16,4,5,10.695,4,14,0.424645509,-0.249101808,1,0,0,12.15,Gabbro_rect,4,12.15,0,8,0,8,0,1,,,,,,,,,,,,
5cf6150ce42af100015a90c4,SCR,2024-06-10_12h07.51.423,LearnStrategy,2023.2.3,Win32,2.608242045,1,1,10,0.090373681,-0.250953744,1,0,0,2.746,Obsidian_08,5,08,2,5,2.746,5,08,-0.350383392,-0.392625646,1,0,0,4.213,Obsidian_rect,5,4.213,1,9,0,9,0,1,,,,,,,,,,,,
5cf6150ce42af100015a90c4,SCR,2024-06-10_12h07.51.423,LearnStrategy,2023.2.3,Win32,2.608242045,1,1,11,0.209822584,-0.098170286,1,0,0,1.591,Pumice_16,8,16,3,6,1.591,8,16,0.429275097,-0.404663141,1,0,0,8.431,Pumice_rect,8,8.431,1,10,0,10,0,1,,,,,,,,,,,,
5cf6150ce42af100015a90c4,SCR,2024-06-10_12h07.51.423,LearnStrategy,2023.2.3,Win32,2.608242045,1,1,12,-0.54576097,0.09813326,1,0,0,3.413,Peridotite_14,7,14,4,1,3.413,7,14,0.138523663,-0.400959271,1,0,0,5.622,Peridotite_rect,7,5.622,1,11,0,11,0,1,,,,,,,,,,,,
5cf6150ce42af100015a90c4,SCR,2024-06-10_12h07.51.423,LearnStrategy,2023.2.3,Win32,2.608242045,1,1,13,0.55520569,0.391662653,1,0,0,2.683,Diorite_16,3,16,6,8,2.683,3,16,-0.332790091,-0.256509494,1,0,0,20.199,Andesite_rect,1,20.199,0,12,0,12,0,1,,,,,,,,,,,,
5cf6150ce42af100015a90c4,SCR,2024-06-10_12h07.51.423,LearnStrategy,2023.2.3,Win32,2.608242045,1,1,14,0.384829097,-0.105577971,1,0,0,6.277,Pumice_06,8,06,3,7,6.277,8,06,0.420015699,-0.395403466,1,0,0,5.604,Pumice_rect,8,5.604,1,13,0,13,0,1,,,,,,,,,,,,
5cf6150ce42af100015a90c4,SCR,2024-06-10_12h07.51.423,LearnStrategy,2023.2.3,Win32,2.608242045,1,1,15,0.246860843,-0.269472929,1,0,0,18.58,Obsidian_10,5,10,2,6,18.58,5,10,-0.322604531,-0.387069896,1,0,0,2.672,Obsidian_rect,5,2.672,1,14,0,14,0,1,,,,,,,,,,,,
5cf6150ce42af100015a90c4,SCR,2024-06-10_12h07.51.423,LearnStrategy,2023.2.3,Win32,2.608242045,1,1,16,-0.058705962,0.41110782,1,0,0,10.068,Andesite_03,1,03,6,4,10.068,1,03,0.075558311,-0.413922706,1,0,0,8.264,Peridotite_rect,7,8.264,0,15,0,15,0,1,,,,,,,,,,,,
5cf6150ce42af100015a90c4,SCR,2024-06-10_12h07.51.423,LearnStrategy,2023.2.3,Win32,2.608242045,1,2,1,,,,,,,,2,14,,,,,,,,,,,,,6,9.074,0,,,,,,-0.131856763,-0.395403466,1,0,0,9.074,Pegmatite_rect,0,0,0,0,1
5cf6150ce42af100015a90c4,SCR,2024-06-10_12h07.51.423,LearnStrategy,2023.2.3,Win32,2.608242045,1,2,2,,,,,,,,2,01,,,,,,,,,,,,,3,12.449,0,,,,,,0.124634232,-0.264843119,1,0,0,12.449,Diorite_rect,1,0,1,0,1
5cf6150ce42af100015a90c4,SCR,2024-06-10_12h07.51.423,LearnStrategy,2023.2.3,Win32,2.608242045,1,2,3,,,,,,,,6,06,,,,,,,,,,,,,3,10.926,0,,,,,,0.126486112,-0.263917179,1,0,0,10.926,Diorite_rect,2,0,2,0,1
5cf6150ce42af100015a90c4,SCR,2024-06-10_12h07.51.423,LearnStrategy,2023.2.3,Win32,2.608242045,1,2,4,,,,,,,,8,13,,,,,,,,,,,,,8,5.679,1,,,,,,0.437608778,-0.409293007,1,0,0,5.679,Pumice_rect,3,0,3,0,1
5cf6150ce42af100015a90c4,SCR,2024-06-10_12h07.51.423,LearnStrategy,2023.2.3,Win32,2.608242045,1,2,5,,,,,,,,3,15,,,,,,,,,,,,,3,4.115,1,,,,,,0.108892922,-0.250953744,1,0,0,4.115,Diorite_rect,4,0,4,0,1
5cf6150ce42af100015a90c4,SCR,2024-06-10_12h07.51.423,LearnStrategy,2023.2.3,Win32,2.608242045,1,2,6,,,,,,,,8,14,,,,,,,,,,,,,8,2.158,1,,,,,,0.468165458,-0.403737146,1,0,0,2.158,Pumice_rect,5,0,5,0,1
5cf6150ce42af100015a90c4,SCR,2024-06-10_12h07.51.423,LearnStrategy,2023.2.3,Win32,2.608242045,1,2,7,,,,,,,,3,08,,,,,,,,,,,,,3,4.262,1,,,,,,0.131115922,-0.260213308,1,0,0,4.262,Diorite_rect,6,0,6,0,1
5cf6150ce42af100015a90c4,SCR,2024-06-10_12h07.51.423,LearnStrategy,2023.2.3,Win32,2.608242045,1,2,8,,,,,,,,4,15,,,,,,,,,,,,,3,3.499,0,,,,,,0.082040112,-0.266695054,1,0,0,3.499,Diorite_rect,7,0,7,0,1
5cf6150ce42af100015a90c4,SCR,2024-06-10_12h07.51.423,LearnStrategy,2023.2.3,Win32,2.608242045,1,2,9,,,,,,,,7,15,,,,,,,,,,,,,7,1.769,1,,,,,,0.163524593,-0.401885266,1,0,0,1.769,Peridotite_rect,8,0,8,0,1
5cf6150ce42af100015a90c4,SCR,2024-06-10_12h07.51.423,LearnStrategy,2023.2.3,Win32,2.608242045,1,2,10,,,,,,,,4,01,,,,,,,,,,,,,1,5.979,0,,,,,,-0.352235271,-0.247249873,1,0,0,5.979,Andesite_rect,9,0,9,0,1
5cf6150ce42af100015a90c4,SCR,2024-06-10_12h07.51.423,LearnStrategy,2023.2.3,Win32,2.608242045,1,2,11,,,,,,,,5,02,,,,,,,,,,,,,5,3.094,1,,,,,,-0.355939031,-0.412070826,1,0,0,3.094,Obsidian_rect,10,0,10,0,1
5cf6150ce42af100015a90c4,SCR,2024-06-10_12h07.51.423,LearnStrategy,2023.2.3,Win32,2.608242045,1,2,12,,,,,,,,6,08,,,,,,,,,,,,,3,7.983,0,,,,,,0.132967913,-0.267620994,1,0,0,7.983,Diorite_rect,11,0,11,0,1
5cf6150ce42af100015a90c4,SCR,2024-06-10_12h07.51.423,LearnStrategy,2023.2.3,Win32,2.608242045,1,2,13,,,,,,,,1,14,,,,,,,,,,,,,1,5.186,1,,,,,,-0.402237132,-0.243546058,1,0,0,5.186,Andesite_rect,12,0,12,0,1
5cf6150ce42af100015a90c4,SCR,2024-06-10_12h07.51.423,LearnStrategy,2023.2.3,Win32,2.608242045,1,2,14,,,,,,,,7,16,,,,,,,,,,,,,7,2.539,1,,,,,,0.120004422,-0.403737146,1,0,0,2.539,Peridotite_rect,13,0,13,0,1
5cf6150ce42af100015a90c4,SCR,2024-06-10_12h07.51.423,LearnStrategy,2023.2.3,Win32,2.608242045,1,2,15,,,,,,,,5,09,,,,,,,,,,,,,5,2.582,1,,,,,,-0.352235271,-0.407441016,1,0,0,2.582,Obsidian_rect,14,0,14,0,1
5cf6150ce42af100015a90c4,SCR,2024-06-10_12h07.51.423,LearnStrategy,2023.2.3,Win32,2.608242045,1,2,16,,,,,,,,1,06,,,,,,,,,,,,,1,8.116,1,,,,,,-0.459646651,-0.228730688,1,0,0,8.116,Andesite_rect,15,0,15,0,1
5cf6150ce42af100015a90c4,SCR,2024-06-10_12h07.51.423,LearnStrategy,2023.2.3,Win32,2.608242045,2,1,1,0.55520569,0.079614075,1,0,0,7.038,Gabbro_10,4,10,4,8,7.038,4,10,-0.362420832,-0.245398049,1,0,0,2.549,Andesite_rect,1,2.549,0,0,0,0,0,1,,,,,,,,,,,,
5cf6150ce42af100015a90c4,SCR,2024-06-10_12h07.51.423,LearnStrategy,2023.2.3,Win32,2.608242045,2,1,2,-0.218896994,0.080540015,1,0,0,3.58,Diorite_14,3,14,4,3,3.58,3,14,-0.337419956,-0.264843119,1,0,0,5.956,Andesite_rect,1,5.956,0,1,0,1,0,1,,,,,,,,,,,,
5cf6150ce42af100015a90c4,SCR,2024-06-10_12h07.51.423,LearnStrategy,2023.2.3,Win32,2.608242045,2,1,3,-0.255009369,0.252768626,1,0,0,7.88,Gabbro_12,4,12,5,3,7.88,4,12,-0.369828517,-0.249101808,1,0,0,2.805,Andesite_rect,1,2.805,0,2,0,2,0,1,,,,,,,,,,,,
5cf6150ce42af100015a90c4,SCR,2024-06-10_12h07.51.423,LearnStrategy,2023.2.3,Win32,2.608242045,2,1,4,-0.236490239,-0.254657558,1,0,0,5.714,Basalt_16,2,16,2,3,5.714,2,16,-0.152227883,-0.250027748,1,0,0,5.751,Basalt_rect,2,5.751,1,3,0,3,0,1,,,,,,,,,,,,
5cf6150ce42af100015a90c4,SCR,2024-06-10_12h07.51.423,LearnStrategy,2023.2.3,Win32,2.608242045,2,1,5,0.083891991,-0.400033331,1,0,0,7.357,Pegmatite_12,6,12,1,5,7.357,6,12,0.127412163,-0.243546058,1,0,0,2.653,Diorite_rect,3,2.653,0,4,0,4,0,1,,,,,,,,,,,,
5cf6150ce42af100015a90c4,SCR,2024-06-10_12h07.51.423,LearnStrategy,2023.2.3,Win32,2.608242045,2,1,6,0.58020662,0.247212876,1,0,0,2.533,Andesite_05,1,05,5,8,2.533,1,05,0.113522732,-0.396329461,1,0,0,3.784,Peridotite_rect,7,3.784,0,5,0,5,0,1,,,,,,,,,,,,
5cf6150ce42af100015a90c4,SCR,2024-06-10_12h07.51.423,LearnStrategy,2023.2.3,Win32,2.608242045,2,1,7,-0.365198707,-0.396329461,1,0,0,8.649,Pegmatite_05,6,05,1,2,8.649,6,05,0.152413204,-0.257435433,1,0,0,5.721,Diorite_rect,3,5.721,0,6,0,6,0,1,,,,,,,,,,,,
5cf6150ce42af100015a90c4,SCR,2024-06-10_12h07.51.423,LearnStrategy,2023.2.3,Win32,2.608242045,2,1,8,0.089447741,-0.113911596,1,0,0,6.475,Gabbro_05,4,05,3,5,6.475,4,05,0.117226713,-0.387995836,1,0,0,10.337,Peridotite_rect,7,10.337,0,7,0,7,0,1,,,,,,,,,,,,
5cf6150ce42af100015a90c4,SCR,2024-06-10_12h07.51.423,LearnStrategy,2023.2.3,Win32,2.608242045,2,1,9,-0.210563369,-0.07039148,1,0,0,2.211,Basalt_06,2,06,3,3,2.211,2,06,0.453350088,-0.266695054,1,0,0,10.024,Gabbro_rect,4,10.024,0,8,0,8,0,1,,,,,,,,,,,,
5cf6150ce42af100015a90c4,SCR,2024-06-10_12h07.51.423,LearnStrategy,2023.2.3,Win32,2.608242045,2,1,10,0.243157305,0.251842658,1,0,0,7.558,Pegmatite_15,6,15,5,6,7.558,6,15,-0.068891466,-0.383366026,1,0,0,2.711,Pegmatite_rect,6,2.711,1,9,0,9,0,1,,,,,,,,,,,,
5cf6150ce42af100015a90c4,SCR,2024-06-10_12h07.51.423,LearnStrategy,2023.2.3,Win32,2.608242045,2,1,11,0.433904907,0.087947728,1,0,0,6.43,Gabbro_16,4,16,4,7,6.43,4,16,0.413533787,-0.237064313,1,0,0,2.67,Gabbro_rect,4,2.67,1,10,0,10,0,1,,,,,,,,,,,,
5cf6150ce42af100015a90c4,SCR,2024-06-10_12h07.51.423,LearnStrategy,2023.2.3,Win32,2.608242045,2,1,12,-0.514278322,-0.409293007,1,0,0,3.469,Basalt_02,2,02,1,1,3.469,2,02,-0.124449077,-0.253731619,1,0,0,5.903,Basalt_rect,2,5.903,1,11,0,11,0,1,,,,,,,,,,,,
5cf6150ce42af100015a90c4,SCR,2024-06-10_12h07.51.423,LearnStrategy,2023.2.3,Win32,2.608242045,2,1,13,0.070002561,0.233323417,1,0,0,9.378,Diorite_11,3,11,5,5,9.378,3,11,-0.138338452,-0.401885266,1,0,0,20.354,Pegmatite_rect,6,20.354,0,12,0,12,0,1,,,,,,,,,,,,
5cf6150ce42af100015a90c4,SCR,2024-06-10_12h07.51.423,LearnStrategy,2023.2.3,Win32,2.608242045,2,1,14,-0.057779911,0.250916663,1,0,0,4.701,Basalt_11,2,11,5,4,4.701,2,11,-0.348531456,-0.234286438,1,0,0,7.928,Andesite_rect,1,7.928,0,13,0,13,0,1,,,,,,,,,,,,
5cf6150ce42af100015a90c4,SCR,2024-06-10_12h07.51.423,LearnStrategy,2023.2.3,Win32,2.608242045,2,1,15,-0.530019632,-0.399107447,1,0,0,7.505,Basalt_02,2,02,1,1,7.505,2,02,-0.156857693,-0.264843119,1,0,0,7.289,Basalt_rect,2,7.289,1,14,0,14,0,1,,,,,,,,,,,,
5cf6150ce42af100015a90c4,SCR,2024-06-10_12h07.51.423,LearnStrategy,2023.2.3,Win32,2.608242045,2,1,16,0.375569477,0.221285978,1,0,0,2.052,Pegmatite_03,6,03,5,7,2.052,6,03,0.168154403,-0.251879683,1,0,0,11.813,Diorite_rect,3,11.813,0,15,0,15,0,1,,,,,,,,,,,,
5cf6150ce42af100015a90c4,SCR,2024-06-10_12h07.51.423,LearnStrategy,2023.2.3,Win32,2.608242045,2,2,1,,,,,,,,7,13,,,,,,,,,,,,,7,9.1,1,,,,,,0.122782352,-0.412996766,1,0,0,9.1,Peridotite_rect,0,0,0,0,1
5cf6150ce42af100015a90c4,SCR,2024-06-10_12h07.51.423,LearnStrategy,2023.2.3,Win32,2.608242045,2,2,2,,,,,,,,5,04,,,,,,,,,,,,,5,10.302,1,,,,,,-0.394829447,-0.412070826,1,0,0,10.302,Obsidian_rect,1,0,1,0,1
5cf6150ce42af100015a90c4,SCR,2024-06-10_12h07.51.423,LearnStrategy,2023.2.3,Win32,2.608242045,2,2,3,,,,,,,,2,04,,,,,,,,,,,,,2,5.688,1,,,,,,-0.116115342,-0.236138373,1,0,0,5.688,Basalt_rect,2,0,2,0,1
5cf6150ce42af100015a90c4,SCR,2024-06-10_12h07.51.423,LearnStrategy,2023.2.3,Win32,2.608242045,2,2,4,,,,,,,,4,09,,,,,,,,,,,,,4,2.697,1,,,,,,0.385755037,-0.263917179,1,0,0,2.697,Gabbro_rect,3,0,3,0,1
5cf6150ce42af100015a90c4,SCR,2024-06-10_12h07.51.423,LearnStrategy,2023.2.3,Win32,2.608242045,2,2,5,,,,,,,,6,10,,,,,,,,,,,,,7,8.741,0,,,,,,0.068150681,-0.402811206,1,0,0,8.741,Peridotite_rect,4,0,4,0,1
5cf6150ce42af100015a90c4,SCR,2024-06-10_12h07.51.423,LearnStrategy,2023.2.3,Win32,2.608242045,2,2,6,,,,,,,,4,13,,,,,,,,,,,,,6,4.986,0,,,,,,-0.064261656,-0.407441016,1,0,0,4.986,Pegmatite_rect,5,0,5,0,1
5cf6150ce42af100015a90c4,SCR,2024-06-10_12h07.51.423,LearnStrategy,2023.2.3,Win32,2.608242045,2,2,7,,,,,,,,1,07,,,,,,,,,,,,,3,2.906,0,,,,,,0.093151612,-0.260213308,1,0,0,2.906,Diorite_rect,6,0,6,0,1
5cf6150ce42af100015a90c4,SCR,2024-06-10_12h07.51.423,LearnStrategy,2023.2.3,Win32,2.608242045,2,2,8,,,,,,,,8,15,,,,,,,,,,,,,8,6.03,1,,,,,,0.400570407,-0.405589081,1,0,0,6.03,Pumice_rect,7,0,7,0,1
5cf6150ce42af100015a90c4,SCR,2024-06-10_12h07.51.423,LearnStrategy,2023.2.3,Win32,2.608242045,2,2,9,,,,,,,,3,06,,,,,,,,,,,,,1,15.2,0,,,,,,-0.380940017,-0.253731619,1,0,0,15.2,Andesite_rect,8,0,8,0,1
5cf6150ce42af100015a90c4,SCR,2024-06-10_12h07.51.423,LearnStrategy,2023.2.3,Win32,2.608242045,2,2,10,,,,,,,,6,07,,,,,,,,,,,,,6,7.326,1,,,,,,-0.083706837,-0.379662211,1,0,0,7.326,Pegmatite_rect,9,0,9,0,1
5cf6150ce42af100015a90c4,SCR,2024-06-10_12h07.51.423,LearnStrategy,2023.2.3,Win32,2.608242045,2,2,11,,,,,,,,7,06,,,,,,,,,,,,,7,2.865,1,,,,,,0.132042083,-0.409293007,1,0,0,2.865,Peridotite_rect,10,0,10,0,1
5cf6150ce42af100015a90c4,SCR,2024-06-10_12h07.51.423,LearnStrategy,2023.2.3,Win32,2.608242045,2,2,12,,,,,,,,3,02,,,,,,,,,,,,,3,6.759,1,,,,,,0.170932223,-0.263917179,1,0,0,6.759,Diorite_rect,11,0,11,0,1
5cf6150ce42af100015a90c4,SCR,2024-06-10_12h07.51.423,LearnStrategy,2023.2.3,Win32,2.608242045,2,2,13,,,,,,,,5,05,,,,,,,,,,,,,5,3.543,1,,,,,,-0.361494892,-0.400959271,1,0,0,3.543,Obsidian_rect,12,0,12,0,1
5cf6150ce42af100015a90c4,SCR,2024-06-10_12h07.51.423,LearnStrategy,2023.2.3,Win32,2.608242045,2,2,14,,,,,,,,8,02,,,,,,,,,,,,,8,1.925,1,,,,,,0.440386708,-0.416700692,1,0,0,1.925,Pumice_rect,13,0,13,0,1
5cf6150ce42af100015a90c4,SCR,2024-06-10_12h07.51.423,LearnStrategy,2023.2.3,Win32,2.608242045,2,2,15,,,,,,,,2,08,,,,,,,,,,,,,2,2.06,1,,,,,,-0.080928851,-0.251879683,1,0,0,2.06,Basalt_rect,14,0,14,0,1
5cf6150ce42af100015a90c4,SCR,2024-06-10_12h07.51.423,LearnStrategy,2023.2.3,Win32,2.608242045,2,2,16,,,,,,,,1,04,,,,,,,,,,,,,1,2.356,1,,,,,,-0.355013146,-0.256509494,1,0,0,2.356,Andesite_rect,15,0,15,0,1
5cf6150ce42af100015a90c4,SCR,2024-06-10_12h07.51.423,LearnStrategy,2023.2.3,Win32,2.608242045,3,1,1,0.58020662,0.094429445,1,0,0,9.717,Gabbro_10,4,10,4,8,9.717,4,10,0.429275097,-0.253731619,1,0,0,4.092,Gabbro_rect,4,4.092,1,0,0,0,0,1,,,,,,,,,,,,
5cf6150ce42af100015a90c4,SCR,2024-06-10_12h07.51.423,LearnStrategy,2023.2.3,Win32,2.608242045,3,1,2,0.371865607,0.247212876,1,0,0,6.683,Pegmatite_03,6,03,5,7,6.683,6,03,-0.094818337,-0.404663141,1,0,0,6.632,Pegmatite_rect,6,6.632,1,1,0,1,0,1,,,,,,,,,,,,
5cf6150ce42af100015a90c4,SCR,2024-06-10_12h07.51.423,LearnStrategy,2023.2.3,Win32,2.608242045,3,1,3,0.57372493,-0.380588151,1,0,0,1.936,Andesite_11,1,11,1,8,1.936,1,11,-0.350383392,-0.243546058,1,0,0,3.35,Andesite_rect,1,3.35,1,2,0,2,0,1,,,,,,,,,,,,
5cf6150ce42af100015a90c4,SCR,2024-06-10_12h07.51.423,LearnStrategy,2023.2.3,Win32,2.608242045,3,1,4,0.551501819,-0.089836661,1,0,0,1.62,Pumice_10,8,10,3,8,1.62,8,10,0.471869328,-0.396329461,1,0,0,2.148,Pumice_rect,8,2.148,1,3,0,3,0,1,,,,,,,,,,,,
5cf6150ce42af100015a90c4,SCR,2024-06-10_12h07.51.423,LearnStrategy,2023.2.3,Win32,2.608242045,3,1,5,0.384829097,0.070354455,1,0,0,1.647,Gabbro_16,4,16,4,7,1.647,4,16,-0.080928851,-0.257435433,1,0,0,6.485,Basalt_rect,2,6.485,0,4,0,4,0,1,,,,,,,,,,,,
5cf6150ce42af100015a90c4,SCR,2024-06-10_12h07.51.423,LearnStrategy,2023.2.3,Win32,2.608242045,3,1,6,-0.235564299,-0.250953744,1,0,0,1.478,Basalt_16,2,16,2,3,1.478,2,16,-0.163339383,-0.228730688,1,0,0,1.496,Basalt_rect,2,1.496,1,5,0,5,0,1,,,,,,,,,,,,
5cf6150ce42af100015a90c4,SCR,2024-06-10_12h07.51.423,LearnStrategy,2023.2.3,Win32,2.608242045,3,1,7,0.54224231,0.371291533,1,0,0,1.658,Diorite_16,3,16,6,8,1.658,3,16,0.163524593,-0.240768183,1,0,0,8.426,Diorite_rect,3,8.426,1,6,0,6,0,1,,,,,,,,,,,,
5cf6150ce42af100015a90c4,SCR,2024-06-10_12h07.51.423,LearnStrategy,2023.2.3,Win32,2.608242045,3,1,8,-0.582799368,0.096281353,1,0,0,3.779,Peridotite_14,7,14,4,1,3.779,7,14,-0.080002966,-0.408366901,1,0,0,6.654,Pegmatite_rect,6,6.654,0,7,0,7,0,1,,,,,,,,,,,,
5cf6150ce42af100015a90c4,SCR,2024-06-10_12h07.51.423,LearnStrategy,2023.2.3,Win32,2.608242045,3,1,9,-0.416126507,0.099985195,1,0,0,7.771,Pegmatite_09,6,09,4,2,7.771,6,09,0.148709223,-0.405589081,1,0,0,5.627,Peridotite_rect,7,5.627,0,8,0,8,0,1,,,,,,,,,,,,
5cf6150ce42af100015a90c4,SCR,2024-06-10_12h07.51.423,LearnStrategy,2023.2.3,Win32,2.608242045,3,1,10,0.244083135,-0.287992114,1,0,0,2.165,Obsidian_10,5,10,2,6,2.165,5,10,-0.374458327,-0.395403466,1,0,0,2.468,Obsidian_rect,5,2.468,1,9,0,9,0,1,,,,,,,,,,,,
5cf6150ce42af100015a90c4,SCR,2024-06-10_12h07.51.423,LearnStrategy,2023.2.3,Win32,2.608242045,3,1,11,-0.376310262,-0.401885266,1,0,0,1.994,Pegmatite_05,6,05,1,2,1.994,6,05,0.151487042,-0.244471998,1,0,0,3.8,Diorite_rect,3,3.8,0,10,0,10,0,1,,,,,,,,,,,,
5cf6150ce42af100015a90c4,SCR,2024-06-10_12h07.51.423,LearnStrategy,2023.2.3,Win32,2.608242045,3,1,12,0.077410302,0.225915788,1,0,0,5.296,Diorite_11,3,11,5,5,5.296,3,11,0.093151612,-0.260213308,1,0,0,5.129,Diorite_rect,3,5.129,1,11,0,11,0,1,,,,,,,,,,,,
5cf6150ce42af100015a90c4,SCR,2024-06-10_12h07.51.423,LearnStrategy,2023.2.3,Win32,2.608242045,3,1,13,0.093151612,-0.112059716,1,0,0,10.433,Gabbro_05,4,05,3,5,10.433,4,05,0.393162667,-0.246323878,1,0,0,2.227,Gabbro_rect,4,2.227,1,12,0,12,0,1,,,,,,,,,,,,
5cf6150ce42af100015a90c4,SCR,2024-06-10_12h07.51.423,LearnStrategy,2023.2.3,Win32,2.608242045,3,1,14,0.557983509,0.099985195,1,0,0,2.587,Gabbro_10,4,10,4,8,2.587,4,10,0.456128018,-0.233360443,1,0,0,2.426,Gabbro_rect,4,2.426,1,13,0,13,0,1,,,,,,,,,,,,
5cf6150ce42af100015a90c4,SCR,2024-06-10_12h07.51.423,LearnStrategy,2023.2.3,Win32,2.608242045,3,1,15,0.388532857,0.227767695,1,0,0,1.844,Pegmatite_03,6,03,5,7,1.844,6,03,-0.131856763,-0.407441016,1,0,0,2.32,Pegmatite_rect,6,2.32,1,14,0,14,0,1,,,,,,,,,,,,
5cf6150ce42af100015a90c4,SCR,2024-06-10_12h07.51.423,LearnStrategy,2023.2.3,Win32,2.608242045,3,1,16,-0.392977512,-0.09724429,1,0,0,3.569,Diorite_07,3,07,3,2,3.569,3,07,0.104263112,-0.251879683,1,0,0,3.865,Diorite_rect,3,3.865,1,15,0,15,0,1,,,,,,,,,,,,
5cf6150ce42af100015a90c4,SCR,2024-06-10_12h07.51.423,LearnStrategy,2023.2.3,Win32,2.608242045,3,2,1,,,,,,,,7,02,,,,,,,,,,,,,7,13.666,1,,,,,,0.138523663,-0.412996766,1,0,0,13.666,Peridotite_rect,0,0,0,0,1
5cf6150ce42af100015a90c4,SCR,2024-06-10_12h07.51.423,LearnStrategy,2023.2.3,Win32,2.608242045,3,2,2,,,,,,,,4,03,,,,,,,,,,,,,1,15.983,0,,,,,,-0.357791021,-0.248175869,1,0,0,15.983,Andesite_rect,1,0,1,0,1
5cf6150ce42af100015a90c4,SCR,2024-06-10_12h07.51.423,LearnStrategy,2023.2.3,Win32,2.608242045,3,2,3,,,,,,,,3,12,,,,,,,,,,,,,3,1.811,1,,,,,,0.130189982,-0.264843119,1,0,0,1.811,Diorite_rect,2,0,2,0,1
5cf6150ce42af100015a90c4,SCR,2024-06-10_12h07.51.423,LearnStrategy,2023.2.3,Win32,2.608242045,3,2,4,,,,,,,,1,02,,,,,,,,,,,,,6,10.17,0,,,,,,-0.159635568,-0.399107447,1,0,0,10.17,Pegmatite_rect,3,0,3,0,1
5cf6150ce42af100015a90c4,SCR,2024-06-10_12h07.51.423,LearnStrategy,2023.2.3,Win32,2.608242045,3,2,5,,,,,,,,8,05,,,,,,,,,,,,,8,3.65,1,,,,,,0.361680046,-0.414848646,1,0,0,3.65,Pumice_rect,4,0,4,0,1
5cf6150ce42af100015a90c4,SCR,2024-06-10_12h07.51.423,LearnStrategy,2023.2.3,Win32,2.608242045,3,2,6,,,,,,,,6,13,,,,,,,,,,,,,6,2.568,1,,,,,,-0.111485642,-0.387995836,1,0,0,2.568,Pegmatite_rect,5,0,5,0,1
5cf6150ce42af100015a90c4,SCR,2024-06-10_12h07.51.423,LearnStrategy,2023.2.3,Win32,2.608242045,3,2,7,,,,,,,,3,10,,,,,,,,,,,,,3,1.556,1,,,,,,0.169080343,-0.260213308,1,0,0,1.556,Diorite_rect,6,0,6,0,1
5cf6150ce42af100015a90c4,SCR,2024-06-10_12h07.51.423,LearnStrategy,2023.2.3,Win32,2.608242045,3,2,8,,,,,,,,5,07,,,,,,,,,,,,,5,3.993,1,,,,,,-0.358717017,-0.406515021,1,0,0,3.993,Obsidian_rect,7,0,7,0,1
5cf6150ce42af100015a90c4,SCR,2024-06-10_12h07.51.423,LearnStrategy,2023.2.3,Win32,2.608242045,3,2,9,,,,,,,,8,04,,,,,,,,,,,,,8,1.727,1,,,,,,0.388532857,-0.403737146,1,0,0,1.727,Pumice_rect,8,0,8,0,1
5cf6150ce42af100015a90c4,SCR,2024-06-10_12h07.51.423,LearnStrategy,2023.2.3,Win32,2.608242045,3,2,10,,,,,,,,2,10,,,,,,,,,,,,,2,4.364,1,,,,,,-0.129078888,-0.244471998,1,0,0,4.364,Basalt_rect,9,0,9,0,1
5cf6150ce42af100015a90c4,SCR,2024-06-10_12h07.51.423,LearnStrategy,2023.2.3,Win32,2.608242045,3,2,11,,,,,,,,2,12,,,,,,,,,,,,,1,5.236,0,,,,,,-0.355013146,-0.263917179,1,0,0,5.236,Andesite_rect,10,0,10,0,1
5cf6150ce42af100015a90c4,SCR,2024-06-10_12h07.51.423,LearnStrategy,2023.2.3,Win32,2.608242045,3,2,12,,,,,,,,6,11,,,,,,,,,,,,,6,1.74,1,,,,,,-0.085558716,-0.400033331,1,0,0,1.74,Pegmatite_rect,11,0,11,0,1
5cf6150ce42af100015a90c4,SCR,2024-06-10_12h07.51.423,LearnStrategy,2023.2.3,Win32,2.608242045,3,2,13,,,,,,,,5,14,,,,,,,,,,,,,2,4.568,0,,,,,,-0.080928851,-0.253731619,1,0,0,4.568,Basalt_rect,12,0,12,0,1
5cf6150ce42af100015a90c4,SCR,2024-06-10_12h07.51.423,LearnStrategy,2023.2.3,Win32,2.608242045,3,2,14,,,,,,,,1,01,,,,,,,,,,,,,3,2.576,0,,,,,,0.154264973,-0.253731619,1,0,0,2.576,Diorite_rect,13,0,13,0,1
5cf6150ce42af100015a90c4,SCR,2024-06-10_12h07.51.423,LearnStrategy,2023.2.3,Win32,2.608242045,3,2,15,,,,,,,,7,10,,,,,,,,,,,,,7,4.572,1,,,,,,0.128338102,-0.409293007,1,0,0,4.572,Peridotite_rect,14,0,14,0,1
5cf6150ce42af100015a90c4,SCR,2024-06-10_12h07.51.423,LearnStrategy,2023.2.3,Win32,2.608242045,3,2,16,,,,,,,,4,08,,,,,,,,,,,,,1,2.003,0,,,,,,-0.370754457,-0.255583609,1,0,0,2.003,Andesite_rect,15,0,15,0,1
5cf6150ce42af100015a90c4,SCR,2024-06-10_12h07.51.423,LearnStrategy,2023.2.3,Win32,2.608242045,4,1,1,0.533908629,0.212026385,1,0,0,13.331,Andesite_05,1,05,5,8,13.331,1,05,-0.356865137,-0.250953744,1,0,0,10.831,Andesite_rect,1,10.831,1,0,0,0,0,1,,,,,,,,,,,,
5cf6150ce42af100015a90c4,SCR,2024-06-10_12h07.51.423,LearnStrategy,2023.2.3,Win32,2.608242045,4,1,2,0.382051167,0.09257751,1,0,0,4.647,Gabbro_16,4,16,4,7,4.647,4,16,-0.120745207,-0.259287313,1,0,0,3.282,Basalt_rect,2,3.282,0,1,0,1,0,1,,,,,,,,,,,,
5cf6150ce42af100015a90c4,SCR,2024-06-10_12h07.51.423,LearnStrategy,2023.2.3,Win32,2.608242045,4,1,3,-0.208711434,-0.10372598,1,0,0,1.647,Basalt_06,2,06,3,3,1.647,2,06,-0.179080693,-0.233360443,1,0,0,4.271,Basalt_rect,2,4.271,1,2,0,2,0,1,,,,,,,,,,,,
5cf6150ce42af100015a90c4,SCR,2024-06-10_12h07.51.423,LearnStrategy,2023.2.3,Win32,2.608242045,4,1,4,0.533908629,-0.424108266,1,0,0,4.754,Andesite_11,1,11,1,8,4.754,1,11,-0.367050642,-0.241694123,1,0,0,3.899,Andesite_rect,1,3.899,1,3,0,3,0,1,,,,,,,,,,,,
5cf6150ce42af100015a90c4,SCR,2024-06-10_12h07.51.423,LearnStrategy,2023.2.3,Win32,2.608242045,4,1,5,0.504277889,-0.423182327,1,0,0,2.676,Andesite_11,1,11,1,8,2.676,1,11,-0.367976582,-0.243546058,1,0,0,2.339,Andesite_rect,1,2.339,1,4,0,4,0,1,,,,,,,,,,,,
5cf6150ce42af100015a90c4,SCR,2024-06-10_12h07.51.423,LearnStrategy,2023.2.3,Win32,2.608242045,4,1,6,-0.522611975,-0.439849577,1,0,0,2.188,Basalt_02,2,02,1,1,2.188,2,02,-0.167969193,-0.248175869,1,0,0,5.144,Basalt_rect,2,5.144,1,5,0,5,0,1,,,,,,,,,,,,
5cf6150ce42af100015a90c4,SCR,2024-06-10_12h07.51.423,LearnStrategy,2023.2.3,Win32,2.608242045,4,1,7,0.220008144,-0.395403466,1,0,0,2.15,Gabbro_11,4,11,1,6,2.15,4,11,0.345012796,-0.248175869,1,0,0,7.216,Gabbro_rect,4,7.216,1,6,0,6,0,1,,,,,,,,,,,,
5cf6150ce42af100015a90c4,SCR,2024-06-10_12h07.51.423,LearnStrategy,2023.2.3,Win32,2.608242045,4,1,8,0.400570407,0.38240306,1,0,0,2.212,Diorite_13,3,13,6,7,2.212,3,13,0.182969774,-0.243546058,1,0,0,3.475,Diorite_rect,3,3.475,1,7,0,7,0,1,,,,,,,,,,,,
5cf6150ce42af100015a90c4,SCR,2024-06-10_12h07.51.423,LearnStrategy,2023.2.3,Win32,2.608242045,4,1,9,0.57002106,0.074984293,1,0,0,4.139,Gabbro_10,4,10,4,8,4.139,4,10,0.448720278,-0.250027748,1,0,0,9.275,Gabbro_rect,4,9.275,1,8,0,8,0,1,,,,,,,,,,,,
5cf6150ce42af100015a90c4,SCR,2024-06-10_12h07.51.423,LearnStrategy,2023.2.3,Win32,2.608242045,4,1,10,-0.403163072,0.084243857,1,0,0,3.797,Pegmatite_09,6,09,4,2,3.797,6,09,-0.165191318,-0.410218891,1,0,0,8.382,Pegmatite_rect,6,8.382,1,9,0,9,0,1,,,,,,,,,,,,
5cf6150ce42af100015a90c4,SCR,2024-06-10_12h07.51.423,LearnStrategy,2023.2.3,Win32,2.608242045,4,1,11,-0.237416235,0.433330854,1,0,0,5.478,Diorite_09,3,09,6,3,5.478,3,09,0.131115922,-0.242620063,1,0,0,4.958,Diorite_rect,3,4.958,1,10,0,10,0,1,,,,,,,,,,,,
5cf6150ce42af100015a90c4,SCR,2024-06-10_12h07.51.423,LearnStrategy,2023.2.3,Win32,2.608242045,4,1,12,-0.224452744,-0.400033331,1,0,0,2.929,Peridotite_05,7,05,1,3,2.929,7,05,0.091299621,-0.409293007,1,0,0,2.354,Peridotite_rect,7,2.354,1,11,0,11,0,1,,,,,,,,,,,,
5cf6150ce42af100015a90c4,SCR,2024-06-10_12h07.51.423,LearnStrategy,2023.2.3,Win32,2.608242045,4,1,13,-0.403163072,0.078688107,1,0,0,2.165,Pegmatite_09,6,09,4,2,2.165,6,09,-0.143894147,-0.387995836,1,0,0,2.617,Pegmatite_rect,6,2.617,1,12,0,12,0,1,,,,,,,,,,,,
5cf6150ce42af100015a90c4,SCR,2024-06-10_12h07.51.423,LearnStrategy,2023.2.3,Win32,2.608242045,4,1,14,0.105189052,0.087947728,1,0,0,4.771,Pegmatite_16,6,16,4,5,4.771,5,10,-0.088336536,-0.403737146,1,0,0,1.731,Pegmatite_rect,6,1.731,1,13,0,13,0,1,,,,,,,,,,,,
5cf6150ce42af100015a90c4,SCR,2024-06-10_12h07.51.423,LearnStrategy,2023.2.3,Win32,2.608242045,4,1,15,0.57928068,0.213878292,1,0,0,6.848,Andesite_05,1,05,5,8,6.848,1,05,-0.385569827,-0.254657558,1,0,0,2.649,Andesite_rect,1,2.649,1,14,0,14,0,1,,,,,,,,,,,,
5cf6150ce42af100015a90c4,SCR,2024-06-10_12h07.51.423,LearnStrategy,2023.2.3,Win32,2.608242045,4,1,16,0.082040112,-0.100022221,1,0,0,1.446,Gabbro_05,4,05,3,5,1.446,4,05,0.426497278,-0.250027748,1,0,0,2.305,Gabbro_rect,4,2.305,1,15,0,15,0,1,,,,,,,,,,,,
5cf6150ce42af100015a90c4,SCR,2024-06-10_12h07.51.423,LearnStrategy,2023.2.3,Win32,2.608242045,4,2,1,,,,,,,,6,10,,,,,,,,,,,,,6,3.482,1,,,,,,-0.073521277,-0.400033331,1,0,0,3.482,Pegmatite_rect,0,0,0,0,1
5cf6150ce42af100015a90c4,SCR,2024-06-10_12h07.51.423,LearnStrategy,2023.2.3,Win32,2.608242045,4,2,2,,,,,,,,8,02,,,,,,,,,,,,,8,1.713,1,,,,,,0.436682838,-0.404663141,1,0,0,1.713,Pumice_rect,1,0,1,0,1
5cf6150ce42af100015a90c4,SCR,2024-06-10_12h07.51.423,LearnStrategy,2023.2.3,Win32,2.608242045,4,2,3,,,,,,,,1,02,,,,,,,,,,,,,1,14.324,1,,,,,,-0.367050642,-0.249101808,1,0,0,14.324,Andesite_rect,2,0,2,0,1
5cf6150ce42af100015a90c4,SCR,2024-06-10_12h07.51.423,LearnStrategy,2023.2.3,Win32,2.608242045,4,2,4,,,,,,,,4,13,,,,,,,,,,,,,4,4.04,1,,,,,,0.357976176,-0.262065244,1,0,0,4.04,Gabbro_rect,3,0,3,0,1
5cf6150ce42af100015a90c4,SCR,2024-06-10_12h07.51.423,LearnStrategy,2023.2.3,Win32,2.608242045,4,2,5,,,,,,,,7,02,,,,,,,,,,,,,7,5.102,1,,,,,,0.127412163,-0.403737146,1,0,0,5.102,Peridotite_rect,4,0,4,0,1
5cf6150ce42af100015a90c4,SCR,2024-06-10_12h07.51.423,LearnStrategy,2023.2.3,Win32,2.608242045,4,2,6,,,,,,,,8,14,,,,,,,,,,,,,8,1.617,1,,,,,,0.374643537,-0.384292021,1,0,0,1.617,Pumice_rect,5,0,5,0,1
5cf6150ce42af100015a90c4,SCR,2024-06-10_12h07.51.423,LearnStrategy,2023.2.3,Win32,2.608242045,4,2,7,,,,,,,,2,01,,,,,,,,,,,,,2,1.631,1,,,,,,-0.081854902,-0.265769058,1,0,0,1.631,Basalt_rect,6,0,6,0,1
5cf6150ce42af100015a90c4,SCR,2024-06-10_12h07.51.423,LearnStrategy,2023.2.3,Win32,2.608242045,4,2,8,,,,,,,,6,11,,,,,,,,,,,,,6,1.962,1,,,,,,-0.092040462,-0.384292021,1,0,0,1.962,Pegmatite_rect,7,0,7,0,1
5cf6150ce42af100015a90c4,SCR,2024-06-10_12h07.51.423,LearnStrategy,2023.2.3,Win32,2.608242045,4,2,9,,,,,,,,2,04,,,,,,,,,,,,,2,3.179,1,,,,,,-0.095744277,-0.251879683,1,0,0,3.179,Basalt_rect,8,0,8,0,1
5cf6150ce42af100015a90c4,SCR,2024-06-10_12h07.51.423,LearnStrategy,2023.2.3,Win32,2.608242045,4,2,10,,,,,,,,5,07,,,,,,,,,,,,,5,2.061,1,,,,,,-0.346679521,-0.393551586,1,0,0,2.061,Obsidian_rect,9,0,9,0,1
5cf6150ce42af100015a90c4,SCR,2024-06-10_12h07.51.423,LearnStrategy,2023.2.3,Win32,2.608242045,4,2,11,,,,,,,,4,09,,,,,,,,,,,,,4,1.998,1,,,,,,0.378347296,-0.245398049,1,0,0,1.998,Gabbro_rect,10,0,10,0,1
5cf6150ce42af100015a90c4,SCR,2024-06-10_12h07.51.423,LearnStrategy,2023.2.3,Win32,2.608242045,4,2,12,,,,,,,,1,14,,,,,,,,,,,,,3,9.032,0,,,,,,0.152413204,-0.239842133,1,0,0,9.032,Diorite_rect,11,0,11,0,1
5cf6150ce42af100015a90c4,SCR,2024-06-10_12h07.51.423,LearnStrategy,2023.2.3,Win32,2.608242045,4,2,13,,,,,,,,7,10,,,,,,,,,,,,,7,7.081,1,,,,,,0.164450533,-0.411144831,1,0,0,7.081,Peridotite_rect,12,0,12,0,1
5cf6150ce42af100015a90c4,SCR,2024-06-10_12h07.51.423,LearnStrategy,2023.2.3,Win32,2.608242045,4,2,14,,,,,,,,5,09,,,,,,,,,,,,,5,3.389,1,,,,,,-0.367976582,-0.399107447,1,0,0,3.389,Obsidian_rect,13,0,13,0,1
5cf6150ce42af100015a90c4,SCR,2024-06-10_12h07.51.423,LearnStrategy,2023.2.3,Win32,2.608242045,4,2,15,,,,,,,,3,15,,,,,,,,,,,,,3,5.132,1,,,,,,0.139449602,-0.250953744,1,0,0,5.132,Diorite_rect,14,0,14,0,1
5cf6150ce42af100015a90c4,SCR,2024-06-10_12h07.51.423,LearnStrategy,2023.2.3,Win32,2.608242045,4,2,16,,,,,,,,3,12,,,,,,,,,,,,,3,1.181,1,,,,,,0.139449602,-0.250953744,1,0,0,1.181,Diorite_rect,15,0,15,0,1
5cf6150ce42af100015a90c4,SCR,2024-06-10_12h07.51.423,LearnStrategy,2023.2.3,Win32,2.608242045,5,1,1,-0.079077027,0.391662653,1,0,0,3.609,Andesite_03,1,03,6,4,3.609,1,03,-0.366124702,-0.230582623,1,0,0,6.985,Andesite_rect,1,6.985,1,0,0,0,0,1,,,,,,,,,,,,
5cf6150ce42af100015a90c4,SCR,2024-06-10_12h07.51.423,LearnStrategy,2023.2.3,Win32,2.608242045,5,1,2,0.377421357,0.120356343,1,0,0,3.28,Gabbro_16,4,16,4,7,3.28,4,16,0.424645509,-0.243546058,1,0,0,4.397,Gabbro_rect,4,4.397,1,1,0,1,0,1,,,,,,,,,,,,
5cf6150ce42af100015a90c4,SCR,2024-06-10_12h07.51.423,LearnStrategy,2023.2.3,Win32,2.608242045,5,1,3,-0.590207053,0.243509033,1,0,0,11.046,Peridotite_04,7,04,5,1,11.046,1,16,0.144079413,-0.235212489,1,0,0,9.855,Diorite_rect,3,9.855,0,2,0,2,0,1,,,,,,,,,,,,
5cf6150ce42af100015a90c4,SCR,2024-06-10_12h07.51.423,LearnStrategy,2023.2.3,Win32,2.608242045,5,1,4,-0.557798438,0.21017445,1,0,0,2.899,Peridotite_04,7,04,5,1,2.899,7,04,0.105189052,-0.403737146,1,0,0,4.84,Peridotite_rect,7,4.84,1,3,0,3,0,1,,,,,,,,,,,,
5cf6150ce42af100015a90c4,SCR,2024-06-10_12h07.51.423,LearnStrategy,2023.2.3,Win32,2.608242045,5,1,5,-0.391125522,-0.413922706,1,0,0,10.221,Pegmatite_05,6,05,1,2,10.221,1,03,-0.145746138,-0.410218891,1,0,0,3.196,Pegmatite_rect,6,3.196,1,4,0,4,0,1,,,,,,,,,,,,
5cf6150ce42af100015a90c4,SCR,2024-06-10_12h07.51.423,LearnStrategy,2023.2.3,Win32,2.608242045,5,1,6,-0.396681382,-0.400959271,1,0,0,1.83,Pegmatite_05,6,05,1,2,1.83,6,05,-0.135560577,-0.412070826,1,0,0,1.544,Pegmatite_rect,6,1.544,1,5,0,5,0,1,,,,,,,,,,,,
5cf6150ce42af100015a90c4,SCR,2024-06-10_12h07.51.423,LearnStrategy,2023.2.3,Win32,2.608242045,5,1,7,-0.573539775,-0.428738077,1,0,0,1.619,Basalt_02,2,02,1,1,1.619,2,02,-0.142042323,-0.239842133,1,0,0,1.774,Basalt_rect,2,1.774,1,6,0,6,0,1,,,,,,,,,,,,
5cf6150ce42af100015a90c4,SCR,2024-06-10_12h07.51.423,LearnStrategy,2023.2.3,Win32,2.608242045,5,1,8,0.394088607,0.227767695,1,0,0,2.545,Pegmatite_03,6,03,5,7,2.545,6,03,-0.085558716,-0.402811206,1,0,0,2.905,Pegmatite_rect,6,2.905,1,7,0,7,0,1,,,,,,,,,,,,
5cf6150ce42af100015a90c4,SCR,2024-06-10_12h07.51.423,LearnStrategy,2023.2.3,Win32,2.608242045,5,1,9,-0.558724405,0.410181859,1,0,0,2.1,Pumice_08,8,08,6,1,2.1,8,08,-0.352235271,-0.243546058,1,0,0,11.701,Andesite_rect,1,11.701,0,8,0,8,0,1,,,,,,,,,,,,
5cf6150ce42af100015a90c4,SCR,2024-06-10_12h07.51.423,LearnStrategy,2023.2.3,Win32,2.608242045,5,1,10,0.054261251,0.22961963,1,0,0,1.787,Diorite_11,3,11,5,5,1.787,3,11,0.207970704,-0.247249873,1,0,0,1.739,Diorite_rect,3,1.739,1,9,0,9,0,1,,,,,,,,,,,,
5cf6150ce42af100015a90c4,SCR,2024-06-10_12h07.51.423,LearnStrategy,2023.2.3,Win32,2.608242045,5,1,11,-0.255009369,0.370365565,1,0,0,1.876,Diorite_09,3,09,6,3,1.876,3,09,0.107966982,-0.259287313,1,0,0,1.435,Diorite_rect,3,1.435,1,10,0,10,0,1,,,,,,,,,,,,
5cf6150ce42af100015a90c4,SCR,2024-06-10_12h07.51.423,LearnStrategy,2023.2.3,Win32,2.608242045,5,1,12,0.242231144,0.387958817,1,0,0,1.727,Gabbro_14,4,14,6,6,1.727,4,14,0.374643537,-0.241694123,1,0,0,9.025,Gabbro_rect,4,9.025,1,11,0,11,0,1,,,,,,,,,,,,
5cf6150ce42af100015a90c4,SCR,2024-06-10_12h07.51.423,LearnStrategy,2023.2.3,Win32,2.608242045,5,1,13,-0.540205192,-0.406515021,1,0,0,5.556,Basalt_02,2,02,1,1,5.556,2,02,-0.183710503,-0.264843119,1,0,0,1.695,Basalt_rect,2,1.695,1,12,0,12,0,1,,,,,,,,,,,,
5cf6150ce42af100015a90c4,SCR,2024-06-10_12h07.51.423,LearnStrategy,2023.2.3,Win32,2.608242045,5,1,14,0.265380195,0.364809815,1,0,0,1.825,Gabbro_14,4,14,6,6,1.825,4,14,0.424645509,-0.261139304,1,0,0,4.72,Gabbro_rect,4,4.72,1,13,0,13,0,1,,,,,,,,,,,,
5cf6150ce42af100015a90c4,SCR,2024-06-10_12h07.51.423,LearnStrategy,2023.2.3,Win32,2.608242045,5,1,15,0.070928501,-0.274102739,1,0,0,3.078,Obsidian_08,5,08,2,5,3.078,5,08,-0.330012216,-0.389847771,1,0,0,1.71,Obsidian_rect,5,1.71,1,14,0,14,0,1,,,,,,,,,,,,
5cf6150ce42af100015a90c4,SCR,2024-06-10_12h07.51.423,LearnStrategy,2023.2.3,Win32,2.608242045,5,1,16,-0.402237132,-0.288918109,1,0,0,1.998,Andesite_16,1,16,2,2,1.998,1,16,-0.379088137,-0.244471998,1,0,0,1.958,Andesite_rect,1,1.958,1,15,0,15,0,1,,,,,,,,,,,,
5cf6150ce42af100015a90c4,SCR,2024-06-10_12h07.51.423,LearnStrategy,2023.2.3,Win32,2.608242045,5,2,1,,,,,,,,4,03,,,,,,,,,,,,,1,3.01,0,,,,,,-0.381866012,-0.244471998,1,0,0,3.01,Andesite_rect,0,0,0,0,1
5cf6150ce42af100015a90c4,SCR,2024-06-10_12h07.51.423,LearnStrategy,2023.2.3,Win32,2.608242045,5,2,2,,,,,,,,7,16,,,,,,,,,,,,,4,3.088,0,,,,,,0.375569477,-0.262065244,1,0,0,3.088,Gabbro_rect,1,0,1,0,1
5cf6150ce42af100015a90c4,SCR,2024-06-10_12h07.51.423,LearnStrategy,2023.2.3,Win32,2.608242045,5,2,3,,,,,,,,2,14,,,,,,,,,,,,,2,5.444,1,,,,,,-0.169821128,-0.258361429,1,0,0,5.444,Basalt_rect,2,0,2,0,1
5cf6150ce42af100015a90c4,SCR,2024-06-10_12h07.51.423,LearnStrategy,2023.2.3,Win32,2.608242045,5,2,4,,,,,,,,3,10,,,,,,,,,,,,,3,6.053,1,,,,,,0.138523663,-0.253731619,1,0,0,6.053,Diorite_rect,3,0,3,0,1
5cf6150ce42af100015a90c4,SCR,2024-06-10_12h07.51.423,LearnStrategy,2023.2.3,Win32,2.608242045,5,2,5,,,,,,,,4,01,,,,,,,,,,,,,1,4.052,0,,,,,,-0.387421762,-0.257435433,1,0,0,4.052,Andesite_rect,4,0,4,0,1
5cf6150ce42af100015a90c4,SCR,2024-06-10_12h07.51.423,LearnStrategy,2023.2.3,Win32,2.608242045,5,2,6,,,,,,,,6,06,,,,,,,,,,,,,6,2.311,1,,,,,,-0.123523138,-0.408366901,1,0,0,2.311,Pegmatite_rect,5,0,5,0,1
5cf6150ce42af100015a90c4,SCR,2024-06-10_12h07.51.423,LearnStrategy,2023.2.3,Win32,2.608242045,5,2,7,,,,,,,,7,06,,,,,,,,,,,,,7,2.275,1,,,,,,0.137597723,-0.404663141,1,0,0,2.275,Peridotite_rect,6,0,6,0,1
5cf6150ce42af100015a90c4,SCR,2024-06-10_12h07.51.423,LearnStrategy,2023.2.3,Win32,2.608242045,5,2,8,,,,,,,,8,05,,,,,,,,,,,,,8,1.458,1,,,,,,0.373717486,-0.405589081,1,0,0,1.458,Pumice_rect,7,0,7,0,1
5cf6150ce42af100015a90c4,SCR,2024-06-10_12h07.51.423,LearnStrategy,2023.2.3,Win32,2.608242045,5,2,9,,,,,,,,8,15,,,,,,,,,,,,,8,1.377,1,,,,,,0.373717486,-0.405589081,1,0,0,1.377,Pumice_rect,8,0,8,0,1
5cf6150ce42af100015a90c4,SCR,2024-06-10_12h07.51.423,LearnStrategy,2023.2.3,Win32,2.608242045,5,2,10,,,,,,,,2,12,,,,,,,,,,,,,1,6.23,0,,,,,,-0.387421762,-0.247249873,1,0,0,6.23,Andesite_rect,9,0,9,0,1
5cf6150ce42af100015a90c4,SCR,2024-06-10_12h07.51.423,LearnStrategy,2023.2.3,Win32,2.608242045,5,2,11,,,,,,,,5,14,,,,,,,,,,,,,2,4.23,0,,,,,,-0.089262587,-0.250953744,1,0,0,4.23,Basalt_rect,10,0,10,0,1
5cf6150ce42af100015a90c4,SCR,2024-06-10_12h07.51.423,LearnStrategy,2023.2.3,Win32,2.608242045,5,2,12,,,,,,,,6,13,,,,,,,,,,,,,6,3.119,1,,,,,,-0.111485642,-0.412996766,1,0,0,3.119,Pegmatite_rect,11,0,11,0,1
5cf6150ce42af100015a90c4,SCR,2024-06-10_12h07.51.423,LearnStrategy,2023.2.3,Win32,2.608242045,5,2,13,,,,,,,,1,06,,,,,,,,,,,,,1,1.724,1,,,,,,-0.371680452,-0.240768183,1,0,0,1.724,Andesite_rect,12,0,12,0,1
5cf6150ce42af100015a90c4,SCR,2024-06-10_12h07.51.423,LearnStrategy,2023.2.3,Win32,2.608242045,5,2,14,,,,,,,,1,07,,,,,,,,,,,,,3,1.584,0,,,,,,0.138523663,-0.258361429,1,0,0,1.584,Diorite_rect,13,0,13,0,1
5cf6150ce42af100015a90c4,SCR,2024-06-10_12h07.51.423,LearnStrategy,2023.2.3,Win32,2.608242045,5,2,15,,,,,,,,3,08,,,,,,,,,,,,,3,2.329,1,,,,,,0.138523663,-0.258361429,1,0,0,2.329,Diorite_rect,14,0,14,0,1
5cf6150ce42af100015a90c4,SCR,2024-06-10_12h07.51.423,LearnStrategy,2023.2.3,Win32,2.608242045,5,2,16,,,,,,,,5,05,,,,,,,,,,,,,3,0.987,0,,,,,,0.138523663,-0.258361429,1,0,0,0.987,Diorite_rect,15,0,15,0,1
5cf6150ce42af100015a90c4,SCR,2024-06-10_12h07.51.423,LearnStrategy,2023.2.3,Win32,2.608242045,6,1,1,-0.389273697,0.087947728,1,0,0,2.779,Pegmatite_09,6,09,4,2,2.779,6,09,-0.123523138,-0.395403466,1,0,0,2.024,Pegmatite_rect,6,2.024,1,0,0,0,0,1,,,,,,,,,,,,
5cf6150ce42af100015a90c4,SCR,2024-06-10_12h07.51.423,LearnStrategy,2023.2.3,Win32,2.608242045,6,1,2,0.082966052,0.388884785,1,0,0,5.464,Obsidian_06,5,06,6,5,5.464,4,14,-0.356865137,-0.399107447,1,0,0,4.571,Obsidian_rect,5,4.571,1,1,0,1,0,1,,,,,,,,,,,,
5cf6150ce42af100015a90c4,SCR,2024-06-10_12h07.51.423,LearnStrategy,2023.2.3,Win32,2.608242045,6,1,3,0.238527385,-0.428738077,1,0,0,1.857,Gabbro_11,4,11,1,6,1.857,4,11,-0.096670272,-0.245398049,1,0,0,6.898,Basalt_rect,2,6.898,0,2,0,2,0,1,,,,,,,,,,,,
5cf6150ce42af100015a90c4,SCR,2024-06-10_12h07.51.423,LearnStrategy,2023.2.3,Win32,2.608242045,6,1,4,-0.515204262,-0.106504021,1,0,0,7.34,Pumice_09,8,09,3,1,7.34,5,11,0.432978968,-0.395403466,1,0,0,2.108,Pumice_rect,8,2.108,1,3,0,3,0,1,,,,,,,,,,,,
5cf6150ce42af100015a90c4,SCR,2024-06-10_12h07.51.423,LearnStrategy,2023.2.3,Win32,2.608242045,6,1,5,0.57557681,-0.088910776,1,0,0,4.222,Pumice_10,8,10,3,8,4.222,1,09,0.434830958,-0.400959271,1,0,0,2.194,Pumice_rect,8,2.194,1,4,0,4,0,1,,,,,,,,,,,,
5cf6150ce42af100015a90c4,SCR,2024-06-10_12h07.51.423,LearnStrategy,2023.2.3,Win32,2.608242045,6,1,6,0.241305204,-0.110207726,1,0,0,2.194,Pumice_16,8,16,3,6,2.194,8,16,0.412607847,-0.397255456,1,0,0,2.96,Pumice_rect,8,2.96,1,5,0,5,0,1,,,,,,,,,,,,
5cf6150ce42af100015a90c4,SCR,2024-06-10_12h07.51.423,LearnStrategy,2023.2.3,Win32,2.608242045,6,1,7,-0.55594653,0.060168895,1,0,0,1.639,Peridotite_14,7,14,4,1,1.639,7,14,0.138523663,-0.404663141,1,0,0,3.3,Peridotite_rect,7,3.3,1,6,0,6,0,1,,,,,,,,,,,,
5cf6150ce42af100015a90c4,SCR,2024-06-10_12h07.51.423,LearnStrategy,2023.2.3,Win32,2.608242045,6,1,8,0.395940486,-0.256509494,1,0,0,1.62,Basalt_09,2,09,2,7,1.62,2,09,-0.074447216,-0.243546058,1,0,0,1.954,Basalt_rect,2,1.954,1,7,0,7,0,1,,,,,,,,,,,,
5cf6150ce42af100015a90c4,SCR,2024-06-10_12h07.51.423,LearnStrategy,2023.2.3,Win32,2.608242045,6,1,9,0.109818862,0.388884785,1,0,0,4.128,Obsidian_06,5,06,6,5,4.128,5,06,-0.342049711,-0.383366026,1,0,0,1.937,Obsidian_rect,5,1.937,1,8,0,8,0,1,,,,,,,,,,,,
5cf6150ce42af100015a90c4,SCR,2024-06-10_12h07.51.423,LearnStrategy,2023.2.3,Win32,2.608242045,6,1,10,0.557983509,-0.400033331,1,0,0,2.323,Andesite_11,1,11,1,8,2.323,1,11,-0.341123771,-0.256509494,1,0,0,1.767,Andesite_rect,1,1.767,1,9,0,9,0,1,,,,,,,,,,,,
5cf6150ce42af100015a90c4,SCR,2024-06-10_12h07.51.423,LearnStrategy,2023.2.3,Win32,2.608242045,6,1,11,0.401496347,-0.392625646,1,0,0,2.173,Obsidian_12,5,12,1,7,2.173,5,12,-0.336493961,-0.408366901,1,0,0,1.772,Obsidian_rect,5,1.772,1,10,0,10,0,1,,,,,,,,,,,,
5cf6150ce42af100015a90c4,SCR,2024-06-10_12h07.51.423,LearnStrategy,2023.2.3,Win32,2.608242045,6,1,12,0.242231144,0.401848227,1,0,0,4.108,Gabbro_14,4,14,6,6,4.108,4,14,0.382051167,-0.235212489,1,0,0,2.616,Gabbro_rect,4,2.616,1,11,0,11,0,1,,,,,,,,,,,,
5cf6150ce42af100015a90c4,SCR,2024-06-10_12h07.51.423,LearnStrategy,2023.2.3,Win32,2.608242045,6,1,13,-0.206859499,0.122208195,1,0,0,1.87,Diorite_14,3,14,4,3,1.87,3,14,0.170006283,-0.235212489,1,0,0,2.376,Diorite_rect,3,2.376,1,12,0,12,0,1,,,,,,,,,,,,
5cf6150ce42af100015a90c4,SCR,2024-06-10_12h07.51.423,LearnStrategy,2023.2.3,Win32,2.608242045,6,1,14,-0.234638249,0.24536094,1,0,0,1.46,Gabbro_12,4,12,5,3,1.46,4,12,0.437608778,-0.237064313,1,0,0,5.203,Gabbro_rect,4,5.203,1,13,0,13,0,1,,,,,,,,,,,,
5cf6150ce42af100015a90c4,SCR,2024-06-10_12h07.51.423,LearnStrategy,2023.2.3,Win32,2.608242045,6,1,15,-0.413348632,-0.261139304,1,0,0,2.197,Andesite_16,1,16,2,2,2.197,1,16,-0.413348632,-0.261139304,1,0,0,2.15,Andesite_rect,1,2.15,1,14,0,14,0,1,,,,,,,,,,,,
5cf6150ce42af100015a90c4,SCR,2024-06-10_12h07.51.423,LearnStrategy,2023.2.3,Win32,2.608242045,6,1,16,-0.196673938,-0.277806554,1,0,0,1.658,Basalt_16,2,16,2,3,1.658,2,16,-0.170747068,-0.242620063,1,0,0,1.913,Basalt_rect,2,1.913,1,15,0,15,0,1,,,,,,,,,,,,
5cf6150ce42af100015a90c4,SCR,2024-06-10_12h07.51.423,LearnStrategy,2023.2.3,Win32,2.608242045,6,2,1,,,,,,,,3,02,,,,,,,,,,,,,3,5.419,1,,,,,,0.074632371,-0.255583609,1,0,0,5.419,Diorite_rect,0,0,0,0,1
5cf6150ce42af100015a90c4,SCR,2024-06-10_12h07.51.423,LearnStrategy,2023.2.3,Win32,2.608242045,6,2,2,,,,,,,,1,04,,,,,,,,,,,,,1,4.839,1,,,,,,-0.367050642,-0.254657558,1,0,0,4.839,Andesite_rect,1,0,1,0,1
5cf6150ce42af100015a90c4,SCR,2024-06-10_12h07.51.423,LearnStrategy,2023.2.3,Win32,2.608242045,6,2,3,,,,,,,,4,08,,,,,,,,,,,,,4,2.222,1,,,,,,0.434830958,-0.266695054,1,0,0,2.222,Gabbro_rect,2,0,2,0,1
5cf6150ce42af100015a90c4,SCR,2024-06-10_12h07.51.423,LearnStrategy,2023.2.3,Win32,2.608242045,6,2,4,,,,,,,,2,10,,,,,,,,,,,,,2,10.006,1,,,,,,-0.180006688,-0.238916248,1,0,0,10.006,Basalt_rect,3,0,3,0,1
5cf6150ce42af100015a90c4,SCR,2024-06-10_12h07.51.423,LearnStrategy,2023.2.3,Win32,2.608242045,6,2,5,,,,,,,,5,04,,,,,,,,,,,,,5,1.953,1,,,,,,-0.357791021,-0.384292021,1,0,0,1.953,Obsidian_rect,4,0,4,0,1
5cf6150ce42af100015a90c4,SCR,2024-06-10_12h07.51.423,LearnStrategy,2023.2.3,Win32,2.608242045,6,2,6,,,,,,,,7,15,,,,,,,,,,,,,7,2.992,1,,,,,,0.128338102,-0.391699762,1,0,0,2.992,Peridotite_rect,5,0,5,0,1
5cf6150ce42af100015a90c4,SCR,2024-06-10_12h07.51.423,LearnStrategy,2023.2.3,Win32,2.608242045,6,2,7,,,,,,,,6,08,,,,,,,,,,,,,6,1.529,1,,,,,,-0.081854902,-0.396329461,1,0,0,1.529,Pegmatite_rect,6,0,6,0,1
5cf6150ce42af100015a90c4,SCR,2024-06-10_12h07.51.423,LearnStrategy,2023.2.3,Win32,2.608242045,6,2,8,,,,,,,,4,15,,,,,,,,,,,,,3,5.287,0,,,,,,0.097781422,-0.263917179,1,0,0,5.287,Diorite_rect,7,0,7,0,1
5cf6150ce42af100015a90c4,SCR,2024-06-10_12h07.51.423,LearnStrategy,2023.2.3,Win32,2.608242045,6,2,9,,,,,,,,1,01,,,,,,,,,,,,,4,7.419,0,,,,,,0.437608778,-0.247249873,1,0,0,7.419,Gabbro_rect,8,0,8,0,1
5cf6150ce42af100015a90c4,SCR,2024-06-10_12h07.51.423,LearnStrategy,2023.2.3,Win32,2.608242045,6,2,10,,,,,,,,7,13,,,,,,,,,,,,,7,8.177,1,,,,,,0.157042792,-0.400033331,1,0,0,8.177,Peridotite_rect,9,0,9,0,1
5cf6150ce42af100015a90c4,SCR,2024-06-10_12h07.51.423,LearnStrategy,2023.2.3,Win32,2.608242045,6,2,11,,,,,,,,5,02,,,,,,,,,,,,,5,1.711,1,,,,,,-0.369828517,-0.402811206,1,0,0,1.711,Obsidian_rect,10,0,10,0,1
5cf6150ce42af100015a90c4,SCR,2024-06-10_12h07.51.423,LearnStrategy,2023.2.3,Win32,2.608242045,6,2,12,,,,,,,,6,07,,,,,,,,,,,,,6,1.744,1,,,,,,-0.164265267,-0.402811206,1,0,0,1.744,Pegmatite_rect,11,0,11,0,1
5cf6150ce42af100015a90c4,SCR,2024-06-10_12h07.51.423,LearnStrategy,2023.2.3,Win32,2.608242045,6,2,13,,,,,,,,8,04,,,,,,,,,,,,,8,1.745,1,,,,,,0.420015699,-0.420404452,1,0,0,1.745,Pumice_rect,12,0,12,0,1
5cf6150ce42af100015a90c4,SCR,2024-06-10_12h07.51.423,LearnStrategy,2023.2.3,Win32,2.608242045,6,2,14,,,,,,,,3,06,,,,,,,,,,,,,3,4.303,1,,,,,,0.166302413,-0.250953744,1,0,0,4.303,Diorite_rect,13,0,13,0,1
5cf6150ce42af100015a90c4,SCR,2024-06-10_12h07.51.423,LearnStrategy,2023.2.3,Win32,2.608242045,6,2,15,,,,,,,,8,13,,,,,,,,,,,,,8,4.073,1,,,,,,0.424645509,-0.412996766,1,0,0,4.073,Pumice_rect,14,0,14,0,1
5cf6150ce42af100015a90c4,SCR,2024-06-10_12h07.51.423,LearnStrategy,2023.2.3,Win32,2.608242045,6,2,16,,,,,,,,2,08,,,,,,,,,,,,,2,3.583,1,,,,,,-0.135560577,-0.256509494,1,0,0,3.583,Basalt_rect,15,0,15,0,1
5cf6150ce42af100015a90c4,SCR,2024-06-10_12h07.51.423,LearnStrategy,2023.2.3,Win32,2.608242045,7,1,1,0.435756898,0.107392908,1,0,0,2.785,Gabbro_16,4,16,4,7,2.785,4,16,0.432053028,-0.236138373,1,0,0,2.43,Gabbro_rect,4,2.43,1,0,0,0,0,1,,,,,,,,,,,,
5cf6150ce42af100015a90c4,SCR,2024-06-10_12h07.51.423,LearnStrategy,2023.2.3,Win32,2.608242045,7,1,2,0.502426009,0.075910232,1,0,0,1.74,Gabbro_10,4,10,4,8,1.74,4,10,0.387606917,-0.228730688,1,0,0,2.257,Gabbro_rect,4,2.257,1,1,0,1,0,1,,,,,,,,,,,,
5cf6150ce42af100015a90c4,SCR,2024-06-10_12h07.51.423,LearnStrategy,2023.2.3,Win32,2.608242045,7,1,3,-0.046668411,0.223137857,1,0,0,2.227,Basalt_11,2,11,5,4,2.227,2,11,-0.431867873,-0.231508563,1,0,0,6.992,Andesite_rect,1,6.992,0,2,0,2,0,1,,,,,,,,,,,,
5cf6150ce42af100015a90c4,SCR,2024-06-10_12h07.51.423,LearnStrategy,2023.2.3,Win32,2.608242045,7,1,4,0.528352879,-0.274102739,1,0,0,2.341,Andesite_10,1,10,2,8,2.341,1,10,-0.407792882,-0.245398049,1,0,0,6.06,Andesite_rect,1,6.06,1,3,0,3,0,1,,,,,,,,,,,,
5cf6150ce42af100015a90c4,SCR,2024-06-10_12h07.51.423,LearnStrategy,2023.2.3,Win32,2.608242045,7,1,5,0.041297871,0.226841728,1,0,0,1.649,Diorite_11,3,11,5,5,1.649,3,11,0.175561922,-0.237990308,1,0,0,1.56,Diorite_rect,3,1.56,1,4,0,4,0,1,,,,,,,,,,,,
5cf6150ce42af100015a90c4,SCR,2024-06-10_12h07.51.423,LearnStrategy,2023.2.3,Win32,2.608242045,7,1,6,0.072780491,-0.087984725,1,0,0,2.558,Gabbro_05,4,05,3,5,2.558,4,05,0.407978037,-0.258361429,1,0,0,6.896,Gabbro_rect,4,6.896,1,5,0,5,0,1,,,,,,,,,,,,
5cf6150ce42af100015a90c4,SCR,2024-06-10_12h07.51.423,LearnStrategy,2023.2.3,Win32,2.608242045,7,1,7,-0.357791021,-0.245398049,1,0,0,4.562,Andesite_16,1,16,2,2,4.562,1,16,-0.357791021,-0.245398049,1,0,0,1.375,Andesite_rect,1,1.375,1,6,0,6,0,1,,,,,,,,,,,,
5cf6150ce42af100015a90c4,SCR,2024-06-10_12h07.51.423,LearnStrategy,2023.2.3,Win32,2.608242045,7,1,8,-0.220748984,-0.400033331,1,0,0,1.814,Peridotite_05,7,05,1,3,1.814,7,05,0.119078482,-0.410218891,1,0,0,2.119,Peridotite_rect,7,2.119,1,7,0,7,0,1,,,,,,,,,,,,
5cf6150ce42af100015a90c4,SCR,2024-06-10_12h07.51.423,LearnStrategy,2023.2.3,Win32,2.608242045,7,1,9,-0.376310262,0.071280422,1,0,0,1.28,Pegmatite_09,6,09,4,2,1.28,6,09,-0.129078888,-0.408366901,1,0,0,1.689,Pegmatite_rect,6,1.689,1,8,0,8,0,1,,,,,,,,,,,,
5cf6150ce42af100015a90c4,SCR,2024-06-10_12h07.51.423,LearnStrategy,2023.2.3,Win32,2.608242045,7,1,10,-0.502240827,-0.265769058,1,0,0,2.036,Obsidian_11,5,11,2,1,2.036,5,11,-0.363346716,-0.413922706,1,0,0,5.662,Obsidian_rect,5,5.662,1,9,0,9,0,1,,,,,,,,,,,,
5cf6150ce42af100015a90c4,SCR,2024-06-10_12h07.51.423,LearnStrategy,2023.2.3,Win32,2.608242045,7,1,11,0.241305204,-0.403737146,1,0,0,2.173,Gabbro_11,4,11,1,6,2.173,4,11,0.462609708,-0.268546989,1,0,0,13.051,Gabbro_rect,4,13.051,1,10,0,10,0,1,,,,,,,,,,,,
5cf6150ce42af100015a90c4,SCR,2024-06-10_12h07.51.423,LearnStrategy,2023.2.3,Win32,2.608242045,7,1,12,0.261676324,-0.250953744,1,0,0,11.989,Obsidian_10,5,10,2,6,11.989,5,10,-0.405940947,-0.392625646,1,0,0,1.78,Obsidian_rect,5,1.78,1,11,0,11,0,1,,,,,,,,,,,,
5cf6150ce42af100015a90c4,SCR,2024-06-10_12h07.51.423,LearnStrategy,2023.2.3,Win32,2.608242045,7,1,13,0.58020662,-0.08613279,1,0,0,5.506,Pumice_10,8,10,3,8,5.506,8,10,0.432978968,-0.410218891,1,0,0,1.384,Pumice_rect,8,1.384,1,12,0,12,0,1,,,,,,,,,,,,
5cf6150ce42af100015a90c4,SCR,2024-06-10_12h07.51.423,LearnStrategy,2023.2.3,Win32,2.608242045,7,1,14,-0.376310262,0.359254051,1,0,0,1.816,Andesite_09,1,09,6,2,1.816,1,09,-0.397607322,-0.232434503,1,0,0,1.808,Andesite_rect,1,1.808,1,13,0,13,0,1,,,,,,,,,,,,
5cf6150ce42af100015a90c4,SCR,2024-06-10_12h07.51.423,LearnStrategy,2023.2.3,Win32,2.608242045,7,1,15,-0.223526804,-0.109281841,1,0,0,2.523,Basalt_06,2,06,3,3,2.523,2,06,-0.105929837,-0.260213308,1,0,0,2.294,Basalt_rect,2,2.294,1,14,0,14,0,1,,,,,,,,,,,,
5cf6150ce42af100015a90c4,SCR,2024-06-10_12h07.51.423,LearnStrategy,2023.2.3,Win32,2.608242045,7,1,16,-0.345753471,0.36203194,1,0,0,1.624,Andesite_09,1,09,6,2,1.624,1,09,-0.341123771,-0.241694123,1,0,0,1.541,Andesite_rect,1,1.541,1,15,0,15,0,1,,,,,,,,,,,,
5cf6150ce42af100015a90c4,SCR,2024-06-10_12h07.51.423,LearnStrategy,2023.2.3,Win32,2.608242045,7,2,1,,,,,,,,5,07,,,,,,,,,,,,,5,2.424,1,,,,,,-0.348531456,-0.403737146,1,0,0,2.424,Obsidian_rect,0,0,0,0,1
5cf6150ce42af100015a90c4,SCR,2024-06-10_12h07.51.423,LearnStrategy,2023.2.3,Win32,2.608242045,7,2,2,,,,,,,,8,15,,,,,,,,,,,,,8,1.712,1,,,,,,0.407052097,-0.405589081,1,0,0,1.712,Pumice_rect,1,0,1,0,1
5cf6150ce42af100015a90c4,SCR,2024-06-10_12h07.51.423,LearnStrategy,2023.2.3,Win32,2.608242045,7,2,3,,,,,,,,4,08,,,,,,,,,,,,,4,1.974,1,,,,,,0.403348227,-0.244471998,1,0,0,1.974,Gabbro_rect,2,0,2,0,1
5cf6150ce42af100015a90c4,SCR,2024-06-10_12h07.51.423,LearnStrategy,2023.2.3,Win32,2.608242045,7,2,4,,,,,,,,1,14,,,,,,,,,,,,,1,7.382,1,,,,,,-0.454090901,-0.235212489,1,0,0,7.382,Andesite_rect,3,0,3,0,1
5cf6150ce42af100015a90c4,SCR,2024-06-10_12h07.51.423,LearnStrategy,2023.2.3,Win32,2.608242045,7,2,5,,,,,,,,2,08,,,,,,,,,,,,,2,12.662,1,,,,,,-0.136486517,-0.262991294,1,0,0,12.662,Basalt_rect,4,0,4,0,1
5cf6150ce42af100015a90c4,SCR,2024-06-10_12h07.51.423,LearnStrategy,2023.2.3,Win32,2.608242045,7,2,6,,,,,,,,5,09,,,,,,,,,,,,,5,1.64,1,,,,,,-0.383717947,-0.401885266,1,0,0,1.64,Obsidian_rect,5,0,5,0,1
5cf6150ce42af100015a90c4,SCR,2024-06-10_12h07.51.423,LearnStrategy,2023.2.3,Win32,2.608242045,7,2,7,,,,,,,,6,10,,,,,,,,,,,,,6,2.255,1,,,,,,-0.141116327,-0.396329461,1,0,0,2.255,Pegmatite_rect,6,0,6,0,1
5cf6150ce42af100015a90c4,SCR,2024-06-10_12h07.51.423,LearnStrategy,2023.2.3,Win32,2.608242045,7,2,8,,,,,,,,8,04,,,,,,,,,,,,,8,2.689,1,,,,,,0.405200217,-0.411144831,1,0,0,2.689,Pumice_rect,7,0,7,0,1
5cf6150ce42af100015a90c4,SCR,2024-06-10_12h07.51.423,LearnStrategy,2023.2.3,Win32,2.608242045,7,2,9,,,,,,,,3,06,,,,,,,,,,,,,3,4.709,1,,,,,,0.128338102,-0.257435433,1,0,0,4.709,Diorite_rect,8,0,8,0,1
5cf6150ce42af100015a90c4,SCR,2024-06-10_12h07.51.423,LearnStrategy,2023.2.3,Win32,2.608242045,7,2,10,,,,,,,,3,02,,,,,,,,,,,,,3,1.36,1,,,,,,0.128338102,-0.256509494,1,0,0,1.36,Diorite_rect,9,0,9,0,1
5cf6150ce42af100015a90c4,SCR,2024-06-10_12h07.51.423,LearnStrategy,2023.2.3,Win32,2.608242045,7,2,11,,,,,,,,7,15,,,,,,,,,,,,,7,2.17,1,,,,,,0.152413204,-0.399107447,1,0,0,2.17,Peridotite_rect,10,0,10,0,1
5cf6150ce42af100015a90c4,SCR,2024-06-10_12h07.51.423,LearnStrategy,2023.2.3,Win32,2.608242045,7,2,12,,,,,,,,1,02,,,,,,,,,,,,,1,6.287,1,,,,,,-0.370754457,-0.246323878,1,0,0,6.287,Andesite_rect,11,0,11,0,1
5cf6150ce42af100015a90c4,SCR,2024-06-10_12h07.51.423,LearnStrategy,2023.2.3,Win32,2.608242045,7,2,13,,,,,,,,4,03,,,,,,,,,,,,,4,4.588,1,,,,,,0.364458088,-0.261139304,1,0,0,4.588,Gabbro_rect,12,0,12,0,1
5cf6150ce42af100015a90c4,SCR,2024-06-10_12h07.51.423,LearnStrategy,2023.2.3,Win32,2.608242045,7,2,14,,,,,,,,2,14,,,,,,,,,,,,,2,2.013,1,,,,,,-0.143894147,-0.250953744,1,0,0,2.013,Basalt_rect,13,0,13,0,1
5cf6150ce42af100015a90c4,SCR,2024-06-10_12h07.51.423,LearnStrategy,2023.2.3,Win32,2.608242045,7,2,15,,,,,,,,7,10,,,,,,,,,,,,,7,2.392,1,,,,,,0.120004422,-0.407441016,1,0,0,2.392,Peridotite_rect,14,0,14,0,1
5cf6150ce42af100015a90c4,SCR,2024-06-10_12h07.51.423,LearnStrategy,2023.2.3,Win32,2.608242045,7,2,16,,,,,,,,6,07,,,,,,,,,,,,,6,2.53,1,,,,,,-0.134634638,-0.394477581,1,0,0,2.53,Pegmatite_rect,15,0,15,0,1
5cf6150ce42af100015a90c4,SCR,2024-06-10_12h07.51.423,LearnStrategy,2023.2.3,Win32,2.608242045,8,1,1,-0.369828517,-0.258361429,1,0,0,3.981,Andesite_16,1,16,2,2,3.981,1,16,-0.374458327,-0.242620063,1,0,0,3.067,Andesite_rect,1,3.067,1,0,0,0,0,1,,,,,,,,,,,,
5cf6150ce42af100015a90c4,SCR,2024-06-10_12h07.51.423,LearnStrategy,2023.2.3,Win32,2.608242045,8,1,2,-0.397607322,-0.067613605,1,0,0,1.615,Diorite_07,3,07,3,2,1.615,3,07,0.101485181,-0.237990308,1,0,0,2.179,Diorite_rect,3,2.179,1,1,0,1,0,1,,,,,,,,,,,,
5cf6150ce42af100015a90c4,SCR,2024-06-10_12h07.51.423,LearnStrategy,2023.2.3,Win32,2.608242045,8,1,3,0.054261251,-0.090762545,1,0,0,1.818,Gabbro_05,4,05,3,5,1.818,4,05,0.423719347,-0.239842133,1,0,0,3.441,Gabbro_rect,4,3.441,1,2,0,2,0,1,,,,,,,,,,,,
5cf6150ce42af100015a90c4,SCR,2024-06-10_12h07.51.423,LearnStrategy,2023.2.3,Win32,2.608242045,8,1,4,-0.387421762,-0.246323878,1,0,0,2.533,Andesite_16,1,16,2,2,2.533,1,16,-0.407792882,-0.260213308,1,0,0,2.166,Andesite_rect,1,2.166,1,3,0,3,0,1,,,,,,,,,,,,
5cf6150ce42af100015a90c4,SCR,2024-06-10_12h07.51.423,LearnStrategy,2023.2.3,Win32,2.608242045,8,1,5,-0.230934489,-0.257435433,1,0,0,1.446,Basalt_16,2,16,2,3,1.446,2,16,-0.164265267,-0.238916248,1,0,0,1.123,Basalt_rect,2,1.123,1,4,0,4,0,1,,,,,,,,,,,,
5cf6150ce42af100015a90c4,SCR,2024-06-10_12h07.51.423,LearnStrategy,2023.2.3,Win32,2.608242045,8,1,6,0.216304274,-0.413922706,1,0,0,1.641,Gabbro_11,4,11,1,6,1.641,4,11,0.455202189,-0.253731619,1,0,0,8.841,Gabbro_rect,4,8.841,1,5,0,5,0,1,,,,,,,,,,,,
5cf6150ce42af100015a90c4,SCR,2024-06-10_12h07.51.423,LearnStrategy,2023.2.3,Win32,2.608242045,8,1,7,-0.226304679,-0.068539545,1,0,0,2.357,Basalt_06,2,06,3,3,2.357,2,06,-0.162413498,-0.235212489,1,0,0,2.717,Basalt_rect,2,2.717,1,6,0,6,0,1,,,,,,,,,,,,
5cf6150ce42af100015a90c4,SCR,2024-06-10_12h07.51.423,LearnStrategy,2023.2.3,Win32,2.608242045,8,1,8,-0.033704976,-0.078725105,1,0,0,1.266,Peridotite_12,7,12,3,4,1.266,7,12,0.141301482,-0.236138373,1,0,0,7.451,Diorite_rect,3,7.451,0,7,0,7,0,1,,,,,,,,,,,,
5cf6150ce42af100015a90c4,SCR,2024-06-10_12h07.51.423,LearnStrategy,2023.2.3,Win32,2.608242045,8,1,9,0.209822584,0.372217486,1,0,0,2.238,Gabbro_14,4,14,6,6,2.238,4,14,0.495944319,-0.251879683,1,0,0,3.476,Gabbro_rect,4,3.476,1,8,0,8,0,1,,,,,,,,,,,,
5cf6150ce42af100015a90c4,SCR,2024-06-10_12h07.51.423,LearnStrategy,2023.2.3,Win32,2.608242045,8,1,10,0.210748524,0.064798705,1,0,0,3.305,Obsidian_16,5,16,4,6,3.305,5,16,-0.389273697,-0.384292021,1,0,0,2.141,Obsidian_rect,5,2.141,1,9,0,9,0,1,,,,,,,,,,,,
5cf6150ce42af100015a90c4,SCR,2024-06-10_12h07.51.423,LearnStrategy,2023.2.3,Win32,2.608242045,8,1,11,0.54687212,-0.422256387,1,0,0,1.665,Andesite_11,1,11,1,8,1.665,1,11,-0.357791021,-0.242620063,1,0,0,1.421,Andesite_rect,1,1.421,1,10,0,10,0,1,,,,,,,,,,,,
5cf6150ce42af100015a90c4,SCR,2024-06-10_12h07.51.423,LearnStrategy,2023.2.3,Win32,2.608242045,8,1,12,0.54131637,0.211100445,1,0,0,1.825,Andesite_05,1,05,5,8,1.825,1,05,-0.369828517,-0.258361429,1,0,0,3.89,Andesite_rect,1,3.89,1,11,0,11,0,1,,,,,,,,,,,,
5cf6150ce42af100015a90c4,SCR,2024-06-10_12h07.51.423,LearnStrategy,2023.2.3,Win32,2.608242045,8,1,13,0.242231144,0.056465052,1,0,0,1.289,Obsidian_16,5,16,4,6,1.289,5,16,-0.408718767,-0.38244003,1,0,0,1.369,Obsidian_rect,5,1.369,1,12,0,12,0,1,,,,,,,,,,,,
5cf6150ce42af100015a90c4,SCR,2024-06-10_12h07.51.423,LearnStrategy,2023.2.3,Win32,2.608242045,8,1,14,0.086670033,0.107392908,1,0,0,1.282,Pegmatite_16,6,16,4,5,1.282,6,16,-0.087410652,-0.378736216,1,0,0,2.133,Pegmatite_rect,6,2.133,1,13,0,13,0,1,,,,,,,,,,,,
5cf6150ce42af100015a90c4,SCR,2024-06-10_12h07.51.423,LearnStrategy,2023.2.3,Win32,2.608242045,8,1,15,-0.227230619,0.250916663,1,0,0,2.54,Gabbro_12,4,12,5,3,2.54,4,12,0.400570407,-0.246323878,1,0,0,2.673,Gabbro_rect,4,2.673,1,14,0,14,0,1,,,,,,,,,,,,
5cf6150ce42af100015a90c4,SCR,2024-06-10_12h07.51.423,LearnStrategy,2023.2.3,Win32,2.608242045,8,1,16,0.506129768,-0.098170286,1,0,0,1.876,Pumice_10,8,10,3,8,1.876,8,10,0.439460657,-0.401885266,1,0,0,1.154,Pumice_rect,8,1.154,1,15,0,15,0,1,,,,,,,,,,,,
5cf6150ce42af100015a90c4,SCR,2024-06-10_12h07.51.423,LearnStrategy,2023.2.3,Win32,2.608242045,8,2,1,,,,,,,,7,16,,,,,,,,,,,,,4,11.802,0,,,,,,0.411681907,-0.237990308,1,0,0,11.802,Gabbro_rect,0,0,0,0,1
5cf6150ce42af100015a90c4,SCR,2024-06-10_12h07.51.423,LearnStrategy,2023.2.3,Win32,2.608242045,8,2,2,,,,,,,,8,13,,,,,,,,,,,,,8,1.548,1,,,,,,0.400570407,-0.412996766,1,0,0,1.548,Pumice_rect,1,0,1,0,1
5cf6150ce42af100015a90c4,SCR,2024-06-10_12h07.51.423,LearnStrategy,2023.2.3,Win32,2.608242045,8,2,3,,,,,,,,2,12,,,,,,,,,,,,,1,6.89,0,,,,,,-0.383717947,-0.250953744,1,0,0,6.89,Andesite_rect,2,0,2,0,1
5cf6150ce42af100015a90c4,SCR,2024-06-10_12h07.51.423,LearnStrategy,2023.2.3,Win32,2.608242045,8,2,4,,,,,,,,7,13,,,,,,,,,,,,,7,1.769,1,,,,,,0.149635163,-0.400959271,1,0,0,1.769,Peridotite_rect,3,0,3,0,1
5cf6150ce42af100015a90c4,SCR,2024-06-10_12h07.51.423,LearnStrategy,2023.2.3,Win32,2.608242045,8,2,5,,,,,,,,6,08,,,,,,,,,,,,,6,1.413,1,,,,,,-0.098522096,-0.38244003,1,0,0,1.413,Pegmatite_rect,4,0,4,0,1
5cf6150ce42af100015a90c4,SCR,2024-06-10_12h07.51.423,LearnStrategy,2023.2.3,Win32,2.608242045,8,2,6,,,,,,,,2,10,,,,,,,,,,,,,2,9.436,1,,,,,,-0.156857693,-0.230582623,1,0,0,9.436,Basalt_rect,5,0,5,0,1
5cf6150ce42af100015a90c4,SCR,2024-06-10_12h07.51.423,LearnStrategy,2023.2.3,Win32,2.608242045,8,2,7,,,,,,,,4,15,,,,,,,,,,,,,3,1.233,0,,,,,,0.170006283,-0.247249873,1,0,0,1.233,Diorite_rect,6,0,6,0,1
5cf6150ce42af100015a90c4,SCR,2024-06-10_12h07.51.423,LearnStrategy,2023.2.3,Win32,2.608242045,8,2,8,,,,,,,,4,09,,,,,,,,,,,,,4,2.429,1,,,,,,0.381125227,-0.249101808,1,0,0,2.429,Gabbro_rect,7,0,7,0,1
5cf6150ce42af100015a90c4,SCR,2024-06-10_12h07.51.423,LearnStrategy,2023.2.3,Win32,2.608242045,8,2,9,,,,,,,,1,07,,,,,,,,,,,,,3,2.547,0,,,,,,0.128338102,-0.263917179,1,0,0,2.547,Diorite_rect,8,0,8,0,1
5cf6150ce42af100015a90c4,SCR,2024-06-10_12h07.51.423,LearnStrategy,2023.2.3,Win32,2.608242045,8,2,10,,,,,,,,5,04,,,,,,,,,,,,,5,1.777,1,,,,,,-0.426312095,-0.387069896,1,0,0,1.777,Obsidian_rect,9,0,9,0,1
5cf6150ce42af100015a90c4,SCR,2024-06-10_12h07.51.423,LearnStrategy,2023.2.3,Win32,2.608242045,8,2,11,,,,,,,,3,10,,,,,,,,,,,,,3,2.382,1,,,,,,0.120930362,-0.250027748,1,0,0,2.382,Diorite_rect,10,0,10,0,1
5cf6150ce42af100015a90c4,SCR,2024-06-10_12h07.51.423,LearnStrategy,2023.2.3,Win32,2.608242045,8,2,12,,,,,,,,8,05,,,,,,,,,,,,,8,1.566,1,,,,,,0.402422176,-0.407441016,1,0,0,1.566,Pumice_rect,11,0,11,0,1
5cf6150ce42af100015a90c4,SCR,2024-06-10_12h07.51.423,LearnStrategy,2023.2.3,Win32,2.608242045,8,2,13,,,,,,,,6,13,,,,,,,,,,,,,6,1.873,1,,,,,,-0.172599003,-0.411144831,1,0,0,1.873,Pegmatite_rect,12,0,12,0,1
5cf6150ce42af100015a90c4,SCR,2024-06-10_12h07.51.423,LearnStrategy,2023.2.3,Win32,2.608242045,8,2,14,,,,,,,,1,01,,,,,,,,,,,,,4,4.686,0,,,,,,0.482980829,-0.268546989,1,0,0,4.686,Gabbro_rect,13,0,13,0,1
5cf6150ce42af100015a90c4,SCR,2024-06-10_12h07.51.423,LearnStrategy,2023.2.3,Win32,2.608242045,8,2,15,,,,,,,,3,08,,,,,,,,,,,,,3,1.586,1,,,,,,0.126486112,-0.234286438,1,0,0,1.586,Diorite_rect,14,0,14,0,1
5cf6150ce42af100015a90c4,SCR,2024-06-10_12h07.51.423,LearnStrategy,2023.2.3,Win32,2.608242045,8,2,16,,,,,,,,5,05,,,,,,,,,,,,,3,1.545,0,,,,,,0.126486112,-0.237064313,1,0,0,1.545,Diorite_rect,15,0,15,0,1
5cf6150ce42af100015a90c4,SCR,2024-06-10_12h07.51.423,LearnStrategy,2023.2.3,Win32,2.608242045,9,1,1,0.393162667,0.08239195,1,0,0,1.852,Gabbro_16,4,16,4,7,1.852,4,16,0.414459727,-0.253731619,1,0,0,2.284,Gabbro_rect,4,2.284,1,0,0,0,0,1,,,,,,,,,,,,
5cf6150ce42af100015a90c4,SCR,2024-06-10_12h07.51.423,LearnStrategy,2023.2.3,Win32,2.608242045,9,1,2,-0.229082554,-0.104652031,1,0,0,2.701,Basalt_06,2,06,3,3,2.701,2,06,-0.142042323,-0.250953744,1,0,0,4.766,Basalt_rect,2,4.766,1,1,0,1,0,1,,,,,,,,,,,,
5cf6150ce42af100015a90c4,SCR,2024-06-10_12h07.51.423,LearnStrategy,2023.2.3,Win32,2.608242045,9,1,3,0.366309857,0.06757658,1,0,0,1.672,Gabbro_16,4,16,4,7,1.672,4,16,0.409830138,-0.255583609,1,0,0,2.211,Gabbro_rect,4,2.211,1,2,0,2,0,1,,,,,,,,,,,,
5cf6150ce42af100015a90c4,SCR,2024-06-10_12h07.51.423,LearnStrategy,2023.2.3,Win32,2.608242045,9,1,4,-0.040186666,0.056465052,1,0,0,1.85,Peridotite_07,7,07,4,4,1.85,7,07,0.148709223,-0.400033331,1,0,0,2.656,Peridotite_rect,7,2.656,1,3,0,3,0,1,,,,,,,,,,,,
5cf6150ce42af100015a90c4,SCR,2024-06-10_12h07.51.423,LearnStrategy,2023.2.3,Win32,2.608242045,9,1,5,0.069076621,0.365735769,1,0,0,2.579,Obsidian_06,5,06,6,5,2.579,5,06,-0.406866942,-0.38244003,1,0,0,4.244,Obsidian_rect,5,4.244,1,4,0,4,0,1,,,,,,,,,,,,
5cf6150ce42af100015a90c4,SCR,2024-06-10_12h07.51.423,LearnStrategy,2023.2.3,Win32,2.608242045,9,1,6,0.58298455,0.212952325,1,0,0,5.037,Andesite_05,1,05,5,8,5.037,1,05,-0.366124702,-0.245398049,1,0,0,3.037,Andesite_rect,1,3.037,1,5,0,5,0,1,,,,,,,,,,,,
5cf6150ce42af100015a90c4,SCR,2024-06-10_12h07.51.423,LearnStrategy,2023.2.3,Win32,2.608242045,9,1,7,0.211674464,-0.283362359,1,0,0,1.428,Obsidian_10,5,10,2,6,1.428,5,10,-0.405940947,-0.385217961,1,0,0,2.711,Obsidian_rect,5,2.711,1,6,0,6,0,1,,,,,,,,,,,,
5cf6150ce42af100015a90c4,SCR,2024-06-10_12h07.51.423,LearnStrategy,2023.2.3,Win32,2.608242045,9,1,8,-0.375384267,0.378699218,1,0,0,2.518,Andesite_09,1,09,6,2,2.518,1,09,-0.396681382,-0.237990308,1,0,0,1.768,Andesite_rect,1,1.768,1,7,0,7,0,1,,,,,,,,,,,,
5cf6150ce42af100015a90c4,SCR,2024-06-10_12h07.51.423,LearnStrategy,2023.2.3,Win32,2.608242045,9,1,9,-0.373532276,-0.238916248,1,0,0,1.954,Andesite_16,1,16,2,2,1.954,1,16,-0.373532276,-0.238916248,1,0,0,1.922,Andesite_rect,1,1.922,1,8,0,8,0,1,,,,,,,,,,,,
5cf6150ce42af100015a90c4,SCR,2024-06-10_12h07.51.423,LearnStrategy,2023.2.3,Win32,2.608242045,9,1,10,-0.351309331,-0.381514201,1,0,0,2.547,Pegmatite_05,6,05,1,2,2.547,6,05,-0.191118188,-0.390773711,1,0,0,2.677,Pegmatite_rect,6,2.677,1,9,0,9,0,1,,,,,,,,,,,,
5cf6150ce42af100015a90c4,SCR,2024-06-10_12h07.51.423,LearnStrategy,2023.2.3,Win32,2.608242045,9,1,11,0.196859093,-0.119467401,1,0,0,2.005,Pumice_16,8,16,3,6,2.005,8,16,0.410755967,-0.395403466,1,0,0,5.202,Pumice_rect,8,5.202,1,10,0,10,0,1,,,,,,,,,,,,
5cf6150ce42af100015a90c4,SCR,2024-06-10_12h07.51.423,LearnStrategy,2023.2.3,Win32,2.608242045,9,1,12,-0.25686136,-0.397255456,1,0,0,2.331,Peridotite_05,7,05,1,3,2.331,7,05,0.107966982,-0.402811206,1,0,0,2.453,Peridotite_rect,7,2.453,1,11,0,11,0,1,,,,,,,,,,,,
5cf6150ce42af100015a90c4,SCR,2024-06-10_12h07.51.423,LearnStrategy,2023.2.3,Win32,2.608242045,9,1,13,-0.057779911,0.226841728,1,0,0,1.493,Basalt_11,2,11,5,4,1.493,2,11,-0.387421762,-0.250953744,1,0,0,2.759,Andesite_rect,1,2.759,0,12,0,12,0,1,,,,,,,,,,,,
5cf6150ce42af100015a90c4,SCR,2024-06-10_12h07.51.423,LearnStrategy,2023.2.3,Win32,2.608242045,9,1,14,0.395940486,0.088873668,1,0,0,3.388,Gabbro_16,4,16,4,7,3.388,4,16,-0.144820198,-0.234286438,1,0,0,1.742,Basalt_rect,2,1.742,0,13,0,13,0,1,,,,,,,,,,,,
5cf6150ce42af100015a90c4,SCR,2024-06-10_12h07.51.423,LearnStrategy,2023.2.3,Win32,2.608242045,9,1,15,-0.219822989,0.071280422,1,0,0,1.647,Diorite_14,3,14,4,3,1.647,3,14,0.137597723,-0.247249873,1,0,0,1.169,Diorite_rect,3,1.169,1,14,0,14,0,1,,,,,,,,,,,,
5cf6150ce42af100015a90c4,SCR,2024-06-10_12h07.51.423,LearnStrategy,2023.2.3,Win32,2.608242045,9,1,16,-0.365198707,0.398144378,1,0,0,8.232,Andesite_09,1,09,6,2,8.232,1,09,-0.364272767,-0.241694123,1,0,0,1.961,Andesite_rect,1,1.961,1,15,0,15,0,1,,,,,,,,,,,,
5cf6150ce42af100015a90c4,SCR,2024-06-10_12h07.51.423,LearnStrategy,2023.2.3,Win32,2.608242045,9,2,1,,,,,,,,6,11,,,,,,,,,,,,,6,1.902,1,,,,,,-0.092966402,-0.396329461,1,0,0,1.902,Pegmatite_rect,0,0,0,0,1
5cf6150ce42af100015a90c4,SCR,2024-06-10_12h07.51.423,LearnStrategy,2023.2.3,Win32,2.608242045,9,2,2,,,,,,,,5,02,,,,,,,,,,,,,5,1.558,1,,,,,,-0.335567911,-0.381514201,1,0,0,1.558,Obsidian_rect,1,0,1,0,1
5cf6150ce42af100015a90c4,SCR,2024-06-10_12h07.51.423,LearnStrategy,2023.2.3,Win32,2.608242045,9,2,3,,,,,,,,7,06,,,,,,,,,,,,,7,4.843,1,,,,,,0.104263112,-0.405589081,1,0,0,4.843,Peridotite_rect,2,0,2,0,1
5cf6150ce42af100015a90c4,SCR,2024-06-10_12h07.51.423,LearnStrategy,2023.2.3,Win32,2.608242045,9,2,4,,,,,,,,8,02,,,,,,,,,,,,,8,3.446,1,,,,,,0.439460657,-0.409293007,1,0,0,3.446,Pumice_rect,3,0,3,0,1
5cf6150ce42af100015a90c4,SCR,2024-06-10_12h07.51.423,LearnStrategy,2023.2.3,Win32,2.608242045,9,2,5,,,,,,,,5,14,,,,,,,,,,,,,5,5.96,1,,,,,,-0.396681382,-0.386143901,1,0,0,5.96,Obsidian_rect,4,0,4,0,1
5cf6150ce42af100015a90c4,SCR,2024-06-10_12h07.51.423,LearnStrategy,2023.2.3,Win32,2.608242045,9,2,6,,,,,,,,3,12,,,,,,,,,,,,,3,1.658,1,,,,,,0.108892922,-0.258361429,1,0,0,1.658,Diorite_rect,5,0,5,0,1
5cf6150ce42af100015a90c4,SCR,2024-06-10_12h07.51.423,LearnStrategy,2023.2.3,Win32,2.608242045,9,2,7,,,,,,,,3,15,,,,,,,,,,,,,3,2.597,1,,,,,,0.108892922,-0.258361429,1,0,0,2.597,Diorite_rect,6,0,6,0,1
5cf6150ce42af100015a90c4,SCR,2024-06-10_12h07.51.423,LearnStrategy,2023.2.3,Win32,2.608242045,9,2,8,,,,,,,,2,04,,,,,,,,,,,,,2,1.529,1,,,,,,-0.105929837,-0.250027748,1,0,0,1.529,Basalt_rect,7,0,7,0,1
5cf6150ce42af100015a90c4,SCR,2024-06-10_12h07.51.423,LearnStrategy,2023.2.3,Win32,2.608242045,9,2,9,,,,,,,,8,14,,,,,,,,,,,,,8,1.749,1,,,,,,0.403348227,-0.405589081,1,0,0,1.749,Pumice_rect,8,0,8,0,1
5cf6150ce42af100015a90c4,SCR,2024-06-10_12h07.51.423,LearnStrategy,2023.2.3,Win32,2.608242045,9,2,10,,,,,,,,4,01,,,,,,,,,,,,,1,2.221,0,,,,,,-0.355939031,-0.263917179,1,0,0,2.221,Andesite_rect,9,0,9,0,1
5cf6150ce42af100015a90c4,SCR,2024-06-10_12h07.51.423,LearnStrategy,2023.2.3,Win32,2.608242045,9,2,11,,,,,,,,4,13,,,,,,,,,,,,,4,3.198,1,,,,,,0.427423218,-0.260213308,1,0,0,3.198,Gabbro_rect,10,0,10,0,1
5cf6150ce42af100015a90c4,SCR,2024-06-10_12h07.51.423,LearnStrategy,2023.2.3,Win32,2.608242045,9,2,12,,,,,,,,2,01,,,,,,,,,,,,,2,1.544,1,,,,,,-0.117967332,-0.250027748,1,0,0,1.544,Basalt_rect,11,0,11,0,1
5cf6150ce42af100015a90c4,SCR,2024-06-10_12h07.51.423,LearnStrategy,2023.2.3,Win32,2.608242045,9,2,13,,,,,,,,1,04,,,,,,,,,,,,,1,4.142,1,,,,,,-0.370754457,-0.256509494,1,0,0,4.142,Andesite_rect,12,0,12,0,1
5cf6150ce42af100015a90c4,SCR,2024-06-10_12h07.51.423,LearnStrategy,2023.2.3,Win32,2.608242045,9,2,14,,,,,,,,6,06,,,,,,,,,,,,,6,1.832,1,,,,,,-0.153153823,-0.415774641,1,0,0,1.832,Pegmatite_rect,13,0,13,0,1
5cf6150ce42af100015a90c4,SCR,2024-06-10_12h07.51.423,LearnStrategy,2023.2.3,Win32,2.608242045,9,2,15,,,,,,,,7,02,,,,,,,,,,,,,7,1.888,1,,,,,,0.120930362,-0.397255456,1,0,0,1.888,Peridotite_rect,14,0,14,0,1
5cf6150ce42af100015a90c4,SCR,2024-06-10_12h07.51.423,LearnStrategy,2023.2.3,Win32,2.608242045,9,2,16,,,,,,,,1,06,,,,,,,,,,,,,1,1.89,1,,,,,,-0.366124702,-0.254657558,1,0,0,1.89,Andesite_rect,15,0,15,0,1
5cf6150ce42af100015a90c4,SCR,2024-06-10_12h07.51.423,LearnStrategy,2023.2.3,Win32,2.608242045,,,,,,,,,,,,,,,,,,,,,,,,,,,,,,,,,,,,,,,,,,,,
5cf6150ce42af100015a90c4,SCR,2024-06-10_12h07.51.423,LearnStrategy,2023.2.3,Win32,2.608242045,,,,,,,,,,,,,,,,,,,,,,,,,,,,,,,,,,,,,,,,,,,,
5cf6150ce42af100015a90c4,SCR,2024-06-10_12h07.51.423,LearnStrategy,2023.2.3,Win32,2.608242045,,,,,,,,,,,2,02,1,1,,,,,,,,,,,,,,,,,,,,,,,,,,,,,,
5cf6150ce42af100015a90c4,SCR,2024-06-10_12h07.51.423,LearnStrategy,2023.2.3,Win32,2.608242045,,,,,,,,,,,6,05,1,2,,,,,,,,,,,,,,,,,,,,,,,,,,,,,,
5cf6150ce42af100015a90c4,SCR,2024-06-10_12h07.51.423,LearnStrategy,2023.2.3,Win32,2.608242045,,,,,,,,,,,7,05,1,3,,,,,,,,,,,,,,,,,,,,,,,,,,,,,,
5cf6150ce42af100015a90c4,SCR,2024-06-10_12h07.51.423,LearnStrategy,2023.2.3,Win32,2.608242045,,,,,,,,,,,2,05,1,4,,,,,,,,,,,,,,,,,,,,,,,,,,,,,,
5cf6150ce42af100015a90c4,SCR,2024-06-10_12h07.51.423,LearnStrategy,2023.2.3,Win32,2.608242045,,,,,,,,,,,6,12,1,5,,,,,,,,,,,,,,,,,,,,,,,,,,,,,,
5cf6150ce42af100015a90c4,SCR,2024-06-10_12h07.51.423,LearnStrategy,2023.2.3,Win32,2.608242045,,,,,,,,,,,4,11,1,6,,,,,,,,,,,,,,,,,,,,,,,,,,,,,,
5cf6150ce42af100015a90c4,SCR,2024-06-10_12h07.51.423,LearnStrategy,2023.2.3,Win32,2.608242045,,,,,,,,,,,5,12,1,7,,,,,,,,,,,,,,,,,,,,,,,,,,,,,,
5cf6150ce42af100015a90c4,SCR,2024-06-10_12h07.51.423,LearnStrategy,2023.2.3,Win32,2.608242045,,,,,,,,,,,1,11,1,8,,,,,,,,,,,,,,,,,,,,,,,,,,,,,,
5cf6150ce42af100015a90c4,SCR,2024-06-10_12h07.51.423,LearnStrategy,2023.2.3,Win32,2.608242045,,,,,,,,,,,5,11,2,1,,,,,,,,,,,,,,,,,,,,,,,,,,,,,,
5cf6150ce42af100015a90c4,SCR,2024-06-10_12h07.51.423,LearnStrategy,2023.2.3,Win32,2.608242045,,,,,,,,,,,1,16,2,2,,,,,,,,,,,,,,,,,,,,,,,,,,,,,,
5cf6150ce42af100015a90c4,SCR,2024-06-10_12h07.51.423,LearnStrategy,2023.2.3,Win32,2.608242045,,,,,,,,,,,2,16,2,3,,,,,,,,,,,,,,,,,,,,,,,,,,,,,,
5cf6150ce42af100015a90c4,SCR,2024-06-10_12h07.51.423,LearnStrategy,2023.2.3,Win32,2.608242045,,,,,,,,,,,7,08,2,4,,,,,,,,,,,,,,,,,,,,,,,,,,,,,,
5cf6150ce42af100015a90c4,SCR,2024-06-10_12h07.51.423,LearnStrategy,2023.2.3,Win32,2.608242045,,,,,,,,,,,5,08,2,5,,,,,,,,,,,,,,,,,,,,,,,,,,,,,,
5cf6150ce42af100015a90c4,SCR,2024-06-10_12h07.51.423,LearnStrategy,2023.2.3,Win32,2.608242045,,,,,,,,,,,5,10,2,6,,,,,,,,,,,,,,,,,,,,,,,,,,,,,,
5cf6150ce42af100015a90c4,SCR,2024-06-10_12h07.51.423,LearnStrategy,2023.2.3,Win32,2.608242045,,,,,,,,,,,2,09,2,7,,,,,,,,,,,,,,,,,,,,,,,,,,,,,,
5cf6150ce42af100015a90c4,SCR,2024-06-10_12h07.51.423,LearnStrategy,2023.2.3,Win32,2.608242045,,,,,,,,,,,1,10,2,8,,,,,,,,,,,,,,,,,,,,,,,,,,,,,,
5cf6150ce42af100015a90c4,SCR,2024-06-10_12h07.51.423,LearnStrategy,2023.2.3,Win32,2.608242045,,,,,,,,,,,8,09,3,1,,,,,,,,,,,,,,,,,,,,,,,,,,,,,,
5cf6150ce42af100015a90c4,SCR,2024-06-10_12h07.51.423,LearnStrategy,2023.2.3,Win32,2.608242045,,,,,,,,,,,3,07,3,2,,,,,,,,,,,,,,,,,,,,,,,,,,,,,,
5cf6150ce42af100015a90c4,SCR,2024-06-10_12h07.51.423,LearnStrategy,2023.2.3,Win32,2.608242045,,,,,,,,,,,2,06,3,3,,,,,,,,,,,,,,,,,,,,,,,,,,,,,,
5cf6150ce42af100015a90c4,SCR,2024-06-10_12h07.51.423,LearnStrategy,2023.2.3,Win32,2.608242045,,,,,,,,,,,7,12,3,4,,,,,,,,,,,,,,,,,,,,,,,,,,,,,,
5cf6150ce42af100015a90c4,SCR,2024-06-10_12h07.51.423,LearnStrategy,2023.2.3,Win32,2.608242045,,,,,,,,,,,4,05,3,5,,,,,,,,,,,,,,,,,,,,,,,,,,,,,,
5cf6150ce42af100015a90c4,SCR,2024-06-10_12h07.51.423,LearnStrategy,2023.2.3,Win32,2.608242045,,,,,,,,,,,8,16,3,6,,,,,,,,,,,,,,,,,,,,,,,,,,,,,,
5cf6150ce42af100015a90c4,SCR,2024-06-10_12h07.51.423,LearnStrategy,2023.2.3,Win32,2.608242045,,,,,,,,,,,8,06,3,7,,,,,,,,,,,,,,,,,,,,,,,,,,,,,,
5cf6150ce42af100015a90c4,SCR,2024-06-10_12h07.51.423,LearnStrategy,2023.2.3,Win32,2.608242045,,,,,,,,,,,8,10,3,8,,,,,,,,,,,,,,,,,,,,,,,,,,,,,,
5cf6150ce42af100015a90c4,SCR,2024-06-10_12h07.51.423,LearnStrategy,2023.2.3,Win32,2.608242045,,,,,,,,,,,7,14,4,1,,,,,,,,,,,,,,,,,,,,,,,,,,,,,,
5cf6150ce42af100015a90c4,SCR,2024-06-10_12h07.51.423,LearnStrategy,2023.2.3,Win32,2.608242045,,,,,,,,,,,6,09,4,2,,,,,,,,,,,,,,,,,,,,,,,,,,,,,,
5cf6150ce42af100015a90c4,SCR,2024-06-10_12h07.51.423,LearnStrategy,2023.2.3,Win32,2.608242045,,,,,,,,,,,3,14,4,3,,,,,,,,,,,,,,,,,,,,,,,,,,,,,,
5cf6150ce42af100015a90c4,SCR,2024-06-10_12h07.51.423,LearnStrategy,2023.2.3,Win32,2.608242045,,,,,,,,,,,7,07,4,4,,,,,,,,,,,,,,,,,,,,,,,,,,,,,,
5cf6150ce42af100015a90c4,SCR,2024-06-10_12h07.51.423,LearnStrategy,2023.2.3,Win32,2.608242045,,,,,,,,,,,6,16,4,5,,,,,,,,,,,,,,,,,,,,,,,,,,,,,,
5cf6150ce42af100015a90c4,SCR,2024-06-10_12h07.51.423,LearnStrategy,2023.2.3,Win32,2.608242045,,,,,,,,,,,5,16,4,6,,,,,,,,,,,,,,,,,,,,,,,,,,,,,,
5cf6150ce42af100015a90c4,SCR,2024-06-10_12h07.51.423,LearnStrategy,2023.2.3,Win32,2.608242045,,,,,,,,,,,4,16,4,7,,,,,,,,,,,,,,,,,,,,,,,,,,,,,,
5cf6150ce42af100015a90c4,SCR,2024-06-10_12h07.51.423,LearnStrategy,2023.2.3,Win32,2.608242045,,,,,,,,,,,4,10,4,8,,,,,,,,,,,,,,,,,,,,,,,,,,,,,,
5cf6150ce42af100015a90c4,SCR,2024-06-10_12h07.51.423,LearnStrategy,2023.2.3,Win32,2.608242045,,,,,,,,,,,7,04,5,1,,,,,,,,,,,,,,,,,,,,,,,,,,,,,,
5cf6150ce42af100015a90c4,SCR,2024-06-10_12h07.51.423,LearnStrategy,2023.2.3,Win32,2.608242045,,,,,,,,,,,8,03,5,2,,,,,,,,,,,,,,,,,,,,,,,,,,,,,,
5cf6150ce42af100015a90c4,SCR,2024-06-10_12h07.51.423,LearnStrategy,2023.2.3,Win32,2.608242045,,,,,,,,,,,4,12,5,3,,,,,,,,,,,,,,,,,,,,,,,,,,,,,,
5cf6150ce42af100015a90c4,SCR,2024-06-10_12h07.51.423,LearnStrategy,2023.2.3,Win32,2.608242045,,,,,,,,,,,2,11,5,4,,,,,,,,,,,,,,,,,,,,,,,,,,,,,,
5cf6150ce42af100015a90c4,SCR,2024-06-10_12h07.51.423,LearnStrategy,2023.2.3,Win32,2.608242045,,,,,,,,,,,3,11,5,5,,,,,,,,,,,,,,,,,,,,,,,,,,,,,,
5cf6150ce42af100015a90c4,SCR,2024-06-10_12h07.51.423,LearnStrategy,2023.2.3,Win32,2.608242045,,,,,,,,,,,6,15,5,6,,,,,,,,,,,,,,,,,,,,,,,,,,,,,,
5cf6150ce42af100015a90c4,SCR,2024-06-10_12h07.51.423,LearnStrategy,2023.2.3,Win32,2.608242045,,,,,,,,,,,6,03,5,7,,,,,,,,,,,,,,,,,,,,,,,,,,,,,,
5cf6150ce42af100015a90c4,SCR,2024-06-10_12h07.51.423,LearnStrategy,2023.2.3,Win32,2.608242045,,,,,,,,,,,1,05,5,8,,,,,,,,,,,,,,,,,,,,,,,,,,,,,,
5cf6150ce42af100015a90c4,SCR,2024-06-10_12h07.51.423,LearnStrategy,2023.2.3,Win32,2.608242045,,,,,,,,,,,8,08,6,1,,,,,,,,,,,,,,,,,,,,,,,,,,,,,,
5cf6150ce42af100015a90c4,SCR,2024-06-10_12h07.51.423,LearnStrategy,2023.2.3,Win32,2.608242045,,,,,,,,,,,1,09,6,2,,,,,,,,,,,,,,,,,,,,,,,,,,,,,,
5cf6150ce42af100015a90c4,SCR,2024-06-10_12h07.51.423,LearnStrategy,2023.2.3,Win32,2.608242045,,,,,,,,,,,3,09,6,3,,,,,,,,,,,,,,,,,,,,,,,,,,,,,,
5cf6150ce42af100015a90c4,SCR,2024-06-10_12h07.51.423,LearnStrategy,2023.2.3,Win32,2.608242045,,,,,,,,,,,1,03,6,4,,,,,,,,,,,,,,,,,,,,,,,,,,,,,,
5cf6150ce42af100015a90c4,SCR,2024-06-10_12h07.51.423,LearnStrategy,2023.2.3,Win32,2.608242045,,,,,,,,,,,5,06,6,5,,,,,,,,,,,,,,,,,,,,,,,,,,,,,,
5cf6150ce42af100015a90c4,SCR,2024-06-10_12h07.51.423,LearnStrategy,2023.2.3,Win32,2.608242045,,,,,,,,,,,4,14,6,6,,,,,,,,,,,,,,,,,,,,,,,,,,,,,,
5cf6150ce42af100015a90c4,SCR,2024-06-10_12h07.51.423,LearnStrategy,2023.2.3,Win32,2.608242045,,,,,,,,,,,3,13,6,7,,,,,,,,,,,,,,,,,,,,,,,,,,,,,,
5cf6150ce42af100015a90c4,SCR,2024-06-10_12h07.51.423,LearnStrategy,2023.2.3,Win32,2.608242045,,,,,,,,,,,3,16,6,8,,,,,,,,,,,,,,,,,,,,,,,,,,,,,,