participant,condition,date,expName,psychopyVersion,OS,frameRate,block,phase,trial,learn_mouse.x,learn_mouse.y,learn_mouse.leftButton,learn_mouse.midButton,learn_mouse.rightButton,learn_mouse.time,learn_mouse.clicked_name,cat,token,row,col,t_select,cat_mouse_l.x,cat_mouse_l.y,cat_mouse_l.leftButton,cat_mouse_l.midButton,cat_mouse_l.rightButton,cat_mouse_l.time,cat_mouse_l.clicked_name,resp,t_resp,corr,train_trials.thisRepN,train_trials.thisTrialN,train_trials.thisN,train_trials.thisIndex,train_trials.ran,cat_mouse_t.x,cat_mouse_t.y,cat_mouse_t.leftButton,cat_mouse_t.midButton,cat_mouse_t.rightButton,cat_mouse_t.time,cat_mouse_t.clicked_name,test_trials.thisRepN,test_trials.thisTrialN,test_trials.thisN,test_trials.thisIndex,test_trials.ran,Bonus
5d268981c22768000166c7c7,SCN,2024-06-25_13h23.17.341,LearnStrategy,2023.2.3,Win32,163.9344262,,,,,,,,,,,,,,,,,,,,,,,,,,,,,,,,,,,,,,,,,,,
5d268981c22768000166c7c7,SCN,2024-06-25_13h23.17.341,LearnStrategy,2023.2.3,Win32,163.9344262,1,1,1,0.392592593,0.24537037,1,0,0,4.4804,Diorite_13,3,13,5,7,4.48,0.166666667,-0.402777778,1,0,0,4.0293,Peridotite_rect,7,4.029,0,0,0,0,0,1,,,,,,,,,,,,,
5d268981c22768000166c7c7,SCN,2024-06-25_13h23.17.341,LearnStrategy,2023.2.3,Win32,163.9344262,1,1,2,-0.407407407,-0.063888889,1,0,0,5.2271,Pumice_05,8,05,3,2,5.227,0.335185185,-0.39537037,1,0,0,1.2182,Pumice_rect,8,1.218,1,1,0,1,0,1,,,,,,,,,,,,,
5d268981c22768000166c7c7,SCN,2024-06-25_13h23.17.341,LearnStrategy,2023.2.3,Win32,163.9344262,1,1,3,0.412037037,-0.097222222,1,0,0,3.3066,Pegmatite_10,6,10,3,7,3.307,0.371296296,-0.259259259,1,0,0,4.0277,Gabbro_rect,4,4.028,0,2,0,2,0,1,,,,,,,,,,,,,
5d268981c22768000166c7c7,SCN,2024-06-25_13h23.17.341,LearnStrategy,2023.2.3,Win32,163.9344262,1,1,4,-0.237037037,0.255555556,1,0,0,2.8117,Pumice_06,8,06,5,3,2.812,-0.193518519,-0.248148148,1,0,0,2.487,Basalt_rect,2,2.487,0,3,0,3,0,1,,,,,,,,,,,,,
5d268981c22768000166c7c7,SCN,2024-06-25_13h23.17.341,LearnStrategy,2023.2.3,Win32,163.9344262,1,1,5,-0.12037037,-0.417592593,1,0,0,3.526,Obsidian_06,5,06,1,4,3.526,-0.355555556,-0.394444444,1,0,0,2.3782,Obsidian_rect,5,2.378,1,4,0,4,0,1,,,,,,,,,,,,,
5d268981c22768000166c7c7,SCN,2024-06-25_13h23.17.341,LearnStrategy,2023.2.3,Win32,163.9344262,1,1,6,-0.05462963,0.074074074,1,0,0,2.2108,Andesite_14,1,14,4,4,2.211,-0.374074074,-0.239814815,1,0,0,2.2337,Andesite_rect,1,2.234,1,5,0,5,0,1,,,,,,,,,,,,,
5d268981c22768000166c7c7,SCN,2024-06-25_13h23.17.341,LearnStrategy,2023.2.3,Win32,163.9344262,1,1,7,0.224074074,-0.405555556,1,0,0,2.6246,Basalt_05,2,05,1,6,2.625,-0.085185185,-0.253703704,1,0,0,1.6213,Basalt_rect,2,1.621,1,6,0,6,0,1,,,,,,,,,,,,,
5d268981c22768000166c7c7,SCN,2024-06-25_13h23.17.341,LearnStrategy,2023.2.3,Win32,163.9344262,1,1,8,-0.062962963,0.081481481,1,0,0,1.9379,Andesite_14,1,14,4,4,1.938,0.367592593,-0.253703704,1,0,0,1.8525,Gabbro_rect,4,1.852,0,7,0,7,0,1,,,,,,,,,,,,,
5d268981c22768000166c7c7,SCN,2024-06-25_13h23.17.341,LearnStrategy,2023.2.3,Win32,163.9344262,1,1,9,0.506481481,0.408333333,1,0,0,2.702,Obsidian_10,5,10,6,8,2.702,0.359259259,-0.271296296,1,0,0,1.274,Gabbro_rect,4,1.274,0,8,0,8,0,1,,,,,,,,,,,,,
5d268981c22768000166c7c7,SCN,2024-06-25_13h23.17.341,LearnStrategy,2023.2.3,Win32,163.9344262,1,1,10,-0.574074074,-0.241666667,1,0,0,2.817,Diorite_07,3,07,2,1,2.817,0.32037037,-0.243518519,1,0,0,1.2217,Gabbro_rect,4,1.222,0,9,0,9,0,1,,,,,,,,,,,,,
5d268981c22768000166c7c7,SCN,2024-06-25_13h23.17.341,LearnStrategy,2023.2.3,Win32,163.9344262,1,1,11,-0.563888889,-0.427777778,1,0,0,1.8715,Peridotite_06,7,06,1,1,1.871,0.340740741,-0.237037037,1,0,0,0.9642,Gabbro_rect,4,0.964,0,10,0,10,0,1,,,,,,,,,,,,,
5d268981c22768000166c7c7,SCN,2024-06-25_13h23.17.341,LearnStrategy,2023.2.3,Win32,163.9344262,1,1,12,0.557407407,-0.144444444,1,0,0,2.3808,Basalt_10,2,10,3,8,2.381,0.376851852,-0.244444444,1,0,0,1.1592,Gabbro_rect,4,1.159,0,11,0,11,0,1,,,,,,,,,,,,,
5d268981c22768000166c7c7,SCN,2024-06-25_13h23.17.341,LearnStrategy,2023.2.3,Win32,163.9344262,1,1,13,0.083333333,0.412037037,1,0,0,6.1544,Pegmatite_06,6,06,6,5,6.154,0.376851852,-0.248148148,1,0,0,0.99,Gabbro_rect,4,0.99,0,12,0,12,0,1,,,,,,,,,,,,,
5d268981c22768000166c7c7,SCN,2024-06-25_13h23.17.341,LearnStrategy,2023.2.3,Win32,163.9344262,1,1,14,0.412037037,-0.42962963,1,0,0,2.7441,Peridotite_02,7,02,1,7,2.744,0.399074074,-0.256481481,1,0,0,1.2857,Gabbro_rect,4,1.286,0,13,0,13,0,1,,,,,,,,,,,,,
5d268981c22768000166c7c7,SCN,2024-06-25_13h23.17.341,LearnStrategy,2023.2.3,Win32,163.9344262,1,1,15,-0.577777778,0.432407407,1,0,0,2.0353,Gabbro_03,4,03,6,1,2.035,0.353703704,-0.228703704,1,0,0,1.1719,Gabbro_rect,4,1.172,1,14,0,14,0,1,,,,,,,,,,,,,
5d268981c22768000166c7c7,SCN,2024-06-25_13h23.17.341,LearnStrategy,2023.2.3,Win32,163.9344262,1,1,16,-0.262037037,0.380555556,1,0,0,2.706,Andesite_07,1,07,6,3,2.706,0.17962963,-0.255555556,1,0,0,1.3374,Diorite_rect,3,1.337,0,15,0,15,0,1,,,,,,,,,,,,,
5d268981c22768000166c7c7,SCN,2024-06-25_13h23.17.341,LearnStrategy,2023.2.3,Win32,163.9344262,1,2,1,,,,,,,,4,14,,,,,,,,,,,2,3.551,0,,,,,,-0.144444444,-0.253703704,1,0,0,3.5508,Basalt_rect,0,0,0,0,1,
5d268981c22768000166c7c7,SCN,2024-06-25_13h23.17.341,LearnStrategy,2023.2.3,Win32,163.9344262,1,2,2,,,,,,,,5,12,,,,,,,,,,,5,1.83,1,,,,,,-0.397222222,-0.386111111,1,0,0,1.8304,Obsidian_rect,1,0,1,0,1,
5d268981c22768000166c7c7,SCN,2024-06-25_13h23.17.341,LearnStrategy,2023.2.3,Win32,163.9344262,1,2,3,,,,,,,,6,15,,,,,,,,,,,7,4.205,0,,,,,,0.075925926,-0.410185185,1,0,0,4.2048,Peridotite_rect,2,0,2,0,1,
5d268981c22768000166c7c7,SCN,2024-06-25_13h23.17.341,LearnStrategy,2023.2.3,Win32,163.9344262,1,2,4,,,,,,,,8,15,,,,,,,,,,,8,1.605,1,,,,,,0.403703704,-0.403703704,1,0,0,1.6048,Pumice_rect,3,0,3,0,1,
5d268981c22768000166c7c7,SCN,2024-06-25_13h23.17.341,LearnStrategy,2023.2.3,Win32,163.9344262,1,2,5,,,,,,,,7,12,,,,,,,,,,,1,2.558,0,,,,,,-0.418518519,-0.263888889,1,0,0,2.5583,Andesite_rect,4,0,4,0,1,
5d268981c22768000166c7c7,SCN,2024-06-25_13h23.17.341,LearnStrategy,2023.2.3,Win32,163.9344262,1,2,6,,,,,,,,1,16,,,,,,,,,,,3,3.381,0,,,,,,0.076851852,-0.232407407,1,0,0,3.3806,Diorite_rect,5,0,5,0,1,
5d268981c22768000166c7c7,SCN,2024-06-25_13h23.17.341,LearnStrategy,2023.2.3,Win32,163.9344262,1,2,7,,,,,,,,2,16,,,,,,,,,,,2,1.9,1,,,,,,-0.153703704,-0.238888889,1,0,0,1.8997,Basalt_rect,6,0,6,0,1,
5d268981c22768000166c7c7,SCN,2024-06-25_13h23.17.341,LearnStrategy,2023.2.3,Win32,163.9344262,1,2,8,,,,,,,,2,06,,,,,,,,,,,4,4.62,0,,,,,,0.375925926,-0.230555556,1,0,0,4.6196,Gabbro_rect,7,0,7,0,1,
5d268981c22768000166c7c7,SCN,2024-06-25_13h23.17.341,LearnStrategy,2023.2.3,Win32,163.9344262,1,2,9,,,,,,,,5,02,,,,,,,,,,,5,1.213,1,,,,,,-0.403703704,-0.389814815,1,0,0,1.2133,Obsidian_rect,8,0,8,0,1,
5d268981c22768000166c7c7,SCN,2024-06-25_13h23.17.341,LearnStrategy,2023.2.3,Win32,163.9344262,1,2,10,,,,,,,,3,10,,,,,,,,,,,3,3.033,1,,,,,,0.106481481,-0.230555556,1,0,0,3.0327,Diorite_rect,9,0,9,0,1,
5d268981c22768000166c7c7,SCN,2024-06-25_13h23.17.341,LearnStrategy,2023.2.3,Win32,163.9344262,1,2,11,,,,,,,,8,10,,,,,,,,,,,8,2.9,1,,,,,,0.341666667,-0.398148148,1,0,0,2.9001,Pumice_rect,10,0,10,0,1,
5d268981c22768000166c7c7,SCN,2024-06-25_13h23.17.341,LearnStrategy,2023.2.3,Win32,163.9344262,1,2,12,,,,,,,,3,16,,,,,,,,,,,1,2.545,0,,,,,,-0.334259259,-0.252777778,1,0,0,2.5454,Andesite_rect,11,0,11,0,1,
5d268981c22768000166c7c7,SCN,2024-06-25_13h23.17.341,LearnStrategy,2023.2.3,Win32,163.9344262,1,2,13,,,,,,,,4,16,,,,,,,,,,,2,1.246,0,,,,,,-0.076851852,-0.252777778,1,0,0,1.2464,Basalt_rect,12,0,12,0,1,
5d268981c22768000166c7c7,SCN,2024-06-25_13h23.17.341,LearnStrategy,2023.2.3,Win32,163.9344262,1,2,14,,,,,,,,7,05,,,,,,,,,,,6,1.294,0,,,,,,-0.15462963,-0.4,1,0,0,1.2942,Pegmatite_rect,13,0,13,0,1,
5d268981c22768000166c7c7,SCN,2024-06-25_13h23.17.341,LearnStrategy,2023.2.3,Win32,163.9344262,1,2,15,,,,,,,,6,13,,,,,,,,,,,7,2.371,0,,,,,,0.030555556,-0.387962963,1,0,0,2.3713,Peridotite_rect,14,0,14,0,1,
5d268981c22768000166c7c7,SCN,2024-06-25_13h23.17.341,LearnStrategy,2023.2.3,Win32,163.9344262,1,2,16,,,,,,,,1,05,,,,,,,,,,,6,2.28,0,,,,,,-0.053703704,-0.389814815,1,0,0,2.2797,Pegmatite_rect,15,0,15,0,1,
5d268981c22768000166c7c7,SCN,2024-06-25_13h23.17.341,LearnStrategy,2023.2.3,Win32,163.9344262,2,1,1,-0.246296296,-0.100925926,1,0,0,3.629,Gabbro_13,4,13,3,3,3.629,-0.140740741,-0.405555556,1,0,0,1.2457,Pegmatite_rect,6,1.246,0,0,0,0,0,1,,,,,,,,,,,,,
5d268981c22768000166c7c7,SCN,2024-06-25_13h23.17.341,LearnStrategy,2023.2.3,Win32,163.9344262,2,1,2,0.557407407,0.239814815,1,0,0,3.8473,Gabbro_08,4,08,5,8,3.847,-0.451851852,-0.250925926,1,0,0,1.3713,Andesite_rect,1,1.371,0,1,0,1,0,1,,,,,,,,,,,,,
5d268981c22768000166c7c7,SCN,2024-06-25_13h23.17.341,LearnStrategy,2023.2.3,Win32,163.9344262,2,1,3,-0.069444444,0.382407407,1,0,0,3.1626,Basalt_14,2,14,6,4,3.163,0.347222222,-0.238888889,1,0,0,1.4346,Gabbro_rect,4,1.435,0,2,0,2,0,1,,,,,,,,,,,,,
5d268981c22768000166c7c7,SCN,2024-06-25_13h23.17.341,LearnStrategy,2023.2.3,Win32,163.9344262,2,1,4,0.078703704,-0.419444444,1,0,0,3.9366,Pumice_14,8,14,1,5,3.937,0.318518519,-0.400925926,1,0,0,1.0823,Pumice_rect,8,1.082,1,3,0,3,0,1,,,,,,,,,,,,,
5d268981c22768000166c7c7,SCN,2024-06-25_13h23.17.341,LearnStrategy,2023.2.3,Win32,163.9344262,2,1,5,-0.397222222,-0.427777778,1,0,0,2.9936,Pegmatite_05,6,05,1,2,2.994,-0.063888889,-0.391666667,1,0,0,1.8788,Pegmatite_rect,6,1.879,1,4,0,4,0,1,,,,,,,,,,,,,
5d268981c22768000166c7c7,SCN,2024-06-25_13h23.17.341,LearnStrategy,2023.2.3,Win32,163.9344262,2,1,6,-0.564814815,0.212037037,1,0,0,4.9136,Diorite_08,3,08,5,1,4.914,0.116666667,-0.264814815,1,0,0,1.4843,Diorite_rect,3,1.484,1,5,0,5,0,1,,,,,,,,,,,,,
5d268981c22768000166c7c7,SCN,2024-06-25_13h23.17.341,LearnStrategy,2023.2.3,Win32,163.9344262,2,1,7,0.256481481,0.382407407,1,0,0,3.1563,Diorite_06,3,06,6,6,3.156,0.077777778,-0.255555556,1,0,0,2.2169,Diorite_rect,3,2.217,1,6,0,6,0,1,,,,,,,,,,,,,
5d268981c22768000166c7c7,SCN,2024-06-25_13h23.17.341,LearnStrategy,2023.2.3,Win32,163.9344262,2,1,8,-0.107407407,-0.116666667,1,0,0,3.0517,Basalt_01,2,01,3,4,3.052,-0.164814815,-0.249074074,1,0,0,1.2933,Basalt_rect,2,1.293,1,7,0,7,0,1,,,,,,,,,,,,,
5d268981c22768000166c7c7,SCN,2024-06-25_13h23.17.341,LearnStrategy,2023.2.3,Win32,163.9344262,2,1,9,-0.225925926,-0.278703704,1,0,0,3.2095,Pumice_02,8,02,2,3,3.209,0.433333333,-0.4,1,0,0,1.1901,Pumice_rect,8,1.19,1,8,0,8,0,1,,,,,,,,,,,,,
5d268981c22768000166c7c7,SCN,2024-06-25_13h23.17.341,LearnStrategy,2023.2.3,Win32,163.9344262,2,1,10,-0.217592593,-0.408333333,1,0,0,3.8172,Peridotite_15,7,15,1,3,3.817,-0.075,-0.409259259,1,0,0,1.6929,Pegmatite_rect,6,1.693,0,9,0,9,0,1,,,,,,,,,,,,,
5d268981c22768000166c7c7,SCN,2024-06-25_13h23.17.341,LearnStrategy,2023.2.3,Win32,163.9344262,2,1,11,0.406481481,0.418518519,1,0,0,7.9416,Andesite_11,1,11,6,7,7.942,-0.059259259,-0.407407407,1,0,0,1.833,Pegmatite_rect,6,1.833,0,10,0,10,0,1,,,,,,,,,,,,,
5d268981c22768000166c7c7,SCN,2024-06-25_13h23.17.341,LearnStrategy,2023.2.3,Win32,163.9344262,2,1,12,0.223148148,-0.266666667,1,0,0,3.5791,Diorite_12,3,12,2,6,3.579,-0.388888889,-0.25,1,0,0,1.0414,Andesite_rect,1,1.041,0,11,0,11,0,1,,,,,,,,,,,,,
5d268981c22768000166c7c7,SCN,2024-06-25_13h23.17.341,LearnStrategy,2023.2.3,Win32,163.9344262,2,1,13,-0.387037037,-0.432407407,1,0,0,3.593,Pegmatite_05,6,05,1,2,3.593,0.07037037,-0.394444444,1,0,0,1.9357,Peridotite_rect,7,1.936,0,12,0,12,0,1,,,,,,,,,,,,,
5d268981c22768000166c7c7,SCN,2024-06-25_13h23.17.341,LearnStrategy,2023.2.3,Win32,163.9344262,2,1,14,0.369444444,0.380555556,1,0,0,10.3322,Andesite_11,1,11,6,7,10.332,0.109259259,-0.253703704,1,0,0,1.6918,Diorite_rect,3,1.692,0,13,0,13,0,1,,,,,,,,,,,,,
5d268981c22768000166c7c7,SCN,2024-06-25_13h23.17.341,LearnStrategy,2023.2.3,Win32,163.9344262,2,1,15,-0.381481481,0.116666667,1,0,0,6.2168,Andesite_02,1,02,4,2,6.217,0.09537037,-0.388888889,1,0,0,2.0389,Peridotite_rect,7,2.039,0,14,0,14,0,1,,,,,,,,,,,,,
5d268981c22768000166c7c7,SCN,2024-06-25_13h23.17.341,LearnStrategy,2023.2.3,Win32,163.9344262,2,1,16,0.543518519,0.262962963,1,0,0,5.3381,Gabbro_08,4,08,5,8,5.338,0.474074074,-0.258333333,1,0,0,4.7535,Gabbro_rect,4,4.753,1,15,0,15,0,1,,,,,,,,,,,,,
5d268981c22768000166c7c7,SCN,2024-06-25_13h23.17.341,LearnStrategy,2023.2.3,Win32,163.9344262,2,2,1,,,,,,,,2,08,,,,,,,,,,,2,2.062,1,,,,,,-0.125925926,-0.255555556,1,0,0,2.0619,Basalt_rect,0,0,0,0,1,
5d268981c22768000166c7c7,SCN,2024-06-25_13h23.17.341,LearnStrategy,2023.2.3,Win32,163.9344262,2,2,2,,,,,,,,6,09,,,,,,,,,,,6,1.782,1,,,,,,-0.071296296,-0.39537037,1,0,0,1.7817,Pegmatite_rect,1,0,1,0,1,
5d268981c22768000166c7c7,SCN,2024-06-25_13h23.17.341,LearnStrategy,2023.2.3,Win32,163.9344262,2,2,3,,,,,,,,3,02,,,,,,,,,,,3,1.467,1,,,,,,0.147222222,-0.259259259,1,0,0,1.4674,Diorite_rect,2,0,2,0,1,
5d268981c22768000166c7c7,SCN,2024-06-25_13h23.17.341,LearnStrategy,2023.2.3,Win32,163.9344262,2,2,4,,,,,,,,3,15,,,,,,,,,,,1,2.981,0,,,,,,-0.328703704,-0.264814815,1,0,0,2.9812,Andesite_rect,3,0,3,0,1,
5d268981c22768000166c7c7,SCN,2024-06-25_13h23.17.341,LearnStrategy,2023.2.3,Win32,163.9344262,2,2,5,,,,,,,,5,04,,,,,,,,,,,5,3.055,1,,,,,,-0.349074074,-0.394444444,1,0,0,3.0545,Obsidian_rect,4,0,4,0,1,
5d268981c22768000166c7c7,SCN,2024-06-25_13h23.17.341,LearnStrategy,2023.2.3,Win32,163.9344262,2,2,6,,,,,,,,8,09,,,,,,,,,,,8,1.36,1,,,,,,0.324074074,-0.407407407,1,0,0,1.3601,Pumice_rect,5,0,5,0,1,
5d268981c22768000166c7c7,SCN,2024-06-25_13h23.17.341,LearnStrategy,2023.2.3,Win32,163.9344262,2,2,7,,,,,,,,5,09,,,,,,,,,,,5,1.777,1,,,,,,-0.344444444,-0.408333333,1,0,0,1.7771,Obsidian_rect,6,0,6,0,1,
5d268981c22768000166c7c7,SCN,2024-06-25_13h23.17.341,LearnStrategy,2023.2.3,Win32,163.9344262,2,2,8,,,,,,,,1,01,,,,,,,,,,,6,3.125,0,,,,,,-0.089814815,-0.383333333,1,0,0,3.1252,Pegmatite_rect,7,0,7,0,1,
5d268981c22768000166c7c7,SCN,2024-06-25_13h23.17.341,LearnStrategy,2023.2.3,Win32,163.9344262,2,2,9,,,,,,,,6,11,,,,,,,,,,,7,2.27,0,,,,,,0.07037037,-0.412037037,1,0,0,2.2704,Peridotite_rect,8,0,8,0,1,
5d268981c22768000166c7c7,SCN,2024-06-25_13h23.17.341,LearnStrategy,2023.2.3,Win32,163.9344262,2,2,10,,,,,,,,1,09,,,,,,,,,,,1,1.897,1,,,,,,-0.422222222,-0.246296296,1,0,0,1.8972,Andesite_rect,9,0,9,0,1,
5d268981c22768000166c7c7,SCN,2024-06-25_13h23.17.341,LearnStrategy,2023.2.3,Win32,163.9344262,2,2,11,,,,,,,,7,14,,,,,,,,,,,1,3.243,0,,,,,,-0.337962963,-0.266666667,1,0,0,3.2427,Andesite_rect,10,0,10,0,1,
5d268981c22768000166c7c7,SCN,2024-06-25_13h23.17.341,LearnStrategy,2023.2.3,Win32,163.9344262,2,2,12,,,,,,,,8,13,,,,,,,,,,,6,2.695,0,,,,,,-0.050925926,-0.390740741,1,0,0,2.6947,Pegmatite_rect,11,0,11,0,1,
5d268981c22768000166c7c7,SCN,2024-06-25_13h23.17.341,LearnStrategy,2023.2.3,Win32,163.9344262,2,2,13,,,,,,,,4,09,,,,,,,,,,,2,2.708,0,,,,,,-0.075,-0.25462963,1,0,0,2.708,Basalt_rect,12,0,12,0,1,
5d268981c22768000166c7c7,SCN,2024-06-25_13h23.17.341,LearnStrategy,2023.2.3,Win32,163.9344262,2,2,14,,,,,,,,4,12,,,,,,,,,,,1,2.858,0,,,,,,-0.3,-0.271296296,1,0,0,2.8575,Andesite_rect,13,0,13,0,1,
5d268981c22768000166c7c7,SCN,2024-06-25_13h23.17.341,LearnStrategy,2023.2.3,Win32,163.9344262,2,2,15,,,,,,,,2,12,,,,,,,,,,,8,4.553,0,,,,,,0.374074074,-0.408333333,1,0,0,4.5531,Pumice_rect,14,0,14,0,1,
5d268981c22768000166c7c7,SCN,2024-06-25_13h23.17.341,LearnStrategy,2023.2.3,Win32,163.9344262,2,2,16,,,,,,,,7,16,,,,,,,,,,,7,3.658,1,,,,,,0.092592593,-0.418518519,1,0,0,3.6582,Peridotite_rect,15,0,15,0,1,
5d268981c22768000166c7c7,SCN,2024-06-25_13h23.17.341,LearnStrategy,2023.2.3,Win32,163.9344262,3,1,1,-0.387037037,0.211111111,1,0,0,6.2173,Basalt_09,2,09,5,2,6.217,-0.143518519,-0.251851852,1,0,0,2.6523,Basalt_rect,2,2.652,1,0,0,0,0,1,,,,,,,,,,,,,
5d268981c22768000166c7c7,SCN,2024-06-25_13h23.17.341,LearnStrategy,2023.2.3,Win32,163.9344262,3,1,2,0.574074074,-0.133333333,1,0,0,9.175,Basalt_10,2,10,3,8,9.175,-0.17962963,-0.259259259,1,0,0,0.8395,Basalt_rect,2,0.84,1,1,0,1,0,1,,,,,,,,,,,,,
5d268981c22768000166c7c7,SCN,2024-06-25_13h23.17.341,LearnStrategy,2023.2.3,Win32,163.9344262,3,1,3,-0.238888889,-0.409259259,1,0,0,1.3688,Peridotite_15,7,15,1,3,1.369,-0.063888889,-0.416666667,1,0,0,1.1747,Pegmatite_rect,6,1.175,0,2,0,2,0,1,,,,,,,,,,,,,
5d268981c22768000166c7c7,SCN,2024-06-25_13h23.17.341,LearnStrategy,2023.2.3,Win32,163.9344262,3,1,4,0.402777778,-0.412962963,1,0,0,2.1927,Peridotite_02,7,02,1,7,2.193,0.158333333,-0.389814815,1,0,0,1.2451,Peridotite_rect,7,1.245,1,3,0,3,0,1,,,,,,,,,,,,,
5d268981c22768000166c7c7,SCN,2024-06-25_13h23.17.341,LearnStrategy,2023.2.3,Win32,163.9344262,3,1,5,0.589814815,-0.248148148,1,0,0,2.4426,Pegmatite_08,6,08,2,8,2.443,-0.143518519,-0.400925926,1,0,0,0.6614,Pegmatite_rect,6,0.661,1,4,0,4,0,1,,,,,,,,,,,,,
5d268981c22768000166c7c7,SCN,2024-06-25_13h23.17.341,LearnStrategy,2023.2.3,Win32,163.9344262,3,1,6,0.242592593,0.268518519,1,0,0,4.1733,Basalt_02,2,02,5,6,4.173,-0.360185185,-0.258333333,1,0,0,1.1568,Andesite_rect,1,1.157,0,5,0,5,0,1,,,,,,,,,,,,,
5d268981c22768000166c7c7,SCN,2024-06-25_13h23.17.341,LearnStrategy,2023.2.3,Win32,163.9344262,3,1,7,-0.527777778,0.251851852,1,0,0,1.9562,Diorite_08,3,08,5,1,1.956,0.184259259,-0.253703704,1,0,0,0.7055,Diorite_rect,3,0.706,1,6,0,6,0,1,,,,,,,,,,,,,
5d268981c22768000166c7c7,SCN,2024-06-25_13h23.17.341,LearnStrategy,2023.2.3,Win32,163.9344262,3,1,8,0.073148148,0.101851852,1,0,0,1.0114,Obsidian_11,5,11,4,5,1.011,-0.407407407,-0.381481481,1,0,0,1.5783,Obsidian_rect,5,1.578,1,7,0,7,0,1,,,,,,,,,,,,,
5d268981c22768000166c7c7,SCN,2024-06-25_13h23.17.341,LearnStrategy,2023.2.3,Win32,163.9344262,3,1,9,-0.506481481,-0.097222222,1,0,0,2.8233,Andesite_06,1,06,3,1,2.823,-0.346296296,-0.241666667,1,0,0,1.3634,Andesite_rect,1,1.363,1,8,0,8,0,1,,,,,,,,,,,,,
5d268981c22768000166c7c7,SCN,2024-06-25_13h23.17.341,LearnStrategy,2023.2.3,Win32,163.9344262,3,1,10,0.525925926,-0.413888889,1,0,0,2.7442,Pumice_04,8,04,1,8,2.744,0.383333333,-0.418518519,1,0,0,1.068,Pumice_rect,8,1.068,1,9,0,9,0,1,,,,,,,,,,,,,
5d268981c22768000166c7c7,SCN,2024-06-25_13h23.17.341,LearnStrategy,2023.2.3,Win32,163.9344262,3,1,11,0.368518519,-0.413888889,1,0,0,1.3002,Peridotite_02,7,02,1,7,1.3,-0.056481481,-0.40462963,1,0,0,1.535,Pegmatite_rect,6,1.535,0,10,0,10,0,1,,,,,,,,,,,,,
5d268981c22768000166c7c7,SCN,2024-06-25_13h23.17.341,LearnStrategy,2023.2.3,Win32,163.9344262,3,1,12,-0.238888889,-0.44537037,1,0,0,1.124,Peridotite_15,7,15,1,3,1.124,0.146296296,-0.402777778,1,0,0,0.6292,Peridotite_rect,7,0.629,1,11,0,11,0,1,,,,,,,,,,,,,
5d268981c22768000166c7c7,SCN,2024-06-25_13h23.17.341,LearnStrategy,2023.2.3,Win32,163.9344262,3,1,13,0.263888889,-0.098148148,1,0,0,1.1325,Gabbro_15,4,15,3,6,1.133,-0.214814815,-0.417592593,1,0,0,1.7297,Pegmatite_rect,6,1.73,0,12,0,12,0,1,,,,,,,,,,,,,
5d268981c22768000166c7c7,SCN,2024-06-25_13h23.17.341,LearnStrategy,2023.2.3,Win32,163.9344262,3,1,14,0.532407407,0.215740741,1,0,0,2.0593,Gabbro_08,4,08,5,8,2.059,0.363888889,-0.252777778,1,0,0,1.2307,Gabbro_rect,4,1.231,1,13,0,13,0,1,,,,,,,,,,,,,
5d268981c22768000166c7c7,SCN,2024-06-25_13h23.17.341,LearnStrategy,2023.2.3,Win32,163.9344262,3,1,15,0.19537037,0.114814815,1,0,0,1.049,Peridotite_08,7,08,4,6,1.049,0.37962963,-0.238888889,1,0,0,1.3039,Gabbro_rect,4,1.304,0,14,0,14,0,1,,,,,,,,,,,,,
5d268981c22768000166c7c7,SCN,2024-06-25_13h23.17.341,LearnStrategy,2023.2.3,Win32,163.9344262,3,1,16,-0.062037037,0.262037037,1,0,0,1.6068,Gabbro_01,4,01,5,4,1.607,-0.418518519,-0.244444444,1,0,0,1.7754,Andesite_rect,1,1.775,0,15,0,15,0,1,,,,,,,,,,,,,
5d268981c22768000166c7c7,SCN,2024-06-25_13h23.17.341,LearnStrategy,2023.2.3,Win32,163.9344262,3,2,1,,,,,,,,6,07,,,,,,,,,,,6,4.28,1,,,,,,-0.072222222,-0.405555556,1,0,0,4.2797,Pegmatite_rect,0,0,0,0,1,
5d268981c22768000166c7c7,SCN,2024-06-25_13h23.17.341,LearnStrategy,2023.2.3,Win32,163.9344262,3,2,2,,,,,,,,7,04,,,,,,,,,,,7,1.843,1,,,,,,0.056481481,-0.380555556,1,0,0,1.8434,Peridotite_rect,1,0,1,0,1,
5d268981c22768000166c7c7,SCN,2024-06-25_13h23.17.341,LearnStrategy,2023.2.3,Win32,163.9344262,3,2,3,,,,,,,,8,03,,,,,,,,,,,8,1.276,1,,,,,,0.317592593,-0.386111111,1,0,0,1.2755,Pumice_rect,2,0,2,0,1,
5d268981c22768000166c7c7,SCN,2024-06-25_13h23.17.341,LearnStrategy,2023.2.3,Win32,163.9344262,3,2,4,,,,,,,,6,16,,,,,,,,,,,6,1.582,1,,,,,,-0.149074074,-0.390740741,1,0,0,1.5816,Pegmatite_rect,3,0,3,0,1,
5d268981c22768000166c7c7,SCN,2024-06-25_13h23.17.341,LearnStrategy,2023.2.3,Win32,163.9344262,3,2,5,,,,,,,,8,16,,,,,,,,,,,8,2.132,1,,,,,,0.437037037,-0.384259259,1,0,0,2.1318,Pumice_rect,4,0,4,0,1,
5d268981c22768000166c7c7,SCN,2024-06-25_13h23.17.341,LearnStrategy,2023.2.3,Win32,163.9344262,3,2,6,,,,,,,,3,09,,,,,,,,,,,3,1.336,1,,,,,,0.176851852,-0.250925926,1,0,0,1.336,Diorite_rect,5,0,5,0,1,
5d268981c22768000166c7c7,SCN,2024-06-25_13h23.17.341,LearnStrategy,2023.2.3,Win32,163.9344262,3,2,7,,,,,,,,1,03,,,,,,,,,,,1,1.518,1,,,,,,-0.398148148,-0.250925926,1,0,0,1.5178,Andesite_rect,6,0,6,0,1,
5d268981c22768000166c7c7,SCN,2024-06-25_13h23.17.341,LearnStrategy,2023.2.3,Win32,163.9344262,3,2,8,,,,,,,,5,14,,,,,,,,,,,5,1.341,1,,,,,,-0.384259259,-0.412037037,1,0,0,1.3413,Obsidian_rect,7,0,7,0,1,
5d268981c22768000166c7c7,SCN,2024-06-25_13h23.17.341,LearnStrategy,2023.2.3,Win32,163.9344262,3,2,9,,,,,,,,4,11,,,,,,,,,,,4,2.75,1,,,,,,0.441666667,-0.247222222,1,0,0,2.7499,Gabbro_rect,8,0,8,0,1,
5d268981c22768000166c7c7,SCN,2024-06-25_13h23.17.341,LearnStrategy,2023.2.3,Win32,163.9344262,3,2,10,,,,,,,,5,16,,,,,,,,,,,5,1.144,1,,,,,,-0.325925926,-0.392592593,1,0,0,1.1439,Obsidian_rect,9,0,9,0,1,
5d268981c22768000166c7c7,SCN,2024-06-25_13h23.17.341,LearnStrategy,2023.2.3,Win32,163.9344262,3,2,11,,,,,,,,4,05,,,,,,,,,,,4,3.499,1,,,,,,0.375925926,-0.252777778,1,0,0,3.4989,Gabbro_rect,10,0,10,0,1,
5d268981c22768000166c7c7,SCN,2024-06-25_13h23.17.341,LearnStrategy,2023.2.3,Win32,163.9344262,3,2,12,,,,,,,,7,13,,,,,,,,,,,7,1.09,1,,,,,,0.135185185,-0.387962963,1,0,0,1.09,Peridotite_rect,11,0,11,0,1,
5d268981c22768000166c7c7,SCN,2024-06-25_13h23.17.341,LearnStrategy,2023.2.3,Win32,163.9344262,3,2,13,,,,,,,,3,14,,,,,,,,,,,3,0.785,1,,,,,,0.135185185,-0.24537037,1,0,0,0.7847,Diorite_rect,12,0,12,0,1,
5d268981c22768000166c7c7,SCN,2024-06-25_13h23.17.341,LearnStrategy,2023.2.3,Win32,163.9344262,3,2,14,,,,,,,,2,04,,,,,,,,,,,2,0.89,1,,,,,,-0.213888889,-0.228703704,1,0,0,0.89,Basalt_rect,13,0,13,0,1,
5d268981c22768000166c7c7,SCN,2024-06-25_13h23.17.341,LearnStrategy,2023.2.3,Win32,163.9344262,3,2,15,,,,,,,,2,11,,,,,,,,,,,8,3.316,0,,,,,,0.363888889,-0.392592593,1,0,0,3.3163,Pumice_rect,14,0,14,0,1,
5d268981c22768000166c7c7,SCN,2024-06-25_13h23.17.341,LearnStrategy,2023.2.3,Win32,163.9344262,3,2,16,,,,,,,,1,04,,,,,,,,,,,4,2.528,0,,,,,,0.426851852,-0.247222222,1,0,0,2.5284,Gabbro_rect,15,0,15,0,1,
5d268981c22768000166c7c7,SCN,2024-06-25_13h23.17.341,LearnStrategy,2023.2.3,Win32,163.9344262,4,1,1,-0.189814815,-0.106481481,1,0,0,1.6114,Gabbro_13,4,13,3,3,1.611,0.403703704,-0.237037037,1,0,0,0.9965,Gabbro_rect,4,0.996,1,0,0,0,0,1,,,,,,,,,,,,,
5d268981c22768000166c7c7,SCN,2024-06-25_13h23.17.341,LearnStrategy,2023.2.3,Win32,163.9344262,4,1,2,-0.37962963,0.084259259,1,0,0,1.7504,Andesite_02,1,02,4,2,1.75,-0.151851852,-0.412962963,1,0,0,2.8751,Pegmatite_rect,6,2.875,0,1,0,1,0,1,,,,,,,,,,,,,
5d268981c22768000166c7c7,SCN,2024-06-25_13h23.17.341,LearnStrategy,2023.2.3,Win32,163.9344262,4,1,3,-0.223148148,0.407407407,1,0,0,2.2318,Andesite_07,1,07,6,3,2.232,-0.375925926,-0.264814815,1,0,0,1.8716,Andesite_rect,1,1.872,1,2,0,2,0,1,,,,,,,,,,,,,
5d268981c22768000166c7c7,SCN,2024-06-25_13h23.17.341,LearnStrategy,2023.2.3,Win32,163.9344262,4,1,4,0.380555556,0.260185185,1,0,0,3.0341,Diorite_13,3,13,5,7,3.034,0.090740741,-0.244444444,1,0,0,1.1144,Diorite_rect,3,1.114,1,3,0,3,0,1,,,,,,,,,,,,,
5d268981c22768000166c7c7,SCN,2024-06-25_13h23.17.341,LearnStrategy,2023.2.3,Win32,163.9344262,4,1,5,0.213888889,-0.112037037,1,0,0,2.4919,Gabbro_15,4,15,3,6,2.492,0.465740741,-0.262962963,1,0,0,1.0544,Gabbro_rect,4,1.054,1,4,0,4,0,1,,,,,,,,,,,,,
5d268981c22768000166c7c7,SCN,2024-06-25_13h23.17.341,LearnStrategy,2023.2.3,Win32,163.9344262,4,1,6,-0.276851852,-0.444444444,1,0,0,5.7684,Peridotite_15,7,15,1,3,5.768,0.144444444,-0.411111111,1,0,0,0.7174,Peridotite_rect,7,0.717,1,5,0,5,0,1,,,,,,,,,,,,,
5d268981c22768000166c7c7,SCN,2024-06-25_13h23.17.341,LearnStrategy,2023.2.3,Win32,163.9344262,4,1,7,-0.387037037,-0.37962963,1,0,0,3.6717,Pegmatite_05,6,05,1,2,3.672,-0.141666667,-0.390740741,1,0,0,0.8144,Pegmatite_rect,6,0.814,1,6,0,6,0,1,,,,,,,,,,,,,
5d268981c22768000166c7c7,SCN,2024-06-25_13h23.17.341,LearnStrategy,2023.2.3,Win32,163.9344262,4,1,8,0.532407407,0.075,1,0,0,3.1871,Pegmatite_03,6,03,4,8,3.187,-0.093518519,-0.388888889,1,0,0,0.8656,Pegmatite_rect,6,0.866,1,7,0,7,0,1,,,,,,,,,,,,,
5d268981c22768000166c7c7,SCN,2024-06-25_13h23.17.341,LearnStrategy,2023.2.3,Win32,163.9344262,4,1,9,0.219444444,0.200925926,1,0,0,1.69,Basalt_02,2,02,5,6,1.69,-0.135185185,-0.25,1,0,0,0.9265,Basalt_rect,2,0.926,1,8,0,8,0,1,,,,,,,,,,,,,
5d268981c22768000166c7c7,SCN,2024-06-25_13h23.17.341,LearnStrategy,2023.2.3,Win32,163.9344262,4,1,10,-0.108333333,0.268518519,1,0,0,1.1221,Gabbro_01,4,01,5,4,1.122,0.346296296,-0.235185185,1,0,0,1.4869,Gabbro_rect,4,1.487,1,9,0,9,0,1,,,,,,,,,,,,,
5d268981c22768000166c7c7,SCN,2024-06-25_13h23.17.341,LearnStrategy,2023.2.3,Win32,163.9344262,4,1,11,-0.072222222,0.37962963,1,0,0,2.9361,Basalt_14,2,14,6,4,2.936,0.37962963,-0.263888889,1,0,0,1.8947,Gabbro_rect,4,1.895,0,10,0,10,0,1,,,,,,,,,,,,,
5d268981c22768000166c7c7,SCN,2024-06-25_13h23.17.341,LearnStrategy,2023.2.3,Win32,163.9344262,4,1,12,0.260185185,0.4,1,0,0,2.544,Diorite_06,3,06,6,6,2.544,0.22962963,-0.231481481,1,0,0,2.2283,Diorite_rect,3,2.228,1,11,0,11,0,1,,,,,,,,,,,,,
5d268981c22768000166c7c7,SCN,2024-06-25_13h23.17.341,LearnStrategy,2023.2.3,Win32,163.9344262,4,1,13,-0.401851852,0.396296296,1,0,0,4.6221,Andesite_10,1,10,6,2,4.622,-0.463888889,-0.25462963,1,0,0,0.9104,Andesite_rect,1,0.91,1,12,0,12,0,1,,,,,,,,,,,,,
5d268981c22768000166c7c7,SCN,2024-06-25_13h23.17.341,LearnStrategy,2023.2.3,Win32,163.9344262,4,1,14,0.037962963,-0.1,1,0,0,1.3064,Pumice_08,8,08,3,5,1.306,0.35,-0.400925926,1,0,0,0.8181,Pumice_rect,8,0.818,1,13,0,13,0,1,,,,,,,,,,,,,
5d268981c22768000166c7c7,SCN,2024-06-25_13h23.17.341,LearnStrategy,2023.2.3,Win32,163.9344262,4,1,15,-0.567592593,0.398148148,1,0,0,2.9989,Gabbro_03,4,03,6,1,2.999,-0.303703704,-0.25462963,1,0,0,1.9032,Andesite_rect,1,1.903,0,14,0,14,0,1,,,,,,,,,,,,,
5d268981c22768000166c7c7,SCN,2024-06-25_13h23.17.341,LearnStrategy,2023.2.3,Win32,163.9344262,4,1,16,0.213888889,0.225,1,0,0,2.6774,Basalt_02,2,02,5,6,2.677,-0.103703704,-0.22962963,1,0,0,0.8258,Basalt_rect,2,0.826,1,15,0,15,0,1,,,,,,,,,,,,,
5d268981c22768000166c7c7,SCN,2024-06-25_13h23.17.341,LearnStrategy,2023.2.3,Win32,163.9344262,4,2,1,,,,,,,,6,09,,,,,,,,,,,6,1.322,1,,,,,,-0.088888889,-0.411111111,1,0,0,1.3222,Pegmatite_rect,0,0,0,0,1,
5d268981c22768000166c7c7,SCN,2024-06-25_13h23.17.341,LearnStrategy,2023.2.3,Win32,163.9344262,4,2,2,,,,,,,,7,12,,,,,,,,,,,7,2.416,1,,,,,,0.091666667,-0.398148148,1,0,0,2.416,Peridotite_rect,1,0,1,0,1,
5d268981c22768000166c7c7,SCN,2024-06-25_13h23.17.341,LearnStrategy,2023.2.3,Win32,163.9344262,4,2,3,,,,,,,,6,07,,,,,,,,,,,6,0.935,1,,,,,,-0.14537037,-0.390740741,1,0,0,0.9351,Pegmatite_rect,2,0,2,0,1,
5d268981c22768000166c7c7,SCN,2024-06-25_13h23.17.341,LearnStrategy,2023.2.3,Win32,163.9344262,4,2,4,,,,,,,,2,11,,,,,,,,,,,1,3.113,0,,,,,,-0.342592593,-0.266666667,1,0,0,3.1125,Andesite_rect,3,0,3,0,1,
5d268981c22768000166c7c7,SCN,2024-06-25_13h23.17.341,LearnStrategy,2023.2.3,Win32,163.9344262,4,2,5,,,,,,,,4,09,,,,,,,,,,,2,2.999,0,,,,,,-0.126851852,-0.25462963,1,0,0,2.9988,Basalt_rect,4,0,4,0,1,
5d268981c22768000166c7c7,SCN,2024-06-25_13h23.17.341,LearnStrategy,2023.2.3,Win32,163.9344262,4,2,6,,,,,,,,8,15,,,,,,,,,,,8,0.931,1,,,,,,0.418518519,-0.414814815,1,0,0,0.9307,Pumice_rect,5,0,5,0,1,
5d268981c22768000166c7c7,SCN,2024-06-25_13h23.17.341,LearnStrategy,2023.2.3,Win32,163.9344262,4,2,7,,,,,,,,5,02,,,,,,,,,,,5,0.92,1,,,,,,-0.437962963,-0.415740741,1,0,0,0.92,Obsidian_rect,6,0,6,0,1,
5d268981c22768000166c7c7,SCN,2024-06-25_13h23.17.341,LearnStrategy,2023.2.3,Win32,163.9344262,4,2,8,,,,,,,,7,14,,,,,,,,,,,3,2.168,0,,,,,,0.126851852,-0.249074074,1,0,0,2.1685,Diorite_rect,7,0,7,0,1,
5d268981c22768000166c7c7,SCN,2024-06-25_13h23.17.341,LearnStrategy,2023.2.3,Win32,163.9344262,4,2,9,,,,,,,,3,09,,,,,,,,,,,3,0.853,1,,,,,,0.12037037,-0.264814815,1,0,0,0.8526,Diorite_rect,8,0,8,0,1,
5d268981c22768000166c7c7,SCN,2024-06-25_13h23.17.341,LearnStrategy,2023.2.3,Win32,163.9344262,4,2,10,,,,,,,,1,16,,,,,,,,,,,1,1.94,1,,,,,,-0.390740741,-0.237962963,1,0,0,1.94,Andesite_rect,9,0,9,0,1,
5d268981c22768000166c7c7,SCN,2024-06-25_13h23.17.341,LearnStrategy,2023.2.3,Win32,163.9344262,4,2,11,,,,,,,,5,16,,,,,,,,,,,5,0.89,1,,,,,,-0.352777778,-0.415740741,1,0,0,0.8904,Obsidian_rect,10,0,10,0,1,
5d268981c22768000166c7c7,SCN,2024-06-25_13h23.17.341,LearnStrategy,2023.2.3,Win32,163.9344262,4,2,12,,,,,,,,8,03,,,,,,,,,,,8,1.029,1,,,,,,0.394444444,-0.402777778,1,0,0,1.0293,Pumice_rect,11,0,11,0,1,
5d268981c22768000166c7c7,SCN,2024-06-25_13h23.17.341,LearnStrategy,2023.2.3,Win32,163.9344262,4,2,13,,,,,,,,3,15,,,,,,,,,,,3,1.017,1,,,,,,0.142592593,-0.264814815,1,0,0,1.0167,Diorite_rect,12,0,12,0,1,
5d268981c22768000166c7c7,SCN,2024-06-25_13h23.17.341,LearnStrategy,2023.2.3,Win32,163.9344262,4,2,14,,,,,,,,4,11,,,,,,,,,,,2,4.432,0,,,,,,-0.12037037,-0.264814815,1,0,0,4.4318,Basalt_rect,13,0,13,0,1,
5d268981c22768000166c7c7,SCN,2024-06-25_13h23.17.341,LearnStrategy,2023.2.3,Win32,163.9344262,4,2,15,,,,,,,,1,03,,,,,,,,,,,1,2.065,1,,,,,,-0.348148148,-0.252777778,1,0,0,2.0653,Andesite_rect,14,0,14,0,1,
5d268981c22768000166c7c7,SCN,2024-06-25_13h23.17.341,LearnStrategy,2023.2.3,Win32,163.9344262,4,2,16,,,,,,,,2,04,,,,,,,,,,,2,1.429,1,,,,,,-0.114814815,-0.256481481,1,0,0,1.4288,Basalt_rect,15,0,15,0,1,
5d268981c22768000166c7c7,SCN,2024-06-25_13h23.17.341,LearnStrategy,2023.2.3,Win32,163.9344262,5,1,1,0.525925926,0.088888889,1,0,0,2.1992,Pegmatite_03,6,03,4,8,2.199,-0.191666667,-0.418518519,1,0,0,0.8587,Pegmatite_rect,6,0.859,1,0,0,0,0,1,,,,,,,,,,,,,
5d268981c22768000166c7c7,SCN,2024-06-25_13h23.17.341,LearnStrategy,2023.2.3,Win32,163.9344262,5,1,2,-0.578703704,0.40462963,1,0,0,0.7988,Gabbro_03,4,03,6,1,0.799,-0.37962963,-0.243518519,1,0,0,1.9517,Andesite_rect,1,1.952,0,1,0,1,0,1,,,,,,,,,,,,,
5d268981c22768000166c7c7,SCN,2024-06-25_13h23.17.341,LearnStrategy,2023.2.3,Win32,163.9344262,5,1,3,-0.372222222,0.391666667,1,0,0,1.2656,Andesite_10,1,10,6,2,1.266,-0.35,-0.255555556,1,0,0,2.0741,Andesite_rect,1,2.074,1,2,0,2,0,1,,,,,,,,,,,,,
5d268981c22768000166c7c7,SCN,2024-06-25_13h23.17.341,LearnStrategy,2023.2.3,Win32,163.9344262,5,1,4,-0.217592593,0.4,1,0,0,0.9625,Andesite_07,1,07,6,3,0.962,0.135185185,-0.246296296,1,0,0,1.2936,Diorite_rect,3,1.294,0,3,0,3,0,1,,,,,,,,,,,,,
5d268981c22768000166c7c7,SCN,2024-06-25_13h23.17.341,LearnStrategy,2023.2.3,Win32,163.9344262,5,1,5,-0.043518519,0.386111111,1,0,0,0.7505,Basalt_14,2,14,6,4,0.751,-0.050925926,-0.267592593,1,0,0,1.6062,Basalt_rect,2,1.606,1,4,0,4,0,1,,,,,,,,,,,,,
5d268981c22768000166c7c7,SCN,2024-06-25_13h23.17.341,LearnStrategy,2023.2.3,Win32,163.9344262,5,1,6,0.051851852,0.401851852,1,0,0,0.7204,Pegmatite_06,6,06,6,5,0.72,-0.091666667,-0.400925926,1,0,0,1.7848,Pegmatite_rect,6,1.785,1,5,0,5,0,1,,,,,,,,,,,,,
5d268981c22768000166c7c7,SCN,2024-06-25_13h23.17.341,LearnStrategy,2023.2.3,Win32,163.9344262,5,1,7,0.214814815,0.386111111,1,0,0,0.6576,Diorite_06,3,06,6,6,0.658,0.142592593,-0.230555556,1,0,0,1.2094,Diorite_rect,3,1.209,1,6,0,6,0,1,,,,,,,,,,,,,
5d268981c22768000166c7c7,SCN,2024-06-25_13h23.17.341,LearnStrategy,2023.2.3,Win32,163.9344262,5,1,8,0.382407407,0.382407407,1,0,0,0.9135,Andesite_11,1,11,6,7,0.913,-0.361111111,-0.252777778,1,0,0,1.7979,Andesite_rect,1,1.798,1,7,0,7,0,1,,,,,,,,,,,,,
5d268981c22768000166c7c7,SCN,2024-06-25_13h23.17.341,LearnStrategy,2023.2.3,Win32,163.9344262,5,1,9,0.506481481,0.385185185,1,0,0,0.7725,Obsidian_10,5,10,6,8,0.773,-0.351851852,-0.39537037,1,0,0,1.0455,Obsidian_rect,5,1.045,1,8,0,8,0,1,,,,,,,,,,,,,
5d268981c22768000166c7c7,SCN,2024-06-25_13h23.17.341,LearnStrategy,2023.2.3,Win32,163.9344262,5,1,10,-0.521296296,0.228703704,1,0,0,0.8474,Diorite_08,3,08,5,1,0.847,0.143518519,-0.262037037,1,0,0,0.76,Diorite_rect,3,0.76,1,9,0,9,0,1,,,,,,,,,,,,,
5d268981c22768000166c7c7,SCN,2024-06-25_13h23.17.341,LearnStrategy,2023.2.3,Win32,163.9344262,5,1,11,-0.347222222,0.24537037,1,0,0,0.6902,Basalt_09,2,09,5,2,0.69,-0.140740741,-0.234259259,1,0,0,1.26,Basalt_rect,2,1.26,1,10,0,10,0,1,,,,,,,,,,,,,
5d268981c22768000166c7c7,SCN,2024-06-25_13h23.17.341,LearnStrategy,2023.2.3,Win32,163.9344262,5,1,12,-0.243518519,0.238888889,1,0,0,1.1819,Pumice_06,8,06,5,3,1.182,0.44537037,-0.402777778,1,0,0,0.8126,Pumice_rect,8,0.813,1,11,0,11,0,1,,,,,,,,,,,,,
5d268981c22768000166c7c7,SCN,2024-06-25_13h23.17.341,LearnStrategy,2023.2.3,Win32,163.9344262,5,1,13,-0.037962963,0.216666667,1,0,0,1.1326,Gabbro_01,4,01,5,4,1.133,0.297222222,-0.252777778,1,0,0,5.3494,Gabbro_rect,4,5.349,1,12,0,12,0,1,,,,,,,,,,,,,
5d268981c22768000166c7c7,SCN,2024-06-25_13h23.17.341,LearnStrategy,2023.2.3,Win32,163.9344262,5,1,14,0.083333333,0.212962963,1,0,0,0.7866,Obsidian_08,5,08,5,5,0.787,-0.330555556,-0.390740741,1,0,0,0.8109,Obsidian_rect,5,0.811,1,13,0,13,0,1,,,,,,,,,,,,,
5d268981c22768000166c7c7,SCN,2024-06-25_13h23.17.341,LearnStrategy,2023.2.3,Win32,163.9344262,5,1,15,0.214814815,0.262037037,1,0,0,0.6136,Basalt_02,2,02,5,6,0.614,-0.056481481,-0.257407407,1,0,0,0.9543,Basalt_rect,2,0.954,1,14,0,14,0,1,,,,,,,,,,,,,
5d268981c22768000166c7c7,SCN,2024-06-25_13h23.17.341,LearnStrategy,2023.2.3,Win32,163.9344262,5,1,16,0.391666667,0.232407407,1,0,0,0.6835,Diorite_13,3,13,5,7,0.683,0.128703704,-0.230555556,1,0,0,0.7778,Diorite_rect,3,0.778,1,15,0,15,0,1,,,,,,,,,,,,,
5d268981c22768000166c7c7,SCN,2024-06-25_13h23.17.341,LearnStrategy,2023.2.3,Win32,163.9344262,5,2,1,,,,,,,,7,13,,,,,,,,,,,7,1.733,1,,,,,,0.057407407,-0.381481481,1,0,0,1.7333,Peridotite_rect,0,0,0,0,1,
5d268981c22768000166c7c7,SCN,2024-06-25_13h23.17.341,LearnStrategy,2023.2.3,Win32,163.9344262,5,2,2,,,,,,,,3,02,,,,,,,,,,,3,1.394,1,,,,,,0.147222222,-0.258333333,1,0,0,1.3937,Diorite_rect,1,0,1,0,1,
5d268981c22768000166c7c7,SCN,2024-06-25_13h23.17.341,LearnStrategy,2023.2.3,Win32,163.9344262,5,2,3,,,,,,,,5,09,,,,,,,,,,,5,1.016,1,,,,,,-0.357407407,-0.417592593,1,0,0,1.0161,Obsidian_rect,2,0,2,0,1,
5d268981c22768000166c7c7,SCN,2024-06-25_13h23.17.341,LearnStrategy,2023.2.3,Win32,163.9344262,5,2,4,,,,,,,,1,05,,,,,,,,,,,1,2.768,1,,,,,,-0.407407407,-0.244444444,1,0,0,2.768,Andesite_rect,3,0,3,0,1,
5d268981c22768000166c7c7,SCN,2024-06-25_13h23.17.341,LearnStrategy,2023.2.3,Win32,163.9344262,5,2,5,,,,,,,,4,12,,,,,,,,,,,4,3.496,1,,,,,,0.436111111,-0.250925926,1,0,0,3.4956,Gabbro_rect,4,0,4,0,1,
5d268981c22768000166c7c7,SCN,2024-06-25_13h23.17.341,LearnStrategy,2023.2.3,Win32,163.9344262,5,2,6,,,,,,,,3,16,,,,,,,,,,,3,1.351,1,,,,,,0.082407407,-0.252777778,1,0,0,1.3506,Diorite_rect,5,0,5,0,1,
5d268981c22768000166c7c7,SCN,2024-06-25_13h23.17.341,LearnStrategy,2023.2.3,Win32,163.9344262,5,2,7,,,,,,,,6,11,,,,,,,,,,,6,1.15,1,,,,,,-0.193518519,-0.411111111,1,0,0,1.1498,Pegmatite_rect,6,0,6,0,1,
5d268981c22768000166c7c7,SCN,2024-06-25_13h23.17.341,LearnStrategy,2023.2.3,Win32,163.9344262,5,2,8,,,,,,,,2,16,,,,,,,,,,,4,1.86,0,,,,,,0.362037037,-0.250925926,1,0,0,1.8599,Gabbro_rect,7,0,7,0,1,
5d268981c22768000166c7c7,SCN,2024-06-25_13h23.17.341,LearnStrategy,2023.2.3,Win32,163.9344262,5,2,9,,,,,,,,2,08,,,,,,,,,,,2,0.812,1,,,,,,-0.106481481,-0.253703704,1,0,0,0.8116,Basalt_rect,8,0,8,0,1,
5d268981c22768000166c7c7,SCN,2024-06-25_13h23.17.341,LearnStrategy,2023.2.3,Win32,163.9344262,5,2,10,,,,,,,,1,01,,,,,,,,,,,3,2.356,0,,,,,,0.099074074,-0.249074074,1,0,0,2.3564,Diorite_rect,9,0,9,0,1,
5d268981c22768000166c7c7,SCN,2024-06-25_13h23.17.341,LearnStrategy,2023.2.3,Win32,163.9344262,5,2,11,,,,,,,,6,15,,,,,,,,,,,6,1.126,1,,,,,,-0.080555556,-0.393518519,1,0,0,1.1258,Pegmatite_rect,10,0,10,0,1,
5d268981c22768000166c7c7,SCN,2024-06-25_13h23.17.341,LearnStrategy,2023.2.3,Win32,163.9344262,5,2,12,,,,,,,,8,09,,,,,,,,,,,8,1.262,1,,,,,,0.356481481,-0.393518519,1,0,0,1.2622,Pumice_rect,11,0,11,0,1,
5d268981c22768000166c7c7,SCN,2024-06-25_13h23.17.341,LearnStrategy,2023.2.3,Win32,163.9344262,5,2,13,,,,,,,,5,12,,,,,,,,,,,5,0.913,1,,,,,,-0.367592593,-0.402777778,1,0,0,0.9128,Obsidian_rect,12,0,12,0,1,
5d268981c22768000166c7c7,SCN,2024-06-25_13h23.17.341,LearnStrategy,2023.2.3,Win32,163.9344262,5,2,14,,,,,,,,4,16,,,,,,,,,,,4,1.4,1,,,,,,0.363888889,-0.240740741,1,0,0,1.4004,Gabbro_rect,13,0,13,0,1,
5d268981c22768000166c7c7,SCN,2024-06-25_13h23.17.341,LearnStrategy,2023.2.3,Win32,163.9344262,5,2,15,,,,,,,,7,05,,,,,,,,,,,7,1.364,1,,,,,,0.077777778,-0.381481481,1,0,0,1.3637,Peridotite_rect,14,0,14,0,1,
5d268981c22768000166c7c7,SCN,2024-06-25_13h23.17.341,LearnStrategy,2023.2.3,Win32,163.9344262,5,2,16,,,,,,,,8,10,,,,,,,,,,,8,1.099,1,,,,,,0.4,-0.405555556,1,0,0,1.0988,Pumice_rect,15,0,15,0,1,
5d268981c22768000166c7c7,SCN,2024-06-25_13h23.17.341,LearnStrategy,2023.2.3,Win32,163.9344262,6,1,1,0.248148148,0.225,1,0,0,1.6657,Basalt_02,2,02,5,6,1.666,-0.096296296,-0.242592593,1,0,0,0.8476,Basalt_rect,2,0.848,1,0,0,0,0,1,,,,,,,,,,,,,
5d268981c22768000166c7c7,SCN,2024-06-25_13h23.17.341,LearnStrategy,2023.2.3,Win32,163.9344262,6,1,2,0.363888889,0.256481481,1,0,0,1.5129,Diorite_13,3,13,5,7,1.513,0.158333333,-0.257407407,1,0,0,0.6913,Diorite_rect,3,0.691,1,1,0,1,0,1,,,,,,,,,,,,,
5d268981c22768000166c7c7,SCN,2024-06-25_13h23.17.341,LearnStrategy,2023.2.3,Win32,163.9344262,6,1,3,0.55,0.238888889,1,0,0,0.7686,Gabbro_08,4,08,5,8,0.769,0.416666667,-0.230555556,1,0,0,1.8622,Gabbro_rect,4,1.862,1,2,0,2,0,1,,,,,,,,,,,,,
5d268981c22768000166c7c7,SCN,2024-06-25_13h23.17.341,LearnStrategy,2023.2.3,Win32,163.9344262,6,1,4,-0.558333333,0.071296296,1,0,0,0.9176,Obsidian_05,5,05,4,1,0.918,0.094444444,-0.236111111,1,0,0,1.7234,Diorite_rect,3,1.723,0,3,0,3,0,1,,,,,,,,,,,,,
5d268981c22768000166c7c7,SCN,2024-06-25_13h23.17.341,LearnStrategy,2023.2.3,Win32,163.9344262,6,1,5,-0.398148148,0.077777778,1,0,0,1.0576,Andesite_02,1,02,4,2,1.058,-0.359259259,-0.262037037,1,0,0,2.4481,Andesite_rect,1,2.448,1,4,0,4,0,1,,,,,,,,,,,,,
5d268981c22768000166c7c7,SCN,2024-06-25_13h23.17.341,LearnStrategy,2023.2.3,Win32,163.9344262,6,1,6,-0.236111111,0.102777778,1,0,0,0.8807,Pegmatite_12,6,12,4,3,0.881,-0.15462963,-0.418518519,1,0,0,1.247,Pegmatite_rect,6,1.247,1,5,0,5,0,1,,,,,,,,,,,,,
5d268981c22768000166c7c7,SCN,2024-06-25_13h23.17.341,LearnStrategy,2023.2.3,Win32,163.9344262,6,1,7,-0.066666667,0.07962963,1,0,0,0.8287,Andesite_14,1,14,4,4,0.829,-0.391666667,-0.267592593,1,0,0,1.2681,Andesite_rect,1,1.268,1,6,0,6,0,1,,,,,,,,,,,,,
5d268981c22768000166c7c7,SCN,2024-06-25_13h23.17.341,LearnStrategy,2023.2.3,Win32,163.9344262,6,1,8,0.056481481,0.080555556,1,0,0,0.8841,Obsidian_11,5,11,4,5,0.884,-0.378703704,-0.389814815,1,0,0,0.6208,Obsidian_rect,5,0.621,1,7,0,7,0,1,,,,,,,,,,,,,
5d268981c22768000166c7c7,SCN,2024-06-25_13h23.17.341,LearnStrategy,2023.2.3,Win32,163.9344262,6,1,9,0.209259259,0.085185185,1,0,0,1.0902,Peridotite_08,7,08,4,6,1.09,0.141666667,-0.419444444,1,0,0,1.4942,Peridotite_rect,7,1.494,1,8,0,8,0,1,,,,,,,,,,,,,
5d268981c22768000166c7c7,SCN,2024-06-25_13h23.17.341,LearnStrategy,2023.2.3,Win32,163.9344262,6,1,10,0.414814815,0.063888889,1,0,0,0.9261,Peridotite_07,7,07,4,7,0.926,0.113888889,-0.398148148,1,0,0,1.0845,Peridotite_rect,7,1.085,1,9,0,9,0,1,,,,,,,,,,,,,
5d268981c22768000166c7c7,SCN,2024-06-25_13h23.17.341,LearnStrategy,2023.2.3,Win32,163.9344262,6,1,11,0.577777778,0.073148148,1,0,0,0.7345,Pegmatite_03,6,03,4,8,0.735,-0.136111111,-0.4,1,0,0,1.0772,Pegmatite_rect,6,1.077,1,10,0,10,0,1,,,,,,,,,,,,,
5d268981c22768000166c7c7,SCN,2024-06-25_13h23.17.341,LearnStrategy,2023.2.3,Win32,163.9344262,6,1,12,-0.551851852,-0.132407407,1,0,0,0.8111,Andesite_06,1,06,3,1,0.811,-0.325925926,-0.237037037,1,0,0,1.7914,Andesite_rect,1,1.791,1,11,0,11,0,1,,,,,,,,,,,,,
5d268981c22768000166c7c7,SCN,2024-06-25_13h23.17.341,LearnStrategy,2023.2.3,Win32,163.9344262,6,1,13,-0.409259259,-0.094444444,1,0,0,1.1303,Pumice_05,8,05,3,2,1.13,0.367592593,-0.390740741,1,0,0,1.6929,Pumice_rect,8,1.693,1,12,0,12,0,1,,,,,,,,,,,,,
5d268981c22768000166c7c7,SCN,2024-06-25_13h23.17.341,LearnStrategy,2023.2.3,Win32,163.9344262,6,1,14,-0.238888889,-0.119444444,1,0,0,1.0533,Gabbro_13,4,13,3,3,1.053,0.35462963,-0.249074074,1,0,0,1.3251,Gabbro_rect,4,1.325,1,13,0,13,0,1,,,,,,,,,,,,,
5d268981c22768000166c7c7,SCN,2024-06-25_13h23.17.341,LearnStrategy,2023.2.3,Win32,163.9344262,6,1,15,-0.074074074,-0.15,1,0,0,0.6718,Basalt_01,2,01,3,4,0.672,-0.121296296,-0.262962963,1,0,0,0.8271,Basalt_rect,2,0.827,1,14,0,14,0,1,,,,,,,,,,,,,
5d268981c22768000166c7c7,SCN,2024-06-25_13h23.17.341,LearnStrategy,2023.2.3,Win32,163.9344262,6,1,16,0.049074074,-0.117592593,1,0,0,0.7993,Pumice_08,8,08,3,5,0.799,0.333333333,-0.414814815,1,0,0,1.7371,Pumice_rect,8,1.737,1,15,0,15,0,1,,,,,,,,,,,,,
5d268981c22768000166c7c7,SCN,2024-06-25_13h23.17.341,LearnStrategy,2023.2.3,Win32,163.9344262,6,2,1,,,,,,,,4,14,,,,,,,,,,,4,1.132,1,,,,,,0.333333333,-0.25,1,0,0,1.1321,Gabbro_rect,0,0,0,0,1,
5d268981c22768000166c7c7,SCN,2024-06-25_13h23.17.341,LearnStrategy,2023.2.3,Win32,163.9344262,6,2,2,,,,,,,,3,14,,,,,,,,,,,3,1.252,1,,,,,,0.121296296,-0.267592593,1,0,0,1.2518,Diorite_rect,1,0,1,0,1,
5d268981c22768000166c7c7,SCN,2024-06-25_13h23.17.341,LearnStrategy,2023.2.3,Win32,163.9344262,6,2,3,,,,,,,,8,16,,,,,,,,,,,8,0.938,1,,,,,,0.341666667,-0.398148148,1,0,0,0.9375,Pumice_rect,2,0,2,0,1,
5d268981c22768000166c7c7,SCN,2024-06-25_13h23.17.341,LearnStrategy,2023.2.3,Win32,163.9344262,6,2,4,,,,,,,,7,04,,,,,,,,,,,7,1.502,1,,,,,,0.078703704,-0.387037037,1,0,0,1.5018,Peridotite_rect,3,0,3,0,1,
5d268981c22768000166c7c7,SCN,2024-06-25_13h23.17.341,LearnStrategy,2023.2.3,Win32,163.9344262,6,2,5,,,,,,,,2,06,,,,,,,,,,,2,1.24,1,,,,,,-0.118518519,-0.24537037,1,0,0,1.2402,Basalt_rect,4,0,4,0,1,
5d268981c22768000166c7c7,SCN,2024-06-25_13h23.17.341,LearnStrategy,2023.2.3,Win32,163.9344262,6,2,6,,,,,,,,1,09,,,,,,,,,,,1,1.71,1,,,,,,-0.37962963,-0.247222222,1,0,0,1.7099,Andesite_rect,5,0,5,0,1,
5d268981c22768000166c7c7,SCN,2024-06-25_13h23.17.341,LearnStrategy,2023.2.3,Win32,163.9344262,6,2,7,,,,,,,,5,04,,,,,,,,,,,5,1.065,1,,,,,,-0.338888889,-0.409259259,1,0,0,1.0655,Obsidian_rect,6,0,6,0,1,
5d268981c22768000166c7c7,SCN,2024-06-25_13h23.17.341,LearnStrategy,2023.2.3,Win32,163.9344262,6,2,8,,,,,,,,1,04,,,,,,,,,,,1,2.823,1,,,,,,-0.323148148,-0.253703704,1,0,0,2.8234,Andesite_rect,7,0,7,0,1,
5d268981c22768000166c7c7,SCN,2024-06-25_13h23.17.341,LearnStrategy,2023.2.3,Win32,163.9344262,6,2,9,,,,,,,,2,12,,,,,,,,,,,8,1.191,0,,,,,,0.377777778,-0.408333333,1,0,0,1.1908,Pumice_rect,8,0,8,0,1,
5d268981c22768000166c7c7,SCN,2024-06-25_13h23.17.341,LearnStrategy,2023.2.3,Win32,163.9344262,6,2,10,,,,,,,,5,14,,,,,,,,,,,5,0.945,1,,,,,,-0.487037037,-0.400925926,1,0,0,0.9453,Obsidian_rect,9,0,9,0,1,
5d268981c22768000166c7c7,SCN,2024-06-25_13h23.17.341,LearnStrategy,2023.2.3,Win32,163.9344262,6,2,11,,,,,,,,8,13,,,,,,,,,,,8,1.55,1,,,,,,0.362037037,-0.399074074,1,0,0,1.5504,Pumice_rect,10,0,10,0,1,
5d268981c22768000166c7c7,SCN,2024-06-25_13h23.17.341,LearnStrategy,2023.2.3,Win32,163.9344262,6,2,12,,,,,,,,7,16,,,,,,,,,,,7,1.485,1,,,,,,0.137962963,-0.411111111,1,0,0,1.4854,Peridotite_rect,11,0,11,0,1,
5d268981c22768000166c7c7,SCN,2024-06-25_13h23.17.341,LearnStrategy,2023.2.3,Win32,163.9344262,6,2,13,,,,,,,,3,10,,,,,,,,,,,3,2.357,1,,,,,,0.136111111,-0.251851852,1,0,0,2.3566,Diorite_rect,12,0,12,0,1,
5d268981c22768000166c7c7,SCN,2024-06-25_13h23.17.341,LearnStrategy,2023.2.3,Win32,163.9344262,6,2,14,,,,,,,,6,13,,,,,,,,,,,6,1.004,1,,,,,,-0.167592593,-0.390740741,1,0,0,1.0038,Pegmatite_rect,13,0,13,0,1,
5d268981c22768000166c7c7,SCN,2024-06-25_13h23.17.341,LearnStrategy,2023.2.3,Win32,163.9344262,6,2,15,,,,,,,,4,05,,,,,,,,,,,7,4.23,0,,,,,,0.074074074,-0.382407407,1,0,0,4.2295,Peridotite_rect,14,0,14,0,1,
5d268981c22768000166c7c7,SCN,2024-06-25_13h23.17.341,LearnStrategy,2023.2.3,Win32,163.9344262,6,2,16,,,,,,,,6,16,,,,,,,,,,,6,0.884,1,,,,,,-0.135185185,-0.397222222,1,0,0,0.8837,Pegmatite_rect,15,0,15,0,1,
5d268981c22768000166c7c7,SCN,2024-06-25_13h23.17.341,LearnStrategy,2023.2.3,Win32,163.9344262,7,1,1,0.213888889,-0.113888889,1,0,0,3.5725,Gabbro_15,4,15,3,6,3.572,0.343518519,-0.255555556,1,0,0,0.7826,Gabbro_rect,4,0.783,1,0,0,0,0,1,,,,,,,,,,,,,
5d268981c22768000166c7c7,SCN,2024-06-25_13h23.17.341,LearnStrategy,2023.2.3,Win32,163.9344262,7,1,2,0.406481481,-0.138888889,1,0,0,0.8538,Pegmatite_10,6,10,3,7,0.854,-0.108333333,-0.400925926,1,0,0,0.5424,Pegmatite_rect,6,0.542,1,1,0,1,0,1,,,,,,,,,,,,,
5d268981c22768000166c7c7,SCN,2024-06-25_13h23.17.341,LearnStrategy,2023.2.3,Win32,163.9344262,7,1,3,0.522222222,-0.106481481,1,0,0,0.7569,Basalt_10,2,10,3,8,0.757,-0.10462963,-0.256481481,1,0,0,1.3576,Basalt_rect,2,1.358,1,2,0,2,0,1,,,,,,,,,,,,,
5d268981c22768000166c7c7,SCN,2024-06-25_13h23.17.341,LearnStrategy,2023.2.3,Win32,163.9344262,7,1,4,-0.586111111,-0.278703704,1,0,0,0.9423,Diorite_07,3,07,2,1,0.942,0.114814815,-0.252777778,1,0,0,0.9309,Diorite_rect,3,0.931,1,3,0,3,0,1,,,,,,,,,,,,,
5d268981c22768000166c7c7,SCN,2024-06-25_13h23.17.341,LearnStrategy,2023.2.3,Win32,163.9344262,7,1,5,-0.365740741,-0.250925926,1,0,0,0.7736,Obsidian_07,5,07,2,2,0.774,-0.416666667,-0.398148148,1,0,0,1.2707,Obsidian_rect,5,1.271,1,4,0,4,0,1,,,,,,,,,,,,,
5d268981c22768000166c7c7,SCN,2024-06-25_13h23.17.341,LearnStrategy,2023.2.3,Win32,163.9344262,7,1,6,-0.259259259,-0.265740741,1,0,0,0.7441,Pumice_02,8,02,2,3,0.744,0.325925926,-0.399074074,1,0,0,1.2011,Pumice_rect,8,1.201,1,5,0,5,0,1,,,,,,,,,,,,,
5d268981c22768000166c7c7,SCN,2024-06-25_13h23.17.341,LearnStrategy,2023.2.3,Win32,163.9344262,7,1,7,-0.05,-0.275925926,1,0,0,0.8295,Diorite_11,3,11,2,4,0.829,0.163888889,-0.253703704,1,0,0,1.1963,Diorite_rect,3,1.196,1,6,0,6,0,1,,,,,,,,,,,,,
5d268981c22768000166c7c7,SCN,2024-06-25_13h23.17.341,LearnStrategy,2023.2.3,Win32,163.9344262,7,1,8,0.087037037,-0.241666667,1,0,0,0.7747,Peridotite_10,7,10,2,5,0.775,0.113888889,-0.401851852,1,0,0,1.705,Peridotite_rect,7,1.705,1,7,0,7,0,1,,,,,,,,,,,,,
5d268981c22768000166c7c7,SCN,2024-06-25_13h23.17.341,LearnStrategy,2023.2.3,Win32,163.9344262,7,1,9,0.255555556,-0.260185185,1,0,0,0.8899,Diorite_12,3,12,2,6,0.89,0.109259259,-0.249074074,1,0,0,0.9647,Diorite_rect,3,0.965,1,8,0,8,0,1,,,,,,,,,,,,,
5d268981c22768000166c7c7,SCN,2024-06-25_13h23.17.341,LearnStrategy,2023.2.3,Win32,163.9344262,7,1,10,0.394444444,-0.267592593,1,0,0,0.7067,Gabbro_10,4,10,2,7,0.707,-0.138888889,-0.251851852,1,0,0,1.8774,Basalt_rect,2,1.877,0,9,0,9,0,1,,,,,,,,,,,,,
5d268981c22768000166c7c7,SCN,2024-06-25_13h23.17.341,LearnStrategy,2023.2.3,Win32,163.9344262,7,1,11,0.535185185,-0.250925926,1,0,0,1.1022,Pegmatite_08,6,08,2,8,1.102,-0.092592593,-0.406481481,1,0,0,0.9703,Pegmatite_rect,6,0.97,1,10,0,10,0,1,,,,,,,,,,,,,
5d268981c22768000166c7c7,SCN,2024-06-25_13h23.17.341,LearnStrategy,2023.2.3,Win32,163.9344262,7,1,12,-0.539814815,-0.400925926,1,0,0,1.7992,Peridotite_06,7,06,1,1,1.799,0.091666667,-0.406481481,1,0,0,1.3903,Peridotite_rect,7,1.39,1,11,0,11,0,1,,,,,,,,,,,,,
5d268981c22768000166c7c7,SCN,2024-06-25_13h23.17.341,LearnStrategy,2023.2.3,Win32,163.9344262,7,1,13,-0.364814815,-0.438888889,1,0,0,0.896,Pegmatite_05,6,05,1,2,0.896,-0.209259259,-0.405555556,1,0,0,0.8157,Pegmatite_rect,6,0.816,1,12,0,12,0,1,,,,,,,,,,,,,
5d268981c22768000166c7c7,SCN,2024-06-25_13h23.17.341,LearnStrategy,2023.2.3,Win32,163.9344262,7,1,14,-0.226851852,-0.408333333,1,0,0,1.0961,Peridotite_15,7,15,1,3,1.096,0.199074074,-0.383333333,1,0,0,0.524,Peridotite_rect,7,0.524,1,13,0,13,0,1,,,,,,,,,,,,,
5d268981c22768000166c7c7,SCN,2024-06-25_13h23.17.341,LearnStrategy,2023.2.3,Win32,163.9344262,7,1,15,-0.094444444,-0.418518519,1,0,0,0.8598,Obsidian_06,5,06,1,4,0.86,-0.322222222,-0.387037037,1,0,0,0.906,Obsidian_rect,5,0.906,1,14,0,14,0,1,,,,,,,,,,,,,
5d268981c22768000166c7c7,SCN,2024-06-25_13h23.17.341,LearnStrategy,2023.2.3,Win32,163.9344262,7,1,16,-0.028703704,-0.4,1,0,0,0.8359,Obsidian_06,5,06,1,4,0.836,-0.372222222,-0.392592593,1,0,0,0.8892,Obsidian_rect,5,0.889,1,15,0,15,0,1,,,,,,,,,,,,,
5d268981c22768000166c7c7,SCN,2024-06-25_13h23.17.341,LearnStrategy,2023.2.3,Win32,163.9344262,7,2,1,,,,,,,,7,04,,,,,,,,,,,7,1.098,1,,,,,,0.12037037,-0.384259259,1,0,0,1.0982,Peridotite_rect,0,0,0,0,1,
5d268981c22768000166c7c7,SCN,2024-06-25_13h23.17.341,LearnStrategy,2023.2.3,Win32,163.9344262,7,2,2,,,,,,,,8,16,,,,,,,,,,,8,1.085,1,,,,,,0.346296296,-0.39537037,1,0,0,1.0851,Pumice_rect,1,0,1,0,1,
5d268981c22768000166c7c7,SCN,2024-06-25_13h23.17.341,LearnStrategy,2023.2.3,Win32,163.9344262,7,2,3,,,,,,,,3,09,,,,,,,,,,,3,0.837,1,,,,,,0.105555556,-0.228703704,1,0,0,0.8366,Diorite_rect,2,0,2,0,1,
5d268981c22768000166c7c7,SCN,2024-06-25_13h23.17.341,LearnStrategy,2023.2.3,Win32,163.9344262,7,2,4,,,,,,,,5,09,,,,,,,,,,,5,0.84,1,,,,,,-0.390740741,-0.399074074,1,0,0,0.8404,Obsidian_rect,3,0,3,0,1,
5d268981c22768000166c7c7,SCN,2024-06-25_13h23.17.341,LearnStrategy,2023.2.3,Win32,163.9344262,7,2,5,,,,,,,,4,05,,,,,,,,,,,4,3.899,1,,,,,,0.367592593,-0.264814815,1,0,0,3.8992,Gabbro_rect,4,0,4,0,1,
5d268981c22768000166c7c7,SCN,2024-06-25_13h23.17.341,LearnStrategy,2023.2.3,Win32,163.9344262,7,2,6,,,,,,,,3,10,,,,,,,,,,,3,2.39,1,,,,,,0.109259259,-0.256481481,1,0,0,2.3901,Diorite_rect,5,0,5,0,1,
5d268981c22768000166c7c7,SCN,2024-06-25_13h23.17.341,LearnStrategy,2023.2.3,Win32,163.9344262,7,2,7,,,,,,,,1,09,,,,,,,,,,,1,0.949,1,,,,,,-0.424074074,-0.238888889,1,0,0,0.9486,Andesite_rect,6,0,6,0,1,
5d268981c22768000166c7c7,SCN,2024-06-25_13h23.17.341,LearnStrategy,2023.2.3,Win32,163.9344262,7,2,8,,,,,,,,2,04,,,,,,,,,,,2,1.104,1,,,,,,-0.162962963,-0.267592593,1,0,0,1.1035,Basalt_rect,7,0,7,0,1,
5d268981c22768000166c7c7,SCN,2024-06-25_13h23.17.341,LearnStrategy,2023.2.3,Win32,163.9344262,7,2,9,,,,,,,,6,13,,,,,,,,,,,6,0.917,1,,,,,,-0.046296296,-0.389814815,1,0,0,0.9173,Pegmatite_rect,8,0,8,0,1,
5d268981c22768000166c7c7,SCN,2024-06-25_13h23.17.341,LearnStrategy,2023.2.3,Win32,163.9344262,7,2,10,,,,,,,,8,15,,,,,,,,,,,8,0.877,1,,,,,,0.398148148,-0.409259259,1,0,0,0.8767,Pumice_rect,9,0,9,0,1,
5d268981c22768000166c7c7,SCN,2024-06-25_13h23.17.341,LearnStrategy,2023.2.3,Win32,163.9344262,7,2,11,,,,,,,,5,12,,,,,,,,,,,5,0.87,1,,,,,,-0.422222222,-0.399074074,1,0,0,0.8695,Obsidian_rect,10,0,10,0,1,
5d268981c22768000166c7c7,SCN,2024-06-25_13h23.17.341,LearnStrategy,2023.2.3,Win32,163.9344262,7,2,12,,,,,,,,4,14,,,,,,,,,,,4,1.128,1,,,,,,0.372222222,-0.238888889,1,0,0,1.1278,Gabbro_rect,11,0,11,0,1,
5d268981c22768000166c7c7,SCN,2024-06-25_13h23.17.341,LearnStrategy,2023.2.3,Win32,163.9344262,7,2,13,,,,,,,,7,16,,,,,,,,,,,7,2.106,1,,,,,,0.053703704,-0.405555556,1,0,0,2.1058,Peridotite_rect,12,0,12,0,1,
5d268981c22768000166c7c7,SCN,2024-06-25_13h23.17.341,LearnStrategy,2023.2.3,Win32,163.9344262,7,2,14,,,,,,,,2,11,,,,,,,,,,,1,1.478,0,,,,,,-0.373148148,-0.25462963,1,0,0,1.4778,Andesite_rect,13,0,13,0,1,
5d268981c22768000166c7c7,SCN,2024-06-25_13h23.17.341,LearnStrategy,2023.2.3,Win32,163.9344262,7,2,15,,,,,,,,1,03,,,,,,,,,,,1,1.824,1,,,,,,-0.459259259,-0.22962963,1,0,0,1.8238,Andesite_rect,14,0,14,0,1,
5d268981c22768000166c7c7,SCN,2024-06-25_13h23.17.341,LearnStrategy,2023.2.3,Win32,163.9344262,7,2,16,,,,,,,,6,16,,,,,,,,,,,6,0.798,1,,,,,,-0.190740741,-0.407407407,1,0,0,0.7984,Pegmatite_rect,15,0,15,0,1,
5d268981c22768000166c7c7,SCN,2024-06-25_13h23.17.341,LearnStrategy,2023.2.3,Win32,163.9344262,8,1,1,0.049074074,-0.400925926,1,0,0,2.2841,Pumice_14,8,14,1,5,2.284,0.428703704,-0.381481481,1,0,0,0.5827,Pumice_rect,8,0.583,1,0,0,0,0,1,,,,,,,,,,,,,
5d268981c22768000166c7c7,SCN,2024-06-25_13h23.17.341,LearnStrategy,2023.2.3,Win32,163.9344262,8,1,2,0.225925926,-0.390740741,1,0,0,0.8236,Basalt_05,2,05,1,6,0.824,-0.102777778,-0.260185185,1,0,0,0.9628,Basalt_rect,2,0.963,1,1,0,1,0,1,,,,,,,,,,,,,
5d268981c22768000166c7c7,SCN,2024-06-25_13h23.17.341,LearnStrategy,2023.2.3,Win32,163.9344262,8,1,3,0.409259259,-0.437962963,1,0,0,0.8054,Peridotite_02,7,02,1,7,0.805,0.164814815,-0.40462963,1,0,0,1.0311,Peridotite_rect,7,1.031,1,2,0,2,0,1,,,,,,,,,,,,,
5d268981c22768000166c7c7,SCN,2024-06-25_13h23.17.341,LearnStrategy,2023.2.3,Win32,163.9344262,8,1,4,0.544444444,-0.423148148,1,0,0,0.599,Pumice_04,8,04,1,8,0.599,0.398148148,-0.418518519,1,0,0,1.1314,Pumice_rect,8,1.131,1,3,0,3,0,1,,,,,,,,,,,,,
5d268981c22768000166c7c7,SCN,2024-06-25_13h23.17.341,LearnStrategy,2023.2.3,Win32,163.9344262,8,1,5,-0.546296296,0.419444444,1,0,0,1.0507,Gabbro_03,4,03,6,1,1.051,-0.437037037,-0.255555556,1,0,0,0.7122,Andesite_rect,1,0.712,0,4,0,4,0,1,,,,,,,,,,,,,
5d268981c22768000166c7c7,SCN,2024-06-25_13h23.17.341,LearnStrategy,2023.2.3,Win32,163.9344262,8,1,6,-0.560185185,0.381481481,1,0,0,1.0355,Gabbro_03,4,03,6,1,1.035,0.365740741,-0.262962963,1,0,0,0.7858,Gabbro_rect,4,0.786,1,5,0,5,0,1,,,,,,,,,,,,,
5d268981c22768000166c7c7,SCN,2024-06-25_13h23.17.341,LearnStrategy,2023.2.3,Win32,163.9344262,8,1,7,0.098148148,-0.109259259,1,0,0,3.4052,Pumice_08,8,08,3,5,3.405,0.381481481,-0.40462963,1,0,0,1.228,Pumice_rect,8,1.228,1,6,0,6,0,1,,,,,,,,,,,,,
5d268981c22768000166c7c7,SCN,2024-06-25_13h23.17.341,LearnStrategy,2023.2.3,Win32,163.9344262,8,1,8,-0.060185185,-0.100925926,1,0,0,1.3744,Basalt_01,2,01,3,4,1.374,-0.135185185,-0.251851852,1,0,0,1.46,Basalt_rect,2,1.46,1,7,0,7,0,1,,,,,,,,,,,,,
5d268981c22768000166c7c7,SCN,2024-06-25_13h23.17.341,LearnStrategy,2023.2.3,Win32,163.9344262,8,1,9,0.215740741,-0.109259259,1,0,0,2.5322,Gabbro_15,4,15,3,6,2.532,0.332407407,-0.240740741,1,0,0,1.3046,Gabbro_rect,4,1.305,1,8,0,8,0,1,,,,,,,,,,,,,
5d268981c22768000166c7c7,SCN,2024-06-25_13h23.17.341,LearnStrategy,2023.2.3,Win32,163.9344262,8,1,10,0.373148148,-0.087037037,1,0,0,0.8231,Pegmatite_10,6,10,3,7,0.823,-0.161111111,-0.383333333,1,0,0,0.9619,Pegmatite_rect,6,0.962,1,9,0,9,0,1,,,,,,,,,,,,,
5d268981c22768000166c7c7,SCN,2024-06-25_13h23.17.341,LearnStrategy,2023.2.3,Win32,163.9344262,8,1,11,0.559259259,-0.113888889,1,0,0,1.0879,Basalt_10,2,10,3,8,1.088,-0.15,-0.253703704,1,0,0,1.8859,Basalt_rect,2,1.886,1,10,0,10,0,1,,,,,,,,,,,,,
5d268981c22768000166c7c7,SCN,2024-06-25_13h23.17.341,LearnStrategy,2023.2.3,Win32,163.9344262,8,1,12,-0.540740741,-0.111111111,1,0,0,2.0694,Andesite_06,1,06,3,1,2.069,-0.432407407,-0.258333333,1,0,0,1.052,Andesite_rect,1,1.052,1,11,0,11,0,1,,,,,,,,,,,,,
5d268981c22768000166c7c7,SCN,2024-06-25_13h23.17.341,LearnStrategy,2023.2.3,Win32,163.9344262,8,1,13,0.058333333,0.069444444,1,0,0,2.8595,Obsidian_11,5,11,4,5,2.86,-0.372222222,-0.418518519,1,0,0,2.1694,Obsidian_rect,5,2.169,1,12,0,12,0,1,,,,,,,,,,,,,
5d268981c22768000166c7c7,SCN,2024-06-25_13h23.17.341,LearnStrategy,2023.2.3,Win32,163.9344262,8,1,14,0.02962963,0.221296296,1,0,0,1.6413,Obsidian_08,5,08,5,5,1.641,-0.362037037,-0.412037037,1,0,0,1.035,Obsidian_rect,5,1.035,1,13,0,13,0,1,,,,,,,,,,,,,
5d268981c22768000166c7c7,SCN,2024-06-25_13h23.17.341,LearnStrategy,2023.2.3,Win32,163.9344262,8,1,15,-0.553703704,0.376851852,1,0,0,0.7302,Gabbro_03,4,03,6,1,0.73,0.412037037,-0.237037037,1,0,0,0.9795,Gabbro_rect,4,0.98,1,14,0,14,0,1,,,,,,,,,,,,,
5d268981c22768000166c7c7,SCN,2024-06-25_13h23.17.341,LearnStrategy,2023.2.3,Win32,163.9344262,8,1,16,-0.073148148,-0.425925926,1,0,0,2.8875,Obsidian_06,5,06,1,4,2.888,-0.351851852,-0.407407407,1,0,0,2.3829,Obsidian_rect,5,2.383,1,15,0,15,0,1,,,,,,,,,,,,,
5d268981c22768000166c7c7,SCN,2024-06-25_13h23.17.341,LearnStrategy,2023.2.3,Win32,163.9344262,8,2,1,,,,,,,,7,14,,,,,,,,,,,7,3.459,1,,,,,,0.139814815,-0.403703704,1,0,0,3.4592,Peridotite_rect,0,0,0,0,1,
5d268981c22768000166c7c7,SCN,2024-06-25_13h23.17.341,LearnStrategy,2023.2.3,Win32,163.9344262,8,2,2,,,,,,,,2,16,,,,,,,,,,,4,3.204,0,,,,,,0.346296296,-0.259259259,1,0,0,3.2042,Gabbro_rect,1,0,1,0,1,
5d268981c22768000166c7c7,SCN,2024-06-25_13h23.17.341,LearnStrategy,2023.2.3,Win32,163.9344262,8,2,3,,,,,,,,6,07,,,,,,,,,,,6,1.064,1,,,,,,-0.138888889,-0.405555556,1,0,0,1.0641,Pegmatite_rect,2,0,2,0,1,
5d268981c22768000166c7c7,SCN,2024-06-25_13h23.17.341,LearnStrategy,2023.2.3,Win32,163.9344262,8,2,4,,,,,,,,4,11,,,,,,,,,,,1,2.04,0,,,,,,-0.386111111,-0.238888889,1,0,0,2.0403,Andesite_rect,3,0,3,0,1,
5d268981c22768000166c7c7,SCN,2024-06-25_13h23.17.341,LearnStrategy,2023.2.3,Win32,163.9344262,8,2,5,,,,,,,,1,04,,,,,,,,,,,1,1.095,1,,,,,,-0.386111111,-0.238888889,1,0,0,1.0951,Andesite_rect,4,0,4,0,1,
5d268981c22768000166c7c7,SCN,2024-06-25_13h23.17.341,LearnStrategy,2023.2.3,Win32,163.9344262,8,2,6,,,,,,,,1,05,,,,,,,,,,,1,1.135,1,,,,,,-0.386111111,-0.238888889,1,0,0,1.1354,Andesite_rect,5,0,5,0,1,
5d268981c22768000166c7c7,SCN,2024-06-25_13h23.17.341,LearnStrategy,2023.2.3,Win32,163.9344262,8,2,7,,,,,,,,2,08,,,,,,,,,,,2,1.001,1,,,,,,-0.094444444,-0.266666667,1,0,0,1.0008,Basalt_rect,6,0,6,0,1,
5d268981c22768000166c7c7,SCN,2024-06-25_13h23.17.341,LearnStrategy,2023.2.3,Win32,163.9344262,8,2,8,,,,,,,,3,15,,,,,,,,,,,3,1.048,1,,,,,,0.062037037,-0.244444444,1,0,0,1.0484,Diorite_rect,7,0,7,0,1,
5d268981c22768000166c7c7,SCN,2024-06-25_13h23.17.341,LearnStrategy,2023.2.3,Win32,163.9344262,8,2,9,,,,,,,,4,12,,,,,,,,,,,4,2.621,1,,,,,,0.407407407,-0.262962963,1,0,0,2.6206,Gabbro_rect,8,0,8,0,1,
5d268981c22768000166c7c7,SCN,2024-06-25_13h23.17.341,LearnStrategy,2023.2.3,Win32,163.9344262,8,2,10,,,,,,,,6,15,,,,,,,,,,,6,0.937,1,,,,,,-0.15,-0.418518519,1,0,0,0.9373,Pegmatite_rect,9,0,9,0,1,
5d268981c22768000166c7c7,SCN,2024-06-25_13h23.17.341,LearnStrategy,2023.2.3,Win32,163.9344262,8,2,11,,,,,,,,8,13,,,,,,,,,,,8,1.687,1,,,,,,0.337962963,-0.391666667,1,0,0,1.6874,Pumice_rect,10,0,10,0,1,
5d268981c22768000166c7c7,SCN,2024-06-25_13h23.17.341,LearnStrategy,2023.2.3,Win32,163.9344262,8,2,12,,,,,,,,8,09,,,,,,,,,,,8,0.709,1,,,,,,0.311111111,-0.393518519,1,0,0,0.7094,Pumice_rect,11,0,11,0,1,
5d268981c22768000166c7c7,SCN,2024-06-25_13h23.17.341,LearnStrategy,2023.2.3,Win32,163.9344262,8,2,13,,,,,,,,5,16,,,,,,,,,,,5,0.852,1,,,,,,-0.435185185,-0.418518519,1,0,0,0.8522,Obsidian_rect,12,0,12,0,1,
5d268981c22768000166c7c7,SCN,2024-06-25_13h23.17.341,LearnStrategy,2023.2.3,Win32,163.9344262,8,2,14,,,,,,,,3,16,,,,,,,,,,,3,0.906,1,,,,,,0.110185185,-0.27037037,1,0,0,0.9062,Diorite_rect,13,0,13,0,1,
5d268981c22768000166c7c7,SCN,2024-06-25_13h23.17.341,LearnStrategy,2023.2.3,Win32,163.9344262,8,2,15,,,,,,,,7,13,,,,,,,,,,,7,1.358,1,,,,,,0.092592593,-0.407407407,1,0,0,1.3577,Peridotite_rect,14,0,14,0,1,
5d268981c22768000166c7c7,SCN,2024-06-25_13h23.17.341,LearnStrategy,2023.2.3,Win32,163.9344262,8,2,16,,,,,,,,5,02,,,,,,,,,,,5,1.054,1,,,,,,-0.418518519,-0.409259259,1,0,0,1.0544,Obsidian_rect,15,0,15,0,1,
5d268981c22768000166c7c7,SCN,2024-06-25_13h23.17.341,LearnStrategy,2023.2.3,Win32,163.9344262,9,1,1,-0.548148148,0.380555556,1,0,0,1.0171,Gabbro_03,4,03,6,1,1.017,0.334259259,-0.230555556,1,0,0,0.6944,Gabbro_rect,4,0.694,1,0,0,0,0,1,,,,,,,,,,,,,
5d268981c22768000166c7c7,SCN,2024-06-25_13h23.17.341,LearnStrategy,2023.2.3,Win32,163.9344262,9,1,2,-0.399074074,0.421296296,1,0,0,0.6703,Andesite_10,1,10,6,2,0.67,-0.325,-0.246296296,1,0,0,1.295,Andesite_rect,1,1.295,1,1,0,1,0,1,,,,,,,,,,,,,
5d268981c22768000166c7c7,SCN,2024-06-25_13h23.17.341,LearnStrategy,2023.2.3,Win32,163.9344262,9,1,3,-0.218518519,0.393518519,1,0,0,0.768,Andesite_07,1,07,6,3,0.768,0.108333333,-0.261111111,1,0,0,0.9732,Diorite_rect,3,0.973,0,2,0,2,0,1,,,,,,,,,,,,,
5d268981c22768000166c7c7,SCN,2024-06-25_13h23.17.341,LearnStrategy,2023.2.3,Win32,163.9344262,9,1,4,-0.223148148,0.390740741,1,0,0,0.5749,Andesite_07,1,07,6,3,0.575,-0.388888889,-0.259259259,1,0,0,0.5344,Andesite_rect,1,0.534,1,3,0,3,0,1,,,,,,,,,,,,,
5d268981c22768000166c7c7,SCN,2024-06-25_13h23.17.341,LearnStrategy,2023.2.3,Win32,163.9344262,9,1,5,-0.090740741,0.391666667,1,0,0,1.01,Basalt_14,2,14,6,4,1.01,0.362037037,-0.248148148,1,0,0,1.2281,Gabbro_rect,4,1.228,0,4,0,4,0,1,,,,,,,,,,,,,
5d268981c22768000166c7c7,SCN,2024-06-25_13h23.17.341,LearnStrategy,2023.2.3,Win32,163.9344262,9,1,6,-0.117592593,0.403703704,1,0,0,0.7564,Basalt_14,2,14,6,4,0.756,-0.105555556,-0.247222222,1,0,0,0.7455,Basalt_rect,2,0.745,1,5,0,5,0,1,,,,,,,,,,,,,
5d268981c22768000166c7c7,SCN,2024-06-25_13h23.17.341,LearnStrategy,2023.2.3,Win32,163.9344262,9,1,7,0.082407407,0.241666667,1,0,0,2.1733,Obsidian_08,5,08,5,5,2.173,-0.336111111,-0.390740741,1,0,0,1.0638,Obsidian_rect,5,1.064,1,6,0,6,0,1,,,,,,,,,,,,,
5d268981c22768000166c7c7,SCN,2024-06-25_13h23.17.341,LearnStrategy,2023.2.3,Win32,163.9344262,9,1,8,0.066666667,-0.09537037,1,0,0,0.9328,Pumice_08,8,08,3,5,0.933,0.294444444,-0.412037037,1,0,0,1.5028,Pumice_rect,8,1.503,1,7,0,7,0,1,,,,,,,,,,,,,
5d268981c22768000166c7c7,SCN,2024-06-25_13h23.17.341,LearnStrategy,2023.2.3,Win32,163.9344262,9,1,9,0.37962963,-0.127777778,1,0,0,1.1746,Pegmatite_10,6,10,3,7,1.175,-0.115740741,-0.393518519,1,0,0,0.7398,Pegmatite_rect,6,0.74,1,8,0,8,0,1,,,,,,,,,,,,,
5d268981c22768000166c7c7,SCN,2024-06-25_13h23.17.341,LearnStrategy,2023.2.3,Win32,163.9344262,9,1,10,-0.218518519,0.097222222,1,0,0,2.0463,Pegmatite_12,6,12,4,3,2.046,-0.102777778,-0.387037037,1,0,0,1.7698,Pegmatite_rect,6,1.77,1,9,0,9,0,1,,,,,,,,,,,,,
5d268981c22768000166c7c7,SCN,2024-06-25_13h23.17.341,LearnStrategy,2023.2.3,Win32,163.9344262,9,1,11,-0.537037037,-0.134259259,1,0,0,1.0247,Andesite_06,1,06,3,1,1.025,-0.378703704,-0.252777778,1,0,0,0.8783,Andesite_rect,1,0.878,1,10,0,10,0,1,,,,,,,,,,,,,
5d268981c22768000166c7c7,SCN,2024-06-25_13h23.17.341,LearnStrategy,2023.2.3,Win32,163.9344262,9,1,12,-0.130555556,-0.112037037,1,0,0,0.9994,Basalt_01,2,01,3,4,0.999,-0.055555556,-0.231481481,1,0,0,0.6066,Basalt_rect,2,0.607,1,11,0,11,0,1,,,,,,,,,,,,,
5d268981c22768000166c7c7,SCN,2024-06-25_13h23.17.341,LearnStrategy,2023.2.3,Win32,163.9344262,9,1,13,0.544444444,-0.286111111,1,0,0,1.1207,Pegmatite_08,6,08,2,8,1.121,-0.07037037,-0.402777778,1,0,0,1.5754,Pegmatite_rect,6,1.575,1,12,0,12,0,1,,,,,,,,,,,,,
5d268981c22768000166c7c7,SCN,2024-06-25_13h23.17.341,LearnStrategy,2023.2.3,Win32,163.9344262,9,1,14,0.575925926,-0.423148148,1,0,0,0.6774,Pumice_04,8,04,1,8,0.677,0.351851852,-0.385185185,1,0,0,0.6069,Pumice_rect,8,0.607,1,13,0,13,0,1,,,,,,,,,,,,,
5d268981c22768000166c7c7,SCN,2024-06-25_13h23.17.341,LearnStrategy,2023.2.3,Win32,163.9344262,9,1,15,-0.522222222,-0.401851852,1,0,0,1.1394,Peridotite_06,7,06,1,1,1.139,0.061111111,-0.39537037,1,0,0,0.7272,Peridotite_rect,7,0.727,1,14,0,14,0,1,,,,,,,,,,,,,
5d268981c22768000166c7c7,SCN,2024-06-25_13h23.17.341,LearnStrategy,2023.2.3,Win32,163.9344262,9,1,16,-0.092592593,-0.397222222,1,0,0,1.3075,Obsidian_06,5,06,1,4,1.308,-0.294444444,-0.40462963,1,0,0,0.4624,Obsidian_rect,5,0.462,1,15,0,15,0,1,,,,,,,,,,,,,
5d268981c22768000166c7c7,SCN,2024-06-25_13h23.17.341,LearnStrategy,2023.2.3,Win32,163.9344262,9,2,1,,,,,,,,3,14,,,,,,,,,,,3,0.929,1,,,,,,0.237037037,-0.25462963,1,0,0,0.9291,Diorite_rect,0,0,0,0,1,
5d268981c22768000166c7c7,SCN,2024-06-25_13h23.17.341,LearnStrategy,2023.2.3,Win32,163.9344262,9,2,2,,,,,,,,8,10,,,,,,,,,,,8,1.015,1,,,,,,0.309259259,-0.389814815,1,0,0,1.0147,Pumice_rect,1,0,1,0,1,
5d268981c22768000166c7c7,SCN,2024-06-25_13h23.17.341,LearnStrategy,2023.2.3,Win32,163.9344262,9,2,3,,,,,,,,5,04,,,,,,,,,,,5,0.914,1,,,,,,-0.465740741,-0.411111111,1,0,0,0.9137,Obsidian_rect,2,0,2,0,1,
5d268981c22768000166c7c7,SCN,2024-06-25_13h23.17.341,LearnStrategy,2023.2.3,Win32,163.9344262,9,2,4,,,,,,,,2,06,,,,,,,,,,,2,1.293,1,,,,,,-0.112037037,-0.253703704,1,0,0,1.2929,Basalt_rect,3,0,3,0,1,
5d268981c22768000166c7c7,SCN,2024-06-25_13h23.17.341,LearnStrategy,2023.2.3,Win32,163.9344262,9,2,5,,,,,,,,2,12,,,,,,,,,,,8,1.105,0,,,,,,0.339814815,-0.4,1,0,0,1.1049,Pumice_rect,4,0,4,0,1,
5d268981c22768000166c7c7,SCN,2024-06-25_13h23.17.341,LearnStrategy,2023.2.3,Win32,163.9344262,9,2,6,,,,,,,,7,05,,,,,,,,,,,7,1.096,1,,,,,,0.146296296,-0.396296296,1,0,0,1.0956,Peridotite_rect,5,0,5,0,1,
5d268981c22768000166c7c7,SCN,2024-06-25_13h23.17.341,LearnStrategy,2023.2.3,Win32,163.9344262,9,2,7,,,,,,,,3,02,,,,,,,,,,,3,0.828,1,,,,,,0.105555556,-0.261111111,1,0,0,0.8284,Diorite_rect,6,0,6,0,1,
5d268981c22768000166c7c7,SCN,2024-06-25_13h23.17.341,LearnStrategy,2023.2.3,Win32,163.9344262,9,2,8,,,,,,,,7,12,,,,,,,,,,,7,2.439,1,,,,,,0.092592593,-0.416666667,1,0,0,2.4387,Peridotite_rect,7,0,7,0,1,
5d268981c22768000166c7c7,SCN,2024-06-25_13h23.17.341,LearnStrategy,2023.2.3,Win32,163.9344262,9,2,9,,,,,,,,8,03,,,,,,,,,,,8,1.144,1,,,,,,0.375,-0.391666667,1,0,0,1.1435,Pumice_rect,8,0,8,0,1,
5d268981c22768000166c7c7,SCN,2024-06-25_13h23.17.341,LearnStrategy,2023.2.3,Win32,163.9344262,9,2,10,,,,,,,,6,11,,,,,,,,,,,6,1.313,1,,,,,,-0.123148148,-0.407407407,1,0,0,1.3132,Pegmatite_rect,9,0,9,0,1,
5d268981c22768000166c7c7,SCN,2024-06-25_13h23.17.341,LearnStrategy,2023.2.3,Win32,163.9344262,9,2,11,,,,,,,,1,01,,,,,,,,,,,3,1.404,0,,,,,,0.1,-0.262962963,1,0,0,1.4044,Diorite_rect,10,0,10,0,1,
5d268981c22768000166c7c7,SCN,2024-06-25_13h23.17.341,LearnStrategy,2023.2.3,Win32,163.9344262,9,2,12,,,,,,,,5,14,,,,,,,,,,,4,3.462,0,,,,,,0.332407407,-0.239814815,1,0,0,3.4621,Gabbro_rect,11,0,11,0,1,
5d268981c22768000166c7c7,SCN,2024-06-25_13h23.17.341,LearnStrategy,2023.2.3,Win32,163.9344262,9,2,13,,,,,,,,4,09,,,,,,,,,,,2,2.192,0,,,,,,-0.160185185,-0.257407407,1,0,0,2.1925,Basalt_rect,12,0,12,0,1,
5d268981c22768000166c7c7,SCN,2024-06-25_13h23.17.341,LearnStrategy,2023.2.3,Win32,163.9344262,9,2,14,,,,,,,,1,16,,,,,,,,,,,1,1.098,1,,,,,,-0.353703704,-0.237962963,1,0,0,1.0979,Andesite_rect,13,0,13,0,1,
5d268981c22768000166c7c7,SCN,2024-06-25_13h23.17.341,LearnStrategy,2023.2.3,Win32,163.9344262,9,2,15,,,,,,,,6,09,,,,,,,,,,,6,1.314,1,,,,,,-0.116666667,-0.409259259,1,0,0,1.3145,Pegmatite_rect,14,0,14,0,1,
5d268981c22768000166c7c7,SCN,2024-06-25_13h23.17.341,LearnStrategy,2023.2.3,Win32,163.9344262,9,2,16,,,,,,,,4,16,,,,,,,,,,,4,1.72,1,,,,,,0.359259259,-0.241666667,1,0,0,1.7197,Gabbro_rect,15,0,15,0,1,
5d268981c22768000166c7c7,SCN,2024-06-25_13h23.17.341,LearnStrategy,2023.2.3,Win32,163.9344262,,,,,,,,,,,,,,,,,,,,,,,,,,,,,,,,,,,,,,,,,,,1
5d268981c22768000166c7c7,SCN,2024-06-25_13h23.17.341,LearnStrategy,2023.2.3,Win32,163.9344262,,,,,,,,,,,,,,,,,,,,,,,,,,,,,,,,,,,,,,,,,,,
5d268981c22768000166c7c7,SCN,2024-06-25_13h23.17.341,LearnStrategy,2023.2.3,Win32,163.9344262,,,,,,,,,,,7,06,1,1,,,,,,,,,,,,,,,,,,,,,,,,,,,,,
5d268981c22768000166c7c7,SCN,2024-06-25_13h23.17.341,LearnStrategy,2023.2.3,Win32,163.9344262,,,,,,,,,,,6,05,1,2,,,,,,,,,,,,,,,,,,,,,,,,,,,,,
5d268981c22768000166c7c7,SCN,2024-06-25_13h23.17.341,LearnStrategy,2023.2.3,Win32,163.9344262,,,,,,,,,,,7,15,1,3,,,,,,,,,,,,,,,,,,,,,,,,,,,,,
5d268981c22768000166c7c7,SCN,2024-06-25_13h23.17.341,LearnStrategy,2023.2.3,Win32,163.9344262,,,,,,,,,,,5,06,1,4,,,,,,,,,,,,,,,,,,,,,,,,,,,,,
5d268981c22768000166c7c7,SCN,2024-06-25_13h23.17.341,LearnStrategy,2023.2.3,Win32,163.9344262,,,,,,,,,,,8,14,1,5,,,,,,,,,,,,,,,,,,,,,,,,,,,,,
5d268981c22768000166c7c7,SCN,2024-06-25_13h23.17.341,LearnStrategy,2023.2.3,Win32,163.9344262,,,,,,,,,,,2,05,1,6,,,,,,,,,,,,,,,,,,,,,,,,,,,,,
5d268981c22768000166c7c7,SCN,2024-06-25_13h23.17.341,LearnStrategy,2023.2.3,Win32,163.9344262,,,,,,,,,,,7,02,1,7,,,,,,,,,,,,,,,,,,,,,,,,,,,,,
5d268981c22768000166c7c7,SCN,2024-06-25_13h23.17.341,LearnStrategy,2023.2.3,Win32,163.9344262,,,,,,,,,,,8,04,1,8,,,,,,,,,,,,,,,,,,,,,,,,,,,,,
5d268981c22768000166c7c7,SCN,2024-06-25_13h23.17.341,LearnStrategy,2023.2.3,Win32,163.9344262,,,,,,,,,,,3,07,2,1,,,,,,,,,,,,,,,,,,,,,,,,,,,,,
5d268981c22768000166c7c7,SCN,2024-06-25_13h23.17.341,LearnStrategy,2023.2.3,Win32,163.9344262,,,,,,,,,,,5,07,2,2,,,,,,,,,,,,,,,,,,,,,,,,,,,,,
5d268981c22768000166c7c7,SCN,2024-06-25_13h23.17.341,LearnStrategy,2023.2.3,Win32,163.9344262,,,,,,,,,,,8,02,2,3,,,,,,,,,,,,,,,,,,,,,,,,,,,,,
5d268981c22768000166c7c7,SCN,2024-06-25_13h23.17.341,LearnStrategy,2023.2.3,Win32,163.9344262,,,,,,,,,,,3,11,2,4,,,,,,,,,,,,,,,,,,,,,,,,,,,,,
5d268981c22768000166c7c7,SCN,2024-06-25_13h23.17.341,LearnStrategy,2023.2.3,Win32,163.9344262,,,,,,,,,,,7,10,2,5,,,,,,,,,,,,,,,,,,,,,,,,,,,,,
5d268981c22768000166c7c7,SCN,2024-06-25_13h23.17.341,LearnStrategy,2023.2.3,Win32,163.9344262,,,,,,,,,,,3,12,2,6,,,,,,,,,,,,,,,,,,,,,,,,,,,,,
5d268981c22768000166c7c7,SCN,2024-06-25_13h23.17.341,LearnStrategy,2023.2.3,Win32,163.9344262,,,,,,,,,,,4,10,2,7,,,,,,,,,,,,,,,,,,,,,,,,,,,,,
5d268981c22768000166c7c7,SCN,2024-06-25_13h23.17.341,LearnStrategy,2023.2.3,Win32,163.9344262,,,,,,,,,,,6,08,2,8,,,,,,,,,,,,,,,,,,,,,,,,,,,,,
5d268981c22768000166c7c7,SCN,2024-06-25_13h23.17.341,LearnStrategy,2023.2.3,Win32,163.9344262,,,,,,,,,,,1,06,3,1,,,,,,,,,,,,,,,,,,,,,,,,,,,,,
5d268981c22768000166c7c7,SCN,2024-06-25_13h23.17.341,LearnStrategy,2023.2.3,Win32,163.9344262,,,,,,,,,,,8,05,3,2,,,,,,,,,,,,,,,,,,,,,,,,,,,,,
5d268981c22768000166c7c7,SCN,2024-06-25_13h23.17.341,LearnStrategy,2023.2.3,Win32,163.9344262,,,,,,,,,,,4,13,3,3,,,,,,,,,,,,,,,,,,,,,,,,,,,,,
5d268981c22768000166c7c7,SCN,2024-06-25_13h23.17.341,LearnStrategy,2023.2.3,Win32,163.9344262,,,,,,,,,,,2,01,3,4,,,,,,,,,,,,,,,,,,,,,,,,,,,,,
5d268981c22768000166c7c7,SCN,2024-06-25_13h23.17.341,LearnStrategy,2023.2.3,Win32,163.9344262,,,,,,,,,,,8,08,3,5,,,,,,,,,,,,,,,,,,,,,,,,,,,,,
5d268981c22768000166c7c7,SCN,2024-06-25_13h23.17.341,LearnStrategy,2023.2.3,Win32,163.9344262,,,,,,,,,,,4,15,3,6,,,,,,,,,,,,,,,,,,,,,,,,,,,,,
5d268981c22768000166c7c7,SCN,2024-06-25_13h23.17.341,LearnStrategy,2023.2.3,Win32,163.9344262,,,,,,,,,,,6,10,3,7,,,,,,,,,,,,,,,,,,,,,,,,,,,,,
5d268981c22768000166c7c7,SCN,2024-06-25_13h23.17.341,LearnStrategy,2023.2.3,Win32,163.9344262,,,,,,,,,,,2,10,3,8,,,,,,,,,,,,,,,,,,,,,,,,,,,,,
5d268981c22768000166c7c7,SCN,2024-06-25_13h23.17.341,LearnStrategy,2023.2.3,Win32,163.9344262,,,,,,,,,,,5,05,4,1,,,,,,,,,,,,,,,,,,,,,,,,,,,,,
5d268981c22768000166c7c7,SCN,2024-06-25_13h23.17.341,LearnStrategy,2023.2.3,Win32,163.9344262,,,,,,,,,,,1,02,4,2,,,,,,,,,,,,,,,,,,,,,,,,,,,,,
5d268981c22768000166c7c7,SCN,2024-06-25_13h23.17.341,LearnStrategy,2023.2.3,Win32,163.9344262,,,,,,,,,,,6,12,4,3,,,,,,,,,,,,,,,,,,,,,,,,,,,,,
5d268981c22768000166c7c7,SCN,2024-06-25_13h23.17.341,LearnStrategy,2023.2.3,Win32,163.9344262,,,,,,,,,,,1,14,4,4,,,,,,,,,,,,,,,,,,,,,,,,,,,,,
5d268981c22768000166c7c7,SCN,2024-06-25_13h23.17.341,LearnStrategy,2023.2.3,Win32,163.9344262,,,,,,,,,,,5,11,4,5,,,,,,,,,,,,,,,,,,,,,,,,,,,,,
5d268981c22768000166c7c7,SCN,2024-06-25_13h23.17.341,LearnStrategy,2023.2.3,Win32,163.9344262,,,,,,,,,,,7,08,4,6,,,,,,,,,,,,,,,,,,,,,,,,,,,,,
5d268981c22768000166c7c7,SCN,2024-06-25_13h23.17.341,LearnStrategy,2023.2.3,Win32,163.9344262,,,,,,,,,,,7,07,4,7,,,,,,,,,,,,,,,,,,,,,,,,,,,,,
5d268981c22768000166c7c7,SCN,2024-06-25_13h23.17.341,LearnStrategy,2023.2.3,Win32,163.9344262,,,,,,,,,,,6,03,4,8,,,,,,,,,,,,,,,,,,,,,,,,,,,,,
5d268981c22768000166c7c7,SCN,2024-06-25_13h23.17.341,LearnStrategy,2023.2.3,Win32,163.9344262,,,,,,,,,,,3,08,5,1,,,,,,,,,,,,,,,,,,,,,,,,,,,,,
5d268981c22768000166c7c7,SCN,2024-06-25_13h23.17.341,LearnStrategy,2023.2.3,Win32,163.9344262,,,,,,,,,,,2,09,5,2,,,,,,,,,,,,,,,,,,,,,,,,,,,,,
5d268981c22768000166c7c7,SCN,2024-06-25_13h23.17.341,LearnStrategy,2023.2.3,Win32,163.9344262,,,,,,,,,,,8,06,5,3,,,,,,,,,,,,,,,,,,,,,,,,,,,,,
5d268981c22768000166c7c7,SCN,2024-06-25_13h23.17.341,LearnStrategy,2023.2.3,Win32,163.9344262,,,,,,,,,,,4,01,5,4,,,,,,,,,,,,,,,,,,,,,,,,,,,,,
5d268981c22768000166c7c7,SCN,2024-06-25_13h23.17.341,LearnStrategy,2023.2.3,Win32,163.9344262,,,,,,,,,,,5,08,5,5,,,,,,,,,,,,,,,,,,,,,,,,,,,,,
5d268981c22768000166c7c7,SCN,2024-06-25_13h23.17.341,LearnStrategy,2023.2.3,Win32,163.9344262,,,,,,,,,,,2,02,5,6,,,,,,,,,,,,,,,,,,,,,,,,,,,,,
5d268981c22768000166c7c7,SCN,2024-06-25_13h23.17.341,LearnStrategy,2023.2.3,Win32,163.9344262,,,,,,,,,,,3,13,5,7,,,,,,,,,,,,,,,,,,,,,,,,,,,,,
5d268981c22768000166c7c7,SCN,2024-06-25_13h23.17.341,LearnStrategy,2023.2.3,Win32,163.9344262,,,,,,,,,,,4,08,5,8,,,,,,,,,,,,,,,,,,,,,,,,,,,,,
5d268981c22768000166c7c7,SCN,2024-06-25_13h23.17.341,LearnStrategy,2023.2.3,Win32,163.9344262,,,,,,,,,,,4,03,6,1,,,,,,,,,,,,,,,,,,,,,,,,,,,,,
5d268981c22768000166c7c7,SCN,2024-06-25_13h23.17.341,LearnStrategy,2023.2.3,Win32,163.9344262,,,,,,,,,,,1,10,6,2,,,,,,,,,,,,,,,,,,,,,,,,,,,,,
5d268981c22768000166c7c7,SCN,2024-06-25_13h23.17.341,LearnStrategy,2023.2.3,Win32,163.9344262,,,,,,,,,,,1,07,6,3,,,,,,,,,,,,,,,,,,,,,,,,,,,,,
5d268981c22768000166c7c7,SCN,2024-06-25_13h23.17.341,LearnStrategy,2023.2.3,Win32,163.9344262,,,,,,,,,,,2,14,6,4,,,,,,,,,,,,,,,,,,,,,,,,,,,,,
5d268981c22768000166c7c7,SCN,2024-06-25_13h23.17.341,LearnStrategy,2023.2.3,Win32,163.9344262,,,,,,,,,,,6,06,6,5,,,,,,,,,,,,,,,,,,,,,,,,,,,,,
5d268981c22768000166c7c7,SCN,2024-06-25_13h23.17.341,LearnStrategy,2023.2.3,Win32,163.9344262,,,,,,,,,,,3,06,6,6,,,,,,,,,,,,,,,,,,,,,,,,,,,,,
5d268981c22768000166c7c7,SCN,2024-06-25_13h23.17.341,LearnStrategy,2023.2.3,Win32,163.9344262,,,,,,,,,,,1,11,6,7,,,,,,,,,,,,,,,,,,,,,,,,,,,,,
5d268981c22768000166c7c7,SCN,2024-06-25_13h23.17.341,LearnStrategy,2023.2.3,Win32,163.9344262,,,,,,,,,,,5,10,6,8,,,,,,,,,,,,,,,,,,,,,,,,,,,,,