participant,condition,date,expName,psychopyVersion,OS,frameRate,block,phase,trial,learn_mouse_2.x,learn_mouse_2.y,learn_mouse_2.leftButton,learn_mouse_2.midButton,learn_mouse_2.rightButton,learn_mouse_2.time,learn_mouse_2.clicked_name,cat,token,row,col,t_select,cat_mouse_l.x,cat_mouse_l.y,cat_mouse_l.leftButton,cat_mouse_l.midButton,cat_mouse_l.rightButton,cat_mouse_l.time,cat_mouse_l.clicked_name,resp,t_resp,corr,train_trials.thisRepN,train_trials.thisTrialN,train_trials.thisN,train_trials.thisIndex,train_trials.ran,cat_mouse_t.x,cat_mouse_t.y,cat_mouse_t.leftButton,cat_mouse_t.midButton,cat_mouse_t.rightButton,cat_mouse_t.time,cat_mouse_t.clicked_name,test_trials.thisRepN,test_trials.thisTrialN,test_trials.thisN,test_trials.thisIndex,test_trials.ran,Bonus
5d63179aa3b94d0001da4bb6,TCN,2024-06-11_12h24.10.246,LearnStrategy,2023.2.3,Win32,59.88023952,,,,,,,,,,,,,,,,,,,,,,,,,,,,,,,,,,,,,,,,,,,
5d63179aa3b94d0001da4bb6,TCN,2024-06-11_12h24.10.246,LearnStrategy,2023.2.3,Win32,59.88023952,1,1,1,-0.027508041,0.002542773,1,0,0,3.1354,rock_grid_rect_2,5,04,-1,-1,3.135,-0.41215904,-0.403375052,1,0,0,7.8268,Obsidian_rect,5,7.827,1,0,0,0,0,1,,,,,,,,,,,,,
5d63179aa3b94d0001da4bb6,TCN,2024-06-11_12h24.10.246,LearnStrategy,2023.2.3,Win32,59.88023952,1,1,2,-0.019186298,-0.010402235,1,0,0,2.0848,rock_grid_rect_2,7,10,-1,-1,2.085,-0.144012896,-0.26837736,1,0,0,2.9268,Basalt_rect,2,2.927,0,1,0,1,0,1,,,,,,,,,,,,,
5d63179aa3b94d0001da4bb6,TCN,2024-06-11_12h24.10.246,LearnStrategy,2023.2.3,Win32,59.88023952,1,1,3,-0.005316651,-0.006703645,1,0,0,2.2808,rock_grid_rect_2,3,12,-1,-1,2.281,0.342348636,-0.383032864,1,0,0,4.8621,Pumice_rect,8,4.862,0,2,0,2,0,1,,,,,,,,,,,,,
5d63179aa3b94d0001da4bb6,TCN,2024-06-11_12h24.10.246,LearnStrategy,2023.2.3,Win32,59.88023952,1,1,4,-0.063569078,-0.006703645,1,0,0,1.8459,rock_grid_rect_2,1,10,-1,-1,1.846,0.118585309,-0.394128522,1,0,0,8.273,Peridotite_rect,7,8.273,0,3,0,3,0,1,,,,,,,,,,,,,
5d63179aa3b94d0001da4bb6,TCN,2024-06-11_12h24.10.246,LearnStrategy,2023.2.3,Win32,59.88023952,1,1,5,0.162043451,0.013638469,1,0,0,1.4761,rock_grid_rect_2,7,07,-1,-1,1.476,0.109338927,-0.40429969,1,0,0,6.8569,Peridotite_rect,7,6.857,1,4,0,4,0,1,,,,,,,,,,,,,
5d63179aa3b94d0001da4bb6,TCN,2024-06-11_12h24.10.246,LearnStrategy,2023.2.3,Win32,59.88023952,1,1,6,0.141701337,0.002542773,1,0,0,1.1119,rock_grid_rect_2,6,16,-1,-1,1.112,-0.053398058,-0.242487269,1,0,0,4.9605,Basalt_rect,2,4.961,0,5,0,5,0,1,,,,,,,,,,,,,
5d63179aa3b94d0001da4bb6,TCN,2024-06-11_12h24.10.246,LearnStrategy,2023.2.3,Win32,59.88023952,1,1,7,0.165742078,-0.01317615,1,0,0,1.1223,rock_grid_rect_2,1,11,-1,-1,1.122,0.385806778,-0.255432277,1,0,0,2.9733,Gabbro_rect,4,2.973,0,6,0,6,0,1,,,,,,,,,,,,,
5d63179aa3b94d0001da4bb6,TCN,2024-06-11_12h24.10.246,LearnStrategy,2023.2.3,Win32,59.88023952,1,1,8,0.170365269,-0.02149793,1,0,0,1.2053,rock_grid_rect_2,8,06,-1,-1,1.205,0.411696795,-0.398751787,1,0,0,2.5361,Pumice_rect,8,2.536,1,7,0,7,0,1,,,,,,,,,,,,,
5d63179aa3b94d0001da4bb6,TCN,2024-06-11_12h24.10.246,LearnStrategy,2023.2.3,Win32,59.88023952,1,1,9,0.152797069,-0.001155816,1,0,0,0.9789,rock_grid_rect_2,2,06,-1,-1,0.979,-0.319694852,-0.384882214,1,0,0,2.0382,Obsidian_rect,5,2.038,0,8,0,8,0,1,,,,,,,,,,,,,
5d63179aa3b94d0001da4bb6,TCN,2024-06-11_12h24.10.246,LearnStrategy,2023.2.3,Win32,59.88023952,1,1,10,0.172214545,0.007165964,1,0,0,0.9963,rock_grid_rect_2,3,02,-1,-1,0.996,0.402450265,-0.251733724,1,0,0,4.7939,Gabbro_rect,4,4.794,0,9,0,9,0,1,,,,,,,,,,,,,
5d63179aa3b94d0001da4bb6,TCN,2024-06-11_12h24.10.246,LearnStrategy,2023.2.3,Win32,59.88023952,1,1,11,0.148173878,0.006241326,1,0,0,1.2782,rock_grid_rect_2,4,13,-1,-1,1.278,0.405224254,-0.256356915,1,0,0,2.9502,Gabbro_rect,4,2.95,1,10,0,10,0,1,,,,,,,,,,,,,
5d63179aa3b94d0001da4bb6,TCN,2024-06-11_12h24.10.246,LearnStrategy,2023.2.3,Win32,59.88023952,1,1,12,0.144475252,-0.019648654,1,0,0,2.8914,rock_grid_rect_2,5,02,-1,-1,2.891,-0.361303718,-0.391354607,1,0,0,3.7883,Obsidian_rect,5,3.788,1,11,0,11,0,1,,,,,,,,,,,,,
5d63179aa3b94d0001da4bb6,TCN,2024-06-11_12h24.10.246,LearnStrategy,2023.2.3,Win32,59.88023952,1,1,13,0.171289907,-0.000231178,1,0,0,0.979,rock_grid_rect_2,6,06,-1,-1,0.979,0.162968089,-0.40429969,1,0,0,3.1636,Peridotite_rect,7,3.164,0,12,0,12,0,1,,,,,,,,,,,,,
5d63179aa3b94d0001da4bb6,TCN,2024-06-11_12h24.10.246,LearnStrategy,2023.2.3,Win32,59.88023952,1,1,14,0.163892727,-0.015025426,1,0,0,2.4724,rock_grid_rect_2,4,01,-1,-1,2.472,-0.135691152,-0.392279245,1,0,0,25.3763,Pegmatite_rect,6,25.376,0,13,0,13,0,1,,,,,,,,,,,,,
5d63179aa3b94d0001da4bb6,TCN,2024-06-11_12h24.10.246,LearnStrategy,2023.2.3,Win32,59.88023952,1,1,15,0.082524272,-0.004854369,1,0,0,1.0964,rock_grid_rect_2,2,10,-1,-1,1.096,-0.336338414,-0.260980106,1,0,0,3.662,Andesite_rect,1,3.662,0,14,0,14,0,1,,,,,,,,,,,,,
5d63179aa3b94d0001da4bb6,TCN,2024-06-11_12h24.10.246,LearnStrategy,2023.2.3,Win32,59.88023952,1,1,16,0.148173878,-0.020573292,1,0,0,0.8243,rock_grid_rect_2,8,08,-1,-1,0.824,0.163892727,-0.248035172,1,0,0,8.1565,Diorite_rect,3,8.156,0,15,0,15,0,1,,,,,,,,,,,,,
5d63179aa3b94d0001da4bb6,TCN,2024-06-11_12h24.10.246,LearnStrategy,2023.2.3,Win32,59.88023952,1,2,1,,,,,,,,8,02,,,,,,,,,,,8,1.542,1,,,,,,0.373786408,-0.399676425,1,0,0,1.5423,Pumice_rect,0,0,0,0,1,
5d63179aa3b94d0001da4bb6,TCN,2024-06-11_12h24.10.246,LearnStrategy,2023.2.3,Win32,59.88023952,1,2,2,,,,,,,,7,13,,,,,,,,,,,8,1.857,0,,,,,,0.385806778,-0.40707353,1,0,0,1.8573,Pumice_rect,1,0,1,0,1,
5d63179aa3b94d0001da4bb6,TCN,2024-06-11_12h24.10.246,LearnStrategy,2023.2.3,Win32,59.88023952,1,2,3,,,,,,,,6,07,,,,,,,,,,,1,3.662,0,,,,,,-0.348358747,-0.260980106,1,0,0,3.6622,Andesite_rect,2,0,2,0,1,
5d63179aa3b94d0001da4bb6,TCN,2024-06-11_12h24.10.246,LearnStrategy,2023.2.3,Win32,59.88023952,1,2,4,,,,,,,,8,09,,,,,,,,,,,1,3.061,0,,,,,,-0.353906613,-0.254507639,1,0,0,3.0609,Andesite_rect,3,0,3,0,1,
5d63179aa3b94d0001da4bb6,TCN,2024-06-11_12h24.10.246,LearnStrategy,2023.2.3,Win32,59.88023952,1,2,5,,,,,,,,6,11,,,,,,,,,,,4,6.624,0,,,,,,0.348821103,-0.267452647,1,0,0,6.6241,Gabbro_rect,4,0,4,0,1,
5d63179aa3b94d0001da4bb6,TCN,2024-06-11_12h24.10.246,LearnStrategy,2023.2.3,Win32,59.88023952,1,2,6,,,,,,,,3,14,,,,,,,,,,,4,13.803,0,,,,,,0.364540026,-0.266528009,1,0,0,13.8031,Gabbro_rect,5,0,5,0,1,
5d63179aa3b94d0001da4bb6,TCN,2024-06-11_12h24.10.246,LearnStrategy,2023.2.3,Win32,59.88023952,1,2,7,,,,,,,,5,12,,,,,,,,,,,5,1.172,1,,,,,,-0.348358747,-0.402450339,1,0,0,1.172,Obsidian_rect,6,0,6,0,1,
5d63179aa3b94d0001da4bb6,TCN,2024-06-11_12h24.10.246,LearnStrategy,2023.2.3,Win32,59.88023952,1,2,8,,,,,,,,2,14,,,,,,,,,,,2,5.77,1,,,,,,-0.104253306,-0.256356915,1,0,0,5.7698,Basalt_rect,7,0,7,0,1,
5d63179aa3b94d0001da4bb6,TCN,2024-06-11_12h24.10.246,LearnStrategy,2023.2.3,Win32,59.88023952,1,2,9,,,,,,,,3,09,,,,,,,,,,,6,4.602,0,,,,,,-0.067267705,-0.402450339,1,0,0,4.6024,Pegmatite_rect,8,0,8,0,1,
5d63179aa3b94d0001da4bb6,TCN,2024-06-11_12h24.10.246,LearnStrategy,2023.2.3,Win32,59.88023952,1,2,10,,,,,,,,1,14,,,,,,,,,,,1,4.359,1,,,,,,-0.341886243,-0.267452647,1,0,0,4.3587,Andesite_rect,9,0,9,0,1,
5d63179aa3b94d0001da4bb6,TCN,2024-06-11_12h24.10.246,LearnStrategy,2023.2.3,Win32,59.88023952,1,2,11,,,,,,,,7,12,,,,,,,,,,,7,21.254,1,,,,,,0.118585309,-0.40429969,1,0,0,21.2543,Peridotite_rect,10,0,10,0,1,
5d63179aa3b94d0001da4bb6,TCN,2024-06-11_12h24.10.246,LearnStrategy,2023.2.3,Win32,59.88023952,1,2,12,,,,,,,,2,04,,,,,,,,,,,2,7.392,1,,,,,,-0.068192343,-0.263754095,1,0,0,7.3923,Basalt_rect,11,0,11,0,1,
5d63179aa3b94d0001da4bb6,TCN,2024-06-11_12h24.10.246,LearnStrategy,2023.2.3,Win32,59.88023952,1,2,13,,,,,,,,4,12,,,,,,,,,,,1,13.591,0,,,,,,-0.317845576,-0.248959884,1,0,0,13.5905,Andesite_rect,12,0,12,0,1,
5d63179aa3b94d0001da4bb6,TCN,2024-06-11_12h24.10.246,LearnStrategy,2023.2.3,Win32,59.88023952,1,2,14,,,,,,,,5,14,,,,,,,,,,,5,1.79,1,,,,,,-0.36407767,-0.40707353,1,0,0,1.7904,Obsidian_rect,13,0,13,0,1,
5d63179aa3b94d0001da4bb6,TCN,2024-06-11_12h24.10.246,LearnStrategy,2023.2.3,Win32,59.88023952,1,2,15,,,,,,,,1,03,,,,,,,,,,,4,11.249,0,,,,,,0.339574721,-0.257281553,1,0,0,11.2489,Gabbro_rect,14,0,14,0,1,
5d63179aa3b94d0001da4bb6,TCN,2024-06-11_12h24.10.246,LearnStrategy,2023.2.3,Win32,59.88023952,1,2,16,,,,,,,,4,16,,,,,,,,,,,2,8.516,0,,,,,,-0.08483583,-0.240637992,1,0,0,8.516,Basalt_rect,15,0,15,0,1,
5d63179aa3b94d0001da4bb6,TCN,2024-06-11_12h24.10.246,LearnStrategy,2023.2.3,Win32,59.88023952,2,1,1,0.113962118,0.001618098,1,0,0,1.2789,rock_grid_rect_2,6,13,-1,-1,1.279,-0.06264444,-0.389505331,1,0,0,6.8853,Pegmatite_rect,6,6.885,1,0,0,0,0,1,,,,,,,,,,,,,
5d63179aa3b94d0001da4bb6,TCN,2024-06-11_12h24.10.246,LearnStrategy,2023.2.3,Win32,59.88023952,2,1,2,0.042764682,-0.014100788,1,0,0,1.6442,rock_grid_rect_2,5,06,-1,-1,1.644,-0.343735556,-0.397827074,1,0,0,1.5813,Obsidian_rect,5,1.581,1,1,0,1,0,1,,,,,,,,,,,,,
5d63179aa3b94d0001da4bb6,TCN,2024-06-11_12h24.10.246,LearnStrategy,2023.2.3,Win32,59.88023952,2,1,3,0.079750357,0.00439205,1,0,0,0.9139,rock_grid_rect_2,8,04,-1,-1,0.914,0.380258949,-0.395977798,1,0,0,1.4932,Pumice_rect,8,1.493,1,2,0,2,0,1,,,,,,,,,,,,,
5d63179aa3b94d0001da4bb6,TCN,2024-06-11_12h24.10.246,LearnStrategy,2023.2.3,Win32,59.88023952,2,1,4,0.103791024,-0.023347206,1,0,0,0.847,rock_grid_rect_2,2,09,-1,-1,0.847,-0.082986554,-0.246185895,1,0,0,5.7856,Basalt_rect,2,5.786,1,3,0,3,0,1,,,,,,,,,,,,,
5d63179aa3b94d0001da4bb6,TCN,2024-06-11_12h24.10.246,LearnStrategy,2023.2.3,Win32,59.88023952,2,1,5,0.096393919,0.002542773,1,0,0,0.8946,rock_grid_rect_2,4,05,-1,-1,0.895,0.035367651,-0.393203883,1,0,0,5.4532,Peridotite_rect,7,5.453,0,4,0,4,0,1,,,,,,,,,,,,,
5d63179aa3b94d0001da4bb6,TCN,2024-06-11_12h24.10.246,LearnStrategy,2023.2.3,Win32,59.88023952,2,1,6,0.120434585,-0.00762832,1,0,0,1.4445,rock_grid_rect_2,1,01,-1,-1,1.445,-0.070966258,-0.248959884,1,0,0,2.7553,Basalt_rect,2,2.755,0,5,0,5,0,1,,,,,,,,,,,,,
5d63179aa3b94d0001da4bb6,TCN,2024-06-11_12h24.10.246,LearnStrategy,2023.2.3,Win32,59.88023952,2,1,7,0.072353252,-0.003005093,1,0,0,0.8994,rock_grid_rect_2,6,15,-1,-1,0.899,-0.059870525,-0.389505331,1,0,0,6.5826,Pegmatite_rect,6,6.583,1,6,0,6,0,1,,,,,,,,,,,,,
5d63179aa3b94d0001da4bb6,TCN,2024-06-11_12h24.10.246,LearnStrategy,2023.2.3,Win32,59.88023952,2,1,8,0.112112842,-0.002080454,1,0,0,0.8782,rock_grid_rect_2,8,10,-1,-1,0.878,0.418169188,-0.411696721,1,0,0,4.173,Pumice_rect,8,4.173,1,7,0,7,0,1,,,,,,,,,,,,,
5d63179aa3b94d0001da4bb6,TCN,2024-06-11_12h24.10.246,LearnStrategy,2023.2.3,Win32,59.88023952,2,1,9,0.1056403,-0.018724016,1,0,0,1.0957,rock_grid_rect_2,1,04,-1,-1,1.096,0.14724924,-0.246185895,1,0,0,5.9147,Diorite_rect,3,5.915,0,8,0,8,0,1,,,,,,,,,,,,,
5d63179aa3b94d0001da4bb6,TCN,2024-06-11_12h24.10.246,LearnStrategy,2023.2.3,Win32,59.88023952,2,1,10,0.069579337,-0.006703645,1,0,0,0.8778,rock_grid_rect_2,7,06,-1,-1,0.878,-0.305825243,-0.236939439,1,0,0,1.6659,Andesite_rect,1,1.666,0,9,0,9,0,1,,,,,,,,,,,,,
5d63179aa3b94d0001da4bb6,TCN,2024-06-11_12h24.10.246,LearnStrategy,2023.2.3,Win32,59.88023952,2,1,11,0.107489651,-0.017799377,1,0,0,0.8029,rock_grid_rect_2,5,07,-1,-1,0.803,-0.340036966,-0.397827074,1,0,0,1.2016,Obsidian_rect,5,1.202,1,10,0,10,0,1,,,,,,,,,,,,,
5d63179aa3b94d0001da4bb6,TCN,2024-06-11_12h24.10.246,LearnStrategy,2023.2.3,Win32,59.88023952,2,1,12,0.101941748,-0.005779007,1,0,0,0.6979,rock_grid_rect_2,4,15,-1,-1,0.698,0.384882066,-0.245261257,1,0,0,3.7557,Gabbro_rect,4,3.756,1,11,0,11,0,1,,,,,,,,,,,,,
5d63179aa3b94d0001da4bb6,TCN,2024-06-11_12h24.10.246,LearnStrategy,2023.2.3,Win32,59.88023952,2,1,13,0.122283861,-0.006703645,1,0,0,0.7623,rock_grid_rect_2,3,10,-1,-1,0.762,0.138002785,-0.258206192,1,0,0,4.2389,Diorite_rect,3,4.239,1,12,0,12,0,1,,,,,,,,,,,,,
5d63179aa3b94d0001da4bb6,TCN,2024-06-11_12h24.10.246,LearnStrategy,2023.2.3,Win32,59.88023952,2,1,14,0.125057776,-0.009477597,1,0,0,0.7463,rock_grid_rect_2,3,08,-1,-1,0.746,0.11303748,-0.246185895,1,0,0,1.3254,Diorite_rect,3,1.325,1,13,0,13,0,1,,,,,,,,,,,,,
5d63179aa3b94d0001da4bb6,TCN,2024-06-11_12h24.10.246,LearnStrategy,2023.2.3,Win32,59.88023952,2,1,15,0.126907126,-0.017799377,1,0,0,1.3123,rock_grid_rect_2,2,12,-1,-1,1.312,-0.101479391,-0.249884448,1,0,0,7.3376,Basalt_rect,2,7.338,1,14,0,14,0,1,,,,,,,,,,,,,
5d63179aa3b94d0001da4bb6,TCN,2024-06-11_12h24.10.246,LearnStrategy,2023.2.3,Win32,59.88023952,2,1,16,0.087147463,-0.014100788,1,0,0,0.7623,rock_grid_rect_2,7,08,-1,-1,0.762,0.367313866,-0.41724455,1,0,0,4.5602,Pumice_rect,8,4.56,0,15,0,15,0,1,,,,,,,,,,,,,
5d63179aa3b94d0001da4bb6,TCN,2024-06-11_12h24.10.246,LearnStrategy,2023.2.3,Win32,59.88023952,2,2,1,,,,,,,,5,05,,,,,,,,,,,5,2.931,1,,,,,,-0.332639824,-0.385806778,1,0,0,2.9314,Obsidian_rect,0,0,0,0,1,
5d63179aa3b94d0001da4bb6,TCN,2024-06-11_12h24.10.246,LearnStrategy,2023.2.3,Win32,59.88023952,2,2,2,,,,,,,,6,03,,,,,,,,,,,6,4.719,1,,,,,,-0.059870525,-0.393203883,1,0,0,4.7191,Pegmatite_rect,1,0,1,0,1,
5d63179aa3b94d0001da4bb6,TCN,2024-06-11_12h24.10.246,LearnStrategy,2023.2.3,Win32,59.88023952,2,2,3,,,,,,,,4,08,,,,,,,,,,,2,7.957,0,,,,,,-0.080212639,-0.23139161,1,0,0,7.9574,Basalt_rect,2,0,2,0,1,
5d63179aa3b94d0001da4bb6,TCN,2024-06-11_12h24.10.246,LearnStrategy,2023.2.3,Win32,59.88023952,2,2,4,,,,,,,,8,15,,,,,,,,,,,8,1.224,1,,,,,,0.349745741,-0.392279245,1,0,0,1.224,Pumice_rect,3,0,3,0,1,
5d63179aa3b94d0001da4bb6,TCN,2024-06-11_12h24.10.246,LearnStrategy,2023.2.3,Win32,59.88023952,2,2,5,,,,,,,,3,15,,,,,,,,,,,7,6.304,0,,,,,,0.072353252,-0.415395274,1,0,0,6.3038,Peridotite_rect,4,0,4,0,1,
5d63179aa3b94d0001da4bb6,TCN,2024-06-11_12h24.10.246,LearnStrategy,2023.2.3,Win32,59.88023952,2,2,6,,,,,,,,2,08,,,,,,,,,,,2,2.394,1,,,,,,-0.163430371,-0.252658363,1,0,0,2.3935,Basalt_rect,5,0,5,0,1,
5d63179aa3b94d0001da4bb6,TCN,2024-06-11_12h24.10.246,LearnStrategy,2023.2.3,Win32,59.88023952,2,2,7,,,,,,,,3,07,,,,,,,,,,,6,3.855,0,,,,,,-0.072815534,-0.416319912,1,0,0,3.8551,Pegmatite_rect,6,0,6,0,1,
5d63179aa3b94d0001da4bb6,TCN,2024-06-11_12h24.10.246,LearnStrategy,2023.2.3,Win32,59.88023952,2,2,8,,,,,,,,5,09,,,,,,,,,,,5,1.07,1,,,,,,-0.341886243,-0.406148892,1,0,0,1.0702,Obsidian_rect,7,0,7,0,1,
5d63179aa3b94d0001da4bb6,TCN,2024-06-11_12h24.10.246,LearnStrategy,2023.2.3,Win32,59.88023952,2,2,9,,,,,,,,1,16,,,,,,,,,,,3,6.778,0,,,,,,0.138002785,-0.2711512,1,0,0,6.7777,Diorite_rect,8,0,8,0,1,
5d63179aa3b94d0001da4bb6,TCN,2024-06-11_12h24.10.246,LearnStrategy,2023.2.3,Win32,59.88023952,2,2,10,,,,,,,,4,09,,,,,,,,,,,2,1.757,0,,,,,,-0.101479391,-0.244336619,1,0,0,1.7566,Basalt_rect,9,0,9,0,1,
5d63179aa3b94d0001da4bb6,TCN,2024-06-11_12h24.10.246,LearnStrategy,2023.2.3,Win32,59.88023952,2,2,11,,,,,,,,2,11,,,,,,,,,,,1,11.214,0,,,,,,-0.303975966,-0.249884448,1,0,0,11.2135,Andesite_rect,10,0,10,0,1,
5d63179aa3b94d0001da4bb6,TCN,2024-06-11_12h24.10.246,LearnStrategy,2023.2.3,Win32,59.88023952,2,2,12,,,,,,,,8,14,,,,,,,,,,,8,0.974,1,,,,,,0.385806778,-0.405224254,1,0,0,0.9742,Pumice_rect,11,0,11,0,1,
5d63179aa3b94d0001da4bb6,TCN,2024-06-11_12h24.10.246,LearnStrategy,2023.2.3,Win32,59.88023952,2,2,13,,,,,,,,7,15,,,,,,,,,,,7,4.155,1,,,,,,0.054785127,-0.398751787,1,0,0,4.1549,Peridotite_rect,12,0,12,0,1,
5d63179aa3b94d0001da4bb6,TCN,2024-06-11_12h24.10.246,LearnStrategy,2023.2.3,Win32,59.88023952,2,2,14,,,,,,,,6,05,,,,,,,,,,,6,2.973,1,,,,,,-0.071890896,-0.40429969,1,0,0,2.9733,Pegmatite_rect,13,0,13,0,1,
5d63179aa3b94d0001da4bb6,TCN,2024-06-11_12h24.10.246,LearnStrategy,2023.2.3,Win32,59.88023952,2,2,15,,,,,,,,1,09,,,,,,,,,,,1,2.921,1,,,,,,-0.331715186,-0.245261257,1,0,0,2.9212,Andesite_rect,14,0,14,0,1,
5d63179aa3b94d0001da4bb6,TCN,2024-06-11_12h24.10.246,LearnStrategy,2023.2.3,Win32,59.88023952,2,2,16,,,,,,,,7,14,,,,,,,,,,,7,8.404,1,,,,,,0.206426306,-0.392279245,1,0,0,8.4044,Peridotite_rect,15,0,15,0,1,
5d63179aa3b94d0001da4bb6,TCN,2024-06-11_12h24.10.246,LearnStrategy,2023.2.3,Win32,59.88023952,3,1,1,0.133379594,0.014563107,1,0,0,1.0791,rock_grid_rect_2,4,11,-1,-1,1.079,0.108414289,-0.257281553,1,0,0,1.9921,Diorite_rect,3,1.992,0,0,0,0,0,1,,,,,,,,,,,,,
5d63179aa3b94d0001da4bb6,TCN,2024-06-11_12h24.10.246,LearnStrategy,2023.2.3,Win32,59.88023952,3,1,2,0.139852061,0.002542773,1,0,0,0.8977,rock_grid_rect_2,7,05,-1,-1,0.898,-0.109801209,-0.385806778,1,0,0,9.3709,Pegmatite_rect,6,9.371,0,1,0,1,0,1,,,,,,,,,,,,,
5d63179aa3b94d0001da4bb6,TCN,2024-06-11_12h24.10.246,LearnStrategy,2023.2.3,Win32,59.88023952,3,1,3,0.081599634,0.00439205,1,0,0,0.9455,rock_grid_rect_2,3,16,-1,-1,0.945,0.152797069,-0.2711512,1,0,0,3.9222,Diorite_rect,3,3.922,1,2,0,2,0,1,,,,,,,,,,,,,
5d63179aa3b94d0001da4bb6,TCN,2024-06-11_12h24.10.246,LearnStrategy,2023.2.3,Win32,59.88023952,3,1,4,0.098243195,-0.02149793,1,0,0,0.8622,rock_grid_rect_2,3,06,-1,-1,0.862,0.136153508,-0.253583001,1,0,0,2.4259,Diorite_rect,3,2.426,1,3,0,3,0,1,,,,,,,,,,,,,
5d63179aa3b94d0001da4bb6,TCN,2024-06-11_12h24.10.246,LearnStrategy,2023.2.3,Win32,59.88023952,3,1,5,0.14724924,0.001618098,1,0,0,0.9676,rock_grid_rect_2,8,13,-1,-1,0.968,0.381183513,-0.393203883,1,0,0,1.3639,Pumice_rect,8,1.364,1,4,0,4,0,1,,,,,,,,,,,,,
5d63179aa3b94d0001da4bb6,TCN,2024-06-11_12h24.10.246,LearnStrategy,2023.2.3,Win32,59.88023952,3,1,6,0.1232085,-0.009477597,1,0,0,0.672,rock_grid_rect_2,1,02,-1,-1,0.672,-0.341886243,-0.267452647,1,0,0,10.4881,Andesite_rect,1,10.488,1,5,0,5,0,1,,,,,,,,,,,,,
5d63179aa3b94d0001da4bb6,TCN,2024-06-11_12h24.10.246,LearnStrategy,2023.2.3,Win32,59.88023952,3,1,7,0.118585309,0.005316688,1,0,0,0.7463,rock_grid_rect_2,4,03,-1,-1,0.746,-0.331715186,-0.258206192,1,0,0,6.685,Andesite_rect,1,6.685,0,6,0,6,0,1,,,,,,,,,,,,,
5d63179aa3b94d0001da4bb6,TCN,2024-06-11_12h24.10.246,LearnStrategy,2023.2.3,Win32,59.88023952,3,1,8,0.088996813,-0.000231178,1,0,0,0.6949,rock_grid_rect_2,8,03,-1,-1,0.695,0.387656054,-0.405224254,1,0,0,4.2524,Pumice_rect,8,4.252,1,7,0,7,0,1,,,,,,,,,,,,,
5d63179aa3b94d0001da4bb6,TCN,2024-06-11_12h24.10.246,LearnStrategy,2023.2.3,Win32,59.88023952,3,1,9,0.125982414,-0.001155816,1,0,0,1.0926,rock_grid_rect_2,2,16,-1,-1,1.093,-0.343735556,-0.396902436,1,0,0,1.515,Obsidian_rect,5,1.515,0,8,0,8,0,1,,,,,,,,,,,,,
5d63179aa3b94d0001da4bb6,TCN,2024-06-11_12h24.10.246,LearnStrategy,2023.2.3,Win32,59.88023952,3,1,10,0.081599634,-0.015025426,1,0,0,0.7357,rock_grid_rect_2,6,12,-1,-1,0.736,-0.076514087,-0.410772083,1,0,0,4.7498,Pegmatite_rect,6,4.75,1,9,0,9,0,1,,,,,,,,,,,,,
5d63179aa3b94d0001da4bb6,TCN,2024-06-11_12h24.10.246,LearnStrategy,2023.2.3,Win32,59.88023952,3,1,11,0.103791024,-0.003005093,1,0,0,0.7688,rock_grid_rect_2,6,10,-1,-1,0.769,0.141701337,-0.400601063,1,0,0,3.9141,Peridotite_rect,7,3.914,0,10,0,10,0,1,,,,,,,,,,,,,
5d63179aa3b94d0001da4bb6,TCN,2024-06-11_12h24.10.246,LearnStrategy,2023.2.3,Win32,59.88023952,3,1,12,0.090846089,-0.00762832,1,0,0,0.7239,rock_grid_rect_2,5,10,-1,-1,0.724,-0.347434109,-0.389505331,1,0,0,1.2113,Obsidian_rect,5,1.211,1,11,0,11,0,1,,,,,,,,,,,,,
5d63179aa3b94d0001da4bb6,TCN,2024-06-11_12h24.10.246,LearnStrategy,2023.2.3,Win32,59.88023952,3,1,13,0.107489651,-0.003929731,1,0,0,0.6958,rock_grid_rect_2,5,11,-1,-1,0.696,-0.340036966,-0.402450339,1,0,0,0.9591,Obsidian_rect,5,0.959,1,12,0,12,0,1,,,,,,,,,,,,,
5d63179aa3b94d0001da4bb6,TCN,2024-06-11_12h24.10.246,LearnStrategy,2023.2.3,Win32,59.88023952,3,1,14,0.085298186,-0.015950064,1,0,0,1.247,rock_grid_rect_2,1,05,-1,-1,1.247,0.138927423,-0.264678733,1,0,0,5.4381,Diorite_rect,3,5.438,0,13,0,13,0,1,,,,,,,,,,,,,
5d63179aa3b94d0001da4bb6,TCN,2024-06-11_12h24.10.246,LearnStrategy,2023.2.3,Win32,59.88023952,3,1,15,0.094544642,-0.001155816,1,0,0,0.8956,rock_grid_rect_2,7,02,-1,-1,0.896,0.071428614,-0.409847445,1,0,0,6.1169,Peridotite_rect,7,6.117,1,14,0,14,0,1,,,,,,,,,,,,,
5d63179aa3b94d0001da4bb6,TCN,2024-06-11_12h24.10.246,LearnStrategy,2023.2.3,Win32,59.88023952,3,1,16,0.109338927,-0.003929731,1,0,0,0.745,rock_grid_rect_2,2,01,-1,-1,0.745,-0.09223301,-0.247110533,1,0,0,2.3538,Basalt_rect,2,2.354,1,15,0,15,0,1,,,,,,,,,,,,,
5d63179aa3b94d0001da4bb6,TCN,2024-06-11_12h24.10.246,LearnStrategy,2023.2.3,Win32,59.88023952,3,2,1,,,,,,,,2,05,,,,,,,,,,,2,1.508,1,,,,,,-0.104253306,-0.254507639,1,0,0,1.5084,Basalt_rect,0,0,0,0,1,
5d63179aa3b94d0001da4bb6,TCN,2024-06-11_12h24.10.246,LearnStrategy,2023.2.3,Win32,59.88023952,3,2,2,,,,,,,,3,11,,,,,,,,,,,3,5.238,1,,,,,,0.136153508,-0.260055468,1,0,0,5.2379,Diorite_rect,1,0,1,0,1,
5d63179aa3b94d0001da4bb6,TCN,2024-06-11_12h24.10.246,LearnStrategy,2023.2.3,Win32,59.88023952,3,2,3,,,,,,,,6,08,,,,,,,,,,,6,4.389,1,,,,,,-0.053398058,-0.395977798,1,0,0,4.3885,Pegmatite_rect,2,0,2,0,1,
5d63179aa3b94d0001da4bb6,TCN,2024-06-11_12h24.10.246,LearnStrategy,2023.2.3,Win32,59.88023952,3,2,4,,,,,,,,7,16,,,,,,,,,,,6,2.101,0,,,,,,-0.061719728,-0.385806778,1,0,0,2.101,Pegmatite_rect,3,0,3,0,1,
5d63179aa3b94d0001da4bb6,TCN,2024-06-11_12h24.10.246,LearnStrategy,2023.2.3,Win32,59.88023952,3,2,5,,,,,,,,8,05,,,,,,,,,,,8,1.025,1,,,,,,0.382108225,-0.390429969,1,0,0,1.0251,Pumice_rect,4,0,4,0,1,
5d63179aa3b94d0001da4bb6,TCN,2024-06-11_12h24.10.246,LearnStrategy,2023.2.3,Win32,59.88023952,3,2,6,,,,,,,,6,09,,,,,,,,,,,6,7.64,1,,,,,,-0.071890896,-0.386731416,1,0,0,7.6397,Pegmatite_rect,5,0,5,0,1,
5d63179aa3b94d0001da4bb6,TCN,2024-06-11_12h24.10.246,LearnStrategy,2023.2.3,Win32,59.88023952,3,2,7,,,,,,,,5,16,,,,,,,,,,,5,0.926,1,,,,,,-0.328016633,-0.401525701,1,0,0,0.9262,Obsidian_rect,6,0,6,0,1,
5d63179aa3b94d0001da4bb6,TCN,2024-06-11_12h24.10.246,LearnStrategy,2023.2.3,Win32,59.88023952,3,2,8,,,,,,,,4,10,,,,,,,,,,,2,1.907,0,,,,,,-0.13661579,-0.267452647,1,0,0,1.9073,Basalt_rect,7,0,7,0,1,
5d63179aa3b94d0001da4bb6,TCN,2024-06-11_12h24.10.246,LearnStrategy,2023.2.3,Win32,59.88023952,3,2,9,,,,,,,,7,04,,,,,,,,,,,7,5.78,1,,,,,,0.072353252,-0.410772083,1,0,0,5.7802,Peridotite_rect,8,0,8,0,1,
5d63179aa3b94d0001da4bb6,TCN,2024-06-11_12h24.10.246,LearnStrategy,2023.2.3,Win32,59.88023952,3,2,10,,,,,,,,5,08,,,,,,,,,,,5,0.889,1,,,,,,-0.344660194,-0.382108225,1,0,0,0.8887,Obsidian_rect,9,0,9,0,1,
5d63179aa3b94d0001da4bb6,TCN,2024-06-11_12h24.10.246,LearnStrategy,2023.2.3,Win32,59.88023952,3,2,11,,,,,,,,3,13,,,,,,,,,,,7,1.239,0,,,,,,0.108414289,-0.383957576,1,0,0,1.2395,Peridotite_rect,10,0,10,0,1,
5d63179aa3b94d0001da4bb6,TCN,2024-06-11_12h24.10.246,LearnStrategy,2023.2.3,Win32,59.88023952,3,2,12,,,,,,,,1,06,,,,,,,,,,,1,5.288,1,,,,,,-0.31229771,-0.243411907,1,0,0,5.2877,Andesite_rect,11,0,11,0,1,
5d63179aa3b94d0001da4bb6,TCN,2024-06-11_12h24.10.246,LearnStrategy,2023.2.3,Win32,59.88023952,3,2,13,,,,,,,,4,14,,,,,,,,,,,4,6.154,1,,,,,,0.359916761,-0.246185895,1,0,0,6.1544,Gabbro_rect,12,0,12,0,1,
5d63179aa3b94d0001da4bb6,TCN,2024-06-11_12h24.10.246,LearnStrategy,2023.2.3,Win32,59.88023952,3,2,14,,,,,,,,2,02,,,,,,,,,,,2,1.29,1,,,,,,-0.098705477,-0.249884448,1,0,0,1.29,Basalt_rect,13,0,13,0,1,
5d63179aa3b94d0001da4bb6,TCN,2024-06-11_12h24.10.246,LearnStrategy,2023.2.3,Win32,59.88023952,3,2,15,,,,,,,,1,07,,,,,,,,,,,3,3.269,0,,,,,,0.129681041,-0.262829382,1,0,0,3.2685,Diorite_rect,14,0,14,0,1,
5d63179aa3b94d0001da4bb6,TCN,2024-06-11_12h24.10.246,LearnStrategy,2023.2.3,Win32,59.88023952,3,2,16,,,,,,,,8,16,,,,,,,,,,,8,1.108,1,,,,,,0.349745741,-0.39505316,1,0,0,1.1078,Pumice_rect,15,0,15,0,1,
5d63179aa3b94d0001da4bb6,TCN,2024-06-11_12h24.10.246,LearnStrategy,2023.2.3,Win32,59.88023952,4,1,1,0.097318557,-0.010402235,1,0,0,1.3204,rock_grid_rect_2,5,06,-1,-1,1.32,-0.3520573,-0.403375052,1,0,0,1.9919,Obsidian_rect,5,1.992,1,0,0,0,0,1,,,,,,,,,,,,,
5d63179aa3b94d0001da4bb6,TCN,2024-06-11_12h24.10.246,LearnStrategy,2023.2.3,Win32,59.88023952,4,1,2,0.003005093,-0.023347206,1,0,0,1.2633,rock_grid_rect_2,7,05,-1,-1,1.263,-0.340961604,-0.260055468,1,0,0,6.2212,Andesite_rect,1,6.221,0,1,0,1,0,1,,,,,,,,,,,,,
5d63179aa3b94d0001da4bb6,TCN,2024-06-11_12h24.10.246,LearnStrategy,2023.2.3,Win32,59.88023952,4,1,3,0.063106796,-0.012251511,1,0,0,0.8452,rock_grid_rect_2,6,10,-1,-1,0.845,-0.08483583,-0.421867815,1,0,0,8.6854,Pegmatite_rect,6,8.685,1,2,0,2,0,1,,,,,,,,,,,,,
5d63179aa3b94d0001da4bb6,TCN,2024-06-11_12h24.10.246,LearnStrategy,2023.2.3,Win32,59.88023952,4,1,4,0.06125752,-0.008552959,1,0,0,0.7794,rock_grid_rect_2,4,13,-1,-1,0.779,0.359916761,-0.263754095,1,0,0,4.9231,Gabbro_rect,4,4.923,1,3,0,3,0,1,,,,,,,,,,,,,
5d63179aa3b94d0001da4bb6,TCN,2024-06-11_12h24.10.246,LearnStrategy,2023.2.3,Win32,59.88023952,4,1,5,0.048312511,-0.022422568,1,0,0,1.4285,rock_grid_rect_2,8,13,-1,-1,1.428,0.363615314,-0.395977798,1,0,0,1.2364,Pumice_rect,8,1.236,1,4,0,4,0,1,,,,,,,,,,,,,
5d63179aa3b94d0001da4bb6,TCN,2024-06-11_12h24.10.246,LearnStrategy,2023.2.3,Win32,59.88023952,4,1,6,0.066805349,-0.018724016,1,0,0,1.3477,rock_grid_rect_2,2,12,-1,-1,1.348,-0.341886243,-0.255432277,1,0,0,8.8272,Andesite_rect,1,8.827,0,5,0,5,0,1,,,,,,,,,,,,,
5d63179aa3b94d0001da4bb6,TCN,2024-06-11_12h24.10.246,LearnStrategy,2023.2.3,Win32,59.88023952,4,1,7,0.075127166,-0.006703645,1,0,0,1.2448,rock_grid_rect_2,4,01,-1,-1,1.245,-0.326167357,-0.248035172,1,0,0,2.5961,Andesite_rect,1,2.596,0,6,0,6,0,1,,,,,,,,,,,,,
5d63179aa3b94d0001da4bb6,TCN,2024-06-11_12h24.10.246,LearnStrategy,2023.2.3,Win32,59.88023952,4,1,8,0.067729987,0.002542773,1,0,0,0.6447,rock_grid_rect_2,8,03,-1,-1,0.645,0.400600989,-0.402450339,1,0,0,1.2172,Pumice_rect,8,1.217,1,7,0,7,0,1,,,,,,,,,,,,,
5d63179aa3b94d0001da4bb6,TCN,2024-06-11_12h24.10.246,LearnStrategy,2023.2.3,Win32,59.88023952,4,1,9,0.069579337,0.015487745,1,0,0,0.7652,rock_grid_rect_2,5,11,-1,-1,0.765,-0.363153032,-0.386731416,1,0,0,0.9323,Obsidian_rect,5,0.932,1,8,0,8,0,1,,,,,,,,,,,,,
5d63179aa3b94d0001da4bb6,TCN,2024-06-11_12h24.10.246,LearnStrategy,2023.2.3,Win32,59.88023952,4,1,10,0.101941748,-0.009477597,1,0,0,0.5814,rock_grid_rect_2,6,15,-1,-1,0.581,-0.104253306,-0.405224254,1,0,0,2.9411,Pegmatite_rect,6,2.941,1,9,0,9,0,1,,,,,,,,,,,,,
5d63179aa3b94d0001da4bb6,TCN,2024-06-11_12h24.10.246,LearnStrategy,2023.2.3,Win32,59.88023952,4,1,11,0.102866386,0.006241326,1,0,0,0.6788,rock_grid_rect_2,1,10,-1,-1,0.679,-0.362228394,-0.252658363,1,0,0,2.6578,Andesite_rect,1,2.658,1,10,0,10,0,1,,,,,,,,,,,,,
5d63179aa3b94d0001da4bb6,TCN,2024-06-11_12h24.10.246,LearnStrategy,2023.2.3,Win32,59.88023952,4,1,12,0.078825719,-0.000231178,1,0,0,0.6052,rock_grid_rect_2,7,02,-1,-1,0.605,0.08344891,-0.40429969,1,0,0,3.1661,Peridotite_rect,7,3.166,1,11,0,11,0,1,,,,,,,,,,,,,
5d63179aa3b94d0001da4bb6,TCN,2024-06-11_12h24.10.246,LearnStrategy,2023.2.3,Win32,59.88023952,4,1,13,0.1056403,-0.017799377,1,0,0,1.1952,rock_grid_rect_2,1,01,-1,-1,1.195,-0.121821505,-0.240637992,1,0,0,2.854,Basalt_rect,2,2.854,0,12,0,12,0,1,,,,,,,,,,,,,
5d63179aa3b94d0001da4bb6,TCN,2024-06-11_12h24.10.246,LearnStrategy,2023.2.3,Win32,59.88023952,4,1,14,0.047387873,-0.017799377,1,0,0,0.7622,rock_grid_rect_2,3,02,-1,-1,0.762,0.126907126,-0.257281553,1,0,0,3.3073,Diorite_rect,3,3.307,1,13,0,13,0,1,,,,,,,,,,,,,
5d63179aa3b94d0001da4bb6,TCN,2024-06-11_12h24.10.246,LearnStrategy,2023.2.3,Win32,59.88023952,4,1,15,0.066805349,-0.009477597,1,0,0,1.1783,rock_grid_rect_2,3,10,-1,-1,1.178,0.069579337,-0.408922807,1,0,0,5.4595,Peridotite_rect,7,5.46,0,14,0,14,0,1,,,,,,,,,,,,,
5d63179aa3b94d0001da4bb6,TCN,2024-06-11_12h24.10.246,LearnStrategy,2023.2.3,Win32,59.88023952,4,1,16,0.101017109,-0.001155816,1,0,0,0.7947,rock_grid_rect_2,2,16,-1,-1,0.795,-0.077438725,-0.253583001,1,0,0,6.5361,Basalt_rect,2,6.536,1,15,0,15,0,1,,,,,,,,,,,,,
5d63179aa3b94d0001da4bb6,TCN,2024-06-11_12h24.10.246,LearnStrategy,2023.2.3,Win32,59.88023952,4,2,1,,,,,,,,7,13,,,,,,,,,,,3,27.131,0,,,,,,0.124133138,-0.261904744,1,0,0,27.1306,Diorite_rect,0,0,0,0,1,
5d63179aa3b94d0001da4bb6,TCN,2024-06-11_12h24.10.246,LearnStrategy,2023.2.3,Win32,59.88023952,4,2,2,,,,,,,,4,10,,,,,,,,,,,2,1.092,0,,,,,,-0.090383733,-0.255432277,1,0,0,1.0921,Basalt_rect,1,0,1,0,1,
5d63179aa3b94d0001da4bb6,TCN,2024-06-11_12h24.10.246,LearnStrategy,2023.2.3,Win32,59.88023952,4,2,3,,,,,,,,5,16,,,,,,,,,,,5,0.956,1,,,,,,-0.358529804,-0.415395274,1,0,0,0.9562,Obsidian_rect,2,0,2,0,1,
5d63179aa3b94d0001da4bb6,TCN,2024-06-11_12h24.10.246,LearnStrategy,2023.2.3,Win32,59.88023952,4,2,4,,,,,,,,2,14,,,,,,,,,,,4,4.189,0,,,,,,0.385806778,-0.255432277,1,0,0,4.1886,Gabbro_rect,3,0,3,0,1,
5d63179aa3b94d0001da4bb6,TCN,2024-06-11_12h24.10.246,LearnStrategy,2023.2.3,Win32,59.88023952,4,2,5,,,,,,,,8,14,,,,,,,,,,,8,1.796,1,,,,,,0.397827148,-0.393203883,1,0,0,1.7961,Pumice_rect,4,0,4,0,1,
5d63179aa3b94d0001da4bb6,TCN,2024-06-11_12h24.10.246,LearnStrategy,2023.2.3,Win32,59.88023952,4,2,6,,,,,,,,5,14,,,,,,,,,,,5,1.168,1,,,,,,-0.362228394,-0.391354607,1,0,0,1.1675,Obsidian_rect,5,0,5,0,1,
5d63179aa3b94d0001da4bb6,TCN,2024-06-11_12h24.10.246,LearnStrategy,2023.2.3,Win32,59.88023952,4,2,7,,,,,,,,4,12,,,,,,,,,,,1,9.402,0,,,,,,-0.341886243,-0.25913083,1,0,0,9.4018,Andesite_rect,6,0,6,0,1,
5d63179aa3b94d0001da4bb6,TCN,2024-06-11_12h24.10.246,LearnStrategy,2023.2.3,Win32,59.88023952,4,2,8,,,,,,,,3,09,,,,,,,,,,,6,3.789,0,,,,,,-0.09223301,-0.419093901,1,0,0,3.7892,Pegmatite_rect,7,0,7,0,1,
5d63179aa3b94d0001da4bb6,TCN,2024-06-11_12h24.10.246,LearnStrategy,2023.2.3,Win32,59.88023952,4,2,9,,,,,,,,1,14,,,,,,,,,,,1,2.801,1,,,,,,-0.363153032,-0.245261257,1,0,0,2.8007,Andesite_rect,8,0,8,0,1,
5d63179aa3b94d0001da4bb6,TCN,2024-06-11_12h24.10.246,LearnStrategy,2023.2.3,Win32,59.88023952,4,2,10,,,,,,,,7,14,,,,,,,,,,,3,1.674,0,,,,,,0.119509947,-0.266528009,1,0,0,1.6741,Diorite_rect,9,0,9,0,1,
5d63179aa3b94d0001da4bb6,TCN,2024-06-11_12h24.10.246,LearnStrategy,2023.2.3,Win32,59.88023952,4,2,11,,,,,,,,6,03,,,,,,,,,,,6,2.773,1,,,,,,-0.120896867,-0.405224254,1,0,0,2.7735,Pegmatite_rect,10,0,10,0,1,
5d63179aa3b94d0001da4bb6,TCN,2024-06-11_12h24.10.246,LearnStrategy,2023.2.3,Win32,59.88023952,4,2,12,,,,,,,,2,05,,,,,,,,,,,2,1.4,1,,,,,,-0.106102656,-0.248035172,1,0,0,1.4003,Basalt_rect,11,0,11,0,1,
5d63179aa3b94d0001da4bb6,TCN,2024-06-11_12h24.10.246,LearnStrategy,2023.2.3,Win32,59.88023952,4,2,13,,,,,,,,8,02,,,,,,,,,,,8,1.05,1,,,,,,0.37748496,-0.412621359,1,0,0,1.0502,Pumice_rect,12,0,12,0,1,
5d63179aa3b94d0001da4bb6,TCN,2024-06-11_12h24.10.246,LearnStrategy,2023.2.3,Win32,59.88023952,4,2,14,,,,,,,,6,09,,,,,,,,,,,6,3.299,1,,,,,,-0.091308372,-0.393203883,1,0,0,3.2989,Pegmatite_rect,13,0,13,0,1,
5d63179aa3b94d0001da4bb6,TCN,2024-06-11_12h24.10.246,LearnStrategy,2023.2.3,Win32,59.88023952,4,2,15,,,,,,,,3,14,,,,,,,,,,,6,1.949,0,,,,,,-0.058945887,-0.399676425,1,0,0,1.9486,Pegmatite_rect,14,0,14,0,1,
5d63179aa3b94d0001da4bb6,TCN,2024-06-11_12h24.10.246,LearnStrategy,2023.2.3,Win32,59.88023952,4,2,16,,,,,,,,1,16,,,,,,,,,,,1,8.044,1,,,,,,-0.372399451,-0.261904744,1,0,0,8.0444,Andesite_rect,15,0,15,0,1,
5d63179aa3b94d0001da4bb6,TCN,2024-06-11_12h24.10.246,LearnStrategy,2023.2.3,Win32,59.88023952,5,1,1,0.116736032,-0.001155816,1,0,0,1.0469,rock_grid_rect_2,8,04,-1,-1,1.047,0.387656054,-0.389505331,1,0,0,1.3088,Pumice_rect,8,1.309,1,0,0,0,0,1,,,,,,,,,,,,,
5d63179aa3b94d0001da4bb6,TCN,2024-06-11_12h24.10.246,LearnStrategy,2023.2.3,Win32,59.88023952,5,1,2,0.127831765,-0.000231178,1,0,0,0.8316,rock_grid_rect_2,3,06,-1,-1,0.832,-0.101479391,-0.397827074,1,0,0,3.2186,Pegmatite_rect,6,3.219,0,1,0,1,0,1,,,,,,,,,,,,,
5d63179aa3b94d0001da4bb6,TCN,2024-06-11_12h24.10.246,LearnStrategy,2023.2.3,Win32,59.88023952,5,1,3,0.097318557,-0.003005093,1,0,0,0.9301,rock_grid_rect_2,1,04,-1,-1,0.93,-0.344660194,-0.252658363,1,0,0,4.6146,Andesite_rect,1,4.615,1,2,0,2,0,1,,,,,,,,,,,,,
5d63179aa3b94d0001da4bb6,TCN,2024-06-11_12h24.10.246,LearnStrategy,2023.2.3,Win32,59.88023952,5,1,4,0.093620004,0.010864517,1,0,0,0.7424,rock_grid_rect_2,4,11,-1,-1,0.742,-0.142163619,-0.239713354,1,0,0,4.7516,Basalt_rect,2,4.752,0,3,0,3,0,1,,,,,,,,,,,,,
5d63179aa3b94d0001da4bb6,TCN,2024-06-11_12h24.10.246,LearnStrategy,2023.2.3,Win32,59.88023952,5,1,5,0.036292215,-0.009477597,1,0,0,0.7102,rock_grid_rect_2,6,16,-1,-1,0.71,-0.072815534,-0.398751787,1,0,0,7.6642,Pegmatite_rect,6,7.664,1,4,0,4,0,1,,,,,,,,,,,,,
5d63179aa3b94d0001da4bb6,TCN,2024-06-11_12h24.10.246,LearnStrategy,2023.2.3,Win32,59.88023952,5,1,6,0.103791024,-0.018724016,1,0,0,0.9073,rock_grid_rect_2,2,06,-1,-1,0.907,-0.358529804,-0.400601063,1,0,0,1.1974,Obsidian_rect,5,1.197,0,5,0,5,0,1,,,,,,,,,,,,,
5d63179aa3b94d0001da4bb6,TCN,2024-06-11_12h24.10.246,LearnStrategy,2023.2.3,Win32,59.88023952,5,1,7,0.040915406,-0.001155816,1,0,0,0.7142,rock_grid_rect_2,5,02,-1,-1,0.714,-0.365002308,-0.393203883,1,0,0,2.3603,Obsidian_rect,5,2.36,1,6,0,6,0,1,,,,,,,,,,,,,
5d63179aa3b94d0001da4bb6,TCN,2024-06-11_12h24.10.246,LearnStrategy,2023.2.3,Win32,59.88023952,5,1,8,0.094544642,0.003467412,1,0,0,0.6811,rock_grid_rect_2,1,02,-1,-1,0.681,-0.326167357,-0.265603371,1,0,0,3.4423,Andesite_rect,1,3.442,1,7,0,7,0,1,,,,,,,,,,,,,
5d63179aa3b94d0001da4bb6,TCN,2024-06-11_12h24.10.246,LearnStrategy,2023.2.3,Win32,59.88023952,5,1,9,0.064956072,0.00069346,1,0,0,0.5787,rock_grid_rect_2,6,13,-1,-1,0.579,-0.107951933,-0.398751787,1,0,0,2.4741,Pegmatite_rect,6,2.474,1,8,0,8,0,1,,,,,,,,,,,,,
5d63179aa3b94d0001da4bb6,TCN,2024-06-11_12h24.10.246,LearnStrategy,2023.2.3,Win32,59.88023952,5,1,10,0.04368932,-0.010402235,1,0,0,0.6284,rock_grid_rect_2,8,06,-1,-1,0.628,0.375635684,-0.400601063,1,0,0,1.3383,Pumice_rect,8,1.338,1,9,0,9,0,1,,,,,,,,,,,,,
5d63179aa3b94d0001da4bb6,TCN,2024-06-11_12h24.10.246,LearnStrategy,2023.2.3,Win32,59.88023952,5,1,11,0.066805349,-0.023347206,1,0,0,0.6142,rock_grid_rect_2,4,03,-1,-1,0.614,-0.32431808,-0.255432277,1,0,0,3.327,Andesite_rect,1,3.327,0,10,0,10,0,1,,,,,,,,,,,,,
5d63179aa3b94d0001da4bb6,TCN,2024-06-11_12h24.10.246,LearnStrategy,2023.2.3,Win32,59.88023952,5,1,12,0.022422568,-0.019648654,1,0,0,1.1452,rock_grid_rect_2,5,04,-1,-1,1.145,-0.357605166,-0.378409599,1,0,0,1.3549,Obsidian_rect,5,1.355,1,11,0,11,0,1,,,,,,,,,,,,,
5d63179aa3b94d0001da4bb6,TCN,2024-06-11_12h24.10.246,LearnStrategy,2023.2.3,Win32,59.88023952,5,1,13,0.097318557,-0.010402235,1,0,0,0.5969,rock_grid_rect_2,7,08,-1,-1,0.597,0.101941748,-0.39505316,1,0,0,4.0304,Peridotite_rect,7,4.03,1,12,0,12,0,1,,,,,,,,,,,,,
5d63179aa3b94d0001da4bb6,TCN,2024-06-11_12h24.10.246,LearnStrategy,2023.2.3,Win32,59.88023952,5,1,14,0.091770728,-0.020573292,1,0,0,0.7624,rock_grid_rect_2,2,10,-1,-1,0.762,-0.094082286,-0.24156263,1,0,0,1.2569,Basalt_rect,2,1.257,1,13,0,13,0,1,,,,,,,,,,,,,
5d63179aa3b94d0001da4bb6,TCN,2024-06-11_12h24.10.246,LearnStrategy,2023.2.3,Win32,59.88023952,5,1,15,0.097318557,-0.003005093,1,0,0,0.5645,rock_grid_rect_2,3,12,-1,-1,0.564,0.397827148,-0.256356915,1,0,0,10.0531,Gabbro_rect,4,10.053,0,14,0,14,0,1,,,,,,,,,,,,,
5d63179aa3b94d0001da4bb6,TCN,2024-06-11_12h24.10.246,LearnStrategy,2023.2.3,Win32,59.88023952,5,1,16,0.063106796,-0.018724016,1,0,0,2.326,rock_grid_rect_2,7,07,-1,-1,2.326,0.053860488,-0.403375052,1,0,0,3.7025,Peridotite_rect,7,3.702,1,15,0,15,0,1,,,,,,,,,,,,,
5d63179aa3b94d0001da4bb6,TCN,2024-06-11_12h24.10.246,LearnStrategy,2023.2.3,Win32,59.88023952,5,2,1,,,,,,,,4,16,,,,,,,,,,,2,1.642,0,,,,,,-0.08483583,-0.258206192,1,0,0,1.6416,Basalt_rect,0,0,0,0,1,
5d63179aa3b94d0001da4bb6,TCN,2024-06-11_12h24.10.246,LearnStrategy,2023.2.3,Win32,59.88023952,5,2,2,,,,,,,,5,05,,,,,,,,,,,5,1.11,1,,,,,,-0.355755889,-0.413545997,1,0,0,1.1096,Obsidian_rect,1,0,1,0,1,
5d63179aa3b94d0001da4bb6,TCN,2024-06-11_12h24.10.246,LearnStrategy,2023.2.3,Win32,59.88023952,5,2,3,,,,,,,,8,15,,,,,,,,,,,8,1.139,1,,,,,,0.364540026,-0.390429969,1,0,0,1.1391,Pumice_rect,2,0,2,0,1,
5d63179aa3b94d0001da4bb6,TCN,2024-06-11_12h24.10.246,LearnStrategy,2023.2.3,Win32,59.88023952,5,2,4,,,,,,,,6,08,,,,,,,,,,,6,5.314,1,,,,,,-0.086685181,-0.418169262,1,0,0,5.314,Pegmatite_rect,3,0,3,0,1,
5d63179aa3b94d0001da4bb6,TCN,2024-06-11_12h24.10.246,LearnStrategy,2023.2.3,Win32,59.88023952,5,2,5,,,,,,,,5,08,,,,,,,,,,,5,1.118,1,,,,,,-0.36407767,-0.40707353,1,0,0,1.1181,Obsidian_rect,4,0,4,0,1,
5d63179aa3b94d0001da4bb6,TCN,2024-06-11_12h24.10.246,LearnStrategy,2023.2.3,Win32,59.88023952,5,2,6,,,,,,,,6,05,,,,,,,,,,,4,6.081,0,,,,,,0.371012567,-0.249884448,1,0,0,6.0813,Gabbro_rect,5,0,5,0,1,
5d63179aa3b94d0001da4bb6,TCN,2024-06-11_12h24.10.246,LearnStrategy,2023.2.3,Win32,59.88023952,5,2,7,,,,,,,,1,09,,,,,,,,,,,1,7.819,1,,,,,,-0.347434109,-0.269301924,1,0,0,7.8194,Andesite_rect,6,0,6,0,1,
5d63179aa3b94d0001da4bb6,TCN,2024-06-11_12h24.10.246,LearnStrategy,2023.2.3,Win32,59.88023952,5,2,8,,,,,,,,7,04,,,,,,,,,,,3,2.198,0,,,,,,0.106564938,-0.257281553,1,0,0,2.198,Diorite_rect,7,0,7,0,1,
5d63179aa3b94d0001da4bb6,TCN,2024-06-11_12h24.10.246,LearnStrategy,2023.2.3,Win32,59.88023952,5,2,9,,,,,,,,2,04,,,,,,,,,,,2,1.235,1,,,,,,-0.089459095,-0.255432277,1,0,0,1.2352,Basalt_rect,8,0,8,0,1,
5d63179aa3b94d0001da4bb6,TCN,2024-06-11_12h24.10.246,LearnStrategy,2023.2.3,Win32,59.88023952,5,2,10,,,,,,,,2,08,,,,,,,,,,,2,0.852,1,,,,,,-0.042302252,-0.252658363,1,0,0,0.852,Basalt_rect,9,0,9,0,1,
5d63179aa3b94d0001da4bb6,TCN,2024-06-11_12h24.10.246,LearnStrategy,2023.2.3,Win32,59.88023952,5,2,11,,,,,,,,1,06,,,,,,,,,,,4,1.591,0,,,,,,0.371012567,-0.257281553,1,0,0,1.5914,Gabbro_rect,10,0,10,0,1,
5d63179aa3b94d0001da4bb6,TCN,2024-06-11_12h24.10.246,LearnStrategy,2023.2.3,Win32,59.88023952,5,2,12,,,,,,,,3,15,,,,,,,,,,,7,4.373,0,,,,,,0.091770728,-0.399676425,1,0,0,4.373,Peridotite_rect,11,0,11,0,1,
5d63179aa3b94d0001da4bb6,TCN,2024-06-11_12h24.10.246,LearnStrategy,2023.2.3,Win32,59.88023952,5,2,13,,,,,,,,3,13,,,,,,,,,,,7,1.158,0,,,,,,0.097318557,-0.389505331,1,0,0,1.158,Peridotite_rect,12,0,12,0,1,
5d63179aa3b94d0001da4bb6,TCN,2024-06-11_12h24.10.246,LearnStrategy,2023.2.3,Win32,59.88023952,5,2,14,,,,,,,,4,14,,,,,,,,,,,1,5.731,0,,,,,,-0.353906613,-0.261904744,1,0,0,5.7309,Andesite_rect,13,0,13,0,1,
5d63179aa3b94d0001da4bb6,TCN,2024-06-11_12h24.10.246,LearnStrategy,2023.2.3,Win32,59.88023952,5,2,15,,,,,,,,8,16,,,,,,,,,,,8,1.341,1,,,,,,0.392279319,-0.39505316,1,0,0,1.3405,Pumice_rect,14,0,14,0,1,
5d63179aa3b94d0001da4bb6,TCN,2024-06-11_12h24.10.246,LearnStrategy,2023.2.3,Win32,59.88023952,5,2,16,,,,,,,,7,16,,,,,,,,,,,4,1.69,0,,,,,,0.347896465,-0.25913083,1,0,0,1.6903,Gabbro_rect,15,0,15,0,1,
5d63179aa3b94d0001da4bb6,TCN,2024-06-11_12h24.10.246,LearnStrategy,2023.2.3,Win32,59.88023952,6,1,1,0.141701337,-0.001155816,1,0,0,0.8618,rock_grid_rect_2,7,10,-1,-1,0.862,0.101017109,-0.402450339,1,0,0,3.1069,Peridotite_rect,7,3.107,1,0,0,0,0,1,,,,,,,,,,,,,
5d63179aa3b94d0001da4bb6,TCN,2024-06-11_12h24.10.246,LearnStrategy,2023.2.3,Win32,59.88023952,6,1,2,0.100092471,-0.015025426,1,0,0,0.8874,rock_grid_rect_2,5,07,-1,-1,0.887,-0.351132661,-0.407998168,1,0,0,1.0529,Obsidian_rect,5,1.053,1,1,0,1,0,1,,,,,,,,,,,,,
5d63179aa3b94d0001da4bb6,TCN,2024-06-11_12h24.10.246,LearnStrategy,2023.2.3,Win32,59.88023952,6,1,3,0.106564938,-0.018724016,1,0,0,0.6316,rock_grid_rect_2,6,12,-1,-1,0.632,-0.128294047,-0.419093901,1,0,0,3.1516,Pegmatite_rect,6,3.152,1,2,0,2,0,1,,,,,,,,,,,,,
5d63179aa3b94d0001da4bb6,TCN,2024-06-11_12h24.10.246,LearnStrategy,2023.2.3,Win32,59.88023952,6,1,4,0.085298186,-0.00762832,1,0,0,0.7616,rock_grid_rect_2,3,16,-1,-1,0.762,0.370087855,-0.258206192,1,0,0,1.2585,Gabbro_rect,4,1.259,0,3,0,3,0,1,,,,,,,,,,,,,
5d63179aa3b94d0001da4bb6,TCN,2024-06-11_12h24.10.246,LearnStrategy,2023.2.3,Win32,59.88023952,6,1,5,0.1056403,-0.024271845,1,0,0,0.7618,rock_grid_rect_2,8,08,-1,-1,0.762,0.358992197,-0.379334311,1,0,0,1.2499,Pumice_rect,8,1.25,1,4,0,4,0,1,,,,,,,,,,,,,
5d63179aa3b94d0001da4bb6,TCN,2024-06-11_12h24.10.246,LearnStrategy,2023.2.3,Win32,59.88023952,6,1,6,0.150947793,0.002542773,1,0,0,0.6816,rock_grid_rect_2,7,06,-1,-1,0.682,0.399676425,-0.228617696,1,0,0,3.6689,Gabbro_rect,4,3.669,0,5,0,5,0,1,,,,,,,,,,,,,
5d63179aa3b94d0001da4bb6,TCN,2024-06-11_12h24.10.246,LearnStrategy,2023.2.3,Win32,59.88023952,6,1,7,0.110263565,-0.023347206,1,0,0,1.2791,rock_grid_rect_2,1,11,-1,-1,1.279,-0.363153032,-0.251733724,1,0,0,2.7326,Andesite_rect,1,2.733,1,6,0,6,0,1,,,,,,,,,,,,,
5d63179aa3b94d0001da4bb6,TCN,2024-06-11_12h24.10.246,LearnStrategy,2023.2.3,Win32,59.88023952,6,1,8,0.120434585,0.00069346,1,0,0,0.6624,rock_grid_rect_2,6,06,-1,-1,0.662,-0.117198314,-0.413545997,1,0,0,2.476,Pegmatite_rect,6,2.476,1,7,0,7,0,1,,,,,,,,,,,,,
5d63179aa3b94d0001da4bb6,TCN,2024-06-11_12h24.10.246,LearnStrategy,2023.2.3,Win32,59.88023952,6,1,9,0.116736032,-0.006703645,1,0,0,0.6478,rock_grid_rect_2,2,01,-1,-1,0.648,-0.155108628,-0.26837736,1,0,0,6.4709,Basalt_rect,2,6.471,1,8,0,8,0,1,,,,,,,,,,,,,
5d63179aa3b94d0001da4bb6,TCN,2024-06-11_12h24.10.246,LearnStrategy,2023.2.3,Win32,59.88023952,6,1,10,0.125982414,-0.002080454,1,0,0,0.7096,rock_grid_rect_2,5,10,-1,-1,0.71,-0.359454442,-0.407998168,1,0,0,0.9255,Obsidian_rect,5,0.926,1,9,0,9,0,1,,,,,,,,,,,,,
5d63179aa3b94d0001da4bb6,TCN,2024-06-11_12h24.10.246,LearnStrategy,2023.2.3,Win32,59.88023952,6,1,11,0.121359223,-0.005779007,1,0,0,0.7399,rock_grid_rect_2,3,08,-1,-1,0.74,0.413546071,-0.245261257,1,0,0,6.7673,Gabbro_rect,4,6.767,0,10,0,10,0,1,,,,,,,,,,,,,
5d63179aa3b94d0001da4bb6,TCN,2024-06-11_12h24.10.246,LearnStrategy,2023.2.3,Win32,59.88023952,6,1,12,0.101941748,-0.015950064,1,0,0,1.2542,rock_grid_rect_2,4,15,-1,-1,1.254,0.148173878,-0.252658363,1,0,0,7.6914,Diorite_rect,3,7.691,0,11,0,11,0,1,,,,,,,,,,,,,
5d63179aa3b94d0001da4bb6,TCN,2024-06-11_12h24.10.246,LearnStrategy,2023.2.3,Win32,59.88023952,6,1,13,0.131530317,-0.001155816,1,0,0,0.7448,rock_grid_rect_2,1,05,-1,-1,0.745,0.379334237,-0.243411907,1,0,0,1.4277,Gabbro_rect,4,1.428,0,12,0,12,0,1,,,,,,,,,,,,,
5d63179aa3b94d0001da4bb6,TCN,2024-06-11_12h24.10.246,LearnStrategy,2023.2.3,Win32,59.88023952,6,1,14,0.130605679,-0.002080454,1,0,0,0.7063,rock_grid_rect_2,4,05,-1,-1,0.706,-0.339112328,-0.237864078,1,0,0,2.3967,Andesite_rect,1,2.397,0,13,0,13,0,1,,,,,,,,,,,,,
5d63179aa3b94d0001da4bb6,TCN,2024-06-11_12h24.10.246,LearnStrategy,2023.2.3,Win32,59.88023952,6,1,15,0.125982414,-0.00762832,1,0,0,0.6145,rock_grid_rect_2,2,09,-1,-1,0.614,-0.068192343,-0.242487269,1,0,0,1.1598,Basalt_rect,2,1.16,1,14,0,14,0,1,,,,,,,,,,,,,
5d63179aa3b94d0001da4bb6,TCN,2024-06-11_12h24.10.246,LearnStrategy,2023.2.3,Win32,59.88023952,6,1,16,0.109338927,-0.017799377,1,0,0,0.5811,rock_grid_rect_2,8,10,-1,-1,0.581,0.382108225,-0.394128522,1,0,0,1.3743,Pumice_rect,8,1.374,1,15,0,15,0,1,,,,,,,,,,,,,
5d63179aa3b94d0001da4bb6,TCN,2024-06-11_12h24.10.246,LearnStrategy,2023.2.3,Win32,59.88023952,6,2,1,,,,,,,,6,07,,,,,,,,,,,4,10.201,0,,,,,,0.412621359,-0.251733724,1,0,0,10.2011,Gabbro_rect,0,0,0,0,1,
5d63179aa3b94d0001da4bb6,TCN,2024-06-11_12h24.10.246,LearnStrategy,2023.2.3,Win32,59.88023952,6,2,2,,,,,,,,1,07,,,,,,,,,,,3,1.633,0,,,,,,0.191632021,-0.260055468,1,0,0,1.6334,Diorite_rect,1,0,1,0,1,
5d63179aa3b94d0001da4bb6,TCN,2024-06-11_12h24.10.246,LearnStrategy,2023.2.3,Win32,59.88023952,6,2,3,,,,,,,,2,11,,,,,,,,,,,2,1.391,1,,,,,,-0.105177944,-0.236939439,1,0,0,1.3909,Basalt_rect,2,0,2,0,1,
5d63179aa3b94d0001da4bb6,TCN,2024-06-11_12h24.10.246,LearnStrategy,2023.2.3,Win32,59.88023952,6,2,4,,,,,,,,6,11,,,,,,,,,,,6,3.735,1,,,,,,-0.070041619,-0.402450339,1,0,0,3.7347,Pegmatite_rect,3,0,3,0,1,
5d63179aa3b94d0001da4bb6,TCN,2024-06-11_12h24.10.246,LearnStrategy,2023.2.3,Win32,59.88023952,6,2,5,,,,,,,,7,12,,,,,,,,,,,4,2.407,0,,,,,,0.400600989,-0.234165525,1,0,0,2.4069,Gabbro_rect,4,0,4,0,1,
5d63179aa3b94d0001da4bb6,TCN,2024-06-11_12h24.10.246,LearnStrategy,2023.2.3,Win32,59.88023952,6,2,6,,,,,,,,2,02,,,,,,,,,,,2,0.981,1,,,,,,-0.090383733,-0.234165525,1,0,0,0.9806,Basalt_rect,5,0,5,0,1,
5d63179aa3b94d0001da4bb6,TCN,2024-06-11_12h24.10.246,LearnStrategy,2023.2.3,Win32,59.88023952,6,2,7,,,,,,,,5,12,,,,,,,,,,,5,0.937,1,,,,,,-0.372399451,-0.421867815,1,0,0,0.9366,Obsidian_rect,6,0,6,0,1,
5d63179aa3b94d0001da4bb6,TCN,2024-06-11_12h24.10.246,LearnStrategy,2023.2.3,Win32,59.88023952,6,2,8,,,,,,,,4,08,,,,,,,,,,,2,5.103,0,,,,,,-0.061719728,-0.250809086,1,0,0,5.1034,Basalt_rect,7,0,7,0,1,
5d63179aa3b94d0001da4bb6,TCN,2024-06-11_12h24.10.246,LearnStrategy,2023.2.3,Win32,59.88023952,6,2,9,,,,,,,,3,11,,,,,,,,,,,4,8.946,0,,,,,,0.360841473,-0.265603371,1,0,0,8.9461,Gabbro_rect,8,0,8,0,1,
5d63179aa3b94d0001da4bb6,TCN,2024-06-11_12h24.10.246,LearnStrategy,2023.2.3,Win32,59.88023952,6,2,10,,,,,,,,4,09,,,,,,,,,,,2,0.947,0,,,,,,-0.086685181,-0.251733724,1,0,0,0.9467,Basalt_rect,9,0,9,0,1,
5d63179aa3b94d0001da4bb6,TCN,2024-06-11_12h24.10.246,LearnStrategy,2023.2.3,Win32,59.88023952,6,2,11,,,,,,,,5,09,,,,,,,,,,,5,0.858,1,,,,,,-0.339112328,-0.411696721,1,0,0,0.8581,Obsidian_rect,10,0,10,0,1,
5d63179aa3b94d0001da4bb6,TCN,2024-06-11_12h24.10.246,LearnStrategy,2023.2.3,Win32,59.88023952,6,2,12,,,,,,,,8,09,,,,,,,,,,,8,0.875,1,,,,,,0.364540026,-0.396902436,1,0,0,0.8748,Pumice_rect,11,0,11,0,1,
5d63179aa3b94d0001da4bb6,TCN,2024-06-11_12h24.10.246,LearnStrategy,2023.2.3,Win32,59.88023952,6,2,13,,,,,,,,3,07,,,,,,,,,,,4,1.279,0,,,,,,0.399676425,-0.238788716,1,0,0,1.2794,Gabbro_rect,12,0,12,0,1,
5d63179aa3b94d0001da4bb6,TCN,2024-06-11_12h24.10.246,LearnStrategy,2023.2.3,Win32,59.88023952,6,2,14,,,,,,,,1,03,,,,,,,,,,,2,0.875,0,,,,,,-0.103328668,-0.264678733,1,0,0,0.875,Basalt_rect,13,0,13,0,1,
5d63179aa3b94d0001da4bb6,TCN,2024-06-11_12h24.10.246,LearnStrategy,2023.2.3,Win32,59.88023952,6,2,15,,,,,,,,8,05,,,,,,,,,,,8,0.985,1,,,,,,0.389505331,-0.387656054,1,0,0,0.9845,Pumice_rect,14,0,14,0,1,
5d63179aa3b94d0001da4bb6,TCN,2024-06-11_12h24.10.246,LearnStrategy,2023.2.3,Win32,59.88023952,6,2,16,,,,,,,,7,15,,,,,,,,,,,7,3.966,1,,,,,,0.079750357,-0.380258949,1,0,0,3.9663,Peridotite_rect,15,0,15,0,1,
5d63179aa3b94d0001da4bb6,TCN,2024-06-11_12h24.10.246,LearnStrategy,2023.2.3,Win32,59.88023952,7,1,1,0.14539989,0.007165964,1,0,0,0.8288,rock_grid_rect_2,2,06,-1,-1,0.829,-0.131992599,-0.251733724,1,0,0,1.0491,Basalt_rect,2,1.049,1,0,0,0,0,1,,,,,,,,,,,,,
5d63179aa3b94d0001da4bb6,TCN,2024-06-11_12h24.10.246,LearnStrategy,2023.2.3,Win32,59.88023952,7,1,2,0.118585309,0.006241326,1,0,0,0.7648,rock_grid_rect_2,3,10,-1,-1,0.765,0.408922807,-0.250809086,1,0,0,1.1071,Gabbro_rect,4,1.107,0,1,0,1,0,1,,,,,,,,,,,,,
5d63179aa3b94d0001da4bb6,TCN,2024-06-11_12h24.10.246,LearnStrategy,2023.2.3,Win32,59.88023952,7,1,3,0.121359223,-0.010402235,1,0,0,0.8149,rock_grid_rect_2,6,13,-1,-1,0.815,-0.094082286,-0.410772083,1,0,0,4.8686,Pegmatite_rect,6,4.869,1,2,0,2,0,1,,,,,,,,,,,,,
5d63179aa3b94d0001da4bb6,TCN,2024-06-11_12h24.10.246,LearnStrategy,2023.2.3,Win32,59.88023952,7,1,4,0.126907126,-0.004854369,1,0,0,0.7153,rock_grid_rect_2,1,04,-1,-1,0.715,-0.333564499,-0.247110533,1,0,0,4.1429,Andesite_rect,1,4.143,1,3,0,3,0,1,,,,,,,,,,,,,
5d63179aa3b94d0001da4bb6,TCN,2024-06-11_12h24.10.246,LearnStrategy,2023.2.3,Win32,59.88023952,7,1,5,0.114886756,0.005316688,1,0,0,0.6446,rock_grid_rect_2,4,01,-1,-1,0.645,-0.142163619,-0.256356915,1,0,0,4.8019,Basalt_rect,2,4.802,0,4,0,4,0,1,,,,,,,,,,,,,
5d63179aa3b94d0001da4bb6,TCN,2024-06-11_12h24.10.246,LearnStrategy,2023.2.3,Win32,59.88023952,7,1,6,0.094544642,-0.015025426,1,0,0,0.6951,rock_grid_rect_2,8,08,-1,-1,0.695,0.385806778,-0.382108225,1,0,0,1.11,Pumice_rect,8,1.11,1,5,0,5,0,1,,,,,,,,,,,,,
5d63179aa3b94d0001da4bb6,TCN,2024-06-11_12h24.10.246,LearnStrategy,2023.2.3,Win32,59.88023952,7,1,7,0.154646346,-0.009477597,1,0,0,0.7311,rock_grid_rect_2,5,06,-1,-1,0.731,-0.343735556,-0.39505316,1,0,0,0.9829,Obsidian_rect,5,0.983,1,6,0,6,0,1,,,,,,,,,,,,,
5d63179aa3b94d0001da4bb6,TCN,2024-06-11_12h24.10.246,LearnStrategy,2023.2.3,Win32,59.88023952,7,1,8,0.098243195,-0.002080454,1,0,0,0.5474,rock_grid_rect_2,7,08,-1,-1,0.547,0.089921451,-0.390429969,1,0,0,2.8406,Peridotite_rect,7,2.841,1,7,0,7,0,1,,,,,,,,,,,,,
5d63179aa3b94d0001da4bb6,TCN,2024-06-11_12h24.10.246,LearnStrategy,2023.2.3,Win32,59.88023952,7,1,9,0.098243195,-0.006703645,1,0,0,1.2276,rock_grid_rect_2,6,16,-1,-1,1.228,-0.070041619,-0.395977798,1,0,0,2.7712,Pegmatite_rect,6,2.771,1,8,0,8,0,1,,,,,,,,,,,,,
5d63179aa3b94d0001da4bb6,TCN,2024-06-11_12h24.10.246,LearnStrategy,2023.2.3,Win32,59.88023952,7,1,10,0.148173878,0.001618098,1,0,0,0.6086,rock_grid_rect_2,3,12,-1,-1,0.609,0.144475252,-0.238788716,1,0,0,2.8047,Diorite_rect,3,2.805,1,9,0,9,0,1,,,,,,,,,,,,,
5d63179aa3b94d0001da4bb6,TCN,2024-06-11_12h24.10.246,LearnStrategy,2023.2.3,Win32,59.88023952,7,1,11,0.07327789,-0.02149793,1,0,0,1.2314,rock_grid_rect_2,1,10,-1,-1,1.231,-0.086685181,-0.2711512,1,0,0,0.9582,Basalt_rect,2,0.958,0,10,0,10,0,1,,,,,,,,,,,,,
5d63179aa3b94d0001da4bb6,TCN,2024-06-11_12h24.10.246,LearnStrategy,2023.2.3,Win32,59.88023952,7,1,12,0.110263565,-0.017799377,1,0,0,0.612,rock_grid_rect_2,4,03,-1,-1,0.612,0.406148818,-0.265603371,1,0,0,1.924,Gabbro_rect,4,1.924,1,11,0,11,0,1,,,,,,,,,,,,,
5d63179aa3b94d0001da4bb6,TCN,2024-06-11_12h24.10.246,LearnStrategy,2023.2.3,Win32,59.88023952,7,1,13,0.087147463,-0.020573292,1,0,0,1.2068,rock_grid_rect_2,2,10,-1,-1,1.207,-0.065418355,-0.24156263,1,0,0,1.5572,Basalt_rect,2,1.557,1,12,0,12,0,1,,,,,,,,,,,,,
5d63179aa3b94d0001da4bb6,TCN,2024-06-11_12h24.10.246,LearnStrategy,2023.2.3,Win32,59.88023952,7,1,14,0.1232085,0.013638469,1,0,0,0.6051,rock_grid_rect_2,7,10,-1,-1,0.605,0.385806778,-0.234165525,1,0,0,1.6501,Gabbro_rect,4,1.65,0,13,0,13,0,1,,,,,,,,,,,,,
5d63179aa3b94d0001da4bb6,TCN,2024-06-11_12h24.10.246,LearnStrategy,2023.2.3,Win32,59.88023952,7,1,15,0.151872431,-0.018724016,1,0,0,0.6129,rock_grid_rect_2,8,13,-1,-1,0.613,0.37471112,-0.387656054,1,0,0,1.0912,Pumice_rect,8,1.091,1,14,0,14,0,1,,,,,,,,,,,,,
5d63179aa3b94d0001da4bb6,TCN,2024-06-11_12h24.10.246,LearnStrategy,2023.2.3,Win32,59.88023952,7,1,16,0.146324602,-0.001155816,1,0,0,0.5809,rock_grid_rect_2,5,10,-1,-1,0.581,-0.344660194,-0.381183587,1,0,0,0.9263,Obsidian_rect,5,0.926,1,15,0,15,0,1,,,,,,,,,,,,,
5d63179aa3b94d0001da4bb6,TCN,2024-06-11_12h24.10.246,LearnStrategy,2023.2.3,Win32,59.88023952,7,2,1,,,,,,,,2,08,,,,,,,,,,,2,0.967,1,,,,,,-0.045076241,-0.23139161,1,0,0,0.9668,Basalt_rect,0,0,0,0,1,
5d63179aa3b94d0001da4bb6,TCN,2024-06-11_12h24.10.246,LearnStrategy,2023.2.3,Win32,59.88023952,7,2,2,,,,,,,,7,12,,,,,,,,,,,4,1.653,0,,,,,,0.401525701,-0.244336619,1,0,0,1.6527,Gabbro_rect,1,0,1,0,1,
5d63179aa3b94d0001da4bb6,TCN,2024-06-11_12h24.10.246,LearnStrategy,2023.2.3,Win32,59.88023952,7,2,3,,,,,,,,3,14,,,,,,,,,,,6,4.268,0,,,,,,-0.096856201,-0.401525701,1,0,0,4.2684,Pegmatite_rect,2,0,2,0,1,
5d63179aa3b94d0001da4bb6,TCN,2024-06-11_12h24.10.246,LearnStrategy,2023.2.3,Win32,59.88023952,7,2,4,,,,,,,,1,03,,,,,,,,,,,2,0.997,0,,,,,,-0.121821505,-0.244336619,1,0,0,0.9968,Basalt_rect,3,0,3,0,1,
5d63179aa3b94d0001da4bb6,TCN,2024-06-11_12h24.10.246,LearnStrategy,2023.2.3,Win32,59.88023952,7,2,5,,,,,,,,6,05,,,,,,,,,,,6,1.591,1,,,,,,-0.065418355,-0.400601063,1,0,0,1.5907,Pegmatite_rect,4,0,4,0,1,
5d63179aa3b94d0001da4bb6,TCN,2024-06-11_12h24.10.246,LearnStrategy,2023.2.3,Win32,59.88023952,7,2,6,,,,,,,,3,07,,,,,,,,,,,6,2.317,0,,,,,,-0.09223301,-0.399676425,1,0,0,2.3171,Pegmatite_rect,5,0,5,0,1,
5d63179aa3b94d0001da4bb6,TCN,2024-06-11_12h24.10.246,LearnStrategy,2023.2.3,Win32,59.88023952,7,2,7,,,,,,,,1,09,,,,,,,,,,,1,5.886,1,,,,,,-0.365002308,-0.238788716,1,0,0,5.8856,Andesite_rect,6,0,6,0,1,
5d63179aa3b94d0001da4bb6,TCN,2024-06-11_12h24.10.246,LearnStrategy,2023.2.3,Win32,59.88023952,7,2,8,,,,,,,,4,12,,,,,,,,,,,1,1.407,0,,,,,,-0.318770214,-0.254507639,1,0,0,1.4073,Andesite_rect,7,0,7,0,1,
5d63179aa3b94d0001da4bb6,TCN,2024-06-11_12h24.10.246,LearnStrategy,2023.2.3,Win32,59.88023952,7,2,9,,,,,,,,8,14,,,,,,,,,,,8,0.908,1,,,,,,0.383957502,-0.399676425,1,0,0,0.9077,Pumice_rect,8,0,8,0,1,
5d63179aa3b94d0001da4bb6,TCN,2024-06-11_12h24.10.246,LearnStrategy,2023.2.3,Win32,59.88023952,7,2,10,,,,,,,,8,15,,,,,,,,,,,8,0.824,1,,,,,,0.37471112,-0.402450339,1,0,0,0.8236,Pumice_rect,9,0,9,0,1,
5d63179aa3b94d0001da4bb6,TCN,2024-06-11_12h24.10.246,LearnStrategy,2023.2.3,Win32,59.88023952,7,2,11,,,,,,,,7,13,,,,,,,,,,,4,1.391,0,,,,,,0.36269075,-0.253583001,1,0,0,1.3906,Gabbro_rect,10,0,10,0,1,
5d63179aa3b94d0001da4bb6,TCN,2024-06-11_12h24.10.246,LearnStrategy,2023.2.3,Win32,59.88023952,7,2,12,,,,,,,,5,05,,,,,,,,,,,5,0.988,1,,,,,,-0.358529804,-0.383957576,1,0,0,0.9879,Obsidian_rect,11,0,11,0,1,
5d63179aa3b94d0001da4bb6,TCN,2024-06-11_12h24.10.246,LearnStrategy,2023.2.3,Win32,59.88023952,7,2,13,,,,,,,,6,11,,,,,,,,,,,3,1.473,0,,,,,,0.143550614,-0.251733724,1,0,0,1.4733,Diorite_rect,12,0,12,0,1,
5d63179aa3b94d0001da4bb6,TCN,2024-06-11_12h24.10.246,LearnStrategy,2023.2.3,Win32,59.88023952,7,2,14,,,,,,,,5,16,,,,,,,,,,,5,0.95,1,,,,,,-0.370550137,-0.412621359,1,0,0,0.9501,Obsidian_rect,13,0,13,0,1,
5d63179aa3b94d0001da4bb6,TCN,2024-06-11_12h24.10.246,LearnStrategy,2023.2.3,Win32,59.88023952,7,2,15,,,,,,,,4,10,,,,,,,,,,,2,0.901,0,,,,,,-0.076514087,-0.254507639,1,0,0,0.901,Basalt_rect,14,0,14,0,1,
5d63179aa3b94d0001da4bb6,TCN,2024-06-11_12h24.10.246,LearnStrategy,2023.2.3,Win32,59.88023952,7,2,16,,,,,,,,2,04,,,,,,,,,,,2,1.689,1,,,,,,-0.086685181,-0.266528009,1,0,0,1.6891,Basalt_rect,15,0,15,0,1,
5d63179aa3b94d0001da4bb6,TCN,2024-06-11_12h24.10.246,LearnStrategy,2023.2.3,Win32,59.88023952,8,1,1,0.151872431,-0.003929731,1,0,0,0.8811,rock_grid_rect_2,8,10,-1,-1,0.881,0.426491006,-0.379334311,1,0,0,1.1586,Pumice_rect,8,1.159,1,0,0,0,0,1,,,,,,,,,,,,,
5d63179aa3b94d0001da4bb6,TCN,2024-06-11_12h24.10.246,LearnStrategy,2023.2.3,Win32,59.88023952,8,1,2,0.106564938,-0.008552959,1,0,0,1.1477,rock_grid_rect_2,3,08,-1,-1,1.148,0.36269075,-0.233240887,1,0,0,1.2967,Gabbro_rect,4,1.297,0,1,0,1,0,1,,,,,,,,,,,,,
5d63179aa3b94d0001da4bb6,TCN,2024-06-11_12h24.10.246,LearnStrategy,2023.2.3,Win32,59.88023952,8,1,3,0.113962118,-0.004854369,1,0,0,1.1294,rock_grid_rect_2,2,12,-1,-1,1.129,-0.365926946,-0.257281553,1,0,0,2.3736,Andesite_rect,1,2.374,0,2,0,2,0,1,,,,,,,,,,,,,
5d63179aa3b94d0001da4bb6,TCN,2024-06-11_12h24.10.246,LearnStrategy,2023.2.3,Win32,59.88023952,8,1,4,0.103791024,0.015487745,1,0,0,0.681,rock_grid_rect_2,4,05,-1,-1,0.681,0.151872431,-0.261904744,1,0,0,1.325,Diorite_rect,3,1.325,0,3,0,3,0,1,,,,,,,,,,,,,
5d63179aa3b94d0001da4bb6,TCN,2024-06-11_12h24.10.246,LearnStrategy,2023.2.3,Win32,59.88023952,8,1,5,0.117660671,-0.02149793,1,0,0,0.544,rock_grid_rect_2,5,04,-1,-1,0.544,-0.343735556,-0.399676425,1,0,0,0.9796,Obsidian_rect,5,0.98,1,4,0,4,0,1,,,,,,,,,,,,,
5d63179aa3b94d0001da4bb6,TCN,2024-06-11_12h24.10.246,LearnStrategy,2023.2.3,Win32,59.88023952,8,1,6,0.103791024,0.00069346,1,0,0,0.5991,rock_grid_rect_2,3,02,-1,-1,0.599,0.128756403,-0.257281553,1,0,0,5.6601,Diorite_rect,3,5.66,1,5,0,5,0,1,,,,,,,,,,,,,
5d63179aa3b94d0001da4bb6,TCN,2024-06-11_12h24.10.246,LearnStrategy,2023.2.3,Win32,59.88023952,8,1,7,0.132454955,-0.017799377,1,0,0,0.7461,rock_grid_rect_2,6,15,-1,-1,0.746,-0.065418355,-0.402450339,1,0,0,4.2062,Pegmatite_rect,6,4.206,1,6,0,6,0,1,,,,,,,,,,,,,
5d63179aa3b94d0001da4bb6,TCN,2024-06-11_12h24.10.246,LearnStrategy,2023.2.3,Win32,59.88023952,8,1,8,0.134304232,0.010864517,1,0,0,0.6642,rock_grid_rect_2,6,10,-1,-1,0.664,0.419093901,-0.255432277,1,0,0,1.7697,Gabbro_rect,4,1.77,0,7,0,7,0,1,,,,,,,,,,,,,
5d63179aa3b94d0001da4bb6,TCN,2024-06-11_12h24.10.246,LearnStrategy,2023.2.3,Win32,59.88023952,8,1,9,0.104715662,-0.023347206,1,0,0,0.6484,rock_grid_rect_2,1,11,-1,-1,0.648,-0.322468767,-0.260055468,1,0,0,2.4951,Andesite_rect,1,2.495,1,8,0,8,0,1,,,,,,,,,,,,,
5d63179aa3b94d0001da4bb6,TCN,2024-06-11_12h24.10.246,LearnStrategy,2023.2.3,Win32,59.88023952,8,1,10,0.104715662,-0.014100788,1,0,0,0.5789,rock_grid_rect_2,1,02,-1,-1,0.579,0.389505331,-0.256356915,1,0,0,5.7372,Gabbro_rect,4,5.737,0,9,0,9,0,1,,,,,,,,,,,,,
5d63179aa3b94d0001da4bb6,TCN,2024-06-11_12h24.10.246,LearnStrategy,2023.2.3,Win32,59.88023952,8,1,11,0.118585309,-0.015025426,1,0,0,0.6461,rock_grid_rect_2,5,07,-1,-1,0.646,-0.365002308,-0.390429969,1,0,0,0.9096,Obsidian_rect,5,0.91,1,10,0,10,0,1,,,,,,,,,,,,,
5d63179aa3b94d0001da4bb6,TCN,2024-06-11_12h24.10.246,LearnStrategy,2023.2.3,Win32,59.88023952,8,1,12,0.102866386,-0.005779007,1,0,0,0.6109,rock_grid_rect_2,2,09,-1,-1,0.611,-0.06264444,-0.256356915,1,0,0,0.8844,Basalt_rect,2,0.884,1,11,0,11,0,1,,,,,,,,,,,,,
5d63179aa3b94d0001da4bb6,TCN,2024-06-11_12h24.10.246,LearnStrategy,2023.2.3,Win32,59.88023952,8,1,13,0.096393919,-0.015025426,1,0,0,0.5135,rock_grid_rect_2,4,13,-1,-1,0.514,0.397827148,-0.247110533,1,0,0,10.0358,Gabbro_rect,4,10.036,1,12,0,12,0,1,,,,,,,,,,,,,
5d63179aa3b94d0001da4bb6,TCN,2024-06-11_12h24.10.246,LearnStrategy,2023.2.3,Win32,59.88023952,8,1,14,0.162968089,-0.00762832,1,0,0,0.6615,rock_grid_rect_2,7,07,-1,-1,0.661,0.132454955,-0.414470636,1,0,0,5.4875,Peridotite_rect,7,5.487,1,13,0,13,0,1,,,,,,,,,,,,,
5d63179aa3b94d0001da4bb6,TCN,2024-06-11_12h24.10.246,LearnStrategy,2023.2.3,Win32,59.88023952,8,1,15,0.111188203,0.002542773,1,0,0,0.627,rock_grid_rect_2,8,06,-1,-1,0.627,0.371937131,-0.388580693,1,0,0,0.9587,Pumice_rect,8,0.959,1,14,0,14,0,1,,,,,,,,,,,,,
5d63179aa3b94d0001da4bb6,TCN,2024-06-11_12h24.10.246,LearnStrategy,2023.2.3,Win32,59.88023952,8,1,16,0.113962118,-0.015025426,1,0,0,0.6313,rock_grid_rect_2,7,02,-1,-1,0.631,0.359916761,-0.248035172,1,0,0,1.5093,Gabbro_rect,4,1.509,0,15,0,15,0,1,,,,,,,,,,,,,
5d63179aa3b94d0001da4bb6,TCN,2024-06-11_12h24.10.246,LearnStrategy,2023.2.3,Win32,59.88023952,8,2,1,,,,,,,,3,09,,,,,,,,,,,3,3.006,1,,,,,,0.163892727,-0.261904744,1,0,0,3.0056,Diorite_rect,0,0,0,0,1,
5d63179aa3b94d0001da4bb6,TCN,2024-06-11_12h24.10.246,LearnStrategy,2023.2.3,Win32,59.88023952,8,2,2,,,,,,,,4,16,,,,,,,,,,,2,1.004,0,,,,,,-0.083911192,-0.258206192,1,0,0,1.0039,Basalt_rect,1,0,1,0,1,
5d63179aa3b94d0001da4bb6,TCN,2024-06-11_12h24.10.246,LearnStrategy,2023.2.3,Win32,59.88023952,8,2,3,,,,,,,,8,05,,,,,,,,,,,8,0.887,1,,,,,,0.391354607,-0.407998168,1,0,0,0.8873,Pumice_rect,2,0,2,0,1,
5d63179aa3b94d0001da4bb6,TCN,2024-06-11_12h24.10.246,LearnStrategy,2023.2.3,Win32,59.88023952,8,2,4,,,,,,,,8,16,,,,,,,,,,,8,1.441,1,,,,,,0.334026818,-0.383032864,1,0,0,1.4408,Pumice_rect,3,0,3,0,1,
5d63179aa3b94d0001da4bb6,TCN,2024-06-11_12h24.10.246,LearnStrategy,2023.2.3,Win32,59.88023952,8,2,5,,,,,,,,2,11,,,,,,,,,,,1,1.204,0,,,,,,-0.345584832,-0.247110533,1,0,0,1.2038,Andesite_rect,4,0,4,0,1,
5d63179aa3b94d0001da4bb6,TCN,2024-06-11_12h24.10.246,LearnStrategy,2023.2.3,Win32,59.88023952,8,2,6,,,,,,,,5,09,,,,,,,,,,,5,0.915,1,,,,,,-0.377022641,-0.383957576,1,0,0,0.9149,Obsidian_rect,5,0,5,0,1,
5d63179aa3b94d0001da4bb6,TCN,2024-06-11_12h24.10.246,LearnStrategy,2023.2.3,Win32,59.88023952,8,2,7,,,,,,,,3,13,,,,,,,,,,,6,3.846,0,,,,,,-0.095931562,-0.407998168,1,0,0,3.8458,Pegmatite_rect,6,0,6,0,1,
5d63179aa3b94d0001da4bb6,TCN,2024-06-11_12h24.10.246,LearnStrategy,2023.2.3,Win32,59.88023952,8,2,8,,,,,,,,4,08,,,,,,,,,,,4,1.253,1,,,,,,0.363615314,-0.261904744,1,0,0,1.2532,Gabbro_rect,7,0,7,0,1,
5d63179aa3b94d0001da4bb6,TCN,2024-06-11_12h24.10.246,LearnStrategy,2023.2.3,Win32,59.88023952,8,2,9,,,,,,,,2,05,,,,,,,,,,,2,0.942,1,,,,,,-0.036754497,-0.257281553,1,0,0,0.9416,Basalt_rect,8,0,8,0,1,
5d63179aa3b94d0001da4bb6,TCN,2024-06-11_12h24.10.246,LearnStrategy,2023.2.3,Win32,59.88023952,8,2,10,,,,,,,,7,14,,,,,,,,,,,6,1.47,0,,,,,,-0.077438725,-0.388580693,1,0,0,1.4698,Pegmatite_rect,9,0,9,0,1,
5d63179aa3b94d0001da4bb6,TCN,2024-06-11_12h24.10.246,LearnStrategy,2023.2.3,Win32,59.88023952,8,2,11,,,,,,,,1,14,,,,,,,,,,,3,1.741,0,,,,,,0.129681041,-0.249884448,1,0,0,1.7412,Diorite_rect,10,0,10,0,1,
5d63179aa3b94d0001da4bb6,TCN,2024-06-11_12h24.10.246,LearnStrategy,2023.2.3,Win32,59.88023952,8,2,12,,,,,,,,5,12,,,,,,,,,,,5,0.945,1,,,,,,-0.365002308,-0.407998168,1,0,0,0.9453,Obsidian_rect,11,0,11,0,1,
5d63179aa3b94d0001da4bb6,TCN,2024-06-11_12h24.10.246,LearnStrategy,2023.2.3,Win32,59.88023952,8,2,13,,,,,,,,6,07,,,,,,,,,,,3,1.224,0,,,,,,0.126907126,-0.233240887,1,0,0,1.2238,Diorite_rect,12,0,12,0,1,
5d63179aa3b94d0001da4bb6,TCN,2024-06-11_12h24.10.246,LearnStrategy,2023.2.3,Win32,59.88023952,8,2,14,,,,,,,,7,16,,,,,,,,,,,3,1.291,0,,,,,,0.111188203,-0.253583001,1,0,0,1.2908,Diorite_rect,13,0,13,0,1,
5d63179aa3b94d0001da4bb6,TCN,2024-06-11_12h24.10.246,LearnStrategy,2023.2.3,Win32,59.88023952,8,2,15,,,,,,,,6,08,,,,,,,,,,,6,0.883,1,,,,,,-0.086685181,-0.380258949,1,0,0,0.8831,Pegmatite_rect,14,0,14,0,1,
5d63179aa3b94d0001da4bb6,TCN,2024-06-11_12h24.10.246,LearnStrategy,2023.2.3,Win32,59.88023952,8,2,16,,,,,,,,1,06,,,,,,,,,,,1,2.702,1,,,,,,-0.332639824,-0.265603371,1,0,0,2.7018,Andesite_rect,15,0,15,0,1,
5d63179aa3b94d0001da4bb6,TCN,2024-06-11_12h24.10.246,LearnStrategy,2023.2.3,Win32,59.88023952,9,1,1,0.118585309,-0.006703645,1,0,0,1.082,rock_grid_rect_2,5,02,-1,-1,1.082,-0.361303718,-0.382108225,1,0,0,1.0187,Obsidian_rect,5,1.019,1,0,0,0,0,1,,,,,,,,,,,,,
5d63179aa3b94d0001da4bb6,TCN,2024-06-11_12h24.10.246,LearnStrategy,2023.2.3,Win32,59.88023952,9,1,2,0.114886756,-0.006703645,1,0,0,0.6637,rock_grid_rect_2,8,03,-1,-1,0.664,0.412621359,-0.383957576,1,0,0,1.0838,Pumice_rect,8,1.084,1,1,0,1,0,1,,,,,,,,,,,,,
5d63179aa3b94d0001da4bb6,TCN,2024-06-11_12h24.10.246,LearnStrategy,2023.2.3,Win32,59.88023952,9,1,3,0.09546928,-0.006703645,1,0,0,0.6847,rock_grid_rect_2,1,01,-1,-1,0.685,-0.048774867,-0.264678733,1,0,0,7.5499,Basalt_rect,2,7.55,0,2,0,2,0,1,,,,,,,,,,,,,
5d63179aa3b94d0001da4bb6,TCN,2024-06-11_12h24.10.246,LearnStrategy,2023.2.3,Win32,59.88023952,9,1,4,0.103791024,-0.018724016,1,0,0,0.6295,rock_grid_rect_2,2,16,-1,-1,0.63,-0.123670782,-0.269301924,1,0,0,2.9545,Basalt_rect,2,2.955,1,3,0,3,0,1,,,,,,,,,,,,,
5d63179aa3b94d0001da4bb6,TCN,2024-06-11_12h24.10.246,LearnStrategy,2023.2.3,Win32,59.88023952,9,1,5,0.047387873,-0.015025426,1,0,0,0.6299,rock_grid_rect_2,2,01,-1,-1,0.63,-0.330790547,-0.254507639,1,0,0,2.1709,Andesite_rect,1,2.171,0,4,0,4,0,1,,,,,,,,,,,,,
5d63179aa3b94d0001da4bb6,TCN,2024-06-11_12h24.10.246,LearnStrategy,2023.2.3,Win32,59.88023952,9,1,6,0.054785127,0.008090603,1,0,0,0.5791,rock_grid_rect_2,4,15,-1,-1,0.579,0.371937131,-0.264678733,1,0,0,1.5385,Gabbro_rect,4,1.539,1,5,0,5,0,1,,,,,,,,,,,,,
5d63179aa3b94d0001da4bb6,TCN,2024-06-11_12h24.10.246,LearnStrategy,2023.2.3,Win32,59.88023952,9,1,7,0.117660671,-0.019648654,1,0,0,0.5481,rock_grid_rect_2,5,11,-1,-1,0.548,-0.345584832,-0.397827074,1,0,0,0.9261,Obsidian_rect,5,0.926,1,6,0,6,0,1,,,,,,,,,,,,,
5d63179aa3b94d0001da4bb6,TCN,2024-06-11_12h24.10.246,LearnStrategy,2023.2.3,Win32,59.88023952,9,1,8,0.106564938,-0.004854369,1,0,0,0.6384,rock_grid_rect_2,6,12,-1,-1,0.638,0.103791024,-0.384882214,1,0,0,1.2489,Peridotite_rect,7,1.249,0,7,0,7,0,1,,,,,,,,,,,,,
5d63179aa3b94d0001da4bb6,TCN,2024-06-11_12h24.10.246,LearnStrategy,2023.2.3,Win32,59.88023952,9,1,9,0.117660671,-0.017799377,1,0,0,0.614,rock_grid_rect_2,7,05,-1,-1,0.614,0.075127166,-0.388580693,1,0,0,1.424,Peridotite_rect,7,1.424,1,8,0,8,0,1,,,,,,,,,,,,,
5d63179aa3b94d0001da4bb6,TCN,2024-06-11_12h24.10.246,LearnStrategy,2023.2.3,Win32,59.88023952,9,1,10,0.075127166,-0.011326873,1,0,0,1.08,rock_grid_rect_2,8,04,-1,-1,1.08,0.353444294,-0.390429969,1,0,0,1.0245,Pumice_rect,8,1.024,1,9,0,9,0,1,,,,,,,,,,,,,
5d63179aa3b94d0001da4bb6,TCN,2024-06-11_12h24.10.246,LearnStrategy,2023.2.3,Win32,59.88023952,9,1,11,0.133379594,0.003467412,1,0,0,0.581,rock_grid_rect_2,4,11,-1,-1,0.581,0.335876094,-0.242487269,1,0,0,1.7079,Gabbro_rect,4,1.708,1,10,0,10,0,1,,,,,,,,,,,,,
5d63179aa3b94d0001da4bb6,TCN,2024-06-11_12h24.10.246,LearnStrategy,2023.2.3,Win32,59.88023952,9,1,12,0.130605679,-0.00762832,1,0,0,0.6312,rock_grid_rect_2,3,16,-1,-1,0.631,-0.044151602,-0.383032864,1,0,0,1.3588,Pegmatite_rect,6,1.359,0,11,0,11,0,1,,,,,,,,,,,,,
5d63179aa3b94d0001da4bb6,TCN,2024-06-11_12h24.10.246,LearnStrategy,2023.2.3,Win32,59.88023952,9,1,13,0.141701337,-0.017799377,1,0,0,0.5478,rock_grid_rect_2,1,05,-1,-1,0.548,0.102866386,-0.245261257,1,0,0,2.2713,Diorite_rect,3,2.271,0,12,0,12,0,1,,,,,,,,,,,,,
5d63179aa3b94d0001da4bb6,TCN,2024-06-11_12h24.10.246,LearnStrategy,2023.2.3,Win32,59.88023952,9,1,14,0.115811394,-0.017799377,1,0,0,0.5648,rock_grid_rect_2,7,06,-1,-1,0.565,0.111188203,-0.383032864,1,0,0,1.8963,Peridotite_rect,7,1.896,1,13,0,13,0,1,,,,,,,,,,,,,
5d63179aa3b94d0001da4bb6,TCN,2024-06-11_12h24.10.246,LearnStrategy,2023.2.3,Win32,59.88023952,9,1,15,0.119509947,-0.015950064,1,0,0,0.6131,rock_grid_rect_2,3,06,-1,-1,0.613,-0.357605166,-0.269301924,1,0,0,6.0968,Andesite_rect,1,6.097,0,14,0,14,0,1,,,,,,,,,,,,,
5d63179aa3b94d0001da4bb6,TCN,2024-06-11_12h24.10.246,LearnStrategy,2023.2.3,Win32,59.88023952,9,1,16,0.1056403,0.006241326,1,0,0,0.6293,rock_grid_rect_2,6,06,-1,-1,0.629,-0.080212639,-0.396902436,1,0,0,1.3583,Pegmatite_rect,6,1.358,1,15,0,15,0,1,,,,,,,,,,,,,
5d63179aa3b94d0001da4bb6,TCN,2024-06-11_12h24.10.246,LearnStrategy,2023.2.3,Win32,59.88023952,9,2,1,,,,,,,,8,02,,,,,,,,,,,8,0.975,1,,,,,,0.371937131,-0.389505331,1,0,0,0.9749,Pumice_rect,0,0,0,0,1,
5d63179aa3b94d0001da4bb6,TCN,2024-06-11_12h24.10.246,LearnStrategy,2023.2.3,Win32,59.88023952,9,2,2,,,,,,,,6,09,,,,,,,,,,,6,1.367,1,,,,,,-0.080212639,-0.389505331,1,0,0,1.3674,Pegmatite_rect,1,0,1,0,1,
5d63179aa3b94d0001da4bb6,TCN,2024-06-11_12h24.10.246,LearnStrategy,2023.2.3,Win32,59.88023952,9,2,3,,,,,,,,2,02,,,,,,,,,,,2,0.825,1,,,,,,-0.047850229,-0.239713354,1,0,0,0.8247,Basalt_rect,2,0,2,0,1,
5d63179aa3b94d0001da4bb6,TCN,2024-06-11_12h24.10.246,LearnStrategy,2023.2.3,Win32,59.88023952,9,2,4,,,,,,,,3,15,,,,,,,,,,,4,1.54,0,,,,,,0.373786408,-0.253583001,1,0,0,1.5398,Gabbro_rect,3,0,3,0,1,
5d63179aa3b94d0001da4bb6,TCN,2024-06-11_12h24.10.246,LearnStrategy,2023.2.3,Win32,59.88023952,9,2,5,,,,,,,,6,03,,,,,,,,,,,6,3.689,1,,,,,,-0.07466481,-0.416319912,1,0,0,3.6894,Pegmatite_rect,4,0,4,0,1,
5d63179aa3b94d0001da4bb6,TCN,2024-06-11_12h24.10.246,LearnStrategy,2023.2.3,Win32,59.88023952,9,2,6,,,,,,,,5,14,,,,,,,,,,,5,0.987,1,,,,,,-0.361303718,-0.411696721,1,0,0,0.9874,Obsidian_rect,5,0,5,0,1,
5d63179aa3b94d0001da4bb6,TCN,2024-06-11_12h24.10.246,LearnStrategy,2023.2.3,Win32,59.88023952,9,2,7,,,,,,,,4,14,,,,,,,,,,,2,0.875,0,,,,,,-0.051548782,-0.249884448,1,0,0,0.8748,Basalt_rect,6,0,6,0,1,
5d63179aa3b94d0001da4bb6,TCN,2024-06-11_12h24.10.246,LearnStrategy,2023.2.3,Win32,59.88023952,9,2,8,,,,,,,,7,15,,,,,,,,,,,4,1.223,0,,,,,,0.397827148,-0.270226562,1,0,0,1.223,Gabbro_rect,7,0,7,0,1,
5d63179aa3b94d0001da4bb6,TCN,2024-06-11_12h24.10.246,LearnStrategy,2023.2.3,Win32,59.88023952,9,2,9,,,,,,,,1,16,,,,,,,,,,,7,1.407,0,,,,,,0.086222825,-0.39505316,1,0,0,1.4073,Peridotite_rect,8,0,8,0,1,
5d63179aa3b94d0001da4bb6,TCN,2024-06-11_12h24.10.246,LearnStrategy,2023.2.3,Win32,59.88023952,9,2,10,,,,,,,,1,07,,,,,,,,,,,6,1.191,0,,,,,,-0.058021249,-0.387656054,1,0,0,1.191,Pegmatite_rect,9,0,9,0,1,
5d63179aa3b94d0001da4bb6,TCN,2024-06-11_12h24.10.246,LearnStrategy,2023.2.3,Win32,59.88023952,9,2,11,,,,,,,,3,11,,,,,,,,,,,7,1.008,0,,,,,,0.112112842,-0.379334311,1,0,0,1.0081,Peridotite_rect,10,0,10,0,1,
5d63179aa3b94d0001da4bb6,TCN,2024-06-11_12h24.10.246,LearnStrategy,2023.2.3,Win32,59.88023952,9,2,12,,,,,,,,8,09,,,,,,,,,,,8,0.891,1,,,,,,0.385806778,-0.403375052,1,0,0,0.8912,Pumice_rect,11,0,11,0,1,
5d63179aa3b94d0001da4bb6,TCN,2024-06-11_12h24.10.246,LearnStrategy,2023.2.3,Win32,59.88023952,9,2,13,,,,,,,,2,14,,,,,,,,,,,2,1.037,1,,,,,,-0.109801209,-0.240637992,1,0,0,1.0372,Basalt_rect,12,0,12,0,1,
5d63179aa3b94d0001da4bb6,TCN,2024-06-11_12h24.10.246,LearnStrategy,2023.2.3,Win32,59.88023952,9,2,14,,,,,,,,4,09,,,,,,,,,,,2,1.05,0,,,,,,-0.080212639,-0.253583001,1,0,0,1.0504,Basalt_rect,13,0,13,0,1,
5d63179aa3b94d0001da4bb6,TCN,2024-06-11_12h24.10.246,LearnStrategy,2023.2.3,Win32,59.88023952,9,2,15,,,,,,,,5,08,,,,,,,,,,,5,0.969,1,,,,,,-0.367776223,-0.384882214,1,0,0,0.9691,Obsidian_rect,14,0,14,0,1,
5d63179aa3b94d0001da4bb6,TCN,2024-06-11_12h24.10.246,LearnStrategy,2023.2.3,Win32,59.88023952,9,2,16,,,,,,,,7,04,,,,,,,,,,,4,1.249,0,,,,,,0.405224254,-0.254507639,1,0,0,1.2491,Gabbro_rect,15,0,15,0,1,
5d63179aa3b94d0001da4bb6,TCN,2024-06-11_12h24.10.246,LearnStrategy,2023.2.3,Win32,59.88023952,,,,,,,,,,,,,,,,,,,,,,,,,,,,,,,,,,,,,,,,,,,0
5d63179aa3b94d0001da4bb6,TCN,2024-06-11_12h24.10.246,LearnStrategy,2023.2.3,Win32,59.88023952,,,,,,,,,,,,,,,,,,,,,,,,,,,,,,,,,,,,,,,,,,,
5d63179aa3b94d0001da4bb6,TCN,2024-06-11_12h24.10.246,LearnStrategy,2023.2.3,Win32,59.88023952,,,,,,,,,,,8,13,1,1,,,,,,,,,,,,,,,,,,,,,,,,,,,,,
5d63179aa3b94d0001da4bb6,TCN,2024-06-11_12h24.10.246,LearnStrategy,2023.2.3,Win32,59.88023952,,,,,,,,,,,5,02,1,2,,,,,,,,,,,,,,,,,,,,,,,,,,,,,
5d63179aa3b94d0001da4bb6,TCN,2024-06-11_12h24.10.246,LearnStrategy,2023.2.3,Win32,59.88023952,,,,,,,,,,,3,10,1,3,,,,,,,,,,,,,,,,,,,,,,,,,,,,,
5d63179aa3b94d0001da4bb6,TCN,2024-06-11_12h24.10.246,LearnStrategy,2023.2.3,Win32,59.88023952,,,,,,,,,,,1,11,1,4,,,,,,,,,,,,,,,,,,,,,,,,,,,,,
5d63179aa3b94d0001da4bb6,TCN,2024-06-11_12h24.10.246,LearnStrategy,2023.2.3,Win32,59.88023952,,,,,,,,,,,3,16,1,5,,,,,,,,,,,,,,,,,,,,,,,,,,,,,
5d63179aa3b94d0001da4bb6,TCN,2024-06-11_12h24.10.246,LearnStrategy,2023.2.3,Win32,59.88023952,,,,,,,,,,,1,10,1,6,,,,,,,,,,,,,,,,,,,,,,,,,,,,,
5d63179aa3b94d0001da4bb6,TCN,2024-06-11_12h24.10.246,LearnStrategy,2023.2.3,Win32,59.88023952,,,,,,,,,,,7,08,1,7,,,,,,,,,,,,,,,,,,,,,,,,,,,,,
5d63179aa3b94d0001da4bb6,TCN,2024-06-11_12h24.10.246,LearnStrategy,2023.2.3,Win32,59.88023952,,,,,,,,,,,2,09,1,8,,,,,,,,,,,,,,,,,,,,,,,,,,,,,
5d63179aa3b94d0001da4bb6,TCN,2024-06-11_12h24.10.246,LearnStrategy,2023.2.3,Win32,59.88023952,,,,,,,,,,,3,08,2,1,,,,,,,,,,,,,,,,,,,,,,,,,,,,,
5d63179aa3b94d0001da4bb6,TCN,2024-06-11_12h24.10.246,LearnStrategy,2023.2.3,Win32,59.88023952,,,,,,,,,,,7,05,2,2,,,,,,,,,,,,,,,,,,,,,,,,,,,,,
5d63179aa3b94d0001da4bb6,TCN,2024-06-11_12h24.10.246,LearnStrategy,2023.2.3,Win32,59.88023952,,,,,,,,,,,5,07,2,3,,,,,,,,,,,,,,,,,,,,,,,,,,,,,
5d63179aa3b94d0001da4bb6,TCN,2024-06-11_12h24.10.246,LearnStrategy,2023.2.3,Win32,59.88023952,,,,,,,,,,,6,16,2,4,,,,,,,,,,,,,,,,,,,,,,,,,,,,,
5d63179aa3b94d0001da4bb6,TCN,2024-06-11_12h24.10.246,LearnStrategy,2023.2.3,Win32,59.88023952,,,,,,,,,,,2,12,2,5,,,,,,,,,,,,,,,,,,,,,,,,,,,,,
5d63179aa3b94d0001da4bb6,TCN,2024-06-11_12h24.10.246,LearnStrategy,2023.2.3,Win32,59.88023952,,,,,,,,,,,4,03,2,6,,,,,,,,,,,,,,,,,,,,,,,,,,,,,
5d63179aa3b94d0001da4bb6,TCN,2024-06-11_12h24.10.246,LearnStrategy,2023.2.3,Win32,59.88023952,,,,,,,,,,,6,10,2,7,,,,,,,,,,,,,,,,,,,,,,,,,,,,,
5d63179aa3b94d0001da4bb6,TCN,2024-06-11_12h24.10.246,LearnStrategy,2023.2.3,Win32,59.88023952,,,,,,,,,,,2,10,2,8,,,,,,,,,,,,,,,,,,,,,,,,,,,,,
5d63179aa3b94d0001da4bb6,TCN,2024-06-11_12h24.10.246,LearnStrategy,2023.2.3,Win32,59.88023952,,,,,,,,,,,2,06,3,1,,,,,,,,,,,,,,,,,,,,,,,,,,,,,
5d63179aa3b94d0001da4bb6,TCN,2024-06-11_12h24.10.246,LearnStrategy,2023.2.3,Win32,59.88023952,,,,,,,,,,,5,11,3,2,,,,,,,,,,,,,,,,,,,,,,,,,,,,,
5d63179aa3b94d0001da4bb6,TCN,2024-06-11_12h24.10.246,LearnStrategy,2023.2.3,Win32,59.88023952,,,,,,,,,,,8,03,3,3,,,,,,,,,,,,,,,,,,,,,,,,,,,,,
5d63179aa3b94d0001da4bb6,TCN,2024-06-11_12h24.10.246,LearnStrategy,2023.2.3,Win32,59.88023952,,,,,,,,,,,2,01,3,4,,,,,,,,,,,,,,,,,,,,,,,,,,,,,
5d63179aa3b94d0001da4bb6,TCN,2024-06-11_12h24.10.246,LearnStrategy,2023.2.3,Win32,59.88023952,,,,,,,,,,,7,02,3,5,,,,,,,,,,,,,,,,,,,,,,,,,,,,,
5d63179aa3b94d0001da4bb6,TCN,2024-06-11_12h24.10.246,LearnStrategy,2023.2.3,Win32,59.88023952,,,,,,,,,,,2,16,3,6,,,,,,,,,,,,,,,,,,,,,,,,,,,,,
5d63179aa3b94d0001da4bb6,TCN,2024-06-11_12h24.10.246,LearnStrategy,2023.2.3,Win32,59.88023952,,,,,,,,,,,8,06,3,7,,,,,,,,,,,,,,,,,,,,,,,,,,,,,
5d63179aa3b94d0001da4bb6,TCN,2024-06-11_12h24.10.246,LearnStrategy,2023.2.3,Win32,59.88023952,,,,,,,,,,,1,04,3,8,,,,,,,,,,,,,,,,,,,,,,,,,,,,,
5d63179aa3b94d0001da4bb6,TCN,2024-06-11_12h24.10.246,LearnStrategy,2023.2.3,Win32,59.88023952,,,,,,,,,,,4,01,4,1,,,,,,,,,,,,,,,,,,,,,,,,,,,,,
5d63179aa3b94d0001da4bb6,TCN,2024-06-11_12h24.10.246,LearnStrategy,2023.2.3,Win32,59.88023952,,,,,,,,,,,4,13,4,2,,,,,,,,,,,,,,,,,,,,,,,,,,,,,
5d63179aa3b94d0001da4bb6,TCN,2024-06-11_12h24.10.246,LearnStrategy,2023.2.3,Win32,59.88023952,,,,,,,,,,,7,07,4,3,,,,,,,,,,,,,,,,,,,,,,,,,,,,,
5d63179aa3b94d0001da4bb6,TCN,2024-06-11_12h24.10.246,LearnStrategy,2023.2.3,Win32,59.88023952,,,,,,,,,,,6,13,4,4,,,,,,,,,,,,,,,,,,,,,,,,,,,,,
5d63179aa3b94d0001da4bb6,TCN,2024-06-11_12h24.10.246,LearnStrategy,2023.2.3,Win32,59.88023952,,,,,,,,,,,6,15,4,5,,,,,,,,,,,,,,,,,,,,,,,,,,,,,
5d63179aa3b94d0001da4bb6,TCN,2024-06-11_12h24.10.246,LearnStrategy,2023.2.3,Win32,59.88023952,,,,,,,,,,,3,02,4,6,,,,,,,,,,,,,,,,,,,,,,,,,,,,,
5d63179aa3b94d0001da4bb6,TCN,2024-06-11_12h24.10.246,LearnStrategy,2023.2.3,Win32,59.88023952,,,,,,,,,,,6,06,4,7,,,,,,,,,,,,,,,,,,,,,,,,,,,,,
5d63179aa3b94d0001da4bb6,TCN,2024-06-11_12h24.10.246,LearnStrategy,2023.2.3,Win32,59.88023952,,,,,,,,,,,4,11,4,8,,,,,,,,,,,,,,,,,,,,,,,,,,,,,
5d63179aa3b94d0001da4bb6,TCN,2024-06-11_12h24.10.246,LearnStrategy,2023.2.3,Win32,59.88023952,,,,,,,,,,,8,08,5,1,,,,,,,,,,,,,,,,,,,,,,,,,,,,,
5d63179aa3b94d0001da4bb6,TCN,2024-06-11_12h24.10.246,LearnStrategy,2023.2.3,Win32,59.88023952,,,,,,,,,,,1,05,5,2,,,,,,,,,,,,,,,,,,,,,,,,,,,,,
5d63179aa3b94d0001da4bb6,TCN,2024-06-11_12h24.10.246,LearnStrategy,2023.2.3,Win32,59.88023952,,,,,,,,,,,4,05,5,3,,,,,,,,,,,,,,,,,,,,,,,,,,,,,
5d63179aa3b94d0001da4bb6,TCN,2024-06-11_12h24.10.246,LearnStrategy,2023.2.3,Win32,59.88023952,,,,,,,,,,,7,10,5,4,,,,,,,,,,,,,,,,,,,,,,,,,,,,,
5d63179aa3b94d0001da4bb6,TCN,2024-06-11_12h24.10.246,LearnStrategy,2023.2.3,Win32,59.88023952,,,,,,,,,,,5,06,5,5,,,,,,,,,,,,,,,,,,,,,,,,,,,,,
5d63179aa3b94d0001da4bb6,TCN,2024-06-11_12h24.10.246,LearnStrategy,2023.2.3,Win32,59.88023952,,,,,,,,,,,5,04,5,6,,,,,,,,,,,,,,,,,,,,,,,,,,,,,
5d63179aa3b94d0001da4bb6,TCN,2024-06-11_12h24.10.246,LearnStrategy,2023.2.3,Win32,59.88023952,,,,,,,,,,,4,15,5,7,,,,,,,,,,,,,,,,,,,,,,,,,,,,,
5d63179aa3b94d0001da4bb6,TCN,2024-06-11_12h24.10.246,LearnStrategy,2023.2.3,Win32,59.88023952,,,,,,,,,,,1,02,5,8,,,,,,,,,,,,,,,,,,,,,,,,,,,,,
5d63179aa3b94d0001da4bb6,TCN,2024-06-11_12h24.10.246,LearnStrategy,2023.2.3,Win32,59.88023952,,,,,,,,,,,6,12,6,1,,,,,,,,,,,,,,,,,,,,,,,,,,,,,
5d63179aa3b94d0001da4bb6,TCN,2024-06-11_12h24.10.246,LearnStrategy,2023.2.3,Win32,59.88023952,,,,,,,,,,,7,06,6,2,,,,,,,,,,,,,,,,,,,,,,,,,,,,,
5d63179aa3b94d0001da4bb6,TCN,2024-06-11_12h24.10.246,LearnStrategy,2023.2.3,Win32,59.88023952,,,,,,,,,,,8,10,6,3,,,,,,,,,,,,,,,,,,,,,,,,,,,,,
5d63179aa3b94d0001da4bb6,TCN,2024-06-11_12h24.10.246,LearnStrategy,2023.2.3,Win32,59.88023952,,,,,,,,,,,5,10,6,4,,,,,,,,,,,,,,,,,,,,,,,,,,,,,
5d63179aa3b94d0001da4bb6,TCN,2024-06-11_12h24.10.246,LearnStrategy,2023.2.3,Win32,59.88023952,,,,,,,,,,,1,01,6,5,,,,,,,,,,,,,,,,,,,,,,,,,,,,,
5d63179aa3b94d0001da4bb6,TCN,2024-06-11_12h24.10.246,LearnStrategy,2023.2.3,Win32,59.88023952,,,,,,,,,,,3,12,6,6,,,,,,,,,,,,,,,,,,,,,,,,,,,,,
5d63179aa3b94d0001da4bb6,TCN,2024-06-11_12h24.10.246,LearnStrategy,2023.2.3,Win32,59.88023952,,,,,,,,,,,3,06,6,7,,,,,,,,,,,,,,,,,,,,,,,,,,,,,
5d63179aa3b94d0001da4bb6,TCN,2024-06-11_12h24.10.246,LearnStrategy,2023.2.3,Win32,59.88023952,,,,,,,,,,,8,04,6,8,,,,,,,,,,,,,,,,,,,,,,,,,,,,,