participant,condition,date,expName,psychopyVersion,OS,frameRate,block,phase,trial,learn_mouse_2.x,learn_mouse_2.y,learn_mouse_2.leftButton,learn_mouse_2.midButton,learn_mouse_2.rightButton,learn_mouse_2.time,learn_mouse_2.clicked_name,cat,token,row,col,t_select,cat_mouse_l.x,cat_mouse_l.y,cat_mouse_l.leftButton,cat_mouse_l.midButton,cat_mouse_l.rightButton,cat_mouse_l.time,cat_mouse_l.clicked_name,resp,t_resp,corr,train_trials.thisRepN,train_trials.thisTrialN,train_trials.thisN,train_trials.thisIndex,train_trials.ran,cat_mouse_t.x,cat_mouse_t.y,cat_mouse_t.leftButton,cat_mouse_t.midButton,cat_mouse_t.rightButton,cat_mouse_t.time,cat_mouse_t.clicked_name,test_trials.thisRepN,test_trials.thisTrialN,test_trials.thisN,test_trials.thisIndex,test_trials.ran,Bonus
5d74001d391b6600175f433b,TCR,2024-06-11_10h10.08.137,LearnStrategy,2023.2.3,MacIntel,60.24096386,,,,,,,,,,,,,,,,,,,,,,,,,,,,,,,,,,,,,,,,,,,
5d74001d391b6600175f433b,TCR,2024-06-11_10h10.08.137,LearnStrategy,2023.2.3,MacIntel,60.24096386,1,1,1,0.067938368,-0.016597222,1,0,0,1.7574,rock_grid_rect_2,7,10,-1,-1,1.757,0.202291667,-0.417695313,1,0,0,5.6727,Peridotite_rect,7,5.673,1,0,0,0,0,1,,,,,,,,,,,,,
5d74001d391b6600175f433b,TCR,2024-06-11_10h10.08.137,LearnStrategy,2023.2.3,MacIntel,60.24096386,1,1,2,0.089019097,-0.008359375,1,0,0,1.2313,rock_grid_rect_2,8,09,-1,-1,1.231,0.367803819,-0.388250868,1,0,0,3.8446,Pumice_rect,8,3.845,1,1,0,1,0,1,,,,,,,,,,,,,
5d74001d391b6600175f433b,TCR,2024-06-11_10h10.08.137,LearnStrategy,2023.2.3,MacIntel,60.24096386,1,1,3,0.028168403,-0.020685764,1,0,0,1.0815,rock_grid_rect_2,5,09,-1,-1,1.081,-0.341644965,-0.39968316,1,0,0,1.4945,Obsidian_rect,5,1.495,1,2,0,2,0,1,,,,,,,,,,,,,
5d74001d391b6600175f433b,TCR,2024-06-11_10h10.08.137,LearnStrategy,2023.2.3,MacIntel,60.24096386,1,1,4,0.027005208,-0.011484375,1,0,0,0.7985,rock_grid_rect_2,2,11,-1,-1,0.799,-0.108090278,-0.383784722,1,0,0,4.4099,Pegmatite_rect,6,4.41,0,3,0,3,0,1,,,,,,,,,,,,,
5d74001d391b6600175f433b,TCR,2024-06-11_10h10.08.137,LearnStrategy,2023.2.3,MacIntel,60.24096386,1,1,5,0.010143229,-0.00890191,1,0,0,1.2315,rock_grid_rect_2,1,03,-1,-1,1.232,-0.353255208,-0.251861979,1,0,0,5.312,Andesite_rect,1,5.312,1,4,0,4,0,1,,,,,,,,,,,,,
5d74001d391b6600175f433b,TCR,2024-06-11_10h10.08.137,LearnStrategy,2023.2.3,MacIntel,60.24096386,1,1,6,0.075846354,-0.01015191,1,0,0,0.9648,rock_grid_rect_2,4,11,-1,-1,0.965,0.146540799,-0.245585937,1,0,0,1.8111,Diorite_rect,3,1.811,0,5,0,5,0,1,,,,,,,,,,,,,
5d74001d391b6600175f433b,TCR,2024-06-11_10h10.08.137,LearnStrategy,2023.2.3,MacIntel,60.24096386,1,1,7,0.090989583,-0.021280382,1,0,0,0.7654,rock_grid_rect_2,4,12,-1,-1,0.765,0.404670139,-0.240208333,1,0,0,1.9268,Gabbro_rect,4,1.927,1,6,0,6,0,1,,,,,,,,,,,,,
5d74001d391b6600175f433b,TCR,2024-06-11_10h10.08.137,LearnStrategy,2023.2.3,MacIntel,60.24096386,1,1,8,0.13984375,-0.016393229,1,0,0,0.8149,rock_grid_rect_2,6,12,-1,-1,0.815,0.10233941,-0.230525174,1,0,0,4.2099,Diorite_rect,3,4.21,0,7,0,7,0,1,,,,,,,,,,,,,
5d74001d391b6600175f433b,TCR,2024-06-11_10h10.08.137,LearnStrategy,2023.2.3,MacIntel,60.24096386,1,1,9,0.094657118,-0.008077257,1,0,0,1.0814,rock_grid_rect_2,8,16,-1,-1,1.081,-0.321636285,-0.25905816,1,0,0,7.4769,Andesite_rect,1,7.477,0,8,0,8,0,1,,,,,,,,,,,,,
5d74001d391b6600175f433b,TCR,2024-06-11_10h10.08.137,LearnStrategy,2023.2.3,MacIntel,60.24096386,1,1,10,0.088224826,-0.01375434,1,0,0,0.7987,rock_grid_rect_2,6,07,-1,-1,0.799,-0.058789063,-0.389201389,1,0,0,2.7103,Pegmatite_rect,6,2.71,1,9,0,9,0,1,,,,,,,,,,,,,
5d74001d391b6600175f433b,TCR,2024-06-11_10h10.08.137,LearnStrategy,2023.2.3,MacIntel,60.24096386,1,1,11,0.066905382,-0.012825521,1,0,0,0.7652,rock_grid_rect_2,2,02,-1,-1,0.765,0.384084201,-0.238046875,1,0,0,2.409,Gabbro_rect,4,2.409,0,10,0,10,0,1,,,,,,,,,,,,,
5d74001d391b6600175f433b,TCR,2024-06-11_10h10.08.137,LearnStrategy,2023.2.3,MacIntel,60.24096386,1,1,12,0.092465278,-0.011072049,1,0,0,0.9814,rock_grid_rect_2,5,16,-1,-1,0.981,-0.354479167,-0.405217014,1,0,0,2.0288,Obsidian_rect,5,2.029,1,11,0,11,0,1,,,,,,,,,,,,,
5d74001d391b6600175f433b,TCR,2024-06-11_10h10.08.137,LearnStrategy,2023.2.3,MacIntel,60.24096386,1,1,13,-0.028706597,-0.006375868,1,0,0,1.0485,rock_grid_rect_2,7,07,-1,-1,1.048,0.085329861,-0.397039931,1,0,0,1.6104,Peridotite_rect,7,1.61,1,12,0,12,0,1,,,,,,,,,,,,,
5d74001d391b6600175f433b,TCR,2024-06-11_10h10.08.137,LearnStrategy,2023.2.3,MacIntel,60.24096386,1,1,14,0.079887153,0.003003472,1,0,0,0.8315,rock_grid_rect_2,1,01,-1,-1,0.832,-0.066736111,-0.238025174,1,0,0,4.8454,Basalt_rect,2,4.845,0,13,0,13,0,1,,,,,,,,,,,,,
5d74001d391b6600175f433b,TCR,2024-06-11_10h10.08.137,LearnStrategy,2023.2.3,MacIntel,60.24096386,1,1,15,0.01656684,-0.002986111,1,0,0,0.7151,rock_grid_rect_2,3,09,-1,-1,0.715,0.099253472,-0.234236111,1,0,0,4.3771,Diorite_rect,3,4.377,1,14,0,14,0,1,,,,,,,,,,,,,
5d74001d391b6600175f433b,TCR,2024-06-11_10h10.08.137,LearnStrategy,2023.2.3,MacIntel,60.24096386,1,1,16,0.095481771,0.015490451,1,0,0,0.6816,rock_grid_rect_2,3,02,-1,-1,0.682,0.062617188,-0.245099826,1,0,0,7.4272,Diorite_rect,3,7.427,1,15,0,15,0,1,,,,,,,,,,,,,
5d74001d391b6600175f433b,TCR,2024-06-11_10h10.08.137,LearnStrategy,2023.2.3,MacIntel,60.24096386,1,2,1,,,,,,,,3,12,,,,,,,,,,,3,6.425,1,,,,,,0.048216146,-0.249249132,1,0,0,6.4255,Diorite_rect,0,0,0,0,1,
5d74001d391b6600175f433b,TCR,2024-06-11_10h10.08.137,LearnStrategy,2023.2.3,MacIntel,60.24096386,1,2,2,,,,,,,,3,10,,,,,,,,,,,4,3.506,0,,,,,,0.341124132,-0.243880208,1,0,0,3.5058,Gabbro_rect,1,0,1,0,1,
5d74001d391b6600175f433b,TCR,2024-06-11_10h10.08.137,LearnStrategy,2023.2.3,MacIntel,60.24096386,1,2,3,,,,,,,,2,05,,,,,,,,,,,4,4.624,0,,,,,,0.367144097,-0.238602431,1,0,0,4.6242,Gabbro_rect,2,0,2,0,1,
5d74001d391b6600175f433b,TCR,2024-06-11_10h10.08.137,LearnStrategy,2023.2.3,MacIntel,60.24096386,1,2,4,,,,,,,,1,06,,,,,,,,,,,1,5.676,1,,,,,,-0.313528646,-0.252734375,1,0,0,5.6756,Andesite_rect,3,0,3,0,1,
5d74001d391b6600175f433b,TCR,2024-06-11_10h10.08.137,LearnStrategy,2023.2.3,MacIntel,60.24096386,1,2,5,,,,,,,,7,02,,,,,,,,,,,7,1.672,1,,,,,,0.044375,-0.390889757,1,0,0,1.672,Peridotite_rect,4,0,4,0,1,
5d74001d391b6600175f433b,TCR,2024-06-11_10h10.08.137,LearnStrategy,2023.2.3,MacIntel,60.24096386,1,2,6,,,,,,,,4,03,,,,,,,,,,,4,2.576,1,,,,,,0.323958333,-0.241948785,1,0,0,2.5756,Gabbro_rect,5,0,5,0,1,
5d74001d391b6600175f433b,TCR,2024-06-11_10h10.08.137,LearnStrategy,2023.2.3,MacIntel,60.24096386,1,2,7,,,,,,,,2,10,,,,,,,,,,,2,11.81,1,,,,,,-0.147855903,-0.260868056,1,0,0,11.8096,Basalt_rect,6,0,6,0,1,
5d74001d391b6600175f433b,TCR,2024-06-11_10h10.08.137,LearnStrategy,2023.2.3,MacIntel,60.24096386,1,2,8,,,,,,,,7,14,,,,,,,,,,,7,1.037,1,,,,,,0.108645833,-0.404296875,1,0,0,1.0372,Peridotite_rect,7,0,7,0,1,
5d74001d391b6600175f433b,TCR,2024-06-11_10h10.08.137,LearnStrategy,2023.2.3,MacIntel,60.24096386,1,2,9,,,,,,,,5,08,,,,,,,,,,,5,0.876,1,,,,,,-0.386380208,-0.406358507,1,0,0,0.8756,Obsidian_rect,8,0,8,0,1,
5d74001d391b6600175f433b,TCR,2024-06-11_10h10.08.137,LearnStrategy,2023.2.3,MacIntel,60.24096386,1,2,10,,,,,,,,6,09,,,,,,,,,,,7,1.025,0,,,,,,0.073524306,-0.384578993,1,0,0,1.0254,Peridotite_rect,9,0,9,0,1,
5d74001d391b6600175f433b,TCR,2024-06-11_10h10.08.137,LearnStrategy,2023.2.3,MacIntel,60.24096386,1,2,11,,,,,,,,1,04,,,,,,,,,,,6,6.809,0,,,,,,-0.129335937,-0.391184896,1,0,0,6.809,Pegmatite_rect,10,0,10,0,1,
5d74001d391b6600175f433b,TCR,2024-06-11_10h10.08.137,LearnStrategy,2023.2.3,MacIntel,60.24096386,1,2,12,,,,,,,,4,01,,,,,,,,,,,1,5.773,0,,,,,,-0.310047743,-0.266232639,1,0,0,5.7734,Andesite_rect,11,0,11,0,1,
5d74001d391b6600175f433b,TCR,2024-06-11_10h10.08.137,LearnStrategy,2023.2.3,MacIntel,60.24096386,1,2,13,,,,,,,,6,08,,,,,,,,,,,6,2.706,1,,,,,,-0.128450521,-0.389778646,1,0,0,2.7057,Pegmatite_rect,12,0,12,0,1,
5d74001d391b6600175f433b,TCR,2024-06-11_10h10.08.137,LearnStrategy,2023.2.3,MacIntel,60.24096386,1,2,14,,,,,,,,8,13,,,,,,,,,,,8,1.294,1,,,,,,0.319361979,-0.381427951,1,0,0,1.2945,Pumice_rect,13,0,13,0,1,
5d74001d391b6600175f433b,TCR,2024-06-11_10h10.08.137,LearnStrategy,2023.2.3,MacIntel,60.24096386,1,2,15,,,,,,,,8,04,,,,,,,,,,,8,0.76,1,,,,,,0.319361979,-0.381427951,1,0,0,0.7598,Pumice_rect,14,0,14,0,1,
5d74001d391b6600175f433b,TCR,2024-06-11_10h10.08.137,LearnStrategy,2023.2.3,MacIntel,60.24096386,1,2,16,,,,,,,,5,07,,,,,,,,,,,5,2.042,1,,,,,,-0.330594618,-0.419006076,1,0,0,2.0418,Obsidian_rect,15,0,15,0,1,
5d74001d391b6600175f433b,TCR,2024-06-11_10h10.08.137,LearnStrategy,2023.2.3,MacIntel,60.24096386,2,1,1,0.023624132,0.000429688,1,0,0,0.8487,rock_grid_rect_2,4,11,-1,-1,0.849,0.351219618,-0.23546875,1,0,0,1.2944,Gabbro_rect,4,1.294,1,0,0,0,0,1,,,,,,,,,,,,,
5d74001d391b6600175f433b,TCR,2024-06-11_10h10.08.137,LearnStrategy,2023.2.3,MacIntel,60.24096386,2,1,2,0.1159375,-0.01296441,1,0,0,0.9483,rock_grid_rect_2,1,01,-1,-1,0.948,-0.337534722,-0.242743056,1,0,0,1.3775,Andesite_rect,1,1.377,1,1,0,1,0,1,,,,,,,,,,,,,
5d74001d391b6600175f433b,TCR,2024-06-11_10h10.08.137,LearnStrategy,2023.2.3,MacIntel,60.24096386,2,1,3,0.04125434,-0.011671007,1,0,0,0.8151,rock_grid_rect_2,2,14,-1,-1,0.815,0.073854167,-0.257252604,1,0,0,3.4971,Diorite_rect,3,3.497,0,2,0,2,0,1,,,,,,,,,,,,,
5d74001d391b6600175f433b,TCR,2024-06-11_10h10.08.137,LearnStrategy,2023.2.3,MacIntel,60.24096386,2,1,4,0.086679688,-0.010486111,1,0,0,0.8989,rock_grid_rect_2,3,06,-1,-1,0.899,0.361228299,-0.231367187,1,0,0,2.7464,Gabbro_rect,4,2.746,0,3,0,3,0,1,,,,,,,,,,,,,
5d74001d391b6600175f433b,TCR,2024-06-11_10h10.08.137,LearnStrategy,2023.2.3,MacIntel,60.24096386,2,1,5,0.100256076,-0.009678819,1,0,0,0.9154,rock_grid_rect_2,8,03,-1,-1,0.915,0.313012153,-0.410690104,1,0,0,1.095,Pumice_rect,8,1.095,1,4,0,4,0,1,,,,,,,,,,,,,
5d74001d391b6600175f433b,TCR,2024-06-11_10h10.08.137,LearnStrategy,2023.2.3,MacIntel,60.24096386,2,1,6,0.126970486,-0.010859375,1,0,0,0.8321,rock_grid_rect_2,4,05,-1,-1,0.832,-0.331176215,-0.25406684,1,0,0,3.7444,Andesite_rect,1,3.744,0,5,0,5,0,1,,,,,,,,,,,,,
5d74001d391b6600175f433b,TCR,2024-06-11_10h10.08.137,LearnStrategy,2023.2.3,MacIntel,60.24096386,2,1,7,0.039939236,-0.011206597,1,0,0,0.6984,rock_grid_rect_2,3,02,-1,-1,0.698,0.055763889,-0.239305556,1,0,0,1.3427,Diorite_rect,3,1.343,1,6,0,6,0,1,,,,,,,,,,,,,
5d74001d391b6600175f433b,TCR,2024-06-11_10h10.08.137,LearnStrategy,2023.2.3,MacIntel,60.24096386,2,1,8,0.05765191,-0.010277778,1,0,0,0.7319,rock_grid_rect_2,2,11,-1,-1,0.732,0.358328993,-0.381840278,1,0,0,1.3978,Pumice_rect,8,1.398,0,7,0,7,0,1,,,,,,,,,,,,,
5d74001d391b6600175f433b,TCR,2024-06-11_10h10.08.137,LearnStrategy,2023.2.3,MacIntel,60.24096386,2,1,9,0.076289063,-0.013363715,1,0,0,0.8986,rock_grid_rect_2,1,01,-1,-1,0.899,-0.358619792,-0.234496528,1,0,0,1.5271,Andesite_rect,1,1.527,1,8,0,8,0,1,,,,,,,,,,,,,
5d74001d391b6600175f433b,TCR,2024-06-11_10h10.08.137,LearnStrategy,2023.2.3,MacIntel,60.24096386,2,1,10,0.048420139,0.004075521,1,0,0,0.8309,rock_grid_rect_2,7,13,-1,-1,0.831,0.136592882,-0.392513021,1,0,0,1.162,Peridotite_rect,7,1.162,1,9,0,9,0,1,,,,,,,,,,,,,
5d74001d391b6600175f433b,TCR,2024-06-11_10h10.08.137,LearnStrategy,2023.2.3,MacIntel,60.24096386,2,1,11,0.07374566,-0.003168403,1,0,0,0.6807,rock_grid_rect_2,6,13,-1,-1,0.681,-0.100182292,-0.410642361,1,0,0,2.2312,Pegmatite_rect,6,2.231,1,10,0,10,0,1,,,,,,,,,,,,,
5d74001d391b6600175f433b,TCR,2024-06-11_10h10.08.137,LearnStrategy,2023.2.3,MacIntel,60.24096386,2,1,12,0.013962674,-0.003988715,1,0,0,0.7314,rock_grid_rect_2,6,12,-1,-1,0.731,0.085611979,-0.246731771,1,0,0,1.9446,Diorite_rect,3,1.945,0,11,0,11,0,1,,,,,,,,,,,,,
5d74001d391b6600175f433b,TCR,2024-06-11_10h10.08.137,LearnStrategy,2023.2.3,MacIntel,60.24096386,2,1,13,0.056744792,-0.002530382,1,0,0,1.014,rock_grid_rect_2,3,02,-1,-1,1.014,0.090616319,-0.253033854,1,0,0,1.0441,Diorite_rect,3,1.044,1,12,0,12,0,1,,,,,,,,,,,,,
5d74001d391b6600175f433b,TCR,2024-06-11_10h10.08.137,LearnStrategy,2023.2.3,MacIntel,60.24096386,2,1,14,0.098585069,-0.008802083,1,0,0,0.8157,rock_grid_rect_2,4,12,-1,-1,0.816,0.357764757,-0.245759549,1,0,0,1.4949,Gabbro_rect,4,1.495,1,13,0,13,0,1,,,,,,,,,,,,,
5d74001d391b6600175f433b,TCR,2024-06-11_10h10.08.137,LearnStrategy,2023.2.3,MacIntel,60.24096386,2,1,15,0.066888021,-0.013146701,1,0,0,0.9159,rock_grid_rect_2,5,02,-1,-1,0.916,-0.350212674,-0.405425347,1,0,0,1.1783,Obsidian_rect,5,1.178,1,14,0,14,0,1,,,,,,,,,,,,,
5d74001d391b6600175f433b,TCR,2024-06-11_10h10.08.137,LearnStrategy,2023.2.3,MacIntel,60.24096386,2,1,16,0.050963542,-0.012287326,1,0,0,0.6982,rock_grid_rect_2,6,16,-1,-1,0.698,-0.129383681,-0.380460069,1,0,0,1.4121,Pegmatite_rect,6,1.412,1,15,0,15,0,1,,,,,,,,,,,,,
5d74001d391b6600175f433b,TCR,2024-06-11_10h10.08.137,LearnStrategy,2023.2.3,MacIntel,60.24096386,2,2,1,,,,,,,,5,11,,,,,,,,,,,5,0.977,1,,,,,,-0.337599826,-0.388185764,1,0,0,0.9767,Obsidian_rect,0,0,0,0,1,
5d74001d391b6600175f433b,TCR,2024-06-11_10h10.08.137,LearnStrategy,2023.2.3,MacIntel,60.24096386,2,2,2,,,,,,,,1,14,,,,,,,,,,,3,3.626,0,,,,,,0.092947049,-0.264817708,1,0,0,3.626,Diorite_rect,1,0,1,0,1,
5d74001d391b6600175f433b,TCR,2024-06-11_10h10.08.137,LearnStrategy,2023.2.3,MacIntel,60.24096386,2,2,3,,,,,,,,6,15,,,,,,,,,,,6,1.339,1,,,,,,-0.094461806,-0.394231771,1,0,0,1.3395,Pegmatite_rect,2,0,2,0,1,
5d74001d391b6600175f433b,TCR,2024-06-11_10h10.08.137,LearnStrategy,2023.2.3,MacIntel,60.24096386,2,2,4,,,,,,,,7,15,,,,,,,,,,,7,0.741,1,,,,,,0.111180556,-0.392222222,1,0,0,0.7408,Peridotite_rect,3,0,3,0,1,
5d74001d391b6600175f433b,TCR,2024-06-11_10h10.08.137,LearnStrategy,2023.2.3,MacIntel,60.24096386,2,2,5,,,,,,,,6,06,,,,,,,,,,,1,3.776,0,,,,,,-0.352769097,-0.253697917,1,0,0,3.7756,Andesite_rect,4,0,4,0,1,
5d74001d391b6600175f433b,TCR,2024-06-11_10h10.08.137,LearnStrategy,2023.2.3,MacIntel,60.24096386,2,2,6,,,,,,,,3,11,,,,,,,,,,,4,1.656,0,,,,,,0.373845486,-0.253168403,1,0,0,1.6556,Gabbro_rect,5,0,5,0,1,
5d74001d391b6600175f433b,TCR,2024-06-11_10h10.08.137,LearnStrategy,2023.2.3,MacIntel,60.24096386,2,2,7,,,,,,,,4,15,,,,,,,,,,,6,3.225,0,,,,,,-0.070789931,-0.416258681,1,0,0,3.2247,Pegmatite_rect,6,0,6,0,1,
5d74001d391b6600175f433b,TCR,2024-06-11_10h10.08.137,LearnStrategy,2023.2.3,MacIntel,60.24096386,2,2,8,,,,,,,,2,12,,,,,,,,,,,8,1.872,0,,,,,,0.417078993,-0.399557292,1,0,0,1.8723,Pumice_rect,7,0,7,0,1,
5d74001d391b6600175f433b,TCR,2024-06-11_10h10.08.137,LearnStrategy,2023.2.3,MacIntel,60.24096386,2,2,9,,,,,,,,8,10,,,,,,,,,,,8,0.776,1,,,,,,0.417078993,-0.399557292,1,0,0,0.7756,Pumice_rect,8,0,8,0,1,
5d74001d391b6600175f433b,TCR,2024-06-11_10h10.08.137,LearnStrategy,2023.2.3,MacIntel,60.24096386,2,2,10,,,,,,,,3,14,,,,,,,,,,,1,4.459,0,,,,,,-0.331814236,-0.271111111,1,0,0,4.4587,Andesite_rect,9,0,9,0,1,
5d74001d391b6600175f433b,TCR,2024-06-11_10h10.08.137,LearnStrategy,2023.2.3,MacIntel,60.24096386,2,2,11,,,,,,,,4,16,,,,,,,,,,,2,1.189,0,,,,,,-0.170117187,-0.240677083,1,0,0,1.1888,Basalt_rect,10,0,10,0,1,
5d74001d391b6600175f433b,TCR,2024-06-11_10h10.08.137,LearnStrategy,2023.2.3,MacIntel,60.24096386,2,2,12,,,,,,,,8,05,,,,,,,,,,,2,2.51,0,,,,,,-0.123585069,-0.240138889,1,0,0,2.5099,Basalt_rect,11,0,11,0,1,
5d74001d391b6600175f433b,TCR,2024-06-11_10h10.08.137,LearnStrategy,2023.2.3,MacIntel,60.24096386,2,2,13,,,,,,,,5,05,,,,,,,,,,,5,1.355,1,,,,,,-0.365577257,-0.407552083,1,0,0,1.3554,Obsidian_rect,12,0,12,0,1,
5d74001d391b6600175f433b,TCR,2024-06-11_10h10.08.137,LearnStrategy,2023.2.3,MacIntel,60.24096386,2,2,14,,,,,,,,7,08,,,,,,,,,,,7,1.059,1,,,,,,0.067417535,-0.394743924,1,0,0,1.0588,Peridotite_rect,13,0,13,0,1,
5d74001d391b6600175f433b,TCR,2024-06-11_10h10.08.137,LearnStrategy,2023.2.3,MacIntel,60.24096386,2,2,15,,,,,,,,1,07,,,,,,,,,,,1,4.927,1,,,,,,-0.348914931,-0.267452257,1,0,0,4.9266,Andesite_rect,14,0,14,0,1,
5d74001d391b6600175f433b,TCR,2024-06-11_10h10.08.137,LearnStrategy,2023.2.3,MacIntel,60.24096386,2,2,16,,,,,,,,2,06,,,,,,,,,,,2,1.022,1,,,,,,-0.146462674,-0.253320312,1,0,0,1.0221,Basalt_rect,15,0,15,0,1,
5d74001d391b6600175f433b,TCR,2024-06-11_10h10.08.137,LearnStrategy,2023.2.3,MacIntel,60.24096386,3,1,1,0.067269965,-0.01078125,1,0,0,0.7152,rock_grid_rect_2,1,01,-1,-1,0.715,-0.382217882,-0.271666667,1,0,0,1.261,Andesite_rect,1,1.261,1,0,0,0,0,1,,,,,,,,,,,,,
5d74001d391b6600175f433b,TCR,2024-06-11_10h10.08.137,LearnStrategy,2023.2.3,MacIntel,60.24096386,3,1,2,0.014548611,0.011193576,1,0,0,1.0162,rock_grid_rect_2,3,13,-1,-1,1.016,-0.107092014,-0.406961806,1,0,0,2.1126,Pegmatite_rect,6,2.113,0,1,0,1,0,1,,,,,,,,,,,,,
5d74001d391b6600175f433b,TCR,2024-06-11_10h10.08.137,LearnStrategy,2023.2.3,MacIntel,60.24096386,3,1,3,0.005972222,-0.00546441,1,0,0,0.766,rock_grid_rect_2,4,13,-1,-1,0.766,-0.110542535,-0.408485243,1,0,0,2.346,Pegmatite_rect,6,2.346,0,2,0,2,0,1,,,,,,,,,,,,,
5d74001d391b6600175f433b,TCR,2024-06-11_10h10.08.137,LearnStrategy,2023.2.3,MacIntel,60.24096386,3,1,4,0.037309028,-0.001640625,1,0,0,0.6998,rock_grid_rect_2,8,08,-1,-1,0.7,0.363619792,-0.402599826,1,0,0,1.3774,Pumice_rect,8,1.377,1,3,0,3,0,1,,,,,,,,,,,,,
5d74001d391b6600175f433b,TCR,2024-06-11_10h10.08.137,LearnStrategy,2023.2.3,MacIntel,60.24096386,3,1,5,0.098415799,-0.011397569,1,0,0,0.7814,rock_grid_rect_2,3,16,-1,-1,0.781,-0.331137153,-0.255,1,0,0,3.8468,Andesite_rect,1,3.847,0,4,0,4,0,1,,,,,,,,,,,,,
5d74001d391b6600175f433b,TCR,2024-06-11_10h10.08.137,LearnStrategy,2023.2.3,MacIntel,60.24096386,3,1,6,0.056063368,-0.00344184,1,0,0,0.6656,rock_grid_rect_2,1,16,-1,-1,0.666,0.070911458,-0.243072917,1,0,0,2.4956,Diorite_rect,3,2.496,0,5,0,5,0,1,,,,,,,,,,,,,
5d74001d391b6600175f433b,TCR,2024-06-11_10h10.08.137,LearnStrategy,2023.2.3,MacIntel,60.24096386,3,1,7,0.037938368,0.014652778,1,0,0,0.6821,rock_grid_rect_2,2,08,-1,-1,0.682,-0.088194444,-0.257096354,1,0,0,1.2782,Basalt_rect,2,1.278,1,6,0,6,0,1,,,,,,,,,,,,,
5d74001d391b6600175f433b,TCR,2024-06-11_10h10.08.137,LearnStrategy,2023.2.3,MacIntel,60.24096386,3,1,8,0.032821181,-0.012100694,1,0,0,0.8487,rock_grid_rect_2,4,13,-1,-1,0.849,0.380360243,-0.232712674,1,0,0,1.0625,Gabbro_rect,4,1.063,1,7,0,7,0,1,,,,,,,,,,,,,
5d74001d391b6600175f433b,TCR,2024-06-11_10h10.08.137,LearnStrategy,2023.2.3,MacIntel,60.24096386,3,1,9,0.079023438,-0.004448785,1,0,0,0.8321,rock_grid_rect_2,6,16,-1,-1,0.832,-0.125542535,-0.405772569,1,0,0,1.9939,Pegmatite_rect,6,1.994,1,8,0,8,0,1,,,,,,,,,,,,,
5d74001d391b6600175f433b,TCR,2024-06-11_10h10.08.137,LearnStrategy,2023.2.3,MacIntel,60.24096386,3,1,10,0.028172743,-0.023763021,1,0,0,0.8818,rock_grid_rect_2,6,10,-1,-1,0.882,0.106384549,-0.421679688,1,0,0,1.5764,Peridotite_rect,7,1.576,0,9,0,9,0,1,,,,,,,,,,,,,
5d74001d391b6600175f433b,TCR,2024-06-11_10h10.08.137,LearnStrategy,2023.2.3,MacIntel,60.24096386,3,1,11,0.085529514,0.001180556,1,0,0,0.8651,rock_grid_rect_2,2,14,-1,-1,0.865,-0.105815972,-0.264505208,1,0,0,1.0098,Basalt_rect,2,1.01,1,10,0,10,0,1,,,,,,,,,,,,,
5d74001d391b6600175f433b,TCR,2024-06-11_10h10.08.137,LearnStrategy,2023.2.3,MacIntel,60.24096386,3,1,12,0.008033854,-0.01234809,1,0,0,0.7662,rock_grid_rect_2,4,05,-1,-1,0.766,0.296141493,-0.234539931,1,0,0,3.4613,Gabbro_rect,4,3.461,1,11,0,11,0,1,,,,,,,,,,,,,
5d74001d391b6600175f433b,TCR,2024-06-11_10h10.08.137,LearnStrategy,2023.2.3,MacIntel,60.24096386,3,1,13,0.095173611,0.003849826,1,0,0,1.1314,rock_grid_rect_2,2,08,-1,-1,1.131,-0.078320313,-0.260551215,1,0,0,0.9109,Basalt_rect,2,0.911,1,12,0,12,0,1,,,,,,,,,,,,,
5d74001d391b6600175f433b,TCR,2024-06-11_10h10.08.137,LearnStrategy,2023.2.3,MacIntel,60.24096386,3,1,14,0.052300347,-0.019735243,1,0,0,0.782,rock_grid_rect_2,8,16,-1,-1,0.782,0.366783854,-0.3953125,1,0,0,1.7102,Pumice_rect,8,1.71,1,13,0,13,0,1,,,,,,,,,,,,,
5d74001d391b6600175f433b,TCR,2024-06-11_10h10.08.137,LearnStrategy,2023.2.3,MacIntel,60.24096386,3,1,15,0.119552951,-0.018776042,1,0,0,0.9493,rock_grid_rect_2,3,08,-1,-1,0.949,-0.342630208,-0.253606771,1,0,0,2.2936,Andesite_rect,1,2.294,0,14,0,14,0,1,,,,,,,,,,,,,
5d74001d391b6600175f433b,TCR,2024-06-11_10h10.08.137,LearnStrategy,2023.2.3,MacIntel,60.24096386,3,1,16,0.02547309,-0.015659722,1,0,0,0.8329,rock_grid_rect_2,1,01,-1,-1,0.833,-0.361649306,-0.262157118,1,0,0,1.3606,Andesite_rect,1,1.361,1,15,0,15,0,1,,,,,,,,,,,,,
5d74001d391b6600175f433b,TCR,2024-06-11_10h10.08.137,LearnStrategy,2023.2.3,MacIntel,60.24096386,3,2,1,,,,,,,,5,06,,,,,,,,,,,5,1.943,1,,,,,,-0.383719618,-0.409244792,1,0,0,1.9429,Obsidian_rect,0,0,0,0,1,
5d74001d391b6600175f433b,TCR,2024-06-11_10h10.08.137,LearnStrategy,2023.2.3,MacIntel,60.24096386,3,2,2,,,,,,,,6,11,,,,,,,,,,,6,0.926,1,,,,,,-0.164470486,-0.412287326,1,0,0,0.9258,Pegmatite_rect,1,0,1,0,1,
5d74001d391b6600175f433b,TCR,2024-06-11_10h10.08.137,LearnStrategy,2023.2.3,MacIntel,60.24096386,3,2,3,,,,,,,,1,02,,,,,,,,,,,1,3.791,1,,,,,,-0.323763021,-0.252447917,1,0,0,3.7907,Andesite_rect,2,0,2,0,1,
5d74001d391b6600175f433b,TCR,2024-06-11_10h10.08.137,LearnStrategy,2023.2.3,MacIntel,60.24096386,3,2,4,,,,,,,,5,12,,,,,,,,,,,5,1.223,1,,,,,,-0.339496528,-0.391158854,1,0,0,1.2227,Obsidian_rect,3,0,3,0,1,
5d74001d391b6600175f433b,TCR,2024-06-11_10h10.08.137,LearnStrategy,2023.2.3,MacIntel,60.24096386,3,2,5,,,,,,,,2,16,,,,,,,,,,,2,0.86,1,,,,,,-0.154184028,-0.269813368,1,0,0,0.8599,Basalt_rect,4,0,4,0,1,
5d74001d391b6600175f433b,TCR,2024-06-11_10h10.08.137,LearnStrategy,2023.2.3,MacIntel,60.24096386,3,2,6,,,,,,,,8,15,,,,,,,,,,,8,1.424,1,,,,,,0.304552951,-0.414470486,1,0,0,1.4241,Pumice_rect,5,0,5,0,1,
5d74001d391b6600175f433b,TCR,2024-06-11_10h10.08.137,LearnStrategy,2023.2.3,MacIntel,60.24096386,3,2,7,,,,,,,,2,04,,,,,,,,,,,2,1.145,1,,,,,,-0.092039931,-0.248867188,1,0,0,1.1447,Basalt_rect,6,0,6,0,1,
5d74001d391b6600175f433b,TCR,2024-06-11_10h10.08.137,LearnStrategy,2023.2.3,MacIntel,60.24096386,3,2,8,,,,,,,,1,11,,,,,,,,,,,4,2.275,0,,,,,,0.373641493,-0.262109375,1,0,0,2.2754,Gabbro_rect,7,0,7,0,1,
5d74001d391b6600175f433b,TCR,2024-06-11_10h10.08.137,LearnStrategy,2023.2.3,MacIntel,60.24096386,3,2,9,,,,,,,,3,07,,,,,,,,,,,3,3.975,1,,,,,,0.122508681,-0.256688368,1,0,0,3.9751,Diorite_rect,8,0,8,0,1,
5d74001d391b6600175f433b,TCR,2024-06-11_10h10.08.137,LearnStrategy,2023.2.3,MacIntel,60.24096386,3,2,10,,,,,,,,4,09,,,,,,,,,,,2,2.522,0,,,,,,-0.073654514,-0.234136285,1,0,0,2.5215,Basalt_rect,9,0,9,0,1,
5d74001d391b6600175f433b,TCR,2024-06-11_10h10.08.137,LearnStrategy,2023.2.3,MacIntel,60.24096386,3,2,11,,,,,,,,4,08,,,,,,,,,,,4,1.843,1,,,,,,0.293502604,-0.256310764,1,0,0,1.8428,Gabbro_rect,10,0,10,0,1,
5d74001d391b6600175f433b,TCR,2024-06-11_10h10.08.137,LearnStrategy,2023.2.3,MacIntel,60.24096386,3,2,12,,,,,,,,8,14,,,,,,,,,,,8,0.908,1,,,,,,0.324427083,-0.413151042,1,0,0,0.9083,Pumice_rect,11,0,11,0,1,
5d74001d391b6600175f433b,TCR,2024-06-11_10h10.08.137,LearnStrategy,2023.2.3,MacIntel,60.24096386,3,2,13,,,,,,,,3,15,,,,,,,,,,,1,2.625,0,,,,,,-0.355907118,-0.262508681,1,0,0,2.625,Andesite_rect,12,0,12,0,1,
5d74001d391b6600175f433b,TCR,2024-06-11_10h10.08.137,LearnStrategy,2023.2.3,MacIntel,60.24096386,3,2,14,,,,,,,,7,12,,,,,,,,,,,7,1.422,1,,,,,,0.069010417,-0.409171007,1,0,0,1.4219,Peridotite_rect,13,0,13,0,1,
5d74001d391b6600175f433b,TCR,2024-06-11_10h10.08.137,LearnStrategy,2023.2.3,MacIntel,60.24096386,3,2,15,,,,,,,,6,03,,,,,,,,,,,6,2.326,1,,,,,,-0.173415799,-0.398259549,1,0,0,2.3257,Pegmatite_rect,14,0,14,0,1,
5d74001d391b6600175f433b,TCR,2024-06-11_10h10.08.137,LearnStrategy,2023.2.3,MacIntel,60.24096386,3,2,16,,,,,,,,7,06,,,,,,,,,,,7,1.689,1,,,,,,0.15109809,-0.402703993,1,0,0,1.6888,Peridotite_rect,15,0,15,0,1,
5d74001d391b6600175f433b,TCR,2024-06-11_10h10.08.137,LearnStrategy,2023.2.3,MacIntel,60.24096386,4,1,1,0.077326389,-0.021102431,1,0,0,1.0483,rock_grid_rect_2,1,01,-1,-1,1.048,-0.392135417,-0.250230035,1,0,0,1.1435,Andesite_rect,1,1.144,1,0,0,0,0,1,,,,,,,,,,,,,
5d74001d391b6600175f433b,TCR,2024-06-11_10h10.08.137,LearnStrategy,2023.2.3,MacIntel,60.24096386,4,1,2,0.030329861,-0.017296007,1,0,0,0.6987,rock_grid_rect_2,5,02,-1,-1,0.699,-0.327222222,-0.402413194,1,0,0,1.029,Obsidian_rect,5,1.029,1,1,0,1,0,1,,,,,,,,,,,,,
5d74001d391b6600175f433b,TCR,2024-06-11_10h10.08.137,LearnStrategy,2023.2.3,MacIntel,60.24096386,4,1,3,0.046905382,-0.013493924,1,0,0,0.748,rock_grid_rect_2,2,02,-1,-1,0.748,-0.112261285,-0.244661458,1,0,0,1.8608,Basalt_rect,2,1.861,1,2,0,2,0,1,,,,,,,,,,,,,
5d74001d391b6600175f433b,TCR,2024-06-11_10h10.08.137,LearnStrategy,2023.2.3,MacIntel,60.24096386,4,1,4,0.034769965,-0.011675347,1,0,0,0.6648,rock_grid_rect_2,4,10,-1,-1,0.665,0.365091146,-0.24891059,1,0,0,3.0432,Gabbro_rect,4,3.043,1,3,0,3,0,1,,,,,,,,,,,,,
5d74001d391b6600175f433b,TCR,2024-06-11_10h10.08.137,LearnStrategy,2023.2.3,MacIntel,60.24096386,4,1,5,0.115690104,-0.006124132,1,0,0,0.7819,rock_grid_rect_2,3,02,-1,-1,0.782,0.105434028,-0.267617188,1,0,0,1.029,Diorite_rect,3,1.029,1,4,0,4,0,1,,,,,,,,,,,,,
5d74001d391b6600175f433b,TCR,2024-06-11_10h10.08.137,LearnStrategy,2023.2.3,MacIntel,60.24096386,4,1,6,0.086831597,-0.008919271,1,0,0,0.7486,rock_grid_rect_2,6,07,-1,-1,0.749,-0.118945312,-0.420407986,1,0,0,1.1097,Pegmatite_rect,6,1.11,1,5,0,5,0,1,,,,,,,,,,,,,
5d74001d391b6600175f433b,TCR,2024-06-11_10h10.08.137,LearnStrategy,2023.2.3,MacIntel,60.24096386,4,1,7,0.028359375,-0.011731771,1,0,0,0.8318,rock_grid_rect_2,4,12,-1,-1,0.832,0.311779514,-0.232591146,1,0,0,1.728,Gabbro_rect,4,1.728,1,6,0,6,0,1,,,,,,,,,,,,,
5d74001d391b6600175f433b,TCR,2024-06-11_10h10.08.137,LearnStrategy,2023.2.3,MacIntel,60.24096386,4,1,8,0.094188368,-0.014205729,1,0,0,1.0986,rock_grid_rect_2,6,12,-1,-1,1.099,0.057734375,-0.264626736,1,0,0,3.9616,Diorite_rect,3,3.962,0,7,0,7,0,1,,,,,,,,,,,,,
5d74001d391b6600175f433b,TCR,2024-06-11_10h10.08.137,LearnStrategy,2023.2.3,MacIntel,60.24096386,4,1,9,0.035698785,-0.016293403,1,0,0,0.7813,rock_grid_rect_2,2,01,-1,-1,0.781,-0.0925,-0.257621528,1,0,0,0.912,Basalt_rect,2,0.912,1,8,0,8,0,1,,,,,,,,,,,,,
5d74001d391b6600175f433b,TCR,2024-06-11_10h10.08.137,LearnStrategy,2023.2.3,MacIntel,60.24096386,4,1,10,0.014700521,0.003250868,1,0,0,0.615,rock_grid_rect_2,7,10,-1,-1,0.615,0.124184028,-0.386315104,1,0,0,1.279,Peridotite_rect,7,1.279,1,9,0,9,0,1,,,,,,,,,,,,,
5d74001d391b6600175f433b,TCR,2024-06-11_10h10.08.137,LearnStrategy,2023.2.3,MacIntel,60.24096386,4,1,11,0.097734375,-0.011510417,1,0,0,0.7649,rock_grid_rect_2,4,13,-1,-1,0.765,0.338741319,-0.246210938,1,0,0,1.8818,Gabbro_rect,4,1.882,1,10,0,10,0,1,,,,,,,,,,,,,
5d74001d391b6600175f433b,TCR,2024-06-11_10h10.08.137,LearnStrategy,2023.2.3,MacIntel,60.24096386,4,1,12,0.114348958,-0.004201389,1,0,0,0.765,rock_grid_rect_2,8,03,-1,-1,0.765,0.343559028,-0.395169271,1,0,0,1.0616,Pumice_rect,8,1.062,1,11,0,11,0,1,,,,,,,,,,,,,
5d74001d391b6600175f433b,TCR,2024-06-11_10h10.08.137,LearnStrategy,2023.2.3,MacIntel,60.24096386,4,1,13,0.0971875,-0.00484375,1,0,0,0.7984,rock_grid_rect_2,1,10,-1,-1,0.798,0.080668403,-0.250625,1,0,0,2.2605,Diorite_rect,3,2.26,0,12,0,12,0,1,,,,,,,,,,,,,
5d74001d391b6600175f433b,TCR,2024-06-11_10h10.08.137,LearnStrategy,2023.2.3,MacIntel,60.24096386,4,1,14,0.093268229,-0.016427951,1,0,0,0.8313,rock_grid_rect_2,3,06,-1,-1,0.831,-0.309956597,-0.254322917,1,0,0,1.3606,Andesite_rect,1,1.361,0,13,0,13,0,1,,,,,,,,,,,,,
5d74001d391b6600175f433b,TCR,2024-06-11_10h10.08.137,LearnStrategy,2023.2.3,MacIntel,60.24096386,4,1,15,-0.003420139,-0.023793403,1,0,0,0.8323,rock_grid_rect_2,3,06,-1,-1,0.832,0.089947917,-0.253337674,1,0,0,0.91,Diorite_rect,3,0.91,1,14,0,14,0,1,,,,,,,,,,,,,
5d74001d391b6600175f433b,TCR,2024-06-11_10h10.08.137,LearnStrategy,2023.2.3,MacIntel,60.24096386,4,1,16,0.080138889,-0.010590278,1,0,0,0.8818,rock_grid_rect_2,4,05,-1,-1,0.882,0.346119792,-0.250034722,1,0,0,1.3776,Gabbro_rect,4,1.378,1,15,0,15,0,1,,,,,,,,,,,,,
5d74001d391b6600175f433b,TCR,2024-06-11_10h10.08.137,LearnStrategy,2023.2.3,MacIntel,60.24096386,4,2,1,,,,,,,,2,10,,,,,,,,,,,2,1.075,1,,,,,,-0.085967882,-0.245859375,1,0,0,1.075,Basalt_rect,0,0,0,0,1,
5d74001d391b6600175f433b,TCR,2024-06-11_10h10.08.137,LearnStrategy,2023.2.3,MacIntel,60.24096386,4,2,2,,,,,,,,6,03,,,,,,,,,,,6,4.342,1,,,,,,-0.072100694,-0.414144965,1,0,0,4.3419,Pegmatite_rect,1,0,1,0,1,
5d74001d391b6600175f433b,TCR,2024-06-11_10h10.08.137,LearnStrategy,2023.2.3,MacIntel,60.24096386,4,2,3,,,,,,,,4,03,,,,,,,,,,,4,4.188,1,,,,,,0.366493056,-0.251935764,1,0,0,4.1877,Gabbro_rect,2,0,2,0,1,
5d74001d391b6600175f433b,TCR,2024-06-11_10h10.08.137,LearnStrategy,2023.2.3,MacIntel,60.24096386,4,2,4,,,,,,,,4,01,,,,,,,,,,,3,3.927,0,,,,,,0.128637153,-0.259991319,1,0,0,3.9267,Diorite_rect,3,0,3,0,1,
5d74001d391b6600175f433b,TCR,2024-06-11_10h10.08.137,LearnStrategy,2023.2.3,MacIntel,60.24096386,4,2,5,,,,,,,,7,08,,,,,,,,,,,7,0.938,1,,,,,,0.110381944,-0.392747396,1,0,0,0.9382,Peridotite_rect,4,0,4,0,1,
5d74001d391b6600175f433b,TCR,2024-06-11_10h10.08.137,LearnStrategy,2023.2.3,MacIntel,60.24096386,4,2,6,,,,,,,,1,07,,,,,,,,,,,1,1.208,1,,,,,,-0.312569444,-0.262595486,1,0,0,1.2079,Andesite_rect,5,0,5,0,1,
5d74001d391b6600175f433b,TCR,2024-06-11_10h10.08.137,LearnStrategy,2023.2.3,MacIntel,60.24096386,4,2,7,,,,,,,,3,12,,,,,,,,,,,3,3.792,1,,,,,,0.047296007,-0.266341146,1,0,0,3.7923,Diorite_rect,6,0,6,0,1,
5d74001d391b6600175f433b,TCR,2024-06-11_10h10.08.137,LearnStrategy,2023.2.3,MacIntel,60.24096386,4,2,8,,,,,,,,8,14,,,,,,,,,,,8,1.055,1,,,,,,0.342460938,-0.383042535,1,0,0,1.0548,Pumice_rect,7,0,7,0,1,
5d74001d391b6600175f433b,TCR,2024-06-11_10h10.08.137,LearnStrategy,2023.2.3,MacIntel,60.24096386,4,2,9,,,,,,,,7,15,,,,,,,,,,,7,0.826,1,,,,,,0.175551215,-0.392951389,1,0,0,0.8255,Peridotite_rect,8,0,8,0,1,
5d74001d391b6600175f433b,TCR,2024-06-11_10h10.08.137,LearnStrategy,2023.2.3,MacIntel,60.24096386,4,2,10,,,,,,,,8,13,,,,,,,,,,,8,0.859,1,,,,,,0.322174479,-0.395924479,1,0,0,0.8589,Pumice_rect,9,0,9,0,1,
5d74001d391b6600175f433b,TCR,2024-06-11_10h10.08.137,LearnStrategy,2023.2.3,MacIntel,60.24096386,4,2,11,,,,,,,,5,12,,,,,,,,,,,5,0.958,1,,,,,,-0.320546875,-0.42140191,1,0,0,0.9582,Obsidian_rect,10,0,10,0,1,
5d74001d391b6600175f433b,TCR,2024-06-11_10h10.08.137,LearnStrategy,2023.2.3,MacIntel,60.24096386,4,2,12,,,,,,,,2,05,,,,,,,,,,,2,0.893,1,,,,,,-0.126167535,-0.258780382,1,0,0,0.8931,Basalt_rect,11,0,11,0,1,
5d74001d391b6600175f433b,TCR,2024-06-11_10h10.08.137,LearnStrategy,2023.2.3,MacIntel,60.24096386,4,2,13,,,,,,,,3,15,,,,,,,,,,,3,3.508,1,,,,,,0.186462674,-0.2490625,1,0,0,3.5079,Diorite_rect,12,0,12,0,1,
5d74001d391b6600175f433b,TCR,2024-06-11_10h10.08.137,LearnStrategy,2023.2.3,MacIntel,60.24096386,4,2,14,,,,,,,,1,02,,,,,,,,,,,1,1.957,1,,,,,,-0.347725694,-0.265377604,1,0,0,1.9568,Andesite_rect,13,0,13,0,1,
5d74001d391b6600175f433b,TCR,2024-06-11_10h10.08.137,LearnStrategy,2023.2.3,MacIntel,60.24096386,4,2,15,,,,,,,,5,07,,,,,,,,,,,5,0.859,1,,,,,,-0.369205729,-0.414926215,1,0,0,0.8588,Obsidian_rect,14,0,14,0,1,
5d74001d391b6600175f433b,TCR,2024-06-11_10h10.08.137,LearnStrategy,2023.2.3,MacIntel,60.24096386,4,2,16,,,,,,,,6,09,,,,,,,,,,,7,1.71,0,,,,,,0.050789931,-0.401150174,1,0,0,1.71,Peridotite_rect,15,0,15,0,1,
5d74001d391b6600175f433b,TCR,2024-06-11_10h10.08.137,LearnStrategy,2023.2.3,MacIntel,60.24096386,5,1,1,0.134309896,-0.007851562,1,0,0,0.914,rock_grid_rect_2,3,08,-1,-1,0.914,-0.059431424,-0.420138889,1,0,0,3.2135,Pegmatite_rect,6,3.213,0,0,0,0,0,1,,,,,,,,,,,,,
5d74001d391b6600175f433b,TCR,2024-06-11_10h10.08.137,LearnStrategy,2023.2.3,MacIntel,60.24096386,5,1,2,0.060060764,-0.021445313,1,0,0,0.8487,rock_grid_rect_2,6,16,-1,-1,0.849,-0.094505208,-0.381796875,1,0,0,0.9921,Pegmatite_rect,6,0.992,1,1,0,1,0,1,,,,,,,,,,,,,
5d74001d391b6600175f433b,TCR,2024-06-11_10h10.08.137,LearnStrategy,2023.2.3,MacIntel,60.24096386,5,1,3,0.067013889,-0.005963542,1,0,0,1.4152,rock_grid_rect_2,3,08,-1,-1,1.415,0.093615451,-0.235963542,1,0,0,1.2779,Diorite_rect,3,1.278,1,2,0,2,0,1,,,,,,,,,,,,,
5d74001d391b6600175f433b,TCR,2024-06-11_10h10.08.137,LearnStrategy,2023.2.3,MacIntel,60.24096386,5,1,4,0.102044271,-0.01062066,1,0,0,0.7327,rock_grid_rect_2,3,16,-1,-1,0.733,0.395117188,-0.241653646,1,0,0,2.477,Gabbro_rect,4,2.477,0,3,0,3,0,1,,,,,,,,,,,,,
5d74001d391b6600175f433b,TCR,2024-06-11_10h10.08.137,LearnStrategy,2023.2.3,MacIntel,60.24096386,5,1,5,0.0740625,0.00171875,1,0,0,0.6315,rock_grid_rect_2,4,14,-1,-1,0.632,-0.082560764,-0.228511285,1,0,0,1.0929,Basalt_rect,2,1.093,0,4,0,4,0,1,,,,,,,,,,,,,
5d74001d391b6600175f433b,TCR,2024-06-11_10h10.08.137,LearnStrategy,2023.2.3,MacIntel,60.24096386,5,1,6,0.029283854,-0.00797309,1,0,0,0.683,rock_grid_rect_2,1,09,-1,-1,0.683,0.339973958,-0.243710938,1,0,0,3.5454,Gabbro_rect,4,3.545,0,5,0,5,0,1,,,,,,,,,,,,,
5d74001d391b6600175f433b,TCR,2024-06-11_10h10.08.137,LearnStrategy,2023.2.3,MacIntel,60.24096386,5,1,7,0.097521701,-0.007513021,1,0,0,0.7977,rock_grid_rect_2,8,06,-1,-1,0.798,0.387599826,-0.403042535,1,0,0,1.3478,Pumice_rect,8,1.348,1,6,0,6,0,1,,,,,,,,,,,,,
5d74001d391b6600175f433b,TCR,2024-06-11_10h10.08.137,LearnStrategy,2023.2.3,MacIntel,60.24096386,5,1,8,0.09578125,0.005212674,1,0,0,0.6821,rock_grid_rect_2,4,10,-1,-1,0.682,0.409483507,-0.245082465,1,0,0,1.9283,Gabbro_rect,4,1.928,1,7,0,7,0,1,,,,,,,,,,,,,
5d74001d391b6600175f433b,TCR,2024-06-11_10h10.08.137,LearnStrategy,2023.2.3,MacIntel,60.24096386,5,1,9,0.122018229,-0.020828993,1,0,0,0.8143,rock_grid_rect_2,7,04,-1,-1,0.814,-0.334118924,-0.257105035,1,0,0,3.8128,Andesite_rect,1,3.813,0,8,0,8,0,1,,,,,,,,,,,,,
5d74001d391b6600175f433b,TCR,2024-06-11_10h10.08.137,LearnStrategy,2023.2.3,MacIntel,60.24096386,5,1,10,0.054479167,-0.010381944,1,0,0,0.7155,rock_grid_rect_2,5,14,-1,-1,0.716,-0.35828125,-0.413302951,1,0,0,1.26,Obsidian_rect,5,1.26,1,9,0,9,0,1,,,,,,,,,,,,,
5d74001d391b6600175f433b,TCR,2024-06-11_10h10.08.137,LearnStrategy,2023.2.3,MacIntel,60.24096386,5,1,11,0.092864583,-0.015946181,1,0,0,0.8993,rock_grid_rect_2,2,11,-1,-1,0.899,0.348172743,-0.402773437,1,0,0,2.0103,Pumice_rect,8,2.01,0,10,0,10,0,1,,,,,,,,,,,,,
5d74001d391b6600175f433b,TCR,2024-06-11_10h10.08.137,LearnStrategy,2023.2.3,MacIntel,60.24096386,5,1,12,0.077309028,-0.003116319,1,0,0,0.7155,rock_grid_rect_2,4,05,-1,-1,0.716,0.337751736,-0.24937934,1,0,0,0.9766,Gabbro_rect,4,0.977,1,11,0,11,0,1,,,,,,,,,,,,,
5d74001d391b6600175f433b,TCR,2024-06-11_10h10.08.137,LearnStrategy,2023.2.3,MacIntel,60.24096386,5,1,13,0.140199653,-0.006111111,1,0,0,1.1981,rock_grid_rect_2,6,12,-1,-1,1.198,-0.10828559,-0.400091146,1,0,0,1.2457,Pegmatite_rect,6,1.246,1,12,0,12,0,1,,,,,,,,,,,,,
5d74001d391b6600175f433b,TCR,2024-06-11_10h10.08.137,LearnStrategy,2023.2.3,MacIntel,60.24096386,5,1,14,0.069335938,0.009578993,1,0,0,0.5988,rock_grid_rect_2,2,14,-1,-1,0.599,0.337070313,-0.240963542,1,0,0,1.5599,Gabbro_rect,4,1.56,0,13,0,13,0,1,,,,,,,,,,,,,
5d74001d391b6600175f433b,TCR,2024-06-11_10h10.08.137,LearnStrategy,2023.2.3,MacIntel,60.24096386,5,1,15,0.102404514,0.00687066,1,0,0,0.6999,rock_grid_rect_2,6,05,-1,-1,0.7,-0.114709201,-0.407860243,1,0,0,1.1609,Pegmatite_rect,6,1.161,1,14,0,14,0,1,,,,,,,,,,,,,
5d74001d391b6600175f433b,TCR,2024-06-11_10h10.08.137,LearnStrategy,2023.2.3,MacIntel,60.24096386,5,1,16,0.094969618,0.002395833,1,0,0,1.048,rock_grid_rect_2,4,12,-1,-1,1.048,0.39187934,-0.268667535,1,0,0,1.1799,Gabbro_rect,4,1.18,1,15,0,15,0,1,,,,,,,,,,,,,
5d74001d391b6600175f433b,TCR,2024-06-11_10h10.08.137,LearnStrategy,2023.2.3,MacIntel,60.24096386,5,2,1,,,,,,,,4,15,,,,,,,,,,,4,2.124,1,,,,,,0.383689236,-0.244470486,1,0,0,2.1235,Gabbro_rect,0,0,0,0,1,
5d74001d391b6600175f433b,TCR,2024-06-11_10h10.08.137,LearnStrategy,2023.2.3,MacIntel,60.24096386,5,2,2,,,,,,,,7,14,,,,,,,,,,,7,1.075,1,,,,,,0.159309896,-0.414123264,1,0,0,1.0747,Peridotite_rect,1,0,1,0,1,
5d74001d391b6600175f433b,TCR,2024-06-11_10h10.08.137,LearnStrategy,2023.2.3,MacIntel,60.24096386,5,2,3,,,,,,,,4,08,,,,,,,,,,,1,6.391,0,,,,,,-0.38577691,-0.243268229,1,0,0,6.3908,Andesite_rect,2,0,2,0,1,
5d74001d391b6600175f433b,TCR,2024-06-11_10h10.08.137,LearnStrategy,2023.2.3,MacIntel,60.24096386,5,2,4,,,,,,,,8,04,,,,,,,,,,,8,1.225,1,,,,,,0.369605035,-0.420746528,1,0,0,1.2249,Pumice_rect,3,0,3,0,1,
5d74001d391b6600175f433b,TCR,2024-06-11_10h10.08.137,LearnStrategy,2023.2.3,MacIntel,60.24096386,5,2,5,,,,,,,,3,14,,,,,,,,,,,3,2.308,1,,,,,,0.115455729,-0.245529514,1,0,0,2.3083,Diorite_rect,4,0,4,0,1,
5d74001d391b6600175f433b,TCR,2024-06-11_10h10.08.137,LearnStrategy,2023.2.3,MacIntel,60.24096386,5,2,6,,,,,,,,6,08,,,,,,,,,,,6,1.041,1,,,,,,-0.087278646,-0.402144097,1,0,0,1.0414,Pegmatite_rect,5,0,5,0,1,
5d74001d391b6600175f433b,TCR,2024-06-11_10h10.08.137,LearnStrategy,2023.2.3,MacIntel,60.24096386,5,2,7,,,,,,,,2,12,,,,,,,,,,,2,2.21,1,,,,,,-0.123802083,-0.245655382,1,0,0,2.2099,Basalt_rect,6,0,6,0,1,
5d74001d391b6600175f433b,TCR,2024-06-11_10h10.08.137,LearnStrategy,2023.2.3,MacIntel,60.24096386,5,2,8,,,,,,,,7,02,,,,,,,,,,,7,1.792,1,,,,,,0.139726563,-0.401032986,1,0,0,1.7922,Peridotite_rect,7,0,7,0,1,
5d74001d391b6600175f433b,TCR,2024-06-11_10h10.08.137,LearnStrategy,2023.2.3,MacIntel,60.24096386,5,2,9,,,,,,,,5,05,,,,,,,,,,,5,1.16,1,,,,,,-0.395325521,-0.408780382,1,0,0,1.16,Obsidian_rect,8,0,8,0,1,
5d74001d391b6600175f433b,TCR,2024-06-11_10h10.08.137,LearnStrategy,2023.2.3,MacIntel,60.24096386,5,2,10,,,,,,,,8,05,,,,,,,,,,,8,1.026,1,,,,,,0.322100694,-0.41031684,1,0,0,1.0264,Pumice_rect,9,0,9,0,1,
5d74001d391b6600175f433b,TCR,2024-06-11_10h10.08.137,LearnStrategy,2023.2.3,MacIntel,60.24096386,5,2,11,,,,,,,,3,11,,,,,,,,,,,4,0.959,0,,,,,,0.337695313,-0.261362847,1,0,0,0.9591,Gabbro_rect,10,0,10,0,1,
5d74001d391b6600175f433b,TCR,2024-06-11_10h10.08.137,LearnStrategy,2023.2.3,MacIntel,60.24096386,5,2,12,,,,,,,,5,06,,,,,,,,,,,5,1.726,1,,,,,,-0.332513021,-0.391050347,1,0,0,1.7265,Obsidian_rect,11,0,11,0,1,
5d74001d391b6600175f433b,TCR,2024-06-11_10h10.08.137,LearnStrategy,2023.2.3,MacIntel,60.24096386,5,2,13,,,,,,,,2,04,,,,,,,,,,,2,1.175,1,,,,,,-0.125234375,-0.263875868,1,0,0,1.1753,Basalt_rect,12,0,12,0,1,
5d74001d391b6600175f433b,TCR,2024-06-11_10h10.08.137,LearnStrategy,2023.2.3,MacIntel,60.24096386,5,2,14,,,,,,,,6,06,,,,,,,,,,,6,1.909,1,,,,,,-0.137703993,-0.396432292,1,0,0,1.9092,Pegmatite_rect,13,0,13,0,1,
5d74001d391b6600175f433b,TCR,2024-06-11_10h10.08.137,LearnStrategy,2023.2.3,MacIntel,60.24096386,5,2,15,,,,,,,,1,06,,,,,,,,,,,1,2.158,1,,,,,,-0.335256076,-0.243888889,1,0,0,2.1584,Andesite_rect,14,0,14,0,1,
5d74001d391b6600175f433b,TCR,2024-06-11_10h10.08.137,LearnStrategy,2023.2.3,MacIntel,60.24096386,5,2,16,,,,,,,,1,04,,,,,,,,,,,1,1.575,1,,,,,,-0.335256076,-0.244696181,1,0,0,1.5747,Andesite_rect,15,0,15,0,1,
5d74001d391b6600175f433b,TCR,2024-06-11_10h10.08.137,LearnStrategy,2023.2.3,MacIntel,60.24096386,6,1,1,0.04093316,-0.004405382,1,0,0,0.7316,rock_grid_rect_2,1,09,-1,-1,0.732,-0.401280382,-0.259661458,1,0,0,3.1438,Andesite_rect,1,3.144,1,0,0,0,0,1,,,,,,,,,,,,,
5d74001d391b6600175f433b,TCR,2024-06-11_10h10.08.137,LearnStrategy,2023.2.3,MacIntel,60.24096386,6,1,2,-0.003671875,-0.004032118,1,0,0,0.6977,rock_grid_rect_2,4,10,-1,-1,0.698,0.378007812,-0.242591146,1,0,0,3.2936,Gabbro_rect,4,3.294,1,1,0,1,0,1,,,,,,,,,,,,,
5d74001d391b6600175f433b,TCR,2024-06-11_10h10.08.137,LearnStrategy,2023.2.3,MacIntel,60.24096386,6,1,3,0.137634549,-0.013546007,1,0,0,0.7818,rock_grid_rect_2,1,09,-1,-1,0.782,-0.322482639,-0.252842882,1,0,0,2.3775,Andesite_rect,1,2.378,1,2,0,2,0,1,,,,,,,,,,,,,
5d74001d391b6600175f433b,TCR,2024-06-11_10h10.08.137,LearnStrategy,2023.2.3,MacIntel,60.24096386,6,1,4,0.020963542,0.006684028,1,0,0,0.6814,rock_grid_rect_2,3,02,-1,-1,0.681,0.113728299,-0.240759549,1,0,0,0.9778,Diorite_rect,3,0.978,1,3,0,3,0,1,,,,,,,,,,,,,
5d74001d391b6600175f433b,TCR,2024-06-11_10h10.08.137,LearnStrategy,2023.2.3,MacIntel,60.24096386,6,1,5,0.083181424,0.00483941,1,0,0,0.6151,rock_grid_rect_2,4,10,-1,-1,0.615,0.42187066,-0.247921007,1,0,0,1.762,Gabbro_rect,4,1.762,1,4,0,4,0,1,,,,,,,,,,,,,
5d74001d391b6600175f433b,TCR,2024-06-11_10h10.08.137,LearnStrategy,2023.2.3,MacIntel,60.24096386,6,1,6,0.098945312,0.006892361,1,0,0,0.8322,rock_grid_rect_2,3,02,-1,-1,0.832,0.124856771,-0.253650174,1,0,0,1.1097,Diorite_rect,3,1.11,1,5,0,5,0,1,,,,,,,,,,,,,
5d74001d391b6600175f433b,TCR,2024-06-11_10h10.08.137,LearnStrategy,2023.2.3,MacIntel,60.24096386,6,1,7,0.073637153,-0.016814236,1,0,0,0.8157,rock_grid_rect_2,3,09,-1,-1,0.816,0.104804687,-0.244678819,1,0,0,2.9092,Diorite_rect,3,2.909,1,6,0,6,0,1,,,,,,,,,,,,,
5d74001d391b6600175f433b,TCR,2024-06-11_10h10.08.137,LearnStrategy,2023.2.3,MacIntel,60.24096386,6,1,8,0.080980903,-0.012356771,1,0,0,0.7485,rock_grid_rect_2,6,07,-1,-1,0.749,-0.116749132,-0.393181424,1,0,0,1.2427,Pegmatite_rect,6,1.243,1,7,0,7,0,1,,,,,,,,,,,,,
5d74001d391b6600175f433b,TCR,2024-06-11_10h10.08.137,LearnStrategy,2023.2.3,MacIntel,60.24096386,6,1,9,0.077413194,7.37847E-05,1,0,0,0.7153,rock_grid_rect_2,5,09,-1,-1,0.715,-0.311623264,-0.400203993,1,0,0,1.0291,Obsidian_rect,5,1.029,1,8,0,8,0,1,,,,,,,,,,,,,
5d74001d391b6600175f433b,TCR,2024-06-11_10h10.08.137,LearnStrategy,2023.2.3,MacIntel,60.24096386,6,1,10,0.064210069,-0.023294271,1,0,0,0.8654,rock_grid_rect_2,6,05,-1,-1,0.865,-0.1290625,-0.401019965,1,0,0,1.2105,Pegmatite_rect,6,1.211,1,9,0,9,0,1,,,,,,,,,,,,,
5d74001d391b6600175f433b,TCR,2024-06-11_10h10.08.137,LearnStrategy,2023.2.3,MacIntel,60.24096386,6,1,11,0.084644097,-0.000807292,1,0,0,0.7157,rock_grid_rect_2,1,05,-1,-1,0.716,0.402135417,-0.228068576,1,0,0,3.7938,Gabbro_rect,4,3.794,0,10,0,10,0,1,,,,,,,,,,,,,
5d74001d391b6600175f433b,TCR,2024-06-11_10h10.08.137,LearnStrategy,2023.2.3,MacIntel,60.24096386,6,1,12,0.065499132,-0.020520833,1,0,0,0.6979,rock_grid_rect_2,2,02,-1,-1,0.698,-0.121480035,-0.270638021,1,0,0,0.9111,Basalt_rect,2,0.911,1,11,0,11,0,1,,,,,,,,,,,,,
5d74001d391b6600175f433b,TCR,2024-06-11_10h10.08.137,LearnStrategy,2023.2.3,MacIntel,60.24096386,6,1,13,0.018133681,0.009765625,1,0,0,0.7309,rock_grid_rect_2,4,14,-1,-1,0.731,0.3778125,-0.2425,1,0,0,1.2453,Gabbro_rect,4,1.245,1,12,0,12,0,1,,,,,,,,,,,,,
5d74001d391b6600175f433b,TCR,2024-06-11_10h10.08.137,LearnStrategy,2023.2.3,MacIntel,60.24096386,6,1,14,0.050212674,-0.016046007,1,0,0,0.7163,rock_grid_rect_2,7,05,-1,-1,0.716,0.094986979,-0.41203559,1,0,0,1.3602,Peridotite_rect,7,1.36,1,13,0,13,0,1,,,,,,,,,,,,,
5d74001d391b6600175f433b,TCR,2024-06-11_10h10.08.137,LearnStrategy,2023.2.3,MacIntel,60.24096386,6,1,15,0.103576389,-0.01422309,1,0,0,0.7151,rock_grid_rect_2,4,05,-1,-1,0.715,0.37530816,-0.253819444,1,0,0,2.3812,Gabbro_rect,4,2.381,1,14,0,14,0,1,,,,,,,,,,,,,
5d74001d391b6600175f433b,TCR,2024-06-11_10h10.08.137,LearnStrategy,2023.2.3,MacIntel,60.24096386,6,1,16,0.108376736,-0.016792535,1,0,0,0.6984,rock_grid_rect_2,8,08,-1,-1,0.698,0.380837674,-0.413637153,1,0,0,1.3266,Pumice_rect,8,1.327,1,15,0,15,0,1,,,,,,,,,,,,,
5d74001d391b6600175f433b,TCR,2024-06-11_10h10.08.137,LearnStrategy,2023.2.3,MacIntel,60.24096386,6,2,1,,,,,,,,8,15,,,,,,,,,,,8,1.095,1,,,,,,0.391440972,-0.41156684,1,0,0,1.0949,Pumice_rect,0,0,0,0,1,
5d74001d391b6600175f433b,TCR,2024-06-11_10h10.08.137,LearnStrategy,2023.2.3,MacIntel,60.24096386,6,2,2,,,,,,,,3,07,,,,,,,,,,,3,5.009,1,,,,,,0.087078993,-0.260993924,1,0,0,5.0088,Diorite_rect,1,0,1,0,1,
5d74001d391b6600175f433b,TCR,2024-06-11_10h10.08.137,LearnStrategy,2023.2.3,MacIntel,60.24096386,6,2,3,,,,,,,,8,10,,,,,,,,,,,8,1.372,1,,,,,,0.337977431,-0.393151042,1,0,0,1.372,Pumice_rect,2,0,2,0,1,
5d74001d391b6600175f433b,TCR,2024-06-11_10h10.08.137,LearnStrategy,2023.2.3,MacIntel,60.24096386,6,2,4,,,,,,,,7,12,,,,,,,,,,,7,1.043,1,,,,,,0.139513889,-0.403567708,1,0,0,1.0434,Peridotite_rect,3,0,3,0,1,
5d74001d391b6600175f433b,TCR,2024-06-11_10h10.08.137,LearnStrategy,2023.2.3,MacIntel,60.24096386,6,2,5,,,,,,,,5,08,,,,,,,,,,,5,1.093,1,,,,,,-0.416154514,-0.389019097,1,0,0,1.0933,Obsidian_rect,4,0,4,0,1,
5d74001d391b6600175f433b,TCR,2024-06-11_10h10.08.137,LearnStrategy,2023.2.3,MacIntel,60.24096386,6,2,6,,,,,,,,4,09,,,,,,,,,,,4,1.825,1,,,,,,0.319123264,-0.241966146,1,0,0,1.8255,Gabbro_rect,5,0,5,0,1,
5d74001d391b6600175f433b,TCR,2024-06-11_10h10.08.137,LearnStrategy,2023.2.3,MacIntel,60.24096386,6,2,7,,,,,,,,2,06,,,,,,,,,,,2,0.825,1,,,,,,-0.070685764,-0.246493056,1,0,0,0.8255,Basalt_rect,6,0,6,0,1,
5d74001d391b6600175f433b,TCR,2024-06-11_10h10.08.137,LearnStrategy,2023.2.3,MacIntel,60.24096386,6,2,8,,,,,,,,2,16,,,,,,,,,,,2,1.392,1,,,,,,-0.070685764,-0.246493056,1,0,0,1.3924,Basalt_rect,7,0,7,0,1,
5d74001d391b6600175f433b,TCR,2024-06-11_10h10.08.137,LearnStrategy,2023.2.3,MacIntel,60.24096386,6,2,9,,,,,,,,6,15,,,,,,,,,,,6,0.993,1,,,,,,-0.117070312,-0.400685764,1,0,0,0.9932,Pegmatite_rect,8,0,8,0,1,
5d74001d391b6600175f433b,TCR,2024-06-11_10h10.08.137,LearnStrategy,2023.2.3,MacIntel,60.24096386,6,2,10,,,,,,,,7,06,,,,,,,,,,,7,0.726,1,,,,,,0.108706597,-0.405095486,1,0,0,0.7257,Peridotite_rect,9,0,9,0,1,
5d74001d391b6600175f433b,TCR,2024-06-11_10h10.08.137,LearnStrategy,2023.2.3,MacIntel,60.24096386,6,2,11,,,,,,,,6,11,,,,,,,,,,,6,0.858,1,,,,,,-0.097847222,-0.393411458,1,0,0,0.8584,Pegmatite_rect,10,0,10,0,1,
5d74001d391b6600175f433b,TCR,2024-06-11_10h10.08.137,LearnStrategy,2023.2.3,MacIntel,60.24096386,6,2,12,,,,,,,,4,16,,,,,,,,,,,4,4.242,1,,,,,,0.418059896,-0.237282986,1,0,0,4.242,Gabbro_rect,11,0,11,0,1,
5d74001d391b6600175f433b,TCR,2024-06-11_10h10.08.137,LearnStrategy,2023.2.3,MacIntel,60.24096386,6,2,13,,,,,,,,1,14,,,,,,,,,,,1,3.388,1,,,,,,-0.321848958,-0.270889757,1,0,0,3.3883,Andesite_rect,12,0,12,0,1,
5d74001d391b6600175f433b,TCR,2024-06-11_10h10.08.137,LearnStrategy,2023.2.3,MacIntel,60.24096386,6,2,14,,,,,,,,1,11,,,,,,,,,,,1,1.306,1,,,,,,-0.321848958,-0.270889757,1,0,0,1.3061,Andesite_rect,13,0,13,0,1,
5d74001d391b6600175f433b,TCR,2024-06-11_10h10.08.137,LearnStrategy,2023.2.3,MacIntel,60.24096386,6,2,15,,,,,,,,3,10,,,,,,,,,,,3,1.609,1,,,,,,0.102335069,-0.250824653,1,0,0,1.6091,Diorite_rect,14,0,14,0,1,
5d74001d391b6600175f433b,TCR,2024-06-11_10h10.08.137,LearnStrategy,2023.2.3,MacIntel,60.24096386,6,2,16,,,,,,,,5,11,,,,,,,,,,,5,1.061,1,,,,,,-0.328528646,-0.417868924,1,0,0,1.061,Obsidian_rect,15,0,15,0,1,
5d74001d391b6600175f433b,TCR,2024-06-11_10h10.08.137,LearnStrategy,2023.2.3,MacIntel,60.24096386,7,1,1,0.072009549,-0.023090278,1,0,0,0.7316,rock_grid_rect_2,3,06,-1,-1,0.732,0.093033854,-0.250299479,1,0,0,1.8121,Diorite_rect,3,1.812,1,0,0,0,0,1,,,,,,,,,,,,,
5d74001d391b6600175f433b,TCR,2024-06-11_10h10.08.137,LearnStrategy,2023.2.3,MacIntel,60.24096386,7,1,2,0.046757813,-0.019544271,1,0,0,0.8983,rock_grid_rect_2,3,16,-1,-1,0.898,-0.342482639,-0.242217882,1,0,0,2.145,Andesite_rect,1,2.145,0,1,0,1,0,1,,,,,,,,,,,,,
5d74001d391b6600175f433b,TCR,2024-06-11_10h10.08.137,LearnStrategy,2023.2.3,MacIntel,60.24096386,7,1,3,0.034422743,-0.015256076,1,0,0,0.8497,rock_grid_rect_2,2,01,-1,-1,0.85,-0.128953993,-0.262582465,1,0,0,0.7927,Basalt_rect,2,0.793,1,2,0,2,0,1,,,,,,,,,,,,,
5d74001d391b6600175f433b,TCR,2024-06-11_10h10.08.137,LearnStrategy,2023.2.3,MacIntel,60.24096386,7,1,4,-0.004921875,0.009835069,1,0,0,0.6654,rock_grid_rect_2,4,11,-1,-1,0.665,0.359414063,-0.270030382,1,0,0,1.9616,Gabbro_rect,4,1.962,1,3,0,3,0,1,,,,,,,,,,,,,
5d74001d391b6600175f433b,TCR,2024-06-11_10h10.08.137,LearnStrategy,2023.2.3,MacIntel,60.24096386,7,1,5,0.106892361,-0.003763021,1,0,0,0.6826,rock_grid_rect_2,5,16,-1,-1,0.683,-0.341671007,-0.402573785,1,0,0,1.3298,Obsidian_rect,5,1.33,1,4,0,4,0,1,,,,,,,,,,,,,
5d74001d391b6600175f433b,TCR,2024-06-11_10h10.08.137,LearnStrategy,2023.2.3,MacIntel,60.24096386,7,1,6,0.012330729,-0.011592882,1,0,0,0.7818,rock_grid_rect_2,4,14,-1,-1,0.782,0.413168403,-0.268220486,1,0,0,2.5799,Gabbro_rect,4,2.58,1,5,0,5,0,1,,,,,,,,,,,,,
5d74001d391b6600175f433b,TCR,2024-06-11_10h10.08.137,LearnStrategy,2023.2.3,MacIntel,60.24096386,7,1,7,0.078793403,-0.015507813,1,0,0,0.7818,rock_grid_rect_2,1,01,-1,-1,0.782,-0.362556424,-0.254726562,1,0,0,1.211,Andesite_rect,1,1.211,1,6,0,6,0,1,,,,,,,,,,,,,
5d74001d391b6600175f433b,TCR,2024-06-11_10h10.08.137,LearnStrategy,2023.2.3,MacIntel,60.24096386,7,1,8,0.011228299,-0.013159722,1,0,0,0.6493,rock_grid_rect_2,1,01,-1,-1,0.649,-0.310516493,-0.261467014,1,0,0,0.7639,Andesite_rect,1,0.764,1,7,0,7,0,1,,,,,,,,,,,,,
5d74001d391b6600175f433b,TCR,2024-06-11_10h10.08.137,LearnStrategy,2023.2.3,MacIntel,60.24096386,7,1,9,0.022764757,-0.009761285,1,0,0,0.6997,rock_grid_rect_2,7,13,-1,-1,0.7,0.129678819,-0.404361979,1,0,0,1.044,Peridotite_rect,7,1.044,1,8,0,8,0,1,,,,,,,,,,,,,
5d74001d391b6600175f433b,TCR,2024-06-11_10h10.08.137,LearnStrategy,2023.2.3,MacIntel,60.24096386,7,1,10,0.017296007,-0.010169271,1,0,0,0.7646,rock_grid_rect_2,6,07,-1,-1,0.765,-0.095828993,-0.392508681,1,0,0,1.0611,Pegmatite_rect,6,1.061,1,9,0,9,0,1,,,,,,,,,,,,,
5d74001d391b6600175f433b,TCR,2024-06-11_10h10.08.137,LearnStrategy,2023.2.3,MacIntel,60.24096386,7,1,11,0.034331597,-0.010056424,1,0,0,0.7321,rock_grid_rect_2,6,16,-1,-1,0.732,-0.10234375,-0.394236111,1,0,0,1.0815,Pegmatite_rect,6,1.082,1,10,0,10,0,1,,,,,,,,,,,,,
5d74001d391b6600175f433b,TCR,2024-06-11_10h10.08.137,LearnStrategy,2023.2.3,MacIntel,60.24096386,7,1,12,0.017673611,-0.010264757,1,0,0,0.6657,rock_grid_rect_2,8,06,-1,-1,0.666,0.375963542,-0.397248264,1,0,0,0.9437,Pumice_rect,8,0.944,1,11,0,11,0,1,,,,,,,,,,,,,
5d74001d391b6600175f433b,TCR,2024-06-11_10h10.08.137,LearnStrategy,2023.2.3,MacIntel,60.24096386,7,1,13,0.057743056,-0.017578125,1,0,0,0.732,rock_grid_rect_2,3,06,-1,-1,0.732,0.105026042,-0.258771701,1,0,0,1.5125,Diorite_rect,3,1.512,1,12,0,12,0,1,,,,,,,,,,,,,
5d74001d391b6600175f433b,TCR,2024-06-11_10h10.08.137,LearnStrategy,2023.2.3,MacIntel,60.24096386,7,1,14,0.089791667,0.006419271,1,0,0,0.7485,rock_grid_rect_2,4,05,-1,-1,0.749,0.366132813,-0.261610243,1,0,0,1.1957,Gabbro_rect,4,1.196,1,13,0,13,0,1,,,,,,,,,,,,,
5d74001d391b6600175f433b,TCR,2024-06-11_10h10.08.137,LearnStrategy,2023.2.3,MacIntel,60.24096386,7,1,15,0.057039931,-0.000807292,1,0,0,0.732,rock_grid_rect_2,4,05,-1,-1,0.732,0.335950521,-0.245859375,1,0,0,1.1605,Gabbro_rect,4,1.161,1,14,0,14,0,1,,,,,,,,,,,,,
5d74001d391b6600175f433b,TCR,2024-06-11_10h10.08.137,LearnStrategy,2023.2.3,MacIntel,60.24096386,7,1,16,0.093758681,-0.012356771,1,0,0,0.6488,rock_grid_rect_2,1,16,-1,-1,0.649,-0.314396701,-0.253884549,1,0,0,1.6282,Andesite_rect,1,1.628,1,15,0,15,0,1,,,,,,,,,,,,,
5d74001d391b6600175f433b,TCR,2024-06-11_10h10.08.137,LearnStrategy,2023.2.3,MacIntel,60.24096386,7,2,1,,,,,,,,6,09,,,,,,,,,,,6,3.959,1,,,,,,-0.077925347,-0.396736111,1,0,0,3.959,Pegmatite_rect,0,0,0,0,1,
5d74001d391b6600175f433b,TCR,2024-06-11_10h10.08.137,LearnStrategy,2023.2.3,MacIntel,60.24096386,7,2,2,,,,,,,,7,12,,,,,,,,,,,7,1.738,1,,,,,,0.118077257,-0.383945313,1,0,0,1.7379,Peridotite_rect,1,0,1,0,1,
5d74001d391b6600175f433b,TCR,2024-06-11_10h10.08.137,LearnStrategy,2023.2.3,MacIntel,60.24096386,7,2,3,,,,,,,,5,05,,,,,,,,,,,5,1.525,1,,,,,,-0.380976563,-0.396701389,1,0,0,1.5253,Obsidian_rect,2,0,2,0,1,
5d74001d391b6600175f433b,TCR,2024-06-11_10h10.08.137,LearnStrategy,2023.2.3,MacIntel,60.24096386,7,2,4,,,,,,,,2,12,,,,,,,,,,,8,4.408,0,,,,,,0.392712674,-0.386302083,1,0,0,4.4081,Pumice_rect,3,0,3,0,1,
5d74001d391b6600175f433b,TCR,2024-06-11_10h10.08.137,LearnStrategy,2023.2.3,MacIntel,60.24096386,7,2,5,,,,,,,,2,06,,,,,,,,,,,2,0.939,1,,,,,,-0.105091146,-0.248355035,1,0,0,0.9388,Basalt_rect,4,0,4,0,1,
5d74001d391b6600175f433b,TCR,2024-06-11_10h10.08.137,LearnStrategy,2023.2.3,MacIntel,60.24096386,7,2,6,,,,,,,,4,01,,,,,,,,,,,1,2.026,0,,,,,,-0.326762153,-0.267699653,1,0,0,2.0258,Andesite_rect,5,0,5,0,1,
5d74001d391b6600175f433b,TCR,2024-06-11_10h10.08.137,LearnStrategy,2023.2.3,MacIntel,60.24096386,7,2,7,,,,,,,,4,15,,,,,,,,,,,4,0.939,1,,,,,,0.306501736,-0.228719618,1,0,0,0.9388,Gabbro_rect,6,0,6,0,1,
5d74001d391b6600175f433b,TCR,2024-06-11_10h10.08.137,LearnStrategy,2023.2.3,MacIntel,60.24096386,7,2,8,,,,,,,,5,07,,,,,,,,,,,5,1.561,1,,,,,,-0.376176215,-0.415789931,1,0,0,1.561,Obsidian_rect,7,0,7,0,1,
5d74001d391b6600175f433b,TCR,2024-06-11_10h10.08.137,LearnStrategy,2023.2.3,MacIntel,60.24096386,7,2,9,,,,,,,,7,06,,,,,,,,,,,7,1.558,1,,,,,,0.102430556,-0.40546875,1,0,0,1.5583,Peridotite_rect,8,0,8,0,1,
5d74001d391b6600175f433b,TCR,2024-06-11_10h10.08.137,LearnStrategy,2023.2.3,MacIntel,60.24096386,7,2,10,,,,,,,,8,04,,,,,,,,,,,8,0.909,1,,,,,,0.345451389,-0.378671875,1,0,0,0.9094,Pumice_rect,9,0,9,0,1,
5d74001d391b6600175f433b,TCR,2024-06-11_10h10.08.137,LearnStrategy,2023.2.3,MacIntel,60.24096386,7,2,11,,,,,,,,6,15,,,,,,,,,,,6,1.11,1,,,,,,-0.083723958,-0.401206597,1,0,0,1.1099,Pegmatite_rect,10,0,10,0,1,
5d74001d391b6600175f433b,TCR,2024-06-11_10h10.08.137,LearnStrategy,2023.2.3,MacIntel,60.24096386,7,2,12,,,,,,,,8,05,,,,,,,,,,,8,0.976,1,,,,,,0.336792535,-0.397309028,1,0,0,0.9757,Pumice_rect,11,0,11,0,1,
5d74001d391b6600175f433b,TCR,2024-06-11_10h10.08.137,LearnStrategy,2023.2.3,MacIntel,60.24096386,7,2,13,,,,,,,,3,14,,,,,,,,,,,3,0.876,1,,,,,,0.14296441,-0.265881076,1,0,0,0.8756,Diorite_rect,12,0,12,0,1,
5d74001d391b6600175f433b,TCR,2024-06-11_10h10.08.137,LearnStrategy,2023.2.3,MacIntel,60.24096386,7,2,14,,,,,,,,3,07,,,,,,,,,,,3,0.841,1,,,,,,0.14296441,-0.265881076,1,0,0,0.8413,Diorite_rect,13,0,13,0,1,
5d74001d391b6600175f433b,TCR,2024-06-11_10h10.08.137,LearnStrategy,2023.2.3,MacIntel,60.24096386,7,2,15,,,,,,,,1,07,,,,,,,,,,,1,1.308,1,,,,,,-0.321375868,-0.270043403,1,0,0,1.3083,Andesite_rect,14,0,14,0,1,
5d74001d391b6600175f433b,TCR,2024-06-11_10h10.08.137,LearnStrategy,2023.2.3,MacIntel,60.24096386,7,2,16,,,,,,,,1,04,,,,,,,,,,,1,0.859,1,,,,,,-0.321375868,-0.270043403,1,0,0,0.859,Andesite_rect,15,0,15,0,1,
5d74001d391b6600175f433b,TCR,2024-06-11_10h10.08.137,LearnStrategy,2023.2.3,MacIntel,60.24096386,8,1,1,0.036054688,0.015013021,1,0,0,0.6316,rock_grid_rect_2,6,07,-1,-1,0.632,-0.071857639,-0.404913194,1,0,0,1.1766,Pegmatite_rect,6,1.177,1,0,0,0,0,1,,,,,,,,,,,,,
5d74001d391b6600175f433b,TCR,2024-06-11_10h10.08.137,LearnStrategy,2023.2.3,MacIntel,60.24096386,8,1,2,0.029162326,-0.019813368,1,0,0,1.2489,rock_grid_rect_2,5,02,-1,-1,1.249,-0.346445312,-0.397994792,1,0,0,0.8945,Obsidian_rect,5,0.894,1,1,0,1,0,1,,,,,,,,,,,,,
5d74001d391b6600175f433b,TCR,2024-06-11_10h10.08.137,LearnStrategy,2023.2.3,MacIntel,60.24096386,8,1,3,-0.028090278,0.012296007,1,0,0,0.6317,rock_grid_rect_2,1,03,-1,-1,0.632,-0.317803819,-0.254396701,1,0,0,1.7771,Andesite_rect,1,1.777,1,2,0,2,0,1,,,,,,,,,,,,,
5d74001d391b6600175f433b,TCR,2024-06-11_10h10.08.137,LearnStrategy,2023.2.3,MacIntel,60.24096386,8,1,4,-0.007547743,-0.016241319,1,0,0,0.6484,rock_grid_rect_2,3,06,-1,-1,0.648,0.124635417,-0.255221354,1,0,0,1.0279,Diorite_rect,3,1.028,1,3,0,3,0,1,,,,,,,,,,,,,
5d74001d391b6600175f433b,TCR,2024-06-11_10h10.08.137,LearnStrategy,2023.2.3,MacIntel,60.24096386,8,1,5,-0.007851562,-0.010842014,1,0,0,0.7651,rock_grid_rect_2,4,05,-1,-1,0.765,0.358485243,-0.247456597,1,0,0,0.8946,Gabbro_rect,4,0.895,1,4,0,4,0,1,,,,,,,,,,,,,
5d74001d391b6600175f433b,TCR,2024-06-11_10h10.08.137,LearnStrategy,2023.2.3,MacIntel,60.24096386,8,1,6,-0.011770833,-0.013328993,1,0,0,0.7155,rock_grid_rect_2,6,10,-1,-1,0.715,0.094422743,-0.406918403,1,0,0,1.3946,Peridotite_rect,7,1.395,0,5,0,5,0,1,,,,,,,,,,,,,
5d74001d391b6600175f433b,TCR,2024-06-11_10h10.08.137,LearnStrategy,2023.2.3,MacIntel,60.24096386,8,1,7,0.058511285,-0.017135417,1,0,0,0.915,rock_grid_rect_2,2,11,-1,-1,0.915,-0.079644097,-0.244262153,1,0,0,1.1104,Basalt_rect,2,1.11,1,6,0,6,0,1,,,,,,,,,,,,,
5d74001d391b6600175f433b,TCR,2024-06-11_10h10.08.137,LearnStrategy,2023.2.3,MacIntel,60.24096386,8,1,8,0.030390625,-0.013841146,1,0,0,0.9814,rock_grid_rect_2,4,14,-1,-1,0.981,0.376679688,-0.256384549,1,0,0,1.9627,Gabbro_rect,4,1.963,1,7,0,7,0,1,,,,,,,,,,,,,
5d74001d391b6600175f433b,TCR,2024-06-11_10h10.08.137,LearnStrategy,2023.2.3,MacIntel,60.24096386,8,1,9,-0.044483507,-0.004040799,1,0,0,0.8319,rock_grid_rect_2,3,13,-1,-1,0.832,-0.129626736,-0.391050347,1,0,0,1.2957,Pegmatite_rect,6,1.296,0,8,0,8,0,1,,,,,,,,,,,,,
5d74001d391b6600175f433b,TCR,2024-06-11_10h10.08.137,LearnStrategy,2023.2.3,MacIntel,60.24096386,8,1,10,0.028272569,-0.010894097,1,0,0,0.7984,rock_grid_rect_2,2,14,-1,-1,0.798,-0.070412326,-0.26515191,1,0,0,2.4788,Basalt_rect,2,2.479,1,9,0,9,0,1,,,,,,,,,,,,,
5d74001d391b6600175f433b,TCR,2024-06-11_10h10.08.137,LearnStrategy,2023.2.3,MacIntel,60.24096386,8,1,11,-0.019661458,-0.002717014,1,0,0,1.2478,rock_grid_rect_2,4,13,-1,-1,1.248,0.430360243,-0.24125,1,0,0,1.029,Gabbro_rect,4,1.029,1,10,0,10,0,1,,,,,,,,,,,,,
5d74001d391b6600175f433b,TCR,2024-06-11_10h10.08.137,LearnStrategy,2023.2.3,MacIntel,60.24096386,8,1,12,0.035646701,0.004440104,1,0,0,0.6149,rock_grid_rect_2,2,14,-1,-1,0.615,-0.053381076,-0.241258681,1,0,0,2.7609,Basalt_rect,2,2.761,1,11,0,11,0,1,,,,,,,,,,,,,
5d74001d391b6600175f433b,TCR,2024-06-11_10h10.08.137,LearnStrategy,2023.2.3,MacIntel,60.24096386,8,1,13,0.068428819,0.005507812,1,0,0,0.7986,rock_grid_rect_2,8,08,-1,-1,0.799,0.351423611,-0.400677083,1,0,0,1.3944,Pumice_rect,8,1.394,1,12,0,12,0,1,,,,,,,,,,,,,
5d74001d391b6600175f433b,TCR,2024-06-11_10h10.08.137,LearnStrategy,2023.2.3,MacIntel,60.24096386,8,1,14,0.056128472,0.002447917,1,0,0,0.7651,rock_grid_rect_2,1,03,-1,-1,0.765,-0.359791667,-0.254097222,1,0,0,1.2779,Andesite_rect,1,1.278,1,13,0,13,0,1,,,,,,,,,,,,,
5d74001d391b6600175f433b,TCR,2024-06-11_10h10.08.137,LearnStrategy,2023.2.3,MacIntel,60.24096386,8,1,15,-0.000282118,0.007296007,1,0,0,0.6151,rock_grid_rect_2,7,07,-1,-1,0.615,0.10844184,-0.420499132,1,0,0,1.2266,Peridotite_rect,7,1.227,1,14,0,14,0,1,,,,,,,,,,,,,
5d74001d391b6600175f433b,TCR,2024-06-11_10h10.08.137,LearnStrategy,2023.2.3,MacIntel,60.24096386,8,1,16,0.032404514,-0.009344618,1,0,0,0.7818,rock_grid_rect_2,4,11,-1,-1,0.782,-0.305789931,-0.236310764,1,0,0,3.7272,Andesite_rect,1,3.727,0,15,0,15,0,1,,,,,,,,,,,,,
5d74001d391b6600175f433b,TCR,2024-06-11_10h10.08.137,LearnStrategy,2023.2.3,MacIntel,60.24096386,8,2,1,,,,,,,,3,12,,,,,,,,,,,3,1.309,1,,,,,,0.099934896,-0.242717014,1,0,0,1.3088,Diorite_rect,0,0,0,0,1,
5d74001d391b6600175f433b,TCR,2024-06-11_10h10.08.137,LearnStrategy,2023.2.3,MacIntel,60.24096386,8,2,2,,,,,,,,4,09,,,,,,,,,,,4,4.76,1,,,,,,0.334461806,-0.247886285,1,0,0,4.7601,Gabbro_rect,1,0,1,0,1,
5d74001d391b6600175f433b,TCR,2024-06-11_10h10.08.137,LearnStrategy,2023.2.3,MacIntel,60.24096386,8,2,3,,,,,,,,5,08,,,,,,,,,,,5,1.043,1,,,,,,-0.313532986,-0.3884375,1,0,0,1.0433,Obsidian_rect,2,0,2,0,1,
5d74001d391b6600175f433b,TCR,2024-06-11_10h10.08.137,LearnStrategy,2023.2.3,MacIntel,60.24096386,8,2,4,,,,,,,,7,14,,,,,,,,,,,7,0.959,1,,,,,,0.048927951,-0.388055556,1,0,0,0.9586,Peridotite_rect,3,0,3,0,1,
5d74001d391b6600175f433b,TCR,2024-06-11_10h10.08.137,LearnStrategy,2023.2.3,MacIntel,60.24096386,8,2,5,,,,,,,,5,11,,,,,,,,,,,5,1.008,1,,,,,,-0.500889757,-0.402907986,1,0,0,1.0083,Obsidian_rect,4,0,4,0,1,
5d74001d391b6600175f433b,TCR,2024-06-11_10h10.08.137,LearnStrategy,2023.2.3,MacIntel,60.24096386,8,2,6,,,,,,,,1,11,,,,,,,,,,,1,1.398,1,,,,,,-0.433402778,-0.269934896,1,0,0,1.3976,Andesite_rect,5,0,5,0,1,
5d74001d391b6600175f433b,TCR,2024-06-11_10h10.08.137,LearnStrategy,2023.2.3,MacIntel,60.24096386,8,2,7,,,,,,,,6,03,,,,,,,,,,,6,2.724,1,,,,,,-0.178858507,-0.406362847,1,0,0,2.7243,Pegmatite_rect,6,0,6,0,1,
5d74001d391b6600175f433b,TCR,2024-06-11_10h10.08.137,LearnStrategy,2023.2.3,MacIntel,60.24096386,8,2,8,,,,,,,,4,03,,,,,,,,,,,4,2.76,1,,,,,,0.357612847,-0.264149306,1,0,0,2.7599,Gabbro_rect,7,0,7,0,1,
5d74001d391b6600175f433b,TCR,2024-06-11_10h10.08.137,LearnStrategy,2023.2.3,MacIntel,60.24096386,8,2,9,,,,,,,,1,02,,,,,,,,,,,3,2.322,0,,,,,,0.130112847,-0.255199653,1,0,0,2.3224,Diorite_rect,8,0,8,0,1,
5d74001d391b6600175f433b,TCR,2024-06-11_10h10.08.137,LearnStrategy,2023.2.3,MacIntel,60.24096386,8,2,10,,,,,,,,2,04,,,,,,,,,,,2,0.909,1,,,,,,-0.117634549,-0.238498264,1,0,0,0.9091,Basalt_rect,9,0,9,0,1,
5d74001d391b6600175f433b,TCR,2024-06-11_10h10.08.137,LearnStrategy,2023.2.3,MacIntel,60.24096386,8,2,11,,,,,,,,8,14,,,,,,,,,,,8,0.976,1,,,,,,0.333138021,-0.41515191,1,0,0,0.9762,Pumice_rect,10,0,10,0,1,
5d74001d391b6600175f433b,TCR,2024-06-11_10h10.08.137,LearnStrategy,2023.2.3,MacIntel,60.24096386,8,2,12,,,,,,,,3,15,,,,,,,,,,,3,1.541,1,,,,,,0.095195313,-0.258953993,1,0,0,1.5415,Diorite_rect,11,0,11,0,1,
5d74001d391b6600175f433b,TCR,2024-06-11_10h10.08.137,LearnStrategy,2023.2.3,MacIntel,60.24096386,8,2,13,,,,,,,,2,16,,,,,,,,,,,2,1.007,1,,,,,,-0.105230035,-0.264210069,1,0,0,1.0074,Basalt_rect,12,0,12,0,1,
5d74001d391b6600175f433b,TCR,2024-06-11_10h10.08.137,LearnStrategy,2023.2.3,MacIntel,60.24096386,8,2,14,,,,,,,,6,11,,,,,,,,,,,6,0.975,1,,,,,,-0.133294271,-0.400763889,1,0,0,0.9747,Pegmatite_rect,13,0,13,0,1,
5d74001d391b6600175f433b,TCR,2024-06-11_10h10.08.137,LearnStrategy,2023.2.3,MacIntel,60.24096386,8,2,15,,,,,,,,7,08,,,,,,,,,,,7,0.825,1,,,,,,0.098702257,-0.406835938,1,0,0,0.8246,Peridotite_rect,14,0,14,0,1,
5d74001d391b6600175f433b,TCR,2024-06-11_10h10.08.137,LearnStrategy,2023.2.3,MacIntel,60.24096386,8,2,16,,,,,,,,8,10,,,,,,,,,,,8,0.876,1,,,,,,0.310611979,-0.405520833,1,0,0,0.8758,Pumice_rect,15,0,15,0,1,
5d74001d391b6600175f433b,TCR,2024-06-11_10h10.08.137,LearnStrategy,2023.2.3,MacIntel,60.24096386,9,1,1,0.1253125,-0.003033854,1,0,0,1.2818,rock_grid_rect_2,1,16,-1,-1,1.282,-0.296119792,-0.254578993,1,0,0,2.6451,Andesite_rect,1,2.645,1,0,0,0,0,1,,,,,,,,,,,,,
5d74001d391b6600175f433b,TCR,2024-06-11_10h10.08.137,LearnStrategy,2023.2.3,MacIntel,60.24096386,9,1,2,0.038728299,-0.009353299,1,0,0,0.9649,rock_grid_rect_2,1,03,-1,-1,0.965,-0.316236979,-0.236154514,1,0,0,1.0979,Andesite_rect,1,1.098,1,1,0,1,0,1,,,,,,,,,,,,,
5d74001d391b6600175f433b,TCR,2024-06-11_10h10.08.137,LearnStrategy,2023.2.3,MacIntel,60.24096386,9,1,3,0.018953993,-0.012100694,1,0,0,0.6817,rock_grid_rect_2,2,09,-1,-1,0.682,-0.101992187,-0.258619792,1,0,0,1.2453,Basalt_rect,2,1.245,1,2,0,2,0,1,,,,,,,,,,,,,
5d74001d391b6600175f433b,TCR,2024-06-11_10h10.08.137,LearnStrategy,2023.2.3,MacIntel,60.24096386,9,1,4,0.037369792,-0.002526042,1,0,0,0.6646,rock_grid_rect_2,3,08,-1,-1,0.665,0.109874132,-0.254652778,1,0,0,1.145,Diorite_rect,3,1.145,1,3,0,3,0,1,,,,,,,,,,,,,
5d74001d391b6600175f433b,TCR,2024-06-11_10h10.08.137,LearnStrategy,2023.2.3,MacIntel,60.24096386,9,1,5,0.064366319,0.005529514,1,0,0,0.6983,rock_grid_rect_2,4,14,-1,-1,0.698,0.395833333,-0.245742187,1,0,0,1.1311,Gabbro_rect,4,1.131,1,4,0,4,0,1,,,,,,,,,,,,,
5d74001d391b6600175f433b,TCR,2024-06-11_10h10.08.137,LearnStrategy,2023.2.3,MacIntel,60.24096386,9,1,6,0.103793403,-0.009713542,1,0,0,0.7983,rock_grid_rect_2,2,08,-1,-1,0.798,-0.069205729,-0.256901042,1,0,0,0.9102,Basalt_rect,2,0.91,1,5,0,5,0,1,,,,,,,,,,,,,
5d74001d391b6600175f433b,TCR,2024-06-11_10h10.08.137,LearnStrategy,2023.2.3,MacIntel,60.24096386,9,1,7,0.039466146,-0.005251736,1,0,0,0.6318,rock_grid_rect_2,3,06,-1,-1,0.632,0.153029514,-0.231193576,1,0,0,1.1114,Diorite_rect,3,1.111,1,6,0,6,0,1,,,,,,,,,,,,,
5d74001d391b6600175f433b,TCR,2024-06-11_10h10.08.137,LearnStrategy,2023.2.3,MacIntel,60.24096386,9,1,8,0.055594618,-0.005755208,1,0,0,0.7483,rock_grid_rect_2,2,02,-1,-1,0.748,-0.21265191,-0.241644965,1,0,0,1.1438,Basalt_rect,2,1.144,1,7,0,7,0,1,,,,,,,,,,,,,
5d74001d391b6600175f433b,TCR,2024-06-11_10h10.08.137,LearnStrategy,2023.2.3,MacIntel,60.24096386,9,1,9,0.056749132,-0.009861111,1,0,0,0.7315,rock_grid_rect_2,4,10,-1,-1,0.731,0.379040799,-0.249075521,1,0,0,1.4959,Gabbro_rect,4,1.496,1,8,0,8,0,1,,,,,,,,,,,,,
5d74001d391b6600175f433b,TCR,2024-06-11_10h10.08.137,LearnStrategy,2023.2.3,MacIntel,60.24096386,9,1,10,0.108025174,-0.010694444,1,0,0,0.9821,rock_grid_rect_2,7,13,-1,-1,0.982,0.080915799,-0.408776042,1,0,0,1.1445,Peridotite_rect,7,1.144,1,9,0,9,0,1,,,,,,,,,,,,,
5d74001d391b6600175f433b,TCR,2024-06-11_10h10.08.137,LearnStrategy,2023.2.3,MacIntel,60.24096386,9,1,11,0.069427083,-0.020872396,1,0,0,0.8143,rock_grid_rect_2,1,09,-1,-1,0.814,-0.350256076,-0.246736111,1,0,0,2.0955,Andesite_rect,1,2.096,1,10,0,10,0,1,,,,,,,,,,,,,
5d74001d391b6600175f433b,TCR,2024-06-11_10h10.08.137,LearnStrategy,2023.2.3,MacIntel,60.24096386,9,1,12,0.059717882,0.012851563,1,0,0,0.6988,rock_grid_rect_2,5,16,-1,-1,0.699,-0.330707465,-0.382630208,1,0,0,0.9276,Obsidian_rect,5,0.928,1,11,0,11,0,1,,,,,,,,,,,,,
5d74001d391b6600175f433b,TCR,2024-06-11_10h10.08.137,LearnStrategy,2023.2.3,MacIntel,60.24096386,9,1,13,0.084700521,-0.002894965,1,0,0,0.731,rock_grid_rect_2,4,11,-1,-1,0.731,0.412664931,-0.263658854,1,0,0,1.9794,Gabbro_rect,4,1.979,1,12,0,12,0,1,,,,,,,,,,,,,
5d74001d391b6600175f433b,TCR,2024-06-11_10h10.08.137,LearnStrategy,2023.2.3,MacIntel,60.24096386,9,1,14,0.099092882,-0.018815104,1,0,0,0.7485,rock_grid_rect_2,1,16,-1,-1,0.748,0.101779514,-0.236501736,1,0,0,1.2466,Diorite_rect,3,1.247,0,13,0,13,0,1,,,,,,,,,,,,,
5d74001d391b6600175f433b,TCR,2024-06-11_10h10.08.137,LearnStrategy,2023.2.3,MacIntel,60.24096386,9,1,15,0.118111979,-0.010108507,1,0,0,1.0663,rock_grid_rect_2,8,16,-1,-1,1.066,0.390585937,-0.394743924,1,0,0,1.4265,Pumice_rect,8,1.427,1,14,0,14,0,1,,,,,,,,,,,,,
5d74001d391b6600175f433b,TCR,2024-06-11_10h10.08.137,LearnStrategy,2023.2.3,MacIntel,60.24096386,9,1,16,0.016840278,-0.00390191,1,0,0,0.8818,rock_grid_rect_2,6,05,-1,-1,0.882,-0.103003472,-0.386054687,1,0,0,0.9788,Pegmatite_rect,6,0.979,1,15,0,15,0,1,,,,,,,,,,,,,
5d74001d391b6600175f433b,TCR,2024-06-11_10h10.08.137,LearnStrategy,2023.2.3,MacIntel,60.24096386,9,2,1,,,,,,,,7,02,,,,,,,,,,,7,1.325,1,,,,,,0.119179688,-0.412126736,1,0,0,1.3252,Peridotite_rect,0,0,0,0,1,
5d74001d391b6600175f433b,TCR,2024-06-11_10h10.08.137,LearnStrategy,2023.2.3,MacIntel,60.24096386,9,2,2,,,,,,,,7,15,,,,,,,,,,,7,0.676,1,,,,,,0.119179688,-0.412126736,1,0,0,0.676,Peridotite_rect,1,0,1,0,1,
5d74001d391b6600175f433b,TCR,2024-06-11_10h10.08.137,LearnStrategy,2023.2.3,MacIntel,60.24096386,9,2,3,,,,,,,,6,06,,,,,,,,,,,3,5.992,0,,,,,,0.072278646,-0.258832465,1,0,0,5.9918,Diorite_rect,2,0,2,0,1,
5d74001d391b6600175f433b,TCR,2024-06-11_10h10.08.137,LearnStrategy,2023.2.3,MacIntel,60.24096386,9,2,4,,,,,,,,5,06,,,,,,,,,,,5,1.188,1,,,,,,-0.304631076,-0.405182292,1,0,0,1.1884,Obsidian_rect,3,0,3,0,1,
5d74001d391b6600175f433b,TCR,2024-06-11_10h10.08.137,LearnStrategy,2023.2.3,MacIntel,60.24096386,9,2,5,,,,,,,,8,13,,,,,,,,,,,8,1.526,1,,,,,,0.370394965,-0.417699653,1,0,0,1.5264,Pumice_rect,4,0,4,0,1,
5d74001d391b6600175f433b,TCR,2024-06-11_10h10.08.137,LearnStrategy,2023.2.3,MacIntel,60.24096386,9,2,6,,,,,,,,3,10,,,,,,,,,,,1,3.444,0,,,,,,-0.308467882,-0.263411458,1,0,0,3.444,Andesite_rect,5,0,5,0,1,
5d74001d391b6600175f433b,TCR,2024-06-11_10h10.08.137,LearnStrategy,2023.2.3,MacIntel,60.24096386,9,2,7,,,,,,,,5,12,,,,,,,,,,,5,1.27,1,,,,,,-0.320668403,-0.388884549,1,0,0,1.2705,Obsidian_rect,6,0,6,0,1,
5d74001d391b6600175f433b,TCR,2024-06-11_10h10.08.137,LearnStrategy,2023.2.3,MacIntel,60.24096386,9,2,8,,,,,,,,8,15,,,,,,,,,,,8,1.559,1,,,,,,0.437287326,-0.401684028,1,0,0,1.5588,Pumice_rect,7,0,7,0,1,
5d74001d391b6600175f433b,TCR,2024-06-11_10h10.08.137,LearnStrategy,2023.2.3,MacIntel,60.24096386,9,2,9,,,,,,,,4,08,,,,,,,,,,,4,0.925,1,,,,,,0.405355903,-0.264049479,1,0,0,0.9255,Gabbro_rect,8,0,8,0,1,
5d74001d391b6600175f433b,TCR,2024-06-11_10h10.08.137,LearnStrategy,2023.2.3,MacIntel,60.24096386,9,2,10,,,,,,,,2,05,,,,,,,,,,,2,1.861,1,,,,,,-0.138385417,-0.244322917,1,0,0,1.861,Basalt_rect,9,0,9,0,1,
5d74001d391b6600175f433b,TCR,2024-06-11_10h10.08.137,LearnStrategy,2023.2.3,MacIntel,60.24096386,9,2,11,,,,,,,,2,10,,,,,,,,,,,2,1.043,1,,,,,,-0.138385417,-0.244322917,1,0,0,1.0428,Basalt_rect,10,0,10,0,1,
5d74001d391b6600175f433b,TCR,2024-06-11_10h10.08.137,LearnStrategy,2023.2.3,MacIntel,60.24096386,9,2,12,,,,,,,,1,14,,,,,,,,,,,3,2.293,0,,,,,,0.079631076,-0.257196181,1,0,0,2.2928,Diorite_rect,11,0,11,0,1,
5d74001d391b6600175f433b,TCR,2024-06-11_10h10.08.137,LearnStrategy,2023.2.3,MacIntel,60.24096386,9,2,13,,,,,,,,1,06,,,,,,,,,,,1,1.192,1,,,,,,-0.317460937,-0.270217014,1,0,0,1.1924,Andesite_rect,12,0,12,0,1,
5d74001d391b6600175f433b,TCR,2024-06-11_10h10.08.137,LearnStrategy,2023.2.3,MacIntel,60.24096386,9,2,14,,,,,,,,4,16,,,,,,,,,,,2,1.293,0,,,,,,-0.172309028,-0.261436632,1,0,0,1.2931,Basalt_rect,13,0,13,0,1,
5d74001d391b6600175f433b,TCR,2024-06-11_10h10.08.137,LearnStrategy,2023.2.3,MacIntel,60.24096386,9,2,15,,,,,,,,6,08,,,,,,,,,,,6,0.909,1,,,,,,-0.143077257,-0.408650174,1,0,0,0.9085,Pegmatite_rect,14,0,14,0,1,
5d74001d391b6600175f433b,TCR,2024-06-11_10h10.08.137,LearnStrategy,2023.2.3,MacIntel,60.24096386,9,2,16,,,,,,,,3,11,,,,,,,,,,,3,1.392,1,,,,,,0.093233507,-0.262934028,1,0,0,1.3924,Diorite_rect,15,0,15,0,1,
5d74001d391b6600175f433b,TCR,2024-06-11_10h10.08.137,LearnStrategy,2023.2.3,MacIntel,60.24096386,,,,,,,,,,,,,,,,,,,,,,,,,,,,,,,,,,,,,,,,,,,1
5d74001d391b6600175f433b,TCR,2024-06-11_10h10.08.137,LearnStrategy,2023.2.3,MacIntel,60.24096386,,,,,,,,,,,,,,,,,,,,,,,,,,,,,,,,,,,,,,,,,,,
5d74001d391b6600175f433b,TCR,2024-06-11_10h10.08.137,LearnStrategy,2023.2.3,MacIntel,60.24096386,,,,,,,,,,,7,07,1,1,,,,,,,,,,,,,,,,,,,,,,,,,,,,,
5d74001d391b6600175f433b,TCR,2024-06-11_10h10.08.137,LearnStrategy,2023.2.3,MacIntel,60.24096386,,,,,,,,,,,6,10,1,2,,,,,,,,,,,,,,,,,,,,,,,,,,,,,
5d74001d391b6600175f433b,TCR,2024-06-11_10h10.08.137,LearnStrategy,2023.2.3,MacIntel,60.24096386,,,,,,,,,,,4,10,1,3,,,,,,,,,,,,,,,,,,,,,,,,,,,,,
5d74001d391b6600175f433b,TCR,2024-06-11_10h10.08.137,LearnStrategy,2023.2.3,MacIntel,60.24096386,,,,,,,,,,,1,09,1,4,,,,,,,,,,,,,,,,,,,,,,,,,,,,,
5d74001d391b6600175f433b,TCR,2024-06-11_10h10.08.137,LearnStrategy,2023.2.3,MacIntel,60.24096386,,,,,,,,,,,7,04,1,5,,,,,,,,,,,,,,,,,,,,,,,,,,,,,
5d74001d391b6600175f433b,TCR,2024-06-11_10h10.08.137,LearnStrategy,2023.2.3,MacIntel,60.24096386,,,,,,,,,,,6,05,1,6,,,,,,,,,,,,,,,,,,,,,,,,,,,,,
5d74001d391b6600175f433b,TCR,2024-06-11_10h10.08.137,LearnStrategy,2023.2.3,MacIntel,60.24096386,,,,,,,,,,,6,13,1,7,,,,,,,,,,,,,,,,,,,,,,,,,,,,,
5d74001d391b6600175f433b,TCR,2024-06-11_10h10.08.137,LearnStrategy,2023.2.3,MacIntel,60.24096386,,,,,,,,,,,7,16,1,8,,,,,,,,,,,,,,,,,,,,,,,,,,,,,
5d74001d391b6600175f433b,TCR,2024-06-11_10h10.08.137,LearnStrategy,2023.2.3,MacIntel,60.24096386,,,,,,,,,,,7,05,2,1,,,,,,,,,,,,,,,,,,,,,,,,,,,,,
5d74001d391b6600175f433b,TCR,2024-06-11_10h10.08.137,LearnStrategy,2023.2.3,MacIntel,60.24096386,,,,,,,,,,,8,03,2,2,,,,,,,,,,,,,,,,,,,,,,,,,,,,,
5d74001d391b6600175f433b,TCR,2024-06-11_10h10.08.137,LearnStrategy,2023.2.3,MacIntel,60.24096386,,,,,,,,,,,2,09,2,3,,,,,,,,,,,,,,,,,,,,,,,,,,,,,
5d74001d391b6600175f433b,TCR,2024-06-11_10h10.08.137,LearnStrategy,2023.2.3,MacIntel,60.24096386,,,,,,,,,,,3,08,2,4,,,,,,,,,,,,,,,,,,,,,,,,,,,,,
5d74001d391b6600175f433b,TCR,2024-06-11_10h10.08.137,LearnStrategy,2023.2.3,MacIntel,60.24096386,,,,,,,,,,,5,10,2,5,,,,,,,,,,,,,,,,,,,,,,,,,,,,,
5d74001d391b6600175f433b,TCR,2024-06-11_10h10.08.137,LearnStrategy,2023.2.3,MacIntel,60.24096386,,,,,,,,,,,3,09,2,6,,,,,,,,,,,,,,,,,,,,,,,,,,,,,
5d74001d391b6600175f433b,TCR,2024-06-11_10h10.08.137,LearnStrategy,2023.2.3,MacIntel,60.24096386,,,,,,,,,,,2,08,2,7,,,,,,,,,,,,,,,,,,,,,,,,,,,,,
5d74001d391b6600175f433b,TCR,2024-06-11_10h10.08.137,LearnStrategy,2023.2.3,MacIntel,60.24096386,,,,,,,,,,,1,16,2,8,,,,,,,,,,,,,,,,,,,,,,,,,,,,,
5d74001d391b6600175f433b,TCR,2024-06-11_10h10.08.137,LearnStrategy,2023.2.3,MacIntel,60.24096386,,,,,,,,,,,3,02,3,1,,,,,,,,,,,,,,,,,,,,,,,,,,,,,
5d74001d391b6600175f433b,TCR,2024-06-11_10h10.08.137,LearnStrategy,2023.2.3,MacIntel,60.24096386,,,,,,,,,,,5,09,3,2,,,,,,,,,,,,,,,,,,,,,,,,,,,,,
5d74001d391b6600175f433b,TCR,2024-06-11_10h10.08.137,LearnStrategy,2023.2.3,MacIntel,60.24096386,,,,,,,,,,,8,09,3,3,,,,,,,,,,,,,,,,,,,,,,,,,,,,,
5d74001d391b6600175f433b,TCR,2024-06-11_10h10.08.137,LearnStrategy,2023.2.3,MacIntel,60.24096386,,,,,,,,,,,4,13,3,4,,,,,,,,,,,,,,,,,,,,,,,,,,,,,
5d74001d391b6600175f433b,TCR,2024-06-11_10h10.08.137,LearnStrategy,2023.2.3,MacIntel,60.24096386,,,,,,,,,,,1,05,3,5,,,,,,,,,,,,,,,,,,,,,,,,,,,,,
5d74001d391b6600175f433b,TCR,2024-06-11_10h10.08.137,LearnStrategy,2023.2.3,MacIntel,60.24096386,,,,,,,,,,,3,16,3,6,,,,,,,,,,,,,,,,,,,,,,,,,,,,,
5d74001d391b6600175f433b,TCR,2024-06-11_10h10.08.137,LearnStrategy,2023.2.3,MacIntel,60.24096386,,,,,,,,,,,8,08,3,7,,,,,,,,,,,,,,,,,,,,,,,,,,,,,
5d74001d391b6600175f433b,TCR,2024-06-11_10h10.08.137,LearnStrategy,2023.2.3,MacIntel,60.24096386,,,,,,,,,,,6,07,3,8,,,,,,,,,,,,,,,,,,,,,,,,,,,,,
5d74001d391b6600175f433b,TCR,2024-06-11_10h10.08.137,LearnStrategy,2023.2.3,MacIntel,60.24096386,,,,,,,,,,,1,10,4,1,,,,,,,,,,,,,,,,,,,,,,,,,,,,,
5d74001d391b6600175f433b,TCR,2024-06-11_10h10.08.137,LearnStrategy,2023.2.3,MacIntel,60.24096386,,,,,,,,,,,6,16,4,2,,,,,,,,,,,,,,,,,,,,,,,,,,,,,
5d74001d391b6600175f433b,TCR,2024-06-11_10h10.08.137,LearnStrategy,2023.2.3,MacIntel,60.24096386,,,,,,,,,,,1,01,4,3,,,,,,,,,,,,,,,,,,,,,,,,,,,,,
5d74001d391b6600175f433b,TCR,2024-06-11_10h10.08.137,LearnStrategy,2023.2.3,MacIntel,60.24096386,,,,,,,,,,,7,10,4,4,,,,,,,,,,,,,,,,,,,,,,,,,,,,,
5d74001d391b6600175f433b,TCR,2024-06-11_10h10.08.137,LearnStrategy,2023.2.3,MacIntel,60.24096386,,,,,,,,,,,8,02,4,5,,,,,,,,,,,,,,,,,,,,,,,,,,,,,
5d74001d391b6600175f433b,TCR,2024-06-11_10h10.08.137,LearnStrategy,2023.2.3,MacIntel,60.24096386,,,,,,,,,,,4,12,4,6,,,,,,,,,,,,,,,,,,,,,,,,,,,,,
5d74001d391b6600175f433b,TCR,2024-06-11_10h10.08.137,LearnStrategy,2023.2.3,MacIntel,60.24096386,,,,,,,,,,,3,13,4,7,,,,,,,,,,,,,,,,,,,,,,,,,,,,,
5d74001d391b6600175f433b,TCR,2024-06-11_10h10.08.137,LearnStrategy,2023.2.3,MacIntel,60.24096386,,,,,,,,,,,2,14,4,8,,,,,,,,,,,,,,,,,,,,,,,,,,,,,
5d74001d391b6600175f433b,TCR,2024-06-11_10h10.08.137,LearnStrategy,2023.2.3,MacIntel,60.24096386,,,,,,,,,,,7,13,5,1,,,,,,,,,,,,,,,,,,,,,,,,,,,,,
5d74001d391b6600175f433b,TCR,2024-06-11_10h10.08.137,LearnStrategy,2023.2.3,MacIntel,60.24096386,,,,,,,,,,,8,06,5,2,,,,,,,,,,,,,,,,,,,,,,,,,,,,,
5d74001d391b6600175f433b,TCR,2024-06-11_10h10.08.137,LearnStrategy,2023.2.3,MacIntel,60.24096386,,,,,,,,,,,8,16,5,3,,,,,,,,,,,,,,,,,,,,,,,,,,,,,
5d74001d391b6600175f433b,TCR,2024-06-11_10h10.08.137,LearnStrategy,2023.2.3,MacIntel,60.24096386,,,,,,,,,,,5,16,5,4,,,,,,,,,,,,,,,,,,,,,,,,,,,,,
5d74001d391b6600175f433b,TCR,2024-06-11_10h10.08.137,LearnStrategy,2023.2.3,MacIntel,60.24096386,,,,,,,,,,,4,14,5,5,,,,,,,,,,,,,,,,,,,,,,,,,,,,,
5d74001d391b6600175f433b,TCR,2024-06-11_10h10.08.137,LearnStrategy,2023.2.3,MacIntel,60.24096386,,,,,,,,,,,4,05,5,6,,,,,,,,,,,,,,,,,,,,,,,,,,,,,
5d74001d391b6600175f433b,TCR,2024-06-11_10h10.08.137,LearnStrategy,2023.2.3,MacIntel,60.24096386,,,,,,,,,,,6,12,5,7,,,,,,,,,,,,,,,,,,,,,,,,,,,,,
5d74001d391b6600175f433b,TCR,2024-06-11_10h10.08.137,LearnStrategy,2023.2.3,MacIntel,60.24096386,,,,,,,,,,,5,04,5,8,,,,,,,,,,,,,,,,,,,,,,,,,,,,,
5d74001d391b6600175f433b,TCR,2024-06-11_10h10.08.137,LearnStrategy,2023.2.3,MacIntel,60.24096386,,,,,,,,,,,1,03,6,1,,,,,,,,,,,,,,,,,,,,,,,,,,,,,
5d74001d391b6600175f433b,TCR,2024-06-11_10h10.08.137,LearnStrategy,2023.2.3,MacIntel,60.24096386,,,,,,,,,,,4,11,6,2,,,,,,,,,,,,,,,,,,,,,,,,,,,,,
5d74001d391b6600175f433b,TCR,2024-06-11_10h10.08.137,LearnStrategy,2023.2.3,MacIntel,60.24096386,,,,,,,,,,,3,06,6,3,,,,,,,,,,,,,,,,,,,,,,,,,,,,,
5d74001d391b6600175f433b,TCR,2024-06-11_10h10.08.137,LearnStrategy,2023.2.3,MacIntel,60.24096386,,,,,,,,,,,2,02,6,4,,,,,,,,,,,,,,,,,,,,,,,,,,,,,
5d74001d391b6600175f433b,TCR,2024-06-11_10h10.08.137,LearnStrategy,2023.2.3,MacIntel,60.24096386,,,,,,,,,,,5,14,6,5,,,,,,,,,,,,,,,,,,,,,,,,,,,,,
5d74001d391b6600175f433b,TCR,2024-06-11_10h10.08.137,LearnStrategy,2023.2.3,MacIntel,60.24096386,,,,,,,,,,,5,02,6,6,,,,,,,,,,,,,,,,,,,,,,,,,,,,,
5d74001d391b6600175f433b,TCR,2024-06-11_10h10.08.137,LearnStrategy,2023.2.3,MacIntel,60.24096386,,,,,,,,,,,2,11,6,7,,,,,,,,,,,,,,,,,,,,,,,,,,,,,
5d74001d391b6600175f433b,TCR,2024-06-11_10h10.08.137,LearnStrategy,2023.2.3,MacIntel,60.24096386,,,,,,,,,,,2,01,6,8,,,,,,,,,,,,,,,,,,,,,,,,,,,,,