participant,condition,date,expName,psychopyVersion,OS,frameRate,block,phase,trial,learn_mouse_2.x,learn_mouse_2.y,learn_mouse_2.leftButton,learn_mouse_2.midButton,learn_mouse_2.rightButton,learn_mouse_2.time,learn_mouse_2.clicked_name,cat,token,row,col,t_select,cat_mouse_l.x,cat_mouse_l.y,cat_mouse_l.leftButton,cat_mouse_l.midButton,cat_mouse_l.rightButton,cat_mouse_l.time,cat_mouse_l.clicked_name,resp,t_resp,corr,train_trials.thisRepN,train_trials.thisTrialN,train_trials.thisN,train_trials.thisIndex,train_trials.ran,cat_mouse_t.x,cat_mouse_t.y,cat_mouse_t.leftButton,cat_mouse_t.midButton,cat_mouse_t.rightButton,cat_mouse_t.time,cat_mouse_t.clicked_name,test_trials.thisRepN,test_trials.thisTrialN,test_trials.thisN,test_trials.thisIndex,test_trials.ran,Bonus
5da6139c002c29001335b5a2,TCR,2024-06-24_15h33.26.120,LearnStrategy,2023.2.3,MacIntel,59.88023952,,,,,,,,,,,,,,,,,,,,,,,,,,,,,,,,,,,,,,,,,,,
5da6139c002c29001335b5a2,TCR,2024-06-24_15h33.26.120,LearnStrategy,2023.2.3,MacIntel,59.88023952,1,1,1,-0.01680976,0.00970381,1,0,0,78.8239,rock_grid_rect_2,5,02,-1,-1,78.824,0.354228109,-0.234053073,1,0,0,2.5908,Gabbro_rect,4,2.591,0,0,0,0,0,1,,,,,,,,,,,,,
5da6139c002c29001335b5a2,TCR,2024-06-24_15h33.26.120,LearnStrategy,2023.2.3,MacIntel,59.88023952,1,1,2,0.0063522,-0.023395081,1,0,0,1.0339,rock_grid_rect_2,5,04,-1,-1,1.034,-0.091009047,-0.241833903,1,0,0,1.178,Basalt_rect,2,1.178,0,1,0,1,0,1,,,,,,,,,,,,,
5da6139c002c29001335b5a2,TCR,2024-06-24_15h33.26.120,LearnStrategy,2023.2.3,MacIntel,59.88023952,1,1,3,0.048632406,-0.008149245,1,0,0,1.03,rock_grid_rect_2,8,10,-1,-1,1.03,0.4117315,-0.246535034,1,0,0,5.0817,Gabbro_rect,4,5.082,0,2,0,2,0,1,,,,,,,,,,,,,
5da6139c002c29001335b5a2,TCR,2024-06-24_15h33.26.120,LearnStrategy,2023.2.3,MacIntel,59.88023952,1,1,4,0.0266588,-0.002090352,1,0,0,1.0472,rock_grid_rect_2,8,09,-1,-1,1.047,0.32348253,-0.383194309,1,0,0,1.5476,Pumice_rect,8,1.548,1,3,0,3,0,1,,,,,,,,,,,,,
5da6139c002c29001335b5a2,TCR,2024-06-24_15h33.26.120,LearnStrategy,2023.2.3,MacIntel,59.88023952,1,1,5,0.013515218,-0.016733297,1,0,0,3.9499,rock_grid_rect_2,4,01,-1,-1,3.95,-0.104228109,-0.419779188,1,0,0,1.8595,Pegmatite_rect,6,1.86,0,4,0,4,0,1,,,,,,,,,,,,,
5da6139c002c29001335b5a2,TCR,2024-06-24_15h33.26.120,LearnStrategy,2023.2.3,MacIntel,59.88023952,1,1,6,0.049185927,-0.020661384,1,0,0,1.8355,rock_grid_rect_2,7,07,-1,-1,1.836,0.353855659,-0.236740655,1,0,0,2.235,Gabbro_rect,4,2.235,0,5,0,5,0,1,,,,,,,,,,,,,
5da6139c002c29001335b5a2,TCR,2024-06-24_15h33.26.120,LearnStrategy,2023.2.3,MacIntel,59.88023952,1,1,7,0.008777941,-0.019331156,1,0,0,2.1611,rock_grid_rect_2,6,16,-1,-1,2.161,-0.416659546,-0.254395006,1,0,0,1.6918,Andesite_rect,1,1.692,0,6,0,6,0,1,,,,,,,,,,,,,
5da6139c002c29001335b5a2,TCR,2024-06-24_15h33.26.120,LearnStrategy,2023.2.3,MacIntel,59.88023952,1,1,8,0.113336317,-0.022276815,1,0,0,5.0464,rock_grid_rect_2,1,01,-1,-1,5.046,0.166840617,-0.420042046,1,0,0,2.9346,Peridotite_rect,7,2.935,0,7,0,7,0,1,,,,,,,,,,,,,
5da6139c002c29001335b5a2,TCR,2024-06-24_15h33.26.120,LearnStrategy,2023.2.3,MacIntel,59.88023952,1,1,9,-0.004875895,0.006248949,1,0,0,1.0082,rock_grid_rect_2,1,03,-1,-1,1.008,-0.093367106,-0.265882636,1,0,0,3.7813,Basalt_rect,2,3.781,0,8,0,8,0,1,,,,,,,,,,,,,
5da6139c002c29001335b5a2,TCR,2024-06-24_15h33.26.120,LearnStrategy,2023.2.3,MacIntel,59.88023952,1,1,10,0.070524699,-0.001787313,1,0,0,4.5286,rock_grid_rect_2,3,15,-1,-1,4.529,-0.329650099,-0.267530721,1,0,0,2.018,Andesite_rect,1,2.018,0,9,0,9,0,1,,,,,,,,,,,,,
5da6139c002c29001335b5a2,TCR,2024-06-24_15h33.26.120,LearnStrategy,2023.2.3,MacIntel,59.88023952,1,1,11,0.00783176,-0.00823527,1,0,0,6.956,rock_grid_rect_2,2,02,-1,-1,6.956,0.113815986,-0.262495795,1,0,0,2.7126,Diorite_rect,3,2.713,0,10,0,10,0,1,,,,,,,,,,,,,
5da6139c002c29001335b5a2,TCR,2024-06-24_15h33.26.120,LearnStrategy,2023.2.3,MacIntel,59.88023952,1,1,12,-0.036835802,0.022318963,1,0,0,6.8582,rock_grid_rect_2,2,10,-1,-1,6.858,-0.361906026,-0.407628038,1,0,0,1.9403,Obsidian_rect,5,1.94,0,11,0,11,0,1,,,,,,,,,,,,,
5da6139c002c29001335b5a2,TCR,2024-06-24_15h33.26.120,LearnStrategy,2023.2.3,MacIntel,59.88023952,1,1,13,0.044495171,0.022924194,1,0,0,0.9007,rock_grid_rect_2,6,08,-1,-1,0.901,0.130047268,-0.391234199,1,0,0,1.8629,Peridotite_rect,7,1.863,0,12,0,12,0,1,,,,,,,,,,,,,
5da6139c002c29001335b5a2,TCR,2024-06-24_15h33.26.120,LearnStrategy,2023.2.3,MacIntel,59.88023952,1,1,14,0.026536662,-0.020633613,1,0,0,2.0768,rock_grid_rect_2,3,09,-1,-1,2.077,0.170435927,-0.244487644,1,0,0,1.4424,Diorite_rect,3,1.442,1,13,0,13,0,1,,,,,,,,,,,,,
5da6139c002c29001335b5a2,TCR,2024-06-24_15h33.26.120,LearnStrategy,2023.2.3,MacIntel,59.88023952,1,1,15,0.032874213,-0.004689941,1,0,0,0.9663,rock_grid_rect_2,7,15,-1,-1,0.966,0.051388075,-0.260449015,1,0,0,1.5759,Diorite_rect,3,1.576,0,14,0,14,0,1,,,,,,,,,,,,,
5da6139c002c29001335b5a2,TCR,2024-06-24_15h33.26.120,LearnStrategy,2023.2.3,MacIntel,59.88023952,1,1,16,-0.004480184,-0.007514513,1,0,0,1.0467,rock_grid_rect_2,4,05,-1,-1,1.047,0.187972005,-0.405452745,1,0,0,2.7757,Peridotite_rect,7,2.776,0,15,0,15,0,1,,,,,,,,,,,,,
5da6139c002c29001335b5a2,TCR,2024-06-24_15h33.26.120,LearnStrategy,2023.2.3,MacIntel,59.88023952,1,2,1,,,,,,,,5,16,,,,,,,,,,,5,2.377,1,,,,,,-0.339258185,-0.407935316,1,0,0,2.3775,Obsidian_rect,0,0,0,0,1,
5da6139c002c29001335b5a2,TCR,2024-06-24_15h33.26.120,LearnStrategy,2023.2.3,MacIntel,59.88023952,1,2,2,,,,,,,,6,12,,,,,,,,,,,8,1.626,0,,,,,,0.387027317,-0.392760484,1,0,0,1.6261,Pumice_rect,1,0,1,0,1,
5da6139c002c29001335b5a2,TCR,2024-06-24_15h33.26.120,LearnStrategy,2023.2.3,MacIntel,59.88023952,1,2,3,,,,,,,,6,10,,,,,,,,,,,3,1.167,0,,,,,,0.15325921,-0.266695489,1,0,0,1.1672,Diorite_rect,2,0,2,0,1,
5da6139c002c29001335b5a2,TCR,2024-06-24_15h33.26.120,LearnStrategy,2023.2.3,MacIntel,59.88023952,1,2,4,,,,,,,,4,10,,,,,,,,,,,2,2.648,0,,,,,,-0.126593492,-0.260559082,1,0,0,2.6477,Basalt_rect,3,0,3,0,1,
5da6139c002c29001335b5a2,TCR,2024-06-24_15h33.26.120,LearnStrategy,2023.2.3,MacIntel,59.88023952,1,2,5,,,,,,,,7,05,,,,,,,,,,,5,3.345,0,,,,,,-0.335090603,-0.384362454,1,0,0,3.3447,Obsidian_rect,4,0,4,0,1,
5da6139c002c29001335b5a2,TCR,2024-06-24_15h33.26.120,LearnStrategy,2023.2.3,MacIntel,59.88023952,1,2,6,,,,,,,,2,08,,,,,,,,,,,1,1.541,0,,,,,,-0.323605618,-0.260866564,1,0,0,1.5412,Andesite_rect,5,0,5,0,1,
5da6139c002c29001335b5a2,TCR,2024-06-24_15h33.26.120,LearnStrategy,2023.2.3,MacIntel,59.88023952,1,2,7,,,,,,,,1,10,,,,,,,,,,,8,4.511,0,,,,,,0.367381999,-0.407266914,1,0,0,4.5112,Pumice_rect,6,0,6,0,1,
5da6139c002c29001335b5a2,TCR,2024-06-24_15h33.26.120,LearnStrategy,2023.2.3,MacIntel,59.88023952,1,2,8,,,,,,,,8,08,,,,,,,,,,,7,1.774,0,,,,,,0.164681464,-0.397168511,1,0,0,1.7742,Peridotite_rect,7,0,7,0,1,
5da6139c002c29001335b5a2,TCR,2024-06-24_15h33.26.120,LearnStrategy,2023.2.3,MacIntel,59.88023952,1,2,9,,,,,,,,4,15,,,,,,,,,,,3,2.89,0,,,,,,0.080015734,-0.235697632,1,0,0,2.8898,Diorite_rect,8,0,8,0,1,
5da6139c002c29001335b5a2,TCR,2024-06-24_15h33.26.120,LearnStrategy,2023.2.3,MacIntel,59.88023952,1,2,10,,,,,,,,2,09,,,,,,,,,,,7,1.254,0,,,,,,0.079885729,-0.412573853,1,0,0,1.2536,Peridotite_rect,9,0,9,0,1,
5da6139c002c29001335b5a2,TCR,2024-06-24_15h33.26.120,LearnStrategy,2023.2.3,MacIntel,59.88023952,1,2,11,,,,,,,,1,07,,,,,,,,,,,4,2.159,0,,,,,,0.372124159,-0.262032674,1,0,0,2.1594,Gabbro_rect,10,0,10,0,1,
5da6139c002c29001335b5a2,TCR,2024-06-24_15h33.26.120,LearnStrategy,2023.2.3,MacIntel,59.88023952,1,2,12,,,,,,,,8,16,,,,,,,,,,,6,5.548,0,,,,,,-0.189835273,-0.398099569,1,0,0,5.5475,Pegmatite_rect,11,0,11,0,1,
5da6139c002c29001335b5a2,TCR,2024-06-24_15h33.26.120,LearnStrategy,2023.2.3,MacIntel,59.88023952,1,2,13,,,,,,,,3,10,,,,,,,,,,,7,7.727,0,,,,,,0.136836141,-0.412566257,1,0,0,7.7266,Peridotite_rect,12,0,12,0,1,
5da6139c002c29001335b5a2,TCR,2024-06-24_15h33.26.120,LearnStrategy,2023.2.3,MacIntel,59.88023952,1,2,14,,,,,,,,5,07,,,,,,,,,,,1,2.95,0,,,,,,-0.322621528,-0.262297228,1,0,0,2.95,Andesite_rect,13,0,13,0,1,
5da6139c002c29001335b5a2,TCR,2024-06-24_15h33.26.120,LearnStrategy,2023.2.3,MacIntel,59.88023952,1,2,15,,,,,,,,7,13,,,,,,,,,,,3,1.27,0,,,,,,0.118003608,-0.239424167,1,0,0,1.2698,Diorite_rect,14,0,14,0,1,
5da6139c002c29001335b5a2,TCR,2024-06-24_15h33.26.120,LearnStrategy,2023.2.3,MacIntel,59.88023952,1,2,16,,,,,,,,3,16,,,,,,,,,,,8,7.447,0,,,,,,0.377322862,-0.402061971,1,0,0,7.447,Pumice_rect,15,0,15,0,1,
5da6139c002c29001335b5a2,TCR,2024-06-24_15h33.26.120,LearnStrategy,2023.2.3,MacIntel,59.88023952,2,1,1,0.055576308,-0.004137539,1,0,0,1.7495,rock_grid_rect_2,7,15,-1,-1,1.75,-0.108926866,-0.408092244,1,0,0,3.8349,Pegmatite_rect,6,3.835,0,0,0,0,0,1,,,,,,,,,,,,,
5da6139c002c29001335b5a2,TCR,2024-06-24_15h33.26.120,LearnStrategy,2023.2.3,MacIntel,59.88023952,2,1,2,0.047048815,0.003266161,1,0,0,1.0093,rock_grid_rect_2,3,02,-1,-1,1.009,-0.11176907,-0.258789537,1,0,0,1.643,Basalt_rect,2,1.643,0,1,0,1,0,1,,,,,,,,,,,,,
5da6139c002c29001335b5a2,TCR,2024-06-24_15h33.26.120,LearnStrategy,2023.2.3,MacIntel,59.88023952,2,1,3,0.033045722,-0.002642076,1,0,0,1.0682,rock_grid_rect_2,7,10,-1,-1,1.068,0.41271932,-0.260500081,1,0,0,1.8072,Gabbro_rect,4,1.807,0,2,0,2,0,1,,,,,,,,,,,,,
5da6139c002c29001335b5a2,TCR,2024-06-24_15h33.26.120,LearnStrategy,2023.2.3,MacIntel,59.88023952,2,1,4,0.07096205,-0.008503248,1,0,0,0.85,rock_grid_rect_2,1,01,-1,-1,0.85,-0.379145745,-0.255978733,1,0,0,2.6206,Andesite_rect,1,2.621,1,3,0,3,0,1,,,,,,,,,,,,,
5da6139c002c29001335b5a2,TCR,2024-06-24_15h33.26.120,LearnStrategy,2023.2.3,MacIntel,59.88023952,2,1,5,0.074932387,-0.011540087,1,0,0,0.9959,rock_grid_rect_2,2,02,-1,-1,0.996,-0.095526055,-0.249254761,1,0,0,1.5591,Basalt_rect,2,1.559,1,4,0,4,0,1,,,,,,,,,,,,,
5da6139c002c29001335b5a2,TCR,2024-06-24_15h33.26.120,LearnStrategy,2023.2.3,MacIntel,59.88023952,2,1,6,0.026215142,-0.001372138,1,0,0,0.9172,rock_grid_rect_2,3,02,-1,-1,0.917,0.367633464,-0.408742744,1,0,0,1.8066,Pumice_rect,8,1.807,0,5,0,5,0,1,,,,,,,,,,,,,
5da6139c002c29001335b5a2,TCR,2024-06-24_15h33.26.120,LearnStrategy,2023.2.3,MacIntel,59.88023952,2,1,7,0.039106784,-0.018757731,1,0,0,0.8234,rock_grid_rect_2,6,06,-1,-1,0.823,-0.094382256,-0.406556261,1,0,0,1.1657,Pegmatite_rect,6,1.166,1,6,0,6,0,1,,,,,,,,,,,,,
5da6139c002c29001335b5a2,TCR,2024-06-24_15h33.26.120,LearnStrategy,2023.2.3,MacIntel,59.88023952,2,1,8,0.010201552,0.00347463,1,0,0,0.8545,rock_grid_rect_2,6,16,-1,-1,0.854,-0.096468099,-0.40937439,1,0,0,0.9909,Pegmatite_rect,6,0.991,1,7,0,7,0,1,,,,,,,,,,,,,
5da6139c002c29001335b5a2,TCR,2024-06-24_15h33.26.120,LearnStrategy,2023.2.3,MacIntel,59.88023952,2,1,9,-0.001019491,0.002534587,1,0,0,0.8872,rock_grid_rect_2,2,10,-1,-1,0.887,0.09930698,-0.237394545,1,0,0,1.1795,Diorite_rect,3,1.179,0,8,0,8,0,1,,,,,,,,,,,,,
5da6139c002c29001335b5a2,TCR,2024-06-24_15h33.26.120,LearnStrategy,2023.2.3,MacIntel,59.88023952,2,1,10,0.012548828,-0.005677592,1,0,0,0.8757,rock_grid_rect_2,8,15,-1,-1,0.876,0.366552192,-0.403260973,1,0,0,1.7282,Pumice_rect,8,1.728,1,9,0,9,0,1,,,,,,,,,,,,,
5da6139c002c29001335b5a2,TCR,2024-06-24_15h33.26.120,LearnStrategy,2023.2.3,MacIntel,59.88023952,2,1,11,0.047856377,-0.020928548,1,0,0,0.9369,rock_grid_rect_2,1,09,-1,-1,0.937,0.127367757,-0.243698256,1,0,0,1.1433,Diorite_rect,3,1.143,0,10,0,10,0,1,,,,,,,,,,,,,
5da6139c002c29001335b5a2,TCR,2024-06-24_15h33.26.120,LearnStrategy,2023.2.3,MacIntel,59.88023952,2,1,12,-0.035330675,-0.00841468,1,0,0,0.8166,rock_grid_rect_2,5,10,-1,-1,0.817,-0.349651659,-0.384342787,1,0,0,1.3771,Obsidian_rect,5,1.377,1,11,0,11,0,1,,,,,,,,,,,,,
5da6139c002c29001335b5a2,TCR,2024-06-24_15h33.26.120,LearnStrategy,2023.2.3,MacIntel,59.88023952,2,1,13,0.058329739,0.012170512,1,0,0,0.8265,rock_grid_rect_2,3,13,-1,-1,0.827,-0.135436401,-0.399087592,1,0,0,2.6606,Pegmatite_rect,6,2.661,0,12,0,12,0,1,,,,,,,,,,,,,
5da6139c002c29001335b5a2,TCR,2024-06-24_15h33.26.120,LearnStrategy,2023.2.3,MacIntel,59.88023952,2,1,14,0.03595459,0.008475003,1,0,0,0.9108,rock_grid_rect_2,4,05,-1,-1,0.911,-0.194159071,-0.239802178,1,0,0,1.5954,Basalt_rect,2,1.595,0,13,0,13,0,1,,,,,,,,,,,,,
5da6139c002c29001335b5a2,TCR,2024-06-24_15h33.26.120,LearnStrategy,2023.2.3,MacIntel,59.88023952,2,1,15,0.059867418,-0.002174954,1,0,0,0.8297,rock_grid_rect_2,4,05,-1,-1,0.83,0.430885281,-0.264778171,1,0,0,0.9017,Gabbro_rect,4,0.902,1,14,0,14,0,1,,,,,,,,,,,,,
5da6139c002c29001335b5a2,TCR,2024-06-24_15h33.26.120,LearnStrategy,2023.2.3,MacIntel,59.88023952,2,1,16,-0.009978163,-0.014266866,1,0,0,0.7943,rock_grid_rect_2,8,10,-1,-1,0.794,0.338431939,-0.411607869,1,0,0,1.2899,Pumice_rect,8,1.29,1,15,0,15,0,1,,,,,,,,,,,,,
5da6139c002c29001335b5a2,TCR,2024-06-24_15h33.26.120,LearnStrategy,2023.2.3,MacIntel,59.88023952,2,2,1,,,,,,,,5,11,,,,,,,,,,,5,2.315,1,,,,,,-0.39411716,-0.407081028,1,0,0,2.3147,Obsidian_rect,0,0,0,0,1,
5da6139c002c29001335b5a2,TCR,2024-06-24_15h33.26.120,LearnStrategy,2023.2.3,MacIntel,59.88023952,2,2,2,,,,,,,,7,08,,,,,,,,,,,3,1.383,0,,,,,,0.127255724,-0.243237712,1,0,0,1.3828,Diorite_rect,1,0,1,0,1,
5da6139c002c29001335b5a2,TCR,2024-06-24_15h33.26.120,LearnStrategy,2023.2.3,MacIntel,59.88023952,2,2,3,,,,,,,,2,14,,,,,,,,,,,6,2.169,0,,,,,,-0.05382019,-0.41089898,1,0,0,2.1689,Pegmatite_rect,2,0,2,0,1,
5da6139c002c29001335b5a2,TCR,2024-06-24_15h33.26.120,LearnStrategy,2023.2.3,MacIntel,59.88023952,2,2,4,,,,,,,,8,04,,,,,,,,,,,8,1.144,1,,,,,,0.416658664,-0.39177063,1,0,0,1.1441,Pumice_rect,3,0,3,0,1,
5da6139c002c29001335b5a2,TCR,2024-06-24_15h33.26.120,LearnStrategy,2023.2.3,MacIntel,59.88023952,2,2,5,,,,,,,,5,05,,,,,,,,,,,5,1.431,1,,,,,,-0.380335592,-0.413943956,1,0,0,1.4312,Obsidian_rect,4,0,4,0,1,
5da6139c002c29001335b5a2,TCR,2024-06-24_15h33.26.120,LearnStrategy,2023.2.3,MacIntel,59.88023952,2,2,6,,,,,,,,4,11,,,,,,,,,,,3,2.511,0,,,,,,0.176675551,-0.26038269,1,0,0,2.511,Diorite_rect,5,0,5,0,1,
5da6139c002c29001335b5a2,TCR,2024-06-24_15h33.26.120,LearnStrategy,2023.2.3,MacIntel,59.88023952,2,2,7,,,,,,,,3,06,,,,,,,,,,,6,2.4,0,,,,,,-0.127142198,-0.400494995,1,0,0,2.3998,Pegmatite_rect,6,0,6,0,1,
5da6139c002c29001335b5a2,TCR,2024-06-24_15h33.26.120,LearnStrategy,2023.2.3,MacIntel,59.88023952,2,2,8,,,,,,,,4,12,,,,,,,,,,,4,1.884,1,,,,,,0.314355197,-0.234005466,1,0,0,1.8841,Gabbro_rect,7,0,7,0,1,
5da6139c002c29001335b5a2,TCR,2024-06-24_15h33.26.120,LearnStrategy,2023.2.3,MacIntel,59.88023952,2,2,9,,,,,,,,8,05,,,,,,,,,,,8,1.04,1,,,,,,0.338009983,-0.421935628,1,0,0,1.0399,Pumice_rect,8,0,8,0,1,
5da6139c002c29001335b5a2,TCR,2024-06-24_15h33.26.120,LearnStrategy,2023.2.3,MacIntel,59.88023952,2,2,10,,,,,,,,3,11,,,,,,,,,,,7,1.745,0,,,,,,0.168362155,-0.395564779,1,0,0,1.7452,Peridotite_rect,9,0,9,0,1,
5da6139c002c29001335b5a2,TCR,2024-06-24_15h33.26.120,LearnStrategy,2023.2.3,MacIntel,59.88023952,2,2,11,,,,,,,,6,15,,,,,,,,,,,7,1.36,0,,,,,,0.124918755,-0.411477797,1,0,0,1.3598,Peridotite_rect,10,0,10,0,1,
5da6139c002c29001335b5a2,TCR,2024-06-24_15h33.26.120,LearnStrategy,2023.2.3,MacIntel,59.88023952,2,2,12,,,,,,,,1,05,,,,,,,,,,,3,1.612,0,,,,,,0.054769287,-0.253327026,1,0,0,1.6121,Diorite_rect,11,0,11,0,1,
5da6139c002c29001335b5a2,TCR,2024-06-24_15h33.26.120,LearnStrategy,2023.2.3,MacIntel,59.88023952,2,2,13,,,,,,,,6,03,,,,,,,,,,,6,1.938,1,,,,,,-0.117744141,-0.397856717,1,0,0,1.9377,Pegmatite_rect,12,0,12,0,1,
5da6139c002c29001335b5a2,TCR,2024-06-24_15h33.26.120,LearnStrategy,2023.2.3,MacIntel,59.88023952,2,2,14,,,,,,,,7,14,,,,,,,,,,,2,0.86,0,,,,,,-0.114265205,-0.236376343,1,0,0,0.8595,Basalt_rect,13,0,13,0,1,
5da6139c002c29001335b5a2,TCR,2024-06-24_15h33.26.120,LearnStrategy,2023.2.3,MacIntel,59.88023952,2,2,15,,,,,,,,1,11,,,,,,,,,,,2,1.66,0,,,,,,-0.114265205,-0.236376343,1,0,0,1.6603,Basalt_rect,14,0,14,0,1,
5da6139c002c29001335b5a2,TCR,2024-06-24_15h33.26.120,LearnStrategy,2023.2.3,MacIntel,59.88023952,2,2,16,,,,,,,,2,05,,,,,,,,,,,2,1.101,1,,,,,,-0.114265205,-0.236376343,1,0,0,1.1011,Basalt_rect,15,0,15,0,1,
5da6139c002c29001335b5a2,TCR,2024-06-24_15h33.26.120,LearnStrategy,2023.2.3,MacIntel,59.88023952,3,1,1,-0.02571384,0.010805901,1,0,0,1.075,rock_grid_rect_2,2,01,-1,-1,1.075,0.10486301,-0.240697564,1,0,0,1.2356,Diorite_rect,3,1.236,0,0,0,0,0,1,,,,,,,,,,,,,
5da6139c002c29001335b5a2,TCR,2024-06-24_15h33.26.120,LearnStrategy,2023.2.3,MacIntel,59.88023952,3,1,2,-0.038401964,0.003022868,1,0,0,0.8507,rock_grid_rect_2,7,10,-1,-1,0.851,0.096649238,-0.250669013,1,0,0,1.0885,Diorite_rect,3,1.088,0,1,0,1,0,1,,,,,,,,,,,,,
5da6139c002c29001335b5a2,TCR,2024-06-24_15h33.26.120,LearnStrategy,2023.2.3,MacIntel,59.88023952,3,1,3,0.009560208,0.001719123,1,0,0,1.021,rock_grid_rect_2,3,13,-1,-1,1.021,0.096509806,-0.401113349,1,0,0,1.1272,Peridotite_rect,7,1.127,0,2,0,2,0,1,,,,,,,,,,,,,
5da6139c002c29001335b5a2,TCR,2024-06-24_15h33.26.120,LearnStrategy,2023.2.3,MacIntel,59.88023952,3,1,4,0.020274116,-0.009305929,1,0,0,0.8183,rock_grid_rect_2,8,13,-1,-1,0.818,0.375281304,-0.398749118,1,0,0,0.9997,Pumice_rect,8,1,1,3,0,3,0,1,,,,,,,,,,,,,
5da6139c002c29001335b5a2,TCR,2024-06-24_15h33.26.120,LearnStrategy,2023.2.3,MacIntel,59.88023952,3,1,5,-0.055652398,0.000693698,1,0,0,1.3426,rock_grid_rect_2,5,04,-1,-1,1.343,-0.341771952,-0.385050795,1,0,0,1.06,Obsidian_rect,5,1.06,1,4,0,4,0,1,,,,,,,,,,,,,
5da6139c002c29001335b5a2,TCR,2024-06-24_15h33.26.120,LearnStrategy,2023.2.3,MacIntel,59.88023952,3,1,6,-0.027482842,-0.00122467,1,0,0,0.9173,rock_grid_rect_2,4,03,-1,-1,0.917,0.119534641,-0.249431831,1,0,0,1.9058,Diorite_rect,3,1.906,0,5,0,5,0,1,,,,,,,,,,,,,
5da6139c002c29001335b5a2,TCR,2024-06-24_15h33.26.120,LearnStrategy,2023.2.3,MacIntel,59.88023952,3,1,7,0.029061076,-0.012832201,1,0,0,0.8852,rock_grid_rect_2,3,15,-1,-1,0.885,0.108288371,-0.404268324,1,0,0,2.2215,Peridotite_rect,7,2.221,0,6,0,6,0,1,,,,,,,,,,,,,
5da6139c002c29001335b5a2,TCR,2024-06-24_15h33.26.120,LearnStrategy,2023.2.3,MacIntel,59.88023952,3,1,8,0.034135064,-0.005794406,1,0,0,0.8058,rock_grid_rect_2,2,12,-1,-1,0.806,-0.056446398,-0.242490031,1,0,0,1.6301,Basalt_rect,2,1.63,1,7,0,7,0,1,,,,,,,,,,,,,
5da6139c002c29001335b5a2,TCR,2024-06-24_15h33.26.120,LearnStrategy,2023.2.3,MacIntel,59.88023952,3,1,9,-0.013019138,-0.004376662,1,0,0,0.7692,rock_grid_rect_2,7,06,-1,-1,0.769,0.076576674,-0.246896973,1,0,0,0.8722,Diorite_rect,3,0.872,0,8,0,8,0,1,,,,,,,,,,,,,
5da6139c002c29001335b5a2,TCR,2024-06-24_15h33.26.120,LearnStrategy,2023.2.3,MacIntel,59.88023952,3,1,10,-0.027033013,0.002549845,1,0,0,1.4336,rock_grid_rect_2,3,15,-1,-1,1.434,0.106244507,-0.41187873,1,0,0,0.9836,Peridotite_rect,7,0.984,0,9,0,9,0,1,,,,,,,,,,,,,
5da6139c002c29001335b5a2,TCR,2024-06-24_15h33.26.120,LearnStrategy,2023.2.3,MacIntel,59.88023952,3,1,11,0.004022285,-0.022048475,1,0,0,0.6842,rock_grid_rect_2,7,10,-1,-1,0.684,-0.084107734,-0.404481405,1,0,0,1.2122,Pegmatite_rect,6,1.212,0,10,0,10,0,1,,,,,,,,,,,,,
5da6139c002c29001335b5a2,TCR,2024-06-24_15h33.26.120,LearnStrategy,2023.2.3,MacIntel,59.88023952,3,1,12,0.004445055,-0.001288317,1,0,0,0.8432,rock_grid_rect_2,1,02,-1,-1,0.843,-0.117272135,-0.248712294,1,0,0,1.1659,Basalt_rect,2,1.166,0,11,0,11,0,1,,,,,,,,,,,,,
5da6139c002c29001335b5a2,TCR,2024-06-24_15h33.26.120,LearnStrategy,2023.2.3,MacIntel,59.88023952,3,1,13,-0.030847846,-0.011486003,1,0,0,0.8961,rock_grid_rect_2,6,16,-1,-1,0.896,0.131159193,-0.257832167,1,0,0,2.8418,Diorite_rect,3,2.842,0,12,0,12,0,1,,,,,,,,,,,,,
5da6139c002c29001335b5a2,TCR,2024-06-24_15h33.26.120,LearnStrategy,2023.2.3,MacIntel,59.88023952,3,1,14,0.063300374,-0.018636542,1,0,0,0.9113,rock_grid_rect_2,6,13,-1,-1,0.911,0.093527154,-0.259472995,1,0,0,1.8035,Diorite_rect,3,1.803,0,13,0,13,0,1,,,,,,,,,,,,,
5da6139c002c29001335b5a2,TCR,2024-06-24_15h33.26.120,LearnStrategy,2023.2.3,MacIntel,59.88023952,3,1,15,-0.027483114,-0.020519341,1,0,0,1.1432,rock_grid_rect_2,1,09,-1,-1,1.143,-0.107125041,-0.24137424,1,0,0,0.9199,Basalt_rect,2,0.92,0,14,0,14,0,1,,,,,,,,,,,,,
5da6139c002c29001335b5a2,TCR,2024-06-24_15h33.26.120,LearnStrategy,2023.2.3,MacIntel,59.88023952,3,1,16,-0.041560669,-0.005130547,1,0,0,0.9621,rock_grid_rect_2,4,14,-1,-1,0.962,-0.146551446,-0.24192627,1,0,0,2.2723,Basalt_rect,2,2.272,0,15,0,15,0,1,,,,,,,,,,,,,
5da6139c002c29001335b5a2,TCR,2024-06-24_15h33.26.120,LearnStrategy,2023.2.3,MacIntel,59.88023952,3,2,1,,,,,,,,7,04,,,,,,,,,,,7,1.755,1,,,,,,0.087807007,-0.413103977,1,0,0,1.7547,Peridotite_rect,0,0,0,0,1,
5da6139c002c29001335b5a2,TCR,2024-06-24_15h33.26.120,LearnStrategy,2023.2.3,MacIntel,59.88023952,3,2,2,,,,,,,,8,02,,,,,,,,,,,8,1.343,1,,,,,,0.32630839,-0.409345771,1,0,0,1.3429,Pumice_rect,1,0,1,0,1,
5da6139c002c29001335b5a2,TCR,2024-06-24_15h33.26.120,LearnStrategy,2023.2.3,MacIntel,59.88023952,3,2,3,,,,,,,,3,07,,,,,,,,,,,3,1.934,1,,,,,,0.10744283,-0.265493435,1,0,0,1.9338,Diorite_rect,2,0,2,0,1,
5da6139c002c29001335b5a2,TCR,2024-06-24_15h33.26.120,LearnStrategy,2023.2.3,MacIntel,59.88023952,3,2,4,,,,,,,,3,08,,,,,,,,,,,4,2.975,0,,,,,,0.393264703,-0.269841309,1,0,0,2.9753,Gabbro_rect,3,0,3,0,1,
5da6139c002c29001335b5a2,TCR,2024-06-24_15h33.26.120,LearnStrategy,2023.2.3,MacIntel,59.88023952,3,2,5,,,,,,,,5,14,,,,,,,,,,,5,1.179,1,,,,,,-0.372330729,-0.395821669,1,0,0,1.1794,Obsidian_rect,4,0,4,0,1,
5da6139c002c29001335b5a2,TCR,2024-06-24_15h33.26.120,LearnStrategy,2023.2.3,MacIntel,59.88023952,3,2,6,,,,,,,,6,11,,,,,,,,,,,7,1.752,0,,,,,,0.079788615,-0.391609701,1,0,0,1.7518,Peridotite_rect,5,0,5,0,1,
5da6139c002c29001335b5a2,TCR,2024-06-24_15h33.26.120,LearnStrategy,2023.2.3,MacIntel,59.88023952,3,2,7,,,,,,,,1,06,,,,,,,,,,,2,1.67,0,,,,,,-0.101960042,-0.245788439,1,0,0,1.6699,Basalt_rect,6,0,6,0,1,
5da6139c002c29001335b5a2,TCR,2024-06-24_15h33.26.120,LearnStrategy,2023.2.3,MacIntel,59.88023952,3,2,8,,,,,,,,4,09,,,,,,,,,,,2,2.02,0,,,,,,-0.141474474,-0.249471096,1,0,0,2.0199,Basalt_rect,7,0,7,0,1,
5da6139c002c29001335b5a2,TCR,2024-06-24_15h33.26.120,LearnStrategy,2023.2.3,MacIntel,59.88023952,3,2,9,,,,,,,,4,08,,,,,,,,,,,3,1.246,0,,,,,,0.071957262,-0.257098524,1,0,0,1.2456,Diorite_rect,8,0,8,0,1,
5da6139c002c29001335b5a2,TCR,2024-06-24_15h33.26.120,LearnStrategy,2023.2.3,MacIntel,59.88023952,3,2,10,,,,,,,,2,06,,,,,,,,,,,2,1.18,1,,,,,,-0.113369751,-0.263455404,1,0,0,1.18,Basalt_rect,9,0,9,0,1,
5da6139c002c29001335b5a2,TCR,2024-06-24_15h33.26.120,LearnStrategy,2023.2.3,MacIntel,59.88023952,3,2,11,,,,,,,,7,16,,,,,,,,,,,6,2.673,0,,,,,,-0.063100993,-0.410272285,1,0,0,2.673,Pegmatite_rect,10,0,10,0,1,
5da6139c002c29001335b5a2,TCR,2024-06-24_15h33.26.120,LearnStrategy,2023.2.3,MacIntel,59.88023952,3,2,12,,,,,,,,5,08,,,,,,,,,,,5,2.203,1,,,,,,-0.383325873,-0.398615248,1,0,0,2.2029,Obsidian_rect,11,0,11,0,1,
5da6139c002c29001335b5a2,TCR,2024-06-24_15h33.26.120,LearnStrategy,2023.2.3,MacIntel,59.88023952,3,2,13,,,,,,,,2,04,,,,,,,,,,,2,1.105,1,,,,,,-0.104532335,-0.260690443,1,0,0,1.1051,Basalt_rect,12,0,12,0,1,
5da6139c002c29001335b5a2,TCR,2024-06-24_15h33.26.120,LearnStrategy,2023.2.3,MacIntel,59.88023952,3,2,14,,,,,,,,8,06,,,,,,,,,,,8,1.103,1,,,,,,0.454624973,-0.407091471,1,0,0,1.1028,Pumice_rect,13,0,13,0,1,
5da6139c002c29001335b5a2,TCR,2024-06-24_15h33.26.120,LearnStrategy,2023.2.3,MacIntel,59.88023952,3,2,15,,,,,,,,1,16,,,,,,,,,,,7,2.068,0,,,,,,0.211362779,-0.39076728,1,0,0,2.0684,Peridotite_rect,14,0,14,0,1,
5da6139c002c29001335b5a2,TCR,2024-06-24_15h33.26.120,LearnStrategy,2023.2.3,MacIntel,59.88023952,3,2,16,,,,,,,,6,05,,,,,,,,,,,4,1.327,0,,,,,,0.351602648,-0.253184747,1,0,0,1.3266,Gabbro_rect,15,0,15,0,1,
5da6139c002c29001335b5a2,TCR,2024-06-24_15h33.26.120,LearnStrategy,2023.2.3,MacIntel,59.88023952,4,1,1,-0.003643121,-0.007799242,1,0,0,0.9132,rock_grid_rect_2,8,03,-1,-1,0.913,0.360844184,-0.379197998,1,0,0,1.1365,Pumice_rect,8,1.136,1,0,0,0,0,1,,,,,,,,,,,,,
5da6139c002c29001335b5a2,TCR,2024-06-24_15h33.26.120,LearnStrategy,2023.2.3,MacIntel,59.88023952,4,1,2,0.002813789,0.014700521,1,0,0,0.9262,rock_grid_rect_2,4,01,-1,-1,0.926,0.136989882,-0.417044542,1,0,0,2.0539,Peridotite_rect,7,2.054,0,1,0,1,0,1,,,,,,,,,,,,,
5da6139c002c29001335b5a2,TCR,2024-06-24_15h33.26.120,LearnStrategy,2023.2.3,MacIntel,59.88023952,4,1,3,0.055891927,0.006199103,1,0,0,0.778,rock_grid_rect_2,6,16,-1,-1,0.778,0.127714979,-0.386062622,1,0,0,1.2455,Peridotite_rect,7,1.245,0,2,0,2,0,1,,,,,,,,,,,,,
5da6139c002c29001335b5a2,TCR,2024-06-24_15h33.26.120,LearnStrategy,2023.2.3,MacIntel,59.88023952,4,1,4,-0.002823961,-0.008739963,1,0,0,0.8678,rock_grid_rect_2,6,07,-1,-1,0.868,-0.142637939,-0.405770806,1,0,0,1.7005,Pegmatite_rect,6,1.701,1,3,0,3,0,1,,,,,,,,,,,,,
5da6139c002c29001335b5a2,TCR,2024-06-24_15h33.26.120,LearnStrategy,2023.2.3,MacIntel,59.88023952,4,1,5,0.024510159,-0.003131477,1,0,0,0.9333,rock_grid_rect_2,6,09,-1,-1,0.933,0.097829793,-0.389683634,1,0,0,0.9914,Peridotite_rect,7,0.991,0,4,0,4,0,1,,,,,,,,,,,,,
5da6139c002c29001335b5a2,TCR,2024-06-24_15h33.26.120,LearnStrategy,2023.2.3,MacIntel,59.88023952,4,1,6,0.058027547,0.009141846,1,0,0,0.7125,rock_grid_rect_2,1,14,-1,-1,0.712,-0.096819865,-0.244326511,1,0,0,1.1959,Basalt_rect,2,1.196,0,5,0,5,0,1,,,,,,,,,,,,,
5da6139c002c29001335b5a2,TCR,2024-06-24_15h33.26.120,LearnStrategy,2023.2.3,MacIntel,59.88023952,4,1,7,0.018904555,0.004242757,1,0,0,0.805,rock_grid_rect_2,3,02,-1,-1,0.805,-0.09643358,-0.267249349,1,0,0,0.864,Basalt_rect,2,0.864,0,6,0,6,0,1,,,,,,,,,,,,,
5da6139c002c29001335b5a2,TCR,2024-06-24_15h33.26.120,LearnStrategy,2023.2.3,MacIntel,59.88023952,4,1,8,0.035367567,-0.008466424,1,0,0,0.8452,rock_grid_rect_2,7,10,-1,-1,0.845,0.097081095,-0.24886712,1,0,0,0.9954,Diorite_rect,3,0.995,0,7,0,7,0,1,,,,,,,,,,,,,
5da6139c002c29001335b5a2,TCR,2024-06-24_15h33.26.120,LearnStrategy,2023.2.3,MacIntel,59.88023952,4,1,9,0.021388211,-0.014829678,1,0,0,0.7894,rock_grid_rect_2,7,07,-1,-1,0.789,0.115584717,-0.408022054,1,0,0,1.1353,Peridotite_rect,7,1.135,1,8,0,8,0,1,,,,,,,,,,,,,
5da6139c002c29001335b5a2,TCR,2024-06-24_15h33.26.120,LearnStrategy,2023.2.3,MacIntel,59.88023952,4,1,10,-0.041199002,-0.010053982,1,0,0,0.9399,rock_grid_rect_2,1,01,-1,-1,0.94,-0.349238688,-0.259709201,1,0,0,2.4829,Andesite_rect,1,2.483,1,9,0,9,0,1,,,,,,,,,,,,,
5da6139c002c29001335b5a2,TCR,2024-06-24_15h33.26.120,LearnStrategy,2023.2.3,MacIntel,59.88023952,4,1,11,-0.012253689,0.011456977,1,0,0,0.8907,rock_grid_rect_2,5,04,-1,-1,0.891,-0.372720778,-0.410060696,1,0,0,0.9982,Obsidian_rect,5,0.998,1,10,0,10,0,1,,,,,,,,,,,,,
5da6139c002c29001335b5a2,TCR,2024-06-24_15h33.26.120,LearnStrategy,2023.2.3,MacIntel,59.88023952,4,1,12,-0.016917114,0.007565104,1,0,0,0.7545,rock_grid_rect_2,2,01,-1,-1,0.755,-0.096126573,-0.230822144,1,0,0,1.3018,Basalt_rect,2,1.302,1,11,0,11,0,1,,,,,,,,,,,,,
5da6139c002c29001335b5a2,TCR,2024-06-24_15h33.26.120,LearnStrategy,2023.2.3,MacIntel,59.88023952,4,1,13,-0.012308824,-0.003398132,1,0,0,0.7972,rock_grid_rect_2,1,03,-1,-1,0.797,-0.143151245,-0.23242452,1,0,0,0.9816,Basalt_rect,2,0.982,0,12,0,12,0,1,,,,,,,,,,,,,
5da6139c002c29001335b5a2,TCR,2024-06-24_15h33.26.120,LearnStrategy,2023.2.3,MacIntel,59.88023952,4,1,14,-0.001421509,-0.00609297,1,0,0,0.6656,rock_grid_rect_2,3,15,-1,-1,0.666,0.127599013,-0.395867174,1,0,0,1.4516,Peridotite_rect,7,1.452,0,13,0,13,0,1,,,,,,,,,,,,,
5da6139c002c29001335b5a2,TCR,2024-06-24_15h33.26.120,LearnStrategy,2023.2.3,MacIntel,59.88023952,4,1,15,0.03480584,-0.003955112,1,0,0,0.6149,rock_grid_rect_2,4,03,-1,-1,0.615,-0.089879422,-0.419533895,1,0,0,2.352,Pegmatite_rect,6,2.352,0,14,0,14,0,1,,,,,,,,,,,,,
5da6139c002c29001335b5a2,TCR,2024-06-24_15h33.26.120,LearnStrategy,2023.2.3,MacIntel,59.88023952,4,1,16,0.040599162,-0.01786516,1,0,0,0.6797,rock_grid_rect_2,4,16,-1,-1,0.68,0.101260308,-0.264250217,1,0,0,1.712,Diorite_rect,3,1.712,0,15,0,15,0,1,,,,,,,,,,,,,
5da6139c002c29001335b5a2,TCR,2024-06-24_15h33.26.120,LearnStrategy,2023.2.3,MacIntel,59.88023952,4,2,1,,,,,,,,5,07,,,,,,,,,,,5,1.527,1,,,,,,-0.412534078,-0.400238919,1,0,0,1.5271,Obsidian_rect,0,0,0,0,1,
5da6139c002c29001335b5a2,TCR,2024-06-24_15h33.26.120,LearnStrategy,2023.2.3,MacIntel,59.88023952,4,2,2,,,,,,,,5,14,,,,,,,,,,,5,1.059,1,,,,,,-0.340802273,-0.408913506,1,0,0,1.0589,Obsidian_rect,1,0,1,0,1,
5da6139c002c29001335b5a2,TCR,2024-06-24_15h33.26.120,LearnStrategy,2023.2.3,MacIntel,59.88023952,4,2,3,,,,,,,,6,05,,,,,,,,,,,6,2.394,1,,,,,,-0.077373115,-0.415897217,1,0,0,2.3942,Pegmatite_rect,2,0,2,0,1,
5da6139c002c29001335b5a2,TCR,2024-06-24_15h33.26.120,LearnStrategy,2023.2.3,MacIntel,59.88023952,4,2,4,,,,,,,,2,06,,,,,,,,,,,2,1.456,1,,,,,,-0.115103692,-0.244481405,1,0,0,1.4562,Basalt_rect,3,0,3,0,1,
5da6139c002c29001335b5a2,TCR,2024-06-24_15h33.26.120,LearnStrategy,2023.2.3,MacIntel,59.88023952,4,2,5,,,,,,,,1,07,,,,,,,,,,,4,2.121,0,,,,,,0.40899821,-0.256727363,1,0,0,2.1208,Gabbro_rect,4,0,4,0,1,
5da6139c002c29001335b5a2,TCR,2024-06-24_15h33.26.120,LearnStrategy,2023.2.3,MacIntel,59.88023952,4,2,6,,,,,,,,7,08,,,,,,,,,,,7,1.77,1,,,,,,0.181319105,-0.405109253,1,0,0,1.7697,Peridotite_rect,5,0,5,0,1,
5da6139c002c29001335b5a2,TCR,2024-06-24_15h33.26.120,LearnStrategy,2023.2.3,MacIntel,59.88023952,4,2,7,,,,,,,,3,07,,,,,,,,,,,3,1.776,1,,,,,,0.153000624,-0.263178914,1,0,0,1.7756,Diorite_rect,6,0,6,0,1,
5da6139c002c29001335b5a2,TCR,2024-06-24_15h33.26.120,LearnStrategy,2023.2.3,MacIntel,59.88023952,4,2,8,,,,,,,,8,06,,,,,,,,,,,8,1.113,1,,,,,,0.345858426,-0.389767388,1,0,0,1.1133,Pumice_rect,7,0,7,0,1,
5da6139c002c29001335b5a2,TCR,2024-06-24_15h33.26.120,LearnStrategy,2023.2.3,MacIntel,59.88023952,4,2,9,,,,,,,,7,16,,,,,,,,,,,7,4.563,1,,,,,,0.057559747,-0.405247057,1,0,0,4.5626,Peridotite_rect,8,0,8,0,1,
5da6139c002c29001335b5a2,TCR,2024-06-24_15h33.26.120,LearnStrategy,2023.2.3,MacIntel,59.88023952,4,2,10,,,,,,,,4,10,,,,,,,,,,,1,2.614,0,,,,,,-0.350512424,-0.250128445,1,0,0,2.6136,Andesite_rect,9,0,9,0,1,
5da6139c002c29001335b5a2,TCR,2024-06-24_15h33.26.120,LearnStrategy,2023.2.3,MacIntel,59.88023952,4,2,11,,,,,,,,1,06,,,,,,,,,,,4,3.492,0,,,,,,0.325907525,-0.242811822,1,0,0,3.492,Gabbro_rect,10,0,10,0,1,
5da6139c002c29001335b5a2,TCR,2024-06-24_15h33.26.120,LearnStrategy,2023.2.3,MacIntel,59.88023952,4,2,12,,,,,,,,3,06,,,,,,,,,,,4,1.153,0,,,,,,0.313025784,-0.248413222,1,0,0,1.1529,Gabbro_rect,11,0,11,0,1,
5da6139c002c29001335b5a2,TCR,2024-06-24_15h33.26.120,LearnStrategy,2023.2.3,MacIntel,59.88023952,4,2,13,,,,,,,,8,05,,,,,,,,,,,8,1.322,1,,,,,,0.330494792,-0.406173367,1,0,0,1.3219,Pumice_rect,12,0,12,0,1,
5da6139c002c29001335b5a2,TCR,2024-06-24_15h33.26.120,LearnStrategy,2023.2.3,MacIntel,59.88023952,4,2,14,,,,,,,,2,04,,,,,,,,,,,2,2.157,1,,,,,,-0.13316664,-0.241056179,1,0,0,2.1569,Basalt_rect,13,0,13,0,1,
5da6139c002c29001335b5a2,TCR,2024-06-24_15h33.26.120,LearnStrategy,2023.2.3,MacIntel,59.88023952,4,2,15,,,,,,,,4,15,,,,,,,,,,,4,3.378,1,,,,,,0.407475586,-0.249181993,1,0,0,3.3782,Gabbro_rect,14,0,14,0,1,
5da6139c002c29001335b5a2,TCR,2024-06-24_15h33.26.120,LearnStrategy,2023.2.3,MacIntel,59.88023952,4,2,16,,,,,,,,6,11,,,,,,,,,,,6,1.136,1,,,,,,-0.091823459,-0.391203885,1,0,0,1.1364,Pegmatite_rect,15,0,15,0,1,
5da6139c002c29001335b5a2,TCR,2024-06-24_15h33.26.120,LearnStrategy,2023.2.3,MacIntel,59.88023952,5,1,1,-0.008871799,0.004496901,1,0,0,1.1713,rock_grid_rect_2,6,07,-1,-1,1.171,-0.071375936,-0.390389065,1,0,0,1.4138,Pegmatite_rect,6,1.414,1,0,0,0,0,1,,,,,,,,,,,,,
5da6139c002c29001335b5a2,TCR,2024-06-24_15h33.26.120,LearnStrategy,2023.2.3,MacIntel,59.88023952,5,1,2,0.018574829,-0.004323866,1,0,0,1.0178,rock_grid_rect_2,1,03,-1,-1,1.018,-0.13606174,-0.243957316,1,0,0,2.3273,Basalt_rect,2,2.327,0,1,0,1,0,1,,,,,,,,,,,,,
5da6139c002c29001335b5a2,TCR,2024-06-24_15h33.26.120,LearnStrategy,2023.2.3,MacIntel,59.88023952,5,1,3,-0.040122138,-0.003243408,1,0,0,0.9053,rock_grid_rect_2,3,09,-1,-1,0.905,0.077524957,-0.399935913,1,0,0,2.583,Peridotite_rect,7,2.583,0,2,0,2,0,1,,,,,,,,,,,,,
5da6139c002c29001335b5a2,TCR,2024-06-24_15h33.26.120,LearnStrategy,2023.2.3,MacIntel,59.88023952,5,1,4,0.039501953,-0.013063524,1,0,0,0.7852,rock_grid_rect_2,7,02,-1,-1,0.785,0.098141005,-0.228986206,1,0,0,0.9131,Diorite_rect,3,0.913,0,3,0,3,0,1,,,,,,,,,,,,,
5da6139c002c29001335b5a2,TCR,2024-06-24_15h33.26.120,LearnStrategy,2023.2.3,MacIntel,59.88023952,5,1,5,0.066589491,-0.015150452,1,0,0,1.147,rock_grid_rect_2,8,03,-1,-1,1.147,0.31025099,-0.385713976,1,0,0,1.0638,Pumice_rect,8,1.064,1,4,0,4,0,1,,,,,,,,,,,,,
5da6139c002c29001335b5a2,TCR,2024-06-24_15h33.26.120,LearnStrategy,2023.2.3,MacIntel,59.88023952,5,1,6,0.062013482,0.001886732,1,0,0,0.7381,rock_grid_rect_2,3,15,-1,-1,0.738,0.337313368,-0.241045803,1,0,0,2.1714,Gabbro_rect,4,2.171,0,5,0,5,0,1,,,,,,,,,,,,,
5da6139c002c29001335b5a2,TCR,2024-06-24_15h33.26.120,LearnStrategy,2023.2.3,MacIntel,59.88023952,5,1,7,0.055961982,-0.006469557,1,0,0,0.6437,rock_grid_rect_2,4,14,-1,-1,0.644,-0.305490926,-0.243672146,1,0,0,2.6074,Andesite_rect,1,2.607,0,6,0,6,0,1,,,,,,,,,,,,,
5da6139c002c29001335b5a2,TCR,2024-06-24_15h33.26.120,LearnStrategy,2023.2.3,MacIntel,59.88023952,5,1,8,0.083231947,0.005007765,1,0,0,0.5798,rock_grid_rect_2,1,09,-1,-1,0.58,-0.076235487,-0.260163778,1,0,0,0.9907,Basalt_rect,2,0.991,0,7,0,7,0,1,,,,,,,,,,,,,
5da6139c002c29001335b5a2,TCR,2024-06-24_15h33.26.120,LearnStrategy,2023.2.3,MacIntel,59.88023952,5,1,9,0.033479886,-0.022400275,1,0,0,0.906,rock_grid_rect_2,4,13,-1,-1,0.906,0.133454658,-0.241414388,1,0,0,3.3143,Diorite_rect,3,3.314,0,8,0,8,0,1,,,,,,,,,,,,,
5da6139c002c29001335b5a2,TCR,2024-06-24_15h33.26.120,LearnStrategy,2023.2.3,MacIntel,59.88023952,5,1,10,0.050937364,-0.021625773,1,0,0,0.5838,rock_grid_rect_2,1,03,-1,-1,0.584,-0.35190901,-0.247094794,1,0,0,1.5726,Andesite_rect,1,1.573,1,9,0,9,0,1,,,,,,,,,,,,,
5da6139c002c29001335b5a2,TCR,2024-06-24_15h33.26.120,LearnStrategy,2023.2.3,MacIntel,59.88023952,5,1,11,0.007041219,0.01260359,1,0,0,0.6994,rock_grid_rect_2,2,12,-1,-1,0.699,-0.081334568,-0.243645833,1,0,0,1.5295,Basalt_rect,2,1.53,1,10,0,10,0,1,,,,,,,,,,,,,
5da6139c002c29001335b5a2,TCR,2024-06-24_15h33.26.120,LearnStrategy,2023.2.3,MacIntel,59.88023952,5,1,12,0.009342312,0.005440403,1,0,0,1.2211,rock_grid_rect_2,7,07,-1,-1,1.221,0.125481567,-0.407137316,1,0,0,2.0167,Peridotite_rect,7,2.017,1,11,0,11,0,1,,,,,,,,,,,,,
5da6139c002c29001335b5a2,TCR,2024-06-24_15h33.26.120,LearnStrategy,2023.2.3,MacIntel,59.88023952,5,1,13,0.05701043,-0.020730828,1,0,0,0.7131,rock_grid_rect_2,3,15,-1,-1,0.713,0.318419529,-0.241379395,1,0,0,2.9635,Gabbro_rect,4,2.964,0,12,0,12,0,1,,,,,,,,,,,,,
5da6139c002c29001335b5a2,TCR,2024-06-24_15h33.26.120,LearnStrategy,2023.2.3,MacIntel,59.88023952,5,1,14,0.024384494,-0.002270881,1,0,0,0.7514,rock_grid_rect_2,6,08,-1,-1,0.751,-0.111588677,-0.385515001,1,0,0,1.0954,Pegmatite_rect,6,1.095,1,13,0,13,0,1,,,,,,,,,,,,,
5da6139c002c29001335b5a2,TCR,2024-06-24_15h33.26.120,LearnStrategy,2023.2.3,MacIntel,59.88023952,5,1,15,0.045830078,0.010730591,1,0,0,0.7409,rock_grid_rect_2,4,14,-1,-1,0.741,0.380581733,-0.231277127,1,0,0,1.1974,Gabbro_rect,4,1.197,1,14,0,14,0,1,,,,,,,,,,,,,
5da6139c002c29001335b5a2,TCR,2024-06-24_15h33.26.120,LearnStrategy,2023.2.3,MacIntel,59.88023952,5,1,16,0.02841017,-0.016779616,1,0,0,0.7946,rock_grid_rect_2,1,01,-1,-1,0.795,-0.383404236,-0.248009779,1,0,0,2.7051,Andesite_rect,1,2.705,1,15,0,15,0,1,,,,,,,,,,,,,
5da6139c002c29001335b5a2,TCR,2024-06-24_15h33.26.120,LearnStrategy,2023.2.3,MacIntel,59.88023952,5,2,1,,,,,,,,1,05,,,,,,,,,,,2,5.708,0,,,,,,-0.03895596,-0.245249498,1,0,0,5.7079,Basalt_rect,0,0,0,0,1,
5da6139c002c29001335b5a2,TCR,2024-06-24_15h33.26.120,LearnStrategy,2023.2.3,MacIntel,59.88023952,5,2,2,,,,,,,,5,11,,,,,,,,,,,5,1.246,1,,,,,,-0.36356503,-0.417859565,1,0,0,1.2463,Obsidian_rect,1,0,1,0,1,
5da6139c002c29001335b5a2,TCR,2024-06-24_15h33.26.120,LearnStrategy,2023.2.3,MacIntel,59.88023952,5,2,3,,,,,,,,5,05,,,,,,,,,,,5,1.061,1,,,,,,-0.32511322,-0.387363078,1,0,0,1.0605,Obsidian_rect,2,0,2,0,1,
5da6139c002c29001335b5a2,TCR,2024-06-24_15h33.26.120,LearnStrategy,2023.2.3,MacIntel,59.88023952,5,2,4,,,,,,,,4,08,,,,,,,,,,,1,3.025,0,,,,,,-0.341345215,-0.248184611,1,0,0,3.0253,Andesite_rect,3,0,3,0,1,
5da6139c002c29001335b5a2,TCR,2024-06-24_15h33.26.120,LearnStrategy,2023.2.3,MacIntel,59.88023952,5,2,5,,,,,,,,7,13,,,,,,,,,,,3,2.672,0,,,,,,0.207127618,-0.237195502,1,0,0,2.6722,Diorite_rect,4,0,4,0,1,
5da6139c002c29001335b5a2,TCR,2024-06-24_15h33.26.120,LearnStrategy,2023.2.3,MacIntel,59.88023952,5,2,6,,,,,,,,6,03,,,,,,,,,,,6,1.357,1,,,,,,-0.121180013,-0.408515354,1,0,0,1.3571,Pegmatite_rect,5,0,5,0,1,
5da6139c002c29001335b5a2,TCR,2024-06-24_15h33.26.120,LearnStrategy,2023.2.3,MacIntel,59.88023952,5,2,7,,,,,,,,2,08,,,,,,,,,,,1,1.912,0,,,,,,-0.396551615,-0.241056112,1,0,0,1.9121,Andesite_rect,6,0,6,0,1,
5da6139c002c29001335b5a2,TCR,2024-06-24_15h33.26.120,LearnStrategy,2023.2.3,MacIntel,59.88023952,5,2,8,,,,,,,,8,16,,,,,,,,,,,8,1.059,1,,,,,,0.358527018,-0.401338908,1,0,0,1.0593,Pumice_rect,7,0,7,0,1,
5da6139c002c29001335b5a2,TCR,2024-06-24_15h33.26.120,LearnStrategy,2023.2.3,MacIntel,59.88023952,5,2,9,,,,,,,,3,10,,,,,,,,,,,3,2.847,1,,,,,,0.127526313,-0.230097656,1,0,0,2.8466,Diorite_rect,8,0,8,0,1,
5da6139c002c29001335b5a2,TCR,2024-06-24_15h33.26.120,LearnStrategy,2023.2.3,MacIntel,59.88023952,5,2,10,,,,,,,,2,05,,,,,,,,,,,1,1.944,0,,,,,,-0.346080661,-0.25294515,1,0,0,1.9435,Andesite_rect,9,0,9,0,1,
5da6139c002c29001335b5a2,TCR,2024-06-24_15h33.26.120,LearnStrategy,2023.2.3,MacIntel,59.88023952,5,2,11,,,,,,,,8,08,,,,,,,,,,,8,1.124,1,,,,,,0.36921875,-0.402786933,1,0,0,1.1243,Pumice_rect,10,0,10,0,1,
5da6139c002c29001335b5a2,TCR,2024-06-24_15h33.26.120,LearnStrategy,2023.2.3,MacIntel,59.88023952,5,2,12,,,,,,,,6,15,,,,,,,,,,,6,1.523,1,,,,,,-0.121308797,-0.414389716,1,0,0,1.5231,Pegmatite_rect,11,0,11,0,1,
5da6139c002c29001335b5a2,TCR,2024-06-24_15h33.26.120,LearnStrategy,2023.2.3,MacIntel,59.88023952,5,2,13,,,,,,,,4,09,,,,,,,,,,,1,4.105,0,,,,,,-0.350229763,-0.255622559,1,0,0,4.1051,Andesite_rect,12,0,12,0,1,
5da6139c002c29001335b5a2,TCR,2024-06-24_15h33.26.120,LearnStrategy,2023.2.3,MacIntel,59.88023952,5,2,14,,,,,,,,1,10,,,,,,,,,,,2,1.737,0,,,,,,-0.163952365,-0.237595486,1,0,0,1.7369,Basalt_rect,13,0,13,0,1,
5da6139c002c29001335b5a2,TCR,2024-06-24_15h33.26.120,LearnStrategy,2023.2.3,MacIntel,59.88023952,5,2,15,,,,,,,,3,16,,,,,,,,,,,7,1.443,0,,,,,,0.087160102,-0.395494792,1,0,0,1.4433,Peridotite_rect,14,0,14,0,1,
5da6139c002c29001335b5a2,TCR,2024-06-24_15h33.26.120,LearnStrategy,2023.2.3,MacIntel,59.88023952,5,2,16,,,,,,,,7,04,,,,,,,,,,,6,1.102,0,,,,,,-0.116084052,-0.391250068,1,0,0,1.1017,Pegmatite_rect,15,0,15,0,1,
5da6139c002c29001335b5a2,TCR,2024-06-24_15h33.26.120,LearnStrategy,2023.2.3,MacIntel,59.88023952,6,1,1,-0.024805094,0.006454332,1,0,0,1.1215,rock_grid_rect_2,1,14,-1,-1,1.121,-0.102187093,-0.229288059,1,0,0,1.1764,Basalt_rect,2,1.176,0,0,0,0,0,1,,,,,,,,,,,,,
5da6139c002c29001335b5a2,TCR,2024-06-24_15h33.26.120,LearnStrategy,2023.2.3,MacIntel,59.88023952,6,1,2,-0.033091295,-0.005167406,1,0,0,0.9239,rock_grid_rect_2,2,10,-1,-1,0.924,0.343255073,-0.246197645,1,0,0,1.6264,Gabbro_rect,4,1.626,0,1,0,1,0,1,,,,,,,,,,,,,
5da6139c002c29001335b5a2,TCR,2024-06-24_15h33.26.120,LearnStrategy,2023.2.3,MacIntel,59.88023952,6,1,3,-0.009601712,0.003211636,1,0,0,0.6826,rock_grid_rect_2,3,14,-1,-1,0.683,0.14447408,-0.411471965,1,0,0,1.9309,Peridotite_rect,7,1.931,0,2,0,2,0,1,,,,,,,,,,,,,
5da6139c002c29001335b5a2,TCR,2024-06-24_15h33.26.120,LearnStrategy,2023.2.3,MacIntel,59.88023952,6,1,4,-0.059196506,-0.014843784,1,0,0,0.7418,rock_grid_rect_2,3,12,-1,-1,0.742,0.141142036,-0.234708998,1,0,0,0.9244,Diorite_rect,3,0.924,1,3,0,3,0,1,,,,,,,,,,,,,
5da6139c002c29001335b5a2,TCR,2024-06-24_15h33.26.120,LearnStrategy,2023.2.3,MacIntel,59.88023952,6,1,5,0.035728828,-0.014445123,1,0,0,0.7359,rock_grid_rect_2,4,16,-1,-1,0.736,-0.328040161,-0.266750353,1,0,0,2.216,Andesite_rect,1,2.216,0,4,0,4,0,1,,,,,,,,,,,,,
5da6139c002c29001335b5a2,TCR,2024-06-24_15h33.26.120,LearnStrategy,2023.2.3,MacIntel,59.88023952,6,1,6,0.036999308,-0.006675551,1,0,0,0.7332,rock_grid_rect_2,6,16,-1,-1,0.733,-0.132729153,-0.393943956,1,0,0,1.4228,Pegmatite_rect,6,1.423,1,5,0,5,0,1,,,,,,,,,,,,,
5da6139c002c29001335b5a2,TCR,2024-06-24_15h33.26.120,LearnStrategy,2023.2.3,MacIntel,59.88023952,6,1,7,0.015483738,0.009610528,1,0,0,0.7485,rock_grid_rect_2,7,02,-1,-1,0.748,0.085852254,-0.391011556,1,0,0,1.8941,Peridotite_rect,7,1.894,1,6,0,6,0,1,,,,,,,,,,,,,
5da6139c002c29001335b5a2,TCR,2024-06-24_15h33.26.120,LearnStrategy,2023.2.3,MacIntel,59.88023952,6,1,8,0.013009847,-0.001274618,1,0,0,0.8323,rock_grid_rect_2,1,01,-1,-1,0.832,-0.369610324,-0.249070841,1,0,0,1.6188,Andesite_rect,1,1.619,1,7,0,7,0,1,,,,,,,,,,,,,
5da6139c002c29001335b5a2,TCR,2024-06-24_15h33.26.120,LearnStrategy,2023.2.3,MacIntel,59.88023952,6,1,9,-0.015723741,-0.011598714,1,0,0,0.7285,rock_grid_rect_2,2,12,-1,-1,0.728,-0.100118747,-0.241705594,1,0,0,0.9517,Basalt_rect,2,0.952,1,8,0,8,0,1,,,,,,,,,,,,,
5da6139c002c29001335b5a2,TCR,2024-06-24_15h33.26.120,LearnStrategy,2023.2.3,MacIntel,59.88023952,6,1,10,-0.012162272,0.006405877,1,0,0,0.7305,rock_grid_rect_2,1,09,-1,-1,0.73,-0.316086121,-0.245231052,1,0,0,2.5233,Andesite_rect,1,2.523,1,9,0,9,0,1,,,,,,,,,,,,,
5da6139c002c29001335b5a2,TCR,2024-06-24_15h33.26.120,LearnStrategy,2023.2.3,MacIntel,59.88023952,6,1,11,-0.033475749,-0.003437229,1,0,0,0.6286,rock_grid_rect_2,7,06,-1,-1,0.629,-0.095431654,-0.393116116,1,0,0,1.2731,Pegmatite_rect,6,1.273,0,10,0,10,0,1,,,,,,,,,,,,,
5da6139c002c29001335b5a2,TCR,2024-06-24_15h33.26.120,LearnStrategy,2023.2.3,MacIntel,59.88023952,6,1,12,0.055160116,-0.012361891,1,0,0,0.7115,rock_grid_rect_2,7,15,-1,-1,0.712,0.069781426,-0.402930773,1,0,0,0.9487,Peridotite_rect,7,0.949,1,11,0,11,0,1,,,,,,,,,,,,,
5da6139c002c29001335b5a2,TCR,2024-06-24_15h33.26.120,LearnStrategy,2023.2.3,MacIntel,59.88023952,6,1,13,-0.028978475,0.003346151,1,0,0,0.8205,rock_grid_rect_2,4,03,-1,-1,0.821,-0.346746826,-0.253723958,1,0,0,1.6375,Andesite_rect,1,1.637,0,12,0,12,0,1,,,,,,,,,,,,,
5da6139c002c29001335b5a2,TCR,2024-06-24_15h33.26.120,LearnStrategy,2023.2.3,MacIntel,59.88023952,6,1,14,0.003397759,-0.006106601,1,0,0,1.1392,rock_grid_rect_2,1,02,-1,-1,1.139,-0.116094225,-0.269236043,1,0,0,1.2043,Basalt_rect,2,1.204,0,13,0,13,0,1,,,,,,,,,,,,,
5da6139c002c29001335b5a2,TCR,2024-06-24_15h33.26.120,LearnStrategy,2023.2.3,MacIntel,59.88023952,6,1,15,0.010469021,0.007902256,1,0,0,0.5165,rock_grid_rect_2,4,05,-1,-1,0.517,0.17434177,-0.265100911,1,0,0,2.9154,Diorite_rect,3,2.915,0,14,0,14,0,1,,,,,,,,,,,,,
5da6139c002c29001335b5a2,TCR,2024-06-24_15h33.26.120,LearnStrategy,2023.2.3,MacIntel,59.88023952,6,1,16,0.021347995,-0.006546834,1,0,0,0.6455,rock_grid_rect_2,8,09,-1,-1,0.646,0.315872328,-0.398594428,1,0,0,1.5139,Pumice_rect,8,1.514,1,15,0,15,0,1,,,,,,,,,,,,,
5da6139c002c29001335b5a2,TCR,2024-06-24_15h33.26.120,LearnStrategy,2023.2.3,MacIntel,59.88023952,6,2,1,,,,,,,,6,10,,,,,,,,,,,6,1.397,1,,,,,,-0.099057007,-0.405118137,1,0,0,1.3971,Pegmatite_rect,0,0,0,0,1,
5da6139c002c29001335b5a2,TCR,2024-06-24_15h33.26.120,LearnStrategy,2023.2.3,MacIntel,59.88023952,6,2,2,,,,,,,,5,16,,,,,,,,,,,5,1.102,1,,,,,,-0.368287727,-0.402146267,1,0,0,1.1021,Obsidian_rect,1,0,1,0,1,
5da6139c002c29001335b5a2,TCR,2024-06-24_15h33.26.120,LearnStrategy,2023.2.3,MacIntel,59.88023952,6,2,3,,,,,,,,7,05,,,,,,,,,,,1,2.195,0,,,,,,-0.355721842,-0.249282023,1,0,0,2.195,Andesite_rect,2,0,2,0,1,
5da6139c002c29001335b5a2,TCR,2024-06-24_15h33.26.120,LearnStrategy,2023.2.3,MacIntel,59.88023952,6,2,4,,,,,,,,2,14,,,,,,,,,,,4,3.837,0,,,,,,0.438496501,-0.261737264,1,0,0,3.8369,Gabbro_rect,3,0,3,0,1,
5da6139c002c29001335b5a2,TCR,2024-06-24_15h33.26.120,LearnStrategy,2023.2.3,MacIntel,59.88023952,6,2,5,,,,,,,,8,02,,,,,,,,,,,8,1.256,1,,,,,,0.364104004,-0.414978773,1,0,0,1.2561,Pumice_rect,4,0,4,0,1,
5da6139c002c29001335b5a2,TCR,2024-06-24_15h33.26.120,LearnStrategy,2023.2.3,MacIntel,59.88023952,6,2,6,,,,,,,,2,09,,,,,,,,,,,1,1.717,0,,,,,,-0.337725762,-0.245688002,1,0,0,1.7172,Andesite_rect,5,0,5,0,1,
5da6139c002c29001335b5a2,TCR,2024-06-24_15h33.26.120,LearnStrategy,2023.2.3,MacIntel,59.88023952,6,2,7,,,,,,,,8,04,,,,,,,,,,,8,1.226,1,,,,,,0.385258247,-0.419274292,1,0,0,1.226,Pumice_rect,6,0,6,0,1,
5da6139c002c29001335b5a2,TCR,2024-06-24_15h33.26.120,LearnStrategy,2023.2.3,MacIntel,59.88023952,6,2,8,,,,,,,,5,08,,,,,,,,,,,5,1.056,1,,,,,,-0.324837986,-0.407586941,1,0,0,1.0556,Obsidian_rect,7,0,7,0,1,
5da6139c002c29001335b5a2,TCR,2024-06-24_15h33.26.120,LearnStrategy,2023.2.3,MacIntel,59.88023952,6,2,9,,,,,,,,7,14,,,,,,,,,,,3,3.427,0,,,,,,0.038457235,-0.242355618,1,0,0,3.4271,Diorite_rect,8,0,8,0,1,
5da6139c002c29001335b5a2,TCR,2024-06-24_15h33.26.120,LearnStrategy,2023.2.3,MacIntel,59.88023952,6,2,10,,,,,,,,1,16,,,,,,,,,,,1,3.422,1,,,,,,-0.325155436,-0.253007338,1,0,0,3.4222,Andesite_rect,9,0,9,0,1,
5da6139c002c29001335b5a2,TCR,2024-06-24_15h33.26.120,LearnStrategy,2023.2.3,MacIntel,59.88023952,6,2,11,,,,,,,,4,11,,,,,,,,,,,1,2.614,0,,,,,,-0.384886305,-0.238253038,1,0,0,2.6145,Andesite_rect,10,0,10,0,1,
5da6139c002c29001335b5a2,TCR,2024-06-24_15h33.26.120,LearnStrategy,2023.2.3,MacIntel,59.88023952,6,2,12,,,,,,,,4,12,,,,,,,,,,,4,1.238,1,,,,,,0.367174886,-0.251459283,1,0,0,1.2384,Gabbro_rect,11,0,11,0,1,
5da6139c002c29001335b5a2,TCR,2024-06-24_15h33.26.120,LearnStrategy,2023.2.3,MacIntel,59.88023952,6,2,13,,,,,,,,3,08,,,,,,,,,,,7,4.035,0,,,,,,0.095574748,-0.397479723,1,0,0,4.0346,Peridotite_rect,12,0,12,0,1,
5da6139c002c29001335b5a2,TCR,2024-06-24_15h33.26.120,LearnStrategy,2023.2.3,MacIntel,59.88023952,6,2,14,,,,,,,,1,11,,,,,,,,,,,1,2.117,1,,,,,,-0.352475349,-0.238538276,1,0,0,2.1171,Andesite_rect,13,0,13,0,1,
5da6139c002c29001335b5a2,TCR,2024-06-24_15h33.26.120,LearnStrategy,2023.2.3,MacIntel,59.88023952,6,2,15,,,,,,,,6,12,,,,,,,,,,,3,3.01,0,,,,,,0.130912069,-0.247159424,1,0,0,3.0095,Diorite_rect,14,0,14,0,1,
5da6139c002c29001335b5a2,TCR,2024-06-24_15h33.26.120,LearnStrategy,2023.2.3,MacIntel,59.88023952,6,2,16,,,,,,,,3,11,,,,,,,,,,,7,2.984,0,,,,,,0.103134969,-0.38214525,1,0,0,2.9837,Peridotite_rect,15,0,15,0,1,
5da6139c002c29001335b5a2,TCR,2024-06-24_15h33.26.120,LearnStrategy,2023.2.3,MacIntel,59.88023952,7,1,1,0.025875176,-0.015248888,1,0,0,0.9004,rock_grid_rect_2,2,11,-1,-1,0.9,-0.120245429,-0.262168172,1,0,0,1.1108,Basalt_rect,2,1.111,1,0,0,0,0,1,,,,,,,,,,,,,
5da6139c002c29001335b5a2,TCR,2024-06-24_15h33.26.120,LearnStrategy,2023.2.3,MacIntel,59.88023952,7,1,2,-0.046773478,0.006965637,1,0,0,0.7275,rock_grid_rect_2,6,13,-1,-1,0.727,-0.123295559,-0.401283569,1,0,0,1.262,Pegmatite_rect,6,1.262,1,1,0,1,0,1,,,,,,,,,,,,,
5da6139c002c29001335b5a2,TCR,2024-06-24_15h33.26.120,LearnStrategy,2023.2.3,MacIntel,59.88023952,7,1,3,-0.027504951,-0.00337321,1,0,0,0.7683,rock_grid_rect_2,4,05,-1,-1,0.768,0.429129096,-0.2537618,1,0,0,1.5308,Gabbro_rect,4,1.531,1,2,0,2,0,1,,,,,,,,,,,,,
5da6139c002c29001335b5a2,TCR,2024-06-24_15h33.26.120,LearnStrategy,2023.2.3,MacIntel,59.88023952,7,1,4,0.058967353,0.002572801,1,0,0,0.7167,rock_grid_rect_2,1,01,-1,-1,0.717,-0.352413771,-0.252121446,1,0,0,1.2538,Andesite_rect,1,1.254,1,3,0,3,0,1,,,,,,,,,,,,,
5da6139c002c29001335b5a2,TCR,2024-06-24_15h33.26.120,LearnStrategy,2023.2.3,MacIntel,59.88023952,7,1,5,-0.042084622,-0.001965129,1,0,0,0.7438,rock_grid_rect_2,2,02,-1,-1,0.744,0.101724921,-0.263987766,1,0,0,3.9697,Diorite_rect,3,3.97,0,4,0,4,0,1,,,,,,,,,,,,,
5da6139c002c29001335b5a2,TCR,2024-06-24_15h33.26.120,LearnStrategy,2023.2.3,MacIntel,59.88023952,7,1,6,0.035476549,0.007730882,1,0,0,0.7766,rock_grid_rect_2,1,09,-1,-1,0.777,-0.107746446,-0.250675795,1,0,0,1.1632,Basalt_rect,2,1.163,0,5,0,5,0,1,,,,,,,,,,,,,
5da6139c002c29001335b5a2,TCR,2024-06-24_15h33.26.120,LearnStrategy,2023.2.3,MacIntel,59.88023952,7,1,7,-0.006166789,0.011158854,1,0,0,0.4958,rock_grid_rect_2,7,07,-1,-1,0.496,0.104904039,-0.240581665,1,0,0,1.1917,Diorite_rect,3,1.192,0,6,0,6,0,1,,,,,,,,,,,,,
5da6139c002c29001335b5a2,TCR,2024-06-24_15h33.26.120,LearnStrategy,2023.2.3,MacIntel,59.88023952,7,1,8,0.03649821,-0.00603224,1,0,0,1.2551,rock_grid_rect_2,4,05,-1,-1,1.255,0.342981771,-0.265984022,1,0,0,2.2177,Gabbro_rect,4,2.218,1,7,0,7,0,1,,,,,,,,,,,,,
5da6139c002c29001335b5a2,TCR,2024-06-24_15h33.26.120,LearnStrategy,2023.2.3,MacIntel,59.88023952,7,1,9,-0.004371677,-0.002903476,1,0,0,0.6905,rock_grid_rect_2,7,10,-1,-1,0.691,0.141070489,-0.390419176,1,0,0,1.0957,Peridotite_rect,7,1.096,1,8,0,8,0,1,,,,,,,,,,,,,
5da6139c002c29001335b5a2,TCR,2024-06-24_15h33.26.120,LearnStrategy,2023.2.3,MacIntel,59.88023952,7,1,10,0.047695313,0.021762153,1,0,0,0.9718,rock_grid_rect_2,3,02,-1,-1,0.972,0.09919671,-0.237590739,1,0,0,2.5188,Diorite_rect,3,2.519,1,9,0,9,0,1,,,,,,,,,,,,,
5da6139c002c29001335b5a2,TCR,2024-06-24_15h33.26.120,LearnStrategy,2023.2.3,MacIntel,59.88023952,7,1,11,0.047241347,-0.010717367,1,0,0,1.1164,rock_grid_rect_2,1,04,-1,-1,1.116,-0.118844537,-0.24238661,1,0,0,1.1578,Basalt_rect,2,1.158,0,10,0,10,0,1,,,,,,,,,,,,,
5da6139c002c29001335b5a2,TCR,2024-06-24_15h33.26.120,LearnStrategy,2023.2.3,MacIntel,59.88023952,7,1,12,0.010009359,-0.005407715,1,0,0,0.7003,rock_grid_rect_2,3,14,-1,-1,0.7,0.092097439,-0.261405368,1,0,0,1.1881,Diorite_rect,3,1.188,1,11,0,11,0,1,,,,,,,,,,,,,
5da6139c002c29001335b5a2,TCR,2024-06-24_15h33.26.120,LearnStrategy,2023.2.3,MacIntel,59.88023952,7,1,13,-0.016859266,-0.003638238,1,0,0,0.8203,rock_grid_rect_2,3,12,-1,-1,0.82,0.104853923,-0.402103611,1,0,0,1.9605,Peridotite_rect,7,1.961,0,12,0,12,0,1,,,,,,,,,,,,,
5da6139c002c29001335b5a2,TCR,2024-06-24_15h33.26.120,LearnStrategy,2023.2.3,MacIntel,59.88023952,7,1,14,0.017104696,-0.002865262,1,0,0,0.562,rock_grid_rect_2,7,02,-1,-1,0.562,0.120231662,-0.395121596,1,0,0,1.6959,Peridotite_rect,7,1.696,1,13,0,13,0,1,,,,,,,,,,,,,
5da6139c002c29001335b5a2,TCR,2024-06-24_15h33.26.120,LearnStrategy,2023.2.3,MacIntel,59.88023952,7,1,15,0.024189182,0.007815043,1,0,0,0.754,rock_grid_rect_2,4,01,-1,-1,0.754,-0.178677572,-0.245185208,1,0,0,2.2216,Basalt_rect,2,2.222,0,14,0,14,0,1,,,,,,,,,,,,,
5da6139c002c29001335b5a2,TCR,2024-06-24_15h33.26.120,LearnStrategy,2023.2.3,MacIntel,59.88023952,7,1,16,0.040054525,0.000203654,1,0,0,0.8119,rock_grid_rect_2,2,16,-1,-1,0.812,-0.092492676,-0.244091051,1,0,0,1.5258,Basalt_rect,2,1.526,1,15,0,15,0,1,,,,,,,,,,,,,
5da6139c002c29001335b5a2,TCR,2024-06-24_15h33.26.120,LearnStrategy,2023.2.3,MacIntel,59.88023952,7,2,1,,,,,,,,1,06,,,,,,,,,,,4,1.321,0,,,,,,0.404823541,-0.237881063,1,0,0,1.3205,Gabbro_rect,0,0,0,0,1,
5da6139c002c29001335b5a2,TCR,2024-06-24_15h33.26.120,LearnStrategy,2023.2.3,MacIntel,59.88023952,7,2,2,,,,,,,,6,15,,,,,,,,,,,6,1.103,1,,,,,,-0.101923692,-0.398923069,1,0,0,1.1033,Pegmatite_rect,1,0,1,0,1,
5da6139c002c29001335b5a2,TCR,2024-06-24_15h33.26.120,LearnStrategy,2023.2.3,MacIntel,59.88023952,7,2,3,,,,,,,,7,05,,,,,,,,,,,3,3.136,0,,,,,,0.172345242,-0.247599759,1,0,0,3.1363,Diorite_rect,2,0,2,0,1,
5da6139c002c29001335b5a2,TCR,2024-06-24_15h33.26.120,LearnStrategy,2023.2.3,MacIntel,59.88023952,7,2,4,,,,,,,,8,08,,,,,,,,,,,8,1.216,1,,,,,,0.34127889,-0.386141425,1,0,0,1.2164,Pumice_rect,3,0,3,0,1,
5da6139c002c29001335b5a2,TCR,2024-06-24_15h33.26.120,LearnStrategy,2023.2.3,MacIntel,59.88023952,7,2,5,,,,,,,,7,16,,,,,,,,,,,4,2.009,0,,,,,,0.326901177,-0.241456977,1,0,0,2.0089,Gabbro_rect,4,0,4,0,1,
5da6139c002c29001335b5a2,TCR,2024-06-24_15h33.26.120,LearnStrategy,2023.2.3,MacIntel,59.88023952,7,2,6,,,,,,,,5,14,,,,,,,,,,,5,1.154,1,,,,,,-0.393980509,-0.396811863,1,0,0,1.1543,Obsidian_rect,5,0,5,0,1,
5da6139c002c29001335b5a2,TCR,2024-06-24_15h33.26.120,LearnStrategy,2023.2.3,MacIntel,59.88023952,7,2,7,,,,,,,,1,05,,,,,,,,,,,4,3.287,0,,,,,,0.409821777,-0.247888794,1,0,0,3.2871,Gabbro_rect,6,0,6,0,1,
5da6139c002c29001335b5a2,TCR,2024-06-24_15h33.26.120,LearnStrategy,2023.2.3,MacIntel,59.88023952,7,2,8,,,,,,,,2,14,,,,,,,,,,,2,1.869,1,,,,,,-0.167906359,-0.236332737,1,0,0,1.8687,Basalt_rect,7,0,7,0,1,
5da6139c002c29001335b5a2,TCR,2024-06-24_15h33.26.120,LearnStrategy,2023.2.3,MacIntel,59.88023952,7,2,9,,,,,,,,8,16,,,,,,,,,,,8,1.7,1,,,,,,0.331954753,-0.380653754,1,0,0,1.6996,Pumice_rect,8,0,8,0,1,
5da6139c002c29001335b5a2,TCR,2024-06-24_15h33.26.120,LearnStrategy,2023.2.3,MacIntel,59.88023952,7,2,10,,,,,,,,3,11,,,,,,,,,,,3,2.744,1,,,,,,0.130628866,-0.23501709,1,0,0,2.7439,Diorite_rect,9,0,9,0,1,
5da6139c002c29001335b5a2,TCR,2024-06-24_15h33.26.120,LearnStrategy,2023.2.3,MacIntel,59.88023952,7,2,11,,,,,,,,4,08,,,,,,,,,,,1,1.385,0,,,,,,-0.390493707,-0.246629164,1,0,0,1.3847,Andesite_rect,10,0,10,0,1,
5da6139c002c29001335b5a2,TCR,2024-06-24_15h33.26.120,LearnStrategy,2023.2.3,MacIntel,59.88023952,7,2,12,,,,,,,,6,11,,,,,,,,,,,6,1.001,1,,,,,,-0.098557129,-0.404177382,1,0,0,1.0011,Pegmatite_rect,11,0,11,0,1,
5da6139c002c29001335b5a2,TCR,2024-06-24_15h33.26.120,LearnStrategy,2023.2.3,MacIntel,59.88023952,7,2,13,,,,,,,,3,16,,,,,,,,,,,4,2.258,0,,,,,,0.352696669,-0.236334771,1,0,0,2.2581,Gabbro_rect,12,0,12,0,1,
5da6139c002c29001335b5a2,TCR,2024-06-24_15h33.26.120,LearnStrategy,2023.2.3,MacIntel,59.88023952,7,2,14,,,,,,,,4,15,,,,,,,,,,,3,1.318,0,,,,,,0.115631714,-0.257655301,1,0,0,1.3176,Diorite_rect,13,0,13,0,1,
5da6139c002c29001335b5a2,TCR,2024-06-24_15h33.26.120,LearnStrategy,2023.2.3,MacIntel,59.88023952,7,2,15,,,,,,,,2,04,,,,,,,,,,,1,1.89,0,,,,,,-0.300749376,-0.251663072,1,0,0,1.8905,Andesite_rect,14,0,14,0,1,
5da6139c002c29001335b5a2,TCR,2024-06-24_15h33.26.120,LearnStrategy,2023.2.3,MacIntel,59.88023952,7,2,16,,,,,,,,5,07,,,,,,,,,,,5,1.066,1,,,,,,-0.325551147,-0.414891357,1,0,0,1.0661,Obsidian_rect,15,0,15,0,1,
5da6139c002c29001335b5a2,TCR,2024-06-24_15h33.26.120,LearnStrategy,2023.2.3,MacIntel,59.88023952,8,1,1,-0.029795397,0.00380171,1,0,0,0.934,rock_grid_rect_2,2,10,-1,-1,0.934,-0.377823046,-0.252325846,1,0,0,1.428,Andesite_rect,1,1.428,0,0,0,0,0,1,,,,,,,,,,,,,
5da6139c002c29001335b5a2,TCR,2024-06-24_15h33.26.120,LearnStrategy,2023.2.3,MacIntel,59.88023952,8,1,2,-0.033007202,0.000722385,1,0,0,1.1453,rock_grid_rect_2,4,14,-1,-1,1.145,0.357896322,-0.246113959,1,0,0,1.2471,Gabbro_rect,4,1.247,1,1,0,1,0,1,,,,,,,,,,,,,
5da6139c002c29001335b5a2,TCR,2024-06-24_15h33.26.120,LearnStrategy,2023.2.3,MacIntel,59.88023952,8,1,3,0.011290758,-0.007792731,1,0,0,0.864,rock_grid_rect_2,7,07,-1,-1,0.864,0.126679348,-0.418228488,1,0,0,1.9452,Peridotite_rect,7,1.945,1,2,0,2,0,1,,,,,,,,,,,,,
5da6139c002c29001335b5a2,TCR,2024-06-24_15h33.26.120,LearnStrategy,2023.2.3,MacIntel,59.88023952,8,1,4,0.059373644,-0.020907762,1,0,0,0.6686,rock_grid_rect_2,3,02,-1,-1,0.669,0.095864936,-0.257992215,1,0,0,0.8047,Diorite_rect,3,0.805,1,3,0,3,0,1,,,,,,,,,,,,,
5da6139c002c29001335b5a2,TCR,2024-06-24_15h33.26.120,LearnStrategy,2023.2.3,MacIntel,59.88023952,8,1,5,0.058279351,-0.01498603,1,0,0,0.8867,rock_grid_rect_2,8,03,-1,-1,0.887,0.326975301,-0.384580892,1,0,0,0.9796,Pumice_rect,8,0.98,1,4,0,4,0,1,,,,,,,,,,,,,
5da6139c002c29001335b5a2,TCR,2024-06-24_15h33.26.120,LearnStrategy,2023.2.3,MacIntel,59.88023952,8,1,6,0.002000393,-0.005803596,1,0,0,0.8966,rock_grid_rect_2,1,01,-1,-1,0.897,-0.328463474,-0.244063178,1,0,0,2.0374,Andesite_rect,1,2.037,1,5,0,5,0,1,,,,,,,,,,,,,
5da6139c002c29001335b5a2,TCR,2024-06-24_15h33.26.120,LearnStrategy,2023.2.3,MacIntel,59.88023952,8,1,7,0.003340386,-0.013770718,1,0,0,0.7451,rock_grid_rect_2,3,09,-1,-1,0.745,0.106266005,-0.401761271,1,0,0,1.1378,Peridotite_rect,7,1.138,0,6,0,6,0,1,,,,,,,,,,,,,
5da6139c002c29001335b5a2,TCR,2024-06-24_15h33.26.120,LearnStrategy,2023.2.3,MacIntel,59.88023952,8,1,8,0.063099569,-0.005394965,1,0,0,0.5777,rock_grid_rect_2,4,05,-1,-1,0.578,-0.349970432,-0.229488254,1,0,0,1.7861,Andesite_rect,1,1.786,0,7,0,7,0,1,,,,,,,,,,,,,
5da6139c002c29001335b5a2,TCR,2024-06-24_15h33.26.120,LearnStrategy,2023.2.3,MacIntel,59.88023952,8,1,9,-0.008760647,0.003729994,1,0,0,1.4658,rock_grid_rect_2,1,04,-1,-1,1.466,-0.073914388,-0.265228611,1,0,0,1.2021,Basalt_rect,2,1.202,0,8,0,8,0,1,,,,,,,,,,,,,
5da6139c002c29001335b5a2,TCR,2024-06-24_15h33.26.120,LearnStrategy,2023.2.3,MacIntel,59.88023952,8,1,10,-0.061890191,-0.004982334,1,0,0,0.7471,rock_grid_rect_2,1,01,-1,-1,0.747,0.35164388,-0.231077881,1,0,0,1.5095,Gabbro_rect,4,1.509,0,9,0,9,0,1,,,,,,,,,,,,,
5da6139c002c29001335b5a2,TCR,2024-06-24_15h33.26.120,LearnStrategy,2023.2.3,MacIntel,59.88023952,8,1,11,0.033411051,-0.010287577,1,0,0,0.6046,rock_grid_rect_2,6,16,-1,-1,0.605,-0.109765082,-0.405713162,1,0,0,1.9855,Pegmatite_rect,6,1.986,1,10,0,10,0,1,,,,,,,,,,,,,
5da6139c002c29001335b5a2,TCR,2024-06-24_15h33.26.120,LearnStrategy,2023.2.3,MacIntel,59.88023952,8,1,12,0.010558539,-0.005073683,1,0,0,0.6835,rock_grid_rect_2,7,12,-1,-1,0.684,0.113287014,-0.268660482,1,0,0,1.4784,Diorite_rect,3,1.478,0,11,0,11,0,1,,,,,,,,,,,,,
5da6139c002c29001335b5a2,TCR,2024-06-24_15h33.26.120,LearnStrategy,2023.2.3,MacIntel,59.88023952,8,1,13,0.050033705,-0.014555054,1,0,0,0.7039,rock_grid_rect_2,4,13,-1,-1,0.704,-0.357667169,-0.241529405,1,0,0,1.3605,Andesite_rect,1,1.361,0,12,0,12,0,1,,,,,,,,,,,,,
5da6139c002c29001335b5a2,TCR,2024-06-24_15h33.26.120,LearnStrategy,2023.2.3,MacIntel,59.88023952,8,1,14,-0.048257446,-0.005749715,1,0,0,0.6966,rock_grid_rect_2,2,01,-1,-1,0.697,-0.383901333,-0.259705471,1,0,0,1.2748,Andesite_rect,1,1.275,0,13,0,13,0,1,,,,,,,,,,,,,
5da6139c002c29001335b5a2,TCR,2024-06-24_15h33.26.120,LearnStrategy,2023.2.3,MacIntel,59.88023952,8,1,15,-0.022986721,-0.018156704,1,0,0,0.9581,rock_grid_rect_2,3,15,-1,-1,0.958,0.135638902,-0.393359646,1,0,0,1.4342,Peridotite_rect,7,1.434,0,14,0,14,0,1,,,,,,,,,,,,,
5da6139c002c29001335b5a2,TCR,2024-06-24_15h33.26.120,LearnStrategy,2023.2.3,MacIntel,59.88023952,8,1,16,-0.033459405,-0.003340929,1,0,0,0.5406,rock_grid_rect_2,7,15,-1,-1,0.541,0.131182387,-0.382459242,1,0,0,1.3584,Peridotite_rect,7,1.358,1,15,0,15,0,1,,,,,,,,,,,,,
5da6139c002c29001335b5a2,TCR,2024-06-24_15h33.26.120,LearnStrategy,2023.2.3,MacIntel,59.88023952,8,2,1,,,,,,,,8,04,,,,,,,,,,,8,1.177,1,,,,,,0.336436632,-0.393329536,1,0,0,1.1773,Pumice_rect,0,0,0,0,1,
5da6139c002c29001335b5a2,TCR,2024-06-24_15h33.26.120,LearnStrategy,2023.2.3,MacIntel,59.88023952,8,2,2,,,,,,,,1,16,,,,,,,,,,,3,5.509,0,,,,,,0.129783054,-0.248766276,1,0,0,5.5088,Diorite_rect,1,0,1,0,1,
5da6139c002c29001335b5a2,TCR,2024-06-24_15h33.26.120,LearnStrategy,2023.2.3,MacIntel,59.88023952,8,2,3,,,,,,,,3,07,,,,,,,,,,,7,1.758,0,,,,,,0.128268229,-0.407739393,1,0,0,1.7579,Peridotite_rect,2,0,2,0,1,
5da6139c002c29001335b5a2,TCR,2024-06-24_15h33.26.120,LearnStrategy,2023.2.3,MacIntel,59.88023952,8,2,4,,,,,,,,7,04,,,,,,,,,,,6,1.834,0,,,,,,-0.152121582,-0.39734002,1,0,0,1.834,Pegmatite_rect,3,0,3,0,1,
5da6139c002c29001335b5a2,TCR,2024-06-24_15h33.26.120,LearnStrategy,2023.2.3,MacIntel,59.88023952,8,2,5,,,,,,,,2,08,,,,,,,,,,,2,2.496,1,,,,,,-0.169303318,-0.233206041,1,0,0,2.4962,Basalt_rect,4,0,4,0,1,
5da6139c002c29001335b5a2,TCR,2024-06-24_15h33.26.120,LearnStrategy,2023.2.3,MacIntel,59.88023952,8,2,6,,,,,,,,4,11,,,,,,,,,,,1,1.318,0,,,,,,-0.340775994,-0.234815945,1,0,0,1.3185,Andesite_rect,5,0,5,0,1,
5da6139c002c29001335b5a2,TCR,2024-06-24_15h33.26.120,LearnStrategy,2023.2.3,MacIntel,59.88023952,8,2,7,,,,,,,,2,05,,,,,,,,,,,2,1.14,1,,,,,,-0.196697184,-0.234953003,1,0,0,1.1399,Basalt_rect,6,0,6,0,1,
5da6139c002c29001335b5a2,TCR,2024-06-24_15h33.26.120,LearnStrategy,2023.2.3,MacIntel,59.88023952,8,2,8,,,,,,,,6,12,,,,,,,,,,,3,4.192,0,,,,,,0.152952677,-0.258372599,1,0,0,4.1924,Diorite_rect,7,0,7,0,1,
5da6139c002c29001335b5a2,TCR,2024-06-24_15h33.26.120,LearnStrategy,2023.2.3,MacIntel,59.88023952,8,2,9,,,,,,,,1,07,,,,,,,,,,,4,2.262,0,,,,,,0.371301676,-0.252070855,1,0,0,2.2615,Gabbro_rect,8,0,8,0,1,
5da6139c002c29001335b5a2,TCR,2024-06-24_15h33.26.120,LearnStrategy,2023.2.3,MacIntel,59.88023952,8,2,10,,,,,,,,7,13,,,,,,,,,,,7,1.375,1,,,,,,0.070243937,-0.388321804,1,0,0,1.3746,Peridotite_rect,9,0,9,0,1,
5da6139c002c29001335b5a2,TCR,2024-06-24_15h33.26.120,LearnStrategy,2023.2.3,MacIntel,59.88023952,8,2,11,,,,,,,,8,05,,,,,,,,,,,8,1.098,1,,,,,,0.370354818,-0.397139893,1,0,0,1.0978,Pumice_rect,10,0,10,0,1,
5da6139c002c29001335b5a2,TCR,2024-06-24_15h33.26.120,LearnStrategy,2023.2.3,MacIntel,59.88023952,8,2,12,,,,,,,,5,16,,,,,,,,,,,5,1.13,1,,,,,,-0.359182638,-0.419789293,1,0,0,1.1296,Obsidian_rect,11,0,11,0,1,
5da6139c002c29001335b5a2,TCR,2024-06-24_15h33.26.120,LearnStrategy,2023.2.3,MacIntel,59.88023952,8,2,13,,,,,,,,5,08,,,,,,,,,,,5,0.912,1,,,,,,-0.380586785,-0.401628825,1,0,0,0.9121,Obsidian_rect,12,0,12,0,1,
5da6139c002c29001335b5a2,TCR,2024-06-24_15h33.26.120,LearnStrategy,2023.2.3,MacIntel,59.88023952,8,2,14,,,,,,,,4,12,,,,,,,,,,,1,3.371,0,,,,,,-0.331823154,-0.252671305,1,0,0,3.371,Andesite_rect,13,0,13,0,1,
5da6139c002c29001335b5a2,TCR,2024-06-24_15h33.26.120,LearnStrategy,2023.2.3,MacIntel,59.88023952,8,2,15,,,,,,,,3,06,,,,,,,,,,,3,2.211,1,,,,,,0.13070516,-0.263715007,1,0,0,2.2114,Diorite_rect,14,0,14,0,1,
5da6139c002c29001335b5a2,TCR,2024-06-24_15h33.26.120,LearnStrategy,2023.2.3,MacIntel,59.88023952,8,2,16,,,,,,,,6,05,,,,,,,,,,,6,1.271,1,,,,,,-0.079958632,-0.409001261,1,0,0,1.2712,Pegmatite_rect,15,0,15,0,1,
5da6139c002c29001335b5a2,TCR,2024-06-24_15h33.26.120,LearnStrategy,2023.2.3,MacIntel,59.88023952,9,1,1,0.004902005,0.014575534,1,0,0,1.0108,rock_grid_rect_2,6,16,-1,-1,1.011,-0.110871785,-0.405133124,1,0,0,0.904,Pegmatite_rect,6,0.904,1,0,0,0,0,1,,,,,,,,,,,,,
5da6139c002c29001335b5a2,TCR,2024-06-24_15h33.26.120,LearnStrategy,2023.2.3,MacIntel,59.88023952,9,1,2,-0.027055528,-0.000617371,1,0,0,0.7815,rock_grid_rect_2,3,12,-1,-1,0.782,0.142020331,-0.25169732,1,0,0,1.148,Diorite_rect,3,1.148,1,1,0,1,0,1,,,,,,,,,,,,,
5da6139c002c29001335b5a2,TCR,2024-06-24_15h33.26.120,LearnStrategy,2023.2.3,MacIntel,59.88023952,9,1,3,0.045313517,-0.008763869,1,0,0,0.8627,rock_grid_rect_2,3,13,-1,-1,0.863,0.119620497,-0.259816962,1,0,0,1.0466,Diorite_rect,3,1.047,1,2,0,2,0,1,,,,,,,,,,,,,
5da6139c002c29001335b5a2,TCR,2024-06-24_15h33.26.120,LearnStrategy,2023.2.3,MacIntel,59.88023952,9,1,4,0.001023017,0.012566698,1,0,0,0.8019,rock_grid_rect_2,1,04,-1,-1,0.802,-0.150744629,-0.254506565,1,0,0,1.0272,Basalt_rect,2,1.027,0,3,0,3,0,1,,,,,,,,,,,,,
5da6139c002c29001335b5a2,TCR,2024-06-24_15h33.26.120,LearnStrategy,2023.2.3,MacIntel,59.88023952,9,1,5,-0.032668118,-0.002121684,1,0,0,0.7563,rock_grid_rect_2,4,03,-1,-1,0.756,-0.342475179,-0.234642198,1,0,0,1.115,Andesite_rect,1,1.115,0,4,0,4,0,1,,,,,,,,,,,,,
5da6139c002c29001335b5a2,TCR,2024-06-24_15h33.26.120,LearnStrategy,2023.2.3,MacIntel,59.88023952,9,1,6,0.000423787,0.010499946,1,0,0,0.5508,rock_grid_rect_2,2,01,-1,-1,0.551,-0.178024224,-0.264699843,1,0,0,0.8651,Basalt_rect,2,0.865,1,5,0,5,0,1,,,,,,,,,,,,,
5da6139c002c29001335b5a2,TCR,2024-06-24_15h33.26.120,LearnStrategy,2023.2.3,MacIntel,59.88023952,9,1,7,-0.06960517,-0.006798164,1,0,0,0.563,rock_grid_rect_2,1,03,-1,-1,0.563,-0.118129815,-0.256043294,1,0,0,1.2837,Basalt_rect,2,1.284,0,6,0,6,0,1,,,,,,,,,,,,,
5da6139c002c29001335b5a2,TCR,2024-06-24_15h33.26.120,LearnStrategy,2023.2.3,MacIntel,59.88023952,9,1,8,-0.041058214,-0.018152568,1,0,0,0.6666,rock_grid_rect_2,7,06,-1,-1,0.667,-0.142284817,-0.400573595,1,0,0,1.9501,Pegmatite_rect,6,1.95,0,7,0,7,0,1,,,,,,,,,,,,,
5da6139c002c29001335b5a2,TCR,2024-06-24_15h33.26.120,LearnStrategy,2023.2.3,MacIntel,59.88023952,9,1,9,0.014871216,0.00190667,1,0,0,0.8901,rock_grid_rect_2,6,06,-1,-1,0.89,-0.091402724,-0.399060737,1,0,0,1.0408,Pegmatite_rect,6,1.041,1,8,0,8,0,1,,,,,,,,,,,,,
5da6139c002c29001335b5a2,TCR,2024-06-24_15h33.26.120,LearnStrategy,2023.2.3,MacIntel,59.88023952,9,1,10,-0.039906752,-0.001658461,1,0,0,0.7357,rock_grid_rect_2,4,01,-1,-1,0.736,0.356000841,-0.244906548,1,0,0,2.8984,Gabbro_rect,4,2.898,1,9,0,9,0,1,,,,,,,,,,,,,
5da6139c002c29001335b5a2,TCR,2024-06-24_15h33.26.120,LearnStrategy,2023.2.3,MacIntel,59.88023952,9,1,11,0.050188463,-0.001650933,1,0,0,1.2981,rock_grid_rect_2,2,12,-1,-1,1.298,-0.127364095,-0.248386434,1,0,0,1.0008,Basalt_rect,2,1.001,1,10,0,10,0,1,,,,,,,,,,,,,
5da6139c002c29001335b5a2,TCR,2024-06-24_15h33.26.120,LearnStrategy,2023.2.3,MacIntel,59.88023952,9,1,12,0.021924235,-0.020712484,1,0,0,0.5506,rock_grid_rect_2,7,06,-1,-1,0.551,0.095246243,-0.398591851,1,0,0,1.2249,Peridotite_rect,7,1.225,1,11,0,11,0,1,,,,,,,,,,,,,
5da6139c002c29001335b5a2,TCR,2024-06-24_15h33.26.120,LearnStrategy,2023.2.3,MacIntel,59.88023952,9,1,13,-0.005709093,0.001793755,1,0,0,0.9673,rock_grid_rect_2,4,16,-1,-1,0.967,-0.302385898,-0.232341987,1,0,0,1.1298,Andesite_rect,1,1.13,0,12,0,12,0,1,,,,,,,,,,,,,
5da6139c002c29001335b5a2,TCR,2024-06-24_15h33.26.120,LearnStrategy,2023.2.3,MacIntel,59.88023952,9,1,14,0.023599514,-0.002547879,1,0,0,0.5328,rock_grid_rect_2,7,15,-1,-1,0.533,0.106781955,-0.402034098,1,0,0,1.3803,Peridotite_rect,7,1.38,1,13,0,13,0,1,,,,,,,,,,,,,
5da6139c002c29001335b5a2,TCR,2024-06-24_15h33.26.120,LearnStrategy,2023.2.3,MacIntel,59.88023952,9,1,15,0.050865411,0.002261217,1,0,0,0.7461,rock_grid_rect_2,3,09,-1,-1,0.746,0.104960124,-0.248417833,1,0,0,1.9348,Diorite_rect,3,1.935,1,14,0,14,0,1,,,,,,,,,,,,,
5da6139c002c29001335b5a2,TCR,2024-06-24_15h33.26.120,LearnStrategy,2023.2.3,MacIntel,59.88023952,9,1,16,0.043289049,-0.01441803,1,0,0,0.6155,rock_grid_rect_2,1,09,-1,-1,0.615,-0.326463928,-0.237260403,1,0,0,1.0786,Andesite_rect,1,1.079,1,15,0,15,0,1,,,,,,,,,,,,,
5da6139c002c29001335b5a2,TCR,2024-06-24_15h33.26.120,LearnStrategy,2023.2.3,MacIntel,59.88023952,9,2,1,,,,,,,,2,06,,,,,,,,,,,1,1.201,0,,,,,,-0.365032281,-0.242611898,1,0,0,1.2015,Andesite_rect,0,0,0,0,1,
5da6139c002c29001335b5a2,TCR,2024-06-24_15h33.26.120,LearnStrategy,2023.2.3,MacIntel,59.88023952,9,2,2,,,,,,,,3,08,,,,,,,,,,,3,1.619,1,,,,,,0.089862739,-0.257224935,1,0,0,1.6192,Diorite_rect,1,0,1,0,1,
5da6139c002c29001335b5a2,TCR,2024-06-24_15h33.26.120,LearnStrategy,2023.2.3,MacIntel,59.88023952,9,2,3,,,,,,,,1,10,,,,,,,,,,,2,2.546,0,,,,,,-0.086359524,-0.260960761,1,0,0,2.5459,Basalt_rect,2,0,2,0,1,
5da6139c002c29001335b5a2,TCR,2024-06-24_15h33.26.120,LearnStrategy,2023.2.3,MacIntel,59.88023952,9,2,4,,,,,,,,6,10,,,,,,,,,,,6,1.075,1,,,,,,-0.100659993,-0.393511692,1,0,0,1.0752,Pegmatite_rect,3,0,3,0,1,
5da6139c002c29001335b5a2,TCR,2024-06-24_15h33.26.120,LearnStrategy,2023.2.3,MacIntel,59.88023952,9,2,5,,,,,,,,4,10,,,,,,,,,,,1,2.034,0,,,,,,-0.358413086,-0.260083347,1,0,0,2.0343,Andesite_rect,4,0,4,0,1,
5da6139c002c29001335b5a2,TCR,2024-06-24_15h33.26.120,LearnStrategy,2023.2.3,MacIntel,59.88023952,9,2,6,,,,,,,,1,11,,,,,,,,,,,4,3.019,0,,,,,,0.377813856,-0.266496582,1,0,0,3.0193,Gabbro_rect,5,0,5,0,1,
5da6139c002c29001335b5a2,TCR,2024-06-24_15h33.26.120,LearnStrategy,2023.2.3,MacIntel,59.88023952,9,2,7,,,,,,,,8,02,,,,,,,,,,,8,1.314,1,,,,,,0.368336995,-0.397189467,1,0,0,1.3144,Pumice_rect,6,0,6,0,1,
5da6139c002c29001335b5a2,TCR,2024-06-24_15h33.26.120,LearnStrategy,2023.2.3,MacIntel,59.88023952,9,2,8,,,,,,,,6,03,,,,,,,,,,,6,1.035,1,,,,,,-0.146924845,-0.40127672,1,0,0,1.0347,Pegmatite_rect,7,0,7,0,1,
5da6139c002c29001335b5a2,TCR,2024-06-24_15h33.26.120,LearnStrategy,2023.2.3,MacIntel,59.88023952,9,2,9,,,,,,,,5,05,,,,,,,,,,,5,0.825,1,,,,,,-0.361651679,-0.391929999,1,0,0,0.8249,Obsidian_rect,8,0,8,0,1,
5da6139c002c29001335b5a2,TCR,2024-06-24_15h33.26.120,LearnStrategy,2023.2.3,MacIntel,59.88023952,9,2,10,,,,,,,,3,10,,,,,,,,,,,3,2.238,1,,,,,,0.178442383,-0.248651598,1,0,0,2.2379,Diorite_rect,9,0,9,0,1,
5da6139c002c29001335b5a2,TCR,2024-06-24_15h33.26.120,LearnStrategy,2023.2.3,MacIntel,59.88023952,9,2,11,,,,,,,,2,09,,,,,,,,,,,1,1.664,0,,,,,,-0.354812859,-0.247204658,1,0,0,1.6641,Andesite_rect,10,0,10,0,1,
5da6139c002c29001335b5a2,TCR,2024-06-24_15h33.26.120,LearnStrategy,2023.2.3,MacIntel,59.88023952,9,2,12,,,,,,,,5,11,,,,,,,,,,,5,1.227,1,,,,,,-0.373541429,-0.404294027,1,0,0,1.2274,Obsidian_rect,11,0,11,0,1,
5da6139c002c29001335b5a2,TCR,2024-06-24_15h33.26.120,LearnStrategy,2023.2.3,MacIntel,59.88023952,9,2,13,,,,,,,,4,09,,,,,,,,,,,1,1.933,0,,,,,,-0.356213718,-0.249544339,1,0,0,1.9332,Andesite_rect,12,0,12,0,1,
5da6139c002c29001335b5a2,TCR,2024-06-24_15h33.26.120,LearnStrategy,2023.2.3,MacIntel,59.88023952,9,2,14,,,,,,,,7,14,,,,,,,,,,,3,1.965,0,,,,,,0.081439073,-0.247052273,1,0,0,1.9645,Diorite_rect,13,0,13,0,1,
5da6139c002c29001335b5a2,TCR,2024-06-24_15h33.26.120,LearnStrategy,2023.2.3,MacIntel,59.88023952,9,2,15,,,,,,,,7,08,,,,,,,,,,,7,1.479,1,,,,,,0.086100125,-0.389022827,1,0,0,1.4787,Peridotite_rect,14,0,14,0,1,
5da6139c002c29001335b5a2,TCR,2024-06-24_15h33.26.120,LearnStrategy,2023.2.3,MacIntel,59.88023952,9,2,16,,,,,,,,8,06,,,,,,,,,,,8,1.214,1,,,,,,0.374105225,-0.394202067,1,0,0,1.2144,Pumice_rect,15,0,15,0,1,
5da6139c002c29001335b5a2,TCR,2024-06-24_15h33.26.120,LearnStrategy,2023.2.3,MacIntel,59.88023952,,,,,,,,,,,,,,,,,,,,,,,,,,,,,,,,,,,,,,,,,,,0
5da6139c002c29001335b5a2,TCR,2024-06-24_15h33.26.120,LearnStrategy,2023.2.3,MacIntel,59.88023952,,,,,,,,,,,,,,,,,,,,,,,,,,,,,,,,,,,,,,,,,,,
5da6139c002c29001335b5a2,TCR,2024-06-24_15h33.26.120,LearnStrategy,2023.2.3,MacIntel,59.88023952,,,,,,,,,,,2,16,1,1,,,,,,,,,,,,,,,,,,,,,,,,,,,,,
5da6139c002c29001335b5a2,TCR,2024-06-24_15h33.26.120,LearnStrategy,2023.2.3,MacIntel,59.88023952,,,,,,,,,,,4,05,1,2,,,,,,,,,,,,,,,,,,,,,,,,,,,,,
5da6139c002c29001335b5a2,TCR,2024-06-24_15h33.26.120,LearnStrategy,2023.2.3,MacIntel,59.88023952,,,,,,,,,,,5,12,1,3,,,,,,,,,,,,,,,,,,,,,,,,,,,,,
5da6139c002c29001335b5a2,TCR,2024-06-24_15h33.26.120,LearnStrategy,2023.2.3,MacIntel,59.88023952,,,,,,,,,,,5,04,1,4,,,,,,,,,,,,,,,,,,,,,,,,,,,,,
5da6139c002c29001335b5a2,TCR,2024-06-24_15h33.26.120,LearnStrategy,2023.2.3,MacIntel,59.88023952,,,,,,,,,,,3,09,1,5,,,,,,,,,,,,,,,,,,,,,,,,,,,,,
5da6139c002c29001335b5a2,TCR,2024-06-24_15h33.26.120,LearnStrategy,2023.2.3,MacIntel,59.88023952,,,,,,,,,,,8,15,1,6,,,,,,,,,,,,,,,,,,,,,,,,,,,,,
5da6139c002c29001335b5a2,TCR,2024-06-24_15h33.26.120,LearnStrategy,2023.2.3,MacIntel,59.88023952,,,,,,,,,,,1,01,1,7,,,,,,,,,,,,,,,,,,,,,,,,,,,,,
5da6139c002c29001335b5a2,TCR,2024-06-24_15h33.26.120,LearnStrategy,2023.2.3,MacIntel,59.88023952,,,,,,,,,,,7,06,1,8,,,,,,,,,,,,,,,,,,,,,,,,,,,,,
5da6139c002c29001335b5a2,TCR,2024-06-24_15h33.26.120,LearnStrategy,2023.2.3,MacIntel,59.88023952,,,,,,,,,,,1,14,2,1,,,,,,,,,,,,,,,,,,,,,,,,,,,,,
5da6139c002c29001335b5a2,TCR,2024-06-24_15h33.26.120,LearnStrategy,2023.2.3,MacIntel,59.88023952,,,,,,,,,,,5,06,2,2,,,,,,,,,,,,,,,,,,,,,,,,,,,,,
5da6139c002c29001335b5a2,TCR,2024-06-24_15h33.26.120,LearnStrategy,2023.2.3,MacIntel,59.88023952,,,,,,,,,,,4,14,2,3,,,,,,,,,,,,,,,,,,,,,,,,,,,,,
5da6139c002c29001335b5a2,TCR,2024-06-24_15h33.26.120,LearnStrategy,2023.2.3,MacIntel,59.88023952,,,,,,,,,,,7,15,2,4,,,,,,,,,,,,,,,,,,,,,,,,,,,,,
5da6139c002c29001335b5a2,TCR,2024-06-24_15h33.26.120,LearnStrategy,2023.2.3,MacIntel,59.88023952,,,,,,,,,,,1,02,2,5,,,,,,,,,,,,,,,,,,,,,,,,,,,,,
5da6139c002c29001335b5a2,TCR,2024-06-24_15h33.26.120,LearnStrategy,2023.2.3,MacIntel,59.88023952,,,,,,,,,,,7,02,2,6,,,,,,,,,,,,,,,,,,,,,,,,,,,,,
5da6139c002c29001335b5a2,TCR,2024-06-24_15h33.26.120,LearnStrategy,2023.2.3,MacIntel,59.88023952,,,,,,,,,,,1,03,2,7,,,,,,,,,,,,,,,,,,,,,,,,,,,,,
5da6139c002c29001335b5a2,TCR,2024-06-24_15h33.26.120,LearnStrategy,2023.2.3,MacIntel,59.88023952,,,,,,,,,,,7,07,2,8,,,,,,,,,,,,,,,,,,,,,,,,,,,,,
5da6139c002c29001335b5a2,TCR,2024-06-24_15h33.26.120,LearnStrategy,2023.2.3,MacIntel,59.88023952,,,,,,,,,,,3,02,3,1,,,,,,,,,,,,,,,,,,,,,,,,,,,,,
5da6139c002c29001335b5a2,TCR,2024-06-24_15h33.26.120,LearnStrategy,2023.2.3,MacIntel,59.88023952,,,,,,,,,,,2,10,3,2,,,,,,,,,,,,,,,,,,,,,,,,,,,,,
5da6139c002c29001335b5a2,TCR,2024-06-24_15h33.26.120,LearnStrategy,2023.2.3,MacIntel,59.88023952,,,,,,,,,,,6,13,3,3,,,,,,,,,,,,,,,,,,,,,,,,,,,,,
5da6139c002c29001335b5a2,TCR,2024-06-24_15h33.26.120,LearnStrategy,2023.2.3,MacIntel,59.88023952,,,,,,,,,,,2,12,3,4,,,,,,,,,,,,,,,,,,,,,,,,,,,,,
5da6139c002c29001335b5a2,TCR,2024-06-24_15h33.26.120,LearnStrategy,2023.2.3,MacIntel,59.88023952,,,,,,,,,,,4,13,3,5,,,,,,,,,,,,,,,,,,,,,,,,,,,,,
5da6139c002c29001335b5a2,TCR,2024-06-24_15h33.26.120,LearnStrategy,2023.2.3,MacIntel,59.88023952,,,,,,,,,,,6,08,3,6,,,,,,,,,,,,,,,,,,,,,,,,,,,,,
5da6139c002c29001335b5a2,TCR,2024-06-24_15h33.26.120,LearnStrategy,2023.2.3,MacIntel,59.88023952,,,,,,,,,,,4,16,3,7,,,,,,,,,,,,,,,,,,,,,,,,,,,,,
5da6139c002c29001335b5a2,TCR,2024-06-24_15h33.26.120,LearnStrategy,2023.2.3,MacIntel,59.88023952,,,,,,,,,,,7,10,3,8,,,,,,,,,,,,,,,,,,,,,,,,,,,,,
5da6139c002c29001335b5a2,TCR,2024-06-24_15h33.26.120,LearnStrategy,2023.2.3,MacIntel,59.88023952,,,,,,,,,,,4,03,4,1,,,,,,,,,,,,,,,,,,,,,,,,,,,,,
5da6139c002c29001335b5a2,TCR,2024-06-24_15h33.26.120,LearnStrategy,2023.2.3,MacIntel,59.88023952,,,,,,,,,,,1,09,4,2,,,,,,,,,,,,,,,,,,,,,,,,,,,,,
5da6139c002c29001335b5a2,TCR,2024-06-24_15h33.26.120,LearnStrategy,2023.2.3,MacIntel,59.88023952,,,,,,,,,,,2,11,4,3,,,,,,,,,,,,,,,,,,,,,,,,,,,,,
5da6139c002c29001335b5a2,TCR,2024-06-24_15h33.26.120,LearnStrategy,2023.2.3,MacIntel,59.88023952,,,,,,,,,,,8,14,4,4,,,,,,,,,,,,,,,,,,,,,,,,,,,,,
5da6139c002c29001335b5a2,TCR,2024-06-24_15h33.26.120,LearnStrategy,2023.2.3,MacIntel,59.88023952,,,,,,,,,,,4,01,4,5,,,,,,,,,,,,,,,,,,,,,,,,,,,,,
5da6139c002c29001335b5a2,TCR,2024-06-24_15h33.26.120,LearnStrategy,2023.2.3,MacIntel,59.88023952,,,,,,,,,,,6,06,4,6,,,,,,,,,,,,,,,,,,,,,,,,,,,,,
5da6139c002c29001335b5a2,TCR,2024-06-24_15h33.26.120,LearnStrategy,2023.2.3,MacIntel,59.88023952,,,,,,,,,,,3,14,4,7,,,,,,,,,,,,,,,,,,,,,,,,,,,,,
5da6139c002c29001335b5a2,TCR,2024-06-24_15h33.26.120,LearnStrategy,2023.2.3,MacIntel,59.88023952,,,,,,,,,,,3,13,4,8,,,,,,,,,,,,,,,,,,,,,,,,,,,,,
5da6139c002c29001335b5a2,TCR,2024-06-24_15h33.26.120,LearnStrategy,2023.2.3,MacIntel,59.88023952,,,,,,,,,,,6,16,5,1,,,,,,,,,,,,,,,,,,,,,,,,,,,,,
5da6139c002c29001335b5a2,TCR,2024-06-24_15h33.26.120,LearnStrategy,2023.2.3,MacIntel,59.88023952,,,,,,,,,,,1,04,5,2,,,,,,,,,,,,,,,,,,,,,,,,,,,,,
5da6139c002c29001335b5a2,TCR,2024-06-24_15h33.26.120,LearnStrategy,2023.2.3,MacIntel,59.88023952,,,,,,,,,,,8,03,5,3,,,,,,,,,,,,,,,,,,,,,,,,,,,,,
5da6139c002c29001335b5a2,TCR,2024-06-24_15h33.26.120,LearnStrategy,2023.2.3,MacIntel,59.88023952,,,,,,,,,,,5,02,5,4,,,,,,,,,,,,,,,,,,,,,,,,,,,,,
5da6139c002c29001335b5a2,TCR,2024-06-24_15h33.26.120,LearnStrategy,2023.2.3,MacIntel,59.88023952,,,,,,,,,,,6,09,5,5,,,,,,,,,,,,,,,,,,,,,,,,,,,,,
5da6139c002c29001335b5a2,TCR,2024-06-24_15h33.26.120,LearnStrategy,2023.2.3,MacIntel,59.88023952,,,,,,,,,,,8,09,5,6,,,,,,,,,,,,,,,,,,,,,,,,,,,,,
5da6139c002c29001335b5a2,TCR,2024-06-24_15h33.26.120,LearnStrategy,2023.2.3,MacIntel,59.88023952,,,,,,,,,,,8,13,5,7,,,,,,,,,,,,,,,,,,,,,,,,,,,,,
5da6139c002c29001335b5a2,TCR,2024-06-24_15h33.26.120,LearnStrategy,2023.2.3,MacIntel,59.88023952,,,,,,,,,,,2,02,5,8,,,,,,,,,,,,,,,,,,,,,,,,,,,,,
5da6139c002c29001335b5a2,TCR,2024-06-24_15h33.26.120,LearnStrategy,2023.2.3,MacIntel,59.88023952,,,,,,,,,,,2,01,6,1,,,,,,,,,,,,,,,,,,,,,,,,,,,,,
5da6139c002c29001335b5a2,TCR,2024-06-24_15h33.26.120,LearnStrategy,2023.2.3,MacIntel,59.88023952,,,,,,,,,,,5,10,6,2,,,,,,,,,,,,,,,,,,,,,,,,,,,,,
5da6139c002c29001335b5a2,TCR,2024-06-24_15h33.26.120,LearnStrategy,2023.2.3,MacIntel,59.88023952,,,,,,,,,,,7,12,6,3,,,,,,,,,,,,,,,,,,,,,,,,,,,,,
5da6139c002c29001335b5a2,TCR,2024-06-24_15h33.26.120,LearnStrategy,2023.2.3,MacIntel,59.88023952,,,,,,,,,,,3,12,6,4,,,,,,,,,,,,,,,,,,,,,,,,,,,,,
5da6139c002c29001335b5a2,TCR,2024-06-24_15h33.26.120,LearnStrategy,2023.2.3,MacIntel,59.88023952,,,,,,,,,,,6,07,6,5,,,,,,,,,,,,,,,,,,,,,,,,,,,,,
5da6139c002c29001335b5a2,TCR,2024-06-24_15h33.26.120,LearnStrategy,2023.2.3,MacIntel,59.88023952,,,,,,,,,,,8,10,6,6,,,,,,,,,,,,,,,,,,,,,,,,,,,,,
5da6139c002c29001335b5a2,TCR,2024-06-24_15h33.26.120,LearnStrategy,2023.2.3,MacIntel,59.88023952,,,,,,,,,,,3,15,6,7,,,,,,,,,,,,,,,,,,,,,,,,,,,,,
5da6139c002c29001335b5a2,TCR,2024-06-24_15h33.26.120,LearnStrategy,2023.2.3,MacIntel,59.88023952,,,,,,,,,,,5,09,6,8,,,,,,,,,,,,,,,,,,,,,,,,,,,,,