participant,condition,date,expName,psychopyVersion,OS,frameRate,block,phase,trial,learn_mouse_2.x,learn_mouse_2.y,learn_mouse_2.leftButton,learn_mouse_2.midButton,learn_mouse_2.rightButton,learn_mouse_2.time,learn_mouse_2.clicked_name,cat,token,row,col,t_select,cat_mouse_l.x,cat_mouse_l.y,cat_mouse_l.leftButton,cat_mouse_l.midButton,cat_mouse_l.rightButton,cat_mouse_l.time,cat_mouse_l.clicked_name,resp,t_resp,corr,train_trials.thisRepN,train_trials.thisTrialN,train_trials.thisN,train_trials.thisIndex,train_trials.ran,cat_mouse_t.x,cat_mouse_t.y,cat_mouse_t.leftButton,cat_mouse_t.midButton,cat_mouse_t.rightButton,cat_mouse_t.time,cat_mouse_t.clicked_name,test_trials.thisRepN,test_trials.thisTrialN,test_trials.thisN,test_trials.thisIndex,test_trials.ran,Bonus
5db0e17518230d00170d4332,TCN,2024-06-24_13h56.05.543,LearnStrategy,2023.2.3,Win32,60.24096386,,,,,,,,,,,,,,,,,,,,,,,,,,,,,,,,,,,,,,,,,,,
5db0e17518230d00170d4332,TCN,2024-06-24_13h56.05.543,LearnStrategy,2023.2.3,Win32,60.24096386,1,1,1,-0.040364583,0.013020833,1,0,0,9.6566,rock_grid_rect_2,1,06,-1,-1,9.657,-0.154947917,-0.243489583,1,0,0,7.0099,Basalt_rect,2,7.01,0,0,0,0,0,1,,,,,,,,,,,,,
5db0e17518230d00170d4332,TCN,2024-06-24_13h56.05.543,LearnStrategy,2023.2.3,Win32,60.24096386,1,1,2,-0.049479167,0.00390625,1,0,0,1.5892,rock_grid_rect_2,3,11,-1,-1,1.589,-0.151041667,-0.404947917,1,0,0,3.9745,Pegmatite_rect,6,3.975,0,1,0,1,0,1,,,,,,,,,,,,,
5db0e17518230d00170d4332,TCN,2024-06-24_13h56.05.543,LearnStrategy,2023.2.3,Win32,60.24096386,1,1,3,-0.015625,0.009114583,1,0,0,1.2893,rock_grid_rect_2,2,12,-1,-1,1.289,0.337239583,-0.412760417,1,0,0,4.9323,Pumice_rect,8,4.932,0,2,0,2,0,1,,,,,,,,,,,,,
5db0e17518230d00170d4332,TCN,2024-06-24_13h56.05.543,LearnStrategy,2023.2.3,Win32,60.24096386,1,1,4,0.106770833,0.00390625,1,0,0,1.693,rock_grid_rect_2,6,11,-1,-1,1.693,-0.154947917,-0.388020833,1,0,0,4.2944,Pegmatite_rect,6,4.294,1,3,0,3,0,1,,,,,,,,,,,,,
5db0e17518230d00170d4332,TCN,2024-06-24_13h56.05.543,LearnStrategy,2023.2.3,Win32,60.24096386,1,1,5,-0.0078125,-0.001302083,1,0,0,1.2979,rock_grid_rect_2,4,14,-1,-1,1.298,0.368489583,-0.397135417,1,0,0,5.7005,Pumice_rect,8,5.701,0,4,0,4,0,1,,,,,,,,,,,,,
5db0e17518230d00170d4332,TCN,2024-06-24_13h56.05.543,LearnStrategy,2023.2.3,Win32,60.24096386,1,1,6,-0.046875,-0.00390625,1,0,0,1.4911,rock_grid_rect_2,8,06,-1,-1,1.491,0.419270833,-0.393229167,1,0,0,2.4466,Pumice_rect,8,2.447,1,5,0,5,0,1,,,,,,,,,,,,,
5db0e17518230d00170d4332,TCN,2024-06-24_13h56.05.543,LearnStrategy,2023.2.3,Win32,60.24096386,1,1,7,-0.010416667,-0.009114583,1,0,0,1.1103,rock_grid_rect_2,6,03,-1,-1,1.11,0.102864583,-0.40234375,1,0,0,4.4602,Peridotite_rect,7,4.46,0,6,0,6,0,1,,,,,,,,,,,,,
5db0e17518230d00170d4332,TCN,2024-06-24_13h56.05.543,LearnStrategy,2023.2.3,Win32,60.24096386,1,1,8,0.002604167,-0.00390625,1,0,0,1.3768,rock_grid_rect_2,8,15,-1,-1,1.377,0.07421875,-0.234375,1,0,0,14.4674,Diorite_rect,3,14.467,0,7,0,7,0,1,,,,,,,,,,,,,
5db0e17518230d00170d4332,TCN,2024-06-24_13h56.05.543,LearnStrategy,2023.2.3,Win32,60.24096386,1,1,9,0.00390625,-0.01171875,1,0,0,1.7921,rock_grid_rect_2,2,08,-1,-1,1.792,-0.364583333,-0.391927083,1,0,0,1.9056,Obsidian_rect,5,1.906,0,8,0,8,0,1,,,,,,,,,,,,,
5db0e17518230d00170d4332,TCN,2024-06-24_13h56.05.543,LearnStrategy,2023.2.3,Win32,60.24096386,1,1,10,-0.040364583,-0.01171875,1,0,0,1.3946,rock_grid_rect_2,7,14,-1,-1,1.395,-0.397135417,-0.2578125,1,0,0,5.0455,Andesite_rect,1,5.046,0,9,0,9,0,1,,,,,,,,,,,,,
5db0e17518230d00170d4332,TCN,2024-06-24_13h56.05.543,LearnStrategy,2023.2.3,Win32,60.24096386,1,1,11,-0.014322917,-0.002604167,1,0,0,1.1769,rock_grid_rect_2,7,02,-1,-1,1.177,0.061197917,-0.266927083,1,0,0,3.4149,Diorite_rect,3,3.415,0,10,0,10,0,1,,,,,,,,,,,,,
5db0e17518230d00170d4332,TCN,2024-06-24_13h56.05.543,LearnStrategy,2023.2.3,Win32,60.24096386,1,1,12,-0.100260417,0.01171875,1,0,0,28.8893,rock_grid_rect_2,4,05,-1,-1,28.889,-0.395833333,-0.229166667,1,0,0,10.3055,Andesite_rect,1,10.305,0,11,0,11,0,1,,,,,,,,,,,,,
5db0e17518230d00170d4332,TCN,2024-06-24_13h56.05.543,LearnStrategy,2023.2.3,Win32,60.24096386,1,1,13,0.024739583,0.002604167,1,0,0,1.3727,rock_grid_rect_2,3,15,-1,-1,1.373,0.130208333,-0.401041667,1,0,0,3.1905,Peridotite_rect,7,3.19,0,12,0,12,0,1,,,,,,,,,,,,,
5db0e17518230d00170d4332,TCN,2024-06-24_13h56.05.543,LearnStrategy,2023.2.3,Win32,60.24096386,1,1,14,-0.067708333,-0.014322917,1,0,0,1.5104,rock_grid_rect_2,1,03,-1,-1,1.51,0.15234375,-0.395833333,1,0,0,12.6428,Peridotite_rect,7,12.643,0,13,0,13,0,1,,,,,,,,,,,,,
5db0e17518230d00170d4332,TCN,2024-06-24_13h56.05.543,LearnStrategy,2023.2.3,Win32,60.24096386,1,1,15,-0.088541667,0.013020833,1,0,0,1.4437,rock_grid_rect_2,5,16,-1,-1,1.444,-0.453125,-0.41796875,1,0,0,1.9504,Obsidian_rect,5,1.95,1,14,0,14,0,1,,,,,,,,,,,,,
5db0e17518230d00170d4332,TCN,2024-06-24_13h56.05.543,LearnStrategy,2023.2.3,Win32,60.24096386,1,1,16,-0.057291667,0.018229167,1,0,0,1.9932,rock_grid_rect_2,5,08,-1,-1,1.993,-0.40625,-0.4140625,1,0,0,3.8224,Obsidian_rect,5,3.822,1,15,0,15,0,1,,,,,,,,,,,,,
5db0e17518230d00170d4332,TCN,2024-06-24_13h56.05.543,LearnStrategy,2023.2.3,Win32,60.24096386,1,2,1,,,,,,,,6,05,,,,,,,,,,,1,16.57,0,,,,,,-0.458333333,-0.255208333,1,0,0,16.5699,Andesite_rect,0,0,0,0,1,
5db0e17518230d00170d4332,TCN,2024-06-24_13h56.05.543,LearnStrategy,2023.2.3,Win32,60.24096386,1,2,2,,,,,,,,2,14,,,,,,,,,,,4,3.646,0,,,,,,0.373697917,-0.25,1,0,0,3.6457,Gabbro_rect,1,0,1,0,1,
5db0e17518230d00170d4332,TCN,2024-06-24_13h56.05.543,LearnStrategy,2023.2.3,Win32,60.24096386,1,2,3,,,,,,,,3,02,,,,,,,,,,,3,1.688,1,,,,,,0.141927083,-0.243489583,1,0,0,1.6879,Diorite_rect,2,0,2,0,1,
5db0e17518230d00170d4332,TCN,2024-06-24_13h56.05.543,LearnStrategy,2023.2.3,Win32,60.24096386,1,2,4,,,,,,,,8,10,,,,,,,,,,,8,1.633,1,,,,,,0.372395833,-0.420572917,1,0,0,1.6331,Pumice_rect,3,0,3,0,1,
5db0e17518230d00170d4332,TCN,2024-06-24_13h56.05.543,LearnStrategy,2023.2.3,Win32,60.24096386,1,2,5,,,,,,,,7,16,,,,,,,,,,,7,1.848,1,,,,,,0.125,-0.391927083,1,0,0,1.8484,Peridotite_rect,4,0,4,0,1,
5db0e17518230d00170d4332,TCN,2024-06-24_13h56.05.543,LearnStrategy,2023.2.3,Win32,60.24096386,1,2,6,,,,,,,,8,13,,,,,,,,,,,2,3.114,0,,,,,,-0.166666667,-0.24609375,1,0,0,3.1138,Basalt_rect,5,0,5,0,1,
5db0e17518230d00170d4332,TCN,2024-06-24_13h56.05.543,LearnStrategy,2023.2.3,Win32,60.24096386,1,2,7,,,,,,,,2,01,,,,,,,,,,,3,2.342,0,,,,,,0.061197917,-0.243489583,1,0,0,2.3419,Diorite_rect,6,0,6,0,1,
5db0e17518230d00170d4332,TCN,2024-06-24_13h56.05.543,LearnStrategy,2023.2.3,Win32,60.24096386,1,2,8,,,,,,,,3,06,,,,,,,,,,,6,2.839,0,,,,,,-0.12109375,-0.388020833,1,0,0,2.8392,Pegmatite_rect,7,0,7,0,1,
5db0e17518230d00170d4332,TCN,2024-06-24_13h56.05.543,LearnStrategy,2023.2.3,Win32,60.24096386,1,2,9,,,,,,,,6,07,,,,,,,,,,,6,2.373,1,,,,,,-0.12109375,-0.38671875,1,0,0,2.3733,Pegmatite_rect,8,0,8,0,1,
5db0e17518230d00170d4332,TCN,2024-06-24_13h56.05.543,LearnStrategy,2023.2.3,Win32,60.24096386,1,2,10,,,,,,,,4,16,,,,,,,,,,,7,2.317,0,,,,,,0.119791667,-0.41015625,1,0,0,2.3166,Peridotite_rect,9,0,9,0,1,
5db0e17518230d00170d4332,TCN,2024-06-24_13h56.05.543,LearnStrategy,2023.2.3,Win32,60.24096386,1,2,11,,,,,,,,1,10,,,,,,,,,,,8,10.567,0,,,,,,0.3515625,-0.411458333,1,0,0,10.567,Pumice_rect,10,0,10,0,1,
5db0e17518230d00170d4332,TCN,2024-06-24_13h56.05.543,LearnStrategy,2023.2.3,Win32,60.24096386,1,2,12,,,,,,,,5,02,,,,,,,,,,,5,3.178,1,,,,,,-0.399739583,-0.397135417,1,0,0,3.1783,Obsidian_rect,11,0,11,0,1,
5db0e17518230d00170d4332,TCN,2024-06-24_13h56.05.543,LearnStrategy,2023.2.3,Win32,60.24096386,1,2,13,,,,,,,,7,07,,,,,,,,,,,3,3.254,0,,,,,,0.114583333,-0.236979167,1,0,0,3.2543,Diorite_rect,12,0,12,0,1,
5db0e17518230d00170d4332,TCN,2024-06-24_13h56.05.543,LearnStrategy,2023.2.3,Win32,60.24096386,1,2,14,,,,,,,,5,09,,,,,,,,,,,5,2.098,1,,,,,,-0.40625,-0.401041667,1,0,0,2.0981,Obsidian_rect,13,0,13,0,1,
5db0e17518230d00170d4332,TCN,2024-06-24_13h56.05.543,LearnStrategy,2023.2.3,Win32,60.24096386,1,2,15,,,,,,,,1,01,,,,,,,,,,,1,7.407,1,,,,,,-0.390625,-0.260416667,1,0,0,7.4073,Andesite_rect,14,0,14,0,1,
5db0e17518230d00170d4332,TCN,2024-06-24_13h56.05.543,LearnStrategy,2023.2.3,Win32,60.24096386,1,2,16,,,,,,,,4,11,,,,,,,,,,,7,5.456,0,,,,,,0.12109375,-0.407552083,1,0,0,5.4562,Peridotite_rect,15,0,15,0,1,
5db0e17518230d00170d4332,TCN,2024-06-24_13h56.05.543,LearnStrategy,2023.2.3,Win32,60.24096386,2,1,1,-0.022135417,0.016927083,1,0,0,2.0116,rock_grid_rect_2,8,14,-1,-1,2.012,0.41796875,-0.419270833,1,0,0,1.9228,Pumice_rect,8,1.923,1,0,0,0,0,1,,,,,,,,,,,,,
5db0e17518230d00170d4332,TCN,2024-06-24_13h56.05.543,LearnStrategy,2023.2.3,Win32,60.24096386,2,1,2,-0.029947917,-0.009114583,1,0,0,1.2127,rock_grid_rect_2,2,04,-1,-1,1.213,0.147135417,-0.23828125,1,0,0,3.1299,Diorite_rect,3,3.13,0,1,0,1,0,1,,,,,,,,,,,,,
5db0e17518230d00170d4332,TCN,2024-06-24_13h56.05.543,LearnStrategy,2023.2.3,Win32,60.24096386,2,1,3,-0.088541667,0.01953125,1,0,0,1.8487,rock_grid_rect_2,6,06,-1,-1,1.849,-0.138020833,-0.389322917,1,0,0,1.4492,Pegmatite_rect,6,1.449,1,2,0,2,0,1,,,,,,,,,,,,,
5db0e17518230d00170d4332,TCN,2024-06-24_13h56.05.543,LearnStrategy,2023.2.3,Win32,60.24096386,2,1,4,-0.024739583,0.00390625,1,0,0,1.6944,rock_grid_rect_2,8,05,-1,-1,1.694,0.442708333,-0.390625,1,0,0,2.7944,Pumice_rect,8,2.794,1,3,0,3,0,1,,,,,,,,,,,,,
5db0e17518230d00170d4332,TCN,2024-06-24_13h56.05.543,LearnStrategy,2023.2.3,Win32,60.24096386,2,1,5,-0.033854167,0.006510417,1,0,0,1.2767,rock_grid_rect_2,7,15,-1,-1,1.277,0.1171875,-0.263020833,1,0,0,9.1865,Diorite_rect,3,9.187,0,4,0,4,0,1,,,,,,,,,,,,,
5db0e17518230d00170d4332,TCN,2024-06-24_13h56.05.543,LearnStrategy,2023.2.3,Win32,60.24096386,2,1,6,-0.044270833,0.002604167,1,0,0,1.951,rock_grid_rect_2,2,09,-1,-1,1.951,-0.153645833,-0.268229167,1,0,0,3.8353,Basalt_rect,2,3.835,1,5,0,5,0,1,,,,,,,,,,,,,
5db0e17518230d00170d4332,TCN,2024-06-24_13h56.05.543,LearnStrategy,2023.2.3,Win32,60.24096386,2,1,7,-0.01953125,-0.014322917,1,0,0,1.8442,rock_grid_rect_2,6,09,-1,-1,1.844,-0.14453125,-0.385416667,1,0,0,2.997,Pegmatite_rect,6,2.997,1,6,0,6,0,1,,,,,,,,,,,,,
5db0e17518230d00170d4332,TCN,2024-06-24_13h56.05.543,LearnStrategy,2023.2.3,Win32,60.24096386,2,1,8,0.00390625,0.01953125,1,0,0,1.4674,rock_grid_rect_2,4,09,-1,-1,1.467,0.169270833,-0.408854167,1,0,0,9.4123,Peridotite_rect,7,9.412,0,7,0,7,0,1,,,,,,,,,,,,,
5db0e17518230d00170d4332,TCN,2024-06-24_13h56.05.543,LearnStrategy,2023.2.3,Win32,60.24096386,2,1,9,-0.013020833,0.009114583,1,0,0,1.4771,rock_grid_rect_2,1,07,-1,-1,1.477,0.131510417,-0.404947917,1,0,0,1.8082,Peridotite_rect,7,1.808,0,8,0,8,0,1,,,,,,,,,,,,,
5db0e17518230d00170d4332,TCN,2024-06-24_13h56.05.543,LearnStrategy,2023.2.3,Win32,60.24096386,2,1,10,0.052083333,0.002604167,1,0,0,1.7444,rock_grid_rect_2,5,10,-1,-1,1.744,-0.404947917,-0.391927083,1,0,0,1.5331,Obsidian_rect,5,1.533,1,9,0,9,0,1,,,,,,,,,,,,,
5db0e17518230d00170d4332,TCN,2024-06-24_13h56.05.543,LearnStrategy,2023.2.3,Win32,60.24096386,2,1,11,-0.067708333,-0.0234375,1,0,0,1.87,rock_grid_rect_2,4,08,-1,-1,1.87,-0.122395833,-0.26171875,1,0,0,2.4351,Basalt_rect,2,2.435,0,10,0,10,0,1,,,,,,,,,,,,,
5db0e17518230d00170d4332,TCN,2024-06-24_13h56.05.543,LearnStrategy,2023.2.3,Win32,60.24096386,2,1,12,-0.01953125,-0.014322917,1,0,0,8.0219,rock_grid_rect_2,5,07,-1,-1,8.022,-0.4375,-0.407552083,1,0,0,2.6187,Obsidian_rect,5,2.619,1,11,0,11,0,1,,,,,,,,,,,,,
5db0e17518230d00170d4332,TCN,2024-06-24_13h56.05.543,LearnStrategy,2023.2.3,Win32,60.24096386,2,1,13,0.033854167,0.01171875,1,0,0,2.3411,rock_grid_rect_2,7,08,-1,-1,2.341,0.326822917,-0.3984375,1,0,0,1.9685,Pumice_rect,8,1.968,0,12,0,12,0,1,,,,,,,,,,,,,
5db0e17518230d00170d4332,TCN,2024-06-24_13h56.05.543,LearnStrategy,2023.2.3,Win32,60.24096386,2,1,14,0.033854167,-0.010416667,1,0,0,7.8898,rock_grid_rect_2,1,09,-1,-1,7.89,-0.102864583,-0.265625,1,0,0,2.2249,Basalt_rect,2,2.225,0,13,0,13,0,1,,,,,,,,,,,,,
5db0e17518230d00170d4332,TCN,2024-06-24_13h56.05.543,LearnStrategy,2023.2.3,Win32,60.24096386,2,1,15,0.088541667,0.006510417,1,0,0,6.6404,rock_grid_rect_2,3,09,-1,-1,6.64,0.069010417,-0.251302083,1,0,0,3.1816,Diorite_rect,3,3.182,1,14,0,14,0,1,,,,,,,,,,,,,
5db0e17518230d00170d4332,TCN,2024-06-24_13h56.05.543,LearnStrategy,2023.2.3,Win32,60.24096386,2,1,16,-0.002604167,-0.018229167,1,0,0,1.9091,rock_grid_rect_2,3,14,-1,-1,1.909,0.369791667,-0.2578125,1,0,0,2.7392,Gabbro_rect,4,2.739,0,15,0,15,0,1,,,,,,,,,,,,,
5db0e17518230d00170d4332,TCN,2024-06-24_13h56.05.543,LearnStrategy,2023.2.3,Win32,60.24096386,2,2,1,,,,,,,,7,10,,,,,,,,,,,1,5.652,0,,,,,,-0.4609375,-0.259114583,1,0,0,5.6516,Andesite_rect,0,0,0,0,1,
5db0e17518230d00170d4332,TCN,2024-06-24_13h56.05.543,LearnStrategy,2023.2.3,Win32,60.24096386,2,2,2,,,,,,,,5,06,,,,,,,,,,,5,3.288,1,,,,,,-0.399739583,-0.419270833,1,0,0,3.2876,Obsidian_rect,1,0,1,0,1,
5db0e17518230d00170d4332,TCN,2024-06-24_13h56.05.543,LearnStrategy,2023.2.3,Win32,60.24096386,2,2,3,,,,,,,,7,04,,,,,,,,,,,6,1.62,0,,,,,,-0.118489583,-0.399739583,1,0,0,1.6198,Pegmatite_rect,2,0,2,0,1,
5db0e17518230d00170d4332,TCN,2024-06-24_13h56.05.543,LearnStrategy,2023.2.3,Win32,60.24096386,2,2,4,,,,,,,,2,02,,,,,,,,,,,2,2.888,1,,,,,,-0.178385417,-0.233072917,1,0,0,2.8876,Basalt_rect,3,0,3,0,1,
5db0e17518230d00170d4332,TCN,2024-06-24_13h56.05.543,LearnStrategy,2023.2.3,Win32,60.24096386,2,2,5,,,,,,,,4,12,,,,,,,,,,,7,2.215,0,,,,,,0.134114583,-0.4140625,1,0,0,2.2146,Peridotite_rect,4,0,4,0,1,
5db0e17518230d00170d4332,TCN,2024-06-24_13h56.05.543,LearnStrategy,2023.2.3,Win32,60.24096386,2,2,6,,,,,,,,5,11,,,,,,,,,,,5,1.315,1,,,,,,-0.4765625,-0.397135417,1,0,0,1.3146,Obsidian_rect,5,0,5,0,1,
5db0e17518230d00170d4332,TCN,2024-06-24_13h56.05.543,LearnStrategy,2023.2.3,Win32,60.24096386,2,2,7,,,,,,,,1,11,,,,,,,,,,,4,3.989,0,,,,,,0.319010417,-0.26953125,1,0,0,3.9894,Gabbro_rect,6,0,6,0,1,
5db0e17518230d00170d4332,TCN,2024-06-24_13h56.05.543,LearnStrategy,2023.2.3,Win32,60.24096386,2,2,8,,,,,,,,4,15,,,,,,,,,,,3,2.804,0,,,,,,0.098958333,-0.265625,1,0,0,2.8041,Diorite_rect,7,0,7,0,1,
5db0e17518230d00170d4332,TCN,2024-06-24_13h56.05.543,LearnStrategy,2023.2.3,Win32,60.24096386,2,2,9,,,,,,,,3,10,,,,,,,,,,,1,5.562,0,,,,,,-0.4765625,-0.235677083,1,0,0,5.5616,Andesite_rect,8,0,8,0,1,
5db0e17518230d00170d4332,TCN,2024-06-24_13h56.05.543,LearnStrategy,2023.2.3,Win32,60.24096386,2,2,10,,,,,,,,8,02,,,,,,,,,,,8,2.363,1,,,,,,0.29296875,-0.384114583,1,0,0,2.3632,Pumice_rect,9,0,9,0,1,
5db0e17518230d00170d4332,TCN,2024-06-24_13h56.05.543,LearnStrategy,2023.2.3,Win32,60.24096386,2,2,11,,,,,,,,8,09,,,,,,,,,,,8,2.801,1,,,,,,0.315104167,-0.389322917,1,0,0,2.8013,Pumice_rect,10,0,10,0,1,
5db0e17518230d00170d4332,TCN,2024-06-24_13h56.05.543,LearnStrategy,2023.2.3,Win32,60.24096386,2,2,12,,,,,,,,3,13,,,,,,,,,,,4,137.955,0,,,,,,0.42578125,-0.243489583,1,0,0,137.955,Gabbro_rect,11,0,11,0,1,
5db0e17518230d00170d4332,TCN,2024-06-24_13h56.05.543,LearnStrategy,2023.2.3,Win32,60.24096386,2,2,13,,,,,,,,2,06,,,,,,,,,,,2,8.059,1,,,,,,-0.153645833,-0.248697917,1,0,0,8.059,Basalt_rect,12,0,12,0,1,
5db0e17518230d00170d4332,TCN,2024-06-24_13h56.05.543,LearnStrategy,2023.2.3,Win32,60.24096386,2,2,14,,,,,,,,6,15,,,,,,,,,,,6,1.277,1,,,,,,-0.12890625,-0.385416667,1,0,0,1.277,Pegmatite_rect,13,0,13,0,1,
5db0e17518230d00170d4332,TCN,2024-06-24_13h56.05.543,LearnStrategy,2023.2.3,Win32,60.24096386,2,2,15,,,,,,,,6,16,,,,,,,,,,,5,3.162,0,,,,,,-0.3984375,-0.40234375,1,0,0,3.1617,Obsidian_rect,14,0,14,0,1,
5db0e17518230d00170d4332,TCN,2024-06-24_13h56.05.543,LearnStrategy,2023.2.3,Win32,60.24096386,2,2,16,,,,,,,,1,14,,,,,,,,,,,7,2.064,0,,,,,,0.122395833,-0.391927083,1,0,0,2.0636,Peridotite_rect,15,0,15,0,1,
5db0e17518230d00170d4332,TCN,2024-06-24_13h56.05.543,LearnStrategy,2023.2.3,Win32,60.24096386,3,1,1,-0.024739583,0.00390625,1,0,0,2.0766,rock_grid_rect_2,4,03,-1,-1,2.077,0.424479167,-0.24609375,1,0,0,5.3568,Gabbro_rect,4,5.357,1,0,0,0,0,1,,,,,,,,,,,,,
5db0e17518230d00170d4332,TCN,2024-06-24_13h56.05.543,LearnStrategy,2023.2.3,Win32,60.24096386,3,1,2,-0.02734375,-0.0234375,1,0,0,1.7766,rock_grid_rect_2,6,13,-1,-1,1.777,-0.154947917,-0.381510417,1,0,0,2.1775,Pegmatite_rect,6,2.177,1,1,0,1,0,1,,,,,,,,,,,,,
5db0e17518230d00170d4332,TCN,2024-06-24_13h56.05.543,LearnStrategy,2023.2.3,Win32,60.24096386,3,1,3,-0.11328125,-0.001302083,1,0,0,1.31,rock_grid_rect_2,7,06,-1,-1,1.31,-0.127604167,-0.38671875,1,0,0,2.4695,Pegmatite_rect,6,2.47,0,2,0,2,0,1,,,,,,,,,,,,,
5db0e17518230d00170d4332,TCN,2024-06-24_13h56.05.543,LearnStrategy,2023.2.3,Win32,60.24096386,3,1,4,0.001302083,-0.0234375,1,0,0,9.6532,rock_grid_rect_2,2,16,-1,-1,9.653,-0.194010417,-0.263020833,1,0,0,4.3442,Basalt_rect,2,4.344,1,3,0,3,0,1,,,,,,,,,,,,,
5db0e17518230d00170d4332,TCN,2024-06-24_13h56.05.543,LearnStrategy,2023.2.3,Win32,60.24096386,3,1,5,-0.014322917,0.010416667,1,0,0,1.5111,rock_grid_rect_2,4,13,-1,-1,1.511,0.106770833,-0.389322917,1,0,0,3.3668,Peridotite_rect,7,3.367,0,4,0,4,0,1,,,,,,,,,,,,,
5db0e17518230d00170d4332,TCN,2024-06-24_13h56.05.543,LearnStrategy,2023.2.3,Win32,60.24096386,3,1,6,0.002604167,0.0078125,1,0,0,2.9256,rock_grid_rect_2,2,10,-1,-1,2.926,-0.423177083,-0.263020833,1,0,0,13.6739,Andesite_rect,1,13.674,0,5,0,5,0,1,,,,,,,,,,,,,
5db0e17518230d00170d4332,TCN,2024-06-24_13h56.05.543,LearnStrategy,2023.2.3,Win32,60.24096386,3,1,7,-0.005208333,-0.00390625,1,0,0,2.0092,rock_grid_rect_2,5,05,-1,-1,2.009,0.149739583,-0.403645833,1,0,0,4.3311,Peridotite_rect,7,4.331,0,6,0,6,0,1,,,,,,,,,,,,,
5db0e17518230d00170d4332,TCN,2024-06-24_13h56.05.543,LearnStrategy,2023.2.3,Win32,60.24096386,3,1,8,-0.045572917,-0.006510417,1,0,0,1.6612,rock_grid_rect_2,7,12,-1,-1,1.661,0.393229167,-0.266927083,1,0,0,2.671,Gabbro_rect,4,2.671,0,7,0,7,0,1,,,,,,,,,,,,,
5db0e17518230d00170d4332,TCN,2024-06-24_13h56.05.543,LearnStrategy,2023.2.3,Win32,60.24096386,3,1,9,0.03125,-0.01171875,1,0,0,1.8098,rock_grid_rect_2,6,08,-1,-1,1.81,-0.151041667,-0.389322917,1,0,0,1.8431,Pegmatite_rect,6,1.843,1,8,0,8,0,1,,,,,,,,,,,,,
5db0e17518230d00170d4332,TCN,2024-06-24_13h56.05.543,LearnStrategy,2023.2.3,Win32,60.24096386,3,1,10,-0.052083333,-0.005208333,1,0,0,1.1776,rock_grid_rect_2,3,16,-1,-1,1.178,0.388020833,-0.248697917,1,0,0,3.6387,Gabbro_rect,4,3.639,0,9,0,9,0,1,,,,,,,,,,,,,
5db0e17518230d00170d4332,TCN,2024-06-24_13h56.05.543,LearnStrategy,2023.2.3,Win32,60.24096386,3,1,11,0.09765625,-0.022135417,1,0,0,8.1559,rock_grid_rect_2,1,04,-1,-1,8.156,-0.438802083,-0.236979167,1,0,0,2.4252,Andesite_rect,1,2.425,1,10,0,10,0,1,,,,,,,,,,,,,
5db0e17518230d00170d4332,TCN,2024-06-24_13h56.05.543,LearnStrategy,2023.2.3,Win32,60.24096386,3,1,12,-0.048177083,0.001302083,1,0,0,1.4541,rock_grid_rect_2,1,02,-1,-1,1.454,0.091145833,-0.3984375,1,0,0,3.1721,Peridotite_rect,7,3.172,0,11,0,11,0,1,,,,,,,,,,,,,
5db0e17518230d00170d4332,TCN,2024-06-24_13h56.05.543,LearnStrategy,2023.2.3,Win32,60.24096386,3,1,13,-0.08203125,-0.013020833,1,0,0,8.8214,rock_grid_rect_2,8,04,-1,-1,8.821,0.440104167,-0.40625,1,0,0,1.8153,Pumice_rect,8,1.815,1,12,0,12,0,1,,,,,,,,,,,,,
5db0e17518230d00170d4332,TCN,2024-06-24_13h56.05.543,LearnStrategy,2023.2.3,Win32,60.24096386,3,1,14,-0.040364583,-0.018229167,1,0,0,1.8287,rock_grid_rect_2,8,03,-1,-1,1.829,0.434895833,-0.411458333,1,0,0,1.3402,Pumice_rect,8,1.34,1,13,0,13,0,1,,,,,,,,,,,,,
5db0e17518230d00170d4332,TCN,2024-06-24_13h56.05.543,LearnStrategy,2023.2.3,Win32,60.24096386,3,1,15,-0.010416667,-0.005208333,1,0,0,1.4452,rock_grid_rect_2,3,07,-1,-1,1.445,-0.184895833,-0.416666667,1,0,0,1.6345,Pegmatite_rect,6,1.635,0,14,0,14,0,1,,,,,,,,,,,,,
5db0e17518230d00170d4332,TCN,2024-06-24_13h56.05.543,LearnStrategy,2023.2.3,Win32,60.24096386,3,1,16,-0.084635417,-0.006510417,1,0,0,15.7334,rock_grid_rect_2,5,04,-1,-1,15.733,-0.356770833,-0.388020833,1,0,0,1.5126,Obsidian_rect,5,1.513,1,15,0,15,0,1,,,,,,,,,,,,,
5db0e17518230d00170d4332,TCN,2024-06-24_13h56.05.543,LearnStrategy,2023.2.3,Win32,60.24096386,3,2,1,,,,,,,,7,13,,,,,,,,,,,7,12.005,1,,,,,,0.141927083,-0.416666667,1,0,0,12.0045,Peridotite_rect,0,0,0,0,1,
5db0e17518230d00170d4332,TCN,2024-06-24_13h56.05.543,LearnStrategy,2023.2.3,Win32,60.24096386,3,2,2,,,,,,,,2,05,,,,,,,,,,,5,2.983,0,,,,,,-0.446614583,-0.408854167,1,0,0,2.9829,Obsidian_rect,1,0,1,0,1,
5db0e17518230d00170d4332,TCN,2024-06-24_13h56.05.543,LearnStrategy,2023.2.3,Win32,60.24096386,3,2,3,,,,,,,,5,14,,,,,,,,,,,5,1.494,1,,,,,,-0.37109375,-0.404947917,1,0,0,1.4943,Obsidian_rect,2,0,2,0,1,
5db0e17518230d00170d4332,TCN,2024-06-24_13h56.05.543,LearnStrategy,2023.2.3,Win32,60.24096386,3,2,4,,,,,,,,6,12,,,,,,,,,,,3,3.681,0,,,,,,0.076822917,-0.233072917,1,0,0,3.6811,Diorite_rect,3,0,3,0,1,
5db0e17518230d00170d4332,TCN,2024-06-24_13h56.05.543,LearnStrategy,2023.2.3,Win32,60.24096386,3,2,5,,,,,,,,1,16,,,,,,,,,,,1,1.569,1,,,,,,-0.399739583,-0.268229167,1,0,0,1.5695,Andesite_rect,4,0,4,0,1,
5db0e17518230d00170d4332,TCN,2024-06-24_13h56.05.543,LearnStrategy,2023.2.3,Win32,60.24096386,3,2,6,,,,,,,,8,16,,,,,,,,,,,8,7.652,1,,,,,,0.404947917,-0.415364583,1,0,0,7.6522,Pumice_rect,5,0,5,0,1,
5db0e17518230d00170d4332,TCN,2024-06-24_13h56.05.543,LearnStrategy,2023.2.3,Win32,60.24096386,3,2,7,,,,,,,,8,08,,,,,,,,,,,8,8.851,1,,,,,,0.384114583,-0.41015625,1,0,0,8.8508,Pumice_rect,6,0,6,0,1,
5db0e17518230d00170d4332,TCN,2024-06-24_13h56.05.543,LearnStrategy,2023.2.3,Win32,60.24096386,3,2,8,,,,,,,,2,11,,,,,,,,,,,2,22.496,1,,,,,,-0.147135417,-0.270833333,1,0,0,22.496,Basalt_rect,7,0,7,0,1,
5db0e17518230d00170d4332,TCN,2024-06-24_13h56.05.543,LearnStrategy,2023.2.3,Win32,60.24096386,3,2,9,,,,,,,,5,12,,,,,,,,,,,5,1.812,1,,,,,,-0.4765625,-0.380208333,1,0,0,1.8118,Obsidian_rect,8,0,8,0,1,
5db0e17518230d00170d4332,TCN,2024-06-24_13h56.05.543,LearnStrategy,2023.2.3,Win32,60.24096386,3,2,10,,,,,,,,4,01,,,,,,,,,,,1,5.671,0,,,,,,-0.381510417,-0.24609375,1,0,0,5.6706,Andesite_rect,9,0,9,0,1,
5db0e17518230d00170d4332,TCN,2024-06-24_13h56.05.543,LearnStrategy,2023.2.3,Win32,60.24096386,3,2,11,,,,,,,,3,08,,,,,,,,,,,3,1.56,1,,,,,,0.177083333,-0.256510417,1,0,0,1.5596,Diorite_rect,10,0,10,0,1,
5db0e17518230d00170d4332,TCN,2024-06-24_13h56.05.543,LearnStrategy,2023.2.3,Win32,60.24096386,3,2,12,,,,,,,,7,05,,,,,,,,,,,2,2.656,0,,,,,,-0.135416667,-0.24609375,1,0,0,2.6563,Basalt_rect,11,0,11,0,1,
5db0e17518230d00170d4332,TCN,2024-06-24_13h56.05.543,LearnStrategy,2023.2.3,Win32,60.24096386,3,2,13,,,,,,,,3,12,,,,,,,,,,,3,1.818,1,,,,,,0.134114583,-0.25,1,0,0,1.8184,Diorite_rect,12,0,12,0,1,
5db0e17518230d00170d4332,TCN,2024-06-24_13h56.05.543,LearnStrategy,2023.2.3,Win32,60.24096386,3,2,14,,,,,,,,1,05,,,,,,,,,,,4,2.711,0,,,,,,0.41796875,-0.247395833,1,0,0,2.7112,Gabbro_rect,13,0,13,0,1,
5db0e17518230d00170d4332,TCN,2024-06-24_13h56.05.543,LearnStrategy,2023.2.3,Win32,60.24096386,3,2,15,,,,,,,,6,10,,,,,,,,,,,6,1.431,1,,,,,,-0.209635417,-0.407552083,1,0,0,1.431,Pegmatite_rect,14,0,14,0,1,
5db0e17518230d00170d4332,TCN,2024-06-24_13h56.05.543,LearnStrategy,2023.2.3,Win32,60.24096386,3,2,16,,,,,,,,4,10,,,,,,,,,,,1,1.86,0,,,,,,-0.380208333,-0.265625,1,0,0,1.8598,Andesite_rect,15,0,15,0,1,
5db0e17518230d00170d4332,TCN,2024-06-24_13h56.05.543,LearnStrategy,2023.2.3,Win32,60.24096386,4,1,1,0.010416667,-0.005208333,1,0,0,9.2222,rock_grid_rect_2,4,09,-1,-1,9.222,-0.134114583,-0.23046875,1,0,0,4.5074,Basalt_rect,2,4.507,0,0,0,0,0,1,,,,,,,,,,,,,
5db0e17518230d00170d4332,TCN,2024-06-24_13h56.05.543,LearnStrategy,2023.2.3,Win32,60.24096386,4,1,2,-0.07421875,-0.002604167,1,0,0,2.7255,rock_grid_rect_2,7,06,-1,-1,2.726,-0.384114583,-0.239583333,1,0,0,7.8341,Andesite_rect,1,7.834,0,1,0,1,0,1,,,,,,,,,,,,,
5db0e17518230d00170d4332,TCN,2024-06-24_13h56.05.543,LearnStrategy,2023.2.3,Win32,60.24096386,4,1,3,-0.049479167,-0.005208333,1,0,0,1.6426,rock_grid_rect_2,3,09,-1,-1,1.643,0.1328125,-0.248697917,1,0,0,2.2641,Diorite_rect,3,2.264,1,2,0,2,0,1,,,,,,,,,,,,,
5db0e17518230d00170d4332,TCN,2024-06-24_13h56.05.543,LearnStrategy,2023.2.3,Win32,60.24096386,4,1,4,-0.013020833,-0.013020833,1,0,0,1.3942,rock_grid_rect_2,5,04,-1,-1,1.394,-0.388020833,-0.395833333,1,0,0,2.1806,Obsidian_rect,5,2.181,1,3,0,3,0,1,,,,,,,,,,,,,
5db0e17518230d00170d4332,TCN,2024-06-24_13h56.05.543,LearnStrategy,2023.2.3,Win32,60.24096386,4,1,5,-0.037760417,-0.01953125,1,0,0,1.1106,rock_grid_rect_2,2,16,-1,-1,1.111,-0.158854167,-0.244791667,1,0,0,1.4663,Basalt_rect,2,1.466,1,4,0,4,0,1,,,,,,,,,,,,,
5db0e17518230d00170d4332,TCN,2024-06-24_13h56.05.543,LearnStrategy,2023.2.3,Win32,60.24096386,4,1,6,-0.06640625,-0.001302083,1,0,0,1.244,rock_grid_rect_2,7,14,-1,-1,1.244,0.084635417,-0.256510417,1,0,0,2.4509,Diorite_rect,3,2.451,0,5,0,5,0,1,,,,,,,,,,,,,
5db0e17518230d00170d4332,TCN,2024-06-24_13h56.05.543,LearnStrategy,2023.2.3,Win32,60.24096386,4,1,7,-0.041666667,-0.016927083,1,0,0,12.7854,rock_grid_rect_2,6,08,-1,-1,12.785,-0.188802083,-0.381510417,1,0,0,1.6591,Pegmatite_rect,6,1.659,1,6,0,6,0,1,,,,,,,,,,,,,
5db0e17518230d00170d4332,TCN,2024-06-24_13h56.05.543,LearnStrategy,2023.2.3,Win32,60.24096386,4,1,8,0.010416667,-0.001302083,1,0,0,26.2077,rock_grid_rect_2,8,06,-1,-1,26.208,-0.15234375,-0.231770833,1,0,0,3.9173,Basalt_rect,2,3.917,0,7,0,7,0,1,,,,,,,,,,,,,
5db0e17518230d00170d4332,TCN,2024-06-24_13h56.05.543,LearnStrategy,2023.2.3,Win32,60.24096386,4,1,9,-0.002604167,0.013020833,1,0,0,1.1277,rock_grid_rect_2,8,14,-1,-1,1.128,0.4296875,-0.41015625,1,0,0,1.4297,Pumice_rect,8,1.43,1,8,0,8,0,1,,,,,,,,,,,,,
5db0e17518230d00170d4332,TCN,2024-06-24_13h56.05.543,LearnStrategy,2023.2.3,Win32,60.24096386,4,1,10,0.013020833,-0.018229167,1,0,0,6.7075,rock_grid_rect_2,1,07,-1,-1,6.707,0.098958333,-0.270833333,1,0,0,2.275,Diorite_rect,3,2.275,0,9,0,9,0,1,,,,,,,,,,,,,
5db0e17518230d00170d4332,TCN,2024-06-24_13h56.05.543,LearnStrategy,2023.2.3,Win32,60.24096386,4,1,11,-0.045572917,0.009114583,1,0,0,1.5768,rock_grid_rect_2,4,03,-1,-1,1.577,0.08203125,-0.231770833,1,0,0,1.9993,Diorite_rect,3,1.999,0,10,0,10,0,1,,,,,,,,,,,,,
5db0e17518230d00170d4332,TCN,2024-06-24_13h56.05.543,LearnStrategy,2023.2.3,Win32,60.24096386,4,1,12,-0.02734375,-0.002604167,1,0,0,1.4447,rock_grid_rect_2,5,16,-1,-1,1.445,-0.35546875,-0.385416667,1,0,0,2.4185,Obsidian_rect,5,2.418,1,11,0,11,0,1,,,,,,,,,,,,,
5db0e17518230d00170d4332,TCN,2024-06-24_13h56.05.543,LearnStrategy,2023.2.3,Win32,60.24096386,4,1,13,-0.044270833,-0.015625,1,0,0,13.6678,rock_grid_rect_2,1,09,-1,-1,13.668,0.3671875,-0.240885417,1,0,0,6.3035,Gabbro_rect,4,6.303,0,12,0,12,0,1,,,,,,,,,,,,,
5db0e17518230d00170d4332,TCN,2024-06-24_13h56.05.543,LearnStrategy,2023.2.3,Win32,60.24096386,4,1,14,-0.06640625,0.001302083,1,0,0,1.6774,rock_grid_rect_2,2,04,-1,-1,1.677,-0.41796875,-0.3828125,1,0,0,2.5354,Obsidian_rect,5,2.535,0,13,0,13,0,1,,,,,,,,,,,,,
5db0e17518230d00170d4332,TCN,2024-06-24_13h56.05.543,LearnStrategy,2023.2.3,Win32,60.24096386,4,1,15,-0.045572917,-0.009114583,1,0,0,1.9101,rock_grid_rect_2,6,06,-1,-1,1.91,-0.157552083,-0.41015625,1,0,0,1.842,Pegmatite_rect,6,1.842,1,14,0,14,0,1,,,,,,,,,,,,,
5db0e17518230d00170d4332,TCN,2024-06-24_13h56.05.543,LearnStrategy,2023.2.3,Win32,60.24096386,4,1,16,-0.020833333,-0.018229167,1,0,0,9.4203,rock_grid_rect_2,3,14,-1,-1,9.42,-0.3671875,-0.40234375,1,0,0,2.4377,Obsidian_rect,5,2.438,0,15,0,15,0,1,,,,,,,,,,,,,
5db0e17518230d00170d4332,TCN,2024-06-24_13h56.05.543,LearnStrategy,2023.2.3,Win32,60.24096386,4,2,1,,,,,,,,6,07,,,,,,,,,,,6,12.259,1,,,,,,-0.122395833,-0.380208333,1,0,0,12.2592,Pegmatite_rect,0,0,0,0,1,
5db0e17518230d00170d4332,TCN,2024-06-24_13h56.05.543,LearnStrategy,2023.2.3,Win32,60.24096386,4,2,2,,,,,,,,8,08,,,,,,,,,,,8,1.503,1,,,,,,0.30859375,-0.403645833,1,0,0,1.5033,Pumice_rect,1,0,1,0,1,
5db0e17518230d00170d4332,TCN,2024-06-24_13h56.05.543,LearnStrategy,2023.2.3,Win32,60.24096386,4,2,3,,,,,,,,5,14,,,,,,,,,,,5,1.359,1,,,,,,-0.330729167,-0.380208333,1,0,0,1.359,Obsidian_rect,2,0,2,0,1,
5db0e17518230d00170d4332,TCN,2024-06-24_13h56.05.543,LearnStrategy,2023.2.3,Win32,60.24096386,4,2,4,,,,,,,,4,16,,,,,,,,,,,4,1.685,1,,,,,,0.434895833,-0.256510417,1,0,0,1.6852,Gabbro_rect,3,0,3,0,1,
5db0e17518230d00170d4332,TCN,2024-06-24_13h56.05.543,LearnStrategy,2023.2.3,Win32,60.24096386,4,2,5,,,,,,,,3,12,,,,,,,,,,,1,1.182,0,,,,,,-0.360677083,-0.270833333,1,0,0,1.1816,Andesite_rect,4,0,4,0,1,
5db0e17518230d00170d4332,TCN,2024-06-24_13h56.05.543,LearnStrategy,2023.2.3,Win32,60.24096386,4,2,6,,,,,,,,4,15,,,,,,,,,,,3,1.837,0,,,,,,0.049479167,-0.25390625,1,0,0,1.8365,Diorite_rect,5,0,5,0,1,
5db0e17518230d00170d4332,TCN,2024-06-24_13h56.05.543,LearnStrategy,2023.2.3,Win32,60.24096386,4,2,7,,,,,,,,3,08,,,,,,,,,,,7,2.588,0,,,,,,0.079427083,-0.407552083,1,0,0,2.5878,Peridotite_rect,6,0,6,0,1,
5db0e17518230d00170d4332,TCN,2024-06-24_13h56.05.543,LearnStrategy,2023.2.3,Win32,60.24096386,4,2,8,,,,,,,,5,12,,,,,,,,,,,5,1.209,1,,,,,,-0.3984375,-0.381510417,1,0,0,1.2089,Obsidian_rect,7,0,7,0,1,
5db0e17518230d00170d4332,TCN,2024-06-24_13h56.05.543,LearnStrategy,2023.2.3,Win32,60.24096386,4,2,9,,,,,,,,2,11,,,,,,,,,,,2,2.171,1,,,,,,-0.06640625,-0.256510417,1,0,0,2.1707,Basalt_rect,8,0,8,0,1,
5db0e17518230d00170d4332,TCN,2024-06-24_13h56.05.543,LearnStrategy,2023.2.3,Win32,60.24096386,4,2,10,,,,,,,,1,10,,,,,,,,,,,2,0.849,0,,,,,,-0.067708333,-0.256510417,1,0,0,0.8494,Basalt_rect,9,0,9,0,1,
5db0e17518230d00170d4332,TCN,2024-06-24_13h56.05.543,LearnStrategy,2023.2.3,Win32,60.24096386,4,2,11,,,,,,,,6,16,,,,,,,,,,,6,2.101,1,,,,,,-0.110677083,-0.416666667,1,0,0,2.1012,Pegmatite_rect,10,0,10,0,1,
5db0e17518230d00170d4332,TCN,2024-06-24_13h56.05.543,LearnStrategy,2023.2.3,Win32,60.24096386,4,2,12,,,,,,,,2,14,,,,,,,,,,,4,3.014,0,,,,,,0.477864583,-0.2421875,1,0,0,3.0138,Gabbro_rect,11,0,11,0,1,
5db0e17518230d00170d4332,TCN,2024-06-24_13h56.05.543,LearnStrategy,2023.2.3,Win32,60.24096386,4,2,13,,,,,,,,8,16,,,,,,,,,,,4,5.434,0,,,,,,0.446614583,-0.26171875,1,0,0,5.4338,Gabbro_rect,12,0,12,0,1,
5db0e17518230d00170d4332,TCN,2024-06-24_13h56.05.543,LearnStrategy,2023.2.3,Win32,60.24096386,4,2,14,,,,,,,,7,16,,,,,,,,,,,7,2.763,1,,,,,,0.125,-0.408854167,1,0,0,2.763,Peridotite_rect,13,0,13,0,1,
5db0e17518230d00170d4332,TCN,2024-06-24_13h56.05.543,LearnStrategy,2023.2.3,Win32,60.24096386,4,2,15,,,,,,,,7,13,,,,,,,,,,,5,8.954,0,,,,,,-0.477864583,-0.39453125,1,0,0,8.9541,Obsidian_rect,14,0,14,0,1,
5db0e17518230d00170d4332,TCN,2024-06-24_13h56.05.543,LearnStrategy,2023.2.3,Win32,60.24096386,4,2,16,,,,,,,,1,16,,,,,,,,,,,3,1.509,0,,,,,,0.110677083,-0.247395833,1,0,0,1.5086,Diorite_rect,15,0,15,0,1,
5db0e17518230d00170d4332,TCN,2024-06-24_13h56.05.543,LearnStrategy,2023.2.3,Win32,60.24096386,5,1,1,0.029947917,-0.018229167,1,0,0,2.1943,rock_grid_rect_2,2,12,-1,-1,2.194,-0.161458333,-0.260416667,1,0,0,135.4664,Basalt_rect,2,135.466,1,0,0,0,0,1,,,,,,,,,,,,,
5db0e17518230d00170d4332,TCN,2024-06-24_13h56.05.543,LearnStrategy,2023.2.3,Win32,60.24096386,5,1,2,-0.033854167,-0.010416667,1,0,0,2.1923,rock_grid_rect_2,4,08,-1,-1,2.192,0.151041667,-0.264322917,1,0,0,1.5196,Diorite_rect,3,1.52,0,1,0,1,0,1,,,,,,,,,,,,,
5db0e17518230d00170d4332,TCN,2024-06-24_13h56.05.543,LearnStrategy,2023.2.3,Win32,60.24096386,5,1,3,-0.01171875,0.022135417,1,0,0,1.6265,rock_grid_rect_2,3,11,-1,-1,1.627,0.149739583,-0.397135417,1,0,0,2.4075,Peridotite_rect,7,2.408,0,2,0,2,0,1,,,,,,,,,,,,,
5db0e17518230d00170d4332,TCN,2024-06-24_13h56.05.543,LearnStrategy,2023.2.3,Win32,60.24096386,5,1,4,-0.057291667,-0.001302083,1,0,0,1.777,rock_grid_rect_2,3,07,-1,-1,1.777,-0.4140625,-0.411458333,1,0,0,2.2948,Obsidian_rect,5,2.295,0,3,0,3,0,1,,,,,,,,,,,,,
5db0e17518230d00170d4332,TCN,2024-06-24_13h56.05.543,LearnStrategy,2023.2.3,Win32,60.24096386,5,1,5,-0.061197917,0.016927083,1,0,0,1.6275,rock_grid_rect_2,7,15,-1,-1,1.628,-0.4453125,-0.235677083,1,0,0,10.0531,Andesite_rect,1,10.053,0,4,0,4,0,1,,,,,,,,,,,,,
5db0e17518230d00170d4332,TCN,2024-06-24_13h56.05.543,LearnStrategy,2023.2.3,Win32,60.24096386,5,1,6,-0.045572917,0.0234375,1,0,0,3.2743,rock_grid_rect_2,5,07,-1,-1,3.274,-0.377604167,-0.408854167,1,0,0,1.9953,Obsidian_rect,5,1.995,1,5,0,5,0,1,,,,,,,,,,,,,
5db0e17518230d00170d4332,TCN,2024-06-24_13h56.05.543,LearnStrategy,2023.2.3,Win32,60.24096386,5,1,7,-0.092447917,-0.009114583,1,0,0,1.9349,rock_grid_rect_2,2,08,-1,-1,1.935,0.141927083,-0.25,1,0,0,4.2813,Diorite_rect,3,4.281,0,6,0,6,0,1,,,,,,,,,,,,,
5db0e17518230d00170d4332,TCN,2024-06-24_13h56.05.543,LearnStrategy,2023.2.3,Win32,60.24096386,5,1,8,-0.03125,-0.0234375,1,0,0,2.0933,rock_grid_rect_2,6,03,-1,-1,2.093,0.421875,-0.260416667,1,0,0,3.9463,Gabbro_rect,4,3.946,0,7,0,7,0,1,,,,,,,,,,,,,
5db0e17518230d00170d4332,TCN,2024-06-24_13h56.05.543,LearnStrategy,2023.2.3,Win32,60.24096386,5,1,9,-0.009114583,0.014322917,1,0,0,2.3758,rock_grid_rect_2,6,13,-1,-1,2.376,0.42578125,-0.23828125,1,0,0,32.9964,Gabbro_rect,4,32.996,0,8,0,8,0,1,,,,,,,,,,,,,
5db0e17518230d00170d4332,TCN,2024-06-24_13h56.05.543,LearnStrategy,2023.2.3,Win32,60.24096386,5,1,10,-0.009114583,-0.01953125,1,0,0,1.3611,rock_grid_rect_2,8,04,-1,-1,1.361,0.381510417,-0.407552083,1,0,0,34.7267,Pumice_rect,8,34.727,1,9,0,9,0,1,,,,,,,,,,,,,
5db0e17518230d00170d4332,TCN,2024-06-24_13h56.05.543,LearnStrategy,2023.2.3,Win32,60.24096386,5,1,11,0.106770833,-0.014322917,1,0,0,3.0258,rock_grid_rect_2,1,06,-1,-1,3.026,0.1484375,-0.268229167,1,0,0,4.1702,Diorite_rect,3,4.17,0,10,0,10,0,1,,,,,,,,,,,,,
5db0e17518230d00170d4332,TCN,2024-06-24_13h56.05.543,LearnStrategy,2023.2.3,Win32,60.24096386,5,1,12,0.001302083,0.001302083,1,0,0,28.7864,rock_grid_rect_2,1,04,-1,-1,28.786,0.07421875,-0.415364583,1,0,0,2.898,Peridotite_rect,7,2.898,0,11,0,11,0,1,,,,,,,,,,,,,
5db0e17518230d00170d4332,TCN,2024-06-24_13h56.05.543,LearnStrategy,2023.2.3,Win32,60.24096386,5,1,13,-0.104166667,0.010416667,1,0,0,3.9234,rock_grid_rect_2,5,10,-1,-1,3.923,-0.358072917,-0.3984375,1,0,0,24.6138,Obsidian_rect,5,24.614,1,12,0,12,0,1,,,,,,,,,,,,,
5db0e17518230d00170d4332,TCN,2024-06-24_13h56.05.543,LearnStrategy,2023.2.3,Win32,60.24096386,5,1,14,-0.00390625,-0.015625,1,0,0,1.5568,rock_grid_rect_2,7,02,-1,-1,1.557,-0.333333333,-0.385416667,1,0,0,2.451,Obsidian_rect,5,2.451,0,13,0,13,0,1,,,,,,,,,,,,,
5db0e17518230d00170d4332,TCN,2024-06-24_13h56.05.543,LearnStrategy,2023.2.3,Win32,60.24096386,5,1,15,-0.067708333,-0.00390625,1,0,0,4579.4969,rock_grid_rect_2,8,05,-1,-1,4579.497,0.381510417,-0.420572917,1,0,0,1803.208,Pumice_rect,8,1803.208,1,14,0,14,0,1,,,,,,,,,,,,,
5db0e17518230d00170d4332,TCN,2024-06-24_13h56.05.543,LearnStrategy,2023.2.3,Win32,60.24096386,5,1,16,0.0234375,-0.006510417,1,0,0,6.8317,rock_grid_rect_2,4,05,-1,-1,6.832,0.033854167,-0.38671875,1,0,0,9.7982,Peridotite_rect,7,9.798,0,15,0,15,0,1,,,,,,,,,,,,,
5db0e17518230d00170d4332,TCN,2024-06-24_13h56.05.543,LearnStrategy,2023.2.3,Win32,60.24096386,5,2,1,,,,,,,,5,09,,,,,,,,,,,5,13.609,1,,,,,,-0.484375,-0.408854167,1,0,0,13.6086,Obsidian_rect,0,0,0,0,1,
5db0e17518230d00170d4332,TCN,2024-06-24_13h56.05.543,LearnStrategy,2023.2.3,Win32,60.24096386,5,2,2,,,,,,,,8,02,,,,,,,,,,,8,3.125,1,,,,,,0.333333333,-0.404947917,1,0,0,3.125,Pumice_rect,1,0,1,0,1,
5db0e17518230d00170d4332,TCN,2024-06-24_13h56.05.543,LearnStrategy,2023.2.3,Win32,60.24096386,5,2,3,,,,,,,,6,15,,,,,,,,,,,6,73.736,1,,,,,,-0.16796875,-0.393229167,1,0,0,73.7361,Pegmatite_rect,2,0,2,0,1,
5db0e17518230d00170d4332,TCN,2024-06-24_13h56.05.543,LearnStrategy,2023.2.3,Win32,60.24096386,5,2,4,,,,,,,,7,04,,,,,,,,,,,6,4.686,0,,,,,,-0.076822917,-0.412760417,1,0,0,4.6862,Pegmatite_rect,3,0,3,0,1,
5db0e17518230d00170d4332,TCN,2024-06-24_13h56.05.543,LearnStrategy,2023.2.3,Win32,60.24096386,5,2,5,,,,,,,,8,13,,,,,,,,,,,2,268.777,0,,,,,,-0.174479167,-0.234375,1,0,0,268.777,Basalt_rect,4,0,4,0,1,
5db0e17518230d00170d4332,TCN,2024-06-24_13h56.05.543,LearnStrategy,2023.2.3,Win32,60.24096386,5,2,6,,,,,,,,2,05,,,,,,,,,,,5,2.222,0,,,,,,-0.33984375,-0.411458333,1,0,0,2.2223,Obsidian_rect,5,0,5,0,1,
5db0e17518230d00170d4332,TCN,2024-06-24_13h56.05.543,LearnStrategy,2023.2.3,Win32,60.24096386,5,2,7,,,,,,,,1,01,,,,,,,,,,,1,3.682,1,,,,,,-0.330729167,-0.240885417,1,0,0,3.6821,Andesite_rect,6,0,6,0,1,
5db0e17518230d00170d4332,TCN,2024-06-24_13h56.05.543,LearnStrategy,2023.2.3,Win32,60.24096386,5,2,8,,,,,,,,6,10,,,,,,,,,,,6,1.399,1,,,,,,-0.209635417,-0.388020833,1,0,0,1.3988,Pegmatite_rect,7,0,7,0,1,
5db0e17518230d00170d4332,TCN,2024-06-24_13h56.05.543,LearnStrategy,2023.2.3,Win32,60.24096386,5,2,9,,,,,,,,7,10,,,,,,,,,,,3,11.327,0,,,,,,0.07421875,-0.231770833,1,0,0,11.327,Diorite_rect,8,0,8,0,1,
5db0e17518230d00170d4332,TCN,2024-06-24_13h56.05.543,LearnStrategy,2023.2.3,Win32,60.24096386,5,2,10,,,,,,,,1,05,,,,,,,,,,,4,9.939,0,,,,,,0.41015625,-0.247395833,1,0,0,9.9391,Gabbro_rect,9,0,9,0,1,
5db0e17518230d00170d4332,TCN,2024-06-24_13h56.05.543,LearnStrategy,2023.2.3,Win32,60.24096386,5,2,11,,,,,,,,4,11,,,,,,,,,,,6,2.682,0,,,,,,-0.108072917,-0.412760417,1,0,0,2.6817,Pegmatite_rect,10,0,10,0,1,
5db0e17518230d00170d4332,TCN,2024-06-24_13h56.05.543,LearnStrategy,2023.2.3,Win32,60.24096386,5,2,12,,,,,,,,2,06,,,,,,,,,,,5,30.497,0,,,,,,-0.421875,-0.408854167,1,0,0,30.4974,Obsidian_rect,11,0,11,0,1,
5db0e17518230d00170d4332,TCN,2024-06-24_13h56.05.543,LearnStrategy,2023.2.3,Win32,60.24096386,5,2,13,,,,,,,,4,01,,,,,,,,,,,1,31.336,0,,,,,,-0.404947917,-0.270833333,1,0,0,31.3355,Andesite_rect,12,0,12,0,1,
5db0e17518230d00170d4332,TCN,2024-06-24_13h56.05.543,LearnStrategy,2023.2.3,Win32,60.24096386,5,2,14,,,,,,,,5,11,,,,,,,,,,,5,2.592,1,,,,,,-0.416666667,-0.384114583,1,0,0,2.5923,Obsidian_rect,13,0,13,0,1,
5db0e17518230d00170d4332,TCN,2024-06-24_13h56.05.543,LearnStrategy,2023.2.3,Win32,60.24096386,5,2,15,,,,,,,,3,13,,,,,,,,,,,4,5.295,0,,,,,,0.498697917,-0.270833333,1,0,0,5.2946,Gabbro_rect,14,0,14,0,1,
5db0e17518230d00170d4332,TCN,2024-06-24_13h56.05.543,LearnStrategy,2023.2.3,Win32,60.24096386,5,2,16,,,,,,,,3,02,,,,,,,,,,,7,2.832,0,,,,,,0.059895833,-0.3984375,1,0,0,2.832,Peridotite_rect,15,0,15,0,1,
5db0e17518230d00170d4332,TCN,2024-06-24_13h56.05.543,LearnStrategy,2023.2.3,Win32,60.24096386,6,1,1,0.069010417,-0.002604167,1,0,0,1043.8392,rock_grid_rect_2,6,09,-1,-1,1043.839,-0.1875,-0.3828125,1,0,0,4.2723,Pegmatite_rect,6,4.272,1,0,0,0,0,1,,,,,,,,,,,,,
5db0e17518230d00170d4332,TCN,2024-06-24_13h56.05.543,LearnStrategy,2023.2.3,Win32,60.24096386,6,1,2,0.045572917,0.018229167,1,0,0,2.343,rock_grid_rect_2,2,10,-1,-1,2.343,-0.078125,-0.236979167,1,0,0,7.0994,Basalt_rect,2,7.099,1,1,0,1,0,1,,,,,,,,,,,,,
5db0e17518230d00170d4332,TCN,2024-06-24_13h56.05.543,LearnStrategy,2023.2.3,Win32,60.24096386,6,1,3,-0.049479167,-0.0078125,1,0,0,5.3742,rock_grid_rect_2,3,16,-1,-1,5.374,-0.427083333,-0.248697917,1,0,0,5.2895,Andesite_rect,1,5.29,0,2,0,2,0,1,,,,,,,,,,,,,
5db0e17518230d00170d4332,TCN,2024-06-24_13h56.05.543,LearnStrategy,2023.2.3,Win32,60.24096386,6,1,4,0.0078125,-0.00390625,1,0,0,8.4834,rock_grid_rect_2,6,11,-1,-1,8.483,-0.127604167,-0.415364583,1,0,0,6.4699,Pegmatite_rect,6,6.47,1,3,0,3,0,1,,,,,,,,,,,,,
5db0e17518230d00170d4332,TCN,2024-06-24_13h56.05.543,LearnStrategy,2023.2.3,Win32,60.24096386,6,1,5,0.053385417,-0.020833333,1,0,0,2.3761,rock_grid_rect_2,2,09,-1,-1,2.376,-0.170572917,-0.2421875,1,0,0,1.6065,Basalt_rect,2,1.606,1,4,0,4,0,1,,,,,,,,,,,,,
5db0e17518230d00170d4332,TCN,2024-06-24_13h56.05.543,LearnStrategy,2023.2.3,Win32,60.24096386,6,1,6,-0.057291667,-0.001302083,1,0,0,1.5948,rock_grid_rect_2,8,03,-1,-1,1.595,-0.397135417,-0.252604167,1,0,0,17.8776,Andesite_rect,1,17.878,0,5,0,5,0,1,,,,,,,,,,,,,
5db0e17518230d00170d4332,TCN,2024-06-24_13h56.05.543,LearnStrategy,2023.2.3,Win32,60.24096386,6,1,7,0.078125,-0.020833333,1,0,0,3.5261,rock_grid_rect_2,3,15,-1,-1,3.526,0.098958333,-0.239583333,1,0,0,1.971,Diorite_rect,3,1.971,1,6,0,6,0,1,,,,,,,,,,,,,
5db0e17518230d00170d4332,TCN,2024-06-24_13h56.05.543,LearnStrategy,2023.2.3,Win32,60.24096386,6,1,8,-0.055989583,-0.013020833,1,0,0,1.7107,rock_grid_rect_2,1,03,-1,-1,1.711,-0.20703125,-0.23046875,1,0,0,36.2127,Basalt_rect,2,36.213,0,7,0,7,0,1,,,,,,,,,,,,,
5db0e17518230d00170d4332,TCN,2024-06-24_13h56.05.543,LearnStrategy,2023.2.3,Win32,60.24096386,6,1,9,-0.10546875,-0.015625,1,0,0,18.4641,rock_grid_rect_2,5,08,-1,-1,18.464,-0.169270833,-0.389322917,1,0,0,4.4156,Pegmatite_rect,6,4.416,0,8,0,8,0,1,,,,,,,,,,,,,
5db0e17518230d00170d4332,TCN,2024-06-24_13h56.05.543,LearnStrategy,2023.2.3,Win32,60.24096386,6,1,10,-0.04296875,0.009114583,1,0,0,3.5598,rock_grid_rect_2,4,14,-1,-1,3.56,0.091145833,-0.233072917,1,0,0,2.9729,Diorite_rect,3,2.973,0,9,0,9,0,1,,,,,,,,,,,,,
5db0e17518230d00170d4332,TCN,2024-06-24_13h56.05.543,LearnStrategy,2023.2.3,Win32,60.24096386,6,1,11,-0.072916667,-0.01953125,1,0,0,36.6008,rock_grid_rect_2,7,12,-1,-1,36.601,0.033854167,-0.384114583,1,0,0,42.3983,Peridotite_rect,7,42.398,1,10,0,10,0,1,,,,,,,,,,,,,
5db0e17518230d00170d4332,TCN,2024-06-24_13h56.05.543,LearnStrategy,2023.2.3,Win32,60.24096386,6,1,12,-0.076822917,0.002604167,1,0,0,60.3826,rock_grid_rect_2,5,05,-1,-1,60.383,-0.23828125,-0.248697917,1,0,0,10.3111,Basalt_rect,2,10.311,0,11,0,11,0,1,,,,,,,,,,,,,
5db0e17518230d00170d4332,TCN,2024-06-24_13h56.05.543,LearnStrategy,2023.2.3,Win32,60.24096386,6,1,13,-0.115885417,0.018229167,1,0,0,1.686,rock_grid_rect_2,7,08,-1,-1,1.686,0.063802083,-0.248697917,1,0,0,3.4645,Diorite_rect,3,3.465,0,12,0,12,0,1,,,,,,,,,,,,,
5db0e17518230d00170d4332,TCN,2024-06-24_13h56.05.543,LearnStrategy,2023.2.3,Win32,60.24096386,6,1,14,-0.096354167,0.01953125,1,0,0,2.6587,rock_grid_rect_2,1,02,-1,-1,2.659,0.12109375,-0.236979167,1,0,0,185.3205,Diorite_rect,3,185.32,0,13,0,13,0,1,,,,,,,,,,,,,
5db0e17518230d00170d4332,TCN,2024-06-24_13h56.05.543,LearnStrategy,2023.2.3,Win32,60.24096386,6,1,15,0.001302083,-0.013020833,1,0,0,5.4402,rock_grid_rect_2,4,13,-1,-1,5.44,0.11328125,-0.399739583,1,0,0,10.1271,Peridotite_rect,7,10.127,0,14,0,14,0,1,,,,,,,,,,,,,
5db0e17518230d00170d4332,TCN,2024-06-24_13h56.05.543,LearnStrategy,2023.2.3,Win32,60.24096386,6,1,16,0.040364583,0.001302083,1,0,0,2.1773,rock_grid_rect_2,8,15,-1,-1,2.177,0.033854167,-0.229166667,1,0,0,1.8235,Diorite_rect,3,1.824,0,15,0,15,0,1,,,,,,,,,,,,,
5db0e17518230d00170d4332,TCN,2024-06-24_13h56.05.543,LearnStrategy,2023.2.3,Win32,60.24096386,6,2,1,,,,,,,,4,12,,,,,,,,,,,4,35.192,1,,,,,,0.381510417,-0.263020833,1,0,0,35.1919,Gabbro_rect,0,0,0,0,1,
5db0e17518230d00170d4332,TCN,2024-06-24_13h56.05.543,LearnStrategy,2023.2.3,Win32,60.24096386,6,2,2,,,,,,,,5,02,,,,,,,,,,,5,2.273,1,,,,,,-0.365885417,-0.407552083,1,0,0,2.2735,Obsidian_rect,1,0,1,0,1,
5db0e17518230d00170d4332,TCN,2024-06-24_13h56.05.543,LearnStrategy,2023.2.3,Win32,60.24096386,6,2,3,,,,,,,,7,07,,,,,,,,,,,3,4.152,0,,,,,,0.087239583,-0.266927083,1,0,0,4.1523,Diorite_rect,2,0,2,0,1,
5db0e17518230d00170d4332,TCN,2024-06-24_13h56.05.543,LearnStrategy,2023.2.3,Win32,60.24096386,6,2,4,,,,,,,,3,10,,,,,,,,,,,7,14.24,0,,,,,,0.21875,-0.37890625,1,0,0,14.2404,Peridotite_rect,3,0,3,0,1,
5db0e17518230d00170d4332,TCN,2024-06-24_13h56.05.543,LearnStrategy,2023.2.3,Win32,60.24096386,6,2,5,,,,,,,,4,10,,,,,,,,,,,4,10.64,1,,,,,,0.450520833,-0.231770833,1,0,0,10.64,Gabbro_rect,4,0,4,0,1,
5db0e17518230d00170d4332,TCN,2024-06-24_13h56.05.543,LearnStrategy,2023.2.3,Win32,60.24096386,6,2,6,,,,,,,,8,10,,,,,,,,,,,8,2.683,1,,,,,,0.364583333,-0.3828125,1,0,0,2.6831,Pumice_rect,5,0,5,0,1,
5db0e17518230d00170d4332,TCN,2024-06-24_13h56.05.543,LearnStrategy,2023.2.3,Win32,60.24096386,6,2,7,,,,,,,,7,05,,,,,,,,,,,7,58.188,1,,,,,,0.10546875,-0.411458333,1,0,0,58.1879,Peridotite_rect,6,0,6,0,1,
5db0e17518230d00170d4332,TCN,2024-06-24_13h56.05.543,LearnStrategy,2023.2.3,Win32,60.24096386,6,2,8,,,,,,,,1,11,,,,,,,,,,,5,5.159,0,,,,,,-0.315104167,-0.381510417,1,0,0,5.159,Obsidian_rect,7,0,7,0,1,
5db0e17518230d00170d4332,TCN,2024-06-24_13h56.05.543,LearnStrategy,2023.2.3,Win32,60.24096386,6,2,9,,,,,,,,5,06,,,,,,,,,,,5,1.217,1,,,,,,-0.315104167,-0.381510417,1,0,0,1.2172,Obsidian_rect,8,0,8,0,1,
5db0e17518230d00170d4332,TCN,2024-06-24_13h56.05.543,LearnStrategy,2023.2.3,Win32,60.24096386,6,2,10,,,,,,,,8,09,,,,,,,,,,,8,15.819,1,,,,,,0.470052083,-0.399739583,1,0,0,15.8193,Pumice_rect,9,0,9,0,1,
5db0e17518230d00170d4332,TCN,2024-06-24_13h56.05.543,LearnStrategy,2023.2.3,Win32,60.24096386,6,2,11,,,,,,,,1,14,,,,,,,,,,,8,1.732,0,,,,,,0.302083333,-0.389322917,1,0,0,1.7323,Pumice_rect,10,0,10,0,1,
5db0e17518230d00170d4332,TCN,2024-06-24_13h56.05.543,LearnStrategy,2023.2.3,Win32,60.24096386,6,2,12,,,,,,,,6,12,,,,,,,,,,,3,109.577,0,,,,,,0.061197917,-0.264322917,1,0,0,109.5768,Diorite_rect,11,0,11,0,1,
5db0e17518230d00170d4332,TCN,2024-06-24_13h56.05.543,LearnStrategy,2023.2.3,Win32,60.24096386,6,2,13,,,,,,,,6,05,,,,,,,,,,,3,47.815,0,,,,,,0.07421875,-0.244791667,1,0,0,47.8151,Diorite_rect,12,0,12,0,1,
5db0e17518230d00170d4332,TCN,2024-06-24_13h56.05.543,LearnStrategy,2023.2.3,Win32,60.24096386,6,2,14,,,,,,,,2,01,,,,,,,,,,,1,2.867,0,,,,,,-0.313802083,-0.25,1,0,0,2.8668,Andesite_rect,13,0,13,0,1,
5db0e17518230d00170d4332,TCN,2024-06-24_13h56.05.543,LearnStrategy,2023.2.3,Win32,60.24096386,6,2,15,,,,,,,,3,06,,,,,,,,,,,3,904.958,1,,,,,,0.080729167,-0.233072917,1,0,0,904.9584,Diorite_rect,14,0,14,0,1,
5db0e17518230d00170d4332,TCN,2024-06-24_13h56.05.543,LearnStrategy,2023.2.3,Win32,60.24096386,6,2,16,,,,,,,,2,02,,,,,,,,,,,2,0.99,1,,,,,,-0.16796875,-0.252604167,1,0,0,0.9898,Basalt_rect,15,0,15,0,1,
5db0e17518230d00170d4332,TCN,2024-06-24_13h56.05.543,LearnStrategy,2023.2.3,Win32,60.24096386,7,1,1,-0.04296875,0.018229167,1,0,0,25.9101,rock_grid_rect_2,8,04,-1,-1,25.91,0.307291667,-0.397135417,1,0,0,1.5067,Pumice_rect,8,1.507,1,0,0,0,0,1,,,,,,,,,,,,,
5db0e17518230d00170d4332,TCN,2024-06-24_13h56.05.543,LearnStrategy,2023.2.3,Win32,60.24096386,7,1,2,0.041666667,0.020833333,1,0,0,4.7507,rock_grid_rect_2,6,03,-1,-1,4.751,-0.20703125,-0.388020833,1,0,0,2.2201,Pegmatite_rect,6,2.22,1,1,0,1,0,1,,,,,,,,,,,,,
5db0e17518230d00170d4332,TCN,2024-06-24_13h56.05.543,LearnStrategy,2023.2.3,Win32,60.24096386,7,1,3,-0.055989583,-0.020833333,1,0,0,122.685,rock_grid_rect_2,2,12,-1,-1,122.685,-0.1484375,-0.25390625,1,0,0,199.109,Basalt_rect,2,199.109,1,2,0,2,0,1,,,,,,,,,,,,,
5db0e17518230d00170d4332,TCN,2024-06-24_13h56.05.543,LearnStrategy,2023.2.3,Win32,60.24096386,7,1,4,0.020833333,0.016927083,1,0,0,29.6479,rock_grid_rect_2,4,14,-1,-1,29.648,-0.359375,-0.24609375,1,0,0,3061.7229,Andesite_rect,1,3061.723,0,3,0,3,0,1,,,,,,,,,,,,,
5db0e17518230d00170d4332,TCN,2024-06-24_13h56.05.543,LearnStrategy,2023.2.3,Win32,60.24096386,7,1,5,-0.15234375,0.0078125,1,0,0,9.7211,rock_grid_rect_2,1,02,-1,-1,9.721,0.2265625,-0.420572917,1,0,0,4.5684,Peridotite_rect,7,4.568,0,4,0,4,0,1,,,,,,,,,,,,,
5db0e17518230d00170d4332,TCN,2024-06-24_13h56.05.543,LearnStrategy,2023.2.3,Win32,60.24096386,7,1,6,-0.048177083,0.0234375,1,0,0,154.8511,rock_grid_rect_2,2,10,-1,-1,154.851,-0.41015625,-0.2578125,1,0,0,23.2597,Andesite_rect,1,23.26,0,5,0,5,0,1,,,,,,,,,,,,,
5db0e17518230d00170d4332,TCN,2024-06-24_13h56.05.543,LearnStrategy,2023.2.3,Win32,60.24096386,7,1,7,-0.053385417,-0.01171875,1,0,0,35.6147,rock_grid_rect_2,7,15,-1,-1,35.615,0.05078125,-0.240885417,1,0,0,1.8789,Diorite_rect,3,1.879,0,6,0,6,0,1,,,,,,,,,,,,,
5db0e17518230d00170d4332,TCN,2024-06-24_13h56.05.543,LearnStrategy,2023.2.3,Win32,60.24096386,7,1,8,0.040364583,-0.015625,1,0,0,5.0925,rock_grid_rect_2,7,14,-1,-1,5.093,0.407552083,-0.265625,1,0,0,8.6469,Gabbro_rect,4,8.647,0,7,0,7,0,1,,,,,,,,,,,,,
5db0e17518230d00170d4332,TCN,2024-06-24_13h56.05.543,LearnStrategy,2023.2.3,Win32,60.24096386,7,1,9,-0.131510417,0.016927083,1,0,0,65.4782,rock_grid_rect_2,3,15,-1,-1,65.478,-0.0390625,-0.407552083,1,0,0,9.0307,Pegmatite_rect,6,9.031,0,8,0,8,0,1,,,,,,,,,,,,,
5db0e17518230d00170d4332,TCN,2024-06-24_13h56.05.543,LearnStrategy,2023.2.3,Win32,60.24096386,7,1,10,0.0234375,-0.014322917,1,0,0,3.8165,rock_grid_rect_2,8,15,-1,-1,3.817,0.063802083,-0.265625,1,0,0,3.6557,Diorite_rect,3,3.656,0,9,0,9,0,1,,,,,,,,,,,,,
5db0e17518230d00170d4332,TCN,2024-06-24_13h56.05.543,LearnStrategy,2023.2.3,Win32,60.24096386,7,1,11,0.114583333,0.0234375,1,0,0,53.3709,rock_grid_rect_2,5,10,-1,-1,53.371,-0.184895833,-0.244791667,1,0,0,2.3237,Basalt_rect,2,2.324,0,10,0,10,0,1,,,,,,,,,,,,,
5db0e17518230d00170d4332,TCN,2024-06-24_13h56.05.543,LearnStrategy,2023.2.3,Win32,60.24096386,7,1,12,0.118489583,0.015625,1,0,0,42.5695,rock_grid_rect_2,3,11,-1,-1,42.57,0.100260417,-0.235677083,1,0,0,4.4947,Diorite_rect,3,4.495,1,11,0,11,0,1,,,,,,,,,,,,,
5db0e17518230d00170d4332,TCN,2024-06-24_13h56.05.543,LearnStrategy,2023.2.3,Win32,60.24096386,7,1,13,-0.16796875,0.016927083,1,0,0,2.4695,rock_grid_rect_2,5,04,-1,-1,2.47,-0.416666667,-0.40234375,1,0,0,3.5778,Obsidian_rect,5,3.578,1,12,0,12,0,1,,,,,,,,,,,,,
5db0e17518230d00170d4332,TCN,2024-06-24_13h56.05.543,LearnStrategy,2023.2.3,Win32,60.24096386,7,1,14,-0.098958333,-0.020833333,1,0,0,1.9939,rock_grid_rect_2,4,08,-1,-1,1.994,0.173177083,-0.243489583,1,0,0,42.8864,Diorite_rect,3,42.886,0,13,0,13,0,1,,,,,,,,,,,,,
5db0e17518230d00170d4332,TCN,2024-06-24_13h56.05.543,LearnStrategy,2023.2.3,Win32,60.24096386,7,1,15,-0.009114583,0,1,0,0,1.5118,rock_grid_rect_2,1,06,-1,-1,1.512,-0.072916667,-0.268229167,1,0,0,4.1421,Basalt_rect,2,4.142,0,14,0,14,0,1,,,,,,,,,,,,,
5db0e17518230d00170d4332,TCN,2024-06-24_13h56.05.543,LearnStrategy,2023.2.3,Win32,60.24096386,7,1,16,-0.0234375,-0.009114583,1,0,0,2.0457,rock_grid_rect_2,6,09,-1,-1,2.046,-0.188802083,-0.397135417,1,0,0,3.7706,Pegmatite_rect,6,3.771,1,15,0,15,0,1,,,,,,,,,,,,,
5db0e17518230d00170d4332,TCN,2024-06-24_13h56.05.543,LearnStrategy,2023.2.3,Win32,60.24096386,7,2,1,,,,,,,,7,04,,,,,,,,,,,6,1.96,0,,,,,,-0.114583333,-0.416666667,1,0,0,1.9597,Pegmatite_rect,0,0,0,0,1,
5db0e17518230d00170d4332,TCN,2024-06-24_13h56.05.543,LearnStrategy,2023.2.3,Win32,60.24096386,7,2,2,,,,,,,,2,14,,,,,,,,,,,8,14.232,0,,,,,,0.359375,-0.415364583,1,0,0,14.2316,Pumice_rect,1,0,1,0,1,
5db0e17518230d00170d4332,TCN,2024-06-24_13h56.05.543,LearnStrategy,2023.2.3,Win32,60.24096386,7,2,3,,,,,,,,7,13,,,,,,,,,,,1,13.359,0,,,,,,-0.345052083,-0.25,1,0,0,13.3591,Andesite_rect,2,0,2,0,1,
5db0e17518230d00170d4332,TCN,2024-06-24_13h56.05.543,LearnStrategy,2023.2.3,Win32,60.24096386,7,2,4,,,,,,,,5,11,,,,,,,,,,,5,1.685,1,,,,,,-0.454427083,-0.420572917,1,0,0,1.6854,Obsidian_rect,3,0,3,0,1,
5db0e17518230d00170d4332,TCN,2024-06-24_13h56.05.543,LearnStrategy,2023.2.3,Win32,60.24096386,7,2,5,,,,,,,,3,02,,,,,,,,,,,5,3.183,0,,,,,,-0.348958333,-0.408854167,1,0,0,3.1834,Obsidian_rect,4,0,4,0,1,
5db0e17518230d00170d4332,TCN,2024-06-24_13h56.05.543,LearnStrategy,2023.2.3,Win32,60.24096386,7,2,6,,,,,,,,6,16,,,,,,,,,,,6,3.447,1,,,,,,-0.111979167,-0.421875,1,0,0,3.4467,Pegmatite_rect,5,0,5,0,1,
5db0e17518230d00170d4332,TCN,2024-06-24_13h56.05.543,LearnStrategy,2023.2.3,Win32,60.24096386,7,2,7,,,,,,,,8,16,,,,,,,,,,,2,1.852,0,,,,,,-0.09765625,-0.240885417,1,0,0,1.8518,Basalt_rect,6,0,6,0,1,
5db0e17518230d00170d4332,TCN,2024-06-24_13h56.05.543,LearnStrategy,2023.2.3,Win32,60.24096386,7,2,8,,,,,,,,8,08,,,,,,,,,,,8,7.594,1,,,,,,0.303385417,-0.391927083,1,0,0,7.5938,Pumice_rect,7,0,7,0,1,
5db0e17518230d00170d4332,TCN,2024-06-24_13h56.05.543,LearnStrategy,2023.2.3,Win32,60.24096386,7,2,9,,,,,,,,1,10,,,,,,,,,,,8,16.148,0,,,,,,0.309895833,-0.4140625,1,0,0,16.1483,Pumice_rect,8,0,8,0,1,
5db0e17518230d00170d4332,TCN,2024-06-24_13h56.05.543,LearnStrategy,2023.2.3,Win32,60.24096386,7,2,10,,,,,,,,5,06,,,,,,,,,,,5,2.205,1,,,,,,-0.311197917,-0.40625,1,0,0,2.2053,Obsidian_rect,9,0,9,0,1,
5db0e17518230d00170d4332,TCN,2024-06-24_13h56.05.543,LearnStrategy,2023.2.3,Win32,60.24096386,7,2,11,,,,,,,,4,16,,,,,,,,,,,2,4.272,0,,,,,,-0.217447917,-0.264322917,1,0,0,4.2716,Basalt_rect,10,0,10,0,1,
5db0e17518230d00170d4332,TCN,2024-06-24_13h56.05.543,LearnStrategy,2023.2.3,Win32,60.24096386,7,2,12,,,,,,,,3,08,,,,,,,,,,,1,2.862,0,,,,,,-0.369791667,-0.266927083,1,0,0,2.8622,Andesite_rect,11,0,11,0,1,
5db0e17518230d00170d4332,TCN,2024-06-24_13h56.05.543,LearnStrategy,2023.2.3,Win32,60.24096386,7,2,13,,,,,,,,2,05,,,,,,,,,,,3,26.246,0,,,,,,0.075520833,-0.2578125,1,0,0,26.2461,Diorite_rect,12,0,12,0,1,
5db0e17518230d00170d4332,TCN,2024-06-24_13h56.05.543,LearnStrategy,2023.2.3,Win32,60.24096386,7,2,14,,,,,,,,1,05,,,,,,,,,,,1,2.569,1,,,,,,-0.420572917,-0.263020833,1,0,0,2.5689,Andesite_rect,13,0,13,0,1,
5db0e17518230d00170d4332,TCN,2024-06-24_13h56.05.543,LearnStrategy,2023.2.3,Win32,60.24096386,7,2,15,,,,,,,,4,15,,,,,,,,,,,4,2.674,1,,,,,,0.384114583,-0.256510417,1,0,0,2.6737,Gabbro_rect,14,0,14,0,1,
5db0e17518230d00170d4332,TCN,2024-06-24_13h56.05.543,LearnStrategy,2023.2.3,Win32,60.24096386,7,2,16,,,,,,,,6,07,,,,,,,,,,,6,1.294,1,,,,,,-0.153645833,-0.416666667,1,0,0,1.294,Pegmatite_rect,15,0,15,0,1,
5db0e17518230d00170d4332,TCN,2024-06-24_13h56.05.543,LearnStrategy,2023.2.3,Win32,60.24096386,8,1,1,0.079427083,-0.00390625,1,0,0,1.911,rock_grid_rect_2,6,13,-1,-1,1.911,-0.141927083,-0.40625,1,0,0,2.5085,Pegmatite_rect,6,2.508,1,0,0,0,0,1,,,,,,,,,,,,,
5db0e17518230d00170d4332,TCN,2024-06-24_13h56.05.543,LearnStrategy,2023.2.3,Win32,60.24096386,8,1,2,-0.040364583,-0.016927083,1,0,0,1.5774,rock_grid_rect_2,5,07,-1,-1,1.577,-0.3828125,-0.388020833,1,0,0,2.8868,Obsidian_rect,5,2.887,1,1,0,1,0,1,,,,,,,,,,,,,
5db0e17518230d00170d4332,TCN,2024-06-24_13h56.05.543,LearnStrategy,2023.2.3,Win32,60.24096386,8,1,3,-0.126302083,-0.013020833,1,0,0,2.0262,rock_grid_rect_2,2,16,-1,-1,2.026,0.346354167,-0.247395833,1,0,0,4.4285,Gabbro_rect,4,4.428,0,2,0,2,0,1,,,,,,,,,,,,,
5db0e17518230d00170d4332,TCN,2024-06-24_13h56.05.543,LearnStrategy,2023.2.3,Win32,60.24096386,8,1,4,-0.03125,0.01171875,1,0,0,1.6259,rock_grid_rect_2,3,07,-1,-1,1.626,-0.33203125,-0.234375,1,0,0,2.2856,Andesite_rect,1,2.286,0,3,0,3,0,1,,,,,,,,,,,,,
5db0e17518230d00170d4332,TCN,2024-06-24_13h56.05.543,LearnStrategy,2023.2.3,Win32,60.24096386,8,1,5,-0.104166667,0,1,0,0,3.2425,rock_grid_rect_2,1,07,-1,-1,3.242,0.1484375,-0.3984375,1,0,0,4.5274,Peridotite_rect,7,4.527,0,4,0,4,0,1,,,,,,,,,,,,,
5db0e17518230d00170d4332,TCN,2024-06-24_13h56.05.543,LearnStrategy,2023.2.3,Win32,60.24096386,8,1,6,-0.005208333,-0.022135417,1,0,0,2.559,rock_grid_rect_2,4,09,-1,-1,2.559,-0.384114583,-0.385416667,1,0,0,4.8669,Obsidian_rect,5,4.867,0,5,0,5,0,1,,,,,,,,,,,,,
5db0e17518230d00170d4332,TCN,2024-06-24_13h56.05.543,LearnStrategy,2023.2.3,Win32,60.24096386,8,1,7,-0.022135417,0.010416667,1,0,0,2.9754,rock_grid_rect_2,2,08,-1,-1,2.975,-0.194010417,-0.239583333,1,0,0,17.8283,Basalt_rect,2,17.828,1,6,0,6,0,1,,,,,,,,,,,,,
5db0e17518230d00170d4332,TCN,2024-06-24_13h56.05.543,LearnStrategy,2023.2.3,Win32,60.24096386,8,1,8,-0.153645833,-0.014322917,1,0,0,1.4095,rock_grid_rect_2,8,14,-1,-1,1.409,0.348958333,-0.415364583,1,0,0,2.641,Pumice_rect,8,2.641,1,7,0,7,0,1,,,,,,,,,,,,,
5db0e17518230d00170d4332,TCN,2024-06-24_13h56.05.543,LearnStrategy,2023.2.3,Win32,60.24096386,8,1,9,-0.130208333,-0.015625,1,0,0,3.7587,rock_grid_rect_2,4,13,-1,-1,3.759,0.486979167,-0.270833333,1,0,0,1.697,Gabbro_rect,4,1.697,1,8,0,8,0,1,,,,,,,,,,,,,
5db0e17518230d00170d4332,TCN,2024-06-24_13h56.05.543,LearnStrategy,2023.2.3,Win32,60.24096386,8,1,10,-0.088541667,0.0234375,1,0,0,3.7596,rock_grid_rect_2,7,12,-1,-1,3.76,0.08203125,-0.259114583,1,0,0,4.877,Diorite_rect,3,4.877,0,9,0,9,0,1,,,,,,,,,,,,,
5db0e17518230d00170d4332,TCN,2024-06-24_13h56.05.543,LearnStrategy,2023.2.3,Win32,60.24096386,8,1,11,-0.100260417,-0.0078125,1,0,0,3.0591,rock_grid_rect_2,8,03,-1,-1,3.059,0.369791667,-0.404947917,1,0,0,1.9005,Pumice_rect,8,1.9,1,10,0,10,0,1,,,,,,,,,,,,,
5db0e17518230d00170d4332,TCN,2024-06-24_13h56.05.543,LearnStrategy,2023.2.3,Win32,60.24096386,8,1,12,-0.029947917,0.00390625,1,0,0,1.3612,rock_grid_rect_2,5,05,-1,-1,1.361,-0.32421875,-0.407552083,1,0,0,3.471,Obsidian_rect,5,3.471,1,11,0,11,0,1,,,,,,,,,,,,,
5db0e17518230d00170d4332,TCN,2024-06-24_13h56.05.543,LearnStrategy,2023.2.3,Win32,60.24096386,8,1,13,-0.076822917,0.020833333,1,0,0,5.2744,rock_grid_rect_2,3,16,-1,-1,5.274,0.029947917,-0.236979167,1,0,0,2.628,Diorite_rect,3,2.628,1,12,0,12,0,1,,,,,,,,,,,,,
5db0e17518230d00170d4332,TCN,2024-06-24_13h56.05.543,LearnStrategy,2023.2.3,Win32,60.24096386,8,1,14,-0.098958333,-0.0078125,1,0,0,24.1402,rock_grid_rect_2,6,06,-1,-1,24.14,-0.157552083,-0.41796875,1,0,0,1.9633,Pegmatite_rect,6,1.963,1,13,0,13,0,1,,,,,,,,,,,,,
5db0e17518230d00170d4332,TCN,2024-06-24_13h56.05.543,LearnStrategy,2023.2.3,Win32,60.24096386,8,1,15,-0.045572917,-0.016927083,1,0,0,1.2774,rock_grid_rect_2,7,02,-1,-1,1.277,0.350260417,-0.23046875,1,0,0,3.4873,Gabbro_rect,4,3.487,0,14,0,14,0,1,,,,,,,,,,,,,
5db0e17518230d00170d4332,TCN,2024-06-24_13h56.05.543,LearnStrategy,2023.2.3,Win32,60.24096386,8,1,16,-0.079427083,-0.024739583,1,0,0,2.5918,rock_grid_rect_2,1,04,-1,-1,2.592,-0.390625,-0.233072917,1,0,0,3.6773,Andesite_rect,1,3.677,1,15,0,15,0,1,,,,,,,,,,,,,
5db0e17518230d00170d4332,TCN,2024-06-24_13h56.05.543,LearnStrategy,2023.2.3,Win32,60.24096386,8,2,1,,,,,,,,3,10,,,,,,,,,,,4,7.915,0,,,,,,0.328125,-0.25390625,1,0,0,7.9149,Gabbro_rect,0,0,0,0,1,
5db0e17518230d00170d4332,TCN,2024-06-24_13h56.05.543,LearnStrategy,2023.2.3,Win32,60.24096386,8,2,2,,,,,,,,6,10,,,,,,,,,,,6,1.699,1,,,,,,-0.145833333,-0.403645833,1,0,0,1.6985,Pegmatite_rect,1,0,1,0,1,
5db0e17518230d00170d4332,TCN,2024-06-24_13h56.05.543,LearnStrategy,2023.2.3,Win32,60.24096386,8,2,3,,,,,,,,2,06,,,,,,,,,,,5,2.759,0,,,,,,-0.37890625,-0.41015625,1,0,0,2.7591,Obsidian_rect,2,0,2,0,1,
5db0e17518230d00170d4332,TCN,2024-06-24_13h56.05.543,LearnStrategy,2023.2.3,Win32,60.24096386,8,2,4,,,,,,,,1,16,,,,,,,,,,,1,1.798,1,,,,,,-0.329427083,-0.268229167,1,0,0,1.7979,Andesite_rect,3,0,3,0,1,
5db0e17518230d00170d4332,TCN,2024-06-24_13h56.05.543,LearnStrategy,2023.2.3,Win32,60.24096386,8,2,5,,,,,,,,5,12,,,,,,,,,,,5,2.666,1,,,,,,-0.390625,-0.39453125,1,0,0,2.6663,Obsidian_rect,4,0,4,0,1,
5db0e17518230d00170d4332,TCN,2024-06-24_13h56.05.543,LearnStrategy,2023.2.3,Win32,60.24096386,8,2,6,,,,,,,,7,07,,,,,,,,,,,3,5.691,0,,,,,,0.055989583,-0.239583333,1,0,0,5.6907,Diorite_rect,5,0,5,0,1,
5db0e17518230d00170d4332,TCN,2024-06-24_13h56.05.543,LearnStrategy,2023.2.3,Win32,60.24096386,8,2,7,,,,,,,,7,10,,,,,,,,,,,1,2.5,0,,,,,,-0.36328125,-0.270833333,1,0,0,2.5,Andesite_rect,6,0,6,0,1,
5db0e17518230d00170d4332,TCN,2024-06-24_13h56.05.543,LearnStrategy,2023.2.3,Win32,60.24096386,8,2,8,,,,,,,,8,10,,,,,,,,,,,8,4.238,1,,,,,,0.321614583,-0.399739583,1,0,0,4.2375,Pumice_rect,7,0,7,0,1,
5db0e17518230d00170d4332,TCN,2024-06-24_13h56.05.543,LearnStrategy,2023.2.3,Win32,60.24096386,8,2,9,,,,,,,,5,14,,,,,,,,,,,5,1.899,1,,,,,,-0.390625,-0.40234375,1,0,0,1.8989,Obsidian_rect,8,0,8,0,1,
5db0e17518230d00170d4332,TCN,2024-06-24_13h56.05.543,LearnStrategy,2023.2.3,Win32,60.24096386,8,2,10,,,,,,,,4,12,,,,,,,,,,,3,1.841,0,,,,,,0.05859375,-0.247395833,1,0,0,1.8408,Diorite_rect,9,0,9,0,1,
5db0e17518230d00170d4332,TCN,2024-06-24_13h56.05.543,LearnStrategy,2023.2.3,Win32,60.24096386,8,2,11,,,,,,,,1,14,,,,,,,,,,,6,23.832,0,,,,,,-0.10546875,-0.390625,1,0,0,23.832,Pegmatite_rect,10,0,10,0,1,
5db0e17518230d00170d4332,TCN,2024-06-24_13h56.05.543,LearnStrategy,2023.2.3,Win32,60.24096386,8,2,12,,,,,,,,4,10,,,,,,,,,,,3,1.053,0,,,,,,0.1640625,-0.235677083,1,0,0,1.053,Diorite_rect,11,0,11,0,1,
5db0e17518230d00170d4332,TCN,2024-06-24_13h56.05.543,LearnStrategy,2023.2.3,Win32,60.24096386,8,2,13,,,,,,,,3,12,,,,,,,,,,,2,0.869,0,,,,,,-0.151041667,-0.255208333,1,0,0,0.8687,Basalt_rect,12,0,12,0,1,
5db0e17518230d00170d4332,TCN,2024-06-24_13h56.05.543,LearnStrategy,2023.2.3,Win32,60.24096386,8,2,14,,,,,,,,2,01,,,,,,,,,,,5,1.462,0,,,,,,-0.4765625,-0.388020833,1,0,0,1.4625,Obsidian_rect,13,0,13,0,1,
5db0e17518230d00170d4332,TCN,2024-06-24_13h56.05.543,LearnStrategy,2023.2.3,Win32,60.24096386,8,2,15,,,,,,,,8,02,,,,,,,,,,,8,3.14,1,,,,,,0.37109375,-0.399739583,1,0,0,3.1402,Pumice_rect,14,0,14,0,1,
5db0e17518230d00170d4332,TCN,2024-06-24_13h56.05.543,LearnStrategy,2023.2.3,Win32,60.24096386,8,2,16,,,,,,,,6,05,,,,,,,,,,,4,6.442,0,,,,,,0.385416667,-0.23046875,1,0,0,6.4423,Gabbro_rect,15,0,15,0,1,
5db0e17518230d00170d4332,TCN,2024-06-24_13h56.05.543,LearnStrategy,2023.2.3,Win32,60.24096386,9,1,1,0.00390625,-0.002604167,1,0,0,2.3127,rock_grid_rect_2,5,08,-1,-1,2.313,-0.428385417,-0.404947917,1,0,0,3.5066,Obsidian_rect,5,3.507,1,0,0,0,0,1,,,,,,,,,,,,,
5db0e17518230d00170d4332,TCN,2024-06-24_13h56.05.543,LearnStrategy,2023.2.3,Win32,60.24096386,9,1,2,-0.130208333,0.00390625,1,0,0,1.1286,rock_grid_rect_2,3,09,-1,-1,1.129,0.059895833,-0.240885417,1,0,0,2.2066,Diorite_rect,3,2.207,1,1,0,1,0,1,,,,,,,,,,,,,
5db0e17518230d00170d4332,TCN,2024-06-24_13h56.05.543,LearnStrategy,2023.2.3,Win32,60.24096386,9,1,3,-0.075520833,0.015625,1,0,0,1.5606,rock_grid_rect_2,6,11,-1,-1,1.561,-0.177083333,-0.388020833,1,0,0,3.1969,Pegmatite_rect,6,3.197,1,2,0,2,0,1,,,,,,,,,,,,,
5db0e17518230d00170d4332,TCN,2024-06-24_13h56.05.543,LearnStrategy,2023.2.3,Win32,60.24096386,9,1,4,-0.078125,-0.013020833,1,0,0,1.4096,rock_grid_rect_2,8,06,-1,-1,1.41,0.381510417,-0.421875,1,0,0,2.8581,Pumice_rect,8,2.858,1,3,0,3,0,1,,,,,,,,,,,,,
5db0e17518230d00170d4332,TCN,2024-06-24_13h56.05.543,LearnStrategy,2023.2.3,Win32,60.24096386,9,1,5,-0.032552083,-0.00390625,1,0,0,1.6094,rock_grid_rect_2,4,05,-1,-1,1.609,0.4296875,-0.260416667,1,0,0,1.6545,Gabbro_rect,4,1.655,1,4,0,4,0,1,,,,,,,,,,,,,
5db0e17518230d00170d4332,TCN,2024-06-24_13h56.05.543,LearnStrategy,2023.2.3,Win32,60.24096386,9,1,6,-0.109375,0,1,0,0,1.6267,rock_grid_rect_2,4,03,-1,-1,1.627,0.09375,-0.23046875,1,0,0,5.1766,Diorite_rect,3,5.177,0,5,0,5,0,1,,,,,,,,,,,,,
5db0e17518230d00170d4332,TCN,2024-06-24_13h56.05.543,LearnStrategy,2023.2.3,Win32,60.24096386,9,1,7,-0.10546875,-0.016927083,1,0,0,1.5608,rock_grid_rect_2,1,03,-1,-1,1.561,-0.442708333,-0.229166667,1,0,0,4.2679,Andesite_rect,1,4.268,1,6,0,6,0,1,,,,,,,,,,,,,
5db0e17518230d00170d4332,TCN,2024-06-24_13h56.05.543,LearnStrategy,2023.2.3,Win32,60.24096386,9,1,8,-0.166666667,-0.018229167,1,0,0,2.2437,rock_grid_rect_2,7,06,-1,-1,2.244,0.102864583,-0.243489583,1,0,0,16.4182,Diorite_rect,3,16.418,0,7,0,7,0,1,,,,,,,,,,,,,
5db0e17518230d00170d4332,TCN,2024-06-24_13h56.05.543,LearnStrategy,2023.2.3,Win32,60.24096386,9,1,9,-0.104166667,-0.013020833,1,0,0,1.8438,rock_grid_rect_2,3,14,-1,-1,1.844,-0.138020833,-0.41796875,1,0,0,2.1611,Pegmatite_rect,6,2.161,0,8,0,8,0,1,,,,,,,,,,,,,
5db0e17518230d00170d4332,TCN,2024-06-24_13h56.05.543,LearnStrategy,2023.2.3,Win32,60.24096386,9,1,10,-0.0859375,0,1,0,0,1.3436,rock_grid_rect_2,2,09,-1,-1,1.344,-0.178385417,-0.240885417,1,0,0,2.5952,Basalt_rect,2,2.595,1,9,0,9,0,1,,,,,,,,,,,,,
5db0e17518230d00170d4332,TCN,2024-06-24_13h56.05.543,LearnStrategy,2023.2.3,Win32,60.24096386,9,1,11,-0.049479167,0.01171875,1,0,0,1.4455,rock_grid_rect_2,8,05,-1,-1,1.445,0.375,-0.37890625,1,0,0,1.4783,Pumice_rect,8,1.478,1,10,0,10,0,1,,,,,,,,,,,,,
5db0e17518230d00170d4332,TCN,2024-06-24_13h56.05.543,LearnStrategy,2023.2.3,Win32,60.24096386,9,1,12,-0.106770833,0.009114583,1,0,0,1.7094,rock_grid_rect_2,1,09,-1,-1,1.709,-0.1953125,-0.244791667,1,0,0,4.5968,Basalt_rect,2,4.597,0,11,0,11,0,1,,,,,,,,,,,,,
5db0e17518230d00170d4332,TCN,2024-06-24_13h56.05.543,LearnStrategy,2023.2.3,Win32,60.24096386,9,1,13,-0.013020833,-0.01171875,1,0,0,1.2755,rock_grid_rect_2,2,04,-1,-1,1.275,-0.321614583,-0.416666667,1,0,0,1.976,Obsidian_rect,5,1.976,0,12,0,12,0,1,,,,,,,,,,,,,
5db0e17518230d00170d4332,TCN,2024-06-24_13h56.05.543,LearnStrategy,2023.2.3,Win32,60.24096386,9,1,14,-0.014322917,0.00390625,1,0,0,2.0091,rock_grid_rect_2,7,08,-1,-1,2.009,0.3125,-0.240885417,1,0,0,12.0869,Gabbro_rect,4,12.087,0,13,0,13,0,1,,,,,,,,,,,,,
5db0e17518230d00170d4332,TCN,2024-06-24_13h56.05.543,LearnStrategy,2023.2.3,Win32,60.24096386,9,1,15,-0.05078125,0.00390625,1,0,0,1.4913,rock_grid_rect_2,6,08,-1,-1,1.491,-0.134114583,-0.411458333,1,0,0,1.5011,Pegmatite_rect,6,1.501,1,14,0,14,0,1,,,,,,,,,,,,,
5db0e17518230d00170d4332,TCN,2024-06-24_13h56.05.543,LearnStrategy,2023.2.3,Win32,60.24096386,9,1,16,-0.109375,0.006510417,1,0,0,1.343,rock_grid_rect_2,5,16,-1,-1,1.343,-0.352864583,-0.395833333,1,0,0,2.1387,Obsidian_rect,5,2.139,1,15,0,15,0,1,,,,,,,,,,,,,
5db0e17518230d00170d4332,TCN,2024-06-24_13h56.05.543,LearnStrategy,2023.2.3,Win32,60.24096386,9,2,1,,,,,,,,1,11,,,,,,,,,,,4,3.905,0,,,,,,0.346354167,-0.255208333,1,0,0,3.9047,Gabbro_rect,0,0,0,0,1,
5db0e17518230d00170d4332,TCN,2024-06-24_13h56.05.543,LearnStrategy,2023.2.3,Win32,60.24096386,9,2,2,,,,,,,,8,09,,,,,,,,,,,8,2.793,1,,,,,,0.391927083,-0.411458333,1,0,0,2.7935,Pumice_rect,1,0,1,0,1,
5db0e17518230d00170d4332,TCN,2024-06-24_13h56.05.543,LearnStrategy,2023.2.3,Win32,60.24096386,9,2,3,,,,,,,,6,15,,,,,,,,,,,6,1.092,1,,,,,,-0.1015625,-0.3828125,1,0,0,1.0925,Pegmatite_rect,2,0,2,0,1,
5db0e17518230d00170d4332,TCN,2024-06-24_13h56.05.543,LearnStrategy,2023.2.3,Win32,60.24096386,9,2,4,,,,,,,,3,13,,,,,,,,,,,4,1.66,0,,,,,,0.364583333,-0.23046875,1,0,0,1.6597,Gabbro_rect,3,0,3,0,1,
5db0e17518230d00170d4332,TCN,2024-06-24_13h56.05.543,LearnStrategy,2023.2.3,Win32,60.24096386,9,2,5,,,,,,,,4,11,,,,,,,,,,,2,1.879,0,,,,,,-0.091145833,-0.255208333,1,0,0,1.8789,Basalt_rect,4,0,4,0,1,
5db0e17518230d00170d4332,TCN,2024-06-24_13h56.05.543,LearnStrategy,2023.2.3,Win32,60.24096386,9,2,6,,,,,,,,3,06,,,,,,,,,,,1,20.484,0,,,,,,-0.40234375,-0.263020833,1,0,0,20.4837,Andesite_rect,5,0,5,0,1,
5db0e17518230d00170d4332,TCN,2024-06-24_13h56.05.543,LearnStrategy,2023.2.3,Win32,60.24096386,9,2,7,,,,,,,,6,12,,,,,,,,,,,3,8.736,0,,,,,,0.1015625,-0.270833333,1,0,0,8.7358,Diorite_rect,6,0,6,0,1,
5db0e17518230d00170d4332,TCN,2024-06-24_13h56.05.543,LearnStrategy,2023.2.3,Win32,60.24096386,9,2,8,,,,,,,,1,01,,,,,,,,,,,2,2.927,0,,,,,,-0.154947917,-0.265625,1,0,0,2.9266,Basalt_rect,7,0,7,0,1,
5db0e17518230d00170d4332,TCN,2024-06-24_13h56.05.543,LearnStrategy,2023.2.3,Win32,60.24096386,9,2,9,,,,,,,,2,02,,,,,,,,,,,2,2.538,1,,,,,,-0.15234375,-0.266927083,1,0,0,2.5378,Basalt_rect,8,0,8,0,1,
5db0e17518230d00170d4332,TCN,2024-06-24_13h56.05.543,LearnStrategy,2023.2.3,Win32,60.24096386,9,2,10,,,,,,,,5,09,,,,,,,,,,,6,1.442,0,,,,,,-0.192708333,-0.411458333,1,0,0,1.4421,Pegmatite_rect,9,0,9,0,1,
5db0e17518230d00170d4332,TCN,2024-06-24_13h56.05.543,LearnStrategy,2023.2.3,Win32,60.24096386,9,2,11,,,,,,,,7,16,,,,,,,,,,,1,21.734,0,,,,,,-0.395833333,-0.235677083,1,0,0,21.7341,Andesite_rect,10,0,10,0,1,
5db0e17518230d00170d4332,TCN,2024-06-24_13h56.05.543,LearnStrategy,2023.2.3,Win32,60.24096386,9,2,12,,,,,,,,8,13,,,,,,,,,,,8,1.464,1,,,,,,0.454427083,-0.40625,1,0,0,1.4637,Pumice_rect,11,0,11,0,1,
5db0e17518230d00170d4332,TCN,2024-06-24_13h56.05.543,LearnStrategy,2023.2.3,Win32,60.24096386,9,2,13,,,,,,,,2,11,,,,,,,,,,,8,2.929,0,,,,,,0.345052083,-0.37890625,1,0,0,2.9293,Pumice_rect,12,0,12,0,1,
5db0e17518230d00170d4332,TCN,2024-06-24_13h56.05.543,LearnStrategy,2023.2.3,Win32,60.24096386,9,2,14,,,,,,,,5,02,,,,,,,,,,,5,1.678,1,,,,,,-0.42578125,-0.404947917,1,0,0,1.6785,Obsidian_rect,13,0,13,0,1,
5db0e17518230d00170d4332,TCN,2024-06-24_13h56.05.543,LearnStrategy,2023.2.3,Win32,60.24096386,9,2,15,,,,,,,,7,05,,,,,,,,,,,1,2.962,0,,,,,,-0.450520833,-0.23828125,1,0,0,2.9622,Andesite_rect,14,0,14,0,1,
5db0e17518230d00170d4332,TCN,2024-06-24_13h56.05.543,LearnStrategy,2023.2.3,Win32,60.24096386,9,2,16,,,,,,,,4,01,,,,,,,,,,,3,1.357,0,,,,,,0.11328125,-0.243489583,1,0,0,1.3568,Diorite_rect,15,0,15,0,1,
5db0e17518230d00170d4332,TCN,2024-06-24_13h56.05.543,LearnStrategy,2023.2.3,Win32,60.24096386,,,,,,,,,,,,,,,,,,,,,,,,,,,,,,,,,,,,,,,,,,,0
5db0e17518230d00170d4332,TCN,2024-06-24_13h56.05.543,LearnStrategy,2023.2.3,Win32,60.24096386,,,,,,,,,,,,,,,,,,,,,,,,,,,,,,,,,,,,,,,,,,,
5db0e17518230d00170d4332,TCN,2024-06-24_13h56.05.543,LearnStrategy,2023.2.3,Win32,60.24096386,,,,,,,,,,,8,06,1,1,,,,,,,,,,,,,,,,,,,,,,,,,,,,,
5db0e17518230d00170d4332,TCN,2024-06-24_13h56.05.543,LearnStrategy,2023.2.3,Win32,60.24096386,,,,,,,,,,,3,09,1,2,,,,,,,,,,,,,,,,,,,,,,,,,,,,,
5db0e17518230d00170d4332,TCN,2024-06-24_13h56.05.543,LearnStrategy,2023.2.3,Win32,60.24096386,,,,,,,,,,,6,09,1,3,,,,,,,,,,,,,,,,,,,,,,,,,,,,,
5db0e17518230d00170d4332,TCN,2024-06-24_13h56.05.543,LearnStrategy,2023.2.3,Win32,60.24096386,,,,,,,,,,,2,12,1,4,,,,,,,,,,,,,,,,,,,,,,,,,,,,,
5db0e17518230d00170d4332,TCN,2024-06-24_13h56.05.543,LearnStrategy,2023.2.3,Win32,60.24096386,,,,,,,,,,,5,10,1,5,,,,,,,,,,,,,,,,,,,,,,,,,,,,,
5db0e17518230d00170d4332,TCN,2024-06-24_13h56.05.543,LearnStrategy,2023.2.3,Win32,60.24096386,,,,,,,,,,,3,07,1,6,,,,,,,,,,,,,,,,,,,,,,,,,,,,,
5db0e17518230d00170d4332,TCN,2024-06-24_13h56.05.543,LearnStrategy,2023.2.3,Win32,60.24096386,,,,,,,,,,,6,11,1,7,,,,,,,,,,,,,,,,,,,,,,,,,,,,,
5db0e17518230d00170d4332,TCN,2024-06-24_13h56.05.543,LearnStrategy,2023.2.3,Win32,60.24096386,,,,,,,,,,,8,05,1,8,,,,,,,,,,,,,,,,,,,,,,,,,,,,,
5db0e17518230d00170d4332,TCN,2024-06-24_13h56.05.543,LearnStrategy,2023.2.3,Win32,60.24096386,,,,,,,,,,,8,04,2,1,,,,,,,,,,,,,,,,,,,,,,,,,,,,,
5db0e17518230d00170d4332,TCN,2024-06-24_13h56.05.543,LearnStrategy,2023.2.3,Win32,60.24096386,,,,,,,,,,,5,04,2,2,,,,,,,,,,,,,,,,,,,,,,,,,,,,,
5db0e17518230d00170d4332,TCN,2024-06-24_13h56.05.543,LearnStrategy,2023.2.3,Win32,60.24096386,,,,,,,,,,,2,16,2,3,,,,,,,,,,,,,,,,,,,,,,,,,,,,,
5db0e17518230d00170d4332,TCN,2024-06-24_13h56.05.543,LearnStrategy,2023.2.3,Win32,60.24096386,,,,,,,,,,,5,05,2,4,,,,,,,,,,,,,,,,,,,,,,,,,,,,,
5db0e17518230d00170d4332,TCN,2024-06-24_13h56.05.543,LearnStrategy,2023.2.3,Win32,60.24096386,,,,,,,,,,,4,08,2,5,,,,,,,,,,,,,,,,,,,,,,,,,,,,,
5db0e17518230d00170d4332,TCN,2024-06-24_13h56.05.543,LearnStrategy,2023.2.3,Win32,60.24096386,,,,,,,,,,,8,03,2,6,,,,,,,,,,,,,,,,,,,,,,,,,,,,,
5db0e17518230d00170d4332,TCN,2024-06-24_13h56.05.543,LearnStrategy,2023.2.3,Win32,60.24096386,,,,,,,,,,,5,07,2,7,,,,,,,,,,,,,,,,,,,,,,,,,,,,,
5db0e17518230d00170d4332,TCN,2024-06-24_13h56.05.543,LearnStrategy,2023.2.3,Win32,60.24096386,,,,,,,,,,,1,09,2,8,,,,,,,,,,,,,,,,,,,,,,,,,,,,,
5db0e17518230d00170d4332,TCN,2024-06-24_13h56.05.543,LearnStrategy,2023.2.3,Win32,60.24096386,,,,,,,,,,,8,14,3,1,,,,,,,,,,,,,,,,,,,,,,,,,,,,,
5db0e17518230d00170d4332,TCN,2024-06-24_13h56.05.543,LearnStrategy,2023.2.3,Win32,60.24096386,,,,,,,,,,,4,14,3,2,,,,,,,,,,,,,,,,,,,,,,,,,,,,,
5db0e17518230d00170d4332,TCN,2024-06-24_13h56.05.543,LearnStrategy,2023.2.3,Win32,60.24096386,,,,,,,,,,,4,05,3,3,,,,,,,,,,,,,,,,,,,,,,,,,,,,,
5db0e17518230d00170d4332,TCN,2024-06-24_13h56.05.543,LearnStrategy,2023.2.3,Win32,60.24096386,,,,,,,,,,,3,16,3,4,,,,,,,,,,,,,,,,,,,,,,,,,,,,,
5db0e17518230d00170d4332,TCN,2024-06-24_13h56.05.543,LearnStrategy,2023.2.3,Win32,60.24096386,,,,,,,,,,,7,08,3,5,,,,,,,,,,,,,,,,,,,,,,,,,,,,,
5db0e17518230d00170d4332,TCN,2024-06-24_13h56.05.543,LearnStrategy,2023.2.3,Win32,60.24096386,,,,,,,,,,,6,03,3,6,,,,,,,,,,,,,,,,,,,,,,,,,,,,,
5db0e17518230d00170d4332,TCN,2024-06-24_13h56.05.543,LearnStrategy,2023.2.3,Win32,60.24096386,,,,,,,,,,,1,03,3,7,,,,,,,,,,,,,,,,,,,,,,,,,,,,,
5db0e17518230d00170d4332,TCN,2024-06-24_13h56.05.543,LearnStrategy,2023.2.3,Win32,60.24096386,,,,,,,,,,,3,15,3,8,,,,,,,,,,,,,,,,,,,,,,,,,,,,,
5db0e17518230d00170d4332,TCN,2024-06-24_13h56.05.543,LearnStrategy,2023.2.3,Win32,60.24096386,,,,,,,,,,,4,03,4,1,,,,,,,,,,,,,,,,,,,,,,,,,,,,,
5db0e17518230d00170d4332,TCN,2024-06-24_13h56.05.543,LearnStrategy,2023.2.3,Win32,60.24096386,,,,,,,,,,,7,02,4,2,,,,,,,,,,,,,,,,,,,,,,,,,,,,,
5db0e17518230d00170d4332,TCN,2024-06-24_13h56.05.543,LearnStrategy,2023.2.3,Win32,60.24096386,,,,,,,,,,,1,07,4,3,,,,,,,,,,,,,,,,,,,,,,,,,,,,,
5db0e17518230d00170d4332,TCN,2024-06-24_13h56.05.543,LearnStrategy,2023.2.3,Win32,60.24096386,,,,,,,,,,,7,14,4,4,,,,,,,,,,,,,,,,,,,,,,,,,,,,,
5db0e17518230d00170d4332,TCN,2024-06-24_13h56.05.543,LearnStrategy,2023.2.3,Win32,60.24096386,,,,,,,,,,,7,15,4,5,,,,,,,,,,,,,,,,,,,,,,,,,,,,,
5db0e17518230d00170d4332,TCN,2024-06-24_13h56.05.543,LearnStrategy,2023.2.3,Win32,60.24096386,,,,,,,,,,,4,13,4,6,,,,,,,,,,,,,,,,,,,,,,,,,,,,,
5db0e17518230d00170d4332,TCN,2024-06-24_13h56.05.543,LearnStrategy,2023.2.3,Win32,60.24096386,,,,,,,,,,,2,08,4,7,,,,,,,,,,,,,,,,,,,,,,,,,,,,,
5db0e17518230d00170d4332,TCN,2024-06-24_13h56.05.543,LearnStrategy,2023.2.3,Win32,60.24096386,,,,,,,,,,,7,12,4,8,,,,,,,,,,,,,,,,,,,,,,,,,,,,,
5db0e17518230d00170d4332,TCN,2024-06-24_13h56.05.543,LearnStrategy,2023.2.3,Win32,60.24096386,,,,,,,,,,,3,11,5,1,,,,,,,,,,,,,,,,,,,,,,,,,,,,,
5db0e17518230d00170d4332,TCN,2024-06-24_13h56.05.543,LearnStrategy,2023.2.3,Win32,60.24096386,,,,,,,,,,,2,10,5,2,,,,,,,,,,,,,,,,,,,,,,,,,,,,,
5db0e17518230d00170d4332,TCN,2024-06-24_13h56.05.543,LearnStrategy,2023.2.3,Win32,60.24096386,,,,,,,,,,,5,16,5,3,,,,,,,,,,,,,,,,,,,,,,,,,,,,,
5db0e17518230d00170d4332,TCN,2024-06-24_13h56.05.543,LearnStrategy,2023.2.3,Win32,60.24096386,,,,,,,,,,,1,02,5,4,,,,,,,,,,,,,,,,,,,,,,,,,,,,,
5db0e17518230d00170d4332,TCN,2024-06-24_13h56.05.543,LearnStrategy,2023.2.3,Win32,60.24096386,,,,,,,,,,,7,06,5,5,,,,,,,,,,,,,,,,,,,,,,,,,,,,,
5db0e17518230d00170d4332,TCN,2024-06-24_13h56.05.543,LearnStrategy,2023.2.3,Win32,60.24096386,,,,,,,,,,,4,09,5,6,,,,,,,,,,,,,,,,,,,,,,,,,,,,,
5db0e17518230d00170d4332,TCN,2024-06-24_13h56.05.543,LearnStrategy,2023.2.3,Win32,60.24096386,,,,,,,,,,,6,08,5,7,,,,,,,,,,,,,,,,,,,,,,,,,,,,,
5db0e17518230d00170d4332,TCN,2024-06-24_13h56.05.543,LearnStrategy,2023.2.3,Win32,60.24096386,,,,,,,,,,,6,13,5,8,,,,,,,,,,,,,,,,,,,,,,,,,,,,,
5db0e17518230d00170d4332,TCN,2024-06-24_13h56.05.543,LearnStrategy,2023.2.3,Win32,60.24096386,,,,,,,,,,,8,15,6,1,,,,,,,,,,,,,,,,,,,,,,,,,,,,,
5db0e17518230d00170d4332,TCN,2024-06-24_13h56.05.543,LearnStrategy,2023.2.3,Win32,60.24096386,,,,,,,,,,,2,09,6,2,,,,,,,,,,,,,,,,,,,,,,,,,,,,,
5db0e17518230d00170d4332,TCN,2024-06-24_13h56.05.543,LearnStrategy,2023.2.3,Win32,60.24096386,,,,,,,,,,,1,04,6,3,,,,,,,,,,,,,,,,,,,,,,,,,,,,,
5db0e17518230d00170d4332,TCN,2024-06-24_13h56.05.543,LearnStrategy,2023.2.3,Win32,60.24096386,,,,,,,,,,,6,06,6,4,,,,,,,,,,,,,,,,,,,,,,,,,,,,,
5db0e17518230d00170d4332,TCN,2024-06-24_13h56.05.543,LearnStrategy,2023.2.3,Win32,60.24096386,,,,,,,,,,,3,14,6,5,,,,,,,,,,,,,,,,,,,,,,,,,,,,,
5db0e17518230d00170d4332,TCN,2024-06-24_13h56.05.543,LearnStrategy,2023.2.3,Win32,60.24096386,,,,,,,,,,,5,08,6,6,,,,,,,,,,,,,,,,,,,,,,,,,,,,,
5db0e17518230d00170d4332,TCN,2024-06-24_13h56.05.543,LearnStrategy,2023.2.3,Win32,60.24096386,,,,,,,,,,,1,06,6,7,,,,,,,,,,,,,,,,,,,,,,,,,,,,,
5db0e17518230d00170d4332,TCN,2024-06-24_13h56.05.543,LearnStrategy,2023.2.3,Win32,60.24096386,,,,,,,,,,,2,04,6,8,,,,,,,,,,,,,,,,,,,,,,,,,,,,,