participant,condition,date,expName,psychopyVersion,OS,frameRate,block,phase,trial,learn_mouse_2.x,learn_mouse_2.y,learn_mouse_2.leftButton,learn_mouse_2.midButton,learn_mouse_2.rightButton,learn_mouse_2.time,learn_mouse_2.clicked_name,cat,token,row,col,t_select,cat_mouse_l.x,cat_mouse_l.y,cat_mouse_l.leftButton,cat_mouse_l.midButton,cat_mouse_l.rightButton,cat_mouse_l.time,cat_mouse_l.clicked_name,resp,t_resp,corr,train_trials.thisRepN,train_trials.thisTrialN,train_trials.thisN,train_trials.thisIndex,train_trials.ran,cat_mouse_t.x,cat_mouse_t.y,cat_mouse_t.leftButton,cat_mouse_t.midButton,cat_mouse_t.rightButton,cat_mouse_t.time,cat_mouse_t.clicked_name,test_trials.thisRepN,test_trials.thisTrialN,test_trials.thisN,test_trials.thisIndex,test_trials.ran,Bonus
5dd9f0e719eecb97dfab7b48,TCN,2024-06-20_15h28.35.992,LearnStrategy,2023.2.3,Win32,60.60606061,,,,,,,,,,,,,,,,,,,,,,,,,,,,,,,,,,,,,,,,,,,
5dd9f0e719eecb97dfab7b48,TCN,2024-06-20_15h28.35.992,LearnStrategy,2023.2.3,Win32,60.60606061,1,1,1,0.036363658,-0.006774786,1,0,0,8.6267,rock_grid_rect_2,2,05,-1,-1,8.627,-0.398147058,-0.402374073,1,0,0,8.8106,Obsidian_rect,5,8.811,0,0,0,0,0,1,,,,,,,,,,,,,
5dd9f0e719eecb97dfab7b48,TCN,2024-06-20_15h28.35.992,LearnStrategy,2023.2.3,Win32,60.60606061,1,1,2,0.01598157,-0.002142451,1,0,0,11.8994,rock_grid_rect_2,4,01,-1,-1,11.899,0.393051711,-0.396815287,1,0,0,7.1087,Pumice_rect,8,7.109,0,1,0,1,0,1,,,,,,,,,,,,,
5dd9f0e719eecb97dfab7b48,TCN,2024-06-20_15h28.35.992,LearnStrategy,2023.2.3,Win32,60.60606061,1,1,3,0.044701837,-0.00955414,1,0,0,1.4916,rock_grid_rect_2,4,08,-1,-1,1.492,0.394904459,-0.40978584,1,0,0,3.0481,Pumice_rect,8,3.048,0,2,0,2,0,1,,,,,,,,,,,,,
5dd9f0e719eecb97dfab7b48,TCN,2024-06-20_15h28.35.992,LearnStrategy,2023.2.3,Win32,60.60606061,1,1,4,0.038216561,0.004342787,1,0,0,1.5667,rock_grid_rect_2,6,05,-1,-1,1.567,0.154950845,-0.417197452,1,0,0,7.3661,Peridotite_rect,7,7.366,0,3,0,3,0,1,,,,,,,,,,,,,
5dd9f0e719eecb97dfab7b48,TCN,2024-06-20_15h28.35.992,LearnStrategy,2023.2.3,Win32,60.60606061,1,1,5,0.014128589,0.004342787,1,0,0,4.8088,rock_grid_rect_2,7,07,-1,-1,4.809,0.399536833,-0.413491646,1,0,0,4.9709,Pumice_rect,8,4.971,0,4,0,4,0,1,,,,,,,,,,,,,
5dd9f0e719eecb97dfab7b48,TCN,2024-06-20_15h28.35.992,LearnStrategy,2023.2.3,Win32,60.60606061,1,1,6,-0.010885873,-0.001215999,1,0,0,5.7652,rock_grid_rect_2,7,05,-1,-1,5.765,0.145686175,-0.247655006,1,0,0,19.9234,Diorite_rect,3,19.923,0,5,0,5,0,1,,,,,,,,,,,,,
5dd9f0e719eecb97dfab7b48,TCN,2024-06-20_15h28.35.992,LearnStrategy,2023.2.3,Win32,60.60606061,1,1,7,0.049334134,-0.004921844,1,0,0,3.9073,rock_grid_rect_2,3,13,-1,-1,3.907,0.421771901,-0.410712253,1,0,0,5.3796,Pumice_rect,8,5.38,0,6,0,6,0,1,,,,,,,,,,,,,
5dd9f0e719eecb97dfab7b48,TCN,2024-06-20_15h28.35.992,LearnStrategy,2023.2.3,Win32,60.60606061,1,1,8,0.019687376,0.008975084,1,0,0,2.774,rock_grid_rect_2,6,12,-1,-1,2.774,-0.384250131,-0.388477185,1,0,0,4.4497,Obsidian_rect,5,4.45,0,7,0,7,0,1,,,,,,,,,,,,,
5dd9f0e719eecb97dfab7b48,TCN,2024-06-20_15h28.35.992,LearnStrategy,2023.2.3,Win32,60.60606061,1,1,9,0.082686775,-0.011407082,1,0,0,1.0772,rock_grid_rect_2,3,10,-1,-1,1.077,0.178112404,-0.394035893,1,0,0,4.2478,Peridotite_rect,7,4.248,0,8,0,8,0,1,,,,,,,,,,,,,
5dd9f0e719eecb97dfab7b48,TCN,2024-06-20_15h28.35.992,LearnStrategy,2023.2.3,Win32,60.60606061,1,1,10,0.020613866,-0.022524616,1,0,0,2.9261,rock_grid_rect_2,1,16,-1,-1,2.926,-0.112796701,-0.404226976,1,0,0,6.5702,Pegmatite_rect,6,6.57,0,9,0,9,0,1,,,,,,,,,,,,,
5dd9f0e719eecb97dfab7b48,TCN,2024-06-20_15h28.35.992,LearnStrategy,2023.2.3,Win32,60.60606061,1,1,11,0.060451707,-0.003068902,1,0,0,1.1345,rock_grid_rect_2,2,06,-1,-1,1.135,-0.388882427,-0.398668267,1,0,0,1.4896,Obsidian_rect,5,1.49,0,10,0,10,0,1,,,,,,,,,,,,,
5dd9f0e719eecb97dfab7b48,TCN,2024-06-20_15h28.35.992,LearnStrategy,2023.2.3,Win32,60.60606061,1,1,12,0.028025478,0.005269239,1,0,0,5.258,rock_grid_rect_2,1,01,-1,-1,5.258,0.395830949,-0.40978584,1,0,0,20.9098,Pumice_rect,8,20.91,0,11,0,11,0,1,,,,,,,,,,,,,
5dd9f0e719eecb97dfab7b48,TCN,2024-06-20_15h28.35.992,LearnStrategy,2023.2.3,Win32,60.60606061,1,1,13,0.075275086,0.005269239,1,0,0,1.2066,rock_grid_rect_2,5,02,-1,-1,1.207,-0.368500261,-0.396815287,1,0,0,2.5809,Obsidian_rect,5,2.581,1,12,0,12,0,1,,,,,,,,,,,,,
5dd9f0e719eecb97dfab7b48,TCN,2024-06-20_15h28.35.992,LearnStrategy,2023.2.3,Win32,60.60606061,1,1,14,0.014128589,-0.000289548,1,0,0,12.5414,rock_grid_rect_2,5,04,-1,-1,12.541,-0.389808917,-0.39959468,1,0,0,3.696,Obsidian_rect,5,3.696,1,13,0,13,0,1,,,,,,,,,,,,,
5dd9f0e719eecb97dfab7b48,TCN,2024-06-20_15h28.35.992,LearnStrategy,2023.2.3,Win32,60.60606061,1,1,15,0.029878458,-0.006774786,1,0,0,6.8321,rock_grid_rect_2,8,16,-1,-1,6.832,0.430110159,-0.394035893,1,0,0,1.6457,Pumice_rect,8,1.646,1,14,0,14,0,1,,,,,,,,,,,,,
5dd9f0e719eecb97dfab7b48,TCN,2024-06-20_15h28.35.992,LearnStrategy,2023.2.3,Win32,60.60606061,1,1,16,0.05489292,-0.016039378,1,0,0,7.3258,rock_grid_rect_2,8,09,-1,-1,7.326,0.41621327,-0.402374073,1,0,0,27.4251,Pumice_rect,8,27.425,1,15,0,15,0,1,,,,,,,,,,,,,
5dd9f0e719eecb97dfab7b48,TCN,2024-06-20_15h28.35.992,LearnStrategy,2023.2.3,Win32,60.60606061,1,2,1,,,,,,,,1,03,,,,,,,,,,,1,9.473,1,,,,,,-0.387955975,-0.255993108,1,0,0,9.4731,Andesite_rect,0,0,0,0,1,
5dd9f0e719eecb97dfab7b48,TCN,2024-06-20_15h28.35.992,LearnStrategy,2023.2.3,Win32,60.60606061,1,2,2,,,,,,,,8,06,,,,,,,,,,,8,4.722,1,,,,,,0.384713376,-0.401447661,1,0,0,4.7216,Pumice_rect,1,0,1,0,1,
5dd9f0e719eecb97dfab7b48,TCN,2024-06-20_15h28.35.992,LearnStrategy,2023.2.3,Win32,60.60606061,1,2,3,,,,,,,,2,09,,,,,,,,,,,4,4.19,0,,,,,,0.386566356,-0.242096142,1,0,0,4.19,Gabbro_rect,2,0,2,0,1,
5dd9f0e719eecb97dfab7b48,TCN,2024-06-20_15h28.35.992,LearnStrategy,2023.2.3,Win32,60.60606061,1,2,4,,,,,,,,6,11,,,,,,,,,,,6,5.79,1,,,,,,-0.088708729,-0.407006369,1,0,0,5.7903,Pegmatite_rect,3,0,3,0,1,
5dd9f0e719eecb97dfab7b48,TCN,2024-06-20_15h28.35.992,LearnStrategy,2023.2.3,Win32,60.60606061,1,2,5,,,,,,,,3,06,,,,,,,,,,,3,2.763,1,,,,,,0.142906782,-0.236537355,1,0,0,2.7634,Diorite_rect,4,0,4,0,1,
5dd9f0e719eecb97dfab7b48,TCN,2024-06-20_15h28.35.992,LearnStrategy,2023.2.3,Win32,60.60606061,1,2,6,,,,,,,,6,07,,,,,,,,,,,3,7.079,0,,,,,,0.139200976,-0.255993108,1,0,0,7.0795,Diorite_rect,5,0,5,0,1,
5dd9f0e719eecb97dfab7b48,TCN,2024-06-20_15h28.35.992,LearnStrategy,2023.2.3,Win32,60.60606061,1,2,7,,,,,,,,8,04,,,,,,,,,,,7,3.201,0,,,,,,0.131789286,-0.40978584,1,0,0,3.201,Peridotite_rect,6,0,6,0,1,
5dd9f0e719eecb97dfab7b48,TCN,2024-06-20_15h28.35.992,LearnStrategy,2023.2.3,Win32,60.60606061,1,2,8,,,,,,,,1,06,,,,,,,,,,,1,4.151,1,,,,,,-0.387029524,-0.245802025,1,0,0,4.1513,Andesite_rect,7,0,7,0,1,
5dd9f0e719eecb97dfab7b48,TCN,2024-06-20_15h28.35.992,LearnStrategy,2023.2.3,Win32,60.60606061,1,2,9,,,,,,,,3,14,,,,,,,,,,,6,3.554,0,,,,,,-0.110017385,-0.39959468,1,0,0,3.5542,Pegmatite_rect,8,0,8,0,1,
5dd9f0e719eecb97dfab7b48,TCN,2024-06-20_15h28.35.992,LearnStrategy,2023.2.3,Win32,60.60606061,1,2,10,,,,,,,,7,08,,,,,,,,,,,7,3.28,1,,,,,,0.140127389,-0.400521248,1,0,0,3.2801,Peridotite_rect,9,0,9,0,1,
5dd9f0e719eecb97dfab7b48,TCN,2024-06-20_15h28.35.992,LearnStrategy,2023.2.3,Win32,60.60606061,1,2,11,,,,,,,,2,12,,,,,,,,,,,3,9.412,0,,,,,,0.136421583,-0.237463845,1,0,0,9.4115,Diorite_rect,10,0,10,0,1,
5dd9f0e719eecb97dfab7b48,TCN,2024-06-20_15h28.35.992,LearnStrategy,2023.2.3,Win32,60.60606061,1,2,12,,,,,,,,4,14,,,,,,,,,,,6,5.44,0,,,,,,-0.124840764,-0.391256578,1,0,0,5.4398,Pegmatite_rect,11,0,11,0,1,
5dd9f0e719eecb97dfab7b48,TCN,2024-06-20_15h28.35.992,LearnStrategy,2023.2.3,Win32,60.60606061,1,2,13,,,,,,,,4,10,,,,,,,,,,,3,2.547,0,,,,,,0.154024355,-0.234684452,1,0,0,2.5465,Diorite_rect,12,0,12,0,1,
5dd9f0e719eecb97dfab7b48,TCN,2024-06-20_15h28.35.992,LearnStrategy,2023.2.3,Win32,60.60606061,1,2,14,,,,,,,,5,05,,,,,,,,,,,5,1.926,1,,,,,,-0.4,-0.40793286,1,0,0,1.9258,Obsidian_rect,13,0,13,0,1,
5dd9f0e719eecb97dfab7b48,TCN,2024-06-20_15h28.35.992,LearnStrategy,2023.2.3,Win32,60.60606061,1,2,15,,,,,,,,5,16,,,,,,,,,,,5,3.046,1,,,,,,-0.404632296,-0.413491646,1,0,0,3.0457,Obsidian_rect,14,0,14,0,1,
5dd9f0e719eecb97dfab7b48,TCN,2024-06-20_15h28.35.992,LearnStrategy,2023.2.3,Win32,60.60606061,1,2,16,,,,,,,,7,14,,,,,,,,,,,6,5.922,0,,,,,,-0.095193929,-0.410712253,1,0,0,5.9216,Pegmatite_rect,15,0,15,0,1,
5dd9f0e719eecb97dfab7b48,TCN,2024-06-20_15h28.35.992,LearnStrategy,2023.2.3,Win32,60.60606061,2,1,1,0.053040017,-0.005848295,1,0,0,4.4992,rock_grid_rect_2,5,12,-1,-1,4.499,-0.394441213,-0.395888874,1,0,0,1.9844,Obsidian_rect,5,1.984,1,0,0,0,0,1,,,,,,,,,,,,,
5dd9f0e719eecb97dfab7b48,TCN,2024-06-20_15h28.35.992,LearnStrategy,2023.2.3,Win32,60.60606061,2,1,2,0.030804871,-0.004921844,1,0,0,1.3934,rock_grid_rect_2,3,12,-1,-1,1.393,-0.392588272,-0.243949045,1,0,0,4.2663,Andesite_rect,1,4.266,0,1,0,1,0,1,,,,,,,,,,,,,
5dd9f0e719eecb97dfab7b48,TCN,2024-06-20_15h28.35.992,LearnStrategy,2023.2.3,Win32,60.60606061,2,1,3,0.022466769,0.005269239,1,0,0,1.4105,rock_grid_rect_2,7,10,-1,-1,1.41,-0.100752715,-0.40978584,1,0,0,4.0436,Pegmatite_rect,6,4.044,0,2,0,2,0,1,,,,,,,,,,,,,
5dd9f0e719eecb97dfab7b48,TCN,2024-06-20_15h28.35.992,LearnStrategy,2023.2.3,Win32,60.60606061,2,1,4,0.016907982,-0.005848295,1,0,0,4.9655,rock_grid_rect_2,4,11,-1,-1,4.966,-0.108164405,-0.40793286,1,0,0,3.4956,Pegmatite_rect,6,3.496,0,3,0,3,0,1,,,,,,,,,,,,,
5dd9f0e719eecb97dfab7b48,TCN,2024-06-20_15h28.35.992,LearnStrategy,2023.2.3,Win32,60.60606061,2,1,5,0.052113527,-0.007701237,1,0,0,1.1715,rock_grid_rect_2,1,05,-1,-1,1.171,-0.105385011,-0.400521248,1,0,0,2.2877,Pegmatite_rect,6,2.288,0,4,0,4,0,1,,,,,,,,,,,,,
5dd9f0e719eecb97dfab7b48,TCN,2024-06-20_15h28.35.992,LearnStrategy,2023.2.3,Win32,60.60606061,2,1,6,0.034510832,-0.001215999,1,0,0,3.2022,rock_grid_rect_2,6,16,-1,-1,3.202,-0.14429644,-0.251360734,1,0,0,3.678,Basalt_rect,2,3.678,0,5,0,5,0,1,,,,,,,,,,,,,
5dd9f0e719eecb97dfab7b48,TCN,2024-06-20_15h28.35.992,LearnStrategy,2023.2.3,Win32,60.60606061,2,1,7,0.097510154,0.002489846,1,0,0,1.8884,rock_grid_rect_2,7,04,-1,-1,1.888,-0.100752715,-0.413491646,1,0,0,3.6172,Pegmatite_rect,6,3.617,0,6,0,6,0,1,,,,,,,,,,,,,
5dd9f0e719eecb97dfab7b48,TCN,2024-06-20_15h28.35.992,LearnStrategy,2023.2.3,Win32,60.60606061,2,1,8,0.029878458,-0.013259985,1,0,0,4.5383,rock_grid_rect_2,3,15,-1,-1,4.538,0.429183668,-0.256919598,1,0,0,4.6263,Gabbro_rect,4,4.626,0,7,0,7,0,1,,,,,,,,,,,,,
5dd9f0e719eecb97dfab7b48,TCN,2024-06-20_15h28.35.992,LearnStrategy,2023.2.3,Win32,60.60606061,2,1,9,0.055819333,0.008048632,1,0,0,8.2586,rock_grid_rect_2,4,05,-1,-1,8.259,-0.101679205,-0.269889997,1,0,0,5.1167,Basalt_rect,2,5.117,0,8,0,8,0,1,,,,,,,,,,,,,
5dd9f0e719eecb97dfab7b48,TCN,2024-06-20_15h28.35.992,LearnStrategy,2023.2.3,Win32,60.60606061,2,1,10,0.078980892,-0.001215999,1,0,0,3.1322,rock_grid_rect_2,8,08,-1,-1,3.132,0.149392059,-0.39959468,1,0,0,4.8606,Peridotite_rect,7,4.861,0,9,0,9,0,1,,,,,,,,,,,,,
5dd9f0e719eecb97dfab7b48,TCN,2024-06-20_15h28.35.992,LearnStrategy,2023.2.3,Win32,60.60606061,2,1,11,0.103068941,0.008975084,1,0,0,1.0297,rock_grid_rect_2,8,14,-1,-1,1.03,0.41621327,-0.40793286,1,0,0,1.2098,Pumice_rect,8,1.21,1,10,0,10,0,1,,,,,,,,,,,,,
5dd9f0e719eecb97dfab7b48,TCN,2024-06-20_15h28.35.992,LearnStrategy,2023.2.3,Win32,60.60606061,2,1,12,0.047481231,0.008048632,1,0,0,2.4151,rock_grid_rect_2,1,09,-1,-1,2.415,0.388419337,-0.23375804,1,0,0,3.83,Gabbro_rect,4,3.83,0,11,0,11,0,1,,,,,,,,,,,,,
5dd9f0e719eecb97dfab7b48,TCN,2024-06-20_15h28.35.992,LearnStrategy,2023.2.3,Win32,60.60606061,2,1,13,0.041922444,-0.008627689,1,0,0,0.916,rock_grid_rect_2,5,14,-1,-1,0.916,-0.362941514,-0.39218299,1,0,0,1.1916,Obsidian_rect,5,1.192,1,12,0,12,0,1,,,,,,,,,,,,,
5dd9f0e719eecb97dfab7b48,TCN,2024-06-20_15h28.35.992,LearnStrategy,2023.2.3,Win32,60.60606061,2,1,14,0.089171975,0.010828025,1,0,0,1.5639,rock_grid_rect_2,6,10,-1,-1,1.564,0.130862796,-0.419050433,1,0,0,2.6992,Peridotite_rect,7,2.699,0,13,0,13,0,1,,,,,,,,,,,,,
5dd9f0e719eecb97dfab7b48,TCN,2024-06-20_15h28.35.992,LearnStrategy,2023.2.3,Win32,60.60606061,2,1,15,0.075275086,-0.01789232,1,0,0,1.3825,rock_grid_rect_2,2,04,-1,-1,1.382,-0.120208468,-0.247655006,1,0,0,3.175,Basalt_rect,2,3.175,1,14,0,14,0,1,,,,,,,,,,,,,
5dd9f0e719eecb97dfab7b48,TCN,2024-06-20_15h28.35.992,LearnStrategy,2023.2.3,Win32,60.60606061,2,1,16,0.036363658,-0.002142451,1,0,0,3.2654,rock_grid_rect_2,2,08,-1,-1,3.265,-0.097973322,-0.245802025,1,0,0,1.2264,Basalt_rect,2,1.226,1,15,0,15,0,1,,,,,,,,,,,,,
5dd9f0e719eecb97dfab7b48,TCN,2024-06-20_15h28.35.992,LearnStrategy,2023.2.3,Win32,60.60606061,2,2,1,,,,,,,,1,11,,,,,,,,,,,1,15.822,1,,,,,,-0.368500261,-0.236537355,1,0,0,15.822,Andesite_rect,0,0,0,0,1,
5dd9f0e719eecb97dfab7b48,TCN,2024-06-20_15h28.35.992,LearnStrategy,2023.2.3,Win32,60.60606061,2,2,2,,,,,,,,2,11,,,,,,,,,,,4,2.842,0,,,,,,0.408801425,-0.236537355,1,0,0,2.8416,Gabbro_rect,1,0,1,0,1,
5dd9f0e719eecb97dfab7b48,TCN,2024-06-20_15h28.35.992,LearnStrategy,2023.2.3,Win32,60.60606061,2,2,3,,,,,,,,2,02,,,,,,,,,,,2,2.087,1,,,,,,-0.105385011,-0.247655006,1,0,0,2.0873,Basalt_rect,2,0,2,0,1,
5dd9f0e719eecb97dfab7b48,TCN,2024-06-20_15h28.35.992,LearnStrategy,2023.2.3,Win32,60.60606061,2,2,4,,,,,,,,6,09,,,,,,,,,,,6,10.911,1,,,,,,-0.120208468,-0.405153544,1,0,0,10.9112,Pegmatite_rect,3,0,3,0,1,
5dd9f0e719eecb97dfab7b48,TCN,2024-06-20_15h28.35.992,LearnStrategy,2023.2.3,Win32,60.60606061,2,2,5,,,,,,,,1,02,,,,,,,,,,,7,2.375,0,,,,,,0.121598204,-0.400521248,1,0,0,2.3754,Peridotite_rect,4,0,4,0,1,
5dd9f0e719eecb97dfab7b48,TCN,2024-06-20_15h28.35.992,LearnStrategy,2023.2.3,Win32,60.60606061,2,2,6,,,,,,,,7,16,,,,,,,,,,,4,10.464,0,,,,,,0.409727915,-0.239316748,1,0,0,10.4636,Gabbro_rect,5,0,5,0,1,
5dd9f0e719eecb97dfab7b48,TCN,2024-06-20_15h28.35.992,LearnStrategy,2023.2.3,Win32,60.60606061,2,2,7,,,,,,,,4,09,,,,,,,,,,,4,6.615,1,,,,,,0.409727915,-0.248581341,1,0,0,6.6148,Gabbro_rect,6,0,6,0,1,
5dd9f0e719eecb97dfab7b48,TCN,2024-06-20_15h28.35.992,LearnStrategy,2023.2.3,Win32,60.60606061,2,2,8,,,,,,,,7,15,,,,,,,,,,,1,2.103,0,,,,,,-0.378691344,-0.256919598,1,0,0,2.1032,Andesite_rect,7,0,7,0,1,
5dd9f0e719eecb97dfab7b48,TCN,2024-06-20_15h28.35.992,LearnStrategy,2023.2.3,Win32,60.60606061,2,2,9,,,,,,,,3,08,,,,,,,,,,,6,4.505,0,,,,,,-0.110017385,-0.405153544,1,0,0,4.5055,Pegmatite_rect,8,0,8,0,1,
5dd9f0e719eecb97dfab7b48,TCN,2024-06-20_15h28.35.992,LearnStrategy,2023.2.3,Win32,60.60606061,2,2,10,,,,,,,,8,15,,,,,,,,,,,8,4.357,1,,,,,,0.396757439,-0.400521248,1,0,0,4.357,Pumice_rect,9,0,9,0,1,
5dd9f0e719eecb97dfab7b48,TCN,2024-06-20_15h28.35.992,LearnStrategy,2023.2.3,Win32,60.60606061,2,2,11,,,,,,,,6,03,,,,,,,,,,,7,2.45,0,,,,,,0.143833272,-0.405153544,1,0,0,2.4497,Peridotite_rect,10,0,10,0,1,
5dd9f0e719eecb97dfab7b48,TCN,2024-06-20_15h28.35.992,LearnStrategy,2023.2.3,Win32,60.60606061,2,2,12,,,,,,,,5,06,,,,,,,,,,,5,1.557,1,,,,,,-0.370353203,-0.395888874,1,0,0,1.5566,Obsidian_rect,11,0,11,0,1,
5dd9f0e719eecb97dfab7b48,TCN,2024-06-20_15h28.35.992,LearnStrategy,2023.2.3,Win32,60.60606061,2,2,13,,,,,,,,8,13,,,,,,,,,,,6,2.752,0,,,,,,-0.085929258,-0.413491646,1,0,0,2.7515,Pegmatite_rect,12,0,12,0,1,
5dd9f0e719eecb97dfab7b48,TCN,2024-06-20_15h28.35.992,LearnStrategy,2023.2.3,Win32,60.60606061,2,2,14,,,,,,,,5,09,,,,,,,,,,,5,1.299,1,,,,,,-0.36016212,-0.402374073,1,0,0,1.2988,Obsidian_rect,13,0,13,0,1,
5dd9f0e719eecb97dfab7b48,TCN,2024-06-20_15h28.35.992,LearnStrategy,2023.2.3,Win32,60.60606061,2,2,15,,,,,,,,4,16,,,,,,,,,,,2,1.822,0,,,,,,-0.101679205,-0.247655006,1,0,0,1.8222,Basalt_rect,14,0,14,0,1,
5dd9f0e719eecb97dfab7b48,TCN,2024-06-20_15h28.35.992,LearnStrategy,2023.2.3,Win32,60.60606061,2,2,16,,,,,,,,3,02,,,,,,,,,,,7,11.158,0,,,,,,0.102142451,-0.405153544,1,0,0,11.1584,Peridotite_rect,15,0,15,0,1,
5dd9f0e719eecb97dfab7b48,TCN,2024-06-20_15h28.35.992,LearnStrategy,2023.2.3,Win32,60.60606061,3,1,1,0.05396643,-0.005848295,1,0,0,5.1857,rock_grid_rect_2,2,14,-1,-1,5.186,0.397684007,-0.247655006,1,0,0,3.7786,Gabbro_rect,4,3.779,0,0,0,0,0,1,,,,,,,,,,,,,
5dd9f0e719eecb97dfab7b48,TCN,2024-06-20_15h28.35.992,LearnStrategy,2023.2.3,Win32,60.60606061,3,1,2,0.077127989,-0.003995392,1,0,0,1.2159,rock_grid_rect_2,8,02,-1,-1,1.216,0.38193406,-0.402374073,1,0,0,2.1806,Pumice_rect,8,2.181,1,1,0,1,0,1,,,,,,,,,,,,,
5dd9f0e719eecb97dfab7b48,TCN,2024-06-20_15h28.35.992,LearnStrategy,2023.2.3,Win32,60.60606061,3,1,3,0.017834395,-0.006774786,1,0,0,3.6699,rock_grid_rect_2,1,10,-1,-1,3.67,0.406022032,-0.245802025,1,0,0,4.3634,Gabbro_rect,4,4.363,0,2,0,2,0,1,,,,,,,,,,,,,
5dd9f0e719eecb97dfab7b48,TCN,2024-06-20_15h28.35.992,LearnStrategy,2023.2.3,Win32,60.60606061,3,1,4,0.072495693,-0.011407082,1,0,0,1.618,rock_grid_rect_2,2,10,-1,-1,1.618,-0.094267516,-0.252287302,1,0,0,3.59,Basalt_rect,2,3.59,1,3,0,3,0,1,,,,,,,,,,,,,
5dd9f0e719eecb97dfab7b48,TCN,2024-06-20_15h28.35.992,LearnStrategy,2023.2.3,Win32,60.60606061,3,1,5,0.025246162,-0.013259985,1,0,0,4.4155,rock_grid_rect_2,3,16,-1,-1,4.415,0.18089172,-0.395888874,1,0,0,2.3024,Peridotite_rect,7,2.302,0,4,0,4,0,1,,,,,,,,,,,,,
5dd9f0e719eecb97dfab7b48,TCN,2024-06-20_15h28.35.992,LearnStrategy,2023.2.3,Win32,60.60606061,3,1,6,0.055819333,-0.004921844,1,0,0,1.6688,rock_grid_rect_2,1,04,-1,-1,1.669,0.11789232,-0.414418137,1,0,0,1.7811,Peridotite_rect,7,1.781,0,5,0,5,0,1,,,,,,,,,,,,,
5dd9f0e719eecb97dfab7b48,TCN,2024-06-20_15h28.35.992,LearnStrategy,2023.2.3,Win32,60.60606061,3,1,7,0.076201498,-0.00955414,1,0,0,3.0669,rock_grid_rect_2,6,06,-1,-1,3.067,0.147539078,-0.411638743,1,0,0,2.3535,Peridotite_rect,7,2.354,0,6,0,6,0,1,,,,,,,,,,,,,
5dd9f0e719eecb97dfab7b48,TCN,2024-06-20_15h28.35.992,LearnStrategy,2023.2.3,Win32,60.60606061,3,1,8,0.060451707,-0.005848295,1,0,0,0.9326,rock_grid_rect_2,6,08,-1,-1,0.933,0.151244962,-0.398668267,1,0,0,2.4738,Peridotite_rect,7,2.474,0,7,0,7,0,1,,,,,,,,,,,,,
5dd9f0e719eecb97dfab7b48,TCN,2024-06-20_15h28.35.992,LearnStrategy,2023.2.3,Win32,60.60606061,3,1,9,0.067863396,0.005269239,1,0,0,4.3983,rock_grid_rect_2,8,03,-1,-1,4.398,0.421771901,-0.398668267,1,0,0,1.4117,Pumice_rect,8,1.412,1,8,0,8,0,1,,,,,,,,,,,,,
5dd9f0e719eecb97dfab7b48,TCN,2024-06-20_15h28.35.992,LearnStrategy,2023.2.3,Win32,60.60606061,3,1,10,0.026172575,0.011754477,1,0,0,3.6306,rock_grid_rect_2,7,06,-1,-1,3.631,-0.384250131,-0.240243239,1,0,0,2.2765,Andesite_rect,1,2.276,0,9,0,9,0,1,,,,,,,,,,,,,
5dd9f0e719eecb97dfab7b48,TCN,2024-06-20_15h28.35.992,LearnStrategy,2023.2.3,Win32,60.60606061,3,1,11,0.076201498,-0.022524616,1,0,0,0.856,rock_grid_rect_2,4,15,-1,-1,0.856,0.149392059,-0.39959468,1,0,0,1.59,Peridotite_rect,7,1.59,0,10,0,10,0,1,,,,,,,,,,,,,
5dd9f0e719eecb97dfab7b48,TCN,2024-06-20_15h28.35.992,LearnStrategy,2023.2.3,Win32,60.60606061,3,1,12,0.050260624,-0.001215999,1,0,0,3.6321,rock_grid_rect_2,4,03,-1,-1,3.632,-0.091488123,-0.39959468,1,0,0,4.2824,Pegmatite_rect,6,4.282,0,11,0,11,0,1,,,,,,,,,,,,,
5dd9f0e719eecb97dfab7b48,TCN,2024-06-20_15h28.35.992,LearnStrategy,2023.2.3,Win32,60.60606061,3,1,13,0.083613266,-0.005848295,1,0,0,2.1951,rock_grid_rect_2,7,02,-1,-1,2.195,-0.086855826,-0.414418137,1,0,0,1.8693,Pegmatite_rect,6,1.869,0,12,0,12,0,1,,,,,,,,,,,,,
5dd9f0e719eecb97dfab7b48,TCN,2024-06-20_15h28.35.992,LearnStrategy,2023.2.3,Win32,60.60606061,3,1,14,0.058598726,-0.000289548,1,0,0,3.1137,rock_grid_rect_2,3,09,-1,-1,3.114,0.166994831,-0.403300564,1,0,0,1.8432,Peridotite_rect,7,1.843,0,13,0,13,0,1,,,,,,,,,,,,,
5dd9f0e719eecb97dfab7b48,TCN,2024-06-20_15h28.35.992,LearnStrategy,2023.2.3,Win32,60.60606061,3,1,15,0.053040017,-0.014186475,1,0,0,0.7817,rock_grid_rect_2,5,07,-1,-1,0.782,-0.404632296,-0.41627104,1,0,0,3.4276,Obsidian_rect,5,3.428,1,14,0,14,0,1,,,,,,,,,,,,,
5dd9f0e719eecb97dfab7b48,TCN,2024-06-20_15h28.35.992,LearnStrategy,2023.2.3,Win32,60.60606061,3,1,16,0.04655474,-0.004921844,1,0,0,2.3214,rock_grid_rect_2,5,10,-1,-1,2.321,-0.382397189,-0.405153544,1,0,0,1.4046,Obsidian_rect,5,1.405,1,15,0,15,0,1,,,,,,,,,,,,,
5dd9f0e719eecb97dfab7b48,TCN,2024-06-20_15h28.35.992,LearnStrategy,2023.2.3,Win32,60.60606061,3,2,1,,,,,,,,3,07,,,,,,,,,,,1,12.345,0,,,,,,-0.370353203,-0.243949045,1,0,0,12.3447,Andesite_rect,0,0,0,0,1,
5dd9f0e719eecb97dfab7b48,TCN,2024-06-20_15h28.35.992,LearnStrategy,2023.2.3,Win32,60.60606061,3,2,2,,,,,,,,7,13,,,,,,,,,,,2,6.156,0,,,,,,-0.13595826,-0.250434322,1,0,0,6.1556,Basalt_rect,1,0,1,0,1,
5dd9f0e719eecb97dfab7b48,TCN,2024-06-20_15h28.35.992,LearnStrategy,2023.2.3,Win32,60.60606061,3,2,3,,,,,,,,7,12,,,,,,,,,,,4,1.882,0,,,,,,0.415286624,-0.231905059,1,0,0,1.8821,Gabbro_rect,2,0,2,0,1,
5dd9f0e719eecb97dfab7b48,TCN,2024-06-20_15h28.35.992,LearnStrategy,2023.2.3,Win32,60.60606061,3,2,4,,,,,,,,5,11,,,,,,,,,,,5,1.298,1,,,,,,-0.377764893,-0.405153544,1,0,0,1.2979,Obsidian_rect,3,0,3,0,1,
5dd9f0e719eecb97dfab7b48,TCN,2024-06-20_15h28.35.992,LearnStrategy,2023.2.3,Win32,60.60606061,3,2,5,,,,,,,,1,07,,,,,,,,,,,4,2.994,0,,,,,,0.371742977,-0.231905059,1,0,0,2.9944,Gabbro_rect,4,0,4,0,1,
5dd9f0e719eecb97dfab7b48,TCN,2024-06-20_15h28.35.992,LearnStrategy,2023.2.3,Win32,60.60606061,3,2,6,,,,,,,,6,13,,,,,,,,,,,6,3.154,1,,,,,,-0.093341026,-0.412565156,1,0,0,3.1541,Pegmatite_rect,5,0,5,0,1,
5dd9f0e719eecb97dfab7b48,TCN,2024-06-20_15h28.35.992,LearnStrategy,2023.2.3,Win32,60.60606061,3,2,7,,,,,,,,6,15,,,,,,,,,,,6,2.666,1,,,,,,-0.095193929,-0.401447661,1,0,0,2.6662,Pegmatite_rect,6,0,6,0,1,
5dd9f0e719eecb97dfab7b48,TCN,2024-06-20_15h28.35.992,LearnStrategy,2023.2.3,Win32,60.60606061,3,2,8,,,,,,,,8,10,,,,,,,,,,,8,1.249,1,,,,,,0.409727915,-0.401447661,1,0,0,1.2491,Pumice_rect,7,0,7,0,1,
5dd9f0e719eecb97dfab7b48,TCN,2024-06-20_15h28.35.992,LearnStrategy,2023.2.3,Win32,60.60606061,3,2,9,,,,,,,,1,14,,,,,,,,,,,7,1.755,0,,,,,,0.150318471,-0.417197452,1,0,0,1.7555,Peridotite_rect,8,0,8,0,1,
5dd9f0e719eecb97dfab7b48,TCN,2024-06-20_15h28.35.992,LearnStrategy,2023.2.3,Win32,60.60606061,3,2,10,,,,,,,,4,13,,,,,,,,,,,6,3.452,0,,,,,,-0.097046909,-0.405153544,1,0,0,3.4517,Pegmatite_rect,9,0,9,0,1,
5dd9f0e719eecb97dfab7b48,TCN,2024-06-20_15h28.35.992,LearnStrategy,2023.2.3,Win32,60.60606061,3,2,11,,,,,,,,2,01,,,,,,,,,,,5,1.541,0,,,,,,-0.363867965,-0.407006369,1,0,0,1.5412,Obsidian_rect,10,0,10,0,1,
5dd9f0e719eecb97dfab7b48,TCN,2024-06-20_15h28.35.992,LearnStrategy,2023.2.3,Win32,60.60606061,3,2,12,,,,,,,,8,05,,,,,,,,,,,8,1.893,1,,,,,,0.376375274,-0.402374073,1,0,0,1.8931,Pumice_rect,11,0,11,0,1,
5dd9f0e719eecb97dfab7b48,TCN,2024-06-20_15h28.35.992,LearnStrategy,2023.2.3,Win32,60.60606061,3,2,13,,,,,,,,3,11,,,,,,,,,,,4,4.358,0,,,,,,0.401389736,-0.239316748,1,0,0,4.3585,Gabbro_rect,12,0,12,0,1,
5dd9f0e719eecb97dfab7b48,TCN,2024-06-20_15h28.35.992,LearnStrategy,2023.2.3,Win32,60.60606061,3,2,14,,,,,,,,2,16,,,,,,,,,,,2,4.874,1,,,,,,-0.113723113,-0.240243239,1,0,0,4.8744,Basalt_rect,13,0,13,0,1,
5dd9f0e719eecb97dfab7b48,TCN,2024-06-20_15h28.35.992,LearnStrategy,2023.2.3,Win32,60.60606061,3,2,15,,,,,,,,4,12,,,,,,,,,,,3,12.884,0,,,,,,0.161436044,-0.248581341,1,0,0,12.8843,Diorite_rect,14,0,14,0,1,
5dd9f0e719eecb97dfab7b48,TCN,2024-06-20_15h28.35.992,LearnStrategy,2023.2.3,Win32,60.60606061,3,2,16,,,,,,,,5,08,,,,,,,,,,,5,1.284,1,,,,,,-0.389808917,-0.39959468,1,0,0,1.2835,Obsidian_rect,15,0,15,0,1,
5dd9f0e719eecb97dfab7b48,TCN,2024-06-20_15h28.35.992,LearnStrategy,2023.2.3,Win32,60.60606061,4,1,1,0.022466769,-0.015112927,1,0,0,1.5315,rock_grid_rect_2,8,09,-1,-1,1.532,0.434742455,-0.414418137,1,0,0,3.6543,Pumice_rect,8,3.654,1,0,0,0,0,1,,,,,,,,,,,,,
5dd9f0e719eecb97dfab7b48,TCN,2024-06-20_15h28.35.992,LearnStrategy,2023.2.3,Win32,60.60606061,4,1,2,0.095657251,-0.019745223,1,0,0,3.7447,rock_grid_rect_2,7,02,-1,-1,3.745,0.398610342,-0.237463845,1,0,0,4.3054,Gabbro_rect,4,4.305,0,1,0,1,0,1,,,,,,,,,,,,,
5dd9f0e719eecb97dfab7b48,TCN,2024-06-20_15h28.35.992,LearnStrategy,2023.2.3,Win32,60.60606061,4,1,3,0.037290148,-0.00955414,1,0,0,2.3035,rock_grid_rect_2,1,09,-1,-1,2.304,0.394904459,-0.259698914,1,0,0,3.268,Gabbro_rect,4,3.268,0,2,0,2,0,1,,,,,,,,,,,,,
5dd9f0e719eecb97dfab7b48,TCN,2024-06-20_15h28.35.992,LearnStrategy,2023.2.3,Win32,60.60606061,4,1,4,0.040995954,-0.012333533,1,0,0,2.4425,rock_grid_rect_2,8,16,-1,-1,2.442,0.394904459,-0.415344549,1,0,0,2.0319,Pumice_rect,8,2.032,1,3,0,3,0,1,,,,,,,,,,,,,
5dd9f0e719eecb97dfab7b48,TCN,2024-06-20_15h28.35.992,LearnStrategy,2023.2.3,Win32,60.60606061,4,1,5,0.015055002,-0.011407082,1,0,0,0.9755,rock_grid_rect_2,3,13,-1,-1,0.976,-0.37591199,-0.248581341,1,0,0,2.7033,Andesite_rect,1,2.703,0,4,0,4,0,1,,,,,,,,,,,,,
5dd9f0e719eecb97dfab7b48,TCN,2024-06-20_15h28.35.992,LearnStrategy,2023.2.3,Win32,60.60606061,4,1,6,0.010422705,0.004342787,1,0,0,2.9259,rock_grid_rect_2,3,12,-1,-1,2.926,-0.100752715,-0.402374073,1,0,0,2.7053,Pegmatite_rect,6,2.705,0,5,0,5,0,1,,,,,,,,,,,,,
5dd9f0e719eecb97dfab7b48,TCN,2024-06-20_15h28.35.992,LearnStrategy,2023.2.3,Win32,60.60606061,4,1,7,0.04562825,-0.016965869,1,0,0,0.8659,rock_grid_rect_2,7,04,-1,-1,0.866,-0.097046909,-0.405153544,1,0,0,1.4917,Pegmatite_rect,6,1.492,0,6,0,6,0,1,,,,,,,,,,,,,
5dd9f0e719eecb97dfab7b48,TCN,2024-06-20_15h28.35.992,LearnStrategy,2023.2.3,Win32,60.60606061,4,1,8,0.016907982,-0.015112927,1,0,0,0.907,rock_grid_rect_2,5,02,-1,-1,0.907,-0.383323679,-0.413491646,1,0,0,1.2719,Obsidian_rect,5,1.272,1,7,0,7,0,1,,,,,,,,,,,,,
5dd9f0e719eecb97dfab7b48,TCN,2024-06-20_15h28.35.992,LearnStrategy,2023.2.3,Win32,60.60606061,4,1,9,0.034510832,-0.003068902,1,0,0,2.1654,rock_grid_rect_2,2,08,-1,-1,2.165,-0.105385011,-0.239316748,1,0,0,1.2818,Basalt_rect,2,1.282,1,8,0,8,0,1,,,,,,,,,,,,,
5dd9f0e719eecb97dfab7b48,TCN,2024-06-20_15h28.35.992,LearnStrategy,2023.2.3,Win32,60.60606061,4,1,10,0.04562825,-0.000289548,1,0,0,0.832,rock_grid_rect_2,1,16,-1,-1,0.832,0.379154745,-0.265257701,1,0,0,3.417,Gabbro_rect,4,3.417,0,9,0,9,0,1,,,,,,,,,,,,,
5dd9f0e719eecb97dfab7b48,TCN,2024-06-20_15h28.35.992,LearnStrategy,2023.2.3,Win32,60.60606061,4,1,11,0.066936906,-0.004921844,1,0,0,0.8986,rock_grid_rect_2,4,08,-1,-1,0.899,0.415286624,-0.248581341,1,0,0,1.9298,Gabbro_rect,4,1.93,1,10,0,10,0,1,,,,,,,,,,,,,
5dd9f0e719eecb97dfab7b48,TCN,2024-06-20_15h28.35.992,LearnStrategy,2023.2.3,Win32,60.60606061,4,1,12,0.094730761,-0.003995392,1,0,0,0.8329,rock_grid_rect_2,6,12,-1,-1,0.833,0.138274486,-0.230978568,1,0,0,2.641,Diorite_rect,3,2.641,0,11,0,11,0,1,,,,,,,,,,,,,
5dd9f0e719eecb97dfab7b48,TCN,2024-06-20_15h28.35.992,LearnStrategy,2023.2.3,Win32,60.60606061,4,1,13,0.039143129,-0.020671713,1,0,0,0.7836,rock_grid_rect_2,4,15,-1,-1,0.784,0.377301686,-0.256919598,1,0,0,2.7647,Gabbro_rect,4,2.765,1,12,0,12,0,1,,,,,,,,,,,,,
5dd9f0e719eecb97dfab7b48,TCN,2024-06-20_15h28.35.992,LearnStrategy,2023.2.3,Win32,60.60606061,4,1,14,0.028025478,-0.007701237,1,0,0,2.117,rock_grid_rect_2,2,14,-1,-1,2.117,0.123451107,-0.260625404,1,0,0,3.562,Diorite_rect,3,3.562,0,13,0,13,0,1,,,,,,,,,,,,,
5dd9f0e719eecb97dfab7b48,TCN,2024-06-20_15h28.35.992,LearnStrategy,2023.2.3,Win32,60.60606061,4,1,15,0.04655474,0.012680928,1,0,0,0.9709,rock_grid_rect_2,6,05,-1,-1,0.971,-0.085002846,-0.393109481,1,0,0,2.6216,Pegmatite_rect,6,2.622,1,14,0,14,0,1,,,,,,,,,,,,,
5dd9f0e719eecb97dfab7b48,TCN,2024-06-20_15h28.35.992,LearnStrategy,2023.2.3,Win32,60.60606061,4,1,16,0.023393181,-0.019745223,1,0,0,0.8811,rock_grid_rect_2,5,04,-1,-1,0.881,-0.37591199,-0.40978584,1,0,0,1.195,Obsidian_rect,5,1.195,1,15,0,15,0,1,,,,,,,,,,,,,
5dd9f0e719eecb97dfab7b48,TCN,2024-06-20_15h28.35.992,LearnStrategy,2023.2.3,Win32,60.60606061,4,2,1,,,,,,,,1,07,,,,,,,,,,,1,5.087,1,,,,,,-0.408338141,-0.246728438,1,0,0,5.0874,Andesite_rect,0,0,0,0,1,
5dd9f0e719eecb97dfab7b48,TCN,2024-06-20_15h28.35.992,LearnStrategy,2023.2.3,Win32,60.60606061,4,2,2,,,,,,,,3,11,,,,,,,,,,,7,3.784,0,,,,,,0.139200976,-0.402374073,1,0,0,3.7839,Peridotite_rect,1,0,1,0,1,
5dd9f0e719eecb97dfab7b48,TCN,2024-06-20_15h28.35.992,LearnStrategy,2023.2.3,Win32,60.60606061,4,2,3,,,,,,,,5,05,,,,,,,,,,,5,1.933,1,,,,,,-0.381470737,-0.402374073,1,0,0,1.9326,Obsidian_rect,2,0,2,0,1,
5dd9f0e719eecb97dfab7b48,TCN,2024-06-20_15h28.35.992,LearnStrategy,2023.2.3,Win32,60.60606061,4,2,4,,,,,,,,4,16,,,,,,,,,,,2,1.994,0,,,,,,-0.110017385,-0.252287302,1,0,0,1.9938,Basalt_rect,3,0,3,0,1,
5dd9f0e719eecb97dfab7b48,TCN,2024-06-20_15h28.35.992,LearnStrategy,2023.2.3,Win32,60.60606061,4,2,5,,,,,,,,2,16,,,,,,,,,,,2,1.328,1,,,,,,-0.110943798,-0.244875535,1,0,0,1.3276,Basalt_rect,4,0,4,0,1,
5dd9f0e719eecb97dfab7b48,TCN,2024-06-20_15h28.35.992,LearnStrategy,2023.2.3,Win32,60.60606061,4,2,6,,,,,,,,7,16,,,,,,,,,,,4,9.087,0,,,,,,0.390272162,-0.236537355,1,0,0,9.0869,Gabbro_rect,5,0,5,0,1,
5dd9f0e719eecb97dfab7b48,TCN,2024-06-20_15h28.35.992,LearnStrategy,2023.2.3,Win32,60.60606061,4,2,7,,,,,,,,1,02,,,,,,,,,,,7,4.856,0,,,,,,0.160509554,-0.396815287,1,0,0,4.8564,Peridotite_rect,6,0,6,0,1,
5dd9f0e719eecb97dfab7b48,TCN,2024-06-20_15h28.35.992,LearnStrategy,2023.2.3,Win32,60.60606061,4,2,8,,,,,,,,5,16,,,,,,,,,,,5,1.305,1,,,,,,-0.384250131,-0.404226976,1,0,0,1.3049,Obsidian_rect,7,0,7,0,1,
5dd9f0e719eecb97dfab7b48,TCN,2024-06-20_15h28.35.992,LearnStrategy,2023.2.3,Win32,60.60606061,4,2,9,,,,,,,,8,05,,,,,,,,,,,8,1.397,1,,,,,,0.4069486,-0.394962384,1,0,0,1.3973,Pumice_rect,8,0,8,0,1,
5dd9f0e719eecb97dfab7b48,TCN,2024-06-20_15h28.35.992,LearnStrategy,2023.2.3,Win32,60.60606061,4,2,10,,,,,,,,3,06,,,,,,,,,,,6,2.862,0,,,,,,-0.099826225,-0.394035893,1,0,0,2.8623,Pegmatite_rect,9,0,9,0,1,
5dd9f0e719eecb97dfab7b48,TCN,2024-06-20_15h28.35.992,LearnStrategy,2023.2.3,Win32,60.60606061,4,2,11,,,,,,,,8,13,,,,,,,,,,,7,2.147,0,,,,,,0.129936306,-0.400521248,1,0,0,2.1474,Peridotite_rect,10,0,10,0,1,
5dd9f0e719eecb97dfab7b48,TCN,2024-06-20_15h28.35.992,LearnStrategy,2023.2.3,Win32,60.60606061,4,2,12,,,,,,,,7,08,,,,,,,,,,,4,4.366,0,,,,,,0.446786363,-0.262478307,1,0,0,4.3655,Gabbro_rect,11,0,11,0,1,
5dd9f0e719eecb97dfab7b48,TCN,2024-06-20_15h28.35.992,LearnStrategy,2023.2.3,Win32,60.60606061,4,2,13,,,,,,,,2,02,,,,,,,,,,,2,2.674,1,,,,,,-0.120208468,-0.236537355,1,0,0,2.6743,Basalt_rect,12,0,12,0,1,
5dd9f0e719eecb97dfab7b48,TCN,2024-06-20_15h28.35.992,LearnStrategy,2023.2.3,Win32,60.60606061,4,2,14,,,,,,,,6,07,,,,,,,,,,,3,3.374,0,,,,,,0.132715699,-0.254140127,1,0,0,3.3744,Diorite_rect,13,0,13,0,1,
5dd9f0e719eecb97dfab7b48,TCN,2024-06-20_15h28.35.992,LearnStrategy,2023.2.3,Win32,60.60606061,4,2,15,,,,,,,,4,10,,,,,,,,,,,4,6.61,1,,,,,,0.38008108,-0.255066618,1,0,0,6.6098,Gabbro_rect,14,0,14,0,1,
5dd9f0e719eecb97dfab7b48,TCN,2024-06-20_15h28.35.992,LearnStrategy,2023.2.3,Win32,60.60606061,4,2,16,,,,,,,,6,11,,,,,,,,,,,7,2.846,0,,,,,,0.141053879,-0.391256578,1,0,0,2.8464,Peridotite_rect,15,0,15,0,1,
5dd9f0e719eecb97dfab7b48,TCN,2024-06-20_15h28.35.992,LearnStrategy,2023.2.3,Win32,60.60606061,5,1,1,0.065084003,-0.008627689,1,0,0,2.9098,rock_grid_rect_2,1,01,-1,-1,2.91,0.127156912,-0.23375804,1,0,0,4.3169,Diorite_rect,3,4.317,0,0,0,0,0,1,,,,,,,,,,,,,
5dd9f0e719eecb97dfab7b48,TCN,2024-06-20_15h28.35.992,LearnStrategy,2023.2.3,Win32,60.60606061,5,1,2,0.05489292,-0.002142451,1,0,0,1.449,rock_grid_rect_2,3,09,-1,-1,1.449,0.112333533,-0.406079957,1,0,0,4.22,Peridotite_rect,7,4.22,0,1,0,1,0,1,,,,,,,,,,,,,
5dd9f0e719eecb97dfab7b48,TCN,2024-06-20_15h28.35.992,LearnStrategy,2023.2.3,Win32,60.60606061,5,1,3,0.056745823,-0.013259985,1,0,0,2.2662,rock_grid_rect_2,6,06,-1,-1,2.266,-0.088708729,-0.393109481,1,0,0,4.5979,Pegmatite_rect,6,4.598,1,2,0,2,0,1,,,,,,,,,,,,,
5dd9f0e719eecb97dfab7b48,TCN,2024-06-20_15h28.35.992,LearnStrategy,2023.2.3,Win32,60.60606061,5,1,4,0.093804349,-0.000289548,1,0,0,1.4987,rock_grid_rect_2,3,15,-1,-1,1.499,0.13456868,-0.386624282,1,0,0,1.5972,Peridotite_rect,7,1.597,0,3,0,3,0,1,,,,,,,,,,,,,
5dd9f0e719eecb97dfab7b48,TCN,2024-06-20_15h28.35.992,LearnStrategy,2023.2.3,Win32,60.60606061,5,1,5,0.084539678,-0.014186475,1,0,0,0.8828,rock_grid_rect_2,8,14,-1,-1,0.883,0.386566356,-0.410712253,1,0,0,1.9929,Pumice_rect,8,1.993,1,4,0,4,0,1,,,,,,,,,,,,,
5dd9f0e719eecb97dfab7b48,TCN,2024-06-20_15h28.35.992,LearnStrategy,2023.2.3,Win32,60.60606061,5,1,6,0.029878458,0.016386773,1,0,0,5.3829,rock_grid_rect_2,2,06,-1,-1,5.383,-0.109090817,-0.230978568,1,0,0,2.4201,Basalt_rect,2,2.42,1,5,0,5,0,1,,,,,,,,,,,,,
5dd9f0e719eecb97dfab7b48,TCN,2024-06-20_15h28.35.992,LearnStrategy,2023.2.3,Win32,60.60606061,5,1,7,0.052113527,-0.011407082,1,0,0,0.8818,rock_grid_rect_2,1,10,-1,-1,0.882,0.159583142,-0.238390336,1,0,0,5.2432,Diorite_rect,3,5.243,0,6,0,6,0,1,,,,,,,,,,,,,
5dd9f0e719eecb97dfab7b48,TCN,2024-06-20_15h28.35.992,LearnStrategy,2023.2.3,Win32,60.60606061,5,1,8,0.091024955,-0.003068902,1,0,0,1.4406,rock_grid_rect_2,7,10,-1,-1,1.441,0.145686175,-0.245802025,1,0,0,2.2588,Diorite_rect,3,2.259,0,7,0,7,0,1,,,,,,,,,,,,,
5dd9f0e719eecb97dfab7b48,TCN,2024-06-20_15h28.35.992,LearnStrategy,2023.2.3,Win32,60.60606061,5,1,9,0.069716299,0.001563394,1,0,0,0.8157,rock_grid_rect_2,4,11,-1,-1,0.816,0.122524616,-0.40793286,1,0,0,3.3123,Peridotite_rect,7,3.312,0,8,0,8,0,1,,,,,,,,,,,,,
5dd9f0e719eecb97dfab7b48,TCN,2024-06-20_15h28.35.992,LearnStrategy,2023.2.3,Win32,60.60606061,5,1,10,0.034510832,-0.01048063,1,0,0,2.0664,rock_grid_rect_2,2,05,-1,-1,2.066,-0.109090817,-0.230978568,1,0,0,1.3737,Basalt_rect,2,1.374,1,9,0,9,0,1,,,,,,,,,,,,,
5dd9f0e719eecb97dfab7b48,TCN,2024-06-20_15h28.35.992,LearnStrategy,2023.2.3,Win32,60.60606061,5,1,11,0.065084003,0.010828025,1,0,0,0.8331,rock_grid_rect_2,6,08,-1,-1,0.833,0.400463245,-0.244875535,1,0,0,4.9525,Gabbro_rect,4,4.953,0,10,0,10,0,1,,,,,,,,,,,,,
5dd9f0e719eecb97dfab7b48,TCN,2024-06-20_15h28.35.992,LearnStrategy,2023.2.3,Win32,60.60606061,5,1,12,0.085466169,-0.005848295,1,0,0,0.799,rock_grid_rect_2,8,08,-1,-1,0.799,0.43659528,-0.395888874,1,0,0,4.001,Pumice_rect,8,4.001,1,11,0,11,0,1,,,,,,,,,,,,,
5dd9f0e719eecb97dfab7b48,TCN,2024-06-20_15h28.35.992,LearnStrategy,2023.2.3,Win32,60.60606061,5,1,13,0.057672314,0.000636943,1,0,0,0.8491,rock_grid_rect_2,7,05,-1,-1,0.849,-0.088708729,-0.419050433,1,0,0,2.5364,Pegmatite_rect,6,2.536,0,12,0,12,0,1,,,,,,,,,,,,,
5dd9f0e719eecb97dfab7b48,TCN,2024-06-20_15h28.35.992,LearnStrategy,2023.2.3,Win32,60.60606061,5,1,14,0.04655474,-0.008627689,1,0,0,0.7794,rock_grid_rect_2,5,14,-1,-1,0.779,-0.363867965,-0.387550694,1,0,0,1.2363,Obsidian_rect,5,1.236,1,13,0,13,0,1,,,,,,,,,,,,,
5dd9f0e719eecb97dfab7b48,TCN,2024-06-20_15h28.35.992,LearnStrategy,2023.2.3,Win32,60.60606061,5,1,15,0.065084003,0.024724953,1,0,0,1.0322,rock_grid_rect_2,5,10,-1,-1,1.032,-0.354603334,-0.406079957,1,0,0,1.1111,Obsidian_rect,5,1.111,1,14,0,14,0,1,,,,,,,,,,,,,
5dd9f0e719eecb97dfab7b48,TCN,2024-06-20_15h28.35.992,LearnStrategy,2023.2.3,Win32,60.60606061,5,1,16,0.068789809,0.019166166,1,0,0,0.8989,rock_grid_rect_2,4,05,-1,-1,0.899,0.340243239,-0.240243239,1,0,0,6.9978,Gabbro_rect,4,6.998,1,15,0,15,0,1,,,,,,,,,,,,,
5dd9f0e719eecb97dfab7b48,TCN,2024-06-20_15h28.35.992,LearnStrategy,2023.2.3,Win32,60.60606061,5,2,1,,,,,,,,6,03,,,,,,,,,,,3,6.585,0,,,,,,0.161436044,-0.239316748,1,0,0,6.5849,Diorite_rect,0,0,0,0,1,
5dd9f0e719eecb97dfab7b48,TCN,2024-06-20_15h28.35.992,LearnStrategy,2023.2.3,Win32,60.60606061,5,2,2,,,,,,,,4,12,,,,,,,,,,,4,3.728,1,,,,,,0.437521771,-0.240243239,1,0,0,3.7278,Gabbro_rect,1,0,1,0,1,
5dd9f0e719eecb97dfab7b48,TCN,2024-06-20_15h28.35.992,LearnStrategy,2023.2.3,Win32,60.60606061,5,2,3,,,,,,,,3,07,,,,,,,,,,,7,3.42,0,,,,,,0.162362535,-0.403300564,1,0,0,3.4202,Peridotite_rect,2,0,2,0,1,
5dd9f0e719eecb97dfab7b48,TCN,2024-06-20_15h28.35.992,LearnStrategy,2023.2.3,Win32,60.60606061,5,2,4,,,,,,,,7,13,,,,,,,,,,,4,2.226,0,,,,,,0.424551217,-0.250434322,1,0,0,2.2264,Gabbro_rect,3,0,3,0,1,
5dd9f0e719eecb97dfab7b48,TCN,2024-06-20_15h28.35.992,LearnStrategy,2023.2.3,Win32,60.60606061,5,2,5,,,,,,,,3,08,,,,,,,,,,,1,2.566,0,,,,,,-0.387955975,-0.256919598,1,0,0,2.5661,Andesite_rect,4,0,4,0,1,
5dd9f0e719eecb97dfab7b48,TCN,2024-06-20_15h28.35.992,LearnStrategy,2023.2.3,Win32,60.60606061,5,2,6,,,,,,,,1,03,,,,,,,,,,,1,2.364,1,,,,,,-0.363867965,-0.246728438,1,0,0,2.3644,Andesite_rect,5,0,5,0,1,
5dd9f0e719eecb97dfab7b48,TCN,2024-06-20_15h28.35.992,LearnStrategy,2023.2.3,Win32,60.60606061,5,2,7,,,,,,,,1,06,,,,,,,,,,,1,1.483,1,,,,,,-0.368500261,-0.247655006,1,0,0,1.4834,Andesite_rect,6,0,6,0,1,
5dd9f0e719eecb97dfab7b48,TCN,2024-06-20_15h28.35.992,LearnStrategy,2023.2.3,Win32,60.60606061,5,2,8,,,,,,,,7,15,,,,,,,,,,,3,3.295,0,,,,,,0.153097865,-0.259698914,1,0,0,3.2952,Diorite_rect,7,0,7,0,1,
5dd9f0e719eecb97dfab7b48,TCN,2024-06-20_15h28.35.992,LearnStrategy,2023.2.3,Win32,60.60606061,5,2,9,,,,,,,,2,01,,,,,,,,,,,2,1.169,1,,,,,,-0.112796701,-0.243949045,1,0,0,1.1686,Basalt_rect,8,0,8,0,1,
5dd9f0e719eecb97dfab7b48,TCN,2024-06-20_15h28.35.992,LearnStrategy,2023.2.3,Win32,60.60606061,5,2,10,,,,,,,,2,09,,,,,,,,,,,2,1.694,1,,,,,,-0.096120419,-0.248581341,1,0,0,1.6945,Basalt_rect,9,0,9,0,1,
5dd9f0e719eecb97dfab7b48,TCN,2024-06-20_15h28.35.992,LearnStrategy,2023.2.3,Win32,60.60606061,5,2,11,,,,,,,,4,14,,,,,,,,,,,6,2.085,0,,,,,,-0.103532108,-0.402374073,1,0,0,2.0849,Pegmatite_rect,10,0,10,0,1,
5dd9f0e719eecb97dfab7b48,TCN,2024-06-20_15h28.35.992,LearnStrategy,2023.2.3,Win32,60.60606061,5,2,12,,,,,,,,5,06,,,,,,,,,,,5,1.36,1,,,,,,-0.384250131,-0.40793286,1,0,0,1.3596,Obsidian_rect,11,0,11,0,1,
5dd9f0e719eecb97dfab7b48,TCN,2024-06-20_15h28.35.992,LearnStrategy,2023.2.3,Win32,60.60606061,5,2,13,,,,,,,,6,13,,,,,,,,,,,6,2.356,1,,,,,,-0.074811763,-0.394035893,1,0,0,2.3556,Pegmatite_rect,12,0,12,0,1,
5dd9f0e719eecb97dfab7b48,TCN,2024-06-20_15h28.35.992,LearnStrategy,2023.2.3,Win32,60.60606061,5,2,14,,,,,,,,5,08,,,,,,,,,,,5,1.302,1,,,,,,-0.381470737,-0.396815287,1,0,0,1.3024,Obsidian_rect,13,0,13,0,1,
5dd9f0e719eecb97dfab7b48,TCN,2024-06-20_15h28.35.992,LearnStrategy,2023.2.3,Win32,60.60606061,5,2,15,,,,,,,,8,15,,,,,,,,,,,8,1.44,1,,,,,,0.412507309,-0.397741777,1,0,0,1.4405,Pumice_rect,14,0,14,0,1,
5dd9f0e719eecb97dfab7b48,TCN,2024-06-20_15h28.35.992,LearnStrategy,2023.2.3,Win32,60.60606061,5,2,16,,,,,,,,8,06,,,,,,,,,,,8,1.091,1,,,,,,0.38934575,-0.410712253,1,0,0,1.0906,Pumice_rect,15,0,15,0,1,
5dd9f0e719eecb97dfab7b48,TCN,2024-06-20_15h28.35.992,LearnStrategy,2023.2.3,Win32,60.60606061,6,1,1,0.057672314,0.008048632,1,0,0,2.0494,rock_grid_rect_2,5,12,-1,-1,2.049,-0.358309178,-0.412565156,1,0,0,1.3446,Obsidian_rect,5,1.345,1,0,0,0,0,1,,,,,,,,,,,,,
5dd9f0e719eecb97dfab7b48,TCN,2024-06-20_15h28.35.992,LearnStrategy,2023.2.3,Win32,60.60606061,6,1,2,0.05396643,-0.014186475,1,0,0,1.4814,rock_grid_rect_2,1,04,-1,-1,1.481,-0.355529785,-0.240243239,1,0,0,4.5141,Andesite_rect,1,4.514,1,1,0,1,0,1,,,,,,,,,,,,,
5dd9f0e719eecb97dfab7b48,TCN,2024-06-20_15h28.35.992,LearnStrategy,2023.2.3,Win32,60.60606061,6,1,3,0.072495693,-0.003068902,1,0,0,0.8157,rock_grid_rect_2,8,03,-1,-1,0.816,0.395830949,-0.387550694,1,0,0,1.3632,Pumice_rect,8,1.363,1,2,0,2,0,1,,,,,,,,,,,,,
5dd9f0e719eecb97dfab7b48,TCN,2024-06-20_15h28.35.992,LearnStrategy,2023.2.3,Win32,60.60606061,6,1,4,0.021540279,-0.003068902,1,0,0,0.8004,rock_grid_rect_2,4,01,-1,-1,0.8,0.147539078,-0.255066618,1,0,0,3.5797,Diorite_rect,3,3.58,0,3,0,3,0,1,,,,,,,,,,,,,
5dd9f0e719eecb97dfab7b48,TCN,2024-06-20_15h28.35.992,LearnStrategy,2023.2.3,Win32,60.60606061,6,1,5,0.099363057,-0.014186475,1,0,0,0.8156,rock_grid_rect_2,3,16,-1,-1,0.816,0.395830949,-0.234684452,1,0,0,4.6993,Gabbro_rect,4,4.699,0,4,0,4,0,1,,,,,,,,,,,,,
5dd9f0e719eecb97dfab7b48,TCN,2024-06-20_15h28.35.992,LearnStrategy,2023.2.3,Win32,60.60606061,6,1,6,0.100289548,0.009901535,1,0,0,1.3627,rock_grid_rect_2,6,10,-1,-1,1.363,0.387492769,-0.257846011,1,0,0,3.4616,Gabbro_rect,4,3.462,0,5,0,5,0,1,,,,,,,,,,,,,
5dd9f0e719eecb97dfab7b48,TCN,2024-06-20_15h28.35.992,LearnStrategy,2023.2.3,Win32,60.60606061,6,1,7,0.087319072,0.02194556,1,0,0,0.8494,rock_grid_rect_2,4,03,-1,-1,0.849,0.158656651,-0.246728438,1,0,0,1.8334,Diorite_rect,3,1.833,0,6,0,6,0,1,,,,,,,,,,,,,
5dd9f0e719eecb97dfab7b48,TCN,2024-06-20_15h28.35.992,LearnStrategy,2023.2.3,Win32,60.60606061,6,1,8,0.089171975,-0.007701237,1,0,0,0.8488,rock_grid_rect_2,1,05,-1,-1,0.849,-0.378691344,-0.246728438,1,0,0,1.6604,Andesite_rect,1,1.66,1,7,0,7,0,1,,,,,,,,,,,,,
5dd9f0e719eecb97dfab7b48,TCN,2024-06-20_15h28.35.992,LearnStrategy,2023.2.3,Win32,60.60606061,6,1,9,0.039143129,0.003416297,1,0,0,0.8996,rock_grid_rect_2,2,04,-1,-1,0.9,-0.099826225,-0.237463845,1,0,0,1.2959,Basalt_rect,2,1.296,1,8,0,8,0,1,,,,,,,,,,,,,
5dd9f0e719eecb97dfab7b48,TCN,2024-06-20_15h28.35.992,LearnStrategy,2023.2.3,Win32,60.60606061,6,1,10,0.053040017,0.012680928,1,0,0,0.9976,rock_grid_rect_2,5,07,-1,-1,0.998,-0.35182394,-0.413491646,1,0,0,1.0965,Obsidian_rect,5,1.096,1,9,0,9,0,1,,,,,,,,,,,,,
5dd9f0e719eecb97dfab7b48,TCN,2024-06-20_15h28.35.992,LearnStrategy,2023.2.3,Win32,60.60606061,6,1,11,0.039143129,0.01360738,1,0,0,0.849,rock_grid_rect_2,2,10,-1,-1,0.849,-0.108164405,-0.243949045,1,0,0,1.4823,Basalt_rect,2,1.482,1,10,0,10,0,1,,,,,,,,,,,,,
5dd9f0e719eecb97dfab7b48,TCN,2024-06-20_15h28.35.992,LearnStrategy,2023.2.3,Win32,60.60606061,6,1,12,0.05489292,-0.006774786,1,0,0,1.4322,rock_grid_rect_2,6,16,-1,-1,1.432,0.133642189,-0.398668267,1,0,0,4.2199,Peridotite_rect,7,4.22,0,11,0,11,0,1,,,,,,,,,,,,,
5dd9f0e719eecb97dfab7b48,TCN,2024-06-20_15h28.35.992,LearnStrategy,2023.2.3,Win32,60.60606061,6,1,13,0.072495693,-0.019745223,1,0,0,0.8317,rock_grid_rect_2,8,02,-1,-1,0.832,0.444007047,-0.410712253,1,0,0,1.7123,Pumice_rect,8,1.712,1,12,0,12,0,1,,,,,,,,,,,,,
5dd9f0e719eecb97dfab7b48,TCN,2024-06-20_15h28.35.992,LearnStrategy,2023.2.3,Win32,60.60606061,6,1,14,0.079907382,-0.005848295,1,0,0,0.7811,rock_grid_rect_2,7,07,-1,-1,0.781,-0.371279655,-0.248581341,1,0,0,1.7776,Andesite_rect,1,1.778,0,13,0,13,0,1,,,,,,,,,,,,,
5dd9f0e719eecb97dfab7b48,TCN,2024-06-20_15h28.35.992,LearnStrategy,2023.2.3,Win32,60.60606061,6,1,15,0.078054479,-0.000289548,1,0,0,0.7788,rock_grid_rect_2,3,10,-1,-1,0.779,0.390272162,-0.245802025,1,0,0,3.9494,Gabbro_rect,4,3.949,0,14,0,14,0,1,,,,,,,,,,,,,
5dd9f0e719eecb97dfab7b48,TCN,2024-06-20_15h28.35.992,LearnStrategy,2023.2.3,Win32,60.60606061,6,1,16,0.080833872,-0.004921844,1,0,0,1.5181,rock_grid_rect_2,7,06,-1,-1,1.518,0.418066095,-0.242096142,1,0,0,1.4282,Gabbro_rect,4,1.428,0,15,0,15,0,1,,,,,,,,,,,,,
5dd9f0e719eecb97dfab7b48,TCN,2024-06-20_15h28.35.992,LearnStrategy,2023.2.3,Win32,60.60606061,6,2,1,,,,,,,,4,13,,,,,,,,,,,3,4.763,0,,,,,,0.153097865,-0.235610942,1,0,0,4.7633,Diorite_rect,0,0,0,0,1,
5dd9f0e719eecb97dfab7b48,TCN,2024-06-20_15h28.35.992,LearnStrategy,2023.2.3,Win32,60.60606061,6,2,2,,,,,,,,6,09,,,,,,,,,,,6,1.843,1,,,,,,-0.116502584,-0.410712253,1,0,0,1.8427,Pegmatite_rect,1,0,1,0,1,
5dd9f0e719eecb97dfab7b48,TCN,2024-06-20_15h28.35.992,LearnStrategy,2023.2.3,Win32,60.60606061,6,2,3,,,,,,,,5,11,,,,,,,,,,,5,2.564,1,,,,,,-0.386103072,-0.400521248,1,0,0,2.5645,Obsidian_rect,2,0,2,0,1,
5dd9f0e719eecb97dfab7b48,TCN,2024-06-20_15h28.35.992,LearnStrategy,2023.2.3,Win32,60.60606061,6,2,4,,,,,,,,1,11,,,,,,,,,,,4,3.465,0,,,,,,0.398610342,-0.259698914,1,0,0,3.4652,Gabbro_rect,3,0,3,0,1,
5dd9f0e719eecb97dfab7b48,TCN,2024-06-20_15h28.35.992,LearnStrategy,2023.2.3,Win32,60.60606061,6,2,5,,,,,,,,2,11,,,,,,,,,,,8,3.808,0,,,,,,0.420845566,-0.405153544,1,0,0,3.8078,Pumice_rect,4,0,4,0,1,
5dd9f0e719eecb97dfab7b48,TCN,2024-06-20_15h28.35.992,LearnStrategy,2023.2.3,Win32,60.60606061,6,2,6,,,,,,,,3,14,,,,,,,,,,,7,2.057,0,,,,,,0.133642189,-0.397741777,1,0,0,2.0569,Peridotite_rect,5,0,5,0,1,
5dd9f0e719eecb97dfab7b48,TCN,2024-06-20_15h28.35.992,LearnStrategy,2023.2.3,Win32,60.60606061,6,2,7,,,,,,,,8,04,,,,,,,,,,,8,1.778,1,,,,,,0.396757439,-0.398668267,1,0,0,1.7777,Pumice_rect,6,0,6,0,1,
5dd9f0e719eecb97dfab7b48,TCN,2024-06-20_15h28.35.992,LearnStrategy,2023.2.3,Win32,60.60606061,6,2,8,,,,,,,,3,02,,,,,,,,,,,3,2.347,1,,,,,,0.150318471,-0.239316748,1,0,0,2.3471,Diorite_rect,7,0,7,0,1,
5dd9f0e719eecb97dfab7b48,TCN,2024-06-20_15h28.35.992,LearnStrategy,2023.2.3,Win32,60.60606061,6,2,9,,,,,,,,5,09,,,,,,,,,,,5,1.332,1,,,,,,-0.387955975,-0.398668267,1,0,0,1.332,Obsidian_rect,8,0,8,0,1,
5dd9f0e719eecb97dfab7b48,TCN,2024-06-20_15h28.35.992,LearnStrategy,2023.2.3,Win32,60.60606061,6,2,10,,,,,,,,6,15,,,,,,,,,,,6,1.58,1,,,,,,-0.101679205,-0.39959468,1,0,0,1.5799,Pegmatite_rect,9,0,9,0,1,
5dd9f0e719eecb97dfab7b48,TCN,2024-06-20_15h28.35.992,LearnStrategy,2023.2.3,Win32,60.60606061,6,2,11,,,,,,,,4,09,,,,,,,,,,,2,7.216,0,,,,,,-0.111870288,-0.229125743,1,0,0,7.2158,Basalt_rect,10,0,10,0,1,
5dd9f0e719eecb97dfab7b48,TCN,2024-06-20_15h28.35.992,LearnStrategy,2023.2.3,Win32,60.60606061,6,2,12,,,,,,,,7,14,,,,,,,,,,,4,5.239,0,,,,,,0.396757439,-0.239316748,1,0,0,5.2394,Gabbro_rect,11,0,11,0,1,
5dd9f0e719eecb97dfab7b48,TCN,2024-06-20_15h28.35.992,LearnStrategy,2023.2.3,Win32,60.60606061,6,2,13,,,,,,,,7,12,,,,,,,,,,,1,1.724,0,,,,,,-0.393514762,-0.261551895,1,0,0,1.7235,Andesite_rect,12,0,12,0,1,
5dd9f0e719eecb97dfab7b48,TCN,2024-06-20_15h28.35.992,LearnStrategy,2023.2.3,Win32,60.60606061,6,2,14,,,,,,,,1,14,,,,,,,,,,,3,3.01,0,,,,,,0.13456868,-0.252287302,1,0,0,3.0101,Diorite_rect,13,0,13,0,1,
5dd9f0e719eecb97dfab7b48,TCN,2024-06-20_15h28.35.992,LearnStrategy,2023.2.3,Win32,60.60606061,6,2,15,,,,,,,,8,10,,,,,,,,,,,8,1.289,1,,,,,,0.418992586,-0.406079957,1,0,0,1.2894,Pumice_rect,14,0,14,0,1,
5dd9f0e719eecb97dfab7b48,TCN,2024-06-20_15h28.35.992,LearnStrategy,2023.2.3,Win32,60.60606061,6,2,16,,,,,,,,2,12,,,,,,,,,,,8,2.217,0,,,,,,0.391198653,-0.385697791,1,0,0,2.2173,Pumice_rect,15,0,15,0,1,
5dd9f0e719eecb97dfab7b48,TCN,2024-06-20_15h28.35.992,LearnStrategy,2023.2.3,Win32,60.60606061,7,1,1,0.032657852,-0.011407082,1,0,0,1.0971,rock_grid_rect_2,6,16,-1,-1,1.097,-0.077591156,-0.385697791,1,0,0,3.5892,Pegmatite_rect,6,3.589,1,0,0,0,0,1,,,,,,,,,,,,,
5dd9f0e719eecb97dfab7b48,TCN,2024-06-20_15h28.35.992,LearnStrategy,2023.2.3,Win32,60.60606061,7,1,2,0.069716299,-0.002142451,1,0,0,0.8526,rock_grid_rect_2,6,08,-1,-1,0.853,0.127156912,-0.381991985,1,0,0,1.6727,Peridotite_rect,7,1.673,0,1,0,1,0,1,,,,,,,,,,,,,
5dd9f0e719eecb97dfab7b48,TCN,2024-06-20_15h28.35.992,LearnStrategy,2023.2.3,Win32,60.60606061,7,1,3,0.05489292,0.00619569,1,0,0,0.8029,rock_grid_rect_2,8,08,-1,-1,0.803,0.38193406,-0.402374073,1,0,0,1.3729,Pumice_rect,8,1.373,1,2,0,2,0,1,,,,,,,,,,,,,
5dd9f0e719eecb97dfab7b48,TCN,2024-06-20_15h28.35.992,LearnStrategy,2023.2.3,Win32,60.60606061,7,1,4,0.066936906,0.002489846,1,0,0,1.6651,rock_grid_rect_2,5,07,-1,-1,1.665,-0.377764893,-0.391256578,1,0,0,1.3674,Obsidian_rect,5,1.367,1,3,0,3,0,1,,,,,,,,,,,,,
5dd9f0e719eecb97dfab7b48,TCN,2024-06-20_15h28.35.992,LearnStrategy,2023.2.3,Win32,60.60606061,7,1,5,0.067863396,0.00619569,1,0,0,0.8989,rock_grid_rect_2,1,04,-1,-1,0.899,-0.387029524,-0.231905059,1,0,0,2.0457,Andesite_rect,1,2.046,1,4,0,4,0,1,,,,,,,,,,,,,
5dd9f0e719eecb97dfab7b48,TCN,2024-06-20_15h28.35.992,LearnStrategy,2023.2.3,Win32,60.60606061,7,1,6,0.047481231,0.012680928,1,0,0,0.7471,rock_grid_rect_2,2,08,-1,-1,0.747,-0.097973322,-0.23375804,1,0,0,1.7959,Basalt_rect,2,1.796,1,5,0,5,0,1,,,,,,,,,,,,,
5dd9f0e719eecb97dfab7b48,TCN,2024-06-20_15h28.35.992,LearnStrategy,2023.2.3,Win32,60.60606061,7,1,7,0.064157513,-0.000289548,1,0,0,1.4317,rock_grid_rect_2,4,08,-1,-1,1.432,0.152171452,-0.240243239,1,0,0,4.4138,Diorite_rect,3,4.414,0,6,0,6,0,1,,,,,,,,,,,,,
5dd9f0e719eecb97dfab7b48,TCN,2024-06-20_15h28.35.992,LearnStrategy,2023.2.3,Win32,60.60606061,7,1,8,0.061378119,-0.007701237,1,0,0,0.8654,rock_grid_rect_2,7,04,-1,-1,0.865,0.409727915,-0.240243239,1,0,0,2.4632,Gabbro_rect,4,2.463,0,7,0,7,0,1,,,,,,,,,,,,,
5dd9f0e719eecb97dfab7b48,TCN,2024-06-20_15h28.35.992,LearnStrategy,2023.2.3,Win32,60.60606061,7,1,9,0.089171975,-0.013259985,1,0,0,0.7819,rock_grid_rect_2,7,07,-1,-1,0.782,0.153097865,-0.258772424,1,0,0,2.3784,Diorite_rect,3,2.378,0,8,0,8,0,1,,,,,,,,,,,,,
5dd9f0e719eecb97dfab7b48,TCN,2024-06-20_15h28.35.992,LearnStrategy,2023.2.3,Win32,60.60606061,7,1,10,0.066010416,-0.003068902,1,0,0,0.8035,rock_grid_rect_2,8,03,-1,-1,0.803,0.37266939,-0.405153544,1,0,0,1.2125,Pumice_rect,8,1.213,1,9,0,9,0,1,,,,,,,,,,,,,
5dd9f0e719eecb97dfab7b48,TCN,2024-06-20_15h28.35.992,LearnStrategy,2023.2.3,Win32,60.60606061,7,1,11,0.05396643,0.001563394,1,0,0,0.8663,rock_grid_rect_2,4,03,-1,-1,0.866,-0.108164405,-0.248581341,1,0,0,2.4205,Basalt_rect,2,2.42,0,10,0,10,0,1,,,,,,,,,,,,,
5dd9f0e719eecb97dfab7b48,TCN,2024-06-20_15h28.35.992,LearnStrategy,2023.2.3,Win32,60.60606061,7,1,12,0.047481231,0.001563394,1,0,0,0.7653,rock_grid_rect_2,5,14,-1,-1,0.765,-0.374985499,-0.415344549,1,0,0,2.2967,Obsidian_rect,5,2.297,1,11,0,11,0,1,,,,,,,,,,,,,
5dd9f0e719eecb97dfab7b48,TCN,2024-06-20_15h28.35.992,LearnStrategy,2023.2.3,Win32,60.60606061,7,1,13,0.069716299,-0.000289548,1,0,0,2.2988,rock_grid_rect_2,3,16,-1,-1,2.299,0.153097865,-0.40885935,1,0,0,8.7126,Peridotite_rect,7,8.713,0,12,0,12,0,1,,,,,,,,,,,,,
5dd9f0e719eecb97dfab7b48,TCN,2024-06-20_15h28.35.992,LearnStrategy,2023.2.3,Win32,60.60606061,7,1,14,0.094730761,-0.012333533,1,0,0,0.7753,rock_grid_rect_2,1,01,-1,-1,0.775,0.401389736,-0.254140127,1,0,0,2.9023,Gabbro_rect,4,2.902,0,13,0,13,0,1,,,,,,,,,,,,,
5dd9f0e719eecb97dfab7b48,TCN,2024-06-20_15h28.35.992,LearnStrategy,2023.2.3,Win32,60.60606061,7,1,15,0.050260624,-0.01048063,1,0,0,2.1318,rock_grid_rect_2,3,15,-1,-1,2.132,0.136421583,-0.251360734,1,0,0,2.1115,Diorite_rect,3,2.111,1,14,0,14,0,1,,,,,,,,,,,,,
5dd9f0e719eecb97dfab7b48,TCN,2024-06-20_15h28.35.992,LearnStrategy,2023.2.3,Win32,60.60606061,7,1,16,0.071569202,-0.022524616,1,0,0,0.7989,rock_grid_rect_2,2,06,-1,-1,0.799,-0.111870288,-0.249507831,1,0,0,1.6654,Basalt_rect,2,1.665,1,15,0,15,0,1,,,,,,,,,,,,,
5dd9f0e719eecb97dfab7b48,TCN,2024-06-20_15h28.35.992,LearnStrategy,2023.2.3,Win32,60.60606061,7,2,1,,,,,,,,8,15,,,,,,,,,,,8,2.094,1,,,,,,0.407874935,-0.390330087,1,0,0,2.0945,Pumice_rect,0,0,0,0,1,
5dd9f0e719eecb97dfab7b48,TCN,2024-06-20_15h28.35.992,LearnStrategy,2023.2.3,Win32,60.60606061,7,2,2,,,,,,,,7,16,,,,,,,,,,,7,3.586,1,,,,,,0.100289548,-0.395888874,1,0,0,3.5865,Peridotite_rect,1,0,1,0,1,
5dd9f0e719eecb97dfab7b48,TCN,2024-06-20_15h28.35.992,LearnStrategy,2023.2.3,Win32,60.60606061,7,2,3,,,,,,,,2,16,,,,,,,,,,,2,3.989,1,,,,,,-0.113723113,-0.228199175,1,0,0,3.9889,Basalt_rect,2,0,2,0,1,
5dd9f0e719eecb97dfab7b48,TCN,2024-06-20_15h28.35.992,LearnStrategy,2023.2.3,Win32,60.60606061,7,2,4,,,,,,,,3,14,,,,,,,,,,,1,1.778,0,,,,,,-0.373132596,-0.23375804,1,0,0,1.7784,Andesite_rect,3,0,3,0,1,
5dd9f0e719eecb97dfab7b48,TCN,2024-06-20_15h28.35.992,LearnStrategy,2023.2.3,Win32,60.60606061,7,2,5,,,,,,,,1,06,,,,,,,,,,,4,4.628,0,,,,,,0.393051711,-0.259698914,1,0,0,4.6283,Gabbro_rect,4,0,4,0,1,
5dd9f0e719eecb97dfab7b48,TCN,2024-06-20_15h28.35.992,LearnStrategy,2023.2.3,Win32,60.60606061,7,2,6,,,,,,,,8,10,,,,,,,,,,,8,1.102,1,,,,,,0.361551895,-0.386624282,1,0,0,1.1022,Pumice_rect,5,0,5,0,1,
5dd9f0e719eecb97dfab7b48,TCN,2024-06-20_15h28.35.992,LearnStrategy,2023.2.3,Win32,60.60606061,7,2,7,,,,,,,,6,03,,,,,,,,,,,7,1.433,0,,,,,,0.17348003,-0.39959468,1,0,0,1.4334,Peridotite_rect,6,0,6,0,1,
5dd9f0e719eecb97dfab7b48,TCN,2024-06-20_15h28.35.992,LearnStrategy,2023.2.3,Win32,60.60606061,7,2,8,,,,,,,,5,09,,,,,,,,,,,5,1.598,1,,,,,,-0.384250131,-0.401447661,1,0,0,1.5978,Obsidian_rect,7,0,7,0,1,
5dd9f0e719eecb97dfab7b48,TCN,2024-06-20_15h28.35.992,LearnStrategy,2023.2.3,Win32,60.60606061,7,2,9,,,,,,,,4,13,,,,,,,,,,,1,4.09,0,,,,,,-0.359235669,-0.241169651,1,0,0,4.0902,Andesite_rect,8,0,8,0,1,
5dd9f0e719eecb97dfab7b48,TCN,2024-06-20_15h28.35.992,LearnStrategy,2023.2.3,Win32,60.60606061,7,2,10,,,,,,,,6,09,,,,,,,,,,,3,3.244,0,,,,,,0.136421583,-0.248581341,1,0,0,3.244,Diorite_rect,9,0,9,0,1,
5dd9f0e719eecb97dfab7b48,TCN,2024-06-20_15h28.35.992,LearnStrategy,2023.2.3,Win32,60.60606061,7,2,11,,,,,,,,5,11,,,,,,,,,,,5,1.398,1,,,,,,-0.382397189,-0.402374073,1,0,0,1.398,Obsidian_rect,10,0,10,0,1,
5dd9f0e719eecb97dfab7b48,TCN,2024-06-20_15h28.35.992,LearnStrategy,2023.2.3,Win32,60.60606061,7,2,12,,,,,,,,4,09,,,,,,,,,,,2,5.031,0,,,,,,-0.107237992,-0.241169651,1,0,0,5.0305,Basalt_rect,11,0,11,0,1,
5dd9f0e719eecb97dfab7b48,TCN,2024-06-20_15h28.35.992,LearnStrategy,2023.2.3,Win32,60.60606061,7,2,13,,,,,,,,3,11,,,,,,,,,,,4,3.227,0,,,,,,0.4069486,-0.255066618,1,0,0,3.2266,Gabbro_rect,12,0,12,0,1,
5dd9f0e719eecb97dfab7b48,TCN,2024-06-20_15h28.35.992,LearnStrategy,2023.2.3,Win32,60.60606061,7,2,14,,,,,,,,2,02,,,,,,,,,,,2,2.217,1,,,,,,-0.117429075,-0.251360734,1,0,0,2.2166,Basalt_rect,13,0,13,0,1,
5dd9f0e719eecb97dfab7b48,TCN,2024-06-20_15h28.35.992,LearnStrategy,2023.2.3,Win32,60.60606061,7,2,15,,,,,,,,7,12,,,,,,,,,,,1,1.974,0,,,,,,-0.385176582,-0.253213715,1,0,0,1.9743,Andesite_rect,14,0,14,0,1,
5dd9f0e719eecb97dfab7b48,TCN,2024-06-20_15h28.35.992,LearnStrategy,2023.2.3,Win32,60.60606061,7,2,16,,,,,,,,1,11,,,,,,,,,,,4,3.998,0,,,,,,0.431962984,-0.246728438,1,0,0,3.998,Gabbro_rect,15,0,15,0,1,
5dd9f0e719eecb97dfab7b48,TCN,2024-06-20_15h28.35.992,LearnStrategy,2023.2.3,Win32,60.60606061,8,1,1,0.089171975,-0.007701237,1,0,0,1.2364,rock_grid_rect_2,6,06,-1,-1,1.236,0.165141928,-0.250434322,1,0,0,4.3711,Diorite_rect,3,4.371,0,0,0,0,0,1,,,,,,,,,,,,,
5dd9f0e719eecb97dfab7b48,TCN,2024-06-20_15h28.35.992,LearnStrategy,2023.2.3,Win32,60.60606061,8,1,2,0.100289548,-0.006774786,1,0,0,0.7987,rock_grid_rect_2,2,05,-1,-1,0.799,-0.101679205,-0.254140127,1,0,0,1.3227,Basalt_rect,2,1.323,1,1,0,1,0,1,,,,,,,,,,,,,
5dd9f0e719eecb97dfab7b48,TCN,2024-06-20_15h28.35.992,LearnStrategy,2023.2.3,Win32,60.60606061,8,1,3,0.056745823,-0.003995392,1,0,0,0.8479,rock_grid_rect_2,5,04,-1,-1,0.848,-0.370353203,-0.402374073,1,0,0,1.8973,Obsidian_rect,5,1.897,1,2,0,2,0,1,,,,,,,,,,,,,
5dd9f0e719eecb97dfab7b48,TCN,2024-06-20_15h28.35.992,LearnStrategy,2023.2.3,Win32,60.60606061,8,1,4,0.044701837,0.012680928,1,0,0,0.9829,rock_grid_rect_2,2,14,-1,-1,0.983,0.393051711,-0.404226976,1,0,0,2.7029,Pumice_rect,8,2.703,0,3,0,3,0,1,,,,,,,,,,,,,
5dd9f0e719eecb97dfab7b48,TCN,2024-06-20_15h28.35.992,LearnStrategy,2023.2.3,Win32,60.60606061,8,1,5,0.064157513,-0.020671713,1,0,0,0.8824,rock_grid_rect_2,3,10,-1,-1,0.882,0.145686175,-0.243022632,1,0,0,5.5187,Diorite_rect,3,5.519,1,4,0,4,0,1,,,,,,,,,,,,,
5dd9f0e719eecb97dfab7b48,TCN,2024-06-20_15h28.35.992,LearnStrategy,2023.2.3,Win32,60.60606061,8,1,6,0.072495693,-0.014186475,1,0,0,0.8312,rock_grid_rect_2,3,09,-1,-1,0.831,-0.345338702,-0.237463845,1,0,0,2.9676,Andesite_rect,1,2.968,0,5,0,5,0,1,,,,,,,,,,,,,
5dd9f0e719eecb97dfab7b48,TCN,2024-06-20_15h28.35.992,LearnStrategy,2023.2.3,Win32,60.60606061,8,1,7,0.078054479,0.002489846,1,0,0,0.7687,rock_grid_rect_2,4,05,-1,-1,0.769,0.412507309,-0.259698914,1,0,0,3.2404,Gabbro_rect,4,3.24,1,6,0,6,0,1,,,,,,,,,,,,,
5dd9f0e719eecb97dfab7b48,TCN,2024-06-20_15h28.35.992,LearnStrategy,2023.2.3,Win32,60.60606061,8,1,8,0.086392581,-0.003068902,1,0,0,0.7934,rock_grid_rect_2,6,12,-1,-1,0.793,-0.102605618,-0.39959468,1,0,0,1.917,Pegmatite_rect,6,1.917,1,7,0,7,0,1,,,,,,,,,,,,,
5dd9f0e719eecb97dfab7b48,TCN,2024-06-20_15h28.35.992,LearnStrategy,2023.2.3,Win32,60.60606061,8,1,9,0.091951368,0.002489846,1,0,0,2.2149,rock_grid_rect_2,1,10,-1,-1,2.215,0.148465568,-0.258772424,1,0,0,3.5656,Diorite_rect,3,3.566,0,8,0,8,0,1,,,,,,,,,,,,,
5dd9f0e719eecb97dfab7b48,TCN,2024-06-20_15h28.35.992,LearnStrategy,2023.2.3,Win32,60.60606061,8,1,10,0.077127989,-0.000289548,1,0,0,1.366,rock_grid_rect_2,8,16,-1,-1,1.366,0.387492769,-0.420903336,1,0,0,1.216,Pumice_rect,8,1.216,1,9,0,9,0,1,,,,,,,,,,,,,
5dd9f0e719eecb97dfab7b48,TCN,2024-06-20_15h28.35.992,LearnStrategy,2023.2.3,Win32,60.60606061,8,1,11,0.061378119,-0.005848295,1,0,0,0.7999,rock_grid_rect_2,1,16,-1,-1,0.8,-0.373132596,-0.234684452,1,0,0,3.2416,Andesite_rect,1,3.242,1,10,0,10,0,1,,,,,,,,,,,,,
5dd9f0e719eecb97dfab7b48,TCN,2024-06-20_15h28.35.992,LearnStrategy,2023.2.3,Win32,60.60606061,8,1,12,0.056745823,-0.00955414,1,0,0,2.0826,rock_grid_rect_2,4,01,-1,-1,2.083,0.145686175,-0.419050433,1,0,0,2.1945,Peridotite_rect,7,2.195,0,11,0,11,0,1,,,,,,,,,,,,,
5dd9f0e719eecb97dfab7b48,TCN,2024-06-20_15h28.35.992,LearnStrategy,2023.2.3,Win32,60.60606061,8,1,13,0.108627728,-0.013259985,1,0,0,1.2662,rock_grid_rect_2,7,05,-1,-1,1.266,0.161436044,-0.246728438,1,0,0,2.877,Diorite_rect,3,2.877,0,12,0,12,0,1,,,,,,,,,,,,,
5dd9f0e719eecb97dfab7b48,TCN,2024-06-20_15h28.35.992,LearnStrategy,2023.2.3,Win32,60.60606061,8,1,14,0.104921844,-0.007701237,1,0,0,0.7506,rock_grid_rect_2,7,10,-1,-1,0.751,0.231847134,-0.397741777,1,0,0,2.198,Peridotite_rect,7,2.198,1,13,0,13,0,1,,,,,,,,,,,,,
5dd9f0e719eecb97dfab7b48,TCN,2024-06-20_15h28.35.992,LearnStrategy,2023.2.3,Win32,60.60606061,8,1,15,0.083613266,-0.013259985,1,0,0,2.4191,rock_grid_rect_2,8,09,-1,-1,2.419,0.397684007,-0.421829826,1,0,0,1.067,Pumice_rect,8,1.067,1,14,0,14,0,1,,,,,,,,,,,,,
5dd9f0e719eecb97dfab7b48,TCN,2024-06-20_15h28.35.992,LearnStrategy,2023.2.3,Win32,60.60606061,8,1,16,0.100289548,-0.003995392,1,0,0,2.262,rock_grid_rect_2,5,02,-1,-1,2.262,-0.379617834,-0.40978584,1,0,0,1.0842,Obsidian_rect,5,1.084,1,15,0,15,0,1,,,,,,,,,,,,,
5dd9f0e719eecb97dfab7b48,TCN,2024-06-20_15h28.35.992,LearnStrategy,2023.2.3,Win32,60.60606061,8,2,1,,,,,,,,8,04,,,,,,,,,,,4,58.41,0,,,,,,0.395830949,-0.253213715,1,0,0,58.4101,Gabbro_rect,0,0,0,0,1,
5dd9f0e719eecb97dfab7b48,TCN,2024-06-20_15h28.35.992,LearnStrategy,2023.2.3,Win32,60.60606061,8,2,2,,,,,,,,7,14,,,,,,,,,,,7,1.942,1,,,,,,0.161436044,-0.407006369,1,0,0,1.9419,Peridotite_rect,1,0,1,0,1,
5dd9f0e719eecb97dfab7b48,TCN,2024-06-20_15h28.35.992,LearnStrategy,2023.2.3,Win32,60.60606061,8,2,3,,,,,,,,1,03,,,,,,,,,,,3,3.762,0,,,,,,0.161436044,-0.236537355,1,0,0,3.7619,Diorite_rect,2,0,2,0,1,
5dd9f0e719eecb97dfab7b48,TCN,2024-06-20_15h28.35.992,LearnStrategy,2023.2.3,Win32,60.60606061,8,2,4,,,,,,,,2,01,,,,,,,,,,,2,1.83,1,,,,,,-0.118355487,-0.239316748,1,0,0,1.8302,Basalt_rect,3,0,3,0,1,
5dd9f0e719eecb97dfab7b48,TCN,2024-06-20_15h28.35.992,LearnStrategy,2023.2.3,Win32,60.60606061,8,2,5,,,,,,,,3,07,,,,,,,,,,,1,3.628,0,,,,,,-0.376838441,-0.252287302,1,0,0,3.6283,Andesite_rect,4,0,4,0,1,
5dd9f0e719eecb97dfab7b48,TCN,2024-06-20_15h28.35.992,LearnStrategy,2023.2.3,Win32,60.60606061,8,2,6,,,,,,,,5,08,,,,,,,,,,,5,1.139,1,,,,,,-0.366647358,-0.395888874,1,0,0,1.1392,Obsidian_rect,5,0,5,0,1,
5dd9f0e719eecb97dfab7b48,TCN,2024-06-20_15h28.35.992,LearnStrategy,2023.2.3,Win32,60.60606061,8,2,7,,,,,,,,3,06,,,,,,,,,,,6,2.748,0,,,,,,-0.090561555,-0.414418137,1,0,0,2.7484,Pegmatite_rect,6,0,6,0,1,
5dd9f0e719eecb97dfab7b48,TCN,2024-06-20_15h28.35.992,LearnStrategy,2023.2.3,Win32,60.60606061,8,2,8,,,,,,,,4,12,,,,,,,,,,,4,2.886,1,,,,,,0.377301686,-0.237463845,1,0,0,2.8859,Gabbro_rect,7,0,7,0,1,
5dd9f0e719eecb97dfab7b48,TCN,2024-06-20_15h28.35.992,LearnStrategy,2023.2.3,Win32,60.60606061,8,2,9,,,,,,,,1,07,,,,,,,,,,,1,2.144,1,,,,,,-0.400926451,-0.268037094,1,0,0,2.1436,Andesite_rect,8,0,8,0,1,
5dd9f0e719eecb97dfab7b48,TCN,2024-06-20_15h28.35.992,LearnStrategy,2023.2.3,Win32,60.60606061,8,2,10,,,,,,,,2,11,,,,,,,,,,,3,3.193,0,,,,,,0.133642189,-0.245802025,1,0,0,3.1931,Diorite_rect,9,0,9,0,1,
5dd9f0e719eecb97dfab7b48,TCN,2024-06-20_15h28.35.992,LearnStrategy,2023.2.3,Win32,60.60606061,8,2,11,,,,,,,,8,06,,,,,,,,,,,8,1.241,1,,,,,,0.451418659,-0.412565156,1,0,0,1.2406,Pumice_rect,10,0,10,0,1,
5dd9f0e719eecb97dfab7b48,TCN,2024-06-20_15h28.35.992,LearnStrategy,2023.2.3,Win32,60.60606061,8,2,12,,,,,,,,4,16,,,,,,,,,,,3,2.499,0,,,,,,0.1262305,-0.237463845,1,0,0,2.4995,Diorite_rect,11,0,11,0,1,
5dd9f0e719eecb97dfab7b48,TCN,2024-06-20_15h28.35.992,LearnStrategy,2023.2.3,Win32,60.60606061,8,2,13,,,,,,,,5,16,,,,,,,,,,,5,1.315,1,,,,,,-0.389808917,-0.395888874,1,0,0,1.3146,Obsidian_rect,12,0,12,0,1,
5dd9f0e719eecb97dfab7b48,TCN,2024-06-20_15h28.35.992,LearnStrategy,2023.2.3,Win32,60.60606061,8,2,14,,,,,,,,6,07,,,,,,,,,,,7,4.733,0,,,,,,0.150318471,-0.410712253,1,0,0,4.7329,Peridotite_rect,13,0,13,0,1,
5dd9f0e719eecb97dfab7b48,TCN,2024-06-20_15h28.35.992,LearnStrategy,2023.2.3,Win32,60.60606061,8,2,15,,,,,,,,6,15,,,,,,,,,,,7,0.987,0,,,,,,0.159583142,-0.393109481,1,0,0,0.9875,Peridotite_rect,14,0,14,0,1,
5dd9f0e719eecb97dfab7b48,TCN,2024-06-20_15h28.35.992,LearnStrategy,2023.2.3,Win32,60.60606061,8,2,16,,,,,,,,7,08,,,,,,,,,,,6,2.924,0,,,,,,-0.149855226,-0.414418137,1,0,0,2.9237,Pegmatite_rect,15,0,15,0,1,
5dd9f0e719eecb97dfab7b48,TCN,2024-06-20_15h28.35.992,LearnStrategy,2023.2.3,Win32,60.60606061,9,1,1,0.047481231,0.004342787,1,0,0,1.4338,rock_grid_rect_2,1,05,-1,-1,1.434,-0.383323679,-0.255993108,1,0,0,1.3001,Andesite_rect,1,1.3,1,0,0,0,0,1,,,,,,,,,,,,,
5dd9f0e719eecb97dfab7b48,TCN,2024-06-20_15h28.35.992,LearnStrategy,2023.2.3,Win32,60.60606061,9,1,2,0.043775425,-0.004921844,1,0,0,1.5194,rock_grid_rect_2,5,10,-1,-1,1.519,-0.352750431,-0.402374073,1,0,0,1.1217,Obsidian_rect,5,1.122,1,1,0,1,0,1,,,,,,,,,,,,,
5dd9f0e719eecb97dfab7b48,TCN,2024-06-20_15h28.35.992,LearnStrategy,2023.2.3,Win32,60.60606061,9,1,3,0.056745823,-0.021598165,1,0,0,1.4388,rock_grid_rect_2,8,14,-1,-1,1.439,0.376375274,-0.39959468,1,0,0,1.3061,Pumice_rect,8,1.306,1,2,0,2,0,1,,,,,,,,,,,,,
5dd9f0e719eecb97dfab7b48,TCN,2024-06-20_15h28.35.992,LearnStrategy,2023.2.3,Win32,60.60606061,9,1,4,0.055819333,-0.002142451,1,0,0,0.8152,rock_grid_rect_2,7,06,-1,-1,0.815,0.148465568,-0.401447661,1,0,0,3.4573,Peridotite_rect,7,3.457,1,3,0,3,0,1,,,,,,,,,,,,,
5dd9f0e719eecb97dfab7b48,TCN,2024-06-20_15h28.35.992,LearnStrategy,2023.2.3,Win32,60.60606061,9,1,5,0.074348595,-0.014186475,1,0,0,1.9661,rock_grid_rect_2,4,15,-1,-1,1.966,0.151244962,-0.259698914,1,0,0,2.5432,Diorite_rect,3,2.543,0,4,0,4,0,1,,,,,,,,,,,,,
5dd9f0e719eecb97dfab7b48,TCN,2024-06-20_15h28.35.992,LearnStrategy,2023.2.3,Win32,60.60606061,9,1,6,0.071569202,-0.01048063,1,0,0,1.3166,rock_grid_rect_2,3,13,-1,-1,1.317,-0.116502584,-0.413491646,1,0,0,1.9616,Pegmatite_rect,6,1.962,0,5,0,5,0,1,,,,,,,,,,,,,
5dd9f0e719eecb97dfab7b48,TCN,2024-06-20_15h28.35.992,LearnStrategy,2023.2.3,Win32,60.60606061,9,1,7,0.080833872,-0.000289548,1,0,0,0.7298,rock_grid_rect_2,8,02,-1,-1,0.73,0.420845566,-0.402374073,1,0,0,2.6834,Pumice_rect,8,2.683,1,6,0,6,0,1,,,,,,,,,,,,,
5dd9f0e719eecb97dfab7b48,TCN,2024-06-20_15h28.35.992,LearnStrategy,2023.2.3,Win32,60.60606061,9,1,8,0.049334134,-0.001215999,1,0,0,1.3319,rock_grid_rect_2,6,10,-1,-1,1.332,0.116039417,-0.40885935,1,0,0,1.9656,Peridotite_rect,7,1.966,0,7,0,7,0,1,,,,,,,,,,,,,
5dd9f0e719eecb97dfab7b48,TCN,2024-06-20_15h28.35.992,LearnStrategy,2023.2.3,Win32,60.60606061,9,1,9,0.083613266,-0.01048063,1,0,0,0.7664,rock_grid_rect_2,7,02,-1,-1,0.766,-0.086855826,-0.400521248,1,0,0,3.0143,Pegmatite_rect,6,3.014,0,8,0,8,0,1,,,,,,,,,,,,,
5dd9f0e719eecb97dfab7b48,TCN,2024-06-20_15h28.35.992,LearnStrategy,2023.2.3,Win32,60.60606061,9,1,10,0.093804349,-0.014186475,1,0,0,0.849,rock_grid_rect_2,4,11,-1,-1,0.849,0.408801425,-0.267110603,1,0,0,2.1526,Gabbro_rect,4,2.153,1,9,0,9,0,1,,,,,,,,,,,,,
5dd9f0e719eecb97dfab7b48,TCN,2024-06-20_15h28.35.992,LearnStrategy,2023.2.3,Win32,60.60606061,9,1,11,0.089171975,-0.000289548,1,0,0,0.7417,rock_grid_rect_2,6,05,-1,-1,0.742,0.137347995,-0.249507831,1,0,0,2.45,Diorite_rect,3,2.45,0,10,0,10,0,1,,,,,,,,,,,,,
5dd9f0e719eecb97dfab7b48,TCN,2024-06-20_15h28.35.992,LearnStrategy,2023.2.3,Win32,60.60606061,9,1,12,0.041922444,0.001563394,1,0,0,0.7321,rock_grid_rect_2,2,10,-1,-1,0.732,-0.099826225,-0.253213715,1,0,0,1.3081,Basalt_rect,2,1.308,1,11,0,11,0,1,,,,,,,,,,,,,
5dd9f0e719eecb97dfab7b48,TCN,2024-06-20_15h28.35.992,LearnStrategy,2023.2.3,Win32,60.60606061,9,1,13,0.061378119,0.01360738,1,0,0,0.7825,rock_grid_rect_2,2,04,-1,-1,0.783,-0.080370549,-0.239316748,1,0,0,1.6121,Basalt_rect,2,1.612,1,12,0,12,0,1,,,,,,,,,,,,,
5dd9f0e719eecb97dfab7b48,TCN,2024-06-20_15h28.35.992,LearnStrategy,2023.2.3,Win32,60.60606061,9,1,14,0.050260624,0.007122181,1,0,0,1.9527,rock_grid_rect_2,5,12,-1,-1,1.953,-0.36757381,-0.400521248,1,0,0,1.0293,Obsidian_rect,5,1.029,1,13,0,13,0,1,,,,,,,,,,,,,
5dd9f0e719eecb97dfab7b48,TCN,2024-06-20_15h28.35.992,LearnStrategy,2023.2.3,Win32,60.60606061,9,1,15,0.04655474,-0.002142451,1,0,0,0.7487,rock_grid_rect_2,1,09,-1,-1,0.749,-0.364794416,-0.246728438,1,0,0,1.6366,Andesite_rect,1,1.637,1,14,0,14,0,1,,,,,,,,,,,,,
5dd9f0e719eecb97dfab7b48,TCN,2024-06-20_15h28.35.992,LearnStrategy,2023.2.3,Win32,60.60606061,9,1,16,0.05489292,-0.01789232,1,0,0,1.5892,rock_grid_rect_2,3,12,-1,-1,1.589,0.11048063,-0.403300564,1,0,0,2.0633,Peridotite_rect,7,2.063,0,15,0,15,0,1,,,,,,,,,,,,,
5dd9f0e719eecb97dfab7b48,TCN,2024-06-20_15h28.35.992,LearnStrategy,2023.2.3,Win32,60.60606061,9,2,1,,,,,,,,1,14,,,,,,,,,,,3,3.599,0,,,,,,0.183671113,-0.262478307,1,0,0,3.5992,Diorite_rect,0,0,0,0,1,
5dd9f0e719eecb97dfab7b48,TCN,2024-06-20_15h28.35.992,LearnStrategy,2023.2.3,Win32,60.60606061,9,2,2,,,,,,,,5,06,,,,,,,,,,,5,1.336,1,,,,,,-0.395367665,-0.414418137,1,0,0,1.3361,Obsidian_rect,1,0,1,0,1,
5dd9f0e719eecb97dfab7b48,TCN,2024-06-20_15h28.35.992,LearnStrategy,2023.2.3,Win32,60.60606061,9,2,3,,,,,,,,4,10,,,,,,,,,,,4,3.145,1,,,,,,0.392125143,-0.253213715,1,0,0,3.1446,Gabbro_rect,2,0,2,0,1,
5dd9f0e719eecb97dfab7b48,TCN,2024-06-20_15h28.35.992,LearnStrategy,2023.2.3,Win32,60.60606061,9,2,4,,,,,,,,7,13,,,,,,,,,,,7,1.602,1,,,,,,0.18089172,-0.389403597,1,0,0,1.6024,Peridotite_rect,3,0,3,0,1,
5dd9f0e719eecb97dfab7b48,TCN,2024-06-20_15h28.35.992,LearnStrategy,2023.2.3,Win32,60.60606061,9,2,5,,,,,,,,3,08,,,,,,,,,,,1,1.353,0,,,,,,-0.373132596,-0.255066618,1,0,0,1.3529,Andesite_rect,4,0,4,0,1,
5dd9f0e719eecb97dfab7b48,TCN,2024-06-20_15h28.35.992,LearnStrategy,2023.2.3,Win32,60.60606061,9,2,6,,,,,,,,6,13,,,,,,,,,,,7,3.965,0,,,,,,0.091951368,-0.394962384,1,0,0,3.965,Peridotite_rect,5,0,5,0,1,
5dd9f0e719eecb97dfab7b48,TCN,2024-06-20_15h28.35.992,LearnStrategy,2023.2.3,Win32,60.60606061,9,2,7,,,,,,,,1,02,,,,,,,,,,,6,3.889,0,,,,,,-0.149855226,-0.406079957,1,0,0,3.8893,Pegmatite_rect,6,0,6,0,1,
5dd9f0e719eecb97dfab7b48,TCN,2024-06-20_15h28.35.992,LearnStrategy,2023.2.3,Win32,60.60606061,9,2,8,,,,,,,,8,05,,,,,,,,,,,4,3.851,0,,,,,,0.38100757,-0.245802025,1,0,0,3.8507,Gabbro_rect,7,0,7,0,1,
5dd9f0e719eecb97dfab7b48,TCN,2024-06-20_15h28.35.992,LearnStrategy,2023.2.3,Win32,60.60606061,9,2,9,,,,,,,,6,11,,,,,,,,,,,5,2.918,0,,,,,,-0.366647358,-0.415344549,1,0,0,2.9178,Obsidian_rect,8,0,8,0,1,
5dd9f0e719eecb97dfab7b48,TCN,2024-06-20_15h28.35.992,LearnStrategy,2023.2.3,Win32,60.60606061,9,2,10,,,,,,,,4,14,,,,,,,,,,,3,2.349,0,,,,,,0.146612665,-0.244875535,1,0,0,2.3492,Diorite_rect,9,0,9,0,1,
5dd9f0e719eecb97dfab7b48,TCN,2024-06-20_15h28.35.992,LearnStrategy,2023.2.3,Win32,60.60606061,9,2,11,,,,,,,,5,05,,,,,,,,,,,5,1.184,1,,,,,,-0.364794416,-0.41627104,1,0,0,1.1836,Obsidian_rect,10,0,10,0,1,
5dd9f0e719eecb97dfab7b48,TCN,2024-06-20_15h28.35.992,LearnStrategy,2023.2.3,Win32,60.60606061,9,2,12,,,,,,,,3,02,,,,,,,,,,,1,1.488,0,,,,,,-0.364794416,-0.256919598,1,0,0,1.4881,Andesite_rect,11,0,11,0,1,
5dd9f0e719eecb97dfab7b48,TCN,2024-06-20_15h28.35.992,LearnStrategy,2023.2.3,Win32,60.60606061,9,2,13,,,,,,,,2,12,,,,,,,,,,,4,2.152,0,,,,,,0.398610342,-0.257846011,1,0,0,2.1523,Gabbro_rect,12,0,12,0,1,
5dd9f0e719eecb97dfab7b48,TCN,2024-06-20_15h28.35.992,LearnStrategy,2023.2.3,Win32,60.60606061,9,2,14,,,,,,,,2,09,,,,,,,,,,,4,2.681,0,,,,,,0.394904459,-0.254140127,1,0,0,2.6808,Gabbro_rect,13,0,13,0,1,
5dd9f0e719eecb97dfab7b48,TCN,2024-06-20_15h28.35.992,LearnStrategy,2023.2.3,Win32,60.60606061,9,2,15,,,,,,,,7,15,,,,,,,,,,,6,2.784,0,,,,,,-0.085929258,-0.419050433,1,0,0,2.7841,Pegmatite_rect,14,0,14,0,1,
5dd9f0e719eecb97dfab7b48,TCN,2024-06-20_15h28.35.992,LearnStrategy,2023.2.3,Win32,60.60606061,9,2,16,,,,,,,,8,13,,,,,,,,,,,3,2.702,0,,,,,,0.136421583,-0.256919598,1,0,0,2.7023,Diorite_rect,15,0,15,0,1,
5dd9f0e719eecb97dfab7b48,TCN,2024-06-20_15h28.35.992,LearnStrategy,2023.2.3,Win32,60.60606061,,,,,,,,,,,,,,,,,,,,,,,,,,,,,,,,,,,,,,,,,,,0
5dd9f0e719eecb97dfab7b48,TCN,2024-06-20_15h28.35.992,LearnStrategy,2023.2.3,Win32,60.60606061,,,,,,,,,,,,,,,,,,,,,,,,,,,,,,,,,,,,,,,,,,,
5dd9f0e719eecb97dfab7b48,TCN,2024-06-20_15h28.35.992,LearnStrategy,2023.2.3,Win32,60.60606061,,,,,,,,,,,7,10,1,1,,,,,,,,,,,,,,,,,,,,,,,,,,,,,
5dd9f0e719eecb97dfab7b48,TCN,2024-06-20_15h28.35.992,LearnStrategy,2023.2.3,Win32,60.60606061,,,,,,,,,,,1,05,1,2,,,,,,,,,,,,,,,,,,,,,,,,,,,,,
5dd9f0e719eecb97dfab7b48,TCN,2024-06-20_15h28.35.992,LearnStrategy,2023.2.3,Win32,60.60606061,,,,,,,,,,,8,16,1,3,,,,,,,,,,,,,,,,,,,,,,,,,,,,,
5dd9f0e719eecb97dfab7b48,TCN,2024-06-20_15h28.35.992,LearnStrategy,2023.2.3,Win32,60.60606061,,,,,,,,,,,5,07,1,4,,,,,,,,,,,,,,,,,,,,,,,,,,,,,
5dd9f0e719eecb97dfab7b48,TCN,2024-06-20_15h28.35.992,LearnStrategy,2023.2.3,Win32,60.60606061,,,,,,,,,,,8,14,1,5,,,,,,,,,,,,,,,,,,,,,,,,,,,,,
5dd9f0e719eecb97dfab7b48,TCN,2024-06-20_15h28.35.992,LearnStrategy,2023.2.3,Win32,60.60606061,,,,,,,,,,,6,08,1,6,,,,,,,,,,,,,,,,,,,,,,,,,,,,,
5dd9f0e719eecb97dfab7b48,TCN,2024-06-20_15h28.35.992,LearnStrategy,2023.2.3,Win32,60.60606061,,,,,,,,,,,8,02,1,7,,,,,,,,,,,,,,,,,,,,,,,,,,,,,
5dd9f0e719eecb97dfab7b48,TCN,2024-06-20_15h28.35.992,LearnStrategy,2023.2.3,Win32,60.60606061,,,,,,,,,,,7,07,1,8,,,,,,,,,,,,,,,,,,,,,,,,,,,,,
5dd9f0e719eecb97dfab7b48,TCN,2024-06-20_15h28.35.992,LearnStrategy,2023.2.3,Win32,60.60606061,,,,,,,,,,,6,05,2,1,,,,,,,,,,,,,,,,,,,,,,,,,,,,,
5dd9f0e719eecb97dfab7b48,TCN,2024-06-20_15h28.35.992,LearnStrategy,2023.2.3,Win32,60.60606061,,,,,,,,,,,3,12,2,2,,,,,,,,,,,,,,,,,,,,,,,,,,,,,
5dd9f0e719eecb97dfab7b48,TCN,2024-06-20_15h28.35.992,LearnStrategy,2023.2.3,Win32,60.60606061,,,,,,,,,,,3,09,2,3,,,,,,,,,,,,,,,,,,,,,,,,,,,,,
5dd9f0e719eecb97dfab7b48,TCN,2024-06-20_15h28.35.992,LearnStrategy,2023.2.3,Win32,60.60606061,,,,,,,,,,,7,02,2,4,,,,,,,,,,,,,,,,,,,,,,,,,,,,,
5dd9f0e719eecb97dfab7b48,TCN,2024-06-20_15h28.35.992,LearnStrategy,2023.2.3,Win32,60.60606061,,,,,,,,,,,8,09,2,5,,,,,,,,,,,,,,,,,,,,,,,,,,,,,
5dd9f0e719eecb97dfab7b48,TCN,2024-06-20_15h28.35.992,LearnStrategy,2023.2.3,Win32,60.60606061,,,,,,,,,,,8,03,2,6,,,,,,,,,,,,,,,,,,,,,,,,,,,,,
5dd9f0e719eecb97dfab7b48,TCN,2024-06-20_15h28.35.992,LearnStrategy,2023.2.3,Win32,60.60606061,,,,,,,,,,,2,14,2,7,,,,,,,,,,,,,,,,,,,,,,,,,,,,,
5dd9f0e719eecb97dfab7b48,TCN,2024-06-20_15h28.35.992,LearnStrategy,2023.2.3,Win32,60.60606061,,,,,,,,,,,6,06,2,8,,,,,,,,,,,,,,,,,,,,,,,,,,,,,
5dd9f0e719eecb97dfab7b48,TCN,2024-06-20_15h28.35.992,LearnStrategy,2023.2.3,Win32,60.60606061,,,,,,,,,,,2,06,3,1,,,,,,,,,,,,,,,,,,,,,,,,,,,,,
5dd9f0e719eecb97dfab7b48,TCN,2024-06-20_15h28.35.992,LearnStrategy,2023.2.3,Win32,60.60606061,,,,,,,,,,,6,10,3,2,,,,,,,,,,,,,,,,,,,,,,,,,,,,,
5dd9f0e719eecb97dfab7b48,TCN,2024-06-20_15h28.35.992,LearnStrategy,2023.2.3,Win32,60.60606061,,,,,,,,,,,5,14,3,3,,,,,,,,,,,,,,,,,,,,,,,,,,,,,
5dd9f0e719eecb97dfab7b48,TCN,2024-06-20_15h28.35.992,LearnStrategy,2023.2.3,Win32,60.60606061,,,,,,,,,,,1,16,3,4,,,,,,,,,,,,,,,,,,,,,,,,,,,,,
5dd9f0e719eecb97dfab7b48,TCN,2024-06-20_15h28.35.992,LearnStrategy,2023.2.3,Win32,60.60606061,,,,,,,,,,,3,15,3,5,,,,,,,,,,,,,,,,,,,,,,,,,,,,,
5dd9f0e719eecb97dfab7b48,TCN,2024-06-20_15h28.35.992,LearnStrategy,2023.2.3,Win32,60.60606061,,,,,,,,,,,4,01,3,6,,,,,,,,,,,,,,,,,,,,,,,,,,,,,
5dd9f0e719eecb97dfab7b48,TCN,2024-06-20_15h28.35.992,LearnStrategy,2023.2.3,Win32,60.60606061,,,,,,,,,,,4,11,3,7,,,,,,,,,,,,,,,,,,,,,,,,,,,,,
5dd9f0e719eecb97dfab7b48,TCN,2024-06-20_15h28.35.992,LearnStrategy,2023.2.3,Win32,60.60606061,,,,,,,,,,,2,08,3,8,,,,,,,,,,,,,,,,,,,,,,,,,,,,,
5dd9f0e719eecb97dfab7b48,TCN,2024-06-20_15h28.35.992,LearnStrategy,2023.2.3,Win32,60.60606061,,,,,,,,,,,7,04,4,1,,,,,,,,,,,,,,,,,,,,,,,,,,,,,
5dd9f0e719eecb97dfab7b48,TCN,2024-06-20_15h28.35.992,LearnStrategy,2023.2.3,Win32,60.60606061,,,,,,,,,,,3,10,4,2,,,,,,,,,,,,,,,,,,,,,,,,,,,,,
5dd9f0e719eecb97dfab7b48,TCN,2024-06-20_15h28.35.992,LearnStrategy,2023.2.3,Win32,60.60606061,,,,,,,,,,,6,16,4,3,,,,,,,,,,,,,,,,,,,,,,,,,,,,,
5dd9f0e719eecb97dfab7b48,TCN,2024-06-20_15h28.35.992,LearnStrategy,2023.2.3,Win32,60.60606061,,,,,,,,,,,2,04,4,4,,,,,,,,,,,,,,,,,,,,,,,,,,,,,
5dd9f0e719eecb97dfab7b48,TCN,2024-06-20_15h28.35.992,LearnStrategy,2023.2.3,Win32,60.60606061,,,,,,,,,,,1,04,4,5,,,,,,,,,,,,,,,,,,,,,,,,,,,,,
5dd9f0e719eecb97dfab7b48,TCN,2024-06-20_15h28.35.992,LearnStrategy,2023.2.3,Win32,60.60606061,,,,,,,,,,,1,09,4,6,,,,,,,,,,,,,,,,,,,,,,,,,,,,,
5dd9f0e719eecb97dfab7b48,TCN,2024-06-20_15h28.35.992,LearnStrategy,2023.2.3,Win32,60.60606061,,,,,,,,,,,4,05,4,7,,,,,,,,,,,,,,,,,,,,,,,,,,,,,
5dd9f0e719eecb97dfab7b48,TCN,2024-06-20_15h28.35.992,LearnStrategy,2023.2.3,Win32,60.60606061,,,,,,,,,,,1,01,4,8,,,,,,,,,,,,,,,,,,,,,,,,,,,,,
5dd9f0e719eecb97dfab7b48,TCN,2024-06-20_15h28.35.992,LearnStrategy,2023.2.3,Win32,60.60606061,,,,,,,,,,,2,10,5,1,,,,,,,,,,,,,,,,,,,,,,,,,,,,,
5dd9f0e719eecb97dfab7b48,TCN,2024-06-20_15h28.35.992,LearnStrategy,2023.2.3,Win32,60.60606061,,,,,,,,,,,7,06,5,2,,,,,,,,,,,,,,,,,,,,,,,,,,,,,
5dd9f0e719eecb97dfab7b48,TCN,2024-06-20_15h28.35.992,LearnStrategy,2023.2.3,Win32,60.60606061,,,,,,,,,,,5,10,5,3,,,,,,,,,,,,,,,,,,,,,,,,,,,,,
5dd9f0e719eecb97dfab7b48,TCN,2024-06-20_15h28.35.992,LearnStrategy,2023.2.3,Win32,60.60606061,,,,,,,,,,,1,10,5,4,,,,,,,,,,,,,,,,,,,,,,,,,,,,,
5dd9f0e719eecb97dfab7b48,TCN,2024-06-20_15h28.35.992,LearnStrategy,2023.2.3,Win32,60.60606061,,,,,,,,,,,4,15,5,5,,,,,,,,,,,,,,,,,,,,,,,,,,,,,
5dd9f0e719eecb97dfab7b48,TCN,2024-06-20_15h28.35.992,LearnStrategy,2023.2.3,Win32,60.60606061,,,,,,,,,,,7,05,5,6,,,,,,,,,,,,,,,,,,,,,,,,,,,,,
5dd9f0e719eecb97dfab7b48,TCN,2024-06-20_15h28.35.992,LearnStrategy,2023.2.3,Win32,60.60606061,,,,,,,,,,,4,03,5,7,,,,,,,,,,,,,,,,,,,,,,,,,,,,,
5dd9f0e719eecb97dfab7b48,TCN,2024-06-20_15h28.35.992,LearnStrategy,2023.2.3,Win32,60.60606061,,,,,,,,,,,5,04,5,8,,,,,,,,,,,,,,,,,,,,,,,,,,,,,
5dd9f0e719eecb97dfab7b48,TCN,2024-06-20_15h28.35.992,LearnStrategy,2023.2.3,Win32,60.60606061,,,,,,,,,,,4,08,6,1,,,,,,,,,,,,,,,,,,,,,,,,,,,,,
5dd9f0e719eecb97dfab7b48,TCN,2024-06-20_15h28.35.992,LearnStrategy,2023.2.3,Win32,60.60606061,,,,,,,,,,,8,08,6,2,,,,,,,,,,,,,,,,,,,,,,,,,,,,,
5dd9f0e719eecb97dfab7b48,TCN,2024-06-20_15h28.35.992,LearnStrategy,2023.2.3,Win32,60.60606061,,,,,,,,,,,3,16,6,3,,,,,,,,,,,,,,,,,,,,,,,,,,,,,
5dd9f0e719eecb97dfab7b48,TCN,2024-06-20_15h28.35.992,LearnStrategy,2023.2.3,Win32,60.60606061,,,,,,,,,,,5,02,6,4,,,,,,,,,,,,,,,,,,,,,,,,,,,,,
5dd9f0e719eecb97dfab7b48,TCN,2024-06-20_15h28.35.992,LearnStrategy,2023.2.3,Win32,60.60606061,,,,,,,,,,,5,12,6,5,,,,,,,,,,,,,,,,,,,,,,,,,,,,,
5dd9f0e719eecb97dfab7b48,TCN,2024-06-20_15h28.35.992,LearnStrategy,2023.2.3,Win32,60.60606061,,,,,,,,,,,2,05,6,6,,,,,,,,,,,,,,,,,,,,,,,,,,,,,
5dd9f0e719eecb97dfab7b48,TCN,2024-06-20_15h28.35.992,LearnStrategy,2023.2.3,Win32,60.60606061,,,,,,,,,,,6,12,6,7,,,,,,,,,,,,,,,,,,,,,,,,,,,,,
5dd9f0e719eecb97dfab7b48,TCN,2024-06-20_15h28.35.992,LearnStrategy,2023.2.3,Win32,60.60606061,,,,,,,,,,,3,13,6,8,,,,,,,,,,,,,,,,,,,,,,,,,,,,,